epoch,acc_x,acc_y,acc_z,rot_x,rot_y,rot_z,mag_x,mag_y,mag_z,temp
1644176700.007659,-0.012024,0.008789,-0.991516,0.297191,0.432366,-0.054656,61,275,598,5824
1644176700.104316,-0.010193,0.01062,-0.991943,0.129252,0.417099,-0.130992,55,291,592,5824
1644176700.152699,-0.011536,0.008667,-0.990906,0.236122,0.447634,-0.161527,52,270,582,5824
1644176700.201087,-0.009155,0.010132,-0.992371,0.297191,0.356031,-0.100458,48,281,576,5776
1644176700.249467,-0.009094,0.009583,-0.98999,0.205588,0.386565,-0.161527,51,271,573,5760
1644176700.297874,-0.010315,0.007507,-0.992615,0.144519,0.340763,-0.100458,43,276,580,5840
1644176700.346255,-0.011963,0.010071,-0.992676,0.205588,0.24916,0.006412,45,275,582,5808
1644176700.394661,-0.009888,0.009399,-0.991638,0.220855,0.386565,-0.283664,55,269,587,5824
1644176700.443053,-0.006775,0.011597,-0.992859,0.220855,0.585038,-0.039389,43,281,580,5840
1644176700.491788,-0.01001,0.009705,-0.991333,0.175053,0.371298,0.021679,47,275,584,5824
1644176700.539814,-0.01062,0.008545,-0.989868,0.129252,0.523969,-0.024122,45,280,579,5760
1644176700.588216,-0.010315,0.009216,-0.992004,0.175053,0.539237,-0.176794,55,276,587,5776
1644176700.63661,-0.008911,0.010437,-0.990112,0.113985,0.554504,-0.039389,52,275,582,5808
1644176700.685127,-0.010437,0.006592,-0.99292,0.144519,0.600305,-0.130992,60,264,590,5760
1644176700.733441,-0.009583,0.008423,-0.990356,0.220855,0.401832,-0.085191,55,271,578,5840
1644176700.781783,-0.009888,0.008423,-0.992554,0.159786,0.127023,-0.085191,51,279,573,5808
1644176700.830219,-0.008667,0.009766,-0.991577,0.220855,0.340763,-0.207328,53,281,592,5840
1644176700.878607,-0.011292,0.009155,-0.993225,0.190321,0.233893,-0.085191,53,276,585,5872
1644176700.927331,-0.010925,0.006409,-0.991455,0.251389,0.447634,-0.130992,49,282,593,5760
1644176700.975417,-0.007446,0.01123,-0.990845,0.266656,0.447634,-0.100458,47,273,589,5840
1644176701.025193,-0.006592,0.008911,-0.993774,0.373527,0.371298,-0.069924,52,273,584,5840
1644176701.082398,-0.008362,0.008789,-0.993713,0.129252,0.462901,-0.25313,49,273,582,5824
1644176701.126569,-0.008911,0.009155,-0.991089,0.342992,0.447634,0.021679,42,265,598,5872
1644176701.170094,-0.009033,0.008362,-0.993164,0.175053,0.417099,-0.14626,52,280,577,5824
1644176701.265676,-0.011597,0.009338,-0.993408,0.251389,0.417099,0.067481,46,274,583,5872
1644176701.314099,-0.010071,0.00769,-0.99115,0.312458,0.417099,-0.115725,43,271,578,5808
1644176701.362476,-0.013184,0.008667,-0.99353,0.205588,0.264427,-0.039389,53,271,583,5840
1644176701.410859,-0.009094,0.010925,-0.992676,0.220855,0.325496,-0.100458,52,280,575,5776
1644176701.459235,-0.010193,0.006165,-0.993896,0.236122,0.478168,0.067481,55,274,597,5824
1644176701.507638,-0.009216,0.009094,-0.994507,0.175053,0.356031,0.021679,47,265,584,5840
1644176701.556031,-0.009705,0.01123,-0.989868,0.205588,0.417099,-0.069924,46,271,587,5824
1644176701.604416,-0.009705,0.00946,-0.990723,0.220855,0.371298,-0.100458,46,276,585,5808
1644176701.65284,-0.010925,0.009888,-0.992859,0.281924,0.462901,-0.14626,55,271,580,5840
1644176701.701216,-0.012146,0.010132,-0.993469,0.266656,0.340763,-0.100458,42,273,582,5840
1644176701.749579,-0.011108,0.009705,-0.995667,0.266656,0.371298,-0.176794,52,273,584,5776
1644176701.797988,-0.006531,0.009399,-0.989624,0.373527,0.356031,0.052214,42,280,577,5760
1644176701.846424,-0.012451,0.00708,-0.993652,0.190321,0.24916,-0.085191,47,275,584,5872
1644176701.894816,-0.00946,0.009155,-0.992004,0.098718,0.447634,-0.115725,55,276,583,5824
1644176701.943199,-0.012146,0.010193,-0.98999,0.129252,0.356031,-0.085191,55,276,580,5776
1644176701.991567,-0.009583,0.006836,-0.990906,0.251389,0.539237,-0.222595,43,281,590,5808
1644176702.039939,-0.009399,0.009155,-0.993774,0.022382,0.356031,-0.069924,54,277,591,5808
1644176702.092279,-0.009705,0.009766,-0.991272,0.129252,0.294962,-0.25313,47,282,579,5776
1644176702.136704,-0.007507,0.010559,-0.99353,0.205588,0.340763,-0.207328,52,268,586,5808
1644176702.185734,-0.008179,0.009338,-0.992554,0.159786,0.371298,-0.268397,48,269,590,5808
1644176702.236467,-0.008118,0.011169,-0.991394,0.297191,0.523969,-0.25313,57,275,582,5776
1644176702.286583,-0.013123,0.008484,-0.991882,0.266656,0.447634,-0.024122,46,274,592,5840
1644176702.331506,-0.008545,0.008362,-0.990173,0.251389,0.264427,-0.115725,52,280,582,5824
1644176702.427051,-0.008118,0.010376,-0.993347,0.190321,0.24916,-0.14626,57,275,577,5840
1644176702.475446,-0.009766,0.00769,-0.990356,0.236122,0.554504,-0.100458,43,279,573,5872
1644176702.523897,-0.010132,0.00824,-0.991638,0.327725,0.356031,-0.115725,42,277,589,5824
1644176702.572375,-0.010254,0.009033,-0.990601,0.388794,0.432366,-0.161527,47,275,577,5872
1644176702.620645,-0.008728,0.007935,-0.992981,0.129252,0.417099,-0.222595,54,273,591,5840
1644176702.66903,-0.009338,0.010193,-0.99353,0.251389,0.325496,-0.207328,46,279,590,5776
1644176702.717425,-0.010986,0.011169,-0.990845,0.419328,0.356031,0.006412,47,277,582,5776
1644176702.765807,-0.012207,0.008728,-0.993958,0.297191,0.417099,-0.039389,48,279,587,5840
1644176702.814215,-0.009033,0.007996,-0.992798,0.068183,0.539237,-0.14626,42,282,582,5776
1644176702.862645,-0.008057,0.009766,-0.993225,0.037649,0.24916,-0.054656,46,283,590,5808
1644176702.911008,-0.010742,0.007507,-0.992432,0.144519,0.340763,-0.130992,48,279,578,5824
1644176702.959416,-0.011169,0.008911,-0.989868,0.373527,0.462901,0.067481,48,269,597,5840
1644176703.007783,-0.011475,0.011169,-0.992432,0.113985,0.340763,-0.192061,47,275,591,5888
1644176703.065529,-0.009644,0.009033,-0.992065,0.266656,0.401832,-0.024122,59,280,589,5808
1644176703.104674,-0.008484,0.006836,-0.989136,0.236122,0.264427,-0.130992,42,275,584,5760
1644176703.152956,-0.009216,0.008423,-0.98938,0.342992,0.371298,-0.008855,42,277,579,5872
1644176703.201332,-0.007385,0.00885,-0.99176,-0.008153,0.432366,-0.100458,47,277,579,5760
1644176703.249698,-0.009827,0.009827,-0.990784,0.388794,0.371298,-0.115725,52,268,582,5824
1644176703.298114,-0.010681,0.007751,-0.990479,0.129252,0.356031,-0.024122,45,270,591,5760
1644176703.346524,-0.007812,0.01062,-0.990723,0.037649,0.356031,-0.100458,55,281,580,5808
1644176703.396753,-0.012817,0.009277,-0.992615,0.159786,0.24916,-0.130992,49,268,586,5824
1644176703.447256,-0.009155,0.009216,-0.993286,0.220855,0.340763,-0.14626,51,271,592,5840
1644176703.492665,-0.013245,0.007446,-0.991699,0.327725,0.447634,-0.14626,43,276,576,5808
1644176703.588449,-0.010376,0.008362,-0.992004,0.175053,0.340763,-0.024122,45,277,584,5728
1644176703.636843,-0.010681,0.007141,-0.992493,0.205588,0.371298,-0.054656,45,275,586,5824
1644176703.685425,-0.010559,0.009827,-0.992371,0.266656,0.462901,-0.14626,52,273,584,5824
1644176703.733655,-0.011047,0.009338,-0.992737,0.251389,0.371298,-0.069924,45,280,579,5808
1644176703.782015,-0.009583,0.008301,-0.991516,0.251389,0.325496,-0.161527,45,280,582,5760
1644176703.830417,-0.008301,0.009155,-0.993652,0.190321,0.356031,-0.085191,52,268,584,5728
1644176703.878827,-0.008423,0.01001,-0.99292,0.236122,0.417099,-0.115725,47,280,577,5872
1644176703.927257,-0.010071,0.008301,-0.993042,0.220855,0.371298,-0.039389,51,262,578,5840
1644176703.975632,-0.007019,0.009033,-0.991394,0.129252,0.432366,-0.085191,55,274,573,5808
1644176704.024049,-0.012695,0.009338,-0.995239,0.404061,0.325496,-0.100458,54,275,579,5888
1644176704.090273,-0.010254,0.009399,-0.99176,0.175053,0.417099,-0.130992,47,277,586,5872
1644176704.120828,-0.008911,0.008484,-0.991089,0.266656,0.462901,-0.085191,46,276,580,5760
1644176704.170742,-0.009033,0.008484,-0.99176,0.266656,0.401832,-0.085191,53,274,597,5872
1644176704.219166,-0.012634,0.009338,-0.995422,0.281924,0.462901,-0.176794,53,279,576,5872
1644176704.269544,-0.009338,0.006897,-0.989685,0.190321,0.401832,0.052214,55,264,580,5808
1644176704.31993,-0.009827,0.008728,-0.991882,0.342992,0.325496,-0.115725,46,271,587,5840
1644176704.411104,-0.010864,0.008789,-0.991882,0.175053,0.325496,-0.130992,49,277,586,5824
1644176704.459505,-0.010498,0.008484,-0.991089,0.342992,0.386565,-0.115725,47,280,584,5776
1644176704.507879,-0.008484,0.00824,-0.992126,0.342992,0.447634,0.113282,51,279,585,5760
1644176704.556278,-0.011047,0.009155,-0.99115,0.35826,0.432366,-0.192061,53,262,587,5808
1644176704.604685,-0.009521,0.009949,-0.993652,0.220855,0.401832,-0.161527,55,281,580,5808
1644176704.653088,-0.012329,0.009033,-0.990723,0.266656,0.401832,-0.176794,46,271,580,5808
1644176704.701469,-0.010254,0.010315,-0.994263,0.251389,0.508702,-0.024122,47,277,589,5808
1644176704.749832,-0.006226,0.010559,-0.992554,0.251389,0.386565,-0.008855,54,270,579,5728
1644176704.798242,-0.014709,0.008118,-0.990479,0.35826,0.417099,-0.192061,53,274,587,5808
1644176704.846635,-0.009705,0.01123,-0.992432,0.129252,0.371298,-0.085191,38,277,579,5808
1644176704.895191,-0.009155,0.008118,-0.991821,0.220855,0.264427,-0.14626,36,276,583,5760
1644176704.943454,-0.010437,0.009094,-0.990051,0.175053,0.432366,-0.008855,49,275,584,5808
1644176704.991853,-0.011414,0.00946,-0.992004,0.098718,0.340763,0.067481,49,280,572,5840
1644176705.040241,-0.008423,0.010437,-0.992737,0.281924,0.401832,-0.069924,55,276,580,5824
1644176705.091537,-0.010376,0.007935,-0.991028,0.205588,0.325496,-0.085191,57,275,596,5872
1644176705.137034,-0.009216,0.009399,-0.990173,0.205588,0.615573,-0.207328,46,266,580,5808
1644176705.185407,-0.006409,0.008179,-0.993408,0.220855,0.401832,-0.237863,45,277,586,5776
1644176705.234048,-0.007996,0.00708,-0.993286,0.190321,0.447634,-0.161527,52,280,593,5712
1644176705.282225,-0.011597,0.010315,-0.99054,0.281924,0.417099,-0.085191,49,282,586,5760
1644176705.332593,-0.007019,0.009277,-0.990234,0.159786,0.478168,-0.14626,47,287,582,5808
1644176705.382497,-0.010742,0.00885,-0.992859,0.068183,0.386565,0.098015,53,269,573,5776
1644176705.432703,-0.007874,0.009827,-0.990845,0.205588,0.401832,-0.14626,54,280,591,5712
1644176705.477421,-0.009766,0.01062,-0.993164,0.297191,0.218626,-0.100458,45,287,589,5808
1644176705.572536,-0.008667,0.009705,-0.991577,0.08345,0.462901,-0.100458,51,269,592,5840
1644176705.620929,-0.009033,0.009644,-0.990417,0.236122,0.432366,0.006412,55,276,585,5824
1644176705.669319,-0.012085,0.010559,-0.991394,0.312458,0.24916,0.113282,39,279,587,5824
1644176705.717708,-0.010742,0.009033,-0.993408,0.266656,0.417099,-0.14626,52,275,579,5760
1644176705.766096,-0.01001,0.009216,-0.992126,0.404061,0.401832,-0.344733,48,271,585,5840
1644176705.814469,-0.010071,0.007751,-0.992065,0.068183,0.508702,-0.100458,46,271,573,5808
1644176705.862902,-0.009277,0.007507,-0.993835,0.205588,0.371298,-0.054656,51,286,585,5776
1644176705.91128,-0.009094,0.009583,-0.992737,0.251389,0.493435,-0.069924,51,279,583,5808
1644176705.959672,-0.009949,0.010681,-0.992004,0.098718,0.294962,-0.039389,49,265,577,5840
1644176706.008067,-0.01062,0.010071,-0.992981,-0.02342,0.279695,-0.054656,52,275,586,5760
1644176706.06443,-0.009399,0.009888,-0.992737,0.297191,0.386565,0.082748,54,273,579,5808
1644176706.104845,-0.009216,0.013184,-0.990234,0.175053,0.401832,-0.069924,53,286,587,5776
1644176706.153214,-0.011414,0.008728,-0.993652,0.220855,0.417099,-0.024122,41,279,585,5872
1644176706.201561,-0.011047,0.011353,-0.991028,0.190321,0.340763,-0.237863,49,268,582,5808
1644176706.249947,-0.008118,0.009338,-0.993164,0.297191,0.432366,-0.207328,49,287,593,5824
1644176706.298363,-0.010376,0.009521,-0.990173,0.144519,0.325496,-0.268397,48,281,583,5760
1644176706.346763,-0.012634,0.008545,-0.993164,0.281924,0.386565,-0.222595,52,280,586,5824
1644176706.39518,-0.009216,0.00824,-0.992493,0.281924,0.386565,-0.14626,43,271,583,5776
1644176706.443561,-0.009277,0.007385,-0.992798,0.312458,0.371298,-0.024122,47,277,586,5760
1644176706.493909,-0.010498,0.011475,-0.994934,0.297191,0.157557,-0.054656,48,276,583,5808
1644176706.54376,-0.009094,0.01239,-0.992065,0.281924,0.569771,-0.024122,46,281,585,5808
1644176706.593932,-0.009888,0.008484,-0.995361,0.159786,0.371298,-0.115725,41,281,585,5808
1644176706.685526,-0.01123,0.008362,-0.992065,0.281924,0.386565,-0.237863,54,275,584,5808
1644176706.733901,-0.009094,0.008057,-0.992126,0.266656,0.417099,-0.054656,46,266,592,5696
1644176706.782652,-0.012817,0.010742,-0.99292,0.342992,0.401832,-0.054656,46,274,583,5808
1644176706.830676,-0.010132,0.008484,-0.993286,0.266656,0.294962,-0.085191,41,279,578,5840
1644176706.879099,-0.009277,0.008362,-0.989868,0.388794,0.371298,-0.100458,42,280,586,5776
1644176706.927493,-0.013062,0.007874,-0.991821,0.236122,0.386565,-0.14626,46,281,585,5728
1644176706.975877,-0.010559,0.007996,-0.992249,0.236122,0.508702,-0.161527,53,286,580,5824
1644176707.02429,-0.008057,0.009583,-0.989136,-0.038687,0.417099,-0.100458,47,273,582,5808
1644176707.084059,-0.008545,0.010315,-0.98938,0.251389,0.371298,-0.054656,41,276,587,5760
1644176707.121005,-0.009216,0.009705,-0.99054,0.190321,0.508702,-0.100458,46,281,585,5872
1644176707.169407,-0.011047,0.009216,-0.990295,0.281924,0.401832,0.036947,45,282,591,5728
1644176707.217794,-0.009644,0.009399,-0.992737,0.159786,0.462901,0.036947,53,283,585,5872
1644176707.266165,-0.006165,0.011658,-0.99054,0.35826,0.523969,-0.130992,46,281,587,5760
1644176707.314691,-0.007812,0.009033,-0.992371,0.129252,0.218626,-0.054656,46,283,592,5760
1644176707.36299,-0.009155,0.014099,-0.989624,0.35826,0.432366,-0.14626,46,279,573,5840
1644176707.411366,-0.00647,0.010071,-0.990051,0.388794,0.386565,-0.085191,53,271,585,5760
1644176707.45976,-0.00769,0.008423,-0.99054,0.08345,0.279695,-0.100458,46,276,580,5760
1644176707.508126,-0.010864,0.009155,-0.990784,0.129252,0.340763,-0.039389,47,268,586,5776
1644176707.556537,-0.009216,0.011963,-0.993164,0.113985,0.493435,-0.069924,51,281,585,5840
1644176707.605602,-0.010315,0.010193,-0.993591,0.08345,0.462901,-0.222595,54,277,584,5760
1644176707.656335,-0.007935,0.010254,-0.991272,0.236122,0.493435,-0.008855,52,275,593,5728
1644176707.706288,-0.008179,0.007141,-0.994995,0.190321,0.264427,-0.14626,47,282,593,5824
1644176707.751321,-0.005188,0.008301,-0.992615,0.281924,0.493435,-0.008855,48,279,585,5824
1644176707.846933,-0.007751,0.009033,-0.993469,0.175053,0.478168,-0.054656,59,275,586,5840
1644176707.895452,-0.012451,0.011169,-0.990479,0.190321,0.417099,-0.192061,45,265,591,5824
1644176707.943742,-0.01178,0.010132,-0.992188,0.35826,0.233893,-0.130992,45,275,591,5776
1644176707.992362,-0.009216,0.01062,-0.993042,0.068183,0.340763,-0.207328,41,274,590,5824
1644176708.04049,-0.013733,0.009216,-0.991028,0.281924,0.432366,-0.115725,39,291,585,5728
1644176708.088941,-0.011108,0.009033,-0.992981,0.159786,0.432366,-0.268397,48,281,585,5776
1644176708.137233,-0.010925,0.010437,-0.99292,0.220855,0.172824,-0.161527,54,275,575,5776
1644176708.185627,-0.008057,0.00824,-0.995544,0.220855,0.356031,-0.130992,45,270,584,5776
1644176708.23402,-0.00824,0.008362,-0.994507,0.35826,0.432366,-0.054656,54,282,584,5760
1644176708.282386,-0.011292,0.008118,-0.992676,0.205588,0.356031,-0.25313,51,274,592,5760
1644176708.330796,-0.01062,0.008362,-0.993164,0.159786,0.447634,0.036947,35,282,586,5824
1644176708.379184,-0.010132,0.008423,-0.990295,0.159786,0.386565,-0.085191,46,279,585,5824
1644176708.427589,-0.007385,0.011108,-0.991821,0.281924,0.386565,-0.207328,52,263,589,5824
1644176708.475968,-0.009399,0.010498,-0.990906,0.236122,0.356031,-0.176794,47,275,589,5824
1644176708.524368,-0.010681,0.010193,-0.99408,0.342992,0.371298,-0.100458,54,277,579,5872
1644176708.572907,-0.009033,0.009155,-0.992004,0.144519,0.371298,-0.100458,51,274,590,5728
1644176708.621675,-0.01123,0.009644,-0.991882,0.190321,0.325496,-0.085191,57,275,584,5808
1644176708.672829,-0.011597,0.008057,-0.990906,0.220855,0.356031,0.113282,41,281,580,5872
1644176708.722631,-0.010132,0.010559,-0.991577,0.190321,0.294962,0.052214,47,275,582,5776
1644176708.767439,-0.009155,0.009766,-0.99176,0.205588,0.24916,-0.100458,43,283,580,5712
1644176708.863157,-0.010925,0.012207,-0.992065,0.266656,0.386565,-0.069924,47,273,589,5808
1644176708.911525,-0.008362,0.007751,-0.991699,0.190321,0.371298,-0.024122,46,279,576,5776
1644176708.959928,-0.009583,0.009399,-0.991577,0.098718,0.539237,-0.130992,54,270,584,5824
1644176709.008293,-0.01239,0.008545,-0.992493,0.08345,0.447634,0.006412,53,279,583,5776
1644176709.058447,-0.00946,0.008362,-0.99408,0.144519,0.478168,-0.100458,57,277,598,5824
1644176709.105129,-0.00885,0.007629,-0.992432,0.129252,0.447634,-0.25313,47,280,589,5808
1644176709.153461,-0.011475,0.00824,-0.990479,0.266656,0.478168,-0.069924,43,279,578,5808
1644176709.201841,-0.009399,0.009827,-0.992249,0.113985,0.447634,-0.024122,52,275,575,5728
1644176709.250197,-0.011658,0.008606,-0.992126,0.297191,0.462901,-0.054656,52,282,577,5776
1644176709.298625,-0.012207,0.010742,-0.995361,0.312458,0.447634,-0.100458,58,271,578,5824
1644176709.347009,-0.009583,0.00824,-0.98999,0.251389,0.478168,-0.176794,43,279,583,5808
1644176709.395405,-0.009277,0.012024,-0.992065,0.297191,0.417099,-0.024122,45,263,589,5808
1644176709.443798,-0.008423,0.00769,-0.993347,0.159786,0.386565,-0.008855,51,269,583,5776
1644176709.492383,-0.010498,0.007019,-0.991943,0.342992,0.279695,-0.100458,48,281,585,5824
1644176709.540579,-0.009094,0.011536,-0.992859,0.205588,0.493435,-0.100458,52,273,593,5840
1644176709.588941,-0.009583,0.010071,-0.991699,0.236122,0.386565,-0.207328,52,265,600,5824
1644176709.637367,-0.009766,0.006897,-0.99176,0.098718,0.325496,-0.008855,43,271,590,5776
1644176709.686064,-0.009094,0.01123,-0.990601,0.434595,0.340763,-0.14626,42,275,584,5776
1644176709.734994,-0.009399,0.007324,-0.989929,0.220855,0.325496,-0.100458,45,270,577,5808
1644176709.785531,-0.00946,0.00769,-0.990173,0.297191,0.340763,-0.130992,57,280,591,5712
1644176709.835905,-0.010254,0.009277,-0.99176,0.144519,0.340763,-0.054656,51,271,583,5824
1644176709.927735,-0.010681,0.009216,-0.991455,0.190321,0.340763,-0.039389,53,274,583,5840
1644176709.976116,-0.009399,0.008911,-0.989807,0.281924,0.294962,-0.130992,48,279,578,5840
1644176710.02453,-0.011353,0.013367,-0.991943,0.35826,0.356031,-0.14626,42,273,586,5808
1644176710.072987,-0.012451,0.009949,-0.992188,0.113985,0.585038,-0.024122,52,275,589,5776
1644176710.121316,-0.009949,0.009644,-0.990845,0.220855,0.432366,-0.085191,53,274,580,5808
1644176710.169661,-0.009766,0.007141,-0.994019,0.220855,0.447634,-0.008855,40,275,582,5776
1644176710.218043,-0.005066,0.010437,-0.993652,0.297191,0.539237,-0.130992,48,279,580,5776
1644176710.26644,-0.011108,0.010132,-0.992249,0.129252,0.340763,0.082748,48,276,580,5776
1644176710.314875,-0.009399,0.00946,-0.992798,0.159786,0.432366,-0.161527,47,287,582,5824
1644176710.363245,-0.009705,0.009094,-0.992432,0.388794,0.539237,0.006412,36,279,578,5808
1644176710.411598,-0.011169,0.008301,-0.988831,0.205588,0.523969,-0.100458,42,277,591,5808
1644176710.460012,-0.007385,0.010559,-0.994141,0.266656,0.523969,-0.161527,45,268,584,5872
1644176710.50838,-0.010132,0.009277,-0.993958,0.342992,0.401832,-0.344733,41,271,585,5760
1644176710.556789,-0.013306,0.011108,-0.995117,0.388794,0.218626,-0.14626,40,285,579,5760
1644176710.605262,-0.012085,0.006348,-0.993103,0.449863,0.356031,-0.314198,48,276,583,5840
1644176710.653567,-0.007812,0.007263,-0.993958,0.113985,0.539237,-0.115725,51,281,592,5840
1644176710.701954,-0.01178,0.005798,-0.992432,0.251389,0.539237,0.036947,57,273,584,5776
1644176710.750321,-0.011108,0.007629,-0.992065,0.175053,0.356031,-0.069924,54,280,586,5776
1644176710.799061,-0.008972,0.007874,-0.994507,0.236122,0.585038,-0.115725,55,269,592,5712
1644176710.848929,-0.011658,0.007324,-0.994263,0.205588,0.417099,0.021679,60,269,578,5808
1644176710.899907,-0.013062,0.007935,-0.991211,0.251389,0.600305,-0.161527,48,279,587,5808
1644176710.949552,-0.011475,0.008179,-0.992432,0.236122,0.371298,-0.192061,45,275,589,5824
1644176711.040713,-0.010559,0.009399,-0.993958,0.297191,0.356031,0.006412,58,264,590,5776
1644176711.091252,-0.010193,0.010864,-0.992249,0.266656,0.401832,0.036947,61,265,593,5872
1644176711.137519,-0.011597,0.005554,-0.99292,0.190321,0.325496,-0.085191,43,276,569,5712
1644176711.185872,-0.00946,0.008972,-0.992188,0.297191,0.386565,-0.207328,47,277,591,5808
1644176711.234277,-0.00946,0.005493,-0.993347,0.297191,0.325496,-0.069924,41,276,585,5808
1644176711.282653,-0.008789,0.008545,-0.995605,0.190321,0.356031,-0.161527,54,285,586,5840
1644176711.331049,-0.009399,0.00708,-0.992615,0.205588,0.417099,-0.161527,43,274,587,5824
1644176711.379443,-0.008179,0.007141,-0.991333,0.449863,0.325496,-0.024122,42,270,582,5776
1644176711.427814,-0.010925,0.010925,-0.993286,0.388794,0.493435,0.036947,40,280,589,5760
1644176711.476233,-0.009583,0.011292,-0.992615,0.144519,0.188092,-0.115725,49,275,584,5840
1644176711.524661,-0.008423,0.008118,-0.993164,0.129252,0.386565,-0.115725,46,269,590,5776
1644176711.573323,-0.013306,0.007263,-0.990601,0.266656,0.462901,0.098015,51,269,592,5776
1644176711.622237,-0.012146,0.012024,-0.994934,0.281924,0.401832,-0.14626,47,277,582,5824
1644176711.67264,-0.009583,0.007629,-0.992493,0.205588,0.417099,-0.069924,48,281,585,5824
1644176711.723127,-0.011902,0.007996,-0.992554,0.251389,0.386565,-0.14626,46,274,580,5808
1644176711.815233,-0.011414,0.007202,-0.990906,0.297191,0.447634,-0.039389,52,270,579,5824
1644176711.863408,-0.008423,0.00946,-0.992432,0.08345,0.310229,-0.039389,49,273,577,5776
1644176711.911789,-0.00769,0.007751,-0.99054,0.236122,0.554504,-0.054656,47,277,582,5808
1644176711.960167,-0.010498,0.008667,-0.991333,0.327725,0.386565,-0.14626,42,275,572,5728
1644176712.008546,-0.013733,0.010742,-0.990784,0.373527,0.447634,-0.069924,48,279,578,5872
1644176712.058714,-0.010071,0.007812,-0.991089,0.190321,0.493435,-0.039389,60,288,587,5808
1644176712.105331,-0.010681,0.008545,-0.991455,0.266656,0.401832,-0.100458,51,269,585,5824
1644176712.153734,-0.009521,0.008362,-0.993347,0.297191,0.310229,-0.176794,52,280,575,5808
1644176712.202179,-0.014709,0.007446,-0.990906,0.373527,0.294962,-0.14626,41,269,578,5824
1644176712.250501,-0.011292,0.006165,-0.991394,0.236122,0.432366,-0.054656,51,274,573,5776
1644176712.298908,-0.009644,0.010071,-0.993103,0.35826,0.340763,0.159084,51,266,587,5872
1644176712.347295,-0.010254,0.007263,-0.991821,0.281924,0.417099,-0.085191,46,276,587,5776
1644176712.395694,-0.009216,0.010254,-0.994385,0.251389,0.371298,-0.039389,42,273,577,5728
1644176712.444069,-0.010681,0.00769,-0.990173,0.35826,0.447634,-0.237863,52,277,582,5840
1644176712.492467,-0.010071,0.011902,-0.99353,0.297191,0.279695,-0.115725,48,271,578,5808
1644176712.540874,-0.010925,0.007202,-0.993896,0.251389,0.569771,-0.130992,48,274,583,5760
1644176712.589252,-0.013611,0.010315,-0.989014,0.205588,0.432366,-0.054656,49,268,586,5808
1644176712.638142,-0.009705,0.007507,-0.99231,0.175053,0.386565,-0.115725,53,281,585,5872
1644176712.686399,-0.010864,0.008789,-0.991577,0.35826,0.462901,-0.268397,54,273,589,5728
1644176712.736777,-0.009949,0.005737,-0.993774,0.190321,0.432366,-0.069924,57,277,579,5760
1644176712.787108,-0.008972,0.010315,-0.992432,0.220855,0.401832,-0.115725,52,280,589,5808
1644176712.831535,-0.014099,0.008362,-0.993835,0.205588,0.264427,-0.069924,51,269,576,5776
1644176712.928014,-0.012207,0.00885,-0.992249,0.113985,0.340763,-0.085191,52,282,579,5824
1644176712.976383,-0.008423,0.00708,-0.992188,0.312458,0.417099,0.006412,49,268,584,5808
1644176713.024791,-0.012634,0.007263,-0.994812,0.327725,0.401832,0.021679,45,273,584,5728
1644176713.073245,-0.009399,0.010193,-0.992126,0.129252,0.417099,-0.192061,43,274,592,5760
1644176713.121508,-0.013611,0.00647,-0.992676,0.312458,0.294962,-0.039389,46,286,576,5824
1644176713.169915,-0.010498,0.007385,-0.989685,0.205588,0.325496,-0.222595,51,276,580,5840
1644176713.218309,-0.012329,0.009705,-0.991516,0.297191,0.279695,0.006412,47,280,582,5840
1644176713.266673,-0.009521,0.011841,-0.993042,0.266656,0.340763,-0.192061,48,279,576,5712
1644176713.315215,-0.01001,0.009888,-0.992493,0.342992,0.508702,0.113282,45,280,582,5840
1644176713.363488,-0.013489,0.00885,-0.993103,0.068183,0.493435,-0.039389,42,275,577,5872
1644176713.411866,-0.010376,0.009338,-0.99054,0.327725,0.523969,-0.039389,48,279,587,5824
1644176713.460269,-0.010071,0.008667,-0.990845,0.175053,0.462901,-0.176794,40,282,582,5808
1644176713.508636,-0.011719,0.011963,-0.992981,0.175053,0.386565,-0.192061,49,275,593,5904
1644176713.55704,-0.012329,0.009827,-0.992004,0.129252,0.569771,-0.085191,45,280,582,5808
1644176713.605429,-0.009094,0.007751,-0.989685,0.068183,0.310229,-0.115725,55,274,585,5872
1644176713.653826,-0.010681,0.01001,-0.993835,0.220855,0.493435,0.052214,52,277,586,5872
1644176713.702534,-0.01123,0.009644,-0.993164,0.098718,0.371298,-0.25313,53,286,585,5808
1644176713.750602,-0.011658,0.00885,-0.99176,0.236122,0.401832,0.006412,55,264,590,5776
1644176713.800668,-0.009827,0.010681,-0.992859,0.159786,0.432366,-0.085191,51,281,573,5808
1644176713.851571,-0.010559,0.008484,-0.992126,0.281924,0.585038,-0.130992,54,270,568,5872
1644176713.896142,-0.012085,0.009949,-0.992065,0.220855,0.432366,-0.008855,51,276,578,5840
1644176713.992622,-0.009033,0.008728,-0.991211,0.236122,0.432366,-0.100458,54,280,579,5840
1644176714.040983,-0.010986,0.00769,-0.990967,0.144519,0.417099,-0.039389,45,275,584,5808
1644176714.089453,-0.011902,0.009094,-0.990234,0.327725,0.523969,-0.039389,48,274,592,5840
1644176714.137737,-0.005554,0.009644,-0.992859,0.113985,0.356031,-0.192061,59,277,593,5824
1644176714.186135,-0.011597,0.008545,-0.992188,0.266656,0.401832,-0.054656,48,274,583,5840
1644176714.234535,-0.01001,0.011719,-0.989319,0.220855,0.478168,-0.207328,52,270,582,5776
1644176714.282905,-0.009827,0.006897,-0.993652,0.419328,0.401832,-0.161527,60,281,583,5728
1644176714.331304,-0.010132,0.010803,-0.991455,0.327725,0.356031,-0.024122,42,275,591,5808
1644176714.379696,-0.010376,0.009827,-0.993652,0.297191,0.554504,-0.130992,46,276,592,5808
1644176714.428088,-0.008179,0.008789,-0.996033,0.113985,0.356031,-0.207328,48,283,587,5760
1644176714.476477,-0.011536,0.011169,-0.991638,0.373527,0.356031,-0.100458,45,270,584,5872
1644176714.524873,-0.012268,0.008606,-0.992493,0.205588,0.340763,-0.115725,53,274,592,5824
1644176714.573247,-0.010864,0.007935,-0.991821,0.373527,0.508702,-0.054656,52,277,589,5776
1644176714.621886,-0.009338,0.008972,-0.992065,0.281924,0.478168,-0.054656,58,281,580,5760
1644176714.672392,-0.012207,0.010803,-0.993286,0.251389,0.325496,-0.069924,48,286,585,5824
1644176714.722716,-0.010498,0.007629,-0.991455,0.220855,0.386565,-0.024122,47,277,584,5840
1644176714.767589,-0.012085,0.009399,-0.992676,0.159786,0.462901,0.052214,45,277,591,5808
1644176714.863661,-0.009277,0.010803,-0.992371,0.388794,0.417099,-0.161527,54,287,584,5776
1644176714.912022,-0.010254,0.006958,-0.994995,0.175053,0.401832,-0.207328,39,281,585,5872
1644176714.96041,-0.010559,0.009399,-0.99469,0.037649,0.447634,-0.054656,46,269,585,5840
1644176715.008798,-0.010681,0.007324,-0.991577,0.312458,0.356031,-0.069924,49,268,582,5776
1644176715.058391,-0.009521,0.009216,-0.99408,0.175053,0.523969,-0.176794,42,273,582,5840
1644176715.105582,-0.00824,0.00824,-0.992432,0.266656,0.432366,-0.024122,49,270,579,5808
1644176715.153952,-0.010132,0.00885,-0.994751,0.434595,0.447634,-0.100458,51,264,583,5872
1644176715.202371,-0.008911,0.008606,-0.992249,0.251389,0.401832,-0.069924,59,275,579,5824
1644176715.250714,-0.012756,0.006958,-0.991577,0.327725,0.386565,0.006412,46,269,580,5872
1644176715.299112,-0.014771,0.008972,-0.99115,0.159786,0.508702,-0.069924,53,276,576,5808
1644176715.347494,-0.01178,0.00885,-0.992432,0.266656,0.386565,0.021679,45,277,586,5840
1644176715.395913,-0.009949,0.007812,-0.989197,0.388794,0.401832,0.021679,52,275,584,5776
1644176715.444281,-0.009705,0.009705,-0.991943,0.281924,0.310229,-0.14626,48,276,580,5760
1644176715.492679,-0.009766,0.010742,-0.989807,0.251389,0.462901,-0.176794,49,275,584,5872
1644176715.541075,-0.008057,0.008789,-0.992493,0.251389,0.356031,-0.085191,60,274,585,5840
1644176715.58946,-0.007629,0.007935,-0.992188,0.129252,0.508702,-0.085191,60,279,587,5808
1644176715.637868,-0.011292,0.010437,-0.993042,0.251389,0.462901,-0.069924,54,270,582,5728
1644176715.686255,-0.010132,0.010193,-0.99054,0.159786,0.462901,-0.069924,45,273,579,5776
1644176715.734653,-0.008911,0.011292,-0.99292,0.312458,0.401832,-0.192061,58,271,585,5808
1644176715.783095,-0.010742,0.009277,-0.991577,0.190321,0.554504,-0.130992,58,279,580,5824
1644176715.835101,-0.008362,0.010254,-0.991394,0.190321,0.371298,-0.085191,49,275,582,5760
1644176715.884793,-0.008301,0.008606,-0.990356,0.297191,0.401832,-0.192061,51,274,583,5808
1644176715.929154,-0.009277,0.009583,-0.99054,0.190321,0.508702,-0.115725,53,276,569,5808
1644176716.025285,-0.009399,0.007202,-0.991577,0.190321,0.585038,-0.115725,48,279,583,5808
1644176716.073484,-0.011353,0.009094,-0.993469,0.220855,0.356031,-0.008855,48,276,583,5904
1644176716.121754,-0.009888,0.009705,-0.992188,0.312458,0.325496,-0.115725,52,275,584,5776
1644176716.170159,-0.009338,0.008301,-0.991882,0.113985,0.417099,0.021679,52,280,575,5760
1644176716.218565,-0.010437,0.010315,-0.992798,0.342992,0.493435,-0.008855,41,276,583,5824
1644176716.266941,-0.012573,0.008545,-0.994873,0.251389,0.432366,-0.100458,43,269,580,5872
1644176716.315323,-0.013062,0.008789,-0.990662,0.281924,0.401832,-0.115725,48,271,585,5808
1644176716.363741,-0.01062,0.00946,-0.992493,0.052916,0.325496,-0.024122,48,279,590,5840
1644176716.412173,-0.009338,0.008545,-0.992676,0.281924,0.401832,-0.024122,48,274,590,5808
1644176716.460517,-0.010803,0.008667,-0.991943,0.220855,0.462901,-0.14626,45,282,584,5760
1644176716.508903,-0.012146,0.009583,-0.994385,0.220855,0.417099,-0.176794,49,287,586,5760
1644176716.557287,-0.01239,0.008972,-0.993469,0.373527,0.539237,-0.100458,48,274,578,5824
1644176716.605736,-0.011292,0.009216,-0.99353,0.373527,0.462901,-0.024122,53,271,585,5808
1644176716.654087,-0.007935,0.00824,-0.994202,0.159786,0.356031,-0.085191,53,262,578,5824
1644176716.702459,-0.008118,0.00708,-0.992065,0.220855,0.478168,-0.192061,46,269,583,5776
1644176716.750837,-0.013306,0.00885,-0.990479,0.220855,0.401832,-0.222595,45,273,584,5776
1644176716.799248,-0.011902,0.007141,-0.991882,0.251389,0.203359,-0.069924,51,274,594,5824
1644176716.847691,-0.011902,0.006714,-0.995117,0.205588,0.523969,-0.161527,39,271,585,5776
1644176716.896096,-0.009155,0.007385,-0.994202,0.190321,0.279695,-0.130992,38,280,584,5760
1644176716.94644,-0.013062,0.005127,-0.995056,0.434595,0.340763,-0.100458,51,281,590,5808
1644176716.996723,-0.008545,0.009094,-0.994995,0.312458,0.417099,0.006412,53,266,585,5776
1644176717.090437,-0.008911,0.007996,-0.990662,0.190321,0.447634,-0.039389,49,277,579,5808
1644176717.138001,-0.011169,0.008118,-0.993347,0.022382,0.356031,-0.237863,51,279,590,5872
1644176717.186378,-0.008911,0.009094,-0.990112,0.297191,0.310229,-0.085191,51,279,576,5808
1644176717.234791,-0.009644,0.010986,-0.991516,0.220855,0.386565,-0.069924,54,270,577,5776
1644176717.283148,-0.012329,0.011902,-0.992737,0.144519,0.508702,-0.237863,49,270,579,5824
1644176717.33156,-0.011108,0.006836,-0.993225,0.175053,0.371298,-0.130992,48,269,590,5872
1644176717.379945,-0.01001,0.01001,-0.991272,0.205588,0.417099,-0.008855,49,268,579,5808
1644176717.428348,-0.010803,0.011169,-0.993713,0.205588,0.478168,-0.085191,43,274,585,5824
1644176717.476731,-0.013367,0.007263,-0.991333,0.236122,0.508702,-0.069924,51,276,587,5760
1644176717.52521,-0.009521,0.013245,-0.992981,0.113985,0.279695,0.036947,41,279,583,5776
1644176717.573522,-0.009216,0.00647,-0.99231,0.297191,0.417099,-0.115725,55,269,583,5776
1644176717.621913,-0.012817,0.010376,-0.992126,0.312458,0.462901,-0.100458,45,285,584,5760
1644176717.670296,-0.009949,0.009827,-0.989563,0.205588,0.508702,-0.024122,51,276,583,5808
1644176717.718699,-0.010864,0.010315,-0.99231,0.08345,0.264427,-0.130992,59,282,582,5808
1644176717.767076,-0.009277,0.008667,-0.990662,0.251389,0.325496,-0.008855,47,275,584,5808
1644176717.815479,-0.009705,0.009888,-0.990906,0.297191,0.24916,-0.085191,59,270,589,5808
1644176717.863909,-0.009399,0.008484,-0.991699,0.266656,0.371298,-0.069924,51,279,590,5840
1644176717.912565,-0.008789,0.006409,-0.99176,0.342992,0.447634,-0.085191,55,271,587,5824
1644176717.962024,-0.010925,0.011047,-0.991394,0.175053,0.294962,-0.161527,55,281,580,5840
1644176718.061829,-0.007568,0.00708,-0.991882,0.251389,0.325496,-0.14626,48,269,583,5808
1644176718.105835,-0.009033,0.007812,-0.991028,0.251389,0.447634,-0.024122,46,276,585,5824
1644176718.154244,-0.01123,0.010071,-0.993896,0.144519,0.401832,0.006412,48,264,585,5824
1644176718.202613,-0.010376,0.009399,-0.990356,0.281924,0.417099,-0.054656,55,271,590,5728
1644176718.250968,-0.010742,0.009277,-0.990967,0.205588,0.279695,-0.161527,52,268,586,5872
1644176718.299384,-0.010132,0.009216,-0.993103,0.266656,0.386565,-0.008855,45,277,586,5888
1644176718.347772,-0.00769,0.008423,-0.993652,0.144519,0.371298,-0.054656,39,274,583,5712
1644176718.396212,-0.010925,0.010193,-0.991638,0.220855,0.539237,0.067481,47,270,582,5824
1644176718.444533,-0.009827,0.009033,-0.98999,0.190321,0.401832,-0.024122,46,271,580,5840
1644176718.492923,-0.012512,0.009644,-0.992004,0.190321,0.417099,-0.085191,51,281,583,5776
1644176718.541326,-0.010803,0.008667,-0.99408,0.236122,0.310229,-0.085191,48,276,580,5872
1644176718.589694,-0.008606,0.007202,-0.991821,0.251389,0.447634,-0.069924,49,280,589,5872
1644176718.638114,-0.009155,0.009338,-0.991882,0.113985,0.356031,0.006412,51,276,578,5808
1644176718.686507,-0.010681,0.007568,-0.98999,0.419328,0.508702,-0.024122,47,280,589,5840
1644176718.734882,-0.011536,0.00769,-0.993347,0.312458,0.188092,0.021679,48,279,585,5808
1644176718.783293,-0.013733,0.010315,-0.994019,0.297191,0.371298,0.021679,48,269,571,5824
1644176718.831995,-0.009583,0.006958,-0.990845,0.327725,0.462901,-0.008855,47,277,586,5840
1644176718.882183,-0.011353,0.009338,-0.991943,0.266656,0.401832,-0.161527,48,286,592,5808
1644176718.932433,-0.011963,0.010803,-0.993347,0.098718,0.554504,-0.085191,46,264,583,5728
1644176718.976904,-0.011963,0.005859,-0.991821,0.220855,0.356031,-0.14626,48,279,583,5840
1644176719.076112,-0.009766,0.006653,-0.995056,0.297191,0.432366,-0.14626,36,281,590,5728
1644176719.12204,-0.013428,0.010193,-0.992188,0.342992,0.523969,-0.14626,51,269,580,5776
1644176719.170409,-0.012268,0.009888,-0.992126,0.205588,0.508702,-0.024122,46,274,578,5840
1644176719.218784,-0.008972,0.009155,-0.990601,0.052916,0.356031,-0.130992,51,279,583,5760
1644176719.267194,-0.01239,0.008118,-0.994019,0.251389,0.417099,0.021679,46,269,587,5840
1644176719.315591,-0.011292,0.008667,-0.991333,0.35826,0.386565,-0.130992,52,277,582,5872
1644176719.363993,-0.007996,0.007507,-0.992737,0.129252,0.24916,0.021679,48,281,580,5808
1644176719.412385,-0.011292,0.010742,-0.99176,0.419328,0.356031,-0.130992,47,270,577,5872
1644176719.460764,-0.006104,0.009644,-0.990601,0.159786,0.432366,-0.115725,51,271,587,5840
1644176719.509161,-0.01416,0.010071,-0.993042,0.220855,0.447634,-0.054656,46,271,578,5712
1644176719.55755,-0.007385,0.008423,-0.992188,0.113985,0.401832,-0.024122,51,281,578,5728
1644176719.605947,-0.006226,0.012512,-0.99176,0.251389,0.432366,-0.283664,51,266,583,5824
1644176719.654343,-0.008423,0.009705,-0.991455,0.190321,0.478168,-0.024122,48,286,573,5840
1644176719.702743,-0.012878,0.008545,-0.990967,0.251389,0.447634,-0.207328,52,280,582,5760
1644176719.75111,-0.008789,0.007202,-0.992859,0.35826,0.386565,0.036947,52,275,582,5712
1644176719.799516,-0.012146,0.007874,-0.989929,0.327725,0.356031,0.036947,48,274,587,5808
1644176719.847945,-0.006714,0.011292,-0.992188,0.297191,0.340763,-0.115725,54,270,579,5776
1644176719.896348,-0.009766,0.009583,-0.992859,0.205588,0.417099,-0.039389,41,274,587,5840
1644176719.946343,-0.010254,0.010498,-0.995239,0.251389,0.417099,0.113282,54,273,586,5760
1644176719.996924,-0.010498,0.009033,-0.991211,0.205588,0.386565,-0.176794,46,283,578,5808
1644176720.062616,-0.011597,0.010925,-0.99353,0.327725,0.432366,-0.161527,58,279,587,5760
1644176720.094847,-0.008484,0.008667,-0.992126,0.159786,0.432366,-0.039389,51,271,583,5760
1644176720.186623,-0.010864,0.008179,-0.990051,0.220855,0.523969,-0.161527,57,275,593,5808
1644176720.235277,-0.009521,0.009827,-0.992859,0.113985,0.493435,-0.130992,46,274,583,5760
1644176720.283399,-0.009949,0.009277,-0.992981,0.144519,0.447634,-0.192061,48,274,592,5760
1644176720.331817,-0.010742,0.008301,-0.991943,0.388794,0.264427,-0.054656,57,287,591,5808
1644176720.380183,-0.010803,0.010803,-0.990173,0.342992,0.340763,0.052214,43,281,583,5808
1644176720.428584,-0.011902,0.007996,-0.991699,0.205588,0.340763,-0.207328,51,279,583,5824
1644176720.476949,-0.011414,0.007568,-0.99054,0.144519,0.356031,-0.085191,47,265,586,5840
1644176720.525367,-0.011719,0.01062,-0.993225,0.342992,0.508702,-0.024122,45,270,575,5728
1644176720.5738,-0.009399,0.010681,-0.99353,0.220855,0.447634,-0.176794,58,274,585,5840
1644176720.622172,-0.010742,0.009399,-0.993286,0.205588,0.432366,-0.054656,46,276,587,5872
1644176720.67055,-0.011047,0.009827,-0.994995,0.251389,0.340763,-0.069924,52,273,584,5840
1644176720.718945,-0.009338,0.007141,-0.994934,0.159786,0.386565,-0.237863,47,277,582,5760
1644176720.767324,-0.010498,0.011169,-0.991211,0.404061,0.371298,-0.069924,41,266,583,5824
1644176720.815755,-0.01062,0.010315,-0.992249,0.205588,0.401832,-0.207328,57,282,584,5776
1644176720.864132,-0.010803,0.006226,-0.994263,0.220855,0.569771,-0.069924,45,275,589,5760
1644176720.912549,-0.009705,0.008728,-0.992554,0.266656,0.371298,-0.161527,47,270,584,5824
1644176720.960927,-0.010986,0.009399,-0.994324,0.251389,0.310229,-0.176794,48,271,583,5760
1644176721.009513,-0.009705,0.008545,-0.993042,0.205588,0.478168,-0.054656,49,270,591,5808
1644176721.106122,-0.009888,0.010254,-0.992432,0.220855,0.401832,-0.100458,58,274,592,5872
1644176721.154469,-0.009644,0.011902,-0.992981,0.236122,0.508702,-0.237863,55,281,599,5808
1644176721.20286,-0.012329,0.009338,-0.991821,0.297191,0.417099,-0.14626,51,269,585,5808
1644176721.25122,-0.011169,0.009155,-0.992432,0.327725,0.356031,-0.039389,53,271,580,5776
1644176721.299629,-0.009766,0.008179,-0.992798,0.068183,0.432366,-0.100458,49,273,589,5776
1644176721.348022,-0.008606,0.009705,-0.994019,0.159786,0.478168,-0.14626,48,276,587,5888
1644176721.396407,-0.01178,0.008118,-0.992554,0.297191,0.310229,-0.161527,45,277,575,5760
1644176721.444827,-0.00946,0.007202,-0.992737,0.159786,0.325496,-0.024122,52,280,586,5776
1644176721.493192,-0.010376,0.00946,-0.990295,0.129252,0.493435,-0.130992,60,274,580,5872
1644176721.541599,-0.010864,0.012451,-0.990356,0.098718,0.462901,-0.176794,49,275,582,5872
1644176721.589979,-0.009155,0.011047,-0.992676,0.007115,0.447634,-0.069924,47,268,589,5808
1644176721.638376,-0.01001,0.012512,-0.992554,0.190321,0.325496,-0.100458,35,280,586,5824
1644176721.686764,-0.009827,0.010742,-0.992981,0.205588,0.386565,-0.161527,43,264,583,5808
1644176721.73524,-0.007141,0.010254,-0.993164,0.220855,0.356031,-0.024122,53,274,580,5808
1644176721.783862,-0.009827,0.010803,-0.992065,0.159786,0.523969,-0.176794,52,270,591,5840
1644176721.83405,-0.007324,0.010925,-0.992737,0.220855,0.585038,-0.161527,51,269,590,5808
1644176721.884103,-0.00946,0.011658,-0.992432,0.098718,0.447634,-0.14626,49,273,593,5808
1644176721.928797,-0.011169,0.008728,-0.991455,0.35826,0.340763,-0.268397,54,268,584,5824
1644176722.02555,-0.011108,0.008911,-0.993347,0.144519,0.356031,-0.069924,46,276,585,5824
1644176722.074012,-0.009644,0.00885,-0.991699,0.312458,0.371298,-0.130992,51,276,592,5872
1644176722.122345,-0.008789,0.00769,-0.992432,0.159786,0.340763,-0.085191,48,271,583,5872
1644176722.170662,-0.008789,0.009216,-0.990356,0.175053,0.401832,-0.115725,52,287,589,5808
1644176722.219053,-0.010376,0.012268,-0.990601,0.404061,0.432366,-0.039389,47,277,586,5808
1644176722.267451,-0.007751,0.009949,-0.991516,0.175053,0.447634,-0.054656,49,285,584,5728
1644176722.315826,-0.008118,0.010193,-0.993042,0.281924,0.340763,-0.25313,53,269,585,5824
1644176722.364245,-0.009338,0.006958,-0.991882,0.205588,0.401832,-0.085191,48,279,587,5760
1644176722.412641,-0.00946,0.008972,-0.992554,0.190321,0.310229,-0.161527,41,271,585,5776
1644176722.46103,-0.009094,0.006348,-0.992432,0.220855,0.508702,-0.054656,40,263,584,5840
1644176722.509393,-0.007629,0.009766,-0.990295,0.037649,0.310229,-0.054656,46,269,585,5808
1644176722.557815,-0.010132,0.005432,-0.993042,0.251389,0.493435,-0.085191,52,268,586,5808
1644176722.606193,-0.010803,0.009705,-0.993469,0.281924,0.264427,-0.024122,55,266,583,5760
1644176722.65469,-0.01001,0.008484,-0.990906,0.342992,0.432366,-0.054656,60,264,585,5776
1644176722.70299,-0.011963,0.008911,-0.993408,0.220855,0.462901,-0.268397,53,281,580,5808
1644176722.751363,-0.011658,0.010498,-0.993042,0.113985,0.340763,0.098015,54,270,584,5872
1644176722.79975,-0.011353,0.010254,-0.993958,0.297191,0.447634,-0.115725,48,269,599,5808
1644176722.848188,-0.012878,0.004578,-0.994141,0.175053,0.340763,0.067481,49,280,589,5808
1644176722.89655,-0.009583,0.008545,-0.99408,0.373527,0.356031,-0.085191,53,276,587,5840
1644176722.94561,-0.012085,0.007874,-0.991943,0.236122,0.432366,-0.100458,52,275,579,5808
1644176722.996277,-0.011292,0.007263,-0.991516,0.35826,0.417099,0.067481,54,275,582,5776
1644176723.066786,-0.013306,0.010498,-0.992737,0.190321,0.386565,-0.069924,46,279,578,5888
1644176723.138566,-0.007202,0.008423,-0.99231,0.342992,0.371298,-0.085191,58,283,590,5872
1644176723.186865,-0.011353,0.009583,-0.992371,0.419328,0.508702,-0.115725,55,283,590,5824
1644176723.235377,-0.009521,0.007935,-0.991089,0.190321,0.508702,-0.008855,49,273,575,5872
1644176723.283652,-0.011108,0.008789,-0.992615,0.220855,0.585038,-0.024122,42,277,589,5808
1644176723.332049,-0.011108,0.005432,-0.991699,0.297191,0.493435,-0.130992,49,275,577,5808
1644176723.38044,-0.014893,0.009949,-0.991638,0.236122,0.401832,-0.176794,46,276,580,5840
1644176723.428827,-0.011963,0.007324,-0.991333,0.175053,0.447634,-0.176794,46,283,585,5760
1644176723.47723,-0.008667,0.009338,-0.991699,0.190321,0.462901,-0.039389,59,265,584,5872
1644176723.525613,-0.010864,0.009583,-0.992676,0.281924,0.386565,-0.130992,41,274,580,5872
1644176723.574023,-0.012573,0.010254,-0.989746,0.220855,0.417099,-0.161527,45,277,584,5872
1644176723.622428,-0.009094,0.009766,-0.992737,0.297191,0.371298,-0.298931,49,275,577,5824
1644176723.670773,-0.008606,0.009644,-0.99231,0.113985,0.371298,-0.008855,47,273,589,5760
1644176723.719192,-0.010071,0.007812,-0.991028,0.342992,0.325496,-0.176794,51,281,587,5824
1644176723.767575,-0.010437,0.008789,-0.993286,0.236122,0.523969,-0.085191,51,276,578,5776
1644176723.815964,-0.008911,0.00946,-0.993591,0.251389,0.233893,0.021679,47,282,577,5824
1644176723.864399,-0.013611,0.011353,-0.992188,0.312458,0.356031,-0.054656,43,279,587,5808
1644176723.912801,-0.010864,0.010132,-0.992554,0.236122,0.493435,-0.069924,55,276,573,5824
1644176723.96119,-0.01239,0.010132,-0.994507,0.175053,0.63084,-0.237863,49,270,591,5808
1644176724.060436,-0.011047,0.005981,-0.992859,0.190321,0.462901,-0.36,47,277,582,5776
1644176724.106346,-0.010193,0.009644,-0.99115,0.098718,0.325496,-0.024122,38,270,584,5824
1644176724.155375,-0.00946,0.006653,-0.988586,0.205588,0.447634,-0.115725,53,271,580,5824
1644176724.20312,-0.008667,0.010132,-0.992615,0.35826,0.24916,-0.085191,46,276,583,5872
1644176724.251472,-0.010559,0.010681,-0.992065,0.297191,0.386565,-0.054656,45,268,577,5808
1644176724.299878,-0.010559,0.006531,-0.992737,0.205588,0.340763,-0.222595,41,276,580,5824
1644176724.348273,-0.009155,0.010315,-0.992188,0.129252,0.417099,-0.268397,45,282,582,5840
1644176724.396671,-0.010193,0.009033,-0.991821,0.419328,0.401832,-0.100458,54,275,582,5840
1644176724.445174,-0.010498,0.011169,-0.993408,0.342992,0.401832,-0.024122,57,277,582,5808
1644176724.493429,-0.010742,0.005188,-0.993042,0.266656,0.401832,-0.222595,49,273,586,5808
1644176724.541832,-0.009094,0.010742,-0.993408,0.220855,0.310229,-0.085191,40,275,593,5808
1644176724.590237,-0.010193,0.009705,-0.987793,0.205588,0.417099,-0.14626,45,277,586,5824
1644176724.638623,-0.010071,0.00769,-0.990845,0.190321,0.325496,-0.085191,51,286,587,5824
1644176724.68699,-0.009827,0.009888,-0.990662,0.068183,0.508702,-0.14626,52,280,579,5840
1644176724.735408,-0.009338,0.010864,-0.993347,0.220855,0.417099,-0.283664,57,282,582,5808
1644176724.783789,-0.009521,0.007507,-0.99054,0.236122,0.401832,-0.14626,47,270,598,5808
1644176724.832198,-0.01123,0.006226,-0.991638,0.281924,0.356031,-0.085191,47,280,586,5872
1644176724.880668,-0.009827,0.010742,-0.994141,0.159786,0.371298,-0.14626,48,271,587,5728
1644176724.930582,-0.012024,0.008972,-0.992126,0.327725,0.356031,-0.222595,58,274,578,5872
1644176724.98083,-0.008728,0.010071,-0.992676,0.297191,0.356031,-0.192061,49,273,591,5760
1644176725.031158,-0.00769,0.012878,-0.991272,0.113985,0.447634,-0.176794,53,262,583,5872
1644176725.079235,-0.007568,0.010498,-0.995728,0.281924,0.279695,0.021679,52,280,593,5840
1644176725.17091,-0.008911,0.008362,-0.99408,0.068183,0.432366,-0.207328,52,273,577,5840
1644176725.219306,-0.009949,0.006836,-0.992371,0.236122,0.432366,-0.130992,54,280,586,5808
1644176725.267703,-0.007935,0.008667,-0.992432,0.327725,0.417099,-0.069924,46,274,590,5872
1644176725.316084,-0.007629,0.009277,-0.992188,0.159786,0.523969,-0.207328,40,270,579,5824
1644176725.364499,-0.011475,0.012024,-0.992737,0.159786,0.447634,-0.024122,48,266,583,5872
1644176725.412899,-0.011597,0.008423,-0.99292,0.236122,0.310229,-0.085191,47,273,579,5872
1644176725.461277,-0.009827,0.007812,-0.992249,0.434595,0.432366,-0.130992,40,280,572,5808
1644176725.509644,-0.009766,0.009521,-0.991882,0.312458,0.386565,-0.085191,52,280,577,5808
1644176725.558057,-0.013245,0.009399,-0.990723,0.266656,0.447634,-0.069924,57,265,584,5776
1644176725.606443,-0.011963,0.005554,-0.994873,0.190321,0.523969,-0.130992,47,273,582,5776
1644176725.654857,-0.008728,0.006836,-0.993896,0.281924,0.401832,-0.100458,45,275,586,5808
1644176725.703249,-0.00946,0.008606,-0.993896,0.342992,0.493435,-0.054656,46,274,597,5840
1644176725.751616,-0.011536,0.004944,-0.994507,0.327725,0.264427,-0.130992,48,288,585,5808
1644176725.80005,-0.01239,0.010559,-0.992493,0.297191,0.340763,-0.008855,45,287,593,5872
1644176725.848441,-0.01062,0.011841,-0.99176,0.419328,0.356031,-0.222595,55,266,583,5840
1644176725.896829,-0.012329,0.007324,-0.990173,0.190321,0.371298,-0.100458,43,281,580,5824
1644176725.94523,-0.008728,0.007568,-0.992615,0.175053,0.478168,-0.115725,45,273,593,5824
1644176725.993621,-0.00824,0.011108,-0.994568,0.175053,0.462901,-0.054656,53,274,587,5872
1644176726.060505,-0.011047,0.006592,-0.989441,0.175053,0.386565,-0.176794,41,271,585,5840
1644176726.094837,-0.011597,0.008484,-0.993408,0.205588,0.432366,-0.14626,45,277,589,5808
1644176726.141712,-0.012878,0.005615,-0.991821,0.098718,0.356031,-0.085191,45,282,582,5808
1644176726.191499,-0.011597,0.009277,-0.991455,0.159786,0.401832,-0.207328,42,275,572,5872
1644176726.23674,-0.010742,0.008789,-0.992554,0.342992,0.478168,-0.115725,47,270,584,5840
1644176726.332385,-0.012085,0.011353,-0.990906,0.159786,0.478168,0.036947,48,279,585,5840
1644176726.380702,-0.011414,0.008057,-0.992126,0.190321,0.386565,-0.192061,53,269,578,5776
1644176726.429093,-0.013489,0.008179,-0.995911,0.327725,0.371298,-0.069924,55,274,578,5728
1644176726.47749,-0.010193,0.007812,-0.992676,0.266656,0.417099,-0.176794,51,274,578,5808
1644176726.525871,-0.00824,0.009888,-0.992432,0.113985,0.432366,0.021679,49,273,575,5824
1644176726.574274,-0.012329,0.011658,-0.991333,0.175053,0.432366,-0.008855,43,281,580,5808
1644176726.622679,-0.010986,0.008545,-0.991333,0.297191,0.279695,-0.054656,51,266,585,5840
1644176726.671053,-0.011047,0.007874,-0.990417,0.327725,0.539237,-0.115725,38,285,579,5824
1644176726.719413,-0.00946,0.006958,-0.994324,0.144519,0.539237,-0.14626,54,270,577,5776
1644176726.7678,-0.01001,0.009094,-0.994202,0.281924,0.478168,-0.069924,53,264,580,5824
1644176726.816267,-0.006592,0.010071,-0.99292,0.327725,0.401832,-0.085191,41,276,585,5824
1644176726.864736,-0.007751,0.011292,-0.989868,0.175053,0.294962,0.12855,38,280,591,5808
1644176726.913044,-0.01001,0.007935,-0.993652,-0.02342,0.356031,-0.130992,51,276,585,5824
1644176726.961439,-0.008606,0.011353,-0.991699,0.129252,0.294962,-0.069924,51,266,587,5840
1644176727.009804,-0.012085,0.008789,-0.992737,0.281924,0.447634,0.021679,57,260,575,5728
1644176727.06563,-0.008362,0.010071,-0.992859,0.205588,0.432366,-0.130992,48,279,583,5824
1644176727.106947,-0.00708,0.007507,-0.991943,0.175053,0.432366,-0.054656,47,273,584,5824
1644176727.155007,-0.010864,0.008728,-0.992004,0.327725,0.325496,-0.008855,47,277,575,5840
1644176727.203347,-0.00946,0.005493,-0.992798,0.251389,0.401832,-0.176794,45,280,582,5760
1644176727.252077,-0.014709,0.008789,-0.992737,0.297191,0.401832,0.052214,54,270,586,5776
1644176727.302424,-0.010742,0.009705,-0.995911,0.419328,0.386565,-0.115725,51,291,585,5808
1644176727.3527,-0.00885,0.009583,-0.990173,0.190321,0.523969,-0.100458,49,277,591,5808
1644176727.397622,-0.009216,0.010742,-0.992004,0.129252,0.432366,-0.176794,41,281,587,5808
1644176727.493701,-0.012573,0.008911,-0.99231,0.297191,0.478168,-0.100458,49,282,577,5808
1644176727.542168,-0.010803,0.009705,-0.994263,0.342992,0.340763,-0.024122,46,276,580,5808
1644176727.59049,-0.010559,0.010742,-0.990906,0.113985,0.386565,-0.115725,59,273,589,5872
1644176727.638865,-0.009399,0.011658,-0.989563,0.281924,0.371298,0.052214,55,279,592,5840
1644176727.687262,-0.008606,0.006165,-0.994141,0.266656,0.447634,-0.237863,43,271,573,5840
1644176727.735651,-0.009399,0.008423,-0.992615,0.205588,0.493435,-0.039389,49,280,582,5840
1644176727.784058,-0.00824,0.008118,-0.989563,0.236122,0.386565,-0.192061,54,270,584,5808
1644176727.832501,-0.011719,0.010071,-0.99231,0.220855,0.462901,-0.085191,48,271,592,5808
1644176727.880884,-0.008606,0.011963,-0.992554,0.205588,0.310229,-0.100458,53,279,587,5808
1644176727.929267,-0.011353,0.010071,-0.991699,0.297191,0.447634,-0.100458,51,271,580,5808
1644176727.97766,-0.009399,0.008179,-0.991821,0.220855,0.493435,-0.237863,43,279,587,5840
1644176728.026022,-0.011169,0.008179,-0.990662,0.159786,0.356031,-0.100458,53,274,583,5840
1644176728.086244,-0.010132,0.008972,-0.994019,0.327725,0.478168,-0.024122,54,280,591,5840
1644176728.122796,-0.008301,0.007935,-0.991211,0.113985,0.462901,-0.161527,61,273,589,5824
1644176728.171165,-0.013916,0.00946,-0.991516,0.251389,0.356031,-0.115725,57,273,586,5808
1644176728.219554,-0.013306,0.008545,-0.993225,0.419328,0.24916,-0.176794,49,268,589,5776
1644176728.267963,-0.009216,0.009827,-0.992859,0.175053,0.356031,-0.176794,48,274,585,5888
1644176728.318462,-0.009766,0.010254,-0.990967,0.327725,0.478168,-0.100458,43,276,583,5808
1644176728.368239,-0.010376,0.008118,-0.990845,0.205588,0.493435,-0.161527,49,280,579,5776
1644176728.418454,-0.011475,0.012085,-0.993164,0.251389,0.401832,-0.130992,41,276,590,5776
1644176728.509909,-0.011719,0.010376,-0.993652,0.236122,0.340763,-0.130992,51,274,583,5808
1644176728.558285,-0.008789,0.011108,-0.994385,0.190321,0.294962,-0.008855,40,268,589,5872
1644176728.606685,-0.009644,0.008972,-0.990051,0.190321,0.493435,-0.024122,41,266,578,5808
1644176728.655113,-0.00885,0.008789,-0.992493,0.236122,0.401832,-0.161527,54,280,577,5776
1644176728.703476,-0.010498,0.011475,-0.992981,0.068183,0.447634,0.036947,54,275,579,5824
1644176728.75185,-0.009216,0.008972,-0.992615,0.266656,0.493435,-0.192061,52,287,579,5728
1644176728.800264,-0.00885,0.008484,-0.992065,0.129252,0.401832,-0.115725,53,271,573,5808
1644176728.848691,-0.010498,0.011719,-0.991516,0.251389,0.462901,0.006412,42,280,582,5872
1644176728.897094,-0.011841,0.008118,-0.991028,0.266656,0.417099,-0.054656,52,273,579,5840
1644176728.945481,-0.010742,0.007446,-0.991943,0.220855,0.462901,-0.008855,49,273,589,5728
1644176728.993885,-0.011414,0.006042,-0.993286,0.404061,0.569771,-0.192061,41,269,590,5840
1644176729.055046,-0.010498,0.010315,-0.993591,0.373527,0.417099,0.143817,40,277,584,5776
1644176729.094301,-0.011658,0.009521,-0.995483,0.144519,0.386565,0.006412,46,279,578,5808
1644176729.138992,-0.009399,0.007874,-0.993164,0.205588,0.24916,0.006412,53,274,580,5840
1644176729.187385,-0.007996,0.009521,-0.995789,0.098718,0.371298,-0.329466,52,270,577,5872
1644176729.235784,-0.009216,0.010315,-0.992004,0.144519,0.325496,-0.192061,54,273,589,5808
1644176729.284174,-0.010559,0.006714,-0.989014,0.205588,0.554504,-0.039389,43,269,580,5840
1644176729.332858,-0.013062,0.008728,-0.992737,0.342992,0.356031,-0.130992,47,285,584,5840
1644176729.380975,-0.010071,0.006226,-0.992737,0.297191,0.310229,-0.054656,43,274,583,5840
1644176729.43049,-0.009216,0.008545,-0.993042,0.266656,0.569771,-0.100458,47,275,589,5776
1644176729.480876,-0.008118,0.009949,-0.992493,0.190321,0.356031,-0.161527,45,277,586,5808
1644176729.531011,-0.009277,0.010803,-0.990906,0.281924,0.432366,-0.054656,47,280,589,5776
1644176729.622919,-0.010315,0.010559,-0.992798,0.236122,0.569771,-0.008855,48,264,592,5824
1644176729.671291,-0.010132,0.007568,-0.993164,0.342992,0.386565,-0.008855,49,270,591,5760
1644176729.719661,-0.008362,0.008972,-0.993408,0.281924,0.432366,0.021679,40,280,577,5776
1644176729.768076,-0.01239,0.010864,-0.99176,0.297191,0.478168,-0.024122,48,276,585,5824
1644176729.816483,-0.012878,0.009949,-0.991455,0.129252,0.310229,-0.176794,49,280,589,5728
1644176729.8649,-0.009338,0.009888,-0.993225,0.266656,0.386565,-0.069924,51,279,585,5824
1644176729.913516,-0.00946,0.009277,-0.992432,0.297191,0.417099,-0.130992,48,276,585,5808
1644176729.961694,-0.010132,0.008545,-0.995544,0.373527,0.417099,-0.100458,46,279,585,5808
1644176730.010103,-0.009399,0.011169,-0.991089,0.205588,0.539237,-0.024122,49,277,586,5776
1644176730.064873,-0.007446,0.00946,-0.990906,0.113985,0.356031,0.021679,48,281,594,5808
1644176730.106885,-0.01001,0.007507,-0.992737,0.190321,0.386565,-0.14626,51,276,594,5776
1644176730.155293,-0.009827,0.008545,-0.993347,0.175053,0.523969,0.052214,45,282,582,5808
1644176730.203631,-0.011047,0.009644,-0.992188,0.297191,0.386565,-0.069924,45,280,589,5824
1644176730.252008,-0.010254,0.009094,-0.991455,0.35826,0.340763,-0.085191,52,277,586,5776
1644176730.300385,-0.011475,0.00946,-0.993896,0.159786,0.462901,-0.069924,55,269,583,5808
1644176730.348746,-0.008972,0.01001,-0.990906,0.434595,0.493435,-0.100458,48,271,583,5824
1644176730.397155,-0.010193,0.011841,-0.992859,0.236122,0.325496,-0.085191,52,268,584,5840
1644176730.445565,-0.010559,0.00769,-0.992249,0.266656,0.371298,-0.207328,53,274,590,5840
1644176730.493952,-0.007751,0.006531,-0.992188,0.190321,0.432366,-0.115725,40,285,584,5808
1644176730.542397,-0.008972,0.009338,-0.995605,0.144519,0.356031,-0.130992,52,277,589,5808
1644176730.592827,-0.008179,0.007202,-0.989868,0.190321,0.417099,-0.161527,47,275,584,5872
1644176730.643216,-0.011536,0.009521,-0.991638,0.266656,0.310229,-0.115725,53,264,583,5776
1644176730.68824,-0.008728,0.010742,-0.991089,0.236122,0.523969,-0.100458,48,276,578,5808
1644176730.784304,-0.00885,0.010376,-0.991455,0.113985,0.462901,-0.069924,45,273,582,5872
1644176730.832709,-0.011108,0.009827,-0.989258,0.281924,0.325496,0.036947,41,264,583,5808
1644176730.881121,-0.010315,0.009705,-0.992249,0.098718,0.447634,-0.100458,45,275,586,5824
1644176730.929523,-0.011108,0.008057,-0.989746,0.297191,0.462901,-0.039389,54,270,584,5872
1644176730.977877,-0.012207,0.006836,-0.993164,0.297191,0.447634,-0.130992,49,270,582,5808
1644176731.026297,-0.012024,0.008362,-0.99353,0.297191,0.523969,-0.130992,49,280,586,5760
1644176731.075122,-0.011292,0.009583,-0.994568,0.205588,0.386565,-0.100458,60,274,594,5808
1644176731.123097,-0.00885,0.009155,-0.993408,0.220855,0.493435,-0.161527,54,282,584,5808
1644176731.171432,-0.01178,0.006653,-0.992004,0.373527,0.493435,-0.100458,55,279,587,5840
1644176731.21983,-0.008972,0.006897,-0.9953,0.281924,0.386565,-0.085191,51,281,583,5840
1644176731.268187,-0.012146,0.007629,-0.992249,0.220855,0.340763,-0.222595,51,291,583,5808
1644176731.31661,-0.008301,0.008972,-0.991699,0.236122,0.432366,-0.161527,53,271,583,5776
1644176731.365128,-0.011108,0.010071,-0.992676,0.35826,0.447634,-0.161527,48,274,578,5872
1644176731.413412,-0.008728,0.009033,-0.990784,0.236122,0.508702,-0.161527,51,274,580,5824
1644176731.461784,-0.009338,0.008484,-0.992004,0.281924,0.386565,-0.039389,55,271,585,5872
1644176731.510157,-0.006409,0.010681,-0.992493,0.205588,0.478168,-0.024122,54,285,586,5808
1644176731.558558,-0.007935,0.010681,-0.992371,0.098718,0.325496,-0.14626,42,277,598,5808
1644176731.606916,-0.013367,0.007874,-0.9953,0.190321,0.417099,-0.222595,43,276,576,5840
1644176731.655331,-0.010315,0.009644,-0.992798,0.281924,0.539237,-0.039389,45,280,579,5840
1644176731.704143,-0.01123,0.008179,-0.991394,0.144519,0.417099,-0.069924,53,269,594,5824
1644176731.754141,-0.009094,0.009216,-0.993408,0.08345,0.478168,-0.115725,42,268,593,5760
1644176731.804286,-0.01001,0.009216,-0.990906,0.175053,0.417099,-0.100458,55,279,585,5872
1644176731.849456,-0.009277,0.007568,-0.991272,0.205588,0.203359,-0.176794,47,277,593,5728
1644176731.945716,-0.010071,0.010193,-0.995117,0.159786,0.432366,-0.115725,49,270,593,5824
1644176731.994123,-0.007935,0.008484,-0.990662,0.480397,0.386565,-0.085191,38,275,582,5808
1644176732.054883,-0.011719,0.010376,-0.992859,0.327725,0.294962,0.082748,48,281,583,5760
1644176732.090998,-0.010071,0.008545,-0.99176,0.251389,0.417099,0.12855,39,276,590,5808
1644176732.139286,-0.007935,0.007874,-0.990295,0.327725,0.554504,-0.314198,54,275,586,5776
1644176732.187653,-0.011536,0.008545,-0.99176,0.327725,0.356031,-0.039389,48,269,578,5824
1644176732.23603,-0.010193,0.00708,-0.992554,0.281924,0.432366,-0.024122,54,268,584,5808
1644176732.284418,-0.010254,0.008301,-0.993896,0.129252,0.294962,-0.024122,51,276,585,5728
1644176732.332834,-0.00885,0.006653,-0.994324,0.251389,0.356031,0.021679,49,280,584,5808
1644176732.381212,-0.008484,0.009644,-0.992188,0.205588,0.417099,-0.130992,54,277,582,5808
1644176732.429605,-0.010132,0.01062,-0.994202,0.281924,0.447634,-0.161527,43,264,580,5776
1644176732.477966,-0.010986,0.00885,-0.994263,0.281924,0.478168,-0.039389,49,282,584,5760
1644176732.526386,-0.008057,0.009033,-0.992615,0.281924,0.371298,-0.069924,46,281,590,5808
1644176732.574775,-0.009766,0.011047,-0.991882,0.236122,0.523969,0.021679,48,274,578,5776
1644176732.6238,-0.010498,0.009216,-0.993286,0.373527,0.279695,-0.024122,53,274,585,5808
1644176732.672287,-0.011841,0.008728,-0.993164,0.266656,0.401832,-0.024122,49,270,586,5808
1644176732.722983,-0.011108,0.010071,-0.990967,0.175053,0.478168,0.021679,49,275,586,5808
1644176732.773024,-0.012634,0.008179,-0.991333,0.220855,0.310229,-0.176794,46,279,578,5808
1644176732.81788,-0.008606,0.00708,-0.992981,0.190321,0.539237,-0.237863,53,276,583,5808
1644176732.913583,-0.009216,0.008606,-0.992249,0.144519,0.356031,0.098015,48,274,580,5808
1644176732.961947,-0.01062,0.009827,-0.992126,0.113985,0.279695,-0.069924,53,281,583,5760
1644176733.010315,-0.011475,0.010986,-0.991272,0.190321,0.294962,-0.069924,54,275,584,5840
1644176733.058903,-0.007263,0.010986,-0.992249,0.35826,0.340763,-0.085191,52,280,582,5824
1644176733.107098,-0.013489,0.010254,-0.990845,0.419328,0.386565,-0.115725,46,281,592,5808
1644176733.155501,-0.012573,0.008545,-0.991821,0.08345,0.340763,-0.130992,58,269,583,5712
1644176733.203856,-0.007141,0.004944,-0.991943,0.190321,0.340763,-0.039389,57,270,589,5776
1644176733.252237,-0.012329,0.009827,-0.990784,0.251389,0.417099,0.052214,48,269,583,5824
1644176733.30064,-0.011597,0.009888,-0.991089,0.037649,0.356031,0.021679,52,265,577,5776
1644176733.349014,-0.01239,0.007812,-0.990662,0.205588,0.447634,-0.222595,51,281,576,5808
1644176733.397432,-0.012146,0.008423,-0.992126,0.449863,0.233893,-0.085191,52,277,591,5808
1644176733.445814,-0.009277,0.009338,-0.992798,0.205588,0.401832,-0.085191,41,271,578,5840
1644176733.494199,-0.012024,0.010254,-0.994629,0.342992,0.386565,-0.268397,49,273,582,5808
1644176733.542612,-0.00824,0.009705,-0.99469,0.175053,0.462901,-0.130992,38,285,593,5808
1644176733.590979,-0.010071,0.00946,-0.990173,0.220855,0.340763,-0.25313,60,274,578,5760
1644176733.639381,-0.011963,0.008606,-0.992065,0.281924,0.493435,-0.14626,49,275,589,5776
1644176733.687771,-0.014465,0.005249,-0.992554,0.35826,0.294962,-0.115725,52,275,593,5808
1644176733.736139,-0.009766,0.009155,-0.994263,0.312458,0.294962,-0.161527,54,275,593,5776
1644176733.784735,-0.011047,0.006897,-0.993286,0.220855,0.401832,0.021679,53,279,590,5824
1644176733.833535,-0.011292,0.008362,-0.993896,0.388794,0.417099,-0.176794,45,277,582,5824
1644176733.883901,-0.010437,0.00885,-0.992065,0.068183,0.523969,0.006412,52,268,586,5776
1644176733.935139,-0.010498,0.009094,-0.994202,0.342992,0.523969,-0.115725,47,273,577,5840
1644176733.979608,-0.013672,0.010498,-0.994141,0.144519,0.462901,-0.100458,47,275,582,5776
1644176734.074992,-0.007812,0.008118,-0.993103,0.175053,0.432366,-0.024122,49,280,586,5824
1644176734.123285,-0.010193,0.010437,-0.990784,0.129252,0.447634,0.036947,46,283,580,5808
1644176734.171673,-0.009705,0.007996,-0.99115,0.098718,0.417099,-0.268397,53,281,587,5808
1644176734.220073,-0.010132,0.009521,-0.990479,0.434595,0.340763,-0.069924,53,281,587,5776
1644176734.268518,-0.007324,0.007874,-0.991943,0.220855,0.264427,-0.222595,58,274,592,5872
1644176734.316855,-0.010681,0.013,-0.99231,0.113985,0.462901,-0.069924,46,279,590,5824
1644176734.365243,-0.008484,0.00946,-0.994202,0.342992,0.386565,-0.192061,45,280,575,5808
1644176734.413649,-0.009033,0.008789,-0.992981,0.175053,0.371298,-0.115725,46,276,576,5808
1644176734.46204,-0.010132,0.007507,-0.98999,0.297191,0.356031,-0.008855,43,274,587,5776
1644176734.510422,-0.012207,0.008423,-0.99292,0.205588,0.356031,-0.024122,53,274,583,5840
1644176734.558805,-0.012573,0.009094,-0.992615,0.236122,0.417099,0.021679,43,281,599,5776
1644176734.607198,-0.012329,0.006531,-0.994995,0.220855,0.325496,-0.024122,48,281,580,5824
1644176734.655595,-0.008118,0.008606,-0.995605,0.327725,0.386565,-0.100458,53,279,583,5712
1644176734.704003,-0.009888,0.010132,-0.991699,0.190321,0.417099,-0.222595,51,274,580,5776
1644176734.752403,-0.007629,0.006042,-0.992981,0.220855,0.340763,-0.069924,49,282,586,5776
1644176734.800803,-0.009033,0.009705,-0.994324,0.129252,0.386565,0.067481,53,264,578,5808
1644176734.849198,-0.009216,0.00769,-0.994019,0.266656,0.340763,-0.008855,43,274,583,5824
1644176734.897608,-0.009705,0.009888,-0.99353,0.35826,0.462901,-0.222595,58,279,585,5808
1644176734.946004,-0.011047,0.011597,-0.991699,0.404061,0.386565,-0.039389,49,277,577,5808
1644176734.995217,-0.011169,0.008728,-0.993286,0.35826,0.523969,-0.085191,45,275,582,5888
1644176735.059606,-0.010376,0.009827,-0.992737,0.052916,0.493435,-0.130992,39,271,597,5840
1644176735.103611,-0.007935,0.007629,-0.991516,0.159786,0.401832,-0.314198,49,280,577,5776
1644176735.1879,-0.010254,0.007751,-0.993042,0.281924,0.325496,-0.115725,49,282,575,5824
1644176735.236276,-0.007812,0.011719,-0.992493,0.251389,0.478168,-0.237863,46,276,592,5824
1644176735.284851,-0.011414,0.008179,-0.991455,0.220855,0.325496,-0.024122,46,269,578,5808
1644176735.333082,-0.008301,0.010254,-0.991272,0.35826,0.371298,-0.222595,48,279,583,5872
1644176735.381455,-0.008118,0.009827,-0.990906,0.205588,0.401832,-0.024122,48,279,585,5824
1644176735.42986,-0.011169,0.008301,-0.993347,0.175053,0.478168,-0.085191,51,266,587,5808
1644176735.478238,-0.00885,0.00946,-0.990417,0.281924,0.371298,-0.024122,57,277,586,5776
1644176735.526628,-0.008301,0.008179,-0.992493,0.297191,0.294962,-0.069924,45,277,584,5840
1644176735.575148,-0.01001,0.009766,-0.990662,0.022382,0.371298,-0.130992,53,276,578,5808
1644176735.623428,-0.007935,0.009705,-0.992859,0.297191,0.340763,-0.100458,58,279,571,5712
1644176735.671803,-0.008789,0.010071,-0.989502,0.434595,0.294962,-0.25313,49,268,584,5840
1644176735.720197,-0.009277,0.010193,-0.98999,0.297191,0.325496,-0.054656,51,279,583,5904
1644176735.768594,-0.01123,0.010071,-0.994202,0.144519,0.462901,-0.085191,60,257,578,5824
1644176735.817029,-0.009399,0.010986,-0.989746,0.266656,0.523969,-0.039389,43,271,573,5776
1644176735.865417,-0.010132,0.008545,-0.99408,0.297191,0.386565,-0.14626,58,279,590,5728
1644176735.913807,-0.010193,0.007446,-0.990479,0.373527,0.462901,-0.192061,53,279,576,5776
1644176735.962209,-0.009338,0.010864,-0.992126,0.312458,0.478168,-0.100458,58,293,585,5808
1644176736.063496,-0.007629,0.009399,-0.992615,0.236122,0.539237,-0.054656,49,275,591,5840
1644176736.107284,-0.009155,0.009094,-0.990051,0.388794,0.417099,0.021679,54,265,582,5728
1644176736.155699,-0.010376,0.011719,-0.99054,0.098718,0.264427,-0.085191,43,276,571,5824
1644176736.204125,-0.012695,0.009094,-0.994263,0.236122,0.279695,0.021679,48,262,585,5728
1644176736.252497,-0.009216,0.006775,-0.992493,0.297191,0.417099,-0.14626,54,275,586,5776
1644176736.300899,-0.009705,0.00708,-0.99115,0.220855,0.325496,-0.069924,57,282,575,5872
1644176736.3493,-0.008179,0.009766,-0.99054,0.159786,0.356031,-0.130992,46,269,590,5840
1644176736.39768,-0.011597,0.009399,-0.994324,0.35826,0.356031,-0.054656,51,271,578,5808
1644176736.446082,-0.008728,0.011108,-0.992065,0.113985,0.478168,-0.207328,48,276,585,5776
1644176736.494442,-0.010559,0.007141,-0.993408,0.190321,0.310229,-0.100458,52,273,579,5840
1644176736.542872,-0.008118,0.009399,-0.990417,0.08345,0.386565,-0.054656,42,287,577,5872
1644176736.591245,-0.012085,0.004639,-0.990845,0.236122,0.493435,-0.14626,47,277,598,5776
1644176736.639615,-0.010193,0.005981,-0.993469,0.190321,0.24916,-0.192061,55,274,590,5776
1644176736.68803,-0.006775,0.009827,-0.992065,0.266656,0.157557,-0.207328,45,282,593,5840
1644176736.736413,-0.00885,0.010132,-0.993958,0.068183,0.432366,0.098015,45,280,591,5776
1644176736.784825,-0.01062,0.010376,-0.992493,0.220855,0.432366,0.067481,55,276,594,5776
1644176736.833558,-0.008301,0.010681,-0.993835,0.35826,0.386565,-0.085191,51,276,587,5776
1644176736.883688,-0.009277,0.005676,-0.993835,0.220855,0.478168,-0.222595,45,280,586,5776
1644176736.934016,-0.00885,0.010437,-0.991089,0.175053,0.325496,-0.207328,40,280,575,5712
1644176736.983862,-0.010437,0.010681,-0.99408,0.159786,0.386565,-0.161527,54,273,579,5808
1644176737.075368,-0.010254,0.01123,-0.992371,0.159786,0.203359,0.006412,43,286,585,5872
1644176737.123555,-0.012024,0.009033,-0.99292,0.281924,0.462901,0.12855,64,280,584,5824
1644176737.171934,-0.009216,0.009705,-0.990479,0.388794,0.523969,-0.008855,42,270,584,5840
1644176737.220328,-0.008728,0.006714,-0.993286,0.068183,0.279695,-0.207328,54,275,596,5808
1644176737.268715,-0.010925,0.008667,-0.995789,0.373527,0.478168,-0.085191,48,271,590,5872
1644176737.317094,-0.010132,0.009094,-0.991211,0.175053,0.325496,-0.130992,41,271,576,5760
1644176737.3655,-0.010986,0.008301,-0.99231,0.312458,0.432366,-0.115725,38,277,584,5776
1644176737.41389,-0.011597,0.007935,-0.994751,0.297191,0.371298,-0.222595,51,279,583,5840
1644176737.462301,-0.009277,0.007629,-0.991699,0.144519,0.478168,-0.008855,49,273,584,5872
1644176737.51068,-0.012878,0.004456,-0.991943,0.35826,0.401832,0.067481,62,266,583,5776
1644176737.55907,-0.009949,0.006775,-0.992798,0.251389,0.600305,-0.130992,58,281,580,5888
1644176737.607464,-0.010803,0.009094,-0.994568,0.281924,0.401832,-0.008855,52,275,586,5872
1644176737.655859,-0.011169,0.008606,-0.994263,0.297191,0.432366,-0.024122,57,273,579,5872
1644176737.704226,-0.010864,0.010681,-0.99353,0.312458,0.386565,-0.085191,60,269,583,5776
1644176737.752659,-0.01062,0.012268,-0.993713,0.373527,0.325496,-0.085191,57,277,586,5728
1644176737.801023,-0.009827,0.008301,-0.992615,0.251389,0.325496,-0.115725,52,280,591,5808
1644176737.84946,-0.010376,0.007263,-0.99176,0.480397,0.401832,-0.161527,42,270,584,5808
1644176737.897847,-0.009155,0.010925,-0.992676,0.144519,0.447634,-0.054656,54,268,589,5824
1644176737.94625,-0.010437,0.009949,-0.992493,0.190321,0.340763,-0.100458,52,282,589,5808
1644176737.996078,-0.009216,0.00885,-0.991577,0.312458,0.386565,-0.069924,49,277,586,5872
1644176738.065697,-0.012695,0.007629,-0.99054,0.159786,0.386565,-0.024122,53,274,585,5760
1644176738.094951,-0.010254,0.008911,-0.992737,0.08345,0.432366,-0.130992,53,279,590,5808
1644176738.188136,-0.010071,0.007324,-0.991394,0.266656,0.340763,-0.024122,48,276,587,5872
1644176738.236576,-0.010986,0.007874,-0.992676,0.35826,0.493435,-0.100458,60,283,573,5712
1644176738.284925,-0.010864,0.009155,-0.991394,0.297191,0.386565,-0.161527,46,276,590,5824
1644176738.333311,-0.010864,0.010132,-0.992676,0.175053,0.447634,-0.054656,46,288,585,5840
1644176738.381712,-0.011292,0.00946,-0.992188,0.236122,0.279695,-0.130992,47,275,589,5824
1644176738.430094,-0.009705,0.00824,-0.992493,0.08345,0.508702,-0.039389,52,277,586,5824
1644176738.478489,-0.009949,0.006958,-0.993713,0.129252,0.386565,-0.024122,47,268,579,5888
1644176738.52689,-0.009521,0.00647,-0.991638,0.373527,0.386565,-0.115725,48,269,587,5872
1644176738.575276,-0.006409,0.007996,-0.991577,0.205588,0.386565,-0.14626,41,269,583,5808
1644176738.623682,-0.009583,0.007019,-0.993042,0.098718,0.569771,0.036947,46,276,578,5840
1644176738.672061,-0.00885,0.009827,-0.991089,0.144519,0.356031,0.052214,42,273,577,5808
1644176738.720425,-0.010376,0.010986,-0.991577,0.312458,0.523969,-0.25313,47,282,579,5824
1644176738.768849,-0.011292,0.013,-0.993652,0.419328,0.386565,-0.176794,41,276,583,5824
1644176738.817241,-0.009155,0.00769,-0.990479,0.190321,0.523969,-0.100458,65,281,587,5808
1644176738.865664,-0.008789,0.00647,-0.991943,0.312458,0.340763,-0.069924,57,270,584,5760
1644176738.914076,-0.007874,0.011841,-0.993591,0.236122,0.294962,0.036947,55,281,597,5840
1644176738.96243,-0.012817,0.006592,-0.992371,0.129252,0.218626,-0.207328,48,276,583,5808
1644176739.011081,-0.011902,0.010925,-0.990967,0.266656,0.371298,-0.100458,36,266,587,5808
1644176739.107654,-0.009949,0.008362,-0.993164,0.205588,0.340763,-0.069924,42,287,582,5776
1644176739.156005,-0.007263,0.00769,-0.991272,0.190321,0.569771,0.067481,41,266,580,5824
1644176739.204375,-0.00592,0.007629,-0.992493,0.220855,0.462901,0.021679,46,279,585,5840
1644176739.252768,-0.01178,0.006531,-0.99353,0.175053,0.340763,-0.130992,48,281,583,5824
1644176739.301148,-0.010559,0.009827,-0.993652,0.495664,0.401832,-0.283664,52,273,575,5776
1644176739.349519,-0.010681,0.009827,-0.994385,0.129252,0.386565,-0.054656,38,275,579,5776
1644176739.397922,-0.009521,0.009949,-0.994812,0.251389,0.447634,-0.039389,49,277,584,5760
1644176739.446308,-0.01123,0.008606,-0.994568,0.175053,0.325496,-0.085191,46,279,585,5808
1644176739.494726,-0.010681,0.010437,-0.993774,0.159786,0.432366,-0.039389,53,276,585,5840
1644176739.543122,-0.009644,0.009949,-0.990601,0.144519,0.417099,-0.085191,45,277,589,5808
1644176739.591466,-0.010071,0.00885,-0.99115,0.342992,0.523969,-0.054656,54,282,584,5872
1644176739.639878,-0.009155,0.00946,-0.991638,0.190321,0.325496,-0.054656,49,265,579,5840
1644176739.688273,-0.008972,0.010864,-0.990723,0.205588,0.386565,-0.100458,49,275,589,5824
1644176739.736667,-0.005066,0.008484,-0.991028,0.327725,0.294962,0.12855,43,279,580,5840
1644176739.785099,-0.010498,0.009033,-0.99353,0.342992,0.371298,-0.115725,48,279,585,5808
1644176739.833451,-0.01123,0.007812,-0.994019,0.297191,0.310229,-0.161527,45,275,572,5808
1644176739.881887,-0.010254,0.008606,-0.994324,0.068183,0.493435,0.006412,47,280,584,5840
1644176739.930401,-0.007568,0.009216,-0.989807,0.327725,0.417099,-0.14626,43,281,587,5824
1644176739.978645,-0.009521,0.006592,-0.993896,0.35826,0.523969,-0.100458,46,264,587,5840
1644176740.028751,-0.008301,0.006714,-0.992615,0.190321,0.447634,-0.069924,58,269,573,5888
1644176740.081616,-0.012024,0.00769,-0.99115,0.175053,0.493435,-0.100458,46,286,576,5840
1644176740.129114,-0.009277,0.009827,-0.992126,0.266656,0.585038,-0.100458,52,280,586,5712
1644176740.17347,-0.008057,0.007324,-0.991333,0.266656,0.493435,-0.115725,49,268,584,5760
1644176740.269016,-0.008972,0.008057,-0.991028,0.297191,0.356031,-0.069924,47,265,591,5808
1644176740.317382,-0.010986,0.008423,-0.99231,0.129252,0.462901,-0.100458,48,286,576,5824
1644176740.365774,-0.007141,0.007996,-0.991394,0.327725,0.447634,-0.085191,54,277,582,5776
1644176740.414178,-0.014221,0.008057,-0.990051,0.220855,0.264427,-0.130992,49,275,584,5840
1644176740.462598,-0.010803,0.008972,-0.990784,0.251389,0.432366,-0.069924,48,276,580,5840
1644176740.51098,-0.010925,0.007202,-0.992188,0.266656,0.401832,-0.069924,47,273,589,5808
1644176740.55937,-0.009888,0.007507,-0.991943,0.159786,0.539237,-0.085191,51,283,585,5824
1644176740.607744,-0.011841,0.011353,-0.992493,0.236122,0.539237,-0.039389,43,281,576,5824
1644176740.656142,-0.012146,0.007751,-0.99292,0.190321,0.356031,-0.161527,47,273,575,5824
1644176740.704552,-0.010193,0.010254,-0.991089,0.251389,0.310229,-0.054656,47,275,579,5824
1644176740.752948,-0.008057,0.008423,-0.991516,0.327725,0.401832,-0.008855,46,279,585,5776
1644176740.801295,-0.013245,0.009705,-0.991089,0.159786,0.325496,-0.069924,46,276,583,5840
1644176740.849669,-0.011597,0.010742,-0.99353,0.251389,0.432366,-0.130992,47,265,584,5840
1644176740.89809,-0.011475,0.008301,-0.992859,0.220855,0.417099,-0.069924,40,280,582,5840
1644176740.946504,-0.008301,0.007385,-0.995361,0.236122,0.371298,-0.054656,46,274,583,5840
1644176740.994891,-0.012878,0.01062,-0.992493,0.266656,0.264427,0.052214,43,276,585,5840
1644176741.054377,-0.009521,0.009705,-0.989685,0.175053,0.356031,-0.054656,51,271,587,5824
1644176741.097682,-0.008545,0.011169,-0.993469,0.113985,0.310229,-0.024122,49,270,584,5824
1644176741.141659,-0.007385,0.009094,-0.991577,0.236122,0.310229,-0.008855,46,279,583,5872
1644176741.191713,-0.00824,0.010803,-0.99231,0.236122,0.447634,-0.115725,45,280,582,5808
1644176741.241799,-0.011108,0.007202,-0.991455,0.175053,0.447634,-0.100458,52,265,584,5824
1644176741.333595,-0.009521,0.009216,-0.993042,0.266656,0.371298,0.098015,55,271,590,5840
1644176741.381976,-0.011719,0.010254,-0.991272,0.404061,0.432366,-0.130992,51,279,583,5888
1644176741.430351,-0.007019,0.007751,-0.993286,0.251389,0.325496,0.006412,48,281,585,5728
1644176741.47872,-0.010925,0.009399,-0.994385,0.220855,0.356031,-0.100458,53,283,578,5776
1644176741.527134,-0.008118,0.008667,-0.991455,0.220855,0.447634,0.082748,53,279,576,5776
1644176741.575544,-0.008728,0.008911,-0.993469,0.281924,0.508702,-0.039389,40,273,586,5808
1644176741.623936,-0.012451,0.010376,-0.990295,0.251389,0.294962,0.052214,40,275,572,5808
1644176741.672349,-0.008667,0.010254,-0.993225,0.251389,0.371298,-0.161527,43,279,578,5808
1644176741.720711,-0.012085,0.00769,-0.990662,0.373527,0.462901,-0.14626,46,271,587,5824
1644176741.769102,-0.010864,0.009949,-0.992004,0.220855,0.356031,-0.054656,55,276,580,5840
1644176741.817579,-0.008789,0.006592,-0.992126,0.220855,0.447634,-0.222595,57,277,586,5888
1644176741.865915,-0.009827,0.008362,-0.993286,0.205588,0.478168,-0.130992,42,277,579,5888
1644176741.914333,-0.012817,0.00824,-0.993164,0.144519,0.401832,-0.039389,54,280,589,5776
1644176741.962716,-0.00885,0.009766,-0.991943,0.129252,0.279695,-0.100458,64,280,589,5808
1644176742.011065,-0.007019,0.008118,-0.990601,0.205588,0.432366,-0.039389,58,281,580,5808
1644176742.081906,-0.01062,0.008667,-0.993042,0.175053,0.447634,-0.14626,59,280,584,5824
1644176742.109955,-0.010071,0.009949,-0.99353,0.190321,0.386565,-0.008855,53,271,583,5840
1644176742.15623,-0.012878,0.005737,-0.992859,0.266656,0.401832,0.006412,55,276,576,5808
1644176742.204649,-0.010986,0.008606,-0.991943,0.175053,0.447634,-0.14626,51,276,594,5760
1644176742.254487,-0.010132,0.009827,-0.990967,0.266656,0.462901,-0.115725,57,273,582,5840
1644176742.304985,-0.011902,0.010193,-0.991699,0.159786,0.356031,-0.054656,39,286,578,5776
1644176742.349882,-0.007263,0.010376,-0.991943,0.266656,0.325496,-0.100458,53,281,580,5824
1644176742.446576,-0.009338,0.007629,-0.994934,0.144519,0.462901,-0.25313,47,268,582,5808
1644176742.495228,-0.010193,0.007141,-0.991577,0.236122,0.447634,-0.14626,48,274,590,5824
1644176742.543344,-0.011108,0.00769,-0.992126,0.098718,0.340763,-0.161527,53,271,571,5872
1644176742.591758,-0.010315,0.009155,-0.987976,0.312458,0.401832,-0.054656,47,275,577,5760
1644176742.640139,-0.010498,0.006165,-0.992065,0.129252,0.386565,-0.192061,57,277,582,5776
1644176742.688534,-0.009888,0.009094,-0.993469,0.266656,0.417099,0.021679,48,279,585,5872
1644176742.73689,-0.011169,0.006958,-0.992188,0.526198,0.539237,-0.054656,53,279,590,5872
1644176742.785312,-0.011719,0.008118,-0.991516,0.419328,0.508702,-0.039389,49,277,579,5888
1644176742.833749,-0.009583,0.006592,-0.993103,0.312458,0.417099,0.006412,57,277,584,5808
1644176742.882205,-0.008972,0.008362,-0.99054,0.236122,0.569771,-0.176794,49,275,584,5888
1644176742.930742,-0.010071,0.007629,-0.992554,0.388794,0.386565,-0.008855,47,273,586,5872
1644176742.978926,-0.01001,0.009827,-0.993103,0.236122,0.386565,-0.192061,40,275,586,5824
1644176743.027303,-0.011108,0.009155,-0.992188,0.266656,0.569771,-0.069924,47,285,591,5760
1644176743.085376,-0.013245,0.00946,-0.991821,0.175053,0.325496,-0.14626,45,275,584,5840
1644176743.124067,-0.008301,0.009949,-0.993225,0.129252,0.325496,-0.115725,43,279,587,5824
1644176743.172463,-0.010437,0.013123,-0.992065,0.312458,0.310229,0.006412,47,285,593,5808
1644176743.220864,-0.006226,0.008972,-0.990601,0.220855,0.386565,-0.14626,49,273,582,5824
1644176743.271269,-0.012512,0.008911,-0.994446,0.281924,0.401832,-0.085191,54,275,589,5776
1644176743.321519,-0.007812,0.010254,-0.9953,0.190321,0.478168,0.052214,46,269,587,5808
1644176743.366808,-0.013916,0.008118,-0.993408,0.236122,0.462901,-0.130992,53,269,576,5776
1644176743.462814,-0.009277,0.011169,-0.991089,0.266656,0.340763,-0.192061,48,279,587,5872
1644176743.511163,-0.009827,0.009521,-0.992004,0.281924,0.310229,-0.161527,52,270,582,5872
1644176743.559555,-0.009155,0.007385,-0.991516,0.08345,0.508702,-0.176794,46,276,576,5776
1644176743.607971,-0.009277,0.006042,-0.992737,0.419328,0.417099,-0.039389,52,285,589,5712
1644176743.656352,-0.010437,0.00946,-0.99292,0.251389,0.401832,-0.207328,43,283,576,5824
1644176743.704764,-0.009766,0.009399,-0.992859,0.297191,0.447634,-0.130992,47,275,582,5776
1644176743.75312,-0.01001,0.01001,-0.989868,0.113985,0.478168,-0.085191,45,275,579,5776
1644176743.801523,-0.007812,0.007629,-0.991272,0.205588,0.356031,-0.130992,42,277,577,5776
1644176743.849961,-0.009155,0.007935,-0.992432,0.098718,0.24916,0.021679,47,270,596,5888
1644176743.898362,-0.013306,0.007568,-0.992126,0.098718,0.508702,-0.008855,51,274,569,5808
1644176743.946754,-0.009766,0.008179,-0.993408,0.098718,0.569771,-0.054656,60,269,587,5808
1644176743.995319,-0.010071,0.009094,-0.992249,0.35826,0.188092,-0.130992,54,277,582,5824
1644176744.057828,-0.012085,0.009399,-0.993103,0.281924,0.340763,-0.192061,54,280,591,5872
1644176744.093263,-0.012329,0.01062,-0.993286,0.220855,0.508702,-0.14626,45,273,584,5824
1644176744.140292,-0.010559,0.009949,-0.992004,0.190321,0.432366,-0.115725,48,271,585,5872
1644176744.188671,-0.007141,0.007996,-0.990784,0.220855,0.432366,0.021679,52,273,591,5808
1644176744.237045,-0.008301,0.007263,-0.990906,0.08345,0.386565,-0.344733,49,275,589,5824
1644176744.285439,-0.013855,0.009033,-0.991455,0.205588,0.462901,-0.161527,54,268,579,5840
1644176744.333831,-0.009583,0.009155,-0.994995,0.190321,0.264427,-0.14626,53,274,592,5872
1644176744.382281,-0.009705,0.007935,-0.991272,0.159786,0.401832,0.006412,48,283,587,5728
1644176744.432446,-0.009033,0.008789,-0.995056,0.251389,0.218626,-0.207328,59,273,589,5824
1644176744.4827,-0.008911,0.010376,-0.992798,0.08345,0.585038,-0.237863,47,280,579,5760
1644176744.527751,-0.010193,0.010071,-0.990967,0.312458,0.356031,-0.115725,42,275,577,5808
1644176744.624194,-0.010376,0.008911,-0.990112,0.129252,0.462901,-0.069924,51,271,592,5808
1644176744.672586,-0.008789,0.011108,-0.990479,0.113985,0.417099,-0.192061,47,273,582,5808
1644176744.720955,-0.011169,0.011108,-0.990295,0.251389,0.386565,0.082748,59,275,593,5824
1644176744.769343,-0.009949,0.008423,-0.99115,0.159786,0.508702,-0.130992,34,269,585,5760
1644176744.817739,-0.008545,0.008423,-0.994385,0.190321,0.493435,-0.130992,51,276,573,5872
1644176744.866173,-0.008667,0.010986,-0.992859,0.404061,0.569771,0.006412,54,277,584,5824
1644176744.914693,-0.01123,0.010803,-0.994263,0.220855,0.523969,-0.192061,49,268,577,5760
1644176744.962981,-0.009583,0.007141,-0.990662,0.251389,0.24916,-0.100458,52,277,584,5808
1644176745.011359,-0.011292,0.01001,-0.990356,0.342992,0.417099,-0.100458,55,271,597,5872
1644176745.064571,-0.006836,0.009827,-0.989868,0.068183,0.447634,-0.069924,49,270,591,5776
1644176745.108132,-0.010437,0.008911,-0.992371,0.312458,0.478168,-0.085191,51,274,585,5872
1644176745.156492,-0.009521,0.007812,-0.993286,0.205588,0.478168,-0.100458,46,281,599,5776
1644176745.204899,-0.009216,0.007202,-0.991821,0.35826,0.432366,-0.054656,53,279,580,5872
1644176745.253292,-0.008789,0.00708,-0.990112,0.129252,0.386565,-0.039389,66,275,582,5840
1644176745.301663,-0.010376,0.010193,-0.990784,0.297191,0.493435,-0.054656,55,279,578,5824
1644176745.350055,-0.011108,0.007935,-0.990601,0.220855,0.371298,-0.329466,51,279,590,5728
1644176745.398454,-0.009094,0.006592,-0.990479,0.220855,0.356031,-0.100458,54,273,584,5840
1644176745.44683,-0.01001,0.009155,-0.990601,0.281924,0.417099,-0.192061,49,282,584,5840
1644176745.49522,-0.007568,0.007202,-0.992493,0.190321,0.386565,-0.085191,55,274,578,5808
1644176745.543876,-0.009094,0.010193,-0.995361,0.297191,0.401832,-0.192061,54,270,589,5872
1644176745.594266,-0.010803,0.009766,-0.992676,0.220855,0.310229,-0.268397,52,270,591,5840
1644176745.644403,-0.008484,0.007874,-0.993591,0.297191,0.554504,-0.14626,52,268,586,5776
1644176745.689551,-0.010376,0.010193,-0.993164,0.236122,0.264427,-0.100458,47,265,575,5824
1644176745.785554,-0.011047,0.007996,-0.994263,0.251389,0.447634,-0.100458,40,270,579,5808
1644176745.833976,-0.008179,0.007629,-0.989929,0.098718,0.24916,-0.14626,43,271,585,5872
1644176745.882535,-0.010742,0.009644,-0.992615,0.220855,0.371298,-0.039389,49,280,584,5824
1644176745.930795,-0.009155,0.007324,-0.991028,0.251389,0.508702,-0.039389,52,273,586,5840
1644176745.979148,-0.009888,0.010071,-0.991394,0.144519,0.478168,0.021679,46,264,583,5808
1644176746.02756,-0.010986,0.008911,-0.993408,0.312458,0.294962,-0.100458,34,281,587,5776
1644176746.079729,-0.011902,0.006958,-0.992676,0.220855,0.462901,-0.100458,53,279,585,5872
1644176746.124346,-0.010254,0.009949,-0.995239,0.251389,0.478168,-0.207328,54,275,591,5808
1644176746.172719,-0.010071,0.006775,-0.995361,0.35826,0.325496,-0.130992,55,291,583,5808
1644176746.221088,-0.00885,0.006836,-0.990784,0.205588,0.356031,-0.054656,43,283,578,5872
1644176746.269478,-0.013733,0.008667,-0.996948,0.113985,0.478168,-0.085191,51,271,592,5840
1644176746.317849,-0.00885,0.00708,-0.992981,0.373527,0.462901,-0.115725,35,273,591,5888
1644176746.366266,-0.009399,0.007019,-0.993408,0.144519,0.493435,0.067481,52,277,586,5808
1644176746.414715,-0.012085,0.009827,-0.991882,0.220855,0.401832,-0.085191,55,279,585,5824
1644176746.463067,-0.010498,0.008484,-0.993896,0.129252,0.264427,-0.008855,48,274,578,5840
1644176746.511417,-0.007263,0.009216,-0.991211,0.281924,0.325496,-0.085191,46,279,583,5808
1644176746.559835,-0.011108,0.007446,-0.995605,0.129252,0.417099,-0.039389,49,270,584,5776
1644176746.608205,-0.009155,0.010437,-0.990295,0.251389,0.371298,-0.161527,47,277,584,5808
1644176746.656605,-0.009583,0.007629,-0.990234,0.190321,0.325496,-0.054656,45,273,579,5872
1644176746.705728,-0.00885,0.010315,-0.993103,0.266656,0.340763,-0.130992,47,285,584,5776
1644176746.755746,-0.013245,0.006592,-0.991821,0.297191,0.523969,-0.054656,48,279,580,5808
1644176746.805823,-0.009705,0.006836,-0.993652,0.281924,0.417099,-0.14626,49,277,582,5872
1644176746.850927,-0.010803,0.010498,-0.991333,-0.084489,0.493435,-0.024122,41,281,585,5824
1644176746.946998,-0.010864,0.00647,-0.995178,0.236122,0.508702,-0.024122,47,270,582,5840
1644176746.995495,-0.009949,0.010254,-0.992981,0.327725,0.386565,-0.069924,45,285,577,5808
1644176747.043775,-0.008789,0.010681,-0.993347,0.312458,0.401832,0.098015,47,277,577,5776
1644176747.093945,-0.009094,0.008606,-0.992493,0.327725,0.569771,-0.268397,55,279,585,5824
1644176747.140525,-0.009827,0.009094,-0.991821,0.205588,0.264427,-0.039389,48,279,583,5808
1644176747.188911,-0.010559,0.009705,-0.991089,0.251389,0.569771,-0.100458,55,276,580,5808
1644176747.237306,-0.009888,0.009399,-0.98938,0.098718,0.401832,-0.008855,53,276,583,5840
1644176747.285698,-0.008545,0.011475,-0.992859,0.175053,0.478168,-0.054656,58,269,590,5840
1644176747.334087,-0.008545,0.007141,-0.990906,0.327725,0.417099,-0.069924,45,277,584,5808
1644176747.382497,-0.009705,0.007751,-0.99292,0.190321,0.386565,0.006412,46,276,583,5776
1644176747.43087,-0.008179,0.010559,-0.989685,0.144519,0.188092,-0.054656,49,268,584,5872
1644176747.479257,-0.009766,0.009338,-0.989807,0.220855,0.462901,-0.024122,42,277,584,5776
1644176747.527658,-0.008545,0.00946,-0.991699,0.236122,0.294962,-0.14626,55,279,580,5808
1644176747.57604,-0.006714,0.010437,-0.989807,0.281924,0.386565,-0.176794,54,282,582,5760
1644176747.624697,-0.012268,0.008911,-0.994507,0.281924,0.371298,-0.054656,54,285,582,5808
1644176747.673911,-0.010864,0.010742,-0.991394,0.312458,0.310229,-0.100458,53,276,590,5840
1644176747.724288,-0.008728,0.010864,-0.991089,0.266656,0.493435,-0.085191,39,271,578,5808
1644176747.774523,-0.012146,0.010193,-0.989136,0.175053,0.310229,-0.130992,46,274,583,5760
1644176747.866377,-0.010559,0.011169,-0.989441,0.373527,0.340763,-0.085191,45,270,591,5824
1644176747.914915,-0.010925,0.008179,-0.990234,0.251389,0.340763,-0.283664,35,282,593,5872
1644176747.963228,-0.009644,0.008423,-0.990479,0.312458,0.233893,-0.024122,53,264,576,5728
1644176748.011574,-0.008118,0.011353,-0.994446,0.129252,0.340763,-0.115725,47,275,579,5840
1644176748.061924,-0.011353,0.01062,-0.992859,0.251389,0.294962,-0.085191,42,265,586,5872
1644176748.10836,-0.010925,0.011353,-0.989929,0.404061,0.386565,-0.024122,52,273,579,5776
1644176748.156725,-0.009399,0.009766,-0.991821,0.007115,0.401832,-0.14626,41,283,583,5840
1644176748.205143,-0.010559,0.009644,-0.992126,0.205588,0.401832,-0.069924,52,277,582,5824
1644176748.253504,-0.009033,0.011719,-0.991516,0.312458,0.417099,-0.100458,45,277,582,5776
1644176748.301893,-0.007568,0.010925,-0.991638,0.312458,0.478168,-0.008855,55,276,573,5872
1644176748.350331,-0.011658,0.010132,-0.99176,0.159786,0.340763,0.021679,58,271,576,5840
1644176748.398673,-0.01062,0.009766,-0.989441,0.098718,0.386565,-0.039389,49,277,586,5824
1644176748.447088,-0.009399,0.009521,-0.990784,0.098718,0.447634,-0.130992,61,277,586,5824
1644176748.495455,-0.009827,0.010437,-0.991394,0.281924,0.432366,-0.008855,45,280,593,5840
1644176748.543877,-0.008118,0.006042,-0.992126,0.220855,0.340763,-0.069924,53,283,590,5824
1644176748.592281,-0.00769,0.010803,-0.992371,0.297191,0.508702,0.006412,53,283,585,5840
1644176748.640634,-0.007935,0.010254,-0.993835,0.236122,0.264427,-0.039389,55,279,578,5808
1644176748.689025,-0.009521,0.00885,-0.992065,0.175053,0.478168,-0.100458,55,269,585,5776
1644176748.737435,-0.010193,0.010864,-0.993164,0.205588,0.340763,-0.024122,49,268,591,5824
1644176748.786347,-0.01178,0.007751,-0.993469,0.312458,0.493435,-0.207328,46,271,592,5872
1644176748.836783,-0.010193,0.009644,-0.991333,0.159786,0.294962,-0.100458,52,268,577,5776
1644176748.887614,-0.011841,0.007141,-0.988892,0.327725,0.417099,-0.237863,45,280,591,5824
1644176748.931735,-0.010071,0.009399,-0.993103,0.175053,0.325496,-0.069924,54,277,586,5872
1644176749.027825,-0.008789,0.010559,-0.994019,0.144519,0.356031,-0.130992,51,281,580,5776
1644176749.077657,-0.01123,0.00824,-0.994019,0.052916,0.401832,-0.024122,46,281,587,5776
1644176749.124603,-0.009399,0.009521,-0.990479,0.205588,0.462901,-0.237863,49,265,582,5824
1644176749.172933,-0.010803,0.011292,-0.995117,0.266656,0.478168,-0.14626,39,269,580,5824
1644176749.22134,-0.009827,0.00824,-0.99176,0.113985,0.447634,-0.130992,48,274,583,5824
1644176749.26971,-0.010254,0.007874,-0.993713,0.159786,0.508702,-0.176794,42,273,582,5760
1644176749.318122,-0.010437,0.008423,-0.990662,0.144519,0.356031,-0.161527,47,270,575,5776
1644176749.366494,-0.00824,0.007751,-0.989746,0.205588,0.508702,-0.054656,40,277,586,5840
1644176749.414902,-0.008972,0.00769,-0.993469,0.297191,0.310229,-0.069924,47,282,579,5840
1644176749.463279,-0.00769,0.010925,-0.98999,0.236122,0.417099,0.067481,52,270,582,5824
1644176749.511676,-0.009888,0.008789,-0.991516,0.113985,0.294962,0.036947,47,277,586,5824
1644176749.560085,-0.012878,0.009644,-0.994446,0.144519,0.310229,-0.100458,43,271,576,5808
1644176749.608457,-0.008362,0.009033,-0.992371,0.08345,0.493435,-0.115725,48,279,587,5776
1644176749.656852,-0.009521,0.00946,-0.991089,0.144519,0.371298,-0.130992,42,273,589,5824
1644176749.70526,-0.010864,0.013184,-0.994263,0.281924,0.294962,-0.207328,51,281,585,5776
1644176749.753623,-0.007935,0.010864,-0.992126,0.190321,0.462901,-0.14626,45,275,582,5824
1644176749.802085,-0.012512,0.008667,-0.991516,0.129252,0.356031,-0.115725,51,271,580,5808
1644176749.850527,-0.009949,0.011414,-0.991882,0.129252,0.325496,-0.14626,39,276,585,5776
1644176749.898877,-0.007568,0.009277,-0.990723,0.175053,0.386565,-0.100458,46,281,583,5824
1644176749.948565,-0.009827,0.010193,-0.990723,0.388794,0.447634,-0.14626,54,270,586,5824
1644176749.998677,-0.009338,0.008179,-0.98999,0.297191,0.356031,-0.085191,52,265,584,5872
1644176750.068421,-0.010437,0.008362,-0.989868,0.220855,0.508702,-0.14626,49,280,579,5760
1644176750.097379,-0.009888,0.009033,-0.992859,0.220855,0.24916,-0.039389,53,269,597,5840
1644176750.189146,-0.009277,0.010498,-0.992676,0.190321,0.356031,-0.14626,46,281,587,5728
1644176750.237543,-0.009399,0.009155,-0.992737,0.236122,0.447634,-0.069924,46,271,576,5776
1644176750.285932,-0.009338,0.009644,-0.992676,0.312458,0.462901,-0.024122,55,286,585,5776
1644176750.334355,-0.010071,0.010681,-0.992065,0.159786,0.340763,-0.161527,54,282,582,5808
1644176750.382745,-0.009521,0.01001,-0.989319,0.205588,0.325496,-0.14626,57,275,582,5808
1644176750.431124,-0.010803,0.007935,-0.99231,0.159786,0.508702,-0.054656,40,277,579,5760
1644176750.479512,-0.012329,0.01178,-0.993042,0.190321,0.432366,-0.14626,48,276,590,5904
1644176750.527909,-0.011169,0.009644,-0.993652,0.281924,0.447634,-0.176794,53,276,580,5840
1644176750.576297,-0.009216,0.009949,-0.991272,0.175053,0.447634,-0.130992,48,274,578,5840
1644176750.624702,-0.005493,0.010559,-0.992676,0.175053,0.294962,-0.14626,53,279,583,5824
1644176750.67309,-0.008972,0.007751,-0.990723,0.251389,0.310229,-0.14626,41,276,583,5872
1644176750.721437,-0.009827,0.011841,-0.994324,0.144519,0.371298,-0.130992,48,276,583,5824
1644176750.769958,-0.01062,0.009399,-0.989685,0.159786,0.432366,0.021679,53,276,585,5808
1644176750.818299,-0.009644,0.010315,-0.993469,0.175053,0.325496,-0.039389,45,275,589,5808
1644176750.866693,-0.009949,0.004944,-0.989868,0.205588,0.462901,-0.237863,51,279,583,5808
1644176750.915117,-0.00946,0.009521,-0.991638,0.144519,0.386565,-0.039389,55,269,583,5808
1644176750.963485,-0.011414,0.010132,-0.992493,0.236122,0.478168,-0.161527,53,279,597,5808
1644176751.012193,-0.009949,0.00647,-0.995178,0.46513,0.432366,-0.024122,45,268,586,5904
1644176751.108554,-0.009399,0.008728,-0.991882,0.342992,0.386565,-0.207328,51,279,590,5824
1644176751.156968,-0.010315,0.009216,-0.992249,0.159786,0.310229,-0.085191,47,265,584,5808
1644176751.205395,-0.011963,0.011475,-0.993652,0.251389,0.264427,-0.054656,53,279,578,5760
1644176751.253781,-0.009155,0.010742,-0.993225,0.281924,0.493435,-0.008855,49,268,582,5824
1644176751.302377,-0.011475,0.008728,-0.994629,0.281924,0.523969,-0.085191,53,279,587,5712
1644176751.350532,-0.01123,0.008789,-0.990906,0.312458,0.371298,0.082748,57,287,575,5872
1644176751.398939,-0.009216,0.010132,-0.994141,0.113985,0.417099,-0.085191,49,277,575,5760
1644176751.447344,-0.01123,0.010437,-0.99115,0.342992,0.356031,-0.14626,51,279,580,5824
1644176751.495701,-0.009521,0.008545,-0.994324,0.388794,0.356031,-0.115725,51,274,580,5808
1644176751.544123,-0.012939,0.00885,-0.994019,0.251389,0.294962,-0.085191,52,268,575,5888
1644176751.592502,-0.009216,0.009094,-0.994751,0.266656,0.585038,-0.176794,49,277,586,5808
1644176751.640907,-0.009033,0.010437,-0.991943,0.297191,0.386565,-0.130992,48,269,576,5808
1644176751.689301,-0.011902,0.010132,-0.993469,0.236122,0.157557,-0.14626,53,274,578,5760
1644176751.737685,-0.010864,0.007996,-0.993896,0.266656,0.508702,-0.207328,54,287,582,5728
1644176751.786079,-0.010864,0.010498,-0.992676,0.175053,0.462901,-0.25313,47,285,586,5808
1644176751.834518,-0.011719,0.009094,-0.993225,0.205588,0.417099,-0.130992,52,282,593,5872
1644176751.882924,-0.011536,0.007019,-0.992798,0.281924,0.539237,-0.069924,47,277,579,5840
1644176751.931302,-0.012329,0.009094,-0.990784,0.297191,0.493435,0.006412,52,280,600,5840
1644176751.979696,-0.010315,0.009094,-0.992798,0.266656,0.417099,-0.192061,54,273,593,5808
1644176752.028766,-0.00946,0.009644,-0.99231,0.190321,0.432366,-0.115725,38,280,582,5824
1644176752.08049,-0.008484,0.009521,-0.992798,0.175053,0.432366,-0.069924,52,282,584,5808
1644176752.130019,-0.008057,0.008484,-0.989624,0.129252,0.462901,-0.054656,48,274,580,5808
1644176752.17354,-0.011047,0.008728,-0.995361,0.037649,0.325496,-0.039389,52,270,584,5808
1644176752.269977,-0.010986,0.01001,-0.993591,0.281924,0.432366,-0.161527,57,277,577,5872
1644176752.31838,-0.011475,0.007812,-0.994751,0.098718,0.356031,-0.161527,46,276,580,5760
1644176752.36675,-0.009705,0.013,-0.994751,0.251389,0.325496,-0.192061,47,275,589,5840
1644176752.415363,-0.009583,0.010376,-0.99054,0.190321,0.600305,-0.069924,46,271,583,5840
1644176752.463563,-0.010193,0.007568,-0.991699,0.205588,0.371298,-0.14626,48,281,585,5808
1644176752.511945,-0.012756,0.01001,-0.991211,0.175053,0.447634,-0.192061,40,268,584,5872
1644176752.560339,-0.009277,0.011963,-0.99115,0.159786,0.493435,-0.25313,59,275,586,5776
1644176752.608722,-0.010254,0.00647,-0.992432,0.236122,0.432366,-0.161527,61,270,586,5808
1644176752.657125,-0.010742,0.010193,-0.993713,0.266656,0.233893,-0.161527,46,279,587,5760
1644176752.705515,-0.00769,0.007568,-0.992615,0.266656,0.310229,-0.100458,40,273,589,5872
1644176752.753922,-0.011169,0.008057,-0.992371,0.236122,0.24916,-0.054656,47,282,582,5776
1644176752.802306,-0.012329,0.007812,-0.993286,0.144519,0.493435,-0.237863,46,264,585,5728
1644176752.850736,-0.01062,0.012024,-0.991455,0.281924,0.401832,-0.085191,47,285,575,5824
1644176752.899136,-0.008667,0.00824,-0.993408,0.266656,0.523969,0.052214,49,277,575,5840
1644176752.947521,-0.005066,0.010254,-0.993347,0.144519,0.417099,-0.176794,59,273,591,5808
1644176752.995889,-0.009216,0.011169,-0.992065,0.342992,0.340763,-0.069924,42,270,575,5808
1644176753.063262,-0.011536,0.008118,-0.993103,0.236122,0.340763,-0.100458,46,269,583,5776
1644176753.095525,-0.012695,0.006531,-0.992188,0.312458,0.539237,-0.14626,53,271,587,5824
1644176753.141296,-0.008789,0.007935,-0.992493,0.327725,0.493435,-0.115725,46,283,578,5888
1644176753.190376,-0.011658,0.008484,-0.994995,0.08345,0.401832,-0.130992,64,277,584,5760
1644176753.240808,-0.009888,0.008606,-0.993896,0.190321,0.432366,-0.207328,62,271,597,5840
1644176753.291721,-0.012024,0.006897,-0.991577,0.327725,0.417099,-0.176794,58,274,587,5872
1644176753.336031,-0.010315,0.008789,-0.991516,0.251389,0.340763,-0.115725,39,274,583,5808
1644176753.431376,-0.009827,0.006653,-0.991516,0.281924,0.325496,-0.130992,60,274,594,5760
1644176753.479759,-0.011963,0.007996,-0.994019,0.144519,0.447634,-0.130992,46,269,587,5808
1644176753.528146,-0.011963,0.005676,-0.991333,0.251389,0.447634,-0.069924,54,270,579,5808
1644176753.576543,-0.01062,0.010193,-0.991455,0.312458,0.294962,-0.054656,58,283,585,5824
1644176753.62501,-0.010742,0.009399,-0.991638,0.327725,0.523969,-0.008855,49,270,582,5840
1644176753.673341,-0.012268,0.009277,-0.991577,0.190321,0.493435,-0.176794,51,276,590,5872
1644176753.721733,-0.008057,0.009766,-0.993164,0.037649,0.325496,-0.115725,54,258,579,5840
1644176753.770123,-0.012756,0.010986,-0.992371,0.175053,0.462901,-0.130992,52,270,582,5888
1644176753.818513,-0.010925,0.009033,-0.992065,0.098718,0.401832,-0.115725,47,282,584,5872
1644176753.866942,-0.010986,0.006348,-0.993286,0.175053,0.447634,-0.024122,43,281,580,5840
1644176753.915345,-0.011047,0.008484,-0.991089,0.281924,0.340763,-0.100458,55,274,580,5808
1644176753.963742,-0.010559,0.009827,-0.992371,0.205588,0.462901,-0.024122,60,281,592,5824
1644176754.012083,-0.011108,0.008728,-0.99176,0.297191,0.432366,-0.207328,57,270,582,5808
1644176754.072041,-0.011047,0.006653,-0.992188,0.190321,0.432366,-0.161527,48,274,587,5840
1644176754.108949,-0.011475,0.006165,-0.996887,0.113985,0.310229,-0.054656,48,276,592,5872
1644176754.157261,-0.011169,0.006226,-0.995117,0.251389,0.24916,-0.054656,55,271,583,5840
1644176754.205641,-0.00946,0.007874,-0.994019,0.205588,0.432366,-0.100458,42,277,591,5808
1644176754.254006,-0.013062,0.005981,-0.995667,0.236122,0.417099,-0.268397,45,287,596,5872
1644176754.302436,-0.011108,0.010864,-0.993835,0.190321,0.386565,-0.054656,59,277,584,5808
1644176754.351223,-0.01239,0.006348,-0.994019,0.129252,0.417099,-0.192061,49,273,589,5808
1644176754.401817,-0.00946,0.005676,-0.995667,0.129252,0.340763,-0.024122,43,274,583,5808
1644176754.451799,-0.011963,0.008972,-0.993469,0.236122,0.157557,-0.069924,48,271,580,5776
1644176754.497161,-0.008423,0.008911,-0.9953,0.312458,0.493435,-0.115725,59,275,593,5840
1644176754.592784,-0.008972,0.008301,-0.992554,0.342992,0.401832,-0.192061,48,271,590,5840
1644176754.641157,-0.013245,0.007874,-0.993896,0.159786,0.386565,0.036947,51,269,587,5776
1644176754.689545,-0.008484,0.007996,-0.993713,0.251389,0.401832,-0.054656,52,277,589,5808
1644176754.737936,-0.010132,0.00647,-0.992554,0.205588,0.371298,-0.14626,46,276,580,5872
1644176754.786332,-0.008789,0.00769,-0.991638,0.373527,0.386565,-0.14626,47,277,584,5840
1644176754.834729,-0.010864,0.011475,-0.992432,0.159786,0.417099,0.006412,43,274,578,5824
1644176754.883186,-0.012756,0.008484,-0.992371,0.251389,0.432366,0.021679,41,279,580,5824
1644176754.932047,-0.007874,0.010071,-0.992065,0.205588,0.554504,-0.130992,48,271,585,5808
1644176754.979938,-0.010681,0.009521,-0.992859,0.297191,0.447634,-0.207328,52,280,577,5808
1644176755.028327,-0.01001,0.009216,-0.991943,0.266656,0.340763,0.006412,54,275,591,5888
1644176755.089306,-0.011292,0.008179,-0.990723,0.144519,0.325496,0.006412,46,286,585,5760
1644176755.125269,-0.010193,0.008789,-0.991028,0.144519,0.417099,-0.039389,47,280,579,5808
1644176755.173465,-0.012573,0.005615,-0.993591,0.190321,0.447634,-0.14626,49,280,584,5872
1644176755.221855,-0.01062,0.010437,-0.990479,0.327725,0.386565,-0.207328,49,277,586,5808
1644176755.270546,-0.008606,0.006958,-0.991272,0.312458,0.508702,-0.115725,34,264,578,5824
1644176755.31959,-0.01062,0.006348,-0.992004,0.220855,0.447634,-0.008855,52,268,593,5840
1644176755.369781,-0.009338,0.009827,-0.994446,0.220855,0.447634,-0.222595,45,273,584,5760
1644176755.42005,-0.008606,0.007141,-0.99469,0.297191,0.401832,-0.100458,43,266,590,5888
1644176755.512398,-0.00824,0.009155,-0.99054,0.175053,0.386565,-0.314198,40,273,593,5808
1644176755.560579,-0.009888,0.010437,-0.993347,0.373527,0.401832,-0.314198,49,273,586,5808
1644176755.608969,-0.008362,0.008606,-0.99292,0.205588,0.432366,-0.085191,53,274,587,5824
1644176755.657371,-0.007263,0.008484,-0.991699,0.297191,0.462901,-0.100458,46,269,587,5808
1644176755.70576,-0.011597,0.008484,-0.993591,0.159786,0.401832,0.021679,53,279,576,5776
1644176755.754155,-0.008728,0.008179,-0.990784,0.175053,0.462901,0.113282,46,266,590,5872
1644176755.802562,-0.008423,0.009583,-0.991577,0.159786,0.340763,-0.115725,49,270,591,5840
1644176755.850936,-0.010132,0.008484,-0.994568,0.236122,0.417099,-0.130992,53,266,578,5824
1644176755.899391,-0.01123,0.010803,-0.991394,-0.02342,0.417099,-0.25313,65,279,580,5824
1644176755.947756,-0.008728,0.00946,-0.992676,0.236122,0.386565,0.021679,57,263,579,5776
1644176755.996118,-0.01239,0.00885,-0.991638,0.312458,0.340763,-0.130992,55,281,580,5824
1644176756.063763,-0.009277,0.009033,-0.992981,0.113985,0.493435,-0.100458,55,271,590,5888
1644176756.094614,-0.006714,0.007996,-0.990112,0.266656,0.24916,-0.039389,54,277,586,5776
1644176756.141342,-0.009949,0.010437,-0.991211,0.113985,0.600305,-0.085191,45,275,582,5840
1644176756.189718,-0.009155,0.008911,-0.992615,0.175053,0.417099,-0.100458,51,279,590,5808
1644176756.238081,-0.010315,0.010376,-0.991211,0.129252,0.447634,-0.14626,53,274,583,5824
1644176756.286484,-0.010803,0.005859,-0.98938,0.220855,0.386565,-0.115725,46,274,578,5728
1644176756.335182,-0.007141,0.008118,-0.991516,0.281924,0.401832,-0.192061,46,279,590,5872
1644176756.383287,-0.005249,0.008179,-0.991577,0.113985,0.417099,0.006412,46,274,587,5840
1644176756.433394,-0.009277,0.008972,-0.993774,0.175053,0.462901,0.006412,47,275,579,5808
1644176756.483598,-0.00824,0.008179,-0.990845,0.236122,0.462901,-0.192061,57,270,589,5840
1644176756.533774,-0.009277,0.00769,-0.992493,0.236122,0.417099,-0.054656,46,276,590,5776
1644176756.57851,-0.008972,0.007324,-0.990356,0.312458,0.539237,-0.069924,47,275,579,5872
1644176756.67364,-0.010376,0.00946,-0.993408,0.205588,0.417099,-0.115725,51,286,597,5824
1644176756.722013,-0.010132,0.007568,-0.992554,0.251389,0.279695,0.098015,52,275,582,5824
1644176756.770408,-0.011414,0.008972,-0.990112,0.342992,0.310229,-0.298931,43,276,585,5904
1644176756.81878,-0.010681,0.009277,-0.991882,0.312458,0.294962,-0.100458,54,273,577,5808
1644176756.867207,-0.012695,0.008179,-0.992615,0.037649,0.447634,-0.130992,49,282,582,5808
1644176756.915565,-0.011353,0.007751,-0.98999,0.159786,0.371298,-0.069924,41,276,583,5840
1644176756.963977,-0.009583,0.006775,-0.992188,0.312458,0.386565,-0.085191,55,271,580,5808
1644176757.012358,-0.010071,0.010925,-0.990845,0.46513,0.386565,-0.14626,46,271,578,5808
1644176757.064783,-0.01123,0.009277,-0.989563,0.159786,0.508702,-0.161527,49,285,582,5824
1644176757.109091,-0.009094,0.00946,-0.991333,0.190321,0.417099,-0.069924,40,282,582,5824
1644176757.157498,-0.012451,0.010254,-0.99231,0.175053,0.539237,-0.069924,49,280,577,5760
1644176757.205896,-0.011475,0.01123,-0.992554,0.220855,0.310229,-0.192061,46,276,576,5840
1644176757.2543,-0.008362,0.00946,-0.991455,0.281924,0.340763,-0.039389,51,276,587,5776
1644176757.302688,-0.009094,0.010559,-0.990906,0.236122,0.371298,-0.14626,52,275,577,5840
1644176757.35107,-0.010132,0.01062,-0.992493,0.342992,0.462901,-0.207328,48,279,573,5824
1644176757.399452,-0.00885,0.009399,-0.989807,0.08345,0.432366,-0.115725,52,275,579,5824
1644176757.447845,-0.007141,0.00946,-0.993713,0.113985,0.325496,-0.024122,51,276,585,5840
1644176757.496239,-0.012024,0.008057,-0.990417,0.236122,0.462901,-0.115725,45,273,579,5840
1644176757.544637,-0.010193,0.011414,-0.991394,0.297191,0.233893,-0.085191,43,257,592,5776
1644176757.593155,-0.00824,0.008606,-0.990723,0.159786,0.356031,-0.176794,29,269,583,5760
1644176757.643543,-0.008423,0.00946,-0.992981,0.08345,0.401832,-0.115725,51,269,583,5808
1644176757.694017,-0.011108,0.008606,-0.993347,0.175053,0.310229,-0.268397,45,270,596,5840
1644176757.738751,-0.009338,0.010437,-0.993774,0.404061,0.401832,-0.085191,49,265,586,5728
1644176757.835336,-0.008057,0.010376,-0.992554,0.281924,0.523969,-0.069924,46,276,587,5776
1644176757.883421,-0.008911,0.011963,-0.992676,0.220855,0.478168,-0.069924,57,277,577,5760
1644176757.931789,-0.008728,0.012634,-0.989319,0.236122,0.417099,-0.25313,48,274,585,5808
1644176757.980189,-0.009338,0.008057,-0.990479,0.236122,0.401832,-0.085191,53,281,583,5840
1644176758.028579,-0.006042,0.009949,-0.990906,0.205588,0.432366,-0.207328,49,265,575,5776
1644176758.077186,-0.011414,0.010315,-0.99054,0.220855,0.508702,-0.115725,59,275,586,5808
1644176758.12532,-0.00592,0.010559,-0.991455,0.08345,0.340763,-0.192061,55,274,576,5824
1644176758.173714,-0.009583,0.006042,-0.990723,0.220855,0.356031,-0.207328,51,271,585,5888
1644176758.222157,-0.009094,0.010437,-0.992065,0.266656,0.401832,-0.207328,48,279,590,5840
1644176758.270474,-0.009827,0.010376,-0.991516,0.022382,0.401832,-0.130992,51,276,590,5808
1644176758.318934,-0.008911,0.009033,-0.991577,0.35826,0.325496,-0.054656,54,282,579,5776
1644176758.367266,-0.013,0.010376,-0.990906,0.236122,0.371298,-0.100458,46,269,585,5824
1644176758.415657,-0.011902,0.01001,-0.990967,0.266656,0.401832,-0.207328,58,274,583,5776
1644176758.464064,-0.013123,0.00824,-0.993347,0.342992,0.401832,-0.069924,53,281,590,5840
1644176758.512476,-0.010315,0.007996,-0.992249,0.236122,0.401832,-0.069924,38,287,584,5824
1644176758.560842,-0.009583,0.009644,-0.991089,0.190321,0.432366,-0.237863,49,287,584,5872
1644176758.609233,-0.009827,0.009827,-0.992065,0.297191,0.401832,-0.054656,53,269,585,5840
1644176758.657873,-0.008545,0.007996,-0.989807,0.236122,0.432366,-0.085191,49,277,586,5888
1644176758.706769,-0.009888,0.011169,-0.992676,0.251389,0.417099,-0.14626,49,268,591,5760
1644176758.75736,-0.008972,0.008484,-0.991577,0.175053,0.356031,-0.069924,53,269,587,5808
1644176758.807763,-0.008301,0.009766,-0.990479,0.35826,0.569771,-0.054656,45,270,582,5760
1644176758.852799,-0.007568,0.009521,-0.992065,0.159786,0.539237,0.052214,42,285,577,5824
1644176758.948246,-0.010376,0.00885,-0.990112,0.236122,0.356031,-0.039389,43,274,587,5776
1644176758.996392,-0.008728,0.008118,-0.99353,0.251389,0.386565,-0.008855,49,270,591,5808
1644176759.063283,-0.012085,0.008484,-0.992432,0.236122,0.356031,-0.283664,49,280,584,5872
1644176759.095371,-0.011597,0.008972,-0.991272,0.113985,0.294962,-0.14626,46,281,583,5824
1644176759.141542,-0.01001,0.00824,-0.991394,0.281924,0.508702,-0.069924,47,273,577,5872
1644176759.189943,-0.010864,0.009216,-0.991394,0.281924,0.417099,-0.130992,54,275,577,5840
1644176759.238306,-0.011169,0.007751,-0.993225,0.281924,0.24916,-0.161527,49,268,591,5872
1644176759.286711,-0.008362,0.01001,-0.992004,0.251389,0.371298,-0.25313,53,279,583,5824
1644176759.335135,-0.010132,0.010681,-0.993103,0.220855,0.417099,-0.100458,58,274,585,5776
1644176759.383492,-0.007507,0.008484,-0.992004,0.175053,0.417099,-0.161527,52,282,584,5840
1644176759.431882,-0.008972,0.010376,-0.992004,0.236122,0.294962,-0.14626,48,281,585,5840
1644176759.481004,-0.008911,0.010132,-0.992676,0.08345,0.478168,-0.024122,53,279,583,5808
1644176759.529871,-0.008911,0.011597,-0.991394,0.205588,0.417099,0.067481,51,274,585,5808
1644176759.580074,-0.01001,0.010071,-0.993713,0.144519,0.417099,-0.268397,47,282,589,5728
1644176759.630277,-0.009827,0.009949,-0.992493,0.266656,0.340763,-0.207328,41,271,587,5872
1644176759.722412,-0.008484,0.010071,-0.994507,0.266656,0.508702,-0.161527,54,273,584,5808
1644176759.770616,-0.013855,0.00708,-0.993286,0.312458,0.417099,-0.161527,46,276,578,5808
1644176759.819008,-0.008972,0.008789,-0.990845,0.281924,0.569771,-0.100458,46,271,578,5776
1644176759.867439,-0.008118,0.005432,-0.989136,0.205588,0.356031,-0.283664,42,268,584,5824
1644176759.915843,-0.01001,0.008484,-0.994934,0.190321,0.493435,-0.161527,54,273,596,5872
1644176759.964225,-0.009583,0.007202,-0.993042,0.205588,0.310229,-0.14626,42,277,577,5840
1644176760.012656,-0.008423,0.010986,-0.988525,0.266656,0.432366,-0.008855,49,275,577,5808
1644176760.065454,-0.010925,0.008179,-0.992126,0.251389,0.417099,0.006412,57,273,584,5760
1644176760.109438,-0.007202,0.009155,-0.993164,0.08345,0.325496,-0.069924,38,285,584,5872
1644176760.157733,-0.007751,0.010498,-0.991333,0.327725,0.371298,-0.069924,51,271,587,5808
1644176760.206164,-0.009277,0.008545,-0.991577,0.175053,0.462901,-0.207328,53,279,573,5824
1644176760.254549,-0.009888,0.008667,-0.993896,0.220855,0.386565,-0.192061,39,274,583,5840
1644176760.302944,-0.008606,0.010132,-0.992371,0.205588,0.447634,-0.25313,59,270,584,5776
1644176760.351315,-0.011353,0.010803,-0.994934,0.373527,0.462901,-0.054656,49,280,589,5824
1644176760.399716,-0.010559,0.009033,-0.991028,0.175053,0.462901,-0.207328,49,280,584,5872
1644176760.448098,-0.010437,0.010193,-0.993347,0.052916,0.24916,-0.207328,41,274,583,5776
1644176760.496509,-0.01001,0.00708,-0.992981,0.144519,0.493435,-0.069924,57,265,591,5760
1644176760.544892,-0.009033,0.010254,-0.992004,0.220855,0.356031,-0.222595,55,281,585,5840
1644176760.593285,-0.008911,0.011353,-0.990662,0.236122,0.264427,-0.085191,41,266,580,5808
1644176760.641858,-0.010925,0.010986,-0.989441,0.35826,0.539237,-0.085191,45,260,589,5808
1644176760.692199,-0.00531,0.010681,-0.990723,0.052916,0.508702,-0.085191,55,279,578,5808
1644176760.742424,-0.009888,0.008606,-0.992981,0.113985,0.447634,-0.100458,49,273,586,5808
1644176760.787487,-0.00946,0.007629,-0.993225,0.205588,0.478168,-0.085191,54,268,579,5840
1644176760.883654,-0.011475,0.008118,-0.992615,0.144519,0.356031,0.036947,54,273,584,5808
1644176760.932052,-0.009827,0.007996,-0.994202,0.159786,0.310229,-0.069924,54,277,593,5872
1644176760.980448,-0.008118,0.010071,-0.992065,0.220855,0.447634,-0.222595,41,279,583,5840
1644176761.028836,-0.007568,0.010132,-0.990417,0.159786,0.340763,-0.207328,54,280,584,5872
1644176761.077746,-0.011353,0.007507,-0.992371,0.205588,0.417099,-0.024122,45,275,586,5808
1644176761.12562,-0.008972,0.009949,-0.991516,0.251389,0.325496,-0.054656,51,269,583,5824
1644176761.173985,-0.009521,0.009033,-0.993469,0.35826,0.325496,-0.130992,49,270,577,5760
1644176761.222378,-0.010864,0.010193,-0.994263,0.175053,0.172824,-0.115725,46,279,576,5808
1644176761.270726,-0.009277,0.010193,-0.990295,0.159786,0.356031,-0.069924,41,281,592,5840
1644176761.319139,-0.009338,0.008118,-0.993225,0.190321,0.401832,-0.130992,46,276,585,5840
1644176761.367532,-0.010986,0.008423,-0.993774,0.052916,0.432366,-0.115725,49,282,586,5872
1644176761.415905,-0.011902,0.008911,-0.994263,0.281924,0.356031,-0.268397,47,268,572,5840
1644176761.464333,-0.009583,0.00824,-0.994507,0.159786,0.279695,-0.283664,48,271,576,5760
1644176761.512709,-0.009644,0.010315,-0.992859,0.35826,0.325496,-0.14626,39,271,583,5824
1644176761.561106,-0.010437,0.009888,-0.992432,0.159786,0.478168,-0.054656,49,273,575,5840
1644176761.6095,-0.009338,0.007446,-0.991943,0.190321,0.401832,-0.115725,52,282,591,5824
1644176761.657893,-0.008972,0.00946,-0.994751,0.159786,0.325496,-0.054656,42,270,579,5872
1644176761.706282,-0.007019,0.008057,-0.993042,0.113985,0.432366,-0.039389,36,271,576,5840
1644176761.754696,-0.009094,0.00885,-0.992493,0.251389,0.371298,0.021679,49,263,582,5808
1644176761.803098,-0.009338,0.009094,-0.994324,0.175053,0.325496,-0.176794,51,281,573,5824
1644176761.855174,-0.010986,0.008362,-0.992004,0.327725,0.401832,-0.115725,46,274,580,5776
1644176761.904794,-0.010864,0.009827,-0.993042,0.098718,0.417099,-0.192061,45,275,582,5840
1644176761.949233,-0.012146,0.009827,-0.990295,0.251389,0.294962,-0.069924,54,270,577,5824
1644176762.063581,-0.013,0.009033,-0.992554,0.052916,0.356031,-0.085191,55,269,590,5776
1644176762.095322,-0.009827,0.008301,-0.990173,0.159786,0.294962,-0.085191,52,285,579,5776
1644176762.141853,-0.008667,0.010132,-0.991638,0.327725,0.325496,-0.14626,47,270,584,5776
1644176762.190184,-0.007751,0.008484,-0.991699,0.113985,0.356031,-0.268397,49,280,591,5840
1644176762.238572,-0.010986,0.007996,-0.99115,0.251389,0.493435,-0.100458,54,282,584,5872
1644176762.286961,-0.009216,0.011658,-0.991333,0.159786,0.325496,-0.161527,54,275,577,5840
1644176762.335357,-0.010071,0.008789,-0.990967,0.205588,0.691908,0.036947,46,276,594,5872
1644176762.383751,-0.01178,0.007751,-0.99176,0.266656,0.523969,-0.130992,45,275,575,5824
1644176762.432191,-0.011719,0.00647,-0.991272,0.190321,0.417099,-0.115725,57,282,582,5808
1644176762.481516,-0.011047,0.009521,-0.99231,0.113985,0.417099,-0.100458,61,282,582,5840
1644176762.531966,-0.009094,0.009521,-0.99292,0.251389,0.386565,-0.085191,55,276,585,5872
1644176762.581991,-0.011658,0.007019,-0.995178,0.220855,0.386565,-0.176794,51,271,583,5808
1644176762.627162,-0.009888,0.012207,-0.991699,0.266656,0.356031,-0.222595,53,274,576,5776
1644176762.722503,-0.007446,0.008179,-0.992615,0.113985,0.401832,-0.115725,45,287,586,5840
1644176762.770866,-0.008484,0.010376,-0.990845,0.251389,0.371298,-0.054656,51,271,587,5760
1644176762.819282,-0.010193,0.008301,-0.991211,0.159786,0.371298,-0.192061,49,270,584,5840
1644176762.867677,-0.008667,0.008667,-0.992432,0.113985,0.462901,-0.024122,48,274,587,5808
1644176762.916327,-0.009155,0.011536,-0.990479,-0.008153,0.340763,-0.100458,42,265,586,5776
1644176762.964464,-0.009399,0.009216,-0.990662,0.220855,0.340763,-0.069924,49,280,586,5840
1644176763.012916,-0.009705,0.010254,-0.99292,0.190321,0.432366,-0.085191,51,271,580,5808
1644176763.065197,-0.006775,0.009705,-0.990845,0.175053,0.294962,-0.207328,48,281,566,5808
1644176763.109647,-0.010864,0.010864,-0.990356,0.251389,0.462901,-0.100458,52,275,591,5808
1644176763.158029,-0.010071,0.010437,-0.992065,0.205588,0.478168,-0.024122,36,281,583,5824
1644176763.206435,-0.009216,0.010376,-0.994263,0.098718,0.310229,-0.161527,46,271,585,5872
1644176763.254833,-0.012573,0.010132,-0.989136,0.08345,0.371298,0.067481,51,269,580,5840
1644176763.303229,-0.013062,0.010437,-0.993835,0.281924,0.325496,-0.161527,47,275,586,5840
1644176763.351614,-0.010986,0.009827,-0.98999,0.175053,0.340763,-0.008855,55,276,576,5808
1644176763.400009,-0.00647,0.010193,-0.992554,0.281924,0.279695,-0.024122,45,275,577,5776
1644176763.44837,-0.007812,0.006165,-0.992249,0.220855,0.294962,-0.207328,51,266,587,5808
1644176763.49679,-0.012756,0.006958,-0.992188,0.297191,0.523969,-0.115725,51,281,592,5776
1644176763.545217,-0.008911,0.010132,-0.992065,0.251389,0.356031,-0.054656,49,275,582,5808
1644176763.593592,-0.007507,0.009583,-0.993286,0.266656,0.508702,-0.054656,46,279,580,5824
1644176763.643541,-0.009399,0.008972,-0.994263,0.251389,0.371298,-0.25313,43,276,585,5776
1644176763.693863,-0.009094,0.009399,-0.989624,0.220855,0.340763,0.021679,55,269,587,5808
1644176763.744095,-0.008972,0.008545,-0.988831,0.113985,0.356031,-0.25313,45,270,579,5728
1644176763.788686,-0.009521,0.01001,-0.993713,0.098718,0.401832,-0.085191,47,285,586,5840
1644176763.88392,-0.012024,0.009888,-0.992554,0.190321,0.218626,-0.085191,43,276,587,5840
1644176763.932422,-0.009094,0.008606,-0.992981,0.251389,0.554504,-0.25313,42,275,582,5760
1644176763.980706,-0.010803,0.009399,-0.991211,0.098718,0.264427,-0.268397,46,276,583,5776
1644176764.029102,-0.007385,0.009644,-0.991516,0.068183,0.310229,0.006412,41,266,590,5872
1644176764.077619,-0.005493,0.011658,-0.991699,0.159786,0.371298,-0.25313,40,265,579,5776
1644176764.125851,-0.011414,0.008789,-0.990967,0.175053,0.417099,-0.085191,47,282,586,5872
1644176764.174223,-0.009399,0.011169,-0.992859,0.144519,0.401832,-0.054656,49,275,584,5808
1644176764.222646,-0.012878,0.007812,-0.991638,0.312458,0.478168,-0.130992,51,279,583,5728
1644176764.270973,-0.00885,0.01001,-0.992554,0.266656,0.401832,0.021679,52,270,586,5872
1644176764.319399,-0.010376,0.007385,-0.99292,0.236122,0.401832,-0.054656,43,271,583,5776
1644176764.367785,-0.012634,0.009277,-0.989929,0.220855,0.447634,-0.069924,55,269,587,5760
1644176764.416186,-0.008423,0.009338,-0.991943,0.175053,0.356031,-0.192061,52,277,596,5808
1644176764.464701,-0.009583,0.010925,-0.993103,0.281924,0.417099,-0.161527,52,275,577,5872
1644176764.512964,-0.007751,0.011047,-0.989502,0.342992,0.462901,-0.176794,51,271,571,5840
1644176764.561359,-0.010254,0.010498,-0.991211,0.022382,0.386565,-0.069924,48,283,585,5872
1644176764.609741,-0.007202,0.008118,-0.990601,0.144519,0.294962,-0.222595,52,277,582,5824
1644176764.658134,-0.009949,0.008728,-0.992615,0.205588,0.539237,-0.222595,46,274,585,5808
1644176764.706518,-0.010742,0.008728,-0.992432,0.236122,0.340763,-0.222595,46,283,587,5824
1644176764.754894,-0.011108,0.006653,-0.991272,0.251389,0.24916,-0.14626,51,269,599,5904
1644176764.805081,-0.009644,0.008789,-0.990662,0.007115,0.462901,-0.161527,53,274,587,5760
1644176764.854886,-0.009888,0.008057,-0.992126,0.35826,0.340763,-0.161527,51,274,583,5824
1644176764.904819,-0.011292,0.005737,-0.994446,0.251389,0.356031,-0.008855,46,271,587,5712
1644176764.949539,-0.010925,0.009766,-0.993103,0.266656,0.340763,-0.085191,49,273,586,5760
1644176765.056166,-0.009766,0.010925,-0.993103,0.251389,0.432366,-0.207328,40,285,579,5888
1644176765.097613,-0.011536,0.009338,-0.992188,0.251389,0.432366,0.067481,49,275,586,5808
1644176765.142055,-0.009888,0.008423,-0.992249,0.098718,0.24916,-0.024122,49,280,589,5824
1644176765.190439,-0.012024,0.00885,-0.99231,0.266656,0.386565,-0.115725,45,277,589,5776
1644176765.238832,-0.008545,0.011353,-0.991272,0.175053,0.401832,-0.039389,61,268,586,5824
1644176765.287231,-0.007263,0.011597,-0.990845,0.205588,0.325496,-0.100458,52,265,589,5840
1644176765.335624,-0.007996,0.00824,-0.992554,0.205588,0.24916,-0.039389,45,275,589,5776
1644176765.384026,-0.010437,0.009888,-0.989319,0.236122,0.279695,-0.130992,46,279,590,5760
1644176765.432425,-0.010437,0.012146,-0.992798,0.190321,0.356031,-0.024122,49,270,582,5776
1644176765.480788,-0.008667,0.010986,-0.991089,0.159786,0.554504,-0.14626,48,281,594,5760
1644176765.529186,-0.011108,0.008423,-0.990906,0.129252,0.386565,-0.161527,43,266,587,5872
1644176765.577567,-0.012573,0.009094,-0.992798,0.236122,0.462901,-0.115725,54,275,591,5824
1644176765.625938,-0.009216,0.010559,-0.991272,0.281924,0.24916,-0.008855,38,282,579,5776
1644176765.674688,-0.008606,0.007568,-0.994263,0.251389,0.539237,-0.268397,59,268,591,5840
1644176765.723585,-0.010376,0.006226,-0.99176,0.266656,0.401832,-0.008855,45,277,593,5824
1644176765.77412,-0.011658,0.009888,-0.99054,0.281924,0.340763,-0.008855,47,279,578,5808
1644176765.82498,-0.009644,0.009705,-0.993225,0.129252,0.585038,-0.069924,41,279,580,5776
1644176765.916351,-0.009888,0.00824,-0.994507,0.281924,0.401832,-0.100458,45,292,584,5840
1644176765.964913,-0.007446,0.009766,-0.992188,0.404061,0.24916,0.082748,49,268,584,5872
1644176766.013177,-0.011047,0.009949,-0.991333,0.297191,0.386565,-0.115725,51,283,580,5840
1644176766.066009,-0.010193,0.008118,-0.992615,0.35826,0.600305,-0.14626,49,277,586,5776
1644176766.109909,-0.006042,0.01239,-0.991394,0.312458,0.417099,-0.130992,51,274,583,5872
1644176766.158261,-0.007324,0.011414,-0.992981,0.266656,0.508702,-0.069924,51,276,578,5776
1644176766.206638,-0.007874,0.007935,-0.991821,0.312458,0.310229,-0.176794,41,286,580,5712
1644176766.255182,-0.008118,0.011475,-0.991333,0.312458,0.417099,-0.069924,45,273,579,5808
1644176766.303444,-0.01239,0.009766,-0.992188,0.220855,0.523969,-0.176794,53,269,578,5808
1644176766.35184,-0.00824,0.008057,-0.991821,0.205588,0.523969,0.036947,52,287,582,5840
1644176766.400234,-0.012146,0.006348,-0.993225,0.220855,0.24916,0.036947,54,268,575,5840
1644176766.448619,-0.011353,0.010559,-0.992981,0.236122,0.462901,-0.024122,52,273,582,5776
1644176766.496981,-0.008362,0.009155,-0.990417,0.175053,0.417099,-0.115725,62,279,578,5888
1644176766.545372,-0.008545,0.008545,-0.993225,0.251389,0.523969,-0.115725,51,271,587,5776
1644176766.593796,-0.009338,0.008789,-0.992981,0.190321,0.294962,-0.176794,62,264,587,5776
1644176766.642197,-0.01062,0.00946,-0.99176,0.251389,0.340763,0.021679,39,271,583,5872
1644176766.690558,-0.009155,0.008484,-0.99115,0.144519,0.325496,-0.069924,53,286,578,5872
1644176766.738974,-0.010315,0.010132,-0.993469,0.175053,0.432366,0.021679,47,270,593,5760
1644176766.787338,-0.008606,0.007568,-0.991638,0.129252,0.325496,-0.176794,40,270,584,5824
1644176766.836421,-0.010498,0.008545,-0.992859,0.35826,0.401832,0.006412,47,265,584,5808
1644176766.887318,-0.010559,0.00885,-0.992615,0.098718,0.554504,0.036947,42,275,584,5760
1644176766.937315,-0.009583,0.008972,-0.992554,0.404061,0.523969,0.12855,49,265,579,5824
1644176766.98179,-0.011536,0.008972,-0.993347,0.297191,0.294962,-0.100458,52,282,586,5712
1644176767.081399,-0.009827,0.008545,-0.993958,0.190321,0.325496,-0.054656,45,273,582,5840
1644176767.12611,-0.009888,0.008667,-0.991089,0.205588,0.417099,0.082748,41,283,580,5728
1644176767.174487,-0.009827,0.01001,-0.992554,0.236122,0.462901,-0.085191,46,279,580,5888
1644176767.222897,-0.012695,0.010864,-0.993042,0.373527,0.569771,-0.069924,52,268,577,5824
1644176767.271244,-0.00885,0.010742,-0.993042,0.159786,0.356031,-0.14626,47,270,586,5776
1644176767.319648,-0.007751,0.009827,-0.99115,0.35826,0.386565,-0.176794,49,273,582,5824
