epoch,acc_x,acc_y,acc_z,rot_x,rot_y,rot_z,mag_x,mag_y,mag_z,temp
1644153219.0346105,-1.00341796875,0.01861572265625,0.006591796875,-0.026351145038167822,0.20577099236641216,0.12006106870229008,-256,277,332,4320
1644153219.0911016,-1.0054931640625,0.01971435546875,0.00384521484375,-0.1790229007633587,0.17523664122137406,0.04372519083969466,-243,274,327,4304
1644153219.1798034,-1.002685546875,0.0179443359375,0.00408935546875,-0.056885496183205986,0.2515725190839695,0.013190839694656495,-248,266,327,4352
1644153219.2281437,-1.00604248046875,0.01861572265625,0.0064697265625,-0.011083969465648769,0.2668396946564886,0.028458015267175577,-260,262,322,4352
1644153219.27693,-1.00433349609375,0.01995849609375,0.00457763671875,-0.04161832061068693,0.22103816793893127,0.028458015267175577,-249,268,328,4352
1644153219.3249733,-1.004150390625,0.017578125,0.00457763671875,-0.10268702290076326,0.20577099236641216,-0.047877862595419846,-247,282,325,4240
1644153219.3733196,-1.00396728515625,0.01666259765625,0.00665283203125,-0.14848854961832053,0.22103816793893127,-0.12421374045801525,-245,269,331,4288
1644153219.421705,-1.0040283203125,0.01715087890625,0.00543212890625,-0.1790229007633587,0.2515725190839695,-0.09367938931297709,-252,271,322,4256
1644153219.4700692,-1.00738525390625,0.01531982421875,0.00433349609375,-0.056885496183205986,0.2973740458015267,-0.12421374045801525,-261,275,316,4256
1644153219.5184834,-1.0048828125,0.01806640625,0.00372314453125,-0.0721526717557251,0.2821068702290076,-0.17001526717557253,-244,273,325,4240
1644153219.566841,-1.00762939453125,0.0157470703125,0.005126953125,-0.056885496183205986,0.22103816793893127,-0.017343511450381682,-251,275,335,4320
1644153219.6153092,-1.00189208984375,0.02069091796875,0.0050048828125,-0.22482442748091594,0.15996946564885495,0.028458015267175577,-254,273,325,4304
1644153219.6638594,-1.00341796875,0.01605224609375,0.0048828125,-0.04161832061068693,0.2515725190839695,0.05899236641221374,-247,270,335,4352
1644153219.7120578,-1.003662109375,0.01953125,0.00482177734375,0.019450381679389395,0.32790839694656493,-0.09367938931297709,-248,279,334,4352
1644153219.7603843,-1.0072021484375,0.01751708984375,0.00555419921875,-0.026351145038167822,0.3126412213740458,0.04372519083969466,-252,271,322,4320
1644153219.8087816,-1.005859375,0.0177001953125,0.00360107421875,-0.04161832061068693,0.22103816793893127,-0.07841221374045801,-256,273,321,4320
1644153219.857147,-1.00360107421875,0.01788330078125,0.00341796875,0.04998473282442756,0.1905038167938931,0.07425954198473284,-242,263,328,4304
1644153219.905519,-1.0040283203125,0.02130126953125,0.004150390625,-0.056885496183205986,0.3431755725190839,-0.0020763358778626007,-252,276,320,4368
1644153219.9539175,-1.00408935546875,0.01611328125,0.0048828125,-0.24009160305343502,0.2515725190839695,0.08952671755725192,-235,273,325,4256
1644153220.0037007,-1.00714111328125,0.01776123046875,0.004638671875,-0.056885496183205986,0.1905038167938931,-0.07841221374045801,-245,269,329,4352
1644153220.0616689,-1.0062255859375,0.01904296875,0.005859375,-0.0874198473282442,0.20577099236641216,0.013190839694656495,-256,268,330,4288
1644153220.0992625,-1.00701904296875,0.01641845703125,0.00311279296875,-0.19429007633587778,0.1905038167938931,0.013190839694656495,-249,275,323,4304
1644153220.195782,-1.00714111328125,0.02001953125,0.0057373046875,0.004183206106870341,0.1905038167938931,-0.017343511450381682,-242,270,323,4352
1644153220.2442863,-1.00677490234375,0.0181884765625,0.0057373046875,0.08051908396946572,0.32790839694656493,-0.032610687022900764,-249,273,330,4288
1644153220.2931015,-1.00042724609375,0.01702880859375,0.00494384765625,-0.14848854961832053,0.2821068702290076,-0.017343511450381682,-251,268,325,4352
1644153220.3409088,-1.00665283203125,0.01678466796875,0.00421142578125,-0.056885496183205986,0.2821068702290076,-0.047877862595419846,-256,277,328,4288
1644153220.3893912,-1.0050048828125,0.0185546875,0.00677490234375,0.14158778625954205,0.2515725190839695,0.04372519083969466,-250,266,327,4240
1644153220.4377856,-1.0042724609375,0.01678466796875,0.00665283203125,-0.011083969465648769,0.2668396946564886,-0.017343511450381682,-248,264,322,4320
1644153220.4861019,-1.0045166015625,0.0162353515625,0.00421142578125,-0.056885496183205986,0.11416793893129773,-0.07841221374045801,-255,276,322,4352
1644153220.5345933,-1.00506591796875,0.017822265625,0.00469970703125,-0.026351145038167822,0.3431755725190839,-0.18528244274809158,-243,264,329,4320
1644153220.5832026,-1.004150390625,0.01922607421875,0.00384521484375,-0.10268702290076326,0.2515725190839695,0.05899236641221374,-248,266,324,4320
1644153220.6314106,-1.00482177734375,0.02001953125,0.0054931640625,-0.10268702290076326,0.2515725190839695,-0.032610687022900764,-250,269,334,4320
1644153220.6797101,-1.00213623046875,0.01995849609375,0.0050048828125,-0.14848854961832053,0.11416793893129773,-0.21581679389312974,-250,269,329,4352
1644153220.7288563,-1.0057373046875,0.01947021484375,0.00311279296875,0.019450381679389395,0.2668396946564886,-0.047877862595419846,-249,265,328,4352
1644153220.7764688,-1.0030517578125,0.01910400390625,0.0028076171875,-0.026351145038167822,0.22103816793893127,-0.2005496183206107,-255,264,327,4304
1644153220.824833,-1.0052490234375,0.01971435546875,0.0028076171875,-0.056885496183205986,0.2821068702290076,0.08952671755725192,-244,268,335,4256
1644153220.8735273,-1.00360107421875,0.015625,0.0028076171875,-0.10268702290076326,0.38897709923664125,-0.0020763358778626007,-249,268,330,4288
1644153220.9216228,-1.002197265625,0.0186767578125,0.0048828125,-0.16375572519083959,0.2668396946564886,0.04372519083969466,-251,277,323,4304
1644153220.969985,-1.00482177734375,0.0185546875,0.00250244140625,-0.13322137404580142,0.35844274809160304,0.013190839694656495,-254,270,328,4288
1644153221.0183754,-1.00543212890625,0.018310546875,0.007080078125,-0.16375572519083959,0.22103816793893127,-0.10894656488549617,-249,265,325,4304
1644153221.0675375,-1.004638671875,0.0164794921875,0.00274658203125,0.004183206106870341,0.12943511450381678,-0.06314503816793893,-250,264,327,4320
1644153221.115172,-1.00439453125,0.01458740234375,0.00537109375,-0.0874198473282442,0.2821068702290076,0.013190839694656495,-248,274,327,4304
1644153221.164859,-1.0013427734375,0.01605224609375,0.00445556640625,-0.056885496183205986,0.1905038167938931,0.104793893129771,-250,276,320,4320
1644153221.2148535,-1.0023193359375,0.01556396484375,0.0059814453125,-0.0721526717557251,0.22103816793893127,-0.07841221374045801,-243,271,317,4304
1644153221.3087032,-1.0042724609375,0.01593017578125,0.00421142578125,-0.11795419847328237,0.2973740458015267,-0.017343511450381682,-248,271,324,4368
1644153221.3570585,-1.0050048828125,0.019287109375,0.0032958984375,0.019450381679389395,0.2973740458015267,-0.047877862595419846,-254,270,321,4256
1644153221.405448,-1.00421142578125,0.01910400390625,0.00726318359375,0.04998473282442756,0.23630534351145038,0.04372519083969466,-249,260,321,4240
1644153221.4538553,-1.008544921875,0.01708984375,0.00799560546875,-0.056885496183205986,0.20577099236641216,-0.017343511450381682,-251,275,325,4368
1644153221.5022554,-1.00164794921875,0.01934814453125,0.0028076171875,-0.20955725190839686,0.23630534351145038,-0.06314503816793893,-249,282,321,4256
1644153221.5506058,-1.0035400390625,0.01934814453125,0.0048828125,-0.0721526717557251,0.22103816793893127,0.04372519083969466,-250,266,324,4288
1644153221.5989962,-1.0059814453125,0.02056884765625,0.00555419921875,-0.13322137404580142,0.32790839694656493,-0.047877862595419846,-242,273,325,4256
1644153221.6473725,-1.00201416015625,0.019287109375,0.0069580078125,0.004183206106870341,0.15996946564885495,-0.047877862595419846,-243,276,336,4304
1644153221.6957726,-1.005859375,0.01885986328125,0.005615234375,-0.04161832061068693,0.37370992366412215,-0.13948091603053436,-252,274,315,4288
1644153221.744169,-1.0037841796875,0.0216064453125,0.006103515625,-0.056885496183205986,0.32790839694656493,-0.09367938931297709,-249,265,321,4368
1644153221.7925813,-1.00543212890625,0.0147705078125,0.0048828125,-0.056885496183205986,0.11416793893129773,0.013190839694656495,-247,265,318,4352
1644153221.8408837,-1.0047607421875,0.01776123046875,0.00506591796875,-0.011083969465648769,0.17523664122137406,-0.047877862595419846,-249,260,323,4304
1644153221.893334,-1.0052490234375,0.02032470703125,0.0047607421875,-0.0721526717557251,0.22103816793893127,0.028458015267175577,-243,271,324,4256
1644153221.9377203,-1.00537109375,0.01934814453125,0.00494384765625,0.004183206106870341,0.1447022900763359,-0.10894656488549617,-242,270,321,4304
1644153221.9859965,-1.00439453125,0.0177001953125,0.00653076171875,-0.056885496183205986,0.23630534351145038,-0.07841221374045801,-249,263,328,4320
1644153222.0343938,-1.00372314453125,0.01824951171875,0.0023193359375,-0.0721526717557251,0.2515725190839695,-0.06314503816793893,-250,269,322,4320
1644153222.0847573,-1.00384521484375,0.02044677734375,0.002685546875,-0.0721526717557251,0.23630534351145038,0.05899236641221374,-245,271,320,4352
1644153222.1327565,-1.0067138671875,0.01824951171875,0.00372314453125,-0.13322137404580142,0.32790839694656493,0.07425954198473284,-248,259,315,4352
1644153222.227929,-1.0018310546875,0.01702880859375,0.004150390625,-0.0721526717557251,0.22103816793893127,-0.06314503816793893,-248,266,324,4304
1644153222.2763035,-1.00567626953125,0.017578125,0.006591796875,0.04998473282442756,0.22103816793893127,-0.13948091603053436,-237,265,318,4368
1644153222.3247027,-1.00543212890625,0.0181884765625,0.0037841796875,-0.13322137404580142,0.37370992366412215,-0.017343511450381682,-255,269,322,4320
1644153222.3731182,-1.00628662109375,0.0201416015625,0.0023193359375,0.019450381679389395,0.11416793893129773,-0.047877862595419846,-245,266,324,4304
1644153222.4215596,-1.00714111328125,0.0205078125,0.00653076171875,-0.026351145038167822,0.22103816793893127,0.05899236641221374,-252,269,331,4320
1644153222.4699516,-1.0047607421875,0.01641845703125,0.0040283203125,-0.10268702290076326,0.38897709923664125,-0.017343511450381682,-251,277,318,4304
1644153222.518309,-1.00897216796875,0.01806640625,0.00396728515625,-0.11795419847328237,0.2668396946564886,-0.032610687022900764,-251,275,332,4320
1644153222.5684192,-1.00482177734375,0.0169677734375,0.00537109375,-0.10268702290076326,0.1905038167938931,-0.0020763358778626007,-247,270,325,4368
1644153222.6154687,-1.00604248046875,0.01995849609375,0.00372314453125,-0.04161832061068693,0.37370992366412215,0.05899236641221374,-247,265,328,4256
1644153222.66338,-1.00164794921875,0.01641845703125,0.00372314453125,-0.1790229007633587,0.23630534351145038,-0.06314503816793893,-255,266,322,4304
1644153222.7117894,-1.00787353515625,0.01953125,0.00531005859375,-0.19429007633587778,0.23630534351145038,-0.09367938931297709,-250,262,320,4256
1644153222.7601626,-1.0042724609375,0.0162353515625,0.0042724609375,0.11105343511450394,0.32790839694656493,-0.017343511450381682,-243,269,317,4288
1644153222.808559,-1.00201416015625,0.0179443359375,0.00323486328125,-0.056885496183205986,0.17523664122137406,-0.12421374045801525,-258,265,330,4304
1644153222.8569443,-1.00262451171875,0.01702880859375,0.003173828125,-0.22482442748091594,0.23630534351145038,-0.12421374045801525,-256,277,328,4288
1644153222.9053476,-1.0050048828125,0.01690673828125,0.00274658203125,0.14158778625954205,0.22103816793893127,-0.0020763358778626007,-252,274,324,4256
1644153222.953716,-1.00238037109375,0.0159912109375,0.00543212890625,0.15685496183206116,0.2821068702290076,0.1811297709923664,-241,269,329,4368
1644153223.0020792,-1.0059814453125,0.017822265625,0.0037841796875,-0.10268702290076326,0.11416793893129773,-0.07841221374045801,-245,274,331,4288
1644153223.0647783,-1.00469970703125,0.01873779296875,0.00506591796875,-0.026351145038167822,0.2973740458015267,0.013190839694656495,-256,270,330,4320
1644153223.0988388,-1.0029296875,0.01995849609375,0.00604248046875,-0.1790229007633587,0.2668396946564886,-0.15474809160305342,-251,263,328,4304
1644153223.1472642,-1.00360107421875,0.01641845703125,0.00372314453125,-0.056885496183205986,0.3431755725190839,-0.0020763358778626007,-252,266,324,4256
1644153223.1956186,-1.00372314453125,0.0185546875,0.00323486328125,-0.0874198473282442,0.2515725190839695,0.08952671755725192,-241,257,313,4320
1644153223.2447698,-1.00421142578125,0.01708984375,0.00579833984375,-0.056885496183205986,0.3431755725190839,0.05899236641221374,-244,268,316,4240
1644153223.294383,-1.0040283203125,0.02020263671875,0.0076904296875,0.004183206106870341,0.15996946564885495,-0.23108396946564885,-254,270,316,4288
1644153223.3891606,-1.00299072265625,0.016845703125,0.0040283203125,-0.16375572519083959,0.2821068702290076,0.04372519083969466,-244,263,318,4288
1644153223.4374971,-1.0048828125,0.01904296875,0.0068359375,-0.026351145038167822,0.43477862595419847,0.04372519083969466,-250,271,322,4304
1644153223.4858963,-1.00323486328125,0.0198974609375,0.00494384765625,0.15685496183206116,0.23630534351145038,0.04372519083969466,-248,271,317,4320
1644153223.5343196,-1.00421142578125,0.0206298828125,0.00439453125,0.08051908396946572,0.2821068702290076,-0.23108396946564885,-255,269,327,4320
1644153223.582697,-1.0035400390625,0.01849365234375,0.0032958984375,-0.14848854961832053,0.35844274809160304,-0.032610687022900764,-252,274,322,4304
1644153223.6310842,-1.0064697265625,0.0191650390625,0.0032958984375,-0.011083969465648769,0.3126412213740458,-0.09367938931297709,-245,266,320,4304
1644153223.6794586,-1.00341796875,0.017822265625,0.00531005859375,-0.14848854961832053,0.20577099236641216,-0.10894656488549617,-251,270,323,4240
1644153223.7278569,-1.0013427734375,0.01934814453125,0.0040283203125,-0.10268702290076326,0.2515725190839695,-0.06314503816793893,-250,276,320,4304
1644153223.7762532,-1.00335693359375,0.01708984375,0.00567626953125,-0.11795419847328237,0.2973740458015267,-0.06314503816793893,-248,266,317,4352
1644153223.8247018,-1.0052490234375,0.0191650390625,0.0042724609375,0.06525190839694661,0.17523664122137406,0.07425954198473284,-252,281,315,4352
1644153223.873086,-1.0025634765625,0.01715087890625,0.00531005859375,-0.0874198473282442,0.3431755725190839,-0.10894656488549617,-244,277,321,4304
1644153223.9214334,-1.00390625,0.015625,0.0062255859375,-0.0874198473282442,0.17523664122137406,0.013190839694656495,-247,268,321,4304
1644153223.9698355,-1.00439453125,0.01287841796875,0.00146484375,-0.0721526717557251,0.20577099236641216,-0.0020763358778626007,-247,270,311,4320
1644153224.0182407,-1.00469970703125,0.01544189453125,0.003662109375,0.06525190839694661,0.15996946564885495,-0.17001526717557253,-255,262,322,4288
1644153224.08383,-1.00286865234375,0.01666259765625,0.005859375,-0.19429007633587778,0.22103816793893127,-0.18528244274809158,-257,269,320,4352
1644153224.1149375,-1.00628662109375,0.01715087890625,0.004638671875,-0.011083969465648769,0.41951145038167936,-0.047877862595419846,-249,268,325,4320
1644153224.1633177,-1.002685546875,0.0189208984375,0.00628662109375,0.019450381679389395,0.1905038167938931,-0.047877862595419846,-244,273,325,4256
1644153224.21167,-1.00128173828125,0.0167236328125,0.006103515625,-0.14848854961832053,0.2821068702290076,0.013190839694656495,-249,268,318,4304
1644153224.2600844,-1.00152587890625,0.01690673828125,0.0059814453125,-0.026351145038167822,0.20577099236641216,0.07425954198473284,-245,266,324,4320
1644153224.3084767,-1.00421142578125,0.01837158203125,0.0030517578125,-0.13322137404580142,0.11416793893129773,-0.07841221374045801,-245,269,324,4304
1644153224.356883,-1.00433349609375,0.01959228515625,0.00665283203125,0.08051908396946572,0.17523664122137406,-0.0020763358778626007,-248,264,324,4304
1644153224.4068964,-1.00433349609375,0.01751708984375,0.0035400390625,-0.011083969465648769,0.23630534351145038,0.028458015267175577,-251,268,325,4320
1644153224.5020008,-1.0050048828125,0.01910400390625,0.00445556640625,-0.0721526717557251,0.15996946564885495,-0.07841221374045801,-249,270,323,4320
1644153224.5504065,-1.00299072265625,0.01922607421875,0.00555419921875,0.14158778625954205,0.32790839694656493,0.028458015267175577,-254,270,328,4288
1644153224.5987885,-1.00390625,0.0157470703125,0.0064697265625,-0.0721526717557251,0.2668396946564886,-0.15474809160305342,-248,274,322,4352
1644153224.647156,-1.00274658203125,0.01849365234375,0.0050048828125,-0.011083969465648769,0.2515725190839695,-0.0020763358778626007,-247,270,318,4400
1644153224.6955492,-1.00689697265625,0.0179443359375,0.00738525390625,-0.0874198473282442,0.2668396946564886,0.013190839694656495,-247,263,321,4256
1644153224.7439134,-1.0057373046875,0.0166015625,0.0042724609375,-0.22482442748091594,0.20577099236641216,-0.032610687022900764,-257,271,310,4304
1644153224.7923458,-1.001220703125,0.01654052734375,0.002685546875,-0.056885496183205986,0.38897709923664125,-0.047877862595419846,-257,266,317,4368
1644153224.8407593,-1.00164794921875,0.0166015625,0.0048828125,-0.13322137404580142,0.41951145038167936,-0.06314503816793893,-252,269,320,4288
1644153224.8891456,-1.0059814453125,0.02044677734375,0.00299072265625,0.034717557251908504,0.17523664122137406,-0.047877862595419846,-250,276,317,4240
1644153224.937559,-1.006103515625,0.01812744140625,0.00469970703125,-0.026351145038167822,0.20577099236641216,0.12006106870229008,-244,263,321,4288
1644153224.9859462,-1.0029296875,0.0146484375,0.006103515625,-0.13322137404580142,0.1447022900763359,-0.09367938931297709,-244,280,321,4320
1644153225.0343046,-1.00274658203125,0.01739501953125,0.00494384765625,-0.10268702290076326,0.20577099236641216,-0.07841221374045801,-236,281,313,4240
1644153225.0848927,-1.00347900390625,0.01629638671875,0.0078125,-0.0874198473282442,0.17523664122137406,0.12006106870229008,-244,275,325,4368
1644153225.130976,-1.0048828125,0.01739501953125,0.007568359375,-0.10268702290076326,0.09890076335877862,0.013190839694656495,-245,266,324,4352
1644153225.1794124,-1.00653076171875,0.018310546875,0.00201416015625,-0.16375572519083959,0.22103816793893127,0.104793893129771,-248,266,317,4400
1644153225.2277768,-1.00592041015625,0.02166748046875,0.0042724609375,-0.13322137404580142,0.2973740458015267,-0.017343511450381682,-257,264,320,4320
1644153225.2761552,-1.00677490234375,0.0162353515625,0.0032958984375,-0.056885496183205986,0.40424427480916025,-0.2005496183206107,-255,274,327,4320
1644153225.3245442,-1.00677490234375,0.0166015625,0.00347900390625,-0.11795419847328237,0.3126412213740458,0.104793893129771,-250,283,322,4304
1644153225.3729386,-1.00445556640625,0.0169677734375,0.00469970703125,0.034717557251908504,0.12943511450381678,0.05899236641221374,-239,277,311,4320
1644153225.421303,-1.0048828125,0.0169677734375,0.004638671875,-0.0721526717557251,0.2668396946564886,0.013190839694656495,-244,270,314,4240
1644153225.4707654,-1.0059814453125,0.01910400390625,0.0028076171875,-0.22482442748091594,0.32790839694656493,-0.09367938931297709,-238,269,313,4320
1644153225.566444,-1.0086669921875,0.0164794921875,0.00341796875,-0.25535877862595413,0.1905038167938931,-0.032610687022900764,-244,263,316,4304
1644153225.614885,-1.0050048828125,0.0198974609375,0.007080078125,-0.04161832061068693,0.1905038167938931,-0.10894656488549617,-256,270,318,4304
1644153225.6632345,-1.00653076171875,0.01708984375,0.00579833984375,-0.10268702290076326,0.22103816793893127,0.12006106870229008,-242,265,311,4304
1644153225.711634,-1.00665283203125,0.01971435546875,0.0057373046875,-0.14848854961832053,0.23630534351145038,-0.15474809160305342,-256,268,323,4320
1644153225.7599673,-1.006591796875,0.018310546875,0.00323486328125,-0.10268702290076326,0.3431755725190839,0.05899236641221374,-262,269,310,4352
1644153225.8083913,-1.00341796875,0.02008056640625,0.004150390625,-0.04161832061068693,0.22103816793893127,-0.0020763358778626007,-250,281,322,4304
1644153225.8568087,-1.004150390625,0.01824951171875,0.004638671875,-0.20955725190839686,0.22103816793893127,0.028458015267175577,-247,263,314,4320
1644153225.905245,-1.00384521484375,0.0198974609375,0.0025634765625,0.019450381679389395,0.3431755725190839,0.07425954198473284,-252,269,313,4352
1644153225.9536436,-1.004638671875,0.015625,0.00347900390625,-0.0721526717557251,0.17523664122137406,0.028458015267175577,-252,262,320,4320
1644153226.0020037,-1.0032958984375,0.01849365234375,0.00714111328125,-0.011083969465648769,0.23630534351145038,-0.09367938931297709,-258,268,321,4368
1644153226.0687878,-1.00579833984375,0.020263671875,0.00360107421875,-0.10268702290076326,0.2515725190839695,-0.017343511450381682,-251,270,318,4320
1644153226.0987275,-1.00421142578125,0.017578125,0.00738525390625,-0.19429007633587778,0.2821068702290076,0.013190839694656495,-249,273,316,4304
1644153226.1471016,-1.00555419921875,0.01837158203125,0.00640869140625,0.11105343511450394,0.2515725190839695,-0.09367938931297709,-249,263,323,4288
1644153226.1954482,-1.0006103515625,0.01806640625,0.00482177734375,0.04998473282442756,0.20577099236641216,-0.032610687022900764,-254,265,316,4320
1644153226.2438743,-1.00189208984375,0.0198974609375,0.00537109375,-0.10268702290076326,0.17523664122137406,-0.032610687022900764,-258,265,316,4256
1644153226.2922766,-1.007080078125,0.01776123046875,0.0040283203125,-0.14848854961832053,0.2668396946564886,-0.017343511450381682,-241,274,324,4320
1644153226.340647,-1.0047607421875,0.017578125,0.00518798828125,0.04998473282442756,0.2515725190839695,-0.0020763358778626007,-239,263,328,4256
1644153226.3889992,-1.0052490234375,0.01715087890625,0.00457763671875,-0.04161832061068693,0.17523664122137406,-0.017343511450381682,-249,263,318,4256
1644153226.4374084,-1.00439453125,0.01763916015625,0.00341796875,-0.14848854961832053,0.2515725190839695,-0.12421374045801525,-249,255,318,4320
1644153226.485782,-1.006591796875,0.0167236328125,0.0050048828125,-0.11795419847328237,0.3126412213740458,-0.13948091603053436,-249,268,316,4256
1644153226.5341642,-1.004638671875,0.01751708984375,0.0057373046875,-0.13322137404580142,0.2668396946564886,-0.032610687022900764,-254,263,316,4288
1644153226.5827055,-1.00372314453125,0.01739501953125,0.00555419921875,-0.10268702290076326,0.2973740458015267,-0.15474809160305342,-256,263,323,4304
1644153226.633,-1.0018310546875,0.01861572265625,0.004150390625,0.004183206106870341,0.20577099236641216,0.04372519083969466,-245,262,320,4304
1644153226.7276905,-1.00567626953125,0.0189208984375,0.00616455078125,-0.1790229007633587,0.17523664122137406,-0.07841221374045801,-239,260,328,4240
1644153226.7760618,-1.00555419921875,0.0128173828125,0.00518798828125,-0.04161832061068693,0.2668396946564886,0.05899236641221374,-255,274,313,4304
1644153226.824426,-1.0052490234375,0.01910400390625,0.00421142578125,-0.0721526717557251,0.15996946564885495,-0.032610687022900764,-252,271,315,4320
1644153226.8729076,-1.007080078125,0.020263671875,0.00579833984375,0.004183206106870341,0.11416793893129773,0.08952671755725192,-256,273,309,4304
1644153226.9213338,-1.0035400390625,0.020751953125,0.0076904296875,-0.13322137404580142,0.2821068702290076,0.04372519083969466,-251,273,318,4352
1644153226.969712,-1.0047607421875,0.0172119140625,0.00457763671875,-0.026351145038167822,0.20577099236641216,-0.10894656488549617,-244,268,316,4304
1644153227.0180724,-1.0020751953125,0.01715087890625,0.0029296875,0.004183206106870341,0.2515725190839695,-0.017343511450381682,-252,266,315,4304
1644153227.0673547,-1.00360107421875,0.01641845703125,0.00372314453125,0.019450381679389395,0.20577099236641216,0.28800000000000003,-243,264,320,4320
1644153227.114847,-1.00518798828125,0.0194091796875,0.00726318359375,-0.0721526717557251,0.23630534351145038,-0.032610687022900764,-251,265,316,4288
1644153227.1631663,-1.00286865234375,0.01678466796875,0.00433349609375,0.019450381679389395,0.2668396946564886,0.05899236641221374,-247,265,321,4304
1644153227.2115266,-1.00299072265625,0.0185546875,0.0048828125,-0.10268702290076326,0.2973740458015267,0.013190839694656495,-238,271,315,4352
1644153227.259925,-1.0029296875,0.016845703125,0.00579833984375,0.019450381679389395,0.2821068702290076,0.04372519083969466,-252,271,327,4288
1644153227.3083043,-1.0025634765625,0.01702880859375,0.0068359375,-0.13322137404580142,0.20577099236641216,-0.0020763358778626007,-251,270,316,4368
1644153227.3567066,-1.0028076171875,0.0174560546875,0.00390625,-0.11795419847328237,0.1905038167938931,-0.047877862595419846,-249,268,309,4320
1644153227.4051409,-1.00567626953125,0.0166015625,0.0032958984375,-0.16375572519083959,0.2973740458015267,-0.032610687022900764,-249,275,314,4240
1644153227.453444,-1.00482177734375,0.0186767578125,0.004638671875,-0.13322137404580142,0.2515725190839695,0.1963969465648855,-245,266,315,4256
1644153227.5018516,-1.00555419921875,0.01885986328125,0.00579833984375,-0.026351145038167822,0.17523664122137406,-0.07841221374045801,-244,273,325,4320
1644153227.5507028,-1.00494384765625,0.01959228515625,0.004638671875,-0.011083969465648769,0.2515725190839695,0.013190839694656495,-244,265,323,4320
1644153227.5985692,-1.003662109375,0.01898193359375,0.00579833984375,-0.056885496183205986,0.20577099236641216,0.028458015267175577,-252,276,327,4352
1644153227.6470034,-1.00250244140625,0.019775390625,0.00372314453125,-0.20955725190839686,0.20577099236641216,-0.032610687022900764,-247,275,323,4400
1644153227.6954148,-1.0042724609375,0.01751708984375,0.00506591796875,-0.0874198473282442,0.2668396946564886,0.028458015267175577,-260,262,310,4304
1644153227.744809,-1.00482177734375,0.01531982421875,0.00311279296875,-0.16375572519083959,0.2515725190839695,-0.17001526717557253,-250,274,320,4288
1644153227.8405738,-1.00537109375,0.0172119140625,0.005126953125,-0.0874198473282442,0.23630534351145038,0.028458015267175577,-256,268,321,4320
1644153227.888948,-1.00164794921875,0.01983642578125,0.0020751953125,-0.13322137404580142,0.17523664122137406,-0.017343511450381682,-250,269,320,4288
1644153227.9373431,-1.00396728515625,0.0184326171875,0.004150390625,-0.04161832061068693,0.3126412213740458,0.07425954198473284,-249,270,318,4352
1644153227.9857607,-1.0032958984375,0.01678466796875,0.00628662109375,0.034717557251908504,0.23630534351145038,0.028458015267175577,-250,266,315,4352
1644153228.034167,-1.0020751953125,0.01788330078125,0.00653076171875,-0.056885496183205986,0.2668396946564886,-0.017343511450381682,-241,271,320,4352
1644153228.0825553,-1.00201416015625,0.018798828125,0.00567626953125,-0.22482442748091594,0.2668396946564886,-0.18528244274809158,-244,270,325,4288
1644153228.1309035,-1.0045166015625,0.0186767578125,0.00286865234375,-0.14848854961832053,0.23630534351145038,-0.06314503816793893,-263,280,321,4224
1644153228.17926,-1.00604248046875,0.0189208984375,0.0042724609375,-0.0721526717557251,0.17523664122137406,0.104793893129771,-252,274,322,4304
1644153228.2276573,-1.00384521484375,0.01806640625,0.0035400390625,-0.14848854961832053,0.2515725190839695,0.2116641221374046,-239,270,323,4240
1644153228.2760406,-1.00262451171875,0.01922607421875,0.00189208984375,-0.04161832061068693,0.12943511450381678,-0.032610687022900764,-242,273,323,4320
1644153228.324455,-1.0045166015625,0.01837158203125,0.00469970703125,-0.11795419847328237,0.32790839694656493,-0.032610687022900764,-248,269,315,4288
1644153228.3728182,-1.0050048828125,0.01953125,0.0079345703125,0.019450381679389395,0.1905038167938931,-0.047877862595419846,-252,264,324,4320
1644153228.4211924,-1.0023193359375,0.01953125,0.00238037109375,-0.10268702290076326,0.38897709923664125,-0.06314503816793893,-247,263,330,4256
1644153228.4696028,-1.0029296875,0.017333984375,0.00567626953125,-0.056885496183205986,0.23630534351145038,-0.017343511450381682,-244,282,323,4432
1644153228.518006,-1.00634765625,0.02069091796875,0.0035400390625,-0.10268702290076326,0.2973740458015267,-0.07841221374045801,-248,274,324,4304
1644153228.5664015,-1.00457763671875,0.01934814453125,0.00408935546875,-0.16375572519083959,0.11416793893129773,-0.10894656488549617,-251,268,323,4304
1644153228.6147838,-1.004638671875,0.01806640625,0.00567626953125,-0.0721526717557251,0.2668396946564886,-0.17001526717557253,-250,259,317,4304
1644153228.66312,-1.003662109375,0.017578125,0.00439453125,-0.13322137404580142,0.17523664122137406,-0.13948091603053436,-254,273,328,4352
1644153228.7114985,-1.0045166015625,0.01824951171875,0.0037841796875,-0.04161832061068693,0.20577099236641216,0.028458015267175577,-254,268,330,4304
1644153228.7598968,-1.0054931640625,0.01898193359375,0.00531005859375,-0.25535877862595413,0.22103816793893127,0.013190839694656495,-254,265,321,4240
1644153228.808294,-1.00372314453125,0.01824951171875,0.00408935546875,-0.10268702290076326,0.2515725190839695,-0.017343511450381682,-248,274,320,4320
1644153228.8582711,-1.00433349609375,0.0203857421875,0.0054931640625,-0.14848854961832053,0.15996946564885495,-0.032610687022900764,-249,263,318,4288
1644153228.9081066,-1.00457763671875,0.0191650390625,0.0001220703125,-0.0721526717557251,0.23630534351145038,-0.09367938931297709,-256,268,311,4304
1644153229.0018303,-1.00433349609375,0.01690673828125,0.00634765625,0.019450381679389395,0.22103816793893127,-0.07841221374045801,-245,269,327,4304
1644153229.0650384,-1.0047607421875,0.0174560546875,0.00567626953125,0.04998473282442756,0.17523664122137406,-0.0020763358778626007,-244,275,328,4368
1644153229.0997899,-1.00482177734375,0.017333984375,0.0045166015625,-0.13322137404580142,0.05309923664122135,0.13532824427480916,-247,268,321,4304
1644153229.1469982,-1.00506591796875,0.01806640625,0.0052490234375,-0.0874198473282442,0.15996946564885495,-0.032610687022900764,-255,262,313,4352
1644153229.1953716,-1.006103515625,0.01312255859375,0.00482177734375,-0.0874198473282442,0.2668396946564886,-0.06314503816793893,-244,268,323,4352
1644153229.243741,-1.0052490234375,0.01812744140625,0.004150390625,-0.0721526717557251,0.23630534351145038,-0.06314503816793893,-248,274,315,4368
1644153229.292195,-1.00384521484375,0.0198974609375,0.0047607421875,-0.0874198473282442,0.20577099236641216,0.04372519083969466,-261,263,316,4368
1644153229.3405116,-1.0023193359375,0.01806640625,0.00360107421875,-0.056885496183205986,0.23630534351145038,-0.10894656488549617,-255,264,324,4320
1644153229.3889368,-1.00244140625,0.01873779296875,0.00543212890625,-0.16375572519083959,0.2515725190839695,-0.12421374045801525,-244,273,323,4320
1644153229.437328,-1.00439453125,0.0181884765625,0.00506591796875,-0.13322137404580142,0.3126412213740458,-0.21581679389312974,-241,274,327,4352
1644153229.4856925,-1.00396728515625,0.01934814453125,0.00543212890625,-0.04161832061068693,0.1905038167938931,-0.047877862595419846,-248,259,324,4304
1644153229.5340838,-1.003662109375,0.016357421875,0.00494384765625,-0.04161832061068693,0.22103816793893127,-0.017343511450381682,-254,263,323,4240
1644153229.582539,-1.00384521484375,0.02056884765625,0.00469970703125,-0.0721526717557251,0.37370992366412215,0.05899236641221374,-256,263,316,4288
1644153229.6317403,-1.00128173828125,0.01763916015625,0.00360107421875,-0.056885496183205986,0.2973740458015267,0.13532824427480916,-255,262,322,4320
1644153229.6814938,-1.0067138671875,0.01629638671875,0.00299072265625,-0.14848854961832053,0.2821068702290076,-0.047877862595419846,-250,264,317,4320
1644153229.7759242,-1.003662109375,0.0162353515625,0.00445556640625,-0.056885496183205986,0.22103816793893127,-0.12421374045801525,-249,265,318,4288
1644153229.8243816,-1.0029296875,0.01519775390625,0.00433349609375,-0.0874198473282442,0.23630534351145038,-0.13948091603053436,-248,266,308,4288
1644153229.872779,-1.00323486328125,0.01739501953125,0.005615234375,-0.0874198473282442,0.20577099236641216,0.04372519083969466,-254,270,321,4352
1644153229.9211013,-1.005615234375,0.01849365234375,0.0030517578125,-0.10268702290076326,0.22103816793893127,-0.10894656488549617,-251,273,321,4240
1644153229.9694495,-1.005615234375,0.0194091796875,0.00469970703125,-0.011083969465648769,0.3126412213740458,0.013190839694656495,-247,263,316,4352
1644153230.017905,-1.00494384765625,0.01812744140625,0.00384521484375,-0.11795419847328237,0.38897709923664125,-0.0020763358778626007,-249,265,321,4304
1644153230.0686722,-1.0047607421875,0.0189208984375,0.00457763671875,0.06525190839694661,0.20577099236641216,-0.032610687022900764,-244,265,325,4288
1644153230.1148775,-1.0042724609375,0.015380859375,0.00341796875,0.09578625954198483,0.23630534351145038,0.12006106870229008,-248,276,320,4304
1644153230.163069,-1.00347900390625,0.01971435546875,0.0081787109375,-0.011083969465648769,0.37370992366412215,-0.032610687022900764,-248,269,317,4320
1644153230.211436,-1.00396728515625,0.0174560546875,0.00469970703125,-0.10268702290076326,0.38897709923664125,-0.032610687022900764,-261,260,325,4304
1644153230.2598085,-1.00689697265625,0.018310546875,0.00177001953125,0.034717557251908504,0.2821068702290076,0.04372519083969466,-252,269,308,4352
1644153230.3082006,-1.0032958984375,0.0177001953125,0.00408935546875,-0.13322137404580142,0.11416793893129773,0.013190839694656495,-248,266,313,4304
1644153230.356594,-1.00347900390625,0.017333984375,0.00628662109375,-0.10268702290076326,0.17523664122137406,-0.0020763358778626007,-248,276,329,4368
1644153230.4049275,-1.00421142578125,0.017822265625,0.0057373046875,0.004183206106870341,-0.08430534351145039,0.12006106870229008,-252,259,324,4320
1644153230.4533436,-0.99993896484375,0.01995849609375,0.00311279296875,-0.04161832061068693,0.32790839694656493,0.15059541984732824,-244,270,321,4368
1644153230.5016801,-1.003662109375,0.0203857421875,0.001953125,-0.0874198473282442,0.20577099236641216,-0.09367938931297709,-255,279,317,4352
1644153230.5501394,-1.00372314453125,0.01806640625,0.00537109375,-0.2706259541984732,0.20577099236641216,-0.0020763358778626007,-252,274,322,4256
1644153230.5984387,-1.00201416015625,0.0174560546875,0.0057373046875,-0.14848854961832053,0.1905038167938931,0.028458015267175577,-247,275,321,4320
1644153230.646875,-1.0040283203125,0.01690673828125,0.004150390625,-0.056885496183205986,0.2821068702290076,0.028458015267175577,-247,270,328,4320
1644153230.6978662,-1.0037841796875,0.01837158203125,0.00555419921875,-0.11795419847328237,0.09890076335877862,0.08952671755725192,-254,270,323,4368
1644153230.7438266,-1.00482177734375,0.01971435546875,0.0040283203125,-0.10268702290076326,0.32790839694656493,-0.032610687022900764,-243,276,322,4288
1644153230.7941089,-1.00634765625,0.01776123046875,0.00360107421875,-0.04161832061068693,0.40424427480916025,0.08952671755725192,-251,263,323,4288
1644153230.8888187,-1.00347900390625,0.01519775390625,0.003173828125,-0.0721526717557251,0.11416793893129773,0.05899236641221374,-252,269,317,4352
1644153230.9371848,-1.0037841796875,0.01837158203125,0.0047607421875,-0.16375572519083959,0.17523664122137406,-0.12421374045801525,-250,271,324,4352
1644153230.9855862,-1.0052490234375,0.01849365234375,0.00115966796875,-0.0721526717557251,0.2515725190839695,-0.17001526717557253,-249,275,309,4320
1644153231.0339446,-1.00384521484375,0.0174560546875,0.00408935546875,0.09578625954198483,0.22103816793893127,-0.06314503816793893,-243,269,322,4352
1644153231.0840127,-1.00543212890625,0.01861572265625,0.00433349609375,0.04998473282442756,0.12943511450381678,-0.06314503816793893,-249,265,325,4352
1644153231.1307292,-1.00543212890625,0.01495361328125,0.00604248046875,-0.10268702290076326,0.32790839694656493,0.07425954198473284,-256,268,318,4304
1644153231.1791165,-1.0064697265625,0.01666259765625,0.00201416015625,-0.16375572519083959,0.17523664122137406,-0.06314503816793893,-237,275,323,4304
1644153231.2275047,-1.0052490234375,0.01849365234375,0.004638671875,-0.0721526717557251,0.3126412213740458,-0.0020763358778626007,-247,273,321,4304
1644153231.2759001,-1.00360107421875,0.019775390625,0.00567626953125,-0.04161832061068693,0.17523664122137406,-0.0020763358778626007,-260,264,320,4288
1644153231.3242733,-1.00537109375,0.01898193359375,0.0062255859375,-0.10268702290076326,0.1447022900763359,-0.032610687022900764,-239,265,318,4288
1644153231.3726518,-1.00360107421875,0.02154541015625,0.00616455078125,-0.056885496183205986,0.22103816793893127,0.08952671755725192,-251,268,321,4320
1644153231.4210272,-1.00042724609375,0.01824951171875,0.0037841796875,-0.24009160305343502,0.2515725190839695,-0.07841221374045801,-254,270,325,4304
1644153231.4694183,-1.0025634765625,0.0186767578125,0.006103515625,-0.14848854961832053,0.2668396946564886,0.12006106870229008,-242,270,335,4368
1644153231.5178826,-1.0057373046875,0.01666259765625,0.00408935546875,-0.19429007633587778,0.20577099236641216,-0.13948091603053436,-250,264,327,4368
1644153231.566248,-1.00323486328125,0.02093505859375,0.00445556640625,-0.0874198473282442,0.22103816793893127,0.07425954198473284,-239,268,323,4320
1644153231.614535,-1.0054931640625,0.01605224609375,0.00469970703125,-0.19429007633587778,0.2973740458015267,-0.017343511450381682,-249,270,323,4304
1644153231.6629307,-1.00225830078125,0.01971435546875,0.00518798828125,-0.10268702290076326,0.23630534351145038,-0.032610687022900764,-244,263,318,4320
1644153231.7113109,-1.00518798828125,0.018798828125,0.00372314453125,-0.19429007633587778,0.1905038167938931,-0.2005496183206107,-255,274,322,4304
1644153231.7596781,-1.001708984375,0.01861572265625,0.0042724609375,-0.056885496183205986,0.35844274809160304,0.1811297709923664,-251,268,321,4288
1644153231.8080394,-1.0032958984375,0.01776123046875,0.00457763671875,0.14158778625954205,0.037832061068702294,-0.032610687022900764,-254,265,311,4256
1644153231.8564138,-1.00518798828125,0.01885986328125,0.00677490234375,-0.011083969465648769,0.23630534351145038,-0.09367938931297709,-241,259,327,4256
1644153231.9059322,-1.0032958984375,0.01715087890625,0.00579833984375,-0.24009160305343502,0.20577099236641216,-0.032610687022900764,-260,279,315,4304
1644153232.0016258,-1.00439453125,0.01904296875,0.0042724609375,0.12632061068702305,0.35844274809160304,-0.0020763358778626007,-251,270,314,4320
1644153232.065055,-1.00714111328125,0.0179443359375,0.0045166015625,-0.0721526717557251,0.12943511450381678,-0.032610687022900764,-247,270,323,4288
1644153232.0983675,-1.005859375,0.0194091796875,0.0052490234375,-0.13322137404580142,0.2668396946564886,-0.09367938931297709,-243,264,324,4352
1644153232.1467648,-1.00469970703125,0.0166015625,0.00555419921875,-0.011083969465648769,0.1447022900763359,0.12006106870229008,-245,279,322,4240
1644153232.195404,-1.00537109375,0.01580810546875,0.00311279296875,0.04998473282442756,0.2668396946564886,-0.032610687022900764,-251,275,321,4288
1644153232.2435663,-1.00335693359375,0.02008056640625,0.0042724609375,-0.0874198473282442,0.1905038167938931,-0.10894656488549617,-248,276,324,4256
1644153232.2919147,-1.0035400390625,0.01702880859375,0.0059814453125,-0.13322137404580142,0.3126412213740458,-0.017343511450381682,-251,270,316,4224
1644153232.3403509,-1.003662109375,0.0152587890625,0.0047607421875,0.004183206106870341,0.2668396946564886,0.04372519083969466,-247,260,323,4304
1644153232.3887534,-1.00311279296875,0.01904296875,0.00323486328125,-0.0721526717557251,0.32790839694656493,-0.0020763358778626007,-245,274,324,4288
1644153232.4371576,-1.00628662109375,0.01947021484375,0.00531005859375,0.06525190839694661,0.2821068702290076,0.04372519083969466,-249,268,318,4320
1644153232.4854898,-1.0037841796875,0.0189208984375,0.00341796875,-0.011083969465648769,0.2821068702290076,-0.047877862595419846,-256,275,321,4288
1644153232.5339081,-1.00665283203125,0.01947021484375,0.00372314453125,-0.16375572519083959,0.2515725190839695,-0.032610687022900764,-255,264,329,4368
1644153232.5823145,-1.00543212890625,0.018310546875,0.00445556640625,-0.13322137404580142,0.37370992366412215,-0.017343511450381682,-255,274,327,4352
1644153232.6306539,-1.0030517578125,0.01715087890625,0.0057373046875,-0.20955725190839686,0.1905038167938931,0.16586259541984733,-249,273,330,4256
1644153232.6796052,-1.0010986328125,0.0205078125,0.00555419921875,-0.20955725190839686,0.15996946564885495,-0.13948091603053436,-251,275,325,4368
1644153232.7276225,-1.00421142578125,0.0179443359375,0.006591796875,-0.11795419847328237,0.2973740458015267,-0.017343511450381682,-247,268,314,4288
1644153232.8241692,-1.0062255859375,0.0150146484375,0.001708984375,0.004183206106870341,0.22103816793893127,0.16586259541984733,-237,265,316,4288
1644153232.8725913,-1.0003662109375,0.0185546875,0.0064697265625,0.004183206106870341,0.2821068702290076,0.05899236641221374,-244,268,325,4304
1644153232.9209218,-1.0035400390625,0.02008056640625,0.0048828125,-0.04161832061068693,0.22103816793893127,0.028458015267175577,-257,266,317,4304
1644153232.9693282,-1.00311279296875,0.018798828125,0.00433349609375,-0.026351145038167822,0.2668396946564886,-0.017343511450381682,-260,266,315,4256
1644153233.0177093,-1.00616455078125,0.01806640625,0.00384521484375,-0.0721526717557251,0.23630534351145038,-0.07841221374045801,-250,274,317,4288
1644153233.0664208,-1.0098876953125,0.0177001953125,0.0050048828125,0.034717557251908504,0.20577099236641216,-0.09367938931297709,-254,270,318,4240
1644153233.114486,-1.0028076171875,0.0177001953125,0.00408935546875,0.06525190839694661,0.32790839694656493,-0.06314503816793893,-252,257,315,4256
1644153233.1628466,-1.002685546875,0.01849365234375,0.00616455078125,-0.04161832061068693,0.17523664122137406,-0.09367938931297709,-241,269,322,4320
1644153233.2112246,-1.0025634765625,0.0198974609375,0.0047607421875,-0.026351145038167822,0.3126412213740458,-0.12421374045801525,-248,269,315,4352
1644153233.2596102,-1.00567626953125,0.018310546875,0.004638671875,-0.28589312977099224,0.2515725190839695,0.07425954198473284,-247,273,321,4320
1644153233.3079484,-1.00408935546875,0.01702880859375,0.00653076171875,-0.0721526717557251,0.35844274809160304,0.013190839694656495,-249,268,323,4288
1644153233.3563545,-1.00201416015625,0.015380859375,0.00238037109375,-0.026351145038167822,0.2973740458015267,0.16586259541984733,-248,264,317,4240
1644153233.404764,-1.00762939453125,0.01971435546875,0.00390625,0.034717557251908504,0.32790839694656493,0.013190839694656495,-242,273,316,4320
1644153233.4531503,-1.0045166015625,0.0181884765625,0.00335693359375,-0.0721526717557251,0.20577099236641216,0.028458015267175577,-239,270,318,4320
1644153233.5015275,-1.0059814453125,0.01800537109375,0.003662109375,-0.056885496183205986,0.37370992366412215,-0.0020763358778626007,-247,268,314,4368
1644153233.54993,-1.00067138671875,0.0166015625,0.00372314453125,-0.19429007633587778,0.3431755725190839,-0.09367938931297709,-255,269,320,4304
1644153233.598299,-1.0057373046875,0.01678466796875,0.0062255859375,-0.056885496183205986,0.15996946564885495,-0.0020763358778626007,-244,270,321,4320
1644153233.6466596,-1.00634765625,0.01708984375,0.00335693359375,0.06525190839694661,0.41951145038167936,-0.07841221374045801,-261,268,316,4400
1644153233.695129,-1.00518798828125,0.0186767578125,0.00567626953125,-0.0721526717557251,0.32790839694656493,0.08952671755725192,-249,268,309,4320
1644153233.7440372,-1.00408935546875,0.01788330078125,0.0028076171875,-0.13322137404580142,0.2668396946564886,0.15059541984732824,-248,269,322,4352
1644153233.7918034,-1.0042724609375,0.01708984375,0.0050048828125,-0.16375572519083959,0.2821068702290076,0.12006106870229008,-243,269,324,4256
1644153233.8406157,-1.00274658203125,0.01904296875,0.003173828125,-0.14848854961832053,0.37370992366412215,-0.06314503816793893,-245,269,315,4352
1644153233.8925712,-1.0035400390625,0.0169677734375,0.00567626953125,0.004183206106870341,0.23630534351145038,0.05899236641221374,-266,265,316,4320
1644153233.9854178,-1.006103515625,0.017822265625,0.0028076171875,-0.13322137404580142,0.20577099236641216,0.08952671755725192,-257,264,317,4304
1644153234.033801,-1.00335693359375,0.02069091796875,0.00787353515625,0.09578625954198483,0.2515725190839695,-0.10894656488549617,-254,265,318,4288
1644153234.0822334,-1.0035400390625,0.01580810546875,0.0052490234375,-0.0874198473282442,0.38897709923664125,0.05899236641221374,-242,273,325,4352
1644153234.1305237,-1.0057373046875,0.014892578125,0.00390625,-0.0874198473282442,0.22103816793893127,-0.06314503816793893,-248,266,315,4368
1644153234.1788979,-1.00311279296875,0.01654052734375,0.005615234375,-0.056885496183205986,0.32790839694656493,-0.032610687022900764,-241,269,324,4304
1644153234.2273204,-1.004638671875,0.01959228515625,0.0052490234375,-0.0721526717557251,0.35844274809160304,-0.09367938931297709,-257,269,324,4352
1644153234.2756586,-1.0023193359375,0.0186767578125,0.00360107421875,0.04998473282442756,0.2821068702290076,0.013190839694656495,-245,269,317,4304
1644153234.3240569,-1.003173828125,0.01849365234375,0.00482177734375,-0.011083969465648769,0.2668396946564886,0.104793893129771,-248,262,313,4304
1644153234.3724613,-1.0069580078125,0.0208740234375,0.004638671875,-0.0874198473282442,0.2668396946564886,-0.09367938931297709,-252,262,320,4320
1644153234.4208195,-1.00634765625,0.0185546875,0.0040283203125,0.004183206106870341,0.17523664122137406,-0.06314503816793893,-247,270,316,4304
1644153234.4692118,-1.0057373046875,0.0177001953125,0.004638671875,-0.11795419847328237,0.22103816793893127,-0.12421374045801525,-241,262,317,4288
1644153234.5175912,-1.0052490234375,0.01715087890625,0.00323486328125,0.06525190839694661,0.3126412213740458,0.05899236641221374,-248,269,331,4320
1644153234.5660145,-1.00537109375,0.01995849609375,0.00775146484375,-0.011083969465648769,0.11416793893129773,-0.07841221374045801,-252,274,320,4288
1644153234.6144588,-1.00543212890625,0.01678466796875,0.00347900390625,-0.11795419847328237,0.2668396946564886,-0.06314503816793893,-244,273,321,4288
1644153234.6634092,-1.00494384765625,0.0177001953125,0.00732421875,-0.19429007633587778,0.1905038167938931,0.07425954198473284,-254,268,330,4304
1644153234.7111294,-1.001220703125,0.01715087890625,0.0072021484375,-0.0721526717557251,0.2668396946564886,-0.2005496183206107,-258,273,316,4304
1644153234.7595177,-1.0052490234375,0.01947021484375,0.00457763671875,-0.011083969465648769,0.12943511450381678,-0.0020763358778626007,-250,269,320,4304
1644153234.807929,-1.00469970703125,0.0191650390625,0.00543212890625,-0.1790229007633587,0.2668396946564886,0.104793893129771,-254,273,325,4304
1644153234.8564863,-1.003662109375,0.01776123046875,0.00555419921875,-0.10268702290076326,0.12943511450381678,0.028458015267175577,-251,275,316,4320
1644153234.9047377,-1.00567626953125,0.01812744140625,0.00457763671875,-0.04161832061068693,0.20577099236641216,-0.0020763358778626007,-255,274,315,4256
1644153234.953113,-1.0047607421875,0.016845703125,0.00360107421875,-0.24009160305343502,0.17523664122137406,0.08952671755725192,-248,266,313,4256
1644153235.0649974,-1.00323486328125,0.0152587890625,0.00335693359375,0.004183206106870341,0.2821068702290076,0.028458015267175577,-250,269,324,4352
1644153235.098237,-1.00518798828125,0.016845703125,0.00799560546875,-0.10268702290076326,0.3126412213740458,-0.13948091603053436,-244,270,325,4320
1644153235.146644,-1.00537109375,0.01824951171875,0.00250244140625,0.004183206106870341,0.1905038167938931,0.028458015267175577,-256,268,328,4320
1644153235.1950376,-1.0076904296875,0.0201416015625,0.005126953125,-0.04161832061068693,0.3126412213740458,-0.032610687022900764,-249,260,321,4304
1644153235.2433949,-1.00567626953125,0.0189208984375,0.00439453125,0.019450381679389395,0.23630534351145038,0.12006106870229008,-255,274,324,4304
1644153235.2953022,-1.0045166015625,0.018798828125,0.0030517578125,0.004183206106870341,0.11416793893129773,-0.13948091603053436,-252,271,324,4288
1644153235.3402433,-1.0062255859375,0.01953125,0.0054931640625,-0.0874198473282442,0.12943511450381678,-0.032610687022900764,-249,265,321,4288
1644153235.38852,-1.00115966796875,0.0181884765625,0.00537109375,0.11105343511450394,0.2515725190839695,-0.0020763358778626007,-247,282,321,4304
1644153235.4368963,-1.0057373046875,0.01629638671875,0.00531005859375,-0.16375572519083959,0.37370992366412215,-0.047877862595419846,-267,279,313,4288
1644153235.4853094,-1.0048828125,0.014404296875,0.00506591796875,-0.0721526717557251,0.2973740458015267,-0.017343511450381682,-254,270,323,4288
1644153235.5336738,-1.0032958984375,0.0177001953125,0.0009765625,-0.13322137404580142,0.22103816793893127,-0.047877862595419846,-248,279,320,4320
1644153235.582058,-1.0068359375,0.0186767578125,0.00677490234375,0.034717557251908504,0.17523664122137406,0.04372519083969466,-252,271,320,4288
1644153235.6304214,-1.003662109375,0.01971435546875,0.00372314453125,0.12632061068702305,0.3126412213740458,-0.17001526717557253,-252,264,315,4320
1644153235.6788437,-1.00396728515625,0.01715087890625,0.00604248046875,-0.14848854961832053,0.1447022900763359,-0.10894656488549617,-238,274,320,4256
1644153235.729138,-1.0045166015625,0.01898193359375,0.00469970703125,-0.30116030534351135,0.2821068702290076,-0.12421374045801525,-244,265,321,4320
1644153235.8240025,-1.004150390625,0.01934814453125,0.00244140625,-0.0721526717557251,0.20577099236641216,0.04372519083969466,-242,263,316,4256
1644153235.872472,-1.0079345703125,0.01904296875,0.00567626953125,-0.026351145038167822,0.23630534351145038,0.04372519083969466,-239,265,318,4320
1644153235.9207551,-1.0029296875,0.0166015625,0.004638671875,-0.04161832061068693,0.23630534351145038,0.08952671755725192,-256,268,321,4304
1644153235.9691608,-1.00689697265625,0.01861572265625,0.00634765625,-0.13322137404580142,0.1905038167938931,-0.12421374045801525,-256,263,325,4368
1644153236.017542,-1.004150390625,0.01824951171875,0.005615234375,-0.1790229007633587,0.23630534351145038,0.12006106870229008,-252,264,331,4304
1644153236.0716312,-1.00244140625,0.01849365234375,0.00689697265625,0.12632061068702305,0.1447022900763359,-0.017343511450381682,-249,273,328,4240
1644153236.1143208,-1.00238037109375,0.01873779296875,0.0052490234375,0.004183206106870341,0.2668396946564886,-0.017343511450381682,-248,266,322,4320
1644153236.162736,-1.00439453125,0.01800537109375,0.00421142578125,-0.0721526717557251,0.2973740458015267,0.013190839694656495,-239,273,314,4320
1644153236.2111223,-1.00555419921875,0.015869140625,0.0052490234375,-0.13322137404580142,0.2515725190839695,0.028458015267175577,-250,257,320,4288
1644153236.2594717,-1.00408935546875,0.01611328125,0.00286865234375,-0.04161832061068693,0.22103816793893127,-0.017343511450381682,-252,274,317,4240
1644153236.3078868,-1.0057373046875,0.0201416015625,0.0018310546875,-0.056885496183205986,0.09890076335877862,-0.12421374045801525,-248,271,320,4304
1644153236.3562942,-1.00311279296875,0.0191650390625,0.001708984375,-0.011083969465648769,0.2973740458015267,0.013190839694656495,-249,270,318,4304
1644153236.4046574,-1.0018310546875,0.01715087890625,0.0050048828125,0.09578625954198483,0.2821068702290076,-0.047877862595419846,-248,257,327,4304
1644153236.4530718,-1.003662109375,0.017578125,0.0047607421875,0.06525190839694661,0.20577099236641216,0.05899236641221374,-256,268,318,4320
1644153236.501366,-1.005859375,0.01788330078125,0.00518798828125,-0.13322137404580142,0.2515725190839695,0.07425954198473284,-247,273,316,4240
1644153236.5498893,-1.0040283203125,0.01556396484375,0.00701904296875,-0.19429007633587778,0.23630534351145038,0.04372519083969466,-252,274,327,4368
1644153236.5981827,-1.00732421875,0.017578125,0.00347900390625,-0.19429007633587778,0.2668396946564886,-0.06314503816793893,-245,266,322,4320
1644153236.646581,-1.00274658203125,0.01947021484375,0.00616455078125,-0.20955725190839686,0.22103816793893127,0.028458015267175577,-248,276,317,4288
1644153236.6949353,-1.00360107421875,0.01776123046875,0.00421142578125,-0.011083969465648769,0.35844274809160304,0.028458015267175577,-257,271,329,4352
1644153236.7433367,-1.00482177734375,0.0191650390625,0.00506591796875,-0.0721526717557251,0.20577099236641216,-0.12421374045801525,-254,268,318,4304
1644153236.792471,-1.00396728515625,0.01666259765625,0.0057373046875,-0.22482442748091594,0.2515725190839695,0.12006106870229008,-249,260,314,4256
1644153236.8424742,-1.00665283203125,0.01971435546875,0.0030517578125,0.034717557251908504,0.12943511450381678,-0.047877862595419846,-239,273,323,4304
1644153236.936873,-1.00469970703125,0.01947021484375,0.007080078125,-0.16375572519083959,0.22103816793893127,-0.0020763358778626007,-245,271,320,4320
1644153236.985275,-1.005615234375,0.01947021484375,0.0057373046875,0.019450381679389395,0.2668396946564886,-0.032610687022900764,-247,265,328,4368
1644153237.0336597,-1.00628662109375,0.015869140625,0.00390625,-0.10268702290076326,0.22103816793893127,-0.047877862595419846,-249,275,316,4352
1644153237.084132,-1.00640869140625,0.01751708984375,0.0054931640625,0.019450381679389395,0.22103816793893127,0.04372519083969466,-247,273,314,4320
1644153237.130362,-1.00299072265625,0.01873779296875,0.00482177734375,-0.056885496183205986,0.2821068702290076,0.05899236641221374,-257,281,315,4304
1644153237.1787646,-1.00543212890625,0.0185546875,0.00579833984375,-0.056885496183205986,0.15996946564885495,-0.0020763358778626007,-249,265,309,4352
1644153237.227162,-1.0030517578125,0.02001953125,0.0067138671875,-0.10268702290076326,0.23630534351145038,-0.032610687022900764,-244,260,318,4304
1644153237.275512,-1.00469970703125,0.01739501953125,0.00225830078125,-0.04161832061068693,0.32790839694656493,0.07425954198473284,-248,266,320,4320
1644153237.3238826,-1.00225830078125,0.01806640625,0.0042724609375,0.14158778625954205,0.3431755725190839,0.22693129770992365,-250,271,324,4320
1644153237.3722997,-1.003662109375,0.019287109375,0.004150390625,-0.026351145038167822,0.2515725190839695,0.22693129770992365,-245,271,320,4304
1644153237.420694,-1.00372314453125,0.0185546875,0.0068359375,-0.11795419847328237,0.09890076335877862,0.05899236641221374,-252,266,315,4304
1644153237.4690604,-1.00531005859375,0.01666259765625,0.00439453125,-0.14848854961832053,0.12943511450381678,-0.032610687022900764,-241,266,322,4256
1644153237.5174158,-1.00604248046875,0.0164794921875,0.00482177734375,-0.22482442748091594,0.20577099236641216,0.05899236641221374,-254,275,321,4352
1644153237.5658329,-1.0057373046875,0.0181884765625,0.0064697265625,-0.14848854961832053,0.2973740458015267,-0.07841221374045801,-254,275,314,4304
1644153237.6142054,-1.00421142578125,0.01556396484375,0.0062255859375,-0.056885496183205986,0.12943511450381678,0.07425954198473284,-248,269,317,4352
1644153237.6626196,-1.00244140625,0.01507568359375,0.004638671875,-0.04161832061068693,0.2668396946564886,-0.06314503816793893,-243,271,324,4368
1644153237.710998,-1.0030517578125,0.02117919921875,0.00299072265625,-0.11795419847328237,0.37370992366412215,-0.017343511450381682,-244,277,316,4320
1644153237.7593582,-1.004150390625,0.0184326171875,0.0042724609375,-0.14848854961832053,0.2668396946564886,-0.06314503816793893,-257,269,324,4352
1644153237.8078096,-1.0048828125,0.01983642578125,0.00482177734375,-0.026351145038167822,0.32790839694656493,0.028458015267175577,-255,276,322,4320
1644153237.856233,-1.006591796875,0.0174560546875,0.0048828125,-0.0874198473282442,0.15996946564885495,-0.13948091603053436,-255,274,322,4304
1644153237.9045732,-1.00408935546875,0.0186767578125,0.00201416015625,-0.11795419847328237,0.32790839694656493,-0.0020763358778626007,-241,262,331,4320
1644153237.9537365,-1.00274658203125,0.01885986328125,0.00445556640625,-0.13322137404580142,0.1905038167938931,-0.017343511450381682,-254,270,321,4320
1644153238.063433,-1.00360107421875,0.01904296875,0.006103515625,-0.0721526717557251,0.2515725190839695,-0.12421374045801525,-244,258,323,4304
1644153238.0981383,-1.00433349609375,0.0174560546875,0.00537109375,0.004183206106870341,0.35844274809160304,0.04372519083969466,-242,270,323,4368
1644153238.1464508,-1.0072021484375,0.01617431640625,0.003662109375,-0.026351145038167822,0.11416793893129773,-0.07841221374045801,-252,274,322,4320
1644153238.19485,-1.00579833984375,0.01776123046875,0.00750732421875,0.019450381679389395,0.2668396946564886,0.08952671755725192,-248,276,317,4400
1644153238.2445714,-1.00445556640625,0.02105712890625,0.0057373046875,-0.31642748091603046,0.08363358778625957,0.04372519083969466,-249,268,314,4320
1644153238.2915668,-1.00537109375,0.01873779296875,0.00433349609375,-0.1790229007633587,0.15996946564885495,0.013190839694656495,-248,266,320,4288
1644153238.339988,-1.00567626953125,0.02020263671875,0.006591796875,-0.1790229007633587,0.2515725190839695,-0.09367938931297709,-254,268,318,4368
1644153238.3883953,-1.005615234375,0.01904296875,0.00360107421875,0.04998473282442756,0.2515725190839695,-0.032610687022900764,-251,265,318,4320
1644153238.4367526,-1.0040283203125,0.01641845703125,0.00262451171875,-0.16375572519083959,0.2668396946564886,-0.07841221374045801,-249,277,323,4320
1644153238.4851682,-1.00408935546875,0.017578125,0.005615234375,-0.11795419847328237,0.11416793893129773,-0.07841221374045801,-244,268,321,4368
1644153238.5335252,-1.00482177734375,0.01995849609375,0.003173828125,-0.056885496183205986,0.35844274809160304,-0.032610687022900764,-248,266,324,4304
1644153238.5818968,-1.0029296875,0.01885986328125,0.003662109375,-0.0721526717557251,0.2515725190839695,0.05899236641221374,-248,274,324,4288
1644153238.630284,-1.00274658203125,0.02020263671875,0.00390625,0.034717557251908504,0.43477862595419847,0.04372519083969466,-249,270,325,4288
1644153238.6786451,-1.00738525390625,0.0162353515625,0.003662109375,-0.056885496183205986,0.23630534351145038,-0.10894656488549617,-244,268,325,4304
1644153238.7272787,-1.00689697265625,0.01971435546875,0.0050048828125,-0.20955725190839686,0.2973740458015267,0.07425954198473284,-252,262,317,4304
1644153238.7775009,-1.00146484375,0.0184326171875,0.00732421875,0.004183206106870341,0.09890076335877862,0.013190839694656495,-257,264,320,4320
1644153238.8722587,-1.00347900390625,0.01934814453125,0.0048828125,-0.13322137404580142,0.3126412213740458,0.013190839694656495,-248,266,324,4368
1644153238.9206128,-1.00531005859375,0.01544189453125,0.004150390625,-0.0721526717557251,0.32790839694656493,0.04372519083969466,-250,262,322,4352
1644153238.968995,-1.00506591796875,0.016845703125,0.005126953125,-0.19429007633587778,0.23630534351145038,-0.09367938931297709,-244,265,316,4288
1644153239.0173764,-1.00634765625,0.0184326171875,0.00433349609375,-0.1790229007633587,0.2668396946564886,-0.13948091603053436,-244,258,325,4368
1644153239.0669217,-1.00567626953125,0.01910400390625,0.0020751953125,-0.16375572519083959,0.22103816793893127,-0.032610687022900764,-247,263,323,4304
1644153239.114176,-1.00274658203125,0.01751708984375,0.0069580078125,-0.04161832061068693,0.38897709923664125,-0.06314503816793893,-248,269,320,4352
1644153239.1625264,-1.0079345703125,0.0172119140625,0.00555419921875,-0.16375572519083959,0.09890076335877862,-0.0020763358778626007,-250,269,324,4320
1644153239.2108786,-1.00274658203125,0.0181884765625,0.00140380859375,0.034717557251908504,0.32790839694656493,0.028458015267175577,-248,266,320,4352
1644153239.259289,-1.0040283203125,0.01556396484375,0.0059814453125,-0.11795419847328237,0.2668396946564886,-0.0020763358778626007,-247,263,323,4288
1644153239.3076692,-1.00244140625,0.015869140625,0.0054931640625,-0.16375572519083959,0.09890076335877862,-0.09367938931297709,-251,270,316,4320
1644153239.3560586,-1.00164794921875,0.0185546875,0.005126953125,-0.04161832061068693,0.40424427480916025,0.15059541984732824,-249,273,316,4368
1644153239.40446,-1.0037841796875,0.01678466796875,0.0045166015625,0.034717557251908504,0.2668396946564886,-0.2005496183206107,-239,268,328,4368
1644153239.4528344,-1.00469970703125,0.0205078125,0.003662109375,-0.0721526717557251,0.2821068702290076,-0.06314503816793893,-263,260,321,4368
1644153239.5012126,-1.0042724609375,0.01953125,0.0037841796875,-0.16375572519083959,0.3126412213740458,0.08952671755725192,-250,271,317,4368
1644153239.5496988,-1.0067138671875,0.01849365234375,0.00482177734375,-0.011083969465648769,0.11416793893129773,-0.017343511450381682,-242,268,325,4320
1644153239.5979643,-1.00579833984375,0.01837158203125,0.0042724609375,-0.0874198473282442,0.1447022900763359,-0.09367938931297709,-252,271,324,4304
1644153239.6463497,-1.001708984375,0.015380859375,0.00390625,-0.14848854961832053,0.17523664122137406,-0.07841221374045801,-256,268,325,4352
1644153239.6947489,-1.00372314453125,0.019287109375,0.00469970703125,-0.056885496183205986,0.40424427480916025,0.028458015267175577,-247,270,325,4352
1644153239.743153,-1.00537109375,0.019287109375,0.00531005859375,0.034717557251908504,0.23630534351145038,-0.06314503816793893,-252,276,315,4304
1644153239.7924826,-1.0035400390625,0.01873779296875,0.0069580078125,-0.04161832061068693,0.20577099236641216,-0.261618320610687,-250,262,329,4320
1644153239.8402438,-1.0047607421875,0.019775390625,0.00494384765625,-0.16375572519083959,0.22103816793893127,-0.032610687022900764,-245,266,324,4368
1644153239.8898659,-1.00225830078125,0.02032470703125,0.00665283203125,-0.10268702290076326,0.1905038167938931,-0.06314503816793893,-247,260,328,4304
1644153239.9852488,-1.00579833984375,0.0172119140625,0.0023193359375,-0.10268702290076326,0.3126412213740458,0.07425954198473284,-251,263,325,4320
1644153240.0334792,-1.00469970703125,0.01641845703125,0.00469970703125,-0.011083969465648769,0.17523664122137406,-0.06314503816793893,-243,269,327,4320
1644153240.0826802,-1.00335693359375,0.01702880859375,0.004638671875,0.019450381679389395,0.2515725190839695,-0.0020763358778626007,-254,268,318,4304
1644153240.1302187,-1.006591796875,0.01702880859375,0.00543212890625,-0.20955725190839686,0.1905038167938931,0.028458015267175577,-241,274,322,4240
1644153240.1785831,-1.00457763671875,0.01678466796875,0.00250244140625,0.09578625954198483,0.22103816793893127,-0.09367938931297709,-251,270,321,4320
1644153240.2269955,-1.00543212890625,0.0172119140625,0.00775146484375,-0.0721526717557251,0.17523664122137406,0.05899236641221374,-250,269,320,4320
1644153240.2753267,-1.001953125,0.0208740234375,0.00469970703125,-0.056885496183205986,0.38897709923664125,0.08952671755725192,-248,259,324,4304
1644153240.323742,-1.0047607421875,0.01739501953125,0.00628662109375,-0.10268702290076326,0.2973740458015267,0.028458015267175577,-241,259,322,4288
1644153240.3721623,-1.00537109375,0.01885986328125,0.006103515625,-0.11795419847328237,0.20577099236641216,0.013190839694656495,-248,281,324,4320
1644153240.4205387,-1.00335693359375,0.017578125,0.00531005859375,-0.0874198473282442,0.22103816793893127,-0.07841221374045801,-257,264,320,4320
1644153240.4688718,-1.002685546875,0.0185546875,0.00653076171875,-0.11795419847328237,0.15996946564885495,0.04372519083969466,-248,262,324,4288
1644153240.5172973,-1.00250244140625,0.01611328125,0.00439453125,-0.0874198473282442,0.23630534351145038,-0.06314503816793893,-250,274,320,4352
1644153240.5656905,-1.0032958984375,0.0184326171875,0.00396728515625,0.04998473282442756,0.17523664122137406,-0.10894656488549617,-247,273,325,4368
1644153240.614085,-1.005859375,0.0166015625,0.00445556640625,-0.0874198473282442,0.2668396946564886,-0.017343511450381682,-242,260,325,4256
1644153240.66246,-1.005859375,0.01446533203125,0.00445556640625,0.019450381679389395,0.23630534351145038,0.013190839694656495,-250,274,320,4224
1644153240.7108066,-1.005126953125,0.01727294921875,0.00225830078125,0.034717557251908504,0.3126412213740458,-0.09367938931297709,-242,273,321,4304
1644153240.7592187,-1.00372314453125,0.0191650390625,0.00384521484375,0.09578625954198483,0.2515725190839695,-0.07841221374045801,-254,270,314,4320
1644153240.8076012,-1.0040283203125,0.02154541015625,0.003173828125,-0.25535877862595413,0.23630534351145038,-0.07841221374045801,-243,262,327,4320
1644153240.8562274,-1.00579833984375,0.01531982421875,0.0057373046875,-0.0721526717557251,0.1905038167938931,-0.2005496183206107,-243,269,327,4288
1644153240.9044228,-1.00244140625,0.01519775390625,0.0037841796875,-0.011083969465648769,0.2515725190839695,0.013190839694656495,-260,274,320,4368
1644153240.955445,-1.001953125,0.0185546875,0.003173828125,-0.011083969465648769,0.2515725190839695,-0.0020763358778626007,-251,263,321,4320
1644153241.0658255,-1.0076904296875,0.01898193359375,0.00634765625,-0.1790229007633587,0.06836641221374046,0.05899236641221374,-243,264,322,4320
1644153241.097955,-1.00537109375,0.01788330078125,0.00482177734375,-0.11795419847328237,0.2515725190839695,0.04372519083969466,-258,265,330,4304
1644153241.1462963,-1.0057373046875,0.0186767578125,0.0067138671875,-0.04161832061068693,0.15996946564885495,-0.0020763358778626007,-252,266,327,4304
1644153241.1946836,-1.00091552734375,0.0181884765625,0.00457763671875,-0.04161832061068693,0.2668396946564886,0.04372519083969466,-255,276,322,4304
1644153241.2430649,-1.005126953125,0.01727294921875,0.007568359375,-0.10268702290076326,0.2668396946564886,-0.032610687022900764,-248,276,320,4320
1644153241.2914343,-1.004638671875,0.0198974609375,0.0047607421875,-0.16375572519083959,0.09890076335877862,0.07425954198473284,-245,271,320,4320
1644153241.3398275,-1.007568359375,0.01861572265625,0.00579833984375,-0.13322137404580142,0.2973740458015267,-0.032610687022900764,-248,269,322,4288
1644153241.3882167,-1.00262451171875,0.0184326171875,0.00390625,-0.14848854961832053,0.2973740458015267,0.104793893129771,-252,271,329,4320
1644153241.4366152,-1.00390625,0.01776123046875,0.00341796875,-0.1790229007633587,0.20577099236641216,-0.12421374045801525,-247,265,318,4320
1644153241.4852517,-1.00579833984375,0.0191650390625,0.00341796875,-0.11795419847328237,0.1905038167938931,-0.17001526717557253,-245,269,327,4288
1644153241.533362,-1.00494384765625,0.01739501953125,0.00579833984375,0.08051908396946572,0.05309923664122135,-0.07841221374045801,-254,270,314,4288
1644153241.5817401,-1.0054931640625,0.0196533203125,0.00384521484375,-0.16375572519083959,0.2973740458015267,0.028458015267175577,-252,271,324,4320
1644153241.6301074,-1.00421142578125,0.01702880859375,0.00518798828125,-0.0721526717557251,0.2515725190839695,-0.10894656488549617,-241,276,322,4352
1644153241.6792428,-1.003173828125,0.01593017578125,0.006591796875,-0.026351145038167822,0.22103816793893127,0.07425954198473284,-256,268,325,4288
1644153241.726903,-1.00531005859375,0.0196533203125,0.003662109375,-0.10268702290076326,0.05309923664122135,-0.06314503816793893,-244,273,321,4352
1644153241.8236918,-1.00616455078125,0.01763916015625,0.00592041015625,-0.04161832061068693,0.2668396946564886,-0.032610687022900764,-238,269,322,4368
1644153241.872054,-1.001953125,0.0177001953125,0.0052490234375,-0.14848854961832053,0.20577099236641216,0.04372519083969466,-260,279,324,4240
1644153241.9205034,-1.00347900390625,0.0194091796875,0.0059814453125,-0.056885496183205986,0.2973740458015267,-0.12421374045801525,-248,271,320,4288
1644153241.9688575,-1.003173828125,0.017578125,0.0025634765625,-0.026351145038167822,0.3431755725190839,-0.2005496183206107,-255,274,324,4320
1644153242.017248,-1.0057373046875,0.01727294921875,0.0052490234375,-0.056885496183205986,0.17523664122137406,-0.06314503816793893,-245,262,327,4304
1644153242.0666723,-1.00347900390625,0.0174560546875,0.00225830078125,-0.10268702290076326,0.22103816793893127,-0.09367938931297709,-244,265,328,4288
1644153242.1140695,-1.00250244140625,0.0198974609375,0.00433349609375,0.019450381679389395,0.23630534351145038,0.05899236641221374,-252,269,324,4368
1644153242.162382,-1.00592041015625,0.01751708984375,0.00341796875,0.12632061068702305,0.23630534351145038,-0.047877862595419846,-248,264,320,4304
1644153242.2107973,-1.00445556640625,0.017822265625,0.00311279296875,0.034717557251908504,0.12943511450381678,-0.017343511450381682,-252,279,315,4256
1644153242.2591674,-1.00286865234375,0.01824951171875,0.0048828125,-0.026351145038167822,0.20577099236641216,-0.0020763358778626007,-242,270,314,4320
1644153242.3075757,-1.002685546875,0.01873779296875,0.005859375,-0.10268702290076326,0.1905038167938931,0.028458015267175577,-247,268,323,4256
1644153242.3559182,-1.00634765625,0.0181884765625,0.00457763671875,-0.16375572519083959,0.22103816793893127,-0.017343511450381682,-245,266,334,4304
1644153242.4043055,-1.0025634765625,0.01666259765625,0.0078125,0.004183206106870341,0.2821068702290076,-0.0020763358778626007,-247,268,318,4368
1644153242.45273,-1.00537109375,0.018310546875,0.00213623046875,0.08051908396946572,0.2515725190839695,0.04372519083969466,-250,274,327,4304
1644153242.501111,-1.0037841796875,0.0157470703125,0.0069580078125,-0.1790229007633587,0.12943511450381678,-0.0020763358778626007,-251,265,325,4320
1644153242.5495024,-1.0048828125,0.0191650390625,0.0079345703125,-0.011083969465648769,0.2668396946564886,0.028458015267175577,-247,268,330,4352
1644153242.5978746,-1.0048828125,0.017822265625,0.00616455078125,-0.011083969465648769,0.2668396946564886,0.04372519083969466,-257,262,327,4288
1644153242.6463232,-1.0047607421875,0.01507568359375,0.00714111328125,-0.20955725190839686,0.2515725190839695,-0.032610687022900764,-255,271,324,4320
1644153242.6947515,-1.0045166015625,0.01806640625,0.00445556640625,-0.0721526717557251,0.3126412213740458,-0.06314503816793893,-251,260,325,4320
1644153242.7429779,-1.00518798828125,0.01708984375,0.003173828125,-0.1790229007633587,0.2515725190839695,-0.18528244274809158,-239,270,323,4288
1644153242.7913148,-1.0040283203125,0.0167236328125,0.00372314453125,-0.04161832061068693,0.022564885496183185,-0.10894656488549617,-252,269,317,4288
1644153242.8401923,-1.00347900390625,0.01715087890625,0.0045166015625,-0.056885496183205986,0.23630534351145038,0.16586259541984733,-251,273,318,4304
1644153242.8904796,-1.00408935546875,0.01739501953125,0.0048828125,0.004183206106870341,0.20577099236641216,-0.032610687022900764,-255,279,320,4288
1644153242.9849014,-1.00537109375,0.01611328125,0.00250244140625,-0.0721526717557251,0.3126412213740458,0.013190839694656495,-250,259,315,4256
1644153243.0332878,-1.0059814453125,0.017578125,0.0040283203125,-0.16375572519083959,0.2515725190839695,-0.047877862595419846,-248,269,315,4288
1644153243.081728,-1.0029296875,0.01434326171875,0.00445556640625,-0.04161832061068693,0.22103816793893127,0.07425954198473284,-241,274,317,4288
1644153243.1302443,-1.0023193359375,0.016845703125,0.006591796875,-0.24009160305343502,0.17523664122137406,0.08952671755725192,-249,268,325,4368
1644153243.1783926,-1.00616455078125,0.01953125,0.0059814453125,-0.11795419847328237,0.2668396946564886,-0.07841221374045801,-250,266,329,4352
1644153243.2268097,-1.0067138671875,0.0159912109375,0.00531005859375,-0.10268702290076326,0.1447022900763359,-0.10894656488549617,-261,275,328,4320
1644153243.275202,-1.004150390625,0.01934814453125,0.00653076171875,-0.11795419847328237,0.12943511450381678,-0.032610687022900764,-250,264,324,4304
1644153243.3235846,-1.004638671875,0.0167236328125,0.003662109375,-0.10268702290076326,0.2668396946564886,-0.10894656488549617,-251,273,321,4304
1644153243.3719919,-1.00567626953125,0.0172119140625,0.00634765625,-0.2706259541984732,0.2515725190839695,-0.017343511450381682,-255,271,317,4352
1644153243.420395,-1.00567626953125,0.0185546875,0.002685546875,-0.10268702290076326,0.3126412213740458,-0.06314503816793893,-254,260,321,4304
1644153243.4688015,-1.00421142578125,0.01806640625,0.00445556640625,0.019450381679389395,0.17523664122137406,0.05899236641221374,-247,260,323,4288
1644153243.5171838,-1.0032958984375,0.01641845703125,0.0042724609375,-0.13322137404580142,0.17523664122137406,0.08952671755725192,-257,262,313,4320
1644153243.5656471,-1.00543212890625,0.01849365234375,0.00494384765625,-0.056885496183205986,0.3431755725190839,0.04372519083969466,-248,271,327,4352
1644153243.6139505,-1.0040283203125,0.0169677734375,0.00640869140625,-0.13322137404580142,0.20577099236641216,0.07425954198473284,-247,270,321,4304
1644153243.6623297,-1.0069580078125,0.0174560546875,0.00506591796875,-0.13322137404580142,0.2668396946564886,-0.017343511450381682,-244,275,318,4304
1644153243.7107031,-1.002685546875,0.01824951171875,0.00421142578125,0.019450381679389395,0.15996946564885495,0.013190839694656495,-250,259,317,4256
1644153243.7590754,-1.00726318359375,0.0179443359375,0.00518798828125,-0.0874198473282442,0.05309923664122135,0.07425954198473284,-254,268,316,4368
1644153243.8074317,-1.00421142578125,0.01971435546875,0.00213623046875,-0.20955725190839686,0.2668396946564886,0.013190839694656495,-243,274,315,4288
1644153243.8558688,-1.00299072265625,0.017578125,0.005859375,-0.056885496183205986,0.4653129770992367,-0.017343511450381682,-254,265,321,4256
1644153243.9042504,-1.00384521484375,0.0194091796875,0.00360107421875,-0.13322137404580142,0.2973740458015267,0.04372519083969466,-245,276,329,4352
1644153243.9526756,-1.00335693359375,0.01702880859375,0.00506591796875,-0.13322137404580142,0.12943511450381678,0.12006106870229008,-244,268,328,4320
1644153244.002353,-1.00384521484375,0.0181884765625,0.00213623046875,0.004183206106870341,0.2668396946564886,0.12006106870229008,-257,262,317,4320
1644153244.070252,-1.00323486328125,0.01837158203125,0.00396728515625,0.019450381679389395,0.2821068702290076,0.15059541984732824,-244,260,325,4304
1644153244.146118,-1.0010986328125,0.0181884765625,0.00238037109375,0.04998473282442756,0.4653129770992367,-0.07841221374045801,-243,271,324,4320
1644153244.1944952,-1.0048828125,0.01904296875,0.00469970703125,-0.056885496183205986,0.12943511450381678,0.12006106870229008,-248,269,320,4352
1644153244.2428584,-1.00604248046875,0.01934814453125,0.005126953125,-0.11795419847328237,0.37370992366412215,-0.017343511450381682,-256,268,323,4304
1644153244.2912548,-1.00531005859375,0.019287109375,0.0045166015625,-0.19429007633587778,0.17523664122137406,0.07425954198473284,-245,262,317,4304
1644153244.339681,-1.0028076171875,0.0191650390625,0.0052490234375,-0.11795419847328237,0.22103816793893127,0.05899236641221374,-256,268,325,4320
1644153244.3880546,-1.00653076171875,0.017333984375,0.00494384765625,-0.026351145038167822,0.08363358778625957,-0.0020763358778626007,-254,277,311,4304
1644153244.4364488,-1.0025634765625,0.01806640625,0.00262451171875,-0.0874198473282442,0.2668396946564886,-0.0020763358778626007,-242,273,328,4304
1644153244.484812,-1.004150390625,0.01953125,0.00555419921875,-0.0721526717557251,0.17523664122137406,-0.09367938931297709,-245,266,317,4320
1644153244.5332325,-1.00390625,0.0177001953125,0.0045166015625,-0.011083969465648769,0.3431755725190839,-0.017343511450381682,-250,276,317,4240
1644153244.5816088,-1.0050048828125,0.01788330078125,0.00634765625,-0.24009160305343502,0.2515725190839695,-0.2005496183206107,-250,266,315,4288
1644153244.629966,-1.00360107421875,0.0198974609375,0.0037841796875,0.019450381679389395,0.20577099236641216,0.04372519083969466,-245,266,324,4304
1644153244.6783223,-1.00323486328125,0.02020263671875,0.005615234375,-0.026351145038167822,0.3126412213740458,0.07425954198473284,-250,266,322,4304
1644153244.7267306,-1.0032958984375,0.02142333984375,0.00604248046875,0.004183206106870341,0.2821068702290076,0.12006106870229008,-247,285,323,4304
1644153244.775174,-1.00543212890625,0.01837158203125,0.0057373046875,-0.056885496183205986,0.35844274809160304,-0.017343511450381682,-251,270,321,4240
1644153244.8235912,-1.00494384765625,0.01947021484375,0.00506591796875,-0.04161832061068693,0.2821068702290076,0.013190839694656495,-248,266,313,4304
1644153244.8719585,-1.0030517578125,0.0164794921875,0.0067138671875,-0.0721526717557251,0.23630534351145038,0.013190839694656495,-247,280,321,4304
1644153244.920299,-1.0045166015625,0.017578125,0.0050048828125,-0.011083969465648769,0.11416793893129773,-0.12421374045801525,-254,275,325,4240
1644153244.9687142,-1.00592041015625,0.0203857421875,0.0040283203125,-0.011083969465648769,0.3126412213740458,-0.06314503816793893,-252,274,327,4320
1644153245.0170984,-1.003173828125,0.01702880859375,0.00445556640625,-0.13322137404580142,0.17523664122137406,0.04372519083969466,-247,275,328,4240
1644153245.113882,-1.002197265625,0.01751708984375,0.0068359375,0.06525190839694661,0.037832061068702294,0.05899236641221374,-245,271,317,4400
1644153245.1622055,-1.00323486328125,0.0172119140625,0.00213623046875,-0.13322137404580142,0.20577099236641216,-0.047877862595419846,-243,262,320,4320
1644153245.2105787,-1.0050048828125,0.01654052734375,0.00640869140625,0.034717557251908504,0.22103816793893127,-0.13948091603053436,-244,268,328,4368
1644153245.258948,-1.003662109375,0.01470947265625,0.00555419921875,0.004183206106870341,0.22103816793893127,-0.09367938931297709,-252,269,329,4288
1644153245.3072965,-1.00274658203125,0.01898193359375,0.00457763671875,-0.0874198473282442,0.11416793893129773,0.05899236641221374,-256,273,321,4368
1644153245.3564436,-1.0045166015625,0.01983642578125,0.00274658203125,-0.026351145038167822,0.2973740458015267,0.08952671755725192,-248,264,322,4368
1644153245.404108,-1.00115966796875,0.01751708984375,0.00390625,-0.056885496183205986,0.1905038167938931,-0.032610687022900764,-250,269,331,4256
1644153245.4525304,-1.00421142578125,0.01806640625,0.00360107421875,0.004183206106870341,0.23630534351145038,0.07425954198473284,-257,259,329,4192
1644153245.5008726,-1.00482177734375,0.0146484375,0.0076904296875,-0.16375572519083959,0.17523664122137406,-0.07841221374045801,-254,268,323,4304
1644153245.549303,-1.005126953125,0.01971435546875,0.0048828125,0.06525190839694661,0.32790839694656493,0.013190839694656495,-250,269,315,4304
1644153245.5976374,-1.00567626953125,0.01885986328125,0.005859375,-0.13322137404580142,0.2668396946564886,0.07425954198473284,-252,266,324,4304
1644153245.6460495,-1.00482177734375,0.01947021484375,0.0068359375,-0.0721526717557251,0.3431755725190839,-0.10894656488549617,-250,269,324,4320
1644153245.694438,-1.00567626953125,0.017822265625,0.0029296875,-0.10268702290076326,0.22103816793893127,0.013190839694656495,-238,262,324,4304
1644153245.7428222,-1.00494384765625,0.0174560546875,0.00494384765625,-0.11795419847328237,0.41951145038167936,0.08952671755725192,-243,276,329,4320
1644153245.7912035,-1.0035400390625,0.01678466796875,0.00433349609375,-0.0721526717557251,0.1905038167938931,-0.06314503816793893,-244,275,323,4192
1644153245.8396628,-1.0029296875,0.01849365234375,0.0072021484375,0.04998473282442756,0.2515725190839695,-0.07841221374045801,-244,268,321,4288
1644153245.8880553,-1.004150390625,0.01751708984375,0.00445556640625,-0.16375572519083959,0.20577099236641216,0.05899236641221374,-255,266,329,4304
1644153245.9364386,-1.00665283203125,0.0196533203125,0.004638671875,-0.0721526717557251,0.23630534351145038,-0.032610687022900764,-247,263,321,4352
1644153245.9848208,-1.00201416015625,0.01812744140625,0.0037841796875,0.06525190839694661,0.37370992366412215,0.2116641221374046,-256,275,325,4304
1644153246.0332043,-1.001953125,0.01654052734375,0.007080078125,-0.19429007633587778,0.05309923664122135,-0.0020763358778626007,-257,269,315,4288
1644153246.0873134,-1.00469970703125,0.01873779296875,0.00457763671875,-0.10268702290076326,0.09890076335877862,-0.032610687022900764,-245,279,324,4304
1644153246.1308856,-1.0054931640625,0.01824951171875,0.0025634765625,-0.16375572519083959,0.3431755725190839,-0.07841221374045801,-244,260,323,4304
1644153246.1803782,-1.005859375,0.0185546875,0.005615234375,0.11105343511450394,0.2668396946564886,-0.032610687022900764,-256,260,328,4352
1644153246.275107,-1.00567626953125,0.01849365234375,0.00421142578125,-0.04161832061068693,0.32790839694656493,0.013190839694656495,-252,274,324,4256
1644153246.3233888,-1.0023193359375,0.01739501953125,0.00439453125,-0.11795419847328237,0.17523664122137406,-0.17001526717557253,-257,264,322,4304
1644153246.3717852,-1.0057373046875,0.02117919921875,0.008056640625,-0.14848854961832053,0.2821068702290076,-0.0020763358778626007,-241,269,327,4320
1644153246.4201877,-1.00250244140625,0.0185546875,0.0087890625,0.034717557251908504,0.2821068702290076,-0.10894656488549617,-249,275,323,4304
1644153246.468596,-1.00567626953125,0.0166015625,0.00311279296875,0.019450381679389395,0.3126412213740458,0.013190839694656495,-248,269,327,4352
1644153246.5169582,-1.00244140625,0.02056884765625,0.00634765625,0.034717557251908504,0.2821068702290076,0.05899236641221374,-248,269,327,4256
1644153246.5653255,-1.00445556640625,0.01739501953125,0.00390625,-0.0874198473282442,0.2973740458015267,-0.0020763358778626007,-251,270,316,4240
1644153246.613736,-1.0025634765625,0.01458740234375,0.0030517578125,-0.22482442748091594,0.22103816793893127,0.08952671755725192,-251,273,316,4368
1644153246.6621501,-1.00238037109375,0.01812744140625,0.00604248046875,0.04998473282442756,0.2515725190839695,-0.17001526717557253,-243,269,327,4320
1644153246.7105165,-1.0032958984375,0.01788330078125,0.004638671875,0.019450381679389395,0.3126412213740458,-0.18528244274809158,-244,270,323,4240
1644153246.7588758,-1.001220703125,0.01898193359375,0.0067138671875,-0.0874198473282442,0.2515725190839695,-0.09367938931297709,-247,280,323,4320
1644153246.8072731,-1.0042724609375,0.0206298828125,0.004638671875,-0.056885496183205986,0.1447022900763359,-0.06314503816793893,-247,268,328,4400
1644153246.8557515,-1.00506591796875,0.01910400390625,0.0059814453125,0.019450381679389395,0.2515725190839695,-0.047877862595419846,-245,254,320,4304
1644153246.9041078,-1.0057373046875,0.015625,0.00177001953125,-0.011083969465648769,0.22103816793893127,-0.12421374045801525,-251,280,328,4320
1644153246.9525282,-1.00164794921875,0.020751953125,0.00592041015625,-0.04161832061068693,0.37370992366412215,0.04372519083969466,-251,270,325,4352
1644153247.0008833,-1.00634765625,0.02032470703125,0.00604248046875,0.08051908396946572,0.11416793893129773,-0.10894656488549617,-245,266,310,4304
1644153247.0669334,-1.00543212890625,0.017333984375,0.0035400390625,-0.2706259541984732,0.2821068702290076,0.04372519083969466,-251,270,328,4320
1644153247.097676,-1.0040283203125,0.0189208984375,0.00335693359375,0.004183206106870341,0.23630534351145038,-0.0020763358778626007,-247,273,335,4288
1644153247.1459894,-1.0040283203125,0.01983642578125,0.00323486328125,-0.22482442748091594,0.2821068702290076,-0.0020763358778626007,-249,268,323,4320
1644153247.1943436,-0.99969482421875,0.018310546875,0.00579833984375,-0.10268702290076326,0.2973740458015267,-0.07841221374045801,-252,269,322,4288
1644153247.24274,-1.0048828125,0.0191650390625,0.00482177734375,0.019450381679389395,0.3126412213740458,-0.09367938931297709,-245,266,322,4320
1644153247.2914252,-1.00372314453125,0.02001953125,0.00482177734375,-0.026351145038167822,0.32790839694656493,-0.047877862595419846,-255,264,315,4320
1644153247.3417096,-1.000732421875,0.01995849609375,0.00604248046875,-0.10268702290076326,0.1905038167938931,-0.06314503816793893,-249,264,322,4304
1644153247.4362662,-1.0035400390625,0.02117919921875,0.00726318359375,-0.056885496183205986,0.4500458015267176,-0.017343511450381682,-245,266,313,4288
1644153247.4846926,-1.00341796875,0.0194091796875,0.0048828125,-0.14848854961832053,0.38897709923664125,-0.06314503816793893,-254,273,323,4320
1644153247.533045,-1.00537109375,0.018310546875,0.00372314453125,-0.04161832061068693,0.3431755725190839,-0.07841221374045801,-232,265,316,4432
1644153247.5814424,-1.00439453125,0.019775390625,0.00494384765625,0.04998473282442756,0.32790839694656493,0.08952671755725192,-249,268,314,4304
1644153247.6297755,-1.00347900390625,0.01678466796875,0.00592041015625,-0.13322137404580142,0.23630534351145038,0.028458015267175577,-257,274,329,4368
1644153247.67816,-1.005126953125,0.0162353515625,0.00543212890625,0.034717557251908504,0.40424427480916025,-0.017343511450381682,-238,264,317,4368
1644153247.7265813,-1.003173828125,0.01910400390625,0.00518798828125,0.004183206106870341,0.32790839694656493,0.05899236641221374,-245,269,331,4368
1644153247.7749984,-1.0023193359375,0.02032470703125,0.0069580078125,-0.026351145038167822,0.2821068702290076,0.08952671755725192,-251,275,318,4352
1644153247.8233218,-1.00146484375,0.020263671875,0.0069580078125,-0.026351145038167822,0.15996946564885495,0.05899236641221374,-250,274,322,4304
1644153247.871834,-1.00518798828125,0.01898193359375,0.004638671875,-0.04161832061068693,0.15996946564885495,-0.032610687022900764,-249,263,321,4320
1644153247.9202116,-1.00750732421875,0.0164794921875,0.0048828125,-0.04161832061068693,0.1447022900763359,-0.10894656488549617,-247,277,321,4304
1644153247.9686046,-1.003173828125,0.01763916015625,0.0009765625,-0.11795419847328237,0.35844274809160304,0.013190839694656495,-251,268,318,4304
1644153248.016939,-1.00341796875,0.0208740234375,0.007080078125,-0.056885496183205986,0.23630534351145038,-0.07841221374045801,-248,262,315,4304
1644153248.0720592,-1.00579833984375,0.0179443359375,0.00360107421875,-0.026351145038167822,0.06836641221374046,-0.0020763358778626007,-239,277,330,4288
1644153248.1137178,-1.00225830078125,0.01873779296875,0.0062255859375,-0.14848854961832053,0.17523664122137406,0.08952671755725192,-243,259,315,4320
1644153248.16203,-1.0025634765625,0.01702880859375,0.00274658203125,0.004183206106870341,0.3431755725190839,-0.13948091603053436,-249,263,318,4352
1644153248.2104034,-1.0003662109375,0.01995849609375,0.005615234375,-0.22482442748091594,0.22103816793893127,-0.047877862595419846,-243,264,317,4320
1644153248.2603686,-1.00177001953125,0.0206298828125,0.0054931640625,-0.04161832061068693,0.20577099236641216,-0.12421374045801525,-250,259,320,4320
1644153248.35558,-1.003173828125,0.01788330078125,0.0037841796875,-0.0721526717557251,0.20577099236641216,0.04372519083969466,-245,257,322,4352
1644153248.4039245,-1.00457763671875,0.019287109375,0.00634765625,-0.04161832061068693,0.38897709923664125,-0.15474809160305342,-260,279,324,4288
1644153248.452319,-1.00482177734375,0.0169677734375,0.00555419921875,-0.11795419847328237,0.1905038167938931,0.028458015267175577,-245,262,324,4256
1644153248.5007153,-1.0010986328125,0.02056884765625,0.00506591796875,-0.11795419847328237,0.2973740458015267,-0.06314503816793893,-249,263,323,4400
1644153248.5491247,-1.00384521484375,0.017333984375,0.00567626953125,-0.0874198473282442,0.15996946564885495,0.028458015267175577,-254,268,318,4288
1644153248.5974936,-1.00445556640625,0.01922607421875,0.005615234375,-0.13322137404580142,0.23630534351145038,0.13532824427480916,-252,262,317,4304
1644153248.6458762,-1.00457763671875,0.0191650390625,0.00390625,-0.11795419847328237,0.2515725190839695,-0.06314503816793893,-249,268,307,4352
1644153248.6942394,-1.005126953125,0.01806640625,0.00372314453125,-0.10268702290076326,0.22103816793893127,0.13532824427480916,-250,266,320,4320
1644153248.7426536,-1.0029296875,0.01776123046875,0.003173828125,0.06525190839694661,0.22103816793893127,0.1811297709923664,-254,268,325,4368
1644153248.7910593,-1.0042724609375,0.01788330078125,0.00537109375,-0.04161832061068693,0.3126412213740458,-0.13948091603053436,-249,265,323,4368
1644153248.8394353,-1.00390625,0.017822265625,0.00689697265625,0.019450381679389395,0.17523664122137406,0.12006106870229008,-244,263,316,4352
1644153248.8878508,-1.0045166015625,0.01953125,0.005615234375,-0.0721526717557251,0.1905038167938931,-0.032610687022900764,-261,270,335,4368
1644153248.936265,-1.00518798828125,0.023193359375,0.00836181640625,0.019450381679389395,0.20577099236641216,-0.15474809160305342,-245,276,324,4352
1644153248.9846475,-1.0035400390625,0.017822265625,0.0064697265625,-0.056885496183205986,0.3126412213740458,-0.07841221374045801,-251,268,316,4256
1644153249.0330248,-1.0029296875,0.0191650390625,0.0062255859375,-0.10268702290076326,0.23630534351145038,0.04372519083969466,-245,269,322,4304
1644153249.081397,-1.00335693359375,0.01904296875,0.00506591796875,-0.14848854961832053,0.2821068702290076,0.013190839694656495,-254,265,321,4352
1644153249.1297712,-1.00225830078125,0.01715087890625,0.00433349609375,0.034717557251908504,0.20577099236641216,0.04372519083969466,-257,269,322,4320
1644153249.1781206,-1.00457763671875,0.0189208984375,0.0040283203125,-0.24009160305343502,0.11416793893129773,-0.12421374045801525,-252,264,329,4352
1644153249.226557,-1.0040283203125,0.0186767578125,0.008544921875,0.004183206106870341,0.32790839694656493,0.07425954198473284,-242,273,321,4304
1644153249.2750282,-1.006103515625,0.01824951171875,0.0068359375,-0.13322137404580142,0.22103816793893127,0.013190839694656495,-250,266,317,4304
1644153249.3243904,-1.0013427734375,0.01959228515625,0.00555419921875,-0.16375572519083959,0.17523664122137406,-0.017343511450381682,-254,270,316,4224
1644153249.3745167,-1.00384521484375,0.0201416015625,0.00567626953125,0.034717557251908504,0.09890076335877862,0.13532824427480916,-251,273,328,4320
1644153249.4684527,-1.00457763671875,0.01751708984375,0.00604248046875,-0.026351145038167822,0.1447022900763359,0.028458015267175577,-245,264,324,4320
1644153249.520985,-1.00384521484375,0.0181884765625,0.00543212890625,-0.0874198473282442,0.3126412213740458,0.04372519083969466,-252,257,320,4368
1644153249.5652683,-1.00396728515625,0.018310546875,0.00421142578125,-0.04161832061068693,0.22103816793893127,-0.017343511450381682,-249,268,328,4240
1644153249.6136196,-1.003662109375,0.01806640625,0.00543212890625,-0.0721526717557251,0.20577099236641216,0.013190839694656495,-245,274,320,4304
1644153249.6619937,-1.0032958984375,0.016357421875,0.00299072265625,-0.0721526717557251,0.22103816793893127,-0.0020763358778626007,-243,266,324,4320
1644153249.7103322,-1.00323486328125,0.01727294921875,0.003662109375,-0.011083969465648769,0.17523664122137406,-0.0020763358778626007,-242,275,325,4288
1644153249.7587674,-1.00213623046875,0.01617431640625,0.0059814453125,0.034717557251908504,0.08363358778625957,-0.032610687022900764,-249,270,323,4320
1644153249.8071778,-1.00262451171875,0.0185546875,0.0035400390625,-0.1790229007633587,0.2668396946564886,-0.017343511450381682,-243,264,317,4320
1644153249.855571,-1.00604248046875,0.01898193359375,0.0054931640625,-0.11795419847328237,0.2973740458015267,-0.06314503816793893,-251,280,323,4320
1644153249.9039304,-1.002197265625,0.01568603515625,0.00433349609375,-0.13322137404580142,0.20577099236641216,0.15059541984732824,-243,264,324,4320
1644153249.9523547,-1.0050048828125,0.0181884765625,0.005126953125,-0.10268702290076326,0.1905038167938931,0.028458015267175577,-249,275,330,4400
1644153250.0007079,-1.00164794921875,0.018310546875,0.00396728515625,-0.1790229007633587,0.23630534351145038,-0.0020763358778626007,-245,271,322,4320
1644153250.0655742,-1.0025634765625,0.018310546875,0.00531005859375,-0.10268702290076326,0.32790839694656493,-0.0020763358778626007,-252,266,320,4288
1644153250.0974624,-1.00335693359375,0.01788330078125,0.00750732421875,-0.13322137404580142,0.1905038167938931,0.05899236641221374,-249,260,316,4256
1644153250.1458418,-1.002197265625,0.01806640625,0.0050048828125,-0.11795419847328237,0.2668396946564886,-0.09367938931297709,-245,271,324,4256
1644153250.1942263,-1.0072021484375,0.01885986328125,0.0047607421875,-0.026351145038167822,0.2668396946564886,-0.09367938931297709,-249,268,325,4304
1644153250.2426336,-1.00299072265625,0.0177001953125,0.00665283203125,-0.026351145038167822,0.3126412213740458,0.104793893129771,-247,273,321,4400
1644153250.2910128,-1.00299072265625,0.019287109375,0.00244140625,-0.25535877862595413,0.3126412213740458,0.013190839694656495,-243,266,327,4224
1644153250.339405,-1.00067138671875,0.01812744140625,0.0064697265625,-0.0721526717557251,0.2973740458015267,-0.017343511450381682,-255,274,322,4304
1644153250.3886654,-1.0025634765625,0.01861572265625,0.00518798828125,-0.056885496183205986,0.2668396946564886,-0.09367938931297709,-243,271,320,4320
1644153250.4390519,-1.00469970703125,0.01885986328125,0.00494384765625,-0.13322137404580142,0.2973740458015267,-0.06314503816793893,-245,264,315,4320
1644153250.5329175,-1.00555419921875,0.0167236328125,0.0029296875,-0.10268702290076326,0.15996946564885495,0.104793893129771,-244,268,323,4304
1644153250.5812838,-1.00299072265625,0.01971435546875,0.006103515625,0.06525190839694661,0.2821068702290076,0.13532824427480916,-250,266,322,4320
1644153250.6296492,-1.00469970703125,0.01678466796875,0.0035400390625,-0.0874198473282442,0.2821068702290076,-0.0020763358778626007,-244,275,328,4288
1644153250.6780674,-1.00469970703125,0.01666259765625,0.0059814453125,0.019450381679389395,0.2515725190839695,-0.07841221374045801,-249,270,321,4304
1644153250.7264376,-1.003662109375,0.016845703125,0.00555419921875,-0.10268702290076326,0.23630534351145038,-0.07841221374045801,-248,271,317,4288
1644153250.774834,-1.0035400390625,0.01641845703125,0.0076904296875,-0.0874198473282442,0.2973740458015267,-0.07841221374045801,-248,271,315,4352
1644153250.8232653,-1.002685546875,0.01788330078125,0.00506591796875,0.004183206106870341,0.2821068702290076,-0.032610687022900764,-255,276,317,4352
1644153250.8716326,-1.00494384765625,0.01800537109375,0.00518798828125,-0.22482442748091594,0.35844274809160304,0.028458015267175577,-250,271,322,4256
1644153250.9200048,-1.0023193359375,0.0198974609375,0.0054931640625,-0.056885496183205986,0.2973740458015267,-0.12421374045801525,-250,266,331,4320
1644153250.968357,-1.00244140625,0.01806640625,0.0040283203125,-0.056885496183205986,0.2973740458015267,-0.047877862595419846,-239,273,321,4368
1644153251.0168056,-1.00341796875,0.01629638671875,0.005126953125,0.004183206106870341,0.23630534351145038,0.05899236641221374,-252,262,315,4320
1644153251.069532,-1.00323486328125,0.01806640625,0.00421142578125,0.12632061068702305,0.22103816793893127,-0.2005496183206107,-249,282,330,4288
1644153251.1134813,-1.00457763671875,0.016845703125,0.0067138671875,-0.11795419847328237,0.2821068702290076,-0.07841221374045801,-249,263,328,4320
1644153251.1618996,-1.0042724609375,0.018310546875,0.00439453125,-0.11795419847328237,0.2668396946564886,0.028458015267175577,-238,269,317,4304
1644153251.210286,-1.005126953125,0.02032470703125,0.00714111328125,-0.0721526717557251,0.2668396946564886,0.013190839694656495,-248,266,313,4288
1644153251.2586443,-1.00726318359375,0.02081298828125,0.0047607421875,-0.11795419847328237,0.22103816793893127,0.028458015267175577,-249,273,321,4304
1644153251.3070505,-1.00238037109375,0.01727294921875,0.00677490234375,-0.11795419847328237,0.32790839694656493,-0.06314503816793893,-249,280,332,4304
1644153251.3554049,-1.003173828125,0.0184326171875,0.005615234375,0.019450381679389395,0.20577099236641216,0.12006106870229008,-255,271,317,4304
1644153251.403804,-1.00238037109375,0.019775390625,0.002685546875,-0.14848854961832053,0.2515725190839695,-0.0020763358778626007,-245,254,324,4368
1644153251.4521995,-1.00445556640625,0.01654052734375,0.00543212890625,0.04998473282442756,0.20577099236641216,0.028458015267175577,-256,263,314,4304
1644153251.5005407,-1.00201416015625,0.0166015625,0.00408935546875,-0.026351145038167822,0.3431755725190839,-0.15474809160305342,-232,273,328,4256
1644153251.549342,-1.00506591796875,0.0189208984375,0.00634765625,-0.16375572519083959,0.22103816793893127,0.08952671755725192,-241,269,317,4304
1644153251.5997164,-1.00604248046875,0.017822265625,0.00640869140625,-0.0721526717557251,0.15996946564885495,0.05899236641221374,-254,268,323,4256
1644153251.694109,-1.0040283203125,0.01910400390625,0.00445556640625,-0.11795419847328237,0.23630534351145038,-0.07841221374045801,-244,265,328,4304
1644153251.7424662,-1.00408935546875,0.0201416015625,0.00579833984375,-0.1790229007633587,0.23630534351145038,-0.17001526717557253,-238,276,329,4320
1644153251.7908735,-1.00335693359375,0.01837158203125,0.0042724609375,0.09578625954198483,0.11416793893129773,-0.10894656488549617,-242,273,323,4352
1644153251.839314,-1.00274658203125,0.017578125,0.0025634765625,-0.0874198473282442,0.20577099236641216,-0.0020763358778626007,-247,275,323,4320
1644153251.8877132,-1.00384521484375,0.0181884765625,0.0028076171875,-0.14848854961832053,0.2973740458015267,0.16586259541984733,-250,269,315,4288
1644153251.9361045,-1.005126953125,0.01617431640625,0.00445556640625,-0.0721526717557251,0.09890076335877862,0.13532824427480916,-254,270,318,4256
1644153251.98452,-1.00299072265625,0.0179443359375,0.005859375,-0.16375572519083959,0.3126412213740458,0.028458015267175577,-244,270,321,4304
1644153252.032867,-1.00323486328125,0.0191650390625,0.0057373046875,-0.04161832061068693,0.40424427480916025,-0.0020763358778626007,-248,266,320,4288
1644153252.0855083,-1.004150390625,0.01861572265625,0.00494384765625,-0.04161832061068693,0.2973740458015267,-0.06314503816793893,-250,271,324,4304
1644153252.1295917,-1.003662109375,0.01947021484375,0.00836181640625,-0.11795419847328237,0.2821068702290076,0.104793893129771,-252,264,320,4304
1644153252.178027,-1.001708984375,0.01690673828125,0.0048828125,-0.0721526717557251,0.12943511450381678,-0.017343511450381682,-245,269,327,4304
1644153252.2265985,-1.00347900390625,0.019775390625,0.00482177734375,-0.0721526717557251,0.22103816793893127,0.05899236641221374,-249,275,328,4288
1644153252.2747908,-1.0030517578125,0.01898193359375,0.0052490234375,0.034717557251908504,0.3431755725190839,0.013190839694656495,-252,257,320,4288
1644153252.32352,-1.00347900390625,0.0198974609375,0.00482177734375,-0.10268702290076326,0.20577099236641216,-0.017343511450381682,-252,269,327,4368
1644153252.3733892,-1.0047607421875,0.0181884765625,0.0064697265625,-0.0874198473282442,0.2821068702290076,0.013190839694656495,-248,266,322,4288
1644153252.4683058,-1.00341796875,0.01739501953125,0.00408935546875,-0.14848854961832053,0.2973740458015267,-0.017343511450381682,-247,263,321,4224
1644153252.5166912,-1.00677490234375,0.01812744140625,0.00396728515625,-0.10268702290076326,0.12943511450381678,-0.047877862595419846,-255,262,322,4352
1644153252.5650747,-1.00213623046875,0.0159912109375,0.003173828125,-0.0721526717557251,0.15996946564885495,-0.10894656488549617,-245,274,313,4256
1644153252.6134841,-1.00457763671875,0.01641845703125,0.0052490234375,-0.16375572519083959,0.2973740458015267,-0.13948091603053436,-243,269,322,4352
1644153252.6618474,-1.00537109375,0.01812744140625,0.00482177734375,-0.0874198473282442,0.2821068702290076,-0.032610687022900764,-254,268,330,4320
1644153252.7102814,-1.00457763671875,0.01776123046875,0.0023193359375,-0.0721526717557251,0.22103816793893127,0.013190839694656495,-248,264,322,4288
1644153252.758634,-1.00421142578125,0.01611328125,0.00408935546875,-0.04161832061068693,0.12943511450381678,-0.047877862595419846,-245,274,317,4400
1644153252.8070471,-1.00213623046875,0.016845703125,0.00579833984375,-0.11795419847328237,0.22103816793893127,-0.12421374045801525,-250,266,327,4304
1644153252.8553646,-1.005859375,0.01873779296875,0.00689697265625,-0.14848854961832053,0.2668396946564886,-0.047877862595419846,-248,279,322,4320
1644153252.9037688,-1.00714111328125,0.0162353515625,0.00225830078125,-0.04161832061068693,0.09890076335877862,0.104793893129771,-250,271,324,4288
1644153252.952184,-1.0057373046875,0.0203857421875,0.00396728515625,-0.1790229007633587,0.40424427480916025,-0.032610687022900764,-242,263,316,4288
1644153253.0005226,-1.00311279296875,0.018798828125,0.00421142578125,-0.04161832061068693,0.2821068702290076,0.028458015267175577,-238,276,329,4320
1644153253.0652866,-1.0029296875,0.0184326171875,0.00439453125,0.04998473282442756,0.2515725190839695,0.04372519083969466,-249,277,330,4304
1644153253.09729,-1.0028076171875,0.01812744140625,0.0072021484375,0.019450381679389395,0.15996946564885495,0.104793893129771,-247,275,328,4320
1644153253.1456735,-1.00518798828125,0.0201416015625,0.005859375,-0.0721526717557251,0.23630534351145038,0.08952671755725192,-251,277,321,4304
1644153253.1940908,-1.00811767578125,0.01995849609375,0.00360107421875,-0.0721526717557251,0.3431755725190839,-0.06314503816793893,-248,269,327,4304
1644153253.242477,-1.0052490234375,0.0152587890625,0.00421142578125,-0.10268702290076326,0.2668396946564886,-0.0020763358778626007,-255,259,322,4368
1644153253.2908554,-1.00482177734375,0.01495361328125,0.00482177734375,-0.10268702290076326,0.1447022900763359,0.013190839694656495,-249,273,316,4288
1644153253.3392007,-1.00604248046875,0.018798828125,0.004150390625,-0.011083969465648769,0.2821068702290076,-0.07841221374045801,-244,263,323,4256
1644153253.387576,-1.0050048828125,0.017822265625,0.00640869140625,-0.10268702290076326,0.22103816793893127,0.04372519083969466,-249,265,330,4240
1644153253.4361944,-1.003662109375,0.0177001953125,0.0037841796875,-0.026351145038167822,0.32790839694656493,-0.047877862595419846,-243,274,322,4320
1644153253.4865646,-1.00537109375,0.01513671875,0.0015869140625,0.034717557251908504,0.2668396946564886,-0.06314503816793893,-250,266,320,4224
1644153253.5817661,-1.0045166015625,0.0142822265625,0.00213623046875,-0.0874198473282442,0.15996946564885495,-0.10894656488549617,-244,263,316,4240
1644153253.6295385,-1.0081787109375,0.01629638671875,0.00238037109375,0.08051908396946572,0.2821068702290076,0.05899236641221374,-237,268,304,4304
1644153253.677927,-1.0020751953125,0.01593017578125,0.0008544921875,-0.026351145038167822,0.38897709923664125,-0.017343511450381682,-251,263,323,4400
1644153253.726268,-1.00396728515625,0.01556396484375,0.00439453125,-0.25535877862595413,0.2973740458015267,0.07425954198473284,-252,269,315,4304
1644153253.7746615,-1.002685546875,0.01763916015625,0.00439453125,-0.2706259541984732,0.35844274809160304,-0.06314503816793893,-254,273,316,4256
1644153253.8230817,-1.004150390625,0.0157470703125,0.00579833984375,0.019450381679389395,0.1905038167938931,0.04372519083969466,-244,270,323,4368
1644153253.8714871,-1.00177001953125,0.01904296875,0.006591796875,-0.0874198473282442,0.1905038167938931,0.028458015267175577,-248,266,317,4320
1644153253.9198463,-1.005615234375,0.02020263671875,0.00372314453125,0.04998473282442756,0.35844274809160304,-0.032610687022900764,-250,274,322,4304
1644153253.9682128,-1.0032958984375,0.01861572265625,0.00537109375,0.034717557251908504,0.20577099236641216,-0.017343511450381682,-252,274,327,4304
1644153254.0165932,-1.0032958984375,0.01666259765625,0.0069580078125,-0.0874198473282442,0.23630534351145038,-0.032610687022900764,-244,268,328,4320
1644153254.0678072,-1.00341796875,0.0179443359375,0.00482177734375,-0.11795419847328237,0.20577099236641216,-0.0020763358778626007,-245,271,322,4320
1644153254.1133358,-1.00494384765625,0.01837158203125,0.00439453125,-0.011083969465648769,0.2668396946564886,0.07425954198473284,-244,260,316,4320
1644153254.16172,-1.0057373046875,0.01947021484375,0.004638671875,-0.056885496183205986,0.15996946564885495,0.16586259541984733,-252,266,310,4368
1644153254.2101212,-1.0050048828125,0.01654052734375,0.0054931640625,-0.011083969465648769,0.20577099236641216,-0.047877862595419846,-242,275,325,4304
1644153254.2584827,-1.00433349609375,0.01416015625,0.00555419921875,-0.011083969465648769,0.38897709923664125,0.013190839694656495,-248,276,317,4320
1644153254.306859,-1.00311279296875,0.0166015625,0.00494384765625,0.17212213740458027,0.1905038167938931,-0.017343511450381682,-242,273,325,4320
1644153254.3552742,-1.00396728515625,0.01593017578125,0.004638671875,-0.14848854961832053,0.17523664122137406,-0.15474809160305342,-243,257,320,4320
1644153254.4036536,-1.00616455078125,0.01666259765625,0.0076904296875,-0.16375572519083959,0.3126412213740458,-0.032610687022900764,-241,264,317,4352
1644153254.4520447,-1.00299072265625,0.016357421875,0.00482177734375,-0.20955725190839686,0.23630534351145038,0.08952671755725192,-247,277,325,4400
1644153254.5003722,-1.0057373046875,0.0185546875,0.004638671875,-0.1790229007633587,0.2821068702290076,0.13532824427480916,-247,265,328,4288
1644153254.5487936,-1.0029296875,0.01885986328125,0.00469970703125,0.004183206106870341,0.2973740458015267,0.013190839694656495,-249,270,316,4240
1644153254.59828,-1.00225830078125,0.0189208984375,0.00701904296875,-0.13322137404580142,0.3431755725190839,-0.032610687022900764,-252,264,315,4352
1644153254.6939526,-1.0023193359375,0.0172119140625,0.00274658203125,-0.13322137404580142,0.2973740458015267,-0.13948091603053436,-251,270,325,4288
1644153254.742339,-1.00433349609375,0.01995849609375,0.00439453125,-0.16375572519083959,0.2973740458015267,0.13532824427480916,-251,275,330,4256
1644153254.790704,-1.00433349609375,0.01824951171875,0.00518798828125,-0.026351145038167822,0.32790839694656493,-0.07841221374045801,-245,262,324,4256
1644153254.8390903,-1.00408935546875,0.017333984375,0.0040283203125,-0.0721526717557251,0.20577099236641216,-0.07841221374045801,-249,258,316,4352
1644153254.887544,-1.0042724609375,0.0208740234375,0.00567626953125,-0.14848854961832053,0.4500458015267176,-0.09367938931297709,-255,269,324,4320
1644153254.935919,-1.0062255859375,0.019287109375,0.00299072265625,-0.056885496183205986,0.1447022900763359,-0.0020763358778626007,-254,270,330,4304
1644153254.9843132,-1.006103515625,0.017333984375,0.0001220703125,-0.011083969465648769,0.17523664122137406,0.104793893129771,-255,271,322,4304
1644153255.0327427,-1.00531005859375,0.01641845703125,0.00469970703125,-0.0721526717557251,0.2515725190839695,-0.047877862595419846,-243,269,327,4352
1644153255.0826418,-1.00469970703125,0.01617431640625,0.0052490234375,-0.04161832061068693,0.35844274809160304,-0.06314503816793893,-247,270,321,4304
1644153255.1294312,-1.00506591796875,0.01776123046875,0.00537109375,0.08051908396946572,0.2668396946564886,0.13532824427480916,-252,262,324,4240
1644153255.1778085,-1.00628662109375,0.01715087890625,0.0037841796875,0.034717557251908504,0.32790839694656493,-0.09367938931297709,-247,270,323,4304
1644153255.2261891,-1.0059814453125,0.01947021484375,0.00628662109375,-0.20955725190839686,0.32790839694656493,-0.07841221374045801,-255,269,327,4256
1644153255.2745492,-1.00335693359375,0.0157470703125,0.0048828125,0.019450381679389395,0.2973740458015267,0.08952671755725192,-256,270,316,4288
1644153255.3229346,-1.00286865234375,0.01666259765625,0.00543212890625,-0.056885496183205986,0.3126412213740458,0.08952671755725192,-249,275,321,4320
1644153255.3712997,-1.0047607421875,0.01544189453125,0.0054931640625,-0.10268702290076326,0.17523664122137406,-0.13948091603053436,-241,271,322,4368
1644153255.4199631,-1.00604248046875,0.01849365234375,0.0042724609375,-0.04161832061068693,0.3126412213740458,0.12006106870229008,-247,265,321,4288
1644153255.4702914,-1.0029296875,0.0169677734375,0.0050048828125,-0.1790229007633587,0.15996946564885495,0.013190839694656495,-243,274,327,4304
1644153255.5649521,-1.00396728515625,0.01953125,0.005126953125,-0.0721526717557251,0.32790839694656493,-0.047877862595419846,-241,269,329,4320
1644153255.6132433,-1.00579833984375,0.01629638671875,0.00457763671875,-0.056885496183205986,0.20577099236641216,-0.0020763358778626007,-250,271,320,4304
1644153255.6616108,-1.00482177734375,0.01812744140625,0.0028076171875,0.019450381679389395,0.17523664122137406,-0.07841221374045801,-248,271,331,4256
1644153255.710035,-1.00518798828125,0.01904296875,0.00799560546875,-0.056885496183205986,0.38897709923664125,-0.07841221374045801,-250,264,324,4240
1644153255.7583876,-1.00323486328125,0.01739501953125,0.00360107421875,0.019450381679389395,0.40424427480916025,0.013190839694656495,-244,263,321,4432
1644153255.8067718,-1.00360107421875,0.01776123046875,0.00445556640625,-0.10268702290076326,0.32790839694656493,-0.017343511450381682,-242,270,318,4288
1644153255.8551543,-1.0045166015625,0.01763916015625,0.00738525390625,-0.10268702290076326,0.20577099236641216,-0.0020763358778626007,-249,268,328,4416
1644153255.9036345,-1.0035400390625,0.01959228515625,0.00274658203125,-0.011083969465648769,0.11416793893129773,-0.07841221374045801,-248,269,320,4320
1644153255.9520097,-1.00433349609375,0.01885986328125,0.00439453125,0.004183206106870341,0.15996946564885495,-0.07841221374045801,-247,265,316,4304
1644153256.0003939,-1.0074462890625,0.01629638671875,0.00531005859375,0.004183206106870341,0.3431755725190839,-0.047877862595419846,-244,260,332,4368
1644153256.066832,-1.00311279296875,0.0179443359375,0.00531005859375,-0.056885496183205986,0.37370992366412215,0.12006106870229008,-245,262,327,4304
1644153256.0971057,-1.0047607421875,0.01971435546875,0.00360107421875,-0.19429007633587778,0.007297709923664131,-0.017343511450381682,-244,263,318,4256
1644153256.145516,-1.00262451171875,0.0198974609375,0.0035400390625,-0.04161832061068693,0.17523664122137406,0.07425954198473284,-250,264,315,4352
1644153256.1939392,-1.00286865234375,0.0218505859375,0.00445556640625,-0.19429007633587778,0.2973740458015267,-0.047877862595419846,-249,268,328,4352
1644153256.2423265,-1.0042724609375,0.01715087890625,0.0057373046875,-0.026351145038167822,0.22103816793893127,0.028458015267175577,-251,273,335,4368
1644153256.2907338,-1.00250244140625,0.015625,0.00390625,-0.0721526717557251,0.17523664122137406,-0.17001526717557253,-255,276,320,4304
1644153256.3390913,-1.00030517578125,0.01910400390625,0.00494384765625,-0.0874198473282442,0.37370992366412215,0.08952671755725192,-249,268,321,4352
1644153256.3874195,-1.00506591796875,0.019287109375,0.0067138671875,-0.16375572519083959,0.2973740458015267,0.028458015267175577,-245,271,334,4256
1644153256.4358428,-1.00555419921875,0.01708984375,0.00439453125,-0.0874198473282442,0.17523664122137406,0.05899236641221374,-258,268,325,4288
1644153256.4842203,-1.00335693359375,0.01751708984375,0.005126953125,-0.11795419847328237,0.17523664122137406,-0.017343511450381682,-251,260,325,4304
1644153256.5330403,-1.00482177734375,0.01922607421875,0.00433349609375,-0.056885496183205986,0.20577099236641216,-0.09367938931297709,-252,271,331,4304
1644153256.5833147,-1.001708984375,0.0179443359375,0.0040283203125,-0.13322137404580142,0.09890076335877862,0.013190839694656495,-260,266,324,4352
1644153256.6778026,-1.00421142578125,0.01873779296875,0.00738525390625,-0.10268702290076326,0.22103816793893127,0.013190839694656495,-245,283,320,4256
1644153256.7261267,-1.00372314453125,0.01739501953125,0.00506591796875,-0.056885496183205986,0.32790839694656493,-0.10894656488549617,-254,280,332,4368
1644153256.774558,-1.0029296875,0.01812744140625,0.00384521484375,-0.04161832061068693,0.20577099236641216,-0.06314503816793893,-254,273,316,4352
1644153256.8229744,-1.001953125,0.0172119140625,0.0042724609375,0.11105343511450394,0.2668396946564886,-0.09367938931297709,-250,269,324,4256
1644153256.8712957,-1.00518798828125,0.0169677734375,0.0062255859375,-0.026351145038167822,0.32790839694656493,0.08952671755725192,-251,265,321,4304
1644153256.91973,-1.00341796875,0.0201416015625,0.00457763671875,0.004183206106870341,0.2821068702290076,0.05899236641221374,-251,260,316,4352
1644153256.9680862,-1.00323486328125,0.01715087890625,0.00299072265625,-0.13322137404580142,0.23630534351145038,-0.032610687022900764,-249,270,321,4256
1644153257.0164876,-1.003173828125,0.01885986328125,0.00262451171875,-0.011083969465648769,0.32790839694656493,0.04372519083969466,-252,264,322,4352
1644153257.065546,-1.00244140625,0.015869140625,0.00665283203125,-0.0721526717557251,0.20577099236641216,-0.0020763358778626007,-250,271,334,4352
1644153257.1131892,-1.00335693359375,0.0147705078125,0.0040283203125,-0.056885496183205986,0.09890076335877862,0.07425954198473284,-247,255,314,4304
1644153257.1615596,-1.00274658203125,0.01898193359375,0.00347900390625,-0.11795419847328237,0.1905038167938931,-0.13948091603053436,-245,271,322,4288
1644153257.209973,-1.00213623046875,0.0189208984375,0.00506591796875,-0.026351145038167822,0.2668396946564886,0.013190839694656495,-243,264,320,4352
1644153257.2583113,-1.004638671875,0.01812744140625,0.006591796875,-0.16375572519083959,0.1447022900763359,0.013190839694656495,-256,273,318,4320
1644153257.3067183,-1.0045166015625,0.019775390625,0.0076904296875,-0.16375572519083959,0.2973740458015267,-0.17001526717557253,-249,273,323,4304
1644153257.3551378,-1.00274658203125,0.01763916015625,0.00604248046875,-0.10268702290076326,0.2668396946564886,0.2574656488549618,-250,262,315,4304
1644153257.403469,-1.0029296875,0.01776123046875,0.00518798828125,-0.13322137404580142,0.2821068702290076,-0.017343511450381682,-248,271,324,4368
1644153257.4518855,-1.00531005859375,0.017822265625,0.00439453125,0.004183206106870341,0.2821068702290076,0.04372519083969466,-245,266,322,4352
1644153257.5002499,-1.00201416015625,0.01708984375,0.0052490234375,0.019450381679389395,0.20577099236641216,-0.017343511450381682,-241,264,320,4320
1644153257.548655,-1.0045166015625,0.0172119140625,0.00201416015625,-0.0721526717557251,0.3431755725190839,0.07425954198473284,-251,258,328,4304
1644153257.5970194,-1.00372314453125,0.016357421875,0.00506591796875,-0.19429007633587778,0.11416793893129773,0.013190839694656495,-244,273,325,4288
1644153257.6454186,-1.0050048828125,0.0157470703125,0.0042724609375,-0.026351145038167822,0.1905038167938931,0.028458015267175577,-250,264,322,4304
1644153257.694293,-1.00445556640625,0.0167236328125,0.00506591796875,-0.16375572519083959,0.22103816793893127,0.013190839694656495,-251,265,330,4320
1644153257.7446144,-1.002685546875,0.01690673828125,0.00372314453125,-0.056885496183205986,0.37370992366412215,-0.0020763358778626007,-252,271,324,4256
1644153257.839019,-1.003173828125,0.0184326171875,0.00738525390625,-0.1790229007633587,0.2973740458015267,-0.017343511450381682,-257,279,322,4304
1644153257.8873591,-1.0048828125,0.01788330078125,0.00408935546875,-0.0721526717557251,0.37370992366412215,0.07425954198473284,-238,274,315,4256
1644153257.9357526,-1.00311279296875,0.01959228515625,0.00469970703125,-0.026351145038167822,0.11416793893129773,0.013190839694656495,-250,274,320,4352
1644153257.984145,-1.008056640625,0.0152587890625,0.00579833984375,-0.026351145038167822,0.3126412213740458,-0.12421374045801525,-251,263,328,4320
1644153258.0325682,-1.003173828125,0.016845703125,0.0062255859375,-0.011083969465648769,0.32790839694656493,-0.06314503816793893,-244,275,318,4256
1644153258.0810554,-1.0042724609375,0.01727294921875,0.00494384765625,0.09578625954198483,0.3431755725190839,-0.017343511450381682,-260,269,329,4352
1644153258.1292577,-1.003662109375,0.0185546875,0.0059814453125,-0.0721526717557251,0.06836641221374046,-0.032610687022900764,-257,269,327,4288
1644153258.1776423,-1.00433349609375,0.01885986328125,0.005126953125,-0.04161832061068693,0.3431755725190839,-0.047877862595419846,-241,276,317,4352
1644153258.2260506,-1.005859375,0.017822265625,0.00469970703125,-0.13322137404580142,0.08363358778625957,-0.06314503816793893,-235,273,325,4224
1644153258.2743998,-1.004638671875,0.01678466796875,0.006591796875,-0.0874198473282442,0.23630534351145038,-0.017343511450381682,-247,260,309,4304
1644153258.322784,-1.00372314453125,0.0172119140625,0.00848388671875,0.034717557251908504,0.1447022900763359,0.028458015267175577,-239,275,321,4304
1644153258.3711884,-1.00347900390625,0.01983642578125,0.00531005859375,-0.0721526717557251,0.37370992366412215,-0.23108396946564885,-255,274,315,4368
1644153258.4196038,-1.00714111328125,0.01971435546875,0.00390625,0.18738931297709938,0.2515725190839695,0.028458015267175577,-252,274,327,4240
1644153258.4679658,-1.0025634765625,0.0177001953125,0.0037841796875,-0.13322137404580142,0.37370992366412215,-0.0020763358778626007,-245,269,317,4240
1644153258.5163164,-1.003662109375,0.01934814453125,0.0059814453125,-0.026351145038167822,0.22103816793893127,0.15059541984732824,-245,266,327,4304
1644153258.5647285,-1.00439453125,0.01763916015625,0.001953125,-0.011083969465648769,0.32790839694656493,-0.06314503816793893,-252,276,322,4288
1644153258.6131158,-1.00445556640625,0.0174560546875,0.00433349609375,0.04998473282442756,0.2668396946564886,-0.2005496183206107,-255,276,329,4304
1644153258.6615014,-1.00531005859375,0.02142333984375,0.00421142578125,-0.10268702290076326,0.1905038167938931,-0.07841221374045801,-250,271,322,4352
1644153258.7098815,-1.0028076171875,0.01239013671875,0.00115966796875,0.004183206106870341,0.2821068702290076,-0.017343511450381682,-244,273,325,4320
1644153258.7582428,-1.00628662109375,0.01617431640625,0.00665283203125,0.11105343511450394,0.2668396946564886,0.05899236641221374,-249,270,332,4304
1644153258.8066773,-1.00653076171875,0.021240234375,0.004638671875,0.019450381679389395,0.2668396946564886,-0.0020763358778626007,-243,262,324,4304
1644153258.8563824,-1.00091552734375,0.0206298828125,0.0054931640625,-0.011083969465648769,0.8164580152671757,-0.3074198473282443,-249,273,318,4304
1644153258.9066808,-1.008056640625,0.014892578125,-0.0010986328125,-0.04161832061068693,0.22103816793893127,0.028458015267175577,-248,269,327,4304
1644153259.0002534,-1.0057373046875,0.0189208984375,0.01104736328125,0.08051908396946572,0.037832061068702294,-0.0020763358778626007,-242,268,325,4288
1644153259.0655077,-1.00860595703125,-0.05474853515625,0.0321044921875,4.355328244274809,-0.0690381679389313,0.15059541984732824,-250,271,324,4320
1644153259.0970001,-0.9984130859375,0.02777099609375,0.02032470703125,0.004183206106870341,2.9691297709923665,-0.429557251908397,-252,264,329,4320
1644153259.1453605,-1.09429931640625,-0.00689697265625,0.064453125,2.996549618320611,-2.710259541984733,0.15059541984732824,-252,274,329,4288
1644153259.1937468,-1.13720703125,-0.05706787109375,0.00872802734375,14.966015267175573,41.86989312977099,0.22693129770992365,-248,271,329,4320
1644153259.2421732,-1.05859375,-0.0247802734375,-0.1063232421875,18.737007633587787,113.16760305343512,2.608610687022901,-252,274,350,4288
1644153259.2909343,-0.9957275390625,-0.0635986328125,-0.19036865234375,-1.308793893129771,163.38134351145038,-3.742534351145038,-235,273,372,4352
1644153259.3388996,-0.87750244140625,-0.00726318359375,-0.28326416015625,-9.507267175572519,152.48058015267176,-17.162381679389313,-226,279,420,4320
1644153259.387307,-0.7962646484375,-0.036376953125,-0.34564208984375,-1.8126106870229006,106.70958778625955,-22.87230534351145,-201,273,444,4352
1644153259.4357104,-0.8385009765625,-0.03863525390625,-0.52301025390625,-0.0721526717557251,67.41187786259543,-20.7501679389313,-199,285,451,4288
1644153259.4840887,-0.835205078125,-0.016845703125,-0.5711669921875,-4.850778625954199,76.64851908396948,-27.36085496183206,-190,285,460,4304
1644153259.53249,-0.72210693359375,-0.04705810546875,-0.515625,6.538534351145038,133.76302290076336,-28.612763358778626,-169,288,483,4288
1644153259.5808494,-0.74249267578125,-0.03094482421875,-0.59393310546875,-5.461465648854962,143.83935877862595,-38.81123664122137,-144,297,505,4240
1644153259.6305394,-0.5643310546875,-0.01470947265625,-0.7115478515625,17.362961832061067,173.10653435114506,-21.22345038167939,-118,304,526,4304
1644153259.680085,-0.509521484375,-0.03179931640625,-0.7919921875,28.47746564885496,174.95386259541985,3.4330381679389315,-81,308,536,4320
1644153259.7743747,-0.17193603515625,-0.21337890625,-1.03271484375,24.98128244274809,152.0225648854962,12.79181679389313,-9,319,565,4352
1644153259.8227458,0.25909423828125,-0.17340087890625,-0.32373046875,-37.09505343511451,15.045465648854963,-6.460091603053435,21,321,568,4288
1644153259.8711221,-0.10711669921875,-0.129150390625,-0.948486328125,1.5309007633587788,19.656152671755724,1.738381679389313,35,321,570,4288
1644153259.9194796,-0.04547119140625,-0.143310546875,-0.99615478515625,3.4850992366412217,3.9004274809160306,9.753648854961833,26,324,570,4256
1644153259.9679227,-0.01953125,-0.1695556640625,-0.9268798828125,4.416396946564885,14.801190839694657,9.12769465648855,34,337,564,4352
1644153260.0162852,-0.0701904296875,-0.30474853515625,-0.956298828125,-2.179022900763359,21.54928244274809,-0.9639083969465649,42,326,554,4320
1644153260.0673094,-0.0692138671875,-0.30859375,-1.01031494140625,-22.453832061068702,-16.11483969465649,-22.918106870229007,38,326,551,4288
1644153260.1130977,-0.03924560546875,-0.24298095703125,-0.93023681640625,-20.713374045801526,-22.862931297709924,-40.414290076335874,39,313,564,4320
1644153260.1613991,0.0074462890625,-0.0556640625,-0.839111328125,-14.392763358778625,16.144702290076335,-58.70436641221374,38,312,561,4352
1644153260.2097604,0.05450439453125,0.07269287109375,-0.91961669921875,6.859145038167939,114.84699236641222,-12.017343511450381,62,313,562,4352
1644153260.2581587,0.01458740234375,-0.03460693359375,-1.08270263671875,-36.48436641221374,-1.2140763358778626,0.837618320610687,61,304,561,4320
1644153260.306533,0.02764892578125,0.05133056640625,-1.029541015625,-15.30879389312977,-2.0385038167938934,-8.353221374045802,60,298,555,4304
1644153260.3549972,0.01116943359375,0.0482177734375,-1.02618408203125,-7.553068702290076,0.7553893129770992,-5.467725190839694,67,298,562,4352
