epoch,acc_x,acc_y,acc_z,rot_x,rot_y,rot_z,mag_x,mag_y,mag_z,temp
1644173100.017019,-0.013489,0.008118,-0.99292,0.08345,0.294962,-0.069924,52,275,584,5696
1644173100.070436,-0.011597,0.00946,-0.993042,0.281924,0.371298,-0.100458,52,277,582,5728
1644173100.113746,-0.008545,0.008118,-0.992554,0.297191,0.401832,-0.024122,47,275,579,5728
1644173100.162234,-0.012756,0.010376,-0.994873,0.35826,0.310229,0.006412,47,275,579,5696
1644173100.210544,-0.010864,0.012085,-0.993347,0.220855,0.386565,-0.192061,55,283,578,5728
1644173100.258951,-0.010864,0.006958,-0.992371,0.266656,0.554504,0.021679,51,274,571,5696
1644173100.307322,-0.011414,0.009155,-0.991516,0.113985,0.401832,-0.176794,47,277,579,5712
1644173100.355711,-0.010986,0.009949,-0.990845,0.35826,0.356031,-0.176794,51,276,585,5728
1644173100.404298,-0.01123,0.009583,-0.992859,0.281924,0.310229,0.021679,55,283,573,5728
1644173100.452649,-0.010315,0.009094,-0.990906,0.297191,0.447634,-0.161527,53,274,585,5632
1644173100.50279,-0.011475,0.008667,-0.99231,0.113985,0.264427,0.036947,57,277,572,5664
1644173100.55316,-0.009338,0.007385,-0.991455,0.220855,0.294962,-0.008855,45,270,579,5728
1644173100.598245,-0.008728,0.007874,-0.992432,0.388794,0.325496,-0.207328,46,269,578,5760
1644173100.694441,-0.011169,0.006775,-0.992676,0.068183,0.432366,-0.069924,53,281,576,5728
1644173100.742846,-0.010437,0.008789,-0.98938,0.266656,0.386565,-0.222595,42,273,572,5760
1644173100.791238,-0.010132,0.006165,-0.992004,0.266656,0.447634,0.021679,47,265,584,5760
1644173100.839658,-0.011169,0.008118,-0.993286,0.113985,0.478168,-0.14626,57,277,575,5712
1644173100.888046,-0.010376,0.007751,-0.995056,0.220855,0.401832,-0.100458,54,273,575,5696
1644173100.936434,-0.013428,0.006775,-0.990723,0.190321,0.340763,0.036947,49,273,579,5696
1644173100.984842,-0.011841,0.00946,-0.991211,0.113985,0.371298,-0.100458,54,263,575,5760
1644173101.033215,-0.011414,0.005493,-0.993591,0.266656,0.356031,-0.054656,58,279,583,5696
1644173101.089604,-0.009644,0.006042,-0.993103,0.052916,0.508702,-0.222595,53,276,585,5712
1644173101.129973,-0.012634,0.008972,-0.995605,0.236122,0.478168,-0.268397,47,260,577,5712
1644173101.178358,-0.008118,0.008301,-0.993652,0.297191,0.432366,0.021679,47,275,575,5712
1644173101.226743,-0.010864,0.008789,-0.993286,0.052916,0.401832,-0.054656,52,270,577,5712
1644173101.275189,-0.011414,0.008545,-0.993713,0.251389,0.508702,-0.069924,55,269,583,5648
1644173101.323529,-0.011841,0.010864,-0.994751,0.373527,0.462901,-0.024122,51,281,573,5664
1644173101.371969,-0.013123,0.004639,-0.993042,0.144519,0.432366,-0.100458,46,271,583,5760
1644173101.42075,-0.011169,0.007019,-0.991821,0.159786,0.554504,0.006412,47,268,577,5696
1644173101.471343,-0.011963,0.007935,-0.994446,0.297191,0.386565,0.067481,54,270,579,5776
1644173101.52148,-0.006958,0.008362,-0.99292,0.190321,0.508702,-0.207328,55,271,578,5712
1644173101.566504,-0.012024,0.007996,-0.99292,0.297191,0.462901,-0.100458,48,279,566,5712
1644173101.66243,-0.010803,0.008911,-0.993591,0.129252,0.386565,-0.039389,47,273,565,5712
1644173101.710652,-0.010559,0.008667,-0.992859,0.342992,0.569771,-0.100458,52,273,584,5664
1644173101.759021,-0.01239,0.007385,-0.991577,0.144519,0.447634,-0.25313,52,268,572,5712
1644173101.807436,-0.013245,0.006775,-0.993958,0.144519,0.386565,-0.25313,46,271,573,5648
1644173101.855866,-0.011353,0.010254,-0.994507,0.312458,0.386565,0.052214,46,276,578,5664
1644173101.904268,-0.010742,0.008545,-0.991821,0.236122,0.569771,-0.069924,48,266,578,5808
1644173101.952654,-0.010437,0.007751,-0.990784,0.159786,0.478168,-0.100458,51,274,573,5696
1644173102.001009,-0.009827,0.008057,-0.992798,0.220855,0.493435,0.021679,47,277,565,5760
1644173102.060408,-0.006531,0.010376,-0.992981,0.251389,0.432366,0.006412,52,268,586,5760
1644173102.097868,-0.009277,0.009583,-0.993408,0.175053,0.401832,-0.115725,41,276,578,5760
1644173102.146147,-0.008789,0.007019,-0.991028,0.251389,0.371298,0.006412,57,273,586,5760
1644173102.194676,-0.01123,0.010742,-0.990051,0.266656,0.401832,-0.268397,48,264,578,5728
1644173102.24296,-0.007202,0.009705,-0.993774,0.404061,0.462901,-0.130992,45,270,579,5696
1644173102.291325,-0.010559,0.009827,-0.993286,0.251389,0.432366,-0.268397,54,275,579,5728
1644173102.339733,-0.012573,0.00647,-0.991638,0.113985,0.386565,-0.115725,57,268,584,5760
1644173102.388122,-0.014526,0.009827,-0.992004,0.205588,0.401832,-0.085191,43,262,580,5760
1644173102.436499,-0.011047,0.010132,-0.992554,0.251389,0.432366,-0.008855,52,270,568,5824
1644173102.484879,-0.011353,0.007751,-0.992188,0.266656,0.325496,-0.100458,48,281,583,5696
1644173102.533278,-0.009888,0.010315,-0.993225,0.098718,0.432366,-0.115725,54,273,570,5728
1644173102.582739,-0.008362,0.008972,-0.991394,0.327725,0.417099,-0.069924,48,276,583,5728
1644173102.63296,-0.010986,0.007324,-0.996582,0.251389,0.401832,-0.024122,52,282,577,5760
1644173102.683418,-0.013123,0.010376,-0.997559,0.266656,0.401832,-0.100458,52,275,579,5712
1644173102.728514,-0.010559,0.008972,-0.991516,0.220855,0.371298,-0.314198,49,265,572,5664
1644173102.823681,-0.012573,0.00885,-0.990845,0.35826,0.264427,-0.085191,46,271,578,5728
1644173102.872069,-0.008545,0.00946,-0.992676,0.052916,0.493435,-0.054656,47,280,572,5760
1644173102.920455,-0.010254,0.006775,-0.99054,0.144519,0.523969,-0.024122,52,263,568,5712
1644173102.968839,-0.011963,0.007385,-0.992737,0.220855,0.371298,-0.008855,49,268,570,5696
1644173103.017226,-0.01239,0.009583,-0.994385,0.113985,0.310229,-0.115725,47,275,570,5712
1644173103.069568,-0.010559,0.006836,-0.991638,0.220855,0.493435,-0.085191,47,273,577,5728
1644173103.114018,-0.010132,0.008545,-0.99115,0.342992,0.386565,0.052214,51,279,569,5712
1644173103.162401,-0.00946,0.008118,-0.99054,0.327725,0.356031,-0.039389,43,279,566,5664
1644173103.210772,-0.012146,0.007935,-0.993774,0.281924,0.569771,-0.283664,45,277,575,5664
1644173103.25916,-0.01239,0.009644,-0.994446,0.205588,0.447634,-0.100458,40,273,563,5808
1644173103.307528,-0.009583,0.010864,-0.99176,0.220855,0.310229,-0.130992,43,269,573,5664
1644173103.355944,-0.009888,0.007141,-0.99054,0.281924,0.401832,-0.024122,54,275,577,5760
1644173103.404351,-0.009216,0.009766,-0.991394,0.205588,0.462901,-0.054656,52,270,572,5712
1644173103.452731,-0.010437,0.010925,-0.991882,0.113985,0.508702,-0.237863,48,274,573,5648
1644173103.501107,-0.011597,0.007446,-0.993652,0.220855,0.417099,0.006412,41,266,578,5696
1644173103.549504,-0.012573,0.007507,-0.993896,0.129252,0.401832,-0.14626,52,273,586,5728
1644173103.597897,-0.010864,0.008057,-0.991394,0.129252,0.462901,-0.054656,46,269,580,5664
1644173103.64628,-0.011841,0.008972,-0.991333,0.251389,0.539237,-0.176794,59,268,575,5712
1644173103.694684,-0.012207,0.007751,-0.994141,0.113985,0.340763,-0.192061,52,275,577,5648
1644173103.743128,-0.010193,0.00885,-0.991821,0.281924,0.401832,-0.024122,59,268,577,5696
1644173103.793569,-0.007996,0.006897,-0.991699,0.205588,0.508702,-0.176794,40,270,568,5696
1644173103.844087,-0.010864,0.007935,-0.989258,0.220855,0.325496,-0.100458,52,263,596,5712
1644173103.889236,-0.011963,0.00708,-0.993103,0.144519,0.417099,-0.176794,51,288,576,5712
1644173103.985329,-0.013489,0.008911,-0.992859,0.266656,0.371298,-0.054656,55,269,594,5696
1644173104.03345,-0.010437,0.009277,-0.989014,0.373527,0.523969,-0.115725,51,269,578,5760
1644173104.081966,-0.009949,0.005432,-0.992493,0.144519,0.386565,-0.14626,48,274,573,5776
1644173104.130178,-0.011658,0.008301,-0.994019,0.159786,0.371298,-0.100458,54,277,572,5728
1644173104.178571,-0.012695,0.007996,-0.992432,0.297191,0.417099,-0.039389,43,271,580,5760
1644173104.226963,-0.013184,0.006592,-0.994019,0.205588,0.401832,-0.14626,48,279,587,5696
1644173104.275356,-0.010498,0.008118,-0.994812,0.388794,0.417099,-0.085191,49,282,584,5664
1644173104.323779,-0.010498,0.01062,-0.990234,0.220855,0.371298,-0.024122,51,274,569,5664
1644173104.372194,-0.011963,0.008484,-0.992859,0.205588,0.493435,0.067481,47,268,577,5712
1644173104.420536,-0.010864,0.009521,-0.993958,0.159786,0.585038,-0.176794,49,287,582,5664
1644173104.468912,-0.012695,0.011597,-0.993103,0.251389,0.356031,-0.085191,46,274,580,5696
1644173104.517317,-0.010864,0.003906,-0.992737,0.251389,0.279695,-0.207328,46,276,576,5696
1644173104.565684,-0.013123,0.010681,-0.992065,0.251389,0.371298,-0.222595,49,273,582,5712
1644173104.614094,-0.01239,0.007935,-0.992371,0.373527,0.539237,-0.054656,52,273,586,5728
1644173104.662497,-0.01062,0.009827,-0.993896,0.327725,0.386565,-0.085191,54,275,577,5696
1644173104.710883,-0.011597,0.008667,-0.991516,0.220855,0.447634,-0.039389,55,281,569,5696
1644173104.759251,-0.011902,0.009644,-0.992432,0.281924,0.188092,-0.100458,54,273,572,5760
1644173104.807657,-0.009277,0.007141,-0.994019,0.434595,0.417099,-0.024122,62,274,580,5760
1644173104.856228,-0.011414,0.007629,-0.993591,0.205588,0.294962,-0.115725,61,270,584,5696
1644173104.905813,-0.012939,0.00824,-0.992676,0.220855,0.310229,-0.130992,48,276,571,5712
1644173104.956047,-0.013062,0.010071,-0.994507,0.113985,0.371298,0.021679,52,270,579,5696
1644173105.060462,-0.008972,0.009583,-0.991516,0.419328,0.340763,-0.069924,43,271,585,5696
1644173105.100758,-0.010071,0.008667,-0.993774,0.266656,0.356031,-0.069924,52,270,593,5760
1644173105.146425,-0.012329,0.010864,-0.994019,0.35826,0.447634,0.021679,51,269,569,5696
1644173105.194888,-0.010559,0.009583,-0.992859,0.129252,0.462901,-0.14626,48,279,585,5808
1644173105.243176,-0.013,0.007935,-0.992432,0.175053,0.523969,-0.115725,48,279,576,5696
1644173105.291544,-0.010437,0.008423,-0.993469,0.266656,0.432366,0.067481,49,280,575,5712
1644173105.339968,-0.008789,0.007874,-0.992432,0.236122,0.401832,-0.115725,45,265,584,5776
1644173105.388355,-0.009949,0.005676,-0.99292,0.129252,0.371298,-0.085191,57,277,584,5712
1644173105.436736,-0.01123,0.009338,-0.993408,0.373527,0.401832,-0.115725,48,271,587,5696
1644173105.485166,-0.009888,0.009216,-0.992493,0.098718,0.523969,-0.100458,53,264,580,5712
1644173105.533528,-0.008423,0.010803,-0.993774,0.190321,0.432366,-0.085191,51,269,576,5760
1644173105.581912,-0.012024,0.009827,-0.992493,0.190321,0.279695,0.036947,58,283,583,5712
1644173105.630308,-0.013916,0.009216,-0.992004,0.327725,0.386565,-0.054656,55,269,583,5712
1644173105.678721,-0.009033,0.011047,-0.991028,0.037649,0.447634,0.006412,57,273,582,5712
1644173105.728536,-0.009521,0.00824,-0.991028,0.113985,0.203359,-0.100458,54,280,577,5760
1644173105.778753,-0.008118,0.006165,-0.992004,0.159786,0.371298,-0.161527,42,273,579,5712
1644173105.828953,-0.01178,0.010132,-0.993835,0.373527,0.371298,-0.100458,46,274,576,5728
1644173105.920712,-0.01062,0.01239,-0.991821,0.373527,0.478168,0.036947,52,275,572,5696
1644173105.969068,-0.012268,0.009399,-0.990967,0.251389,0.294962,-0.115725,54,277,579,5824
1644173106.017522,-0.009338,0.009094,-0.990234,0.327725,0.539237,-0.115725,55,281,571,5696
1644173106.066739,-0.010925,0.00946,-0.991943,0.297191,0.432366,0.036947,48,266,583,5728
1644173106.114248,-0.012207,0.008911,-0.990967,0.251389,0.417099,-0.054656,39,264,585,5696
1644173106.162658,-0.011963,0.009521,-0.993042,0.480397,0.401832,-0.054656,53,266,569,5664
1644173106.211042,-0.013977,0.006287,-0.991699,0.144519,0.340763,-0.008855,59,275,579,5760
1644173106.259426,-0.011353,0.009949,-0.991699,0.266656,0.386565,-0.161527,46,281,571,5664
1644173106.307797,-0.011475,0.009766,-0.990845,0.144519,0.310229,-0.14626,51,276,578,5728
1644173106.356196,-0.010925,0.009399,-0.993835,0.205588,0.462901,-0.176794,58,274,580,5696
1644173106.404722,-0.011353,0.008423,-0.995239,0.251389,0.401832,-0.085191,46,279,587,5712
1644173106.453002,-0.010376,0.008362,-0.991455,0.175053,0.447634,-0.176794,51,274,580,5664
1644173106.501392,-0.010986,0.010193,-0.993042,0.175053,0.340763,-0.268397,46,279,576,5664
1644173106.549788,-0.012329,0.011536,-0.991821,0.236122,0.279695,-0.054656,53,281,578,5808
1644173106.598158,-0.014099,0.008179,-0.992554,0.068183,0.401832,-0.100458,61,270,570,5696
1644173106.646549,-0.010193,0.013367,-0.993713,0.175053,0.417099,-0.100458,58,279,573,5664
1644173106.694924,-0.009155,0.008362,-0.993103,0.281924,0.539237,-0.207328,41,276,573,5664
1644173106.743528,-0.011475,0.009094,-0.993164,0.251389,0.203359,-0.069924,48,283,580,5712
1644173106.791758,-0.010803,0.010193,-0.99231,0.281924,0.523969,0.067481,45,268,568,5776
1644173106.842014,-0.012268,0.010193,-0.992798,0.297191,0.523969,-0.054656,51,269,576,5696
1644173106.892219,-0.011597,0.006958,-0.990662,0.175053,0.279695,-0.130992,47,277,586,5664
1644173106.942288,-0.013733,0.008118,-0.990784,0.297191,0.24916,-0.069924,41,279,578,5664
1644173107.033716,-0.011475,0.009399,-0.991394,0.098718,0.447634,-0.100458,55,276,573,5760
1644173107.08341,-0.009399,0.00885,-0.994995,0.281924,0.310229,-0.14626,35,270,582,5696
1644173107.130396,-0.009521,0.007019,-0.992249,0.190321,0.401832,-0.161527,48,274,576,5696
1644173107.178814,-0.01062,0.009644,-0.992493,0.342992,0.401832,-0.207328,42,270,582,5728
1644173107.227186,-0.012451,0.010437,-0.990784,0.220855,0.432366,0.067481,45,273,570,5712
1644173107.275561,-0.010742,0.009094,-0.99176,0.266656,0.417099,-0.069924,53,274,580,5696
1644173107.323988,-0.010132,0.010437,-0.992859,0.312458,0.478168,-0.115725,58,271,573,5760
1644173107.372381,-0.010132,0.008118,-0.989746,0.205588,0.462901,-0.207328,55,266,576,5760
1644173107.420781,-0.011536,0.009766,-0.993225,0.220855,0.478168,-0.207328,38,270,579,5712
1644173107.469153,-0.011353,0.007812,-0.994873,0.266656,0.386565,-0.008855,47,270,570,5712
1644173107.517552,-0.010315,0.008118,-0.992676,0.205588,0.539237,-0.161527,52,280,570,5728
1644173107.565938,-0.010559,0.007568,-0.992615,0.129252,0.340763,-0.024122,53,276,576,5760
1644173107.61433,-0.007812,0.008667,-0.989258,0.342992,0.371298,-0.176794,52,275,584,5664
1644173107.662736,-0.010376,0.010071,-0.992554,0.190321,0.417099,-0.161527,45,270,568,5712
1644173107.711112,-0.011353,0.009033,-0.992493,0.404061,0.447634,-0.130992,49,277,565,5712
1644173107.759499,-0.013428,0.011292,-0.994873,0.220855,0.539237,-0.298931,51,274,580,5760
1644173107.807927,-0.009033,0.008972,-0.992188,0.159786,0.508702,-0.207328,48,271,578,5712
1644173107.857147,-0.012512,0.010742,-0.993469,0.281924,0.432366,-0.161527,49,275,572,5696
1644173107.907312,-0.008972,0.010376,-0.990295,0.236122,0.493435,-0.115725,45,277,575,5696
1644173107.957762,-0.013,0.009888,-0.995361,0.236122,0.24916,-0.192061,49,268,577,5712
1644173108.065565,-0.010864,0.008118,-0.994019,0.327725,0.462901,-0.192061,53,279,587,5712
1644173108.100107,-0.013,0.009033,-0.990112,0.281924,0.340763,0.052214,45,275,584,5696
1644173108.146619,-0.009399,0.010437,-0.991455,0.419328,0.417099,-0.176794,48,274,578,5760
1644173108.195131,-0.009949,0.010498,-0.989197,0.297191,0.508702,-0.207328,45,275,589,5696
1644173108.243417,-0.00647,0.009949,-0.993713,0.144519,0.462901,-0.176794,51,279,583,5728
1644173108.291791,-0.010071,0.009277,-0.993286,0.342992,0.478168,-0.115725,45,275,570,5712
1644173108.340177,-0.010681,0.007507,-0.993042,0.190321,0.508702,-0.161527,38,277,586,5696
1644173108.38858,-0.008911,0.007812,-0.993591,0.068183,0.432366,-0.176794,61,282,586,5728
1644173108.436967,-0.00769,0.009033,-0.99176,0.175053,0.493435,-0.024122,51,274,585,5776
1644173108.48536,-0.012512,0.009949,-0.995056,0.220855,0.386565,0.082748,48,271,578,5648
1644173108.533768,-0.01001,0.007141,-0.991394,0.205588,0.508702,-0.069924,49,270,589,5696
1644173108.582564,-0.01123,0.007141,-0.991638,0.129252,0.401832,-0.039389,54,265,579,5664
1644173108.633269,-0.011658,0.006348,-0.99231,0.327725,0.340763,-0.085191,48,269,571,5760
1644173108.683325,-0.010071,0.010376,-0.991821,0.220855,0.462901,-0.039389,42,282,582,5728
1644173108.728422,-0.014465,0.009216,-0.99292,0.373527,0.279695,-0.192061,55,276,583,5728
1644173108.824129,-0.007874,0.008362,-0.991333,0.175053,0.356031,-0.222595,55,274,573,5728
1644173108.872534,-0.009705,0.007629,-0.992615,0.159786,0.371298,-0.039389,48,276,576,5648
1644173108.920885,-0.011353,0.009888,-0.993164,0.404061,0.264427,-0.039389,54,275,577,5696
1644173108.969308,-0.011658,0.009399,-0.993042,0.266656,0.325496,-0.085191,43,266,580,5728
1644173109.017661,-0.01062,0.00769,-0.994812,0.388794,0.356031,-0.25313,49,268,570,5696
1644173109.066758,-0.010376,0.008118,-0.992981,0.159786,0.325496,-0.192061,51,279,571,5696
1644173109.114522,-0.011719,0.008057,-0.994141,0.236122,0.401832,-0.024122,48,276,578,5760
1644173109.162816,-0.011047,0.007324,-0.990479,0.404061,0.478168,-0.069924,47,273,572,5712
1644173109.211219,-0.010803,0.006836,-0.991394,0.159786,0.417099,-0.130992,51,276,573,5712
1644173109.259589,-0.006287,0.01062,-0.992981,0.236122,0.340763,-0.237863,49,280,570,5696
1644173109.307964,-0.00824,0.009155,-0.991455,0.297191,0.356031,-0.039389,61,273,579,5696
1644173109.356436,-0.011047,0.010498,-0.99292,0.236122,0.294962,-0.207328,45,275,577,5664
1644173109.404781,-0.011414,0.00946,-0.992371,0.159786,0.432366,-0.176794,61,277,586,5696
1644173109.453189,-0.00946,0.008423,-0.993347,0.129252,0.417099,0.052214,52,273,572,5696
1644173109.501565,-0.01239,0.01001,-0.992188,0.312458,0.371298,-0.054656,42,282,582,5664
1644173109.54995,-0.012939,0.006714,-0.992249,0.144519,0.401832,-0.314198,57,280,584,5776
1644173109.598395,-0.009827,0.004578,-0.993896,0.220855,0.24916,-0.008855,60,281,566,5696
1644173109.646734,-0.012573,0.008728,-0.993896,0.144519,0.447634,-0.054656,46,271,587,5696
1644173109.695163,-0.009644,0.006958,-0.992798,0.266656,0.401832,0.006412,55,271,576,5760
1644173109.743547,-0.009827,0.009705,-0.993164,0.159786,0.417099,0.067481,54,277,572,5696
1644173109.793654,-0.010315,0.008606,-0.992065,0.236122,0.585038,-0.100458,55,276,573,5696
1644173109.84524,-0.013611,0.007324,-0.990295,0.236122,0.539237,-0.130992,49,277,582,5728
1644173109.889626,-0.013245,0.006409,-0.994385,0.327725,0.554504,-0.161527,45,268,579,5696
1644173109.985499,-0.01178,0.00769,-0.993713,0.190321,0.386565,0.036947,52,273,575,5696
1644173110.033927,-0.009827,0.011169,-0.991699,0.312458,0.462901,-0.100458,52,277,572,5696
1644173110.082368,-0.009949,0.009827,-0.995483,0.373527,0.447634,-0.054656,60,276,578,5648
1644173110.130667,-0.008301,0.008789,-0.992493,0.175053,0.401832,-0.14626,52,275,579,5696
1644173110.179028,-0.011047,0.007996,-0.992615,0.266656,0.508702,-0.130992,38,273,577,5648
1644173110.227422,-0.010193,0.007935,-0.993225,0.373527,0.478168,-0.024122,54,270,579,5696
1644173110.275794,-0.009644,0.009888,-0.993347,0.220855,0.294962,-0.085191,52,280,572,5696
1644173110.324219,-0.01001,0.009705,-0.991089,0.113985,0.356031,-0.207328,62,269,585,5760
1644173110.372612,-0.012207,0.007385,-0.992615,0.312458,0.447634,-0.14626,55,286,576,5712
1644173110.420995,-0.013733,0.009949,-0.996033,0.388794,0.569771,-0.176794,55,274,576,5728
1644173110.469381,-0.007629,0.010742,-0.99353,0.281924,0.447634,0.052214,53,264,580,5696
1644173110.51777,-0.010803,0.007507,-0.99353,0.190321,0.356031,-0.069924,34,276,576,5696
1644173110.566155,-0.013245,0.007141,-0.993103,0.236122,0.279695,-0.115725,51,276,578,5728
1644173110.614684,-0.011597,0.011169,-0.991943,0.312458,0.371298,-0.085191,52,277,582,5664
1644173110.662962,-0.012207,0.006714,-0.995056,0.388794,0.401832,-0.161527,49,258,575,5712
1644173110.711316,-0.008423,0.009827,-0.993164,0.220855,0.340763,-0.176794,48,269,590,5696
1644173110.759691,-0.012451,0.010498,-0.990417,0.113985,0.447634,-0.054656,52,265,577,5776
1644173110.808102,-0.012451,0.008728,-0.993774,0.342992,0.462901,-0.14626,45,277,572,5760
1644173110.856976,-0.012573,0.008118,-0.992126,0.373527,0.371298,-0.024122,54,275,584,5696
1644173110.905988,-0.009766,0.008484,-0.993103,0.297191,0.325496,-0.130992,51,269,580,5728
1644173110.956925,-0.011963,0.007874,-0.994019,0.266656,0.340763,-0.008855,48,274,576,5600
1644173111.06037,-0.010132,0.009216,-0.992065,0.098718,0.417099,-0.14626,45,273,577,5728
1644173111.098579,-0.012695,0.008179,-0.992371,0.022382,0.310229,-0.039389,61,265,575,5664
1644173111.146897,-0.012512,0.00885,-0.994385,0.190321,0.462901,-0.100458,53,279,564,5696
1644173111.195249,-0.01178,0.010315,-0.993103,0.236122,0.340763,-0.176794,52,275,579,5712
1644173111.243632,-0.008606,0.01123,-0.991699,0.037649,0.401832,-0.100458,51,276,583,5696
1644173111.291996,-0.01062,0.006653,-0.99353,0.327725,0.371298,-0.115725,48,279,578,5664
1644173111.340424,-0.009521,0.005615,-0.994629,0.281924,0.386565,-0.329466,43,276,564,5664
1644173111.388812,-0.010437,0.009766,-0.992737,0.327725,0.585038,-0.100458,48,269,585,5712
1644173111.437179,-0.012085,0.007324,-0.993286,0.159786,0.371298,0.067481,55,264,576,5696
1644173111.485578,-0.009094,0.006958,-0.992493,0.144519,0.24916,-0.14626,52,280,577,5728
1644173111.533983,-0.010864,0.009705,-0.991028,0.297191,0.356031,-0.054656,47,275,575,5728
1644173111.582381,-0.009033,0.007935,-0.991882,0.068183,0.432366,-0.130992,47,277,579,5728
1644173111.630752,-0.010437,0.008057,-0.991516,0.175053,0.340763,-0.115725,48,266,576,5712
1644173111.679421,-0.010315,0.007935,-0.994385,0.159786,0.264427,-0.192061,62,274,566,5728
1644173111.728153,-0.008911,0.011719,-0.989197,0.220855,0.401832,-0.161527,47,263,584,5712
1644173111.778856,-0.009644,0.009216,-0.992493,0.08345,0.401832,-0.14626,46,276,583,5696
1644173111.829021,-0.010803,0.008301,-0.991516,0.327725,0.508702,-0.024122,48,271,576,5664
1644173111.921129,-0.01239,0.010132,-0.992371,0.297191,0.386565,-0.069924,51,276,583,5664
1644173111.969515,-0.008728,0.009277,-0.992249,0.297191,0.279695,-0.314198,45,282,579,5696
1644173112.017915,-0.009949,0.008606,-0.99231,0.190321,0.478168,-0.176794,55,286,573,5696
1644173112.066358,-0.011108,0.008301,-0.991577,0.190321,0.386565,-0.176794,54,277,570,5696
1644173112.114686,-0.006958,0.010071,-0.993408,0.297191,0.356031,-0.222595,46,283,578,5728
1644173112.163078,-0.010864,0.00769,-0.993835,0.419328,0.462901,-0.100458,47,285,575,5696
1644173112.211442,-0.010193,0.010925,-0.992798,0.251389,0.63084,-0.115725,48,271,580,5728
1644173112.259842,-0.014221,0.006531,-0.990601,0.297191,0.294962,-0.222595,46,266,580,5696
1644173112.308231,-0.010986,0.00824,-0.994263,0.175053,0.478168,-0.054656,59,277,570,5728
1644173112.356623,-0.010071,0.008301,-0.992676,0.205588,0.233893,-0.069924,52,280,582,5712
1644173112.405133,-0.011108,0.004333,-0.995483,0.220855,0.401832,-0.085191,47,270,586,5696
1644173112.453384,-0.009155,0.011963,-0.992065,0.205588,0.447634,-0.237863,49,260,572,5760
1644173112.501805,-0.01239,0.009277,-0.993225,0.236122,0.325496,-0.25313,57,280,579,5648
1644173112.550179,-0.011047,0.008789,-0.992859,0.190321,0.386565,-0.024122,49,280,570,5664
1644173112.598574,-0.009216,0.007874,-0.994812,0.312458,0.539237,-0.161527,51,276,585,5760
1644173112.64697,-0.012817,0.007812,-0.991882,0.220855,0.188092,-0.085191,55,264,571,5696
1644173112.695346,-0.010071,0.008972,-0.995056,0.190321,0.447634,-0.115725,52,273,582,5712
1644173112.743739,-0.012451,0.007996,-0.993164,0.434595,0.386565,-0.069924,51,274,580,5664
1644173112.792757,-0.01178,0.007874,-0.993591,0.175053,0.386565,0.052214,52,273,577,5696
1644173112.843053,-0.010925,0.010803,-0.990723,0.251389,0.462901,-0.115725,46,269,578,5760
1644173112.893493,-0.008911,0.009521,-0.994141,0.251389,0.294962,-0.222595,45,275,577,5664
1644173112.937974,-0.010681,0.007385,-0.996216,0.236122,0.325496,-0.176794,57,280,575,5728
1644173113.034124,-0.011047,0.007568,-0.995361,0.159786,0.539237,-0.176794,59,265,579,5760
1644173113.08261,-0.01123,0.00885,-0.992371,0.220855,0.386565,-0.054656,49,275,582,5760
1644173113.130869,-0.010254,0.008606,-0.992493,0.220855,0.462901,0.036947,48,271,580,5760
1644173113.179253,-0.011719,0.009521,-0.993164,0.373527,0.417099,0.021679,51,283,580,5696
1644173113.227633,-0.009949,0.00824,-0.991455,0.220855,0.508702,-0.176794,47,270,572,5584
1644173113.276035,-0.008667,0.010437,-0.992432,0.190321,0.447634,-0.100458,49,273,593,5760
1644173113.324435,-0.010986,0.008301,-0.992249,0.251389,0.478168,-0.161527,49,268,577,5696
1644173113.372841,-0.010193,0.010986,-0.990723,0.205588,0.340763,-0.115725,54,265,584,5632
1644173113.421231,-0.010681,0.007385,-0.991028,0.190321,0.462901,-0.054656,54,285,565,5808
1644173113.469613,-0.011719,0.010559,-0.995239,0.175053,0.462901,-0.14626,54,277,572,5712
1644173113.517993,-0.008606,0.008301,-0.993652,0.251389,0.356031,-0.054656,46,264,583,5648
1644173113.566396,-0.009338,0.010315,-0.991333,0.236122,0.356031,-0.100458,52,268,591,5728
1644173113.614795,-0.013794,0.010437,-0.992615,0.175053,0.417099,-0.130992,59,273,579,5728
1644173113.66318,-0.009216,0.010132,-0.992981,0.190321,0.340763,0.021679,60,269,585,5696
1644173113.711549,-0.010376,0.010742,-0.993652,0.175053,0.371298,-0.14626,57,280,575,5712
1644173113.759928,-0.009644,0.010254,-0.988892,0.297191,0.325496,-0.054656,36,274,580,5696
1644173113.808379,-0.010864,0.009216,-0.990601,0.205588,0.523969,0.021679,51,276,571,5712
1644173113.856775,-0.008972,0.009521,-0.990906,0.190321,0.432366,-0.085191,47,275,572,5728
1644173113.905277,-0.011475,0.008545,-0.9953,0.388794,0.279695,-0.008855,53,279,583,5760
1644173113.955814,-0.007996,0.011597,-0.991394,0.205588,0.340763,0.082748,49,275,584,5712
1644173114.062992,-0.009583,0.010681,-0.992554,0.129252,0.340763,-0.085191,48,279,580,5728
1644173114.100595,-0.008423,0.009766,-0.993896,0.205588,0.340763,-0.069924,49,265,575,5696
1644173114.14706,-0.01178,0.007446,-0.992798,0.205588,0.401832,-0.069924,49,260,575,5696
1644173114.19546,-0.010559,0.00824,-0.992737,0.236122,0.508702,-0.130992,51,264,578,5696
1644173114.243862,-0.013184,0.010925,-0.993591,0.220855,0.310229,-0.085191,51,281,578,5728
1644173114.292268,-0.008179,0.011047,-0.991211,0.205588,0.508702,-0.237863,51,281,578,5648
1644173114.340609,-0.009827,0.010803,-0.992859,0.266656,0.447634,-0.039389,49,277,575,5712
1644173114.38904,-0.010498,0.010193,-0.991699,0.327725,0.371298,-0.024122,42,280,579,5696
1644173114.437424,-0.009521,0.008545,-0.992981,0.388794,0.386565,-0.085191,53,281,576,5696
1644173114.485809,-0.011292,0.010254,-0.991516,0.205588,0.371298,-0.069924,48,266,578,5728
1644173114.534219,-0.01123,0.008728,-0.992737,0.251389,0.417099,-0.085191,52,268,582,5760
1644173114.582755,-0.009155,0.012329,-0.993042,0.342992,0.493435,-0.115725,52,270,589,5648
1644173114.630986,-0.008179,0.009949,-0.993042,0.388794,0.356031,-0.222595,57,275,575,5760
1644173114.680339,-0.00946,0.00946,-0.989929,0.342992,0.356031,-0.100458,62,279,583,5728
1644173114.730792,-0.012695,0.010132,-0.993958,0.068183,0.325496,-0.085191,49,275,589,5664
1644173114.781057,-0.011353,0.011414,-0.99054,0.297191,0.447634,-0.024122,48,274,585,5712
1644173114.873037,-0.010681,0.007812,-0.992004,0.220855,0.264427,-0.130992,58,286,573,5632
1644173114.92133,-0.012085,0.009155,-0.991882,0.251389,0.417099,-0.130992,59,265,570,5664
1644173114.969731,-0.009888,0.011169,-0.988953,0.220855,0.310229,-0.008855,47,282,579,5776
1644173115.018119,-0.009521,0.007874,-0.991272,0.220855,0.447634,-0.054656,49,273,572,5648
1644173115.069895,-0.00708,0.009705,-0.993652,0.236122,0.478168,0.082748,41,279,573,5696
1644173115.114909,-0.011414,0.009277,-0.990967,0.175053,0.340763,0.021679,49,277,582,5760
1644173115.163292,-0.010254,0.009216,-0.989807,0.236122,0.325496,-0.115725,49,275,575,5696
1644173115.211672,-0.012085,0.006531,-0.993042,0.297191,0.386565,-0.039389,59,270,577,5696
1644173115.260062,-0.011597,0.009766,-0.996338,0.220855,0.386565,-0.115725,54,273,572,5696
1644173115.308429,-0.010193,0.009949,-0.991638,0.159786,0.325496,-0.085191,39,279,583,5712
1644173115.356865,-0.012634,0.007019,-0.995605,0.175053,0.417099,-0.039389,54,273,577,5696
1644173115.405304,-0.008423,0.006104,-0.992004,0.159786,0.371298,-0.069924,42,273,572,5648
1644173115.453639,-0.009644,0.008179,-0.991272,0.175053,0.493435,-0.069924,46,274,576,5696
1644173115.502033,-0.009521,0.007874,-0.991089,0.251389,0.523969,-0.085191,48,269,583,5664
1644173115.550403,-0.009583,0.005981,-0.99408,0.129252,0.432366,0.006412,46,276,578,5696
1644173115.598764,-0.010803,0.008667,-0.992432,0.312458,0.462901,-0.100458,58,276,573,5664
1644173115.647186,-0.010864,0.012146,-0.993225,0.144519,0.386565,-0.085191,54,268,577,5696
1644173115.69558,-0.010437,0.007874,-0.990173,0.159786,0.523969,-0.039389,52,268,589,5712
1644173115.743981,-0.008789,0.007446,-0.990234,0.266656,0.371298,0.006412,54,273,584,5728
1644173115.792543,-0.010498,0.009277,-0.993835,0.312458,0.417099,-0.115725,53,279,576,5728
1644173115.844334,-0.009766,0.008484,-0.990967,0.266656,0.432366,0.036947,47,270,575,5728
1644173115.894391,-0.009399,0.009094,-0.993835,0.342992,0.294962,-0.054656,53,283,580,5712
1644173115.938987,-0.005859,0.007751,-0.994568,0.404061,0.600305,-0.100458,43,266,576,5664
1644173116.034359,-0.009644,0.009033,-0.99231,0.46513,0.386565,0.067481,46,274,578,5712
1644173116.08584,-0.01178,0.009888,-0.994629,0.266656,0.432366,-0.024122,54,282,582,5712
1644173116.13114,-0.012756,0.008362,-0.993896,0.159786,0.401832,-0.054656,42,268,570,5664
1644173116.179484,-0.010071,0.009399,-0.993713,0.159786,0.432366,-0.115725,57,273,572,5696
1644173116.227847,-0.011353,0.007935,-0.993835,0.388794,0.478168,0.021679,53,274,580,5696
1644173116.276258,-0.013184,0.009338,-0.994568,0.129252,0.432366,-0.207328,57,270,586,5696
1644173116.324677,-0.013306,0.006897,-0.991943,0.251389,0.386565,0.021679,58,264,580,5760
1644173116.37308,-0.009766,0.011536,-0.993774,0.312458,0.462901,-0.039389,57,280,572,5760
1644173116.421425,-0.008057,0.008362,-0.994873,0.159786,0.279695,-0.130992,35,270,570,5760
1644173116.469828,-0.010986,0.008118,-0.990662,0.144519,0.356031,-0.085191,43,266,573,5696
1644173116.51825,-0.010559,0.007751,-0.991089,0.312458,0.478168,-0.069924,52,263,577,5728
1644173116.566605,-0.012329,0.005981,-0.992737,0.297191,0.569771,-0.14626,52,275,584,5664
1644173116.61504,-0.013916,0.010132,-0.992371,0.297191,0.493435,-0.100458,53,271,585,5728
1644173116.663388,-0.011353,0.010132,-0.992859,0.266656,0.386565,-0.192061,51,271,569,5808
1644173116.711784,-0.011902,0.007202,-0.992249,0.404061,0.371298,0.036947,54,280,584,5696
1644173116.760172,-0.011169,0.01001,-0.992004,0.266656,0.508702,0.113282,53,274,583,5696
1644173116.808545,-0.010315,0.010437,-0.991699,0.327725,0.340763,0.006412,54,275,572,5696
1644173116.857521,-0.011902,0.010803,-0.990662,0.220855,0.294962,-0.024122,54,275,577,5696
1644173116.908638,-0.01001,0.007629,-0.990112,0.068183,0.371298,-0.024122,43,283,573,5712
1644173116.958808,-0.008362,0.010254,-0.99176,0.159786,0.386565,0.006412,48,266,569,5664
1644173117.068076,-0.01062,0.010376,-0.990356,0.236122,0.447634,-0.130992,54,268,575,5664
1644173117.099235,-0.010315,0.010193,-0.991333,0.190321,0.386565,-0.161527,52,273,582,5760
1644173117.147338,-0.013306,0.00946,-0.991882,0.281924,0.310229,-0.115725,53,279,576,5760
1644173117.195701,-0.013489,0.00647,-0.992493,0.281924,0.478168,-0.192061,51,276,578,5664
1644173117.24409,-0.007874,0.008606,-0.993042,0.190321,0.447634,-0.207328,57,263,575,5664
1644173117.292493,-0.011414,0.007385,-0.993225,0.434595,0.462901,-0.069924,52,282,565,5712
1644173117.340866,-0.012573,0.007874,-0.991455,0.281924,0.401832,-0.130992,46,276,573,5728
1644173117.389267,-0.011414,0.010437,-0.992065,0.175053,0.523969,-0.054656,52,265,582,5728
1644173117.437646,-0.012207,0.009155,-0.991821,0.388794,0.401832,-0.069924,52,277,575,5664
1644173117.486028,-0.012512,0.009521,-0.993835,0.113985,0.371298,-0.039389,47,280,575,5712
1644173117.534919,-0.012024,0.010315,-0.992126,0.220855,0.371298,-0.069924,48,271,573,5696
1644173117.585013,-0.014526,0.010071,-0.993958,0.190321,0.325496,-0.176794,43,269,571,5696
1644173117.635262,-0.010071,0.010254,-0.994995,0.281924,0.523969,-0.14626,40,275,582,5664
1644173117.680455,-0.010803,0.009888,-0.992432,0.251389,0.325496,-0.100458,49,270,575,5712
1644173117.776358,-0.009583,0.01001,-0.993774,0.388794,0.432366,-0.085191,47,270,572,5760
1644173117.824866,-0.009277,0.008789,-0.992249,0.297191,0.203359,-0.14626,47,273,577,5712
1644173117.873197,-0.008179,0.01001,-0.993225,0.297191,0.478168,-0.115725,49,280,572,5696
1644173117.92158,-0.011047,0.007446,-0.991638,0.419328,0.401832,-0.008855,52,277,579,5712
1644173117.969972,-0.009216,0.006531,-0.994141,0.404061,0.325496,-0.161527,41,276,569,5824
1644173118.018367,-0.013245,0.007812,-0.994995,0.251389,0.356031,0.021679,49,277,577,5696
1644173118.068307,-0.011597,0.00946,-0.994202,0.35826,0.325496,-0.039389,49,277,575,5664
1644173118.115295,-0.01123,0.007446,-0.994873,0.098718,0.386565,-0.039389,57,280,582,5760
1644173118.163512,-0.010681,0.009644,-0.990356,0.205588,0.417099,-0.100458,55,279,580,5824
1644173118.211901,-0.009338,0.008545,-0.990906,0.220855,0.356031,0.021679,53,279,578,5664
1644173118.260291,-0.011658,0.009521,-0.992065,0.297191,0.218626,-0.176794,60,279,571,5760
1644173118.30866,-0.01178,0.01001,-0.993591,0.175053,0.493435,-0.100458,58,274,578,5696
1644173118.357073,-0.013184,0.007935,-0.992249,0.052916,0.432366,-0.115725,54,273,572,5696
1644173118.405465,-0.007629,0.008423,-0.990479,0.190321,0.432366,-0.024122,46,279,573,5760
1644173118.453859,-0.009827,0.009216,-0.994629,0.297191,0.233893,-0.085191,52,285,575,5696
1644173118.502227,-0.012695,0.009277,-0.992737,0.342992,0.386565,-0.100458,53,279,576,5712
1644173118.550609,-0.011169,0.007202,-0.994873,0.35826,0.478168,-0.085191,52,275,577,5760
1644173118.599016,-0.006958,0.007751,-0.995911,0.266656,0.508702,-0.14626,43,269,576,5760
1644173118.647419,-0.009155,0.00946,-0.99054,0.236122,0.371298,-0.130992,58,271,576,5712
1644173118.696439,-0.011841,0.006592,-0.991821,0.342992,0.432366,-0.069924,47,268,579,5712
1644173118.746866,-0.011108,0.008606,-0.994995,0.342992,0.401832,-0.054656,49,275,582,5728
1644173118.797124,-0.008972,0.011597,-0.990784,0.159786,0.233893,-0.054656,52,280,575,5696
1644173118.842241,-0.009155,0.006714,-0.993958,0.220855,0.508702,-0.085191,51,274,578,5776
1644173118.93779,-0.010864,0.009277,-0.992126,0.327725,0.401832,-0.115725,39,276,580,5648
1644173118.986164,-0.010132,0.008972,-0.990845,0.266656,0.294962,-0.115725,53,276,573,5728
1644173119.034843,-0.010315,0.011475,-0.995117,0.190321,0.447634,-0.100458,49,265,579,5760
1644173119.083094,-0.008789,0.00946,-0.992737,0.220855,0.493435,-0.115725,54,277,575,5712
1644173119.131327,-0.007202,0.008362,-0.991394,0.297191,0.462901,-0.176794,53,264,576,5696
1644173119.1797,-0.012024,0.007141,-0.994751,0.327725,0.462901,-0.085191,57,280,577,5760
1644173119.228096,-0.011353,0.008972,-0.992981,0.35826,0.325496,-0.054656,51,281,569,5760
1644173119.27649,-0.011414,0.006592,-0.995728,0.236122,0.417099,-0.192061,66,275,570,5696
1644173119.324867,-0.009827,0.008179,-0.992493,0.052916,0.356031,-0.085191,49,277,575,5760
1644173119.373263,-0.010498,0.010498,-0.994202,0.220855,0.356031,-0.25313,49,273,575,5712
1644173119.42168,-0.011292,0.008667,-0.992371,0.312458,0.462901,-0.115725,52,280,586,5664
1644173119.470034,-0.010376,0.006775,-0.991455,0.175053,0.585038,-0.069924,48,283,573,5712
1644173119.518433,-0.011719,0.008301,-0.99292,0.312458,0.371298,-0.237863,45,280,577,5632
1644173119.566828,-0.012573,0.007935,-0.991882,0.266656,0.386565,0.036947,45,275,579,5728
1644173119.615227,-0.013733,0.007935,-0.993774,0.113985,0.325496,-0.130992,54,275,582,5776
1644173119.663623,-0.010864,0.008545,-0.993958,0.190321,0.356031,-0.054656,57,280,584,5648
1644173119.712021,-0.01062,0.010193,-0.993103,0.068183,0.371298,-0.024122,39,271,576,5696
1644173119.760398,-0.012207,0.009766,-0.993408,0.266656,0.356031,-0.115725,45,275,577,5760
1644173119.808842,-0.012512,0.009399,-0.994263,0.297191,0.432366,-0.115725,42,268,570,5664
1644173119.858451,-0.010925,0.00769,-0.99231,0.052916,0.417099,-0.100458,45,277,572,5712
1644173119.908702,-0.011841,0.008362,-0.993713,0.220855,0.417099,-0.054656,48,276,578,5776
1644173119.958921,-0.011597,0.008301,-0.99353,0.220855,0.371298,-0.115725,54,280,577,5664
1644173120.069624,-0.012146,0.005676,-0.993713,0.281924,0.447634,-0.069924,47,280,584,5696
1644173120.102787,-0.01001,0.009827,-0.991516,0.281924,0.493435,-0.039389,49,280,579,5648
1644173120.147529,-0.009766,0.009949,-0.994751,0.251389,0.417099,-0.130992,52,273,582,5648
1644173120.195935,-0.012451,0.008545,-0.992432,0.327725,0.447634,-0.176794,47,277,572,5664
1644173120.244323,-0.013184,0.009338,-0.992126,0.144519,0.447634,-0.237863,47,273,582,5728
1644173120.292719,-0.012512,0.008057,-0.992554,0.144519,0.447634,0.143817,53,276,578,5776
1644173120.341095,-0.009583,0.006409,-0.993103,0.190321,0.386565,-0.069924,45,282,584,5664
1644173120.389482,-0.01178,0.007263,-0.989929,0.281924,0.371298,-0.130992,48,264,576,5664
1644173120.437871,-0.011719,0.011902,-0.993347,0.113985,0.432366,-0.176794,59,260,584,5696
1644173120.48628,-0.009949,0.008972,-0.992859,0.205588,0.417099,-0.100458,43,264,580,5776
1644173120.535814,-0.010071,0.009216,-0.991821,0.266656,0.661374,0.082748,55,274,578,5728
1644173120.586143,-0.011292,0.008789,-0.992065,0.251389,0.493435,-0.115725,52,273,579,5728
1644173120.636679,-0.011292,0.008484,-0.992859,0.220855,0.401832,-0.192061,59,265,584,5696
1644173120.728207,-0.011719,0.006897,-0.992188,0.312458,0.432366,0.036947,49,270,577,5760
1644173120.776581,-0.00708,0.008667,-0.992065,0.404061,0.539237,-0.130992,46,269,585,5696
1644173120.825315,-0.00885,0.009521,-0.991455,0.297191,0.569771,0.006412,47,273,570,5712
1644173120.873431,-0.014648,0.007812,-0.99176,0.129252,0.371298,-0.085191,55,271,583,5696
1644173120.921805,-0.011475,0.009216,-0.991821,0.190321,0.340763,-0.207328,55,271,573,5712
1644173120.970207,-0.010254,0.009033,-0.990479,0.312458,0.508702,-0.207328,48,274,587,5712
1644173121.018572,-0.013123,0.006042,-0.99292,0.190321,0.218626,0.006412,43,283,571,5696
1644173121.072251,-0.014038,0.009766,-0.99292,0.327725,0.493435,-0.085191,48,274,578,5712
1644173121.116097,-0.011353,0.009583,-0.990906,0.144519,0.447634,-0.130992,55,276,583,5664
1644173121.163737,-0.010925,0.008484,-0.991882,-0.053954,0.325496,-0.085191,52,265,579,5696
1644173121.212276,-0.013611,0.009827,-0.991272,0.35826,0.478168,-0.192061,49,270,589,5712
1644173121.260493,-0.014038,0.008179,-0.992615,0.159786,0.554504,-0.192061,36,266,578,5728
1644173121.308921,-0.00946,0.010498,-0.991882,0.220855,0.401832,-0.069924,38,277,577,5664
1644173121.357294,-0.009033,0.010437,-0.990967,0.312458,0.508702,0.006412,48,274,578,5760
1644173121.40567,-0.010193,0.008545,-0.991943,0.190321,0.447634,-0.176794,52,275,586,5696
1644173121.454082,-0.010986,0.009888,-0.992249,0.236122,0.462901,-0.100458,59,273,570,5696
1644173121.50245,-0.009399,0.008423,-0.990112,0.236122,0.478168,-0.069924,55,279,578,5728
1644173121.550858,-0.010071,0.010681,-0.994995,0.297191,0.401832,-0.100458,53,276,583,5696
1644173121.599287,-0.008545,0.009583,-0.993652,0.205588,0.325496,-0.161527,64,275,579,5760
1644173121.648143,-0.009705,0.010315,-0.992798,0.220855,0.508702,-0.039389,48,276,583,5696
1644173121.698706,-0.009827,0.008484,-0.991455,0.220855,0.386565,-0.161527,57,275,579,5696
1644173121.748671,-0.006775,0.01001,-0.992615,0.312458,0.478168,-0.115725,47,282,575,5760
1644173121.793755,-0.009705,0.007446,-0.98938,0.312458,0.401832,-0.130992,45,273,572,5712
1644173121.889628,-0.00946,0.006714,-0.992249,0.373527,0.340763,-0.130992,52,273,572,5760
1644173121.938013,-0.013,0.008667,-0.991577,0.190321,0.493435,-0.237863,49,277,575,5728
1644173121.986397,-0.010498,0.005249,-0.99115,0.35826,0.401832,0.021679,48,279,576,5712
1644173122.034826,-0.011963,0.00885,-0.991272,0.190321,0.417099,0.006412,51,276,569,5696
1644173122.083255,-0.009216,0.008118,-0.994324,0.144519,0.493435,-0.069924,49,268,572,5712
1644173122.131598,-0.008423,0.008728,-0.992676,0.236122,0.462901,-0.085191,48,281,566,5696
1644173122.179946,-0.011597,0.009766,-0.98938,0.373527,0.462901,-0.039389,52,282,575,5760
1644173122.228343,-0.013977,0.009155,-0.992737,0.327725,0.401832,-0.115725,48,271,578,5728
1644173122.2767,-0.009216,0.010559,-0.990479,0.236122,0.417099,-0.161527,39,271,576,5664
1644173122.325203,-0.013855,0.009827,-0.992615,0.266656,0.386565,-0.069924,47,263,570,5728
1644173122.373518,-0.009827,0.011047,-0.99292,0.281924,0.325496,-0.115725,51,269,578,5712
1644173122.421898,-0.011719,0.00824,-0.992615,0.312458,0.371298,-0.085191,58,266,580,5664
1644173122.470282,-0.010254,0.008057,-0.99176,0.175053,0.432366,-0.024122,49,280,570,5728
1644173122.518694,-0.009644,0.007446,-0.9953,0.175053,0.386565,-0.115725,43,279,569,5728
1644173122.567082,-0.012207,0.010376,-0.990967,0.220855,0.447634,-0.100458,55,271,583,5728
1644173122.615469,-0.010986,0.009033,-0.992065,0.266656,0.447634,-0.024122,48,283,580,5728
1644173122.663849,-0.01062,0.006958,-0.992126,0.281924,0.356031,-0.268397,48,269,569,5712
1644173122.712258,-0.010376,0.009216,-0.995178,0.281924,0.371298,-0.024122,55,279,592,5728
1644173122.760628,-0.010315,0.009521,-0.990906,0.190321,0.569771,-0.14626,42,273,579,5696
1644173122.809205,-0.011841,0.007019,-0.99292,0.236122,0.508702,0.006412,43,283,573,5712
1644173122.860095,-0.010803,0.008789,-0.993042,0.220855,0.386565,-0.039389,61,273,572,5648
1644173122.910729,-0.008789,0.009827,-0.992065,0.373527,0.478168,-0.130992,57,275,570,5696
1644173122.955529,-0.011108,0.009705,-0.992126,0.144519,0.462901,-0.039389,47,275,579,5760
1644173123.06751,-0.011108,0.01001,-0.992371,0.175053,0.340763,-0.14626,55,271,590,5712
1644173123.102368,-0.012024,0.006104,-0.993835,0.342992,0.447634,-0.14626,64,285,584,5664
1644173123.14776,-0.010498,0.01001,-0.992493,0.220855,0.356031,-0.054656,48,274,580,5664
1644173123.196146,-0.012512,0.008057,-0.991821,0.251389,0.523969,-0.100458,57,275,570,5696
1644173123.244546,-0.013245,0.006775,-0.991455,0.312458,0.493435,-0.069924,57,268,582,5760
1644173123.29292,-0.013794,0.00647,-0.990417,0.281924,0.401832,-0.192061,52,275,572,5712
1644173123.341319,-0.009155,0.009583,-0.993591,0.266656,0.478168,-0.069924,49,275,584,5728
1644173123.389706,-0.012451,0.007446,-0.991699,0.342992,0.478168,0.021679,57,275,570,5712
1644173123.438071,-0.009277,0.008545,-0.994202,0.266656,0.432366,-0.115725,45,273,572,5760
1644173123.486485,-0.009399,0.012756,-0.990967,0.236122,0.493435,-0.069924,51,279,578,5664
1644173123.535236,-0.011597,0.006104,-0.990112,0.327725,0.401832,-0.039389,42,270,586,5664
1644173123.583986,-0.013123,0.00885,-0.993652,0.113985,0.325496,-0.161527,48,274,576,5728
1644173123.634571,-0.009399,0.010193,-0.99231,0.46513,0.493435,-0.176794,51,274,571,5600
1644173123.684751,-0.009766,0.007874,-0.990662,0.312458,0.417099,-0.14626,52,263,572,5712
1644173123.729672,-0.009705,0.009216,-0.994202,0.144519,0.462901,0.036947,49,275,575,5728
1644173123.825423,-0.010925,0.012268,-0.993958,0.312458,0.417099,-0.192061,46,259,569,5712
1644173123.873633,-0.010559,0.008545,-0.991333,0.419328,0.371298,-0.115725,52,277,570,5728
1644173123.922021,-0.011902,0.009338,-0.992981,0.175053,0.340763,-0.069924,54,265,568,5760
1644173123.97043,-0.010193,0.010132,-0.993958,0.297191,0.340763,-0.130992,48,281,569,5648
1644173124.018818,-0.010864,0.007263,-0.991394,0.129252,0.432366,-0.207328,52,273,579,5696
1644173124.070448,-0.011414,0.007202,-0.994568,0.281924,0.371298,0.006412,52,265,579,5664
1644173124.115539,-0.011658,0.007568,-0.991333,0.342992,0.401832,-0.176794,41,269,569,5776
1644173124.163964,-0.01239,0.007446,-0.996155,0.327725,0.325496,-0.130992,57,280,579,5712
1644173124.212363,-0.012268,0.005676,-0.993896,0.190321,0.340763,-0.115725,52,277,579,5664
1644173124.26074,-0.007385,0.008545,-0.990967,0.281924,0.401832,-0.100458,46,281,587,5728
1644173124.309117,-0.009705,0.008728,-0.992371,0.342992,0.523969,0.036947,48,276,578,5696
1644173124.357521,-0.011169,0.01001,-0.990173,0.236122,0.417099,-0.115725,48,271,583,5728
1644173124.405908,-0.01123,0.007935,-0.993042,0.373527,0.493435,-0.008855,54,273,577,5712
1644173124.454301,-0.010559,0.008179,-0.992615,0.297191,0.356031,-0.054656,51,279,585,5696
1644173124.50271,-0.00946,0.008606,-0.99292,0.144519,0.600305,0.052214,51,281,573,5696
1644173124.551077,-0.01239,0.007507,-0.993408,0.266656,0.523969,-0.14626,55,279,576,5712
1644173124.599474,-0.011108,0.007996,-0.992859,0.190321,0.386565,-0.024122,53,279,580,5696
1644173124.647867,-0.00946,0.01178,-0.989868,0.220855,0.432366,0.021679,53,281,578,5696
1644173124.696253,-0.009888,0.012695,-0.993042,0.281924,0.386565,-0.207328,46,271,576,5760
1644173124.745309,-0.01178,0.00824,-0.990906,0.175053,0.508702,-0.024122,46,274,571,5664
1644173124.796449,-0.012207,0.010315,-0.992249,0.236122,0.310229,-0.176794,47,275,575,5712
1644173124.846903,-0.010132,0.009521,-0.992554,0.129252,0.371298,0.021679,43,266,580,5776
1644173124.938248,-0.011658,0.008606,-0.993164,0.205588,0.325496,-0.222595,52,268,577,5760
1644173124.98662,-0.013489,0.007263,-0.992676,0.205588,0.356031,-0.25313,46,269,578,5664
1644173125.035085,-0.012329,0.00708,-0.990906,0.129252,0.600305,0.021679,59,273,575,5728
1644173125.083498,-0.009888,0.006897,-0.99469,0.220855,0.172824,-0.161527,45,275,582,5696
1644173125.131777,-0.009583,0.009949,-0.994263,0.327725,0.340763,-0.222595,49,277,570,5696
1644173125.180171,-0.010193,0.007629,-0.994202,0.220855,0.325496,-0.14626,51,269,580,5760
1644173125.228565,-0.008301,0.010254,-0.991028,0.220855,0.401832,-0.161527,62,286,576,5664
1644173125.276951,-0.009583,0.009766,-0.994202,0.236122,0.24916,-0.268397,51,274,576,5728
1644173125.32533,-0.012207,0.004822,-0.992371,0.266656,0.264427,-0.054656,61,275,565,5696
1644173125.373733,-0.010864,0.008057,-0.994751,0.190321,0.371298,-0.14626,43,281,580,5728
1644173125.422225,-0.012085,0.010376,-0.994995,0.35826,0.386565,-0.192061,54,275,582,5696
1644173125.470481,-0.011108,0.008789,-0.990723,0.190321,0.340763,-0.329466,53,276,587,5712
1644173125.518906,-0.010742,0.008667,-0.991089,0.236122,0.401832,-0.039389,55,281,580,5696
1644173125.567289,-0.014221,0.007935,-0.991455,0.220855,0.371298,-0.207328,55,269,573,5712
1644173125.615681,-0.006348,0.005798,-0.993591,0.419328,0.417099,0.082748,54,275,572,5808
1644173125.664074,-0.008606,0.006531,-0.991516,0.068183,0.493435,-0.069924,51,266,580,5728
1644173125.712479,-0.010132,0.010864,-0.992065,0.266656,0.554504,-0.130992,59,265,582,5776
1644173125.761131,-0.007202,0.010986,-0.993225,0.129252,0.447634,-0.085191,54,268,584,5728
1644173125.812852,-0.00885,0.00946,-0.994324,0.113985,0.417099,-0.054656,54,260,572,5776
1644173125.862861,-0.012573,0.010986,-0.990845,0.327725,0.508702,-0.14626,51,274,576,5696
1644173125.907664,-0.012085,0.008911,-0.994934,0.205588,0.340763,-0.176794,57,275,584,5664
1644173126.00285,-0.012512,0.00708,-0.992676,0.175053,0.371298,-0.192061,62,271,571,5712
1644173126.065716,-0.010376,0.008179,-0.992188,0.297191,0.386565,-0.25313,42,277,577,5760
1644173126.102399,-0.008118,0.008911,-0.993469,0.190321,0.401832,-0.161527,45,270,579,5712
1644173126.14799,-0.010193,0.011353,-0.992432,0.342992,0.523969,-0.008855,54,270,582,5728
1644173126.196375,-0.010681,0.007446,-0.994751,0.220855,0.432366,-0.069924,52,273,575,5664
1644173126.244766,-0.010742,0.010071,-0.991638,0.35826,0.447634,-0.115725,53,271,562,5664
1644173126.293153,-0.010803,0.00647,-0.991699,0.297191,0.340763,-0.222595,51,279,585,5664
1644173126.341554,-0.014221,0.007385,-0.993469,0.129252,0.417099,-0.115725,52,270,582,5712
1644173126.389938,-0.009277,0.00885,-0.992188,0.129252,0.432366,-0.039389,48,281,578,5712
1644173126.438336,-0.010986,0.009216,-0.994873,0.281924,0.386565,-0.115725,46,281,573,5776
1644173126.486719,-0.010132,0.010559,-0.992676,0.190321,0.340763,-0.024122,49,275,575,5776
1644173126.535146,-0.009094,0.009827,-0.993042,0.266656,0.279695,-0.069924,48,281,576,5760
1644173126.583507,-0.011292,0.008362,-0.991455,0.327725,0.325496,-0.207328,52,277,582,5712
1644173126.632723,-0.009827,0.010559,-0.993835,0.113985,0.493435,-0.115725,51,274,573,5664
1644173126.683199,-0.010742,0.008301,-0.992859,0.236122,0.569771,-0.039389,48,276,580,5712
1644173126.733494,-0.008789,0.010071,-0.992859,0.220855,0.203359,-0.054656,58,274,583,5728
1644173126.778309,-0.009583,0.009033,-0.990967,0.281924,0.401832,-0.100458,45,277,577,5696
1644173126.873889,-0.013672,0.008972,-0.993896,0.297191,0.585038,-0.008855,53,276,573,5648
1644173126.92242,-0.013733,0.012207,-0.992493,0.159786,0.401832,0.113282,46,269,573,5664
1644173126.970667,-0.012817,0.010437,-0.994263,0.327725,0.340763,-0.039389,45,265,584,5648
1644173127.019034,-0.008667,0.00946,-0.993347,0.175053,0.417099,-0.024122,39,274,576,5760
1644173127.070301,-0.009033,0.007629,-0.990906,0.251389,0.340763,-0.054656,52,285,582,5664
1644173127.115775,-0.010498,0.007385,-0.989136,0.190321,0.447634,-0.161527,51,276,592,5728
1644173127.164191,-0.012146,0.010742,-0.993103,0.144519,0.417099,-0.115725,51,266,564,5760
1644173127.212594,-0.011414,0.009583,-0.99353,0.190321,0.462901,0.052214,52,270,577,5696
1644173127.26097,-0.012817,0.006042,-0.991333,0.159786,0.462901,-0.14626,52,273,586,5712
1644173127.30933,-0.012939,0.006165,-0.994629,0.297191,0.386565,-0.237863,53,271,585,5664
1644173127.357741,-0.011658,0.010132,-0.991516,0.449863,0.233893,0.082748,43,279,573,5664
1644173127.406144,-0.012573,0.005493,-0.994629,0.236122,0.356031,-0.176794,55,279,580,5776
1644173127.454555,-0.013977,0.009216,-0.992371,0.251389,0.340763,-0.130992,51,279,571,5664
1644173127.502946,-0.013855,0.008667,-0.996155,0.098718,0.478168,0.006412,49,280,572,5712
1644173127.551324,-0.010559,0.009155,-0.991699,0.129252,0.508702,-0.085191,48,274,583,5664
1644173127.599703,-0.012329,0.008301,-0.992554,0.098718,0.401832,-0.130992,40,268,582,5696
1644173127.648113,-0.009521,0.009949,-0.99292,0.266656,0.432366,-0.024122,65,274,571,5664
1644173127.696486,-0.010315,0.009766,-0.992249,0.266656,0.539237,-0.069924,62,266,576,5712
1644173127.744886,-0.009277,0.005615,-0.991455,0.281924,0.432366,-0.25313,49,277,579,5664
1644173127.793379,-0.009888,0.008911,-0.992493,0.35826,0.386565,-0.176794,39,274,566,5696
1644173127.84357,-0.012268,0.009277,-0.994324,0.175053,0.432366,-0.085191,46,269,576,5664
1644173127.894867,-0.012329,0.010376,-0.990845,0.236122,0.417099,-0.100458,48,269,578,5808
1644173127.939547,-0.009338,0.008545,-0.990295,0.266656,0.371298,-0.085191,45,273,570,5728
1644173128.035517,-0.013611,0.007996,-0.995239,0.159786,0.356031,0.006412,39,264,580,5712
1644173128.084872,-0.01123,0.010681,-0.993835,0.236122,0.401832,-0.130992,54,270,577,5664
1644173128.132049,-0.010193,0.008972,-0.992249,0.175053,0.508702,-0.130992,57,273,582,5712
1644173128.180391,-0.012329,0.01001,-0.994934,0.220855,0.386565,0.006412,58,259,571,5760
1644173128.228773,-0.008667,0.010986,-0.99176,0.281924,0.371298,-0.008855,47,275,572,5696
1644173128.277164,-0.009888,0.007141,-0.990051,0.281924,0.356031,-0.069924,54,265,584,5696
1644173128.325547,-0.009338,0.008789,-0.995056,0.388794,0.279695,-0.115725,55,274,569,5712
1644173128.373957,-0.011414,0.009583,-0.989441,0.098718,0.371298,-0.054656,47,285,572,5696
1644173128.422362,-0.012024,0.006836,-0.993286,0.220855,0.386565,-0.161527,45,275,575,5664
1644173128.470737,-0.010315,0.011414,-0.993774,0.236122,0.447634,-0.192061,48,269,580,5696
1644173128.519132,-0.013184,0.011169,-0.992554,0.175053,0.554504,-0.130992,53,271,576,5648
1644173128.567518,-0.009705,0.00824,-0.991211,0.113985,0.340763,-0.192061,53,269,580,5696
1644173128.615906,-0.010742,0.006775,-0.992859,0.144519,0.478168,-0.039389,48,266,592,5664
1644173128.66432,-0.010315,0.006714,-0.991333,0.281924,0.401832,0.082748,49,268,582,5712
1644173128.712704,-0.009705,0.011902,-0.99176,0.220855,0.615573,0.098015,61,287,582,5808
1644173128.761055,-0.010254,0.010071,-0.992981,0.205588,0.417099,0.067481,48,274,585,5712
1644173128.809464,-0.013611,0.008484,-0.99292,0.35826,0.417099,-0.085191,41,269,569,5664
1644173128.857908,-0.01178,0.008667,-0.994202,0.434595,0.508702,-0.130992,52,282,584,5776
1644173128.906308,-0.009583,0.009521,-0.990723,0.159786,0.310229,-0.069924,52,273,577,5776
1644173128.956149,-0.008911,0.009155,-0.992615,0.281924,0.401832,-0.283664,47,290,586,5696
1644173129.064884,-0.012146,0.009644,-0.993347,0.144519,0.447634,-0.161527,48,274,580,5728
1644173129.10257,-0.01001,0.008606,-0.993225,0.159786,0.325496,-0.130992,48,266,585,5760
1644173129.148223,-0.011108,0.007202,-0.992737,0.007115,0.371298,-0.100458,47,273,586,5664
1644173129.196605,-0.011536,0.006042,-0.989319,0.281924,0.401832,-0.024122,42,282,577,5664
1644173129.245168,-0.012024,0.009277,-0.994751,0.08345,0.356031,0.036947,54,277,582,5664
1644173129.293383,-0.010315,0.007935,-0.99646,0.281924,0.356031,-0.115725,46,279,573,5728
1644173129.341768,-0.010681,0.008545,-0.991943,0.129252,0.310229,-0.115725,43,276,578,5696
1644173129.390165,-0.011414,0.00531,-0.993347,0.220855,0.508702,-0.115725,49,280,575,5648
1644173129.438568,-0.010986,0.007141,-0.99408,0.236122,0.24916,-0.283664,42,275,577,5776
1644173129.486941,-0.013245,0.008789,-0.993713,0.190321,0.493435,-0.298931,59,277,582,5712
1644173129.535336,-0.008545,0.011475,-0.991821,0.404061,0.447634,-0.130992,48,262,573,5696
1644173129.583718,-0.011353,0.009399,-0.993835,0.404061,0.233893,0.113282,49,273,572,5696
1644173129.632202,-0.012634,0.007812,-0.994324,0.159786,0.417099,0.036947,45,277,575,5728
1644173129.682149,-0.009705,0.007935,-0.991455,0.205588,0.356031,-0.054656,54,282,572,5712
1644173129.73242,-0.009888,0.008972,-0.99353,0.281924,0.401832,0.006412,47,273,577,5696
1644173129.777458,-0.007263,0.008972,-0.991394,0.175053,0.432366,0.006412,53,274,580,5760
1644173129.874114,-0.010254,0.011108,-0.992798,0.312458,0.401832,-0.222595,55,276,576,5760
1644173129.922515,-0.012573,0.007935,-0.991028,0.236122,0.539237,0.006412,52,275,579,5712
1644173129.970894,-0.011536,0.00885,-0.994263,0.266656,0.356031,-0.085191,59,273,577,5712
1644173130.019274,-0.012878,0.009583,-0.995911,0.266656,0.371298,-0.130992,61,277,575,5760
1644173130.067728,-0.010681,0.00708,-0.990295,0.220855,0.539237,-0.192061,59,275,577,5712
1644173130.116038,-0.012024,0.009338,-0.994995,0.266656,0.417099,-0.176794,62,283,583,5760
1644173130.164418,-0.011719,0.009644,-0.994385,0.190321,0.356031,-0.069924,47,285,586,5696
1644173130.212819,-0.008789,0.009521,-0.99408,0.297191,0.508702,-0.115725,49,273,572,5728
1644173130.261196,-0.010681,0.009216,-0.992493,0.297191,0.478168,-0.222595,53,269,578,5648
1644173130.309583,-0.013794,0.010925,-0.994934,0.08345,0.447634,-0.039389,49,273,579,5728
1644173130.357981,-0.009583,0.010498,-0.993042,0.266656,0.386565,-0.222595,49,270,568,5712
1644173130.406365,-0.009338,0.007324,-0.993042,0.190321,0.508702,-0.115725,61,277,577,5648
1644173130.454777,-0.01123,0.007507,-0.992188,0.297191,0.401832,-0.222595,52,270,570,5696
1644173130.503181,-0.012268,0.007629,-0.991333,0.144519,0.493435,-0.100458,47,273,575,5760
1644173130.551539,-0.01178,0.005493,-0.993958,0.266656,0.401832,-0.115725,60,269,566,5664
1644173130.599942,-0.010376,0.008423,-0.992798,0.220855,0.401832,-0.14626,54,280,584,5728
1644173130.648319,-0.010742,0.00946,-0.992615,0.205588,0.523969,-0.14626,51,266,576,5712
1644173130.696701,-0.011536,0.005981,-0.990112,0.175053,0.508702,-0.008855,49,270,575,5760
1644173130.745127,-0.01178,0.011047,-0.992188,0.342992,0.493435,-0.130992,46,264,578,5696
1644173130.79531,-0.011658,0.010071,-0.990662,0.236122,0.493435,-0.176794,49,268,575,5696
1644173130.844967,-0.010315,0.009033,-0.994568,0.251389,0.401832,0.098015,41,274,583,5696
1644173130.895314,-0.009399,0.009155,-0.99054,0.236122,0.401832,-0.100458,53,262,580,5664
1644173130.939836,-0.011902,0.011963,-0.992249,0.205588,0.340763,-0.161527,40,277,577,5760
1644173131.035475,-0.013611,0.00708,-0.993042,0.281924,0.432366,-0.161527,54,277,577,5664
1644173131.083951,-0.009583,0.012756,-0.991028,0.205588,0.462901,-0.161527,53,271,585,5696
1644173131.132283,-0.011108,0.009521,-0.99469,0.297191,0.310229,-0.085191,54,275,584,5760
1644173131.180613,-0.010803,0.010132,-0.993408,0.08345,0.462901,-0.069924,49,263,577,5712
1644173131.22899,-0.010132,0.010864,-0.992493,0.236122,0.432366,-0.024122,60,274,583,5760
1644173131.277404,-0.010498,0.004333,-0.990784,0.159786,0.462901,-0.130992,49,275,568,5648
1644173131.325781,-0.010132,0.008423,-0.992615,0.251389,0.478168,-0.115725,46,276,569,5728
1644173131.374194,-0.010803,0.008911,-0.993835,0.129252,0.432366,-0.008855,57,285,582,5696
1644173131.422604,-0.009033,0.009766,-0.991333,0.281924,0.417099,-0.161527,59,268,575,5664
1644173131.470971,-0.010559,0.007812,-0.991577,0.434595,0.432366,-0.115725,48,283,578,5728
1644173131.519354,-0.011597,0.009399,-0.992737,0.220855,0.478168,-0.085191,45,260,572,5760
1644173131.56774,-0.012451,0.009277,-0.990417,0.098718,0.371298,-0.192061,42,265,575,5776
1644173131.616158,-0.009399,0.00824,-0.990112,0.281924,0.478168,0.021679,49,270,579,5824
1644173131.664535,-0.009033,0.008972,-0.99054,0.159786,0.401832,-0.14626,46,276,585,5728
1644173131.712904,-0.00824,0.009888,-0.991394,0.129252,0.401832,-0.100458,49,277,586,5728
1644173131.761279,-0.010071,0.008667,-0.992859,0.266656,0.432366,-0.069924,51,271,580,5808
1644173131.809731,-0.010864,0.008606,-0.992249,0.266656,0.371298,-0.054656,54,270,582,5728
1644173131.858131,-0.013977,0.009094,-0.993835,0.251389,0.417099,-0.100458,49,263,593,5728
1644173131.906526,-0.009216,0.007812,-0.991638,0.342992,0.340763,0.021679,55,281,571,5776
1644173131.95581,-0.01123,0.009827,-0.992798,0.251389,0.340763,-0.14626,42,273,584,5696
1644173132.006648,-0.01123,0.008118,-0.991272,0.236122,0.264427,-0.008855,49,277,591,5696
1644173132.103447,-0.011658,0.01239,-0.989441,0.236122,0.478168,-0.008855,52,265,582,5728
1644173132.148426,-0.009766,0.008301,-0.990479,0.281924,0.478168,0.067481,46,276,569,5696
1644173132.196817,-0.01001,0.007202,-0.993469,0.281924,0.447634,-0.085191,54,277,586,5728
1644173132.245249,-0.008911,0.00708,-0.993774,0.190321,0.233893,-0.085191,55,276,580,5728
1644173132.29362,-0.011108,0.01001,-0.991577,0.266656,0.493435,-0.161527,60,276,580,5728
1644173132.342,-0.011536,0.00946,-0.992615,0.220855,0.401832,-0.024122,48,286,585,5696
1644173132.390388,-0.012329,0.008728,-0.991516,0.327725,0.432366,-0.115725,59,282,572,5808
1644173132.438764,-0.008423,0.009705,-0.993103,0.113985,0.340763,-0.176794,46,283,578,5696
1644173132.48717,-0.010437,0.007874,-0.99176,0.281924,0.386565,-0.176794,55,279,573,5696
1644173132.535777,-0.010437,0.009277,-0.992615,0.266656,0.432366,-0.14626,64,280,586,5728
1644173132.583952,-0.008118,0.009705,-0.990173,0.220855,0.386565,-0.161527,46,266,578,5648
1644173132.632371,-0.013672,0.009827,-0.992004,0.007115,0.371298,-0.054656,58,279,573,5712
1644173132.68202,-0.012024,0.012207,-0.993591,0.281924,0.417099,-0.161527,51,274,576,5728
1644173132.732362,-0.008911,0.010803,-0.989685,0.175053,0.386565,-0.14626,52,275,586,5696
1644173132.782387,-0.012878,0.008301,-0.992188,0.098718,0.417099,-0.100458,48,266,578,5712
1644173132.874343,-0.010803,0.009583,-0.993225,0.236122,0.340763,0.021679,42,268,570,5696
1644173132.922737,-0.010803,0.009033,-0.991333,0.236122,0.523969,-0.161527,54,263,570,5808
1644173132.971109,-0.008606,0.008057,-0.992676,0.281924,0.447634,-0.14626,52,268,572,5760
1644173133.019504,-0.011963,0.008972,-0.994446,0.312458,0.340763,0.006412,57,273,572,5696
1644173133.070598,-0.008606,0.009033,-0.991943,0.266656,0.432366,-0.039389,53,264,573,5712
1644173133.116219,-0.010254,0.011047,-0.990845,0.022382,0.310229,-0.039389,55,274,580,5696
1644173133.164643,-0.009827,0.009338,-0.991333,0.236122,0.462901,0.036947,40,275,568,5760
1644173133.213036,-0.008301,0.009583,-0.989624,0.327725,0.356031,-0.008855,39,271,571,5760
1644173133.261416,-0.008545,0.008484,-0.993896,0.220855,0.417099,-0.161527,53,269,573,5696
1644173133.30979,-0.01123,0.009521,-0.991638,0.404061,0.401832,-0.069924,48,269,562,5664
1644173133.3582,-0.012146,0.008789,-0.991272,0.342992,0.371298,0.052214,52,270,579,5696
1644173133.406596,-0.012085,0.010864,-0.991089,0.068183,0.264427,-0.25313,46,281,578,5712
1644173133.455089,-0.010376,0.011169,-0.993286,0.327725,0.310229,-0.161527,46,269,564,5696
1644173133.503388,-0.00824,0.007263,-0.99115,0.266656,0.356031,-0.14626,46,279,578,5696
1644173133.551764,-0.009827,0.006714,-0.991516,0.129252,0.493435,-0.039389,54,270,579,5696
1644173133.600155,-0.01062,0.008545,-0.991211,0.205588,0.279695,-0.039389,54,282,577,5696
1644173133.648518,-0.009644,0.009155,-0.989868,0.08345,0.340763,0.052214,48,276,578,5696
1644173133.696934,-0.009827,0.008972,-0.992554,0.281924,0.401832,-0.008855,57,268,593,5696
1644173133.745337,-0.009644,0.009033,-0.991638,0.251389,0.417099,-0.130992,47,273,577,5664
1644173133.794305,-0.01123,0.009949,-0.992432,0.129252,0.340763,-0.085191,48,266,583,5808
1644173133.844917,-0.010559,0.012451,-0.990417,0.220855,0.478168,-0.069924,58,269,580,5664
1644173133.895756,-0.008728,0.008484,-0.992432,0.312458,0.371298,-0.054656,49,265,577,5696
1644173133.940273,-0.00885,0.008911,-0.992554,0.144519,0.401832,0.036947,40,282,575,5728
1644173134.035694,-0.009766,0.007629,-0.993408,0.312458,0.508702,-0.207328,38,270,579,5664
1644173134.084166,-0.011108,0.010193,-0.993652,0.281924,0.432366,-0.176794,53,281,583,5808
1644173134.132481,-0.011902,0.011047,-0.990479,0.312458,0.386565,-0.222595,46,281,583,5712
1644173134.180837,-0.010437,0.008484,-0.993652,0.205588,0.371298,-0.192061,61,273,577,5696
1644173134.229228,-0.010132,0.010803,-0.993591,0.236122,0.279695,-0.222595,51,276,571,5664
1644173134.277615,-0.012268,0.009827,-0.994141,0.236122,0.386565,-0.176794,60,274,576,5760
1644173134.326013,-0.008179,0.009033,-0.99292,0.159786,0.325496,0.052214,58,276,571,5776
1644173134.374414,-0.00885,0.006958,-0.99176,0.251389,0.585038,-0.25313,51,274,571,5760
1644173134.422815,-0.010742,0.012207,-0.99292,0.312458,0.462901,-0.115725,58,266,571,5712
1644173134.471193,-0.011719,0.007019,-0.992859,0.327725,0.600305,-0.222595,49,268,579,5776
1644173134.519587,-0.009644,0.008545,-0.99231,0.266656,0.462901,-0.207328,54,270,577,5728
1644173134.567979,-0.008423,0.008606,-0.992432,0.205588,0.386565,-0.100458,58,274,587,5696
1644173134.616358,-0.010864,0.010254,-0.992981,0.068183,0.386565,-0.085191,47,282,577,5664
1644173134.664757,-0.011414,0.01001,-0.993469,0.236122,0.386565,-0.207328,40,277,575,5696
1644173134.713168,-0.009888,0.009277,-0.992004,0.327725,0.462901,-0.039389,51,279,590,5808
1644173134.761511,-0.010315,0.007812,-0.991516,0.190321,0.279695,0.067481,57,277,582,5696
1644173134.809925,-0.011597,0.009094,-0.99231,0.220855,0.432366,-0.100458,51,274,580,5760
1644173134.858356,-0.010132,0.011353,-0.992554,0.266656,0.401832,-0.085191,46,271,583,5728
1644173134.906739,-0.009949,0.010803,-0.992798,0.404061,0.401832,-0.054656,51,279,573,5712
1644173134.956163,-0.012085,0.010437,-0.991943,0.052916,0.386565,-0.176794,49,277,582,5712
1644173135.06518,-0.011414,0.010193,-0.99469,0.144519,0.401832,-0.039389,48,274,573,5696
1644173135.102222,-0.011597,0.008789,-0.992188,0.129252,0.523969,-0.069924,51,266,583,5696
1644173135.148691,-0.010559,0.010315,-0.992249,0.342992,0.585038,0.006412,55,276,566,5664
1644173135.197065,-0.008911,0.008423,-0.990967,0.281924,0.478168,-0.25313,55,274,580,5776
1644173135.245411,-0.013306,0.010803,-0.991821,0.144519,0.600305,0.052214,46,279,580,5712
1644173135.293847,-0.009766,0.009644,-0.991394,0.419328,0.310229,-0.008855,52,277,577,5760
1644173135.342239,-0.009827,0.010071,-0.993347,0.236122,0.462901,0.098015,46,264,583,5664
1644173135.390617,-0.009277,0.005554,-0.992126,0.205588,0.417099,-0.100458,52,285,575,5728
1644173135.439008,-0.011841,0.006104,-0.993225,0.190321,0.401832,0.021679,54,273,577,5712
1644173135.487392,-0.01001,0.010315,-0.99292,0.159786,0.127023,0.006412,53,274,583,5728
1644173135.53578,-0.011536,0.007263,-0.992249,0.113985,0.325496,-0.100458,54,270,586,5760
1644173135.584178,-0.013245,0.007568,-0.990295,0.220855,0.447634,-0.115725,48,283,580,5728
1644173135.632601,-0.012756,0.008484,-0.99231,0.175053,0.401832,-0.14626,43,279,583,5760
1644173135.682411,-0.01062,0.009155,-0.993958,0.373527,0.371298,-0.085191,53,283,566,5664
1644173135.732726,-0.008667,0.009094,-0.990417,0.236122,0.356031,0.006412,45,270,579,5664
1644173135.782732,-0.011108,0.011047,-0.990417,0.159786,0.585038,-0.237863,48,279,571,5712
1644173135.874558,-0.009705,0.009583,-0.99176,0.144519,0.432366,-0.069924,42,277,575,5696
1644173135.922941,-0.010681,0.007446,-0.992554,0.022382,0.417099,0.067481,51,279,580,5664
1644173135.971317,-0.010254,0.009216,-0.994507,0.297191,0.371298,-0.14626,41,271,580,5712
1644173136.019769,-0.011169,0.004333,-0.990906,0.297191,0.386565,-0.085191,52,292,575,5728
1644173136.069933,-0.008911,0.008179,-0.993774,0.236122,0.417099,-0.085191,49,273,586,5696
1644173136.116531,-0.008545,0.009216,-0.992065,0.251389,0.508702,-0.14626,54,273,582,5696
1644173136.164942,-0.013245,0.009155,-0.991577,0.175053,0.325496,-0.115725,52,275,575,5712
1644173136.21335,-0.008606,0.008179,-0.992371,0.205588,0.462901,-0.115725,57,268,589,5728
1644173136.261659,-0.00885,0.006836,-0.994385,0.327725,0.462901,-0.085191,54,280,570,5664
1644173136.310042,-0.012024,0.011658,-0.992859,0.281924,0.462901,-0.161527,43,274,573,5728
1644173136.358431,-0.012451,0.006287,-0.989685,0.236122,0.508702,0.082748,49,287,582,5696
1644173136.40684,-0.013489,0.008301,-0.991638,0.068183,0.417099,0.067481,43,279,573,5696
1644173136.455282,-0.011719,0.00647,-0.992126,0.129252,0.432366,-0.161527,57,287,577,5760
1644173136.503621,-0.011292,0.007629,-0.992249,0.037649,0.340763,-0.008855,51,283,580,5760
1644173136.551995,-0.01062,0.010315,-0.993591,0.022382,0.294962,-0.222595,45,273,575,5712
1644173136.600345,-0.010925,0.009949,-0.992004,0.281924,0.401832,-0.176794,48,269,580,5760
1644173136.648776,-0.012634,0.011414,-0.994812,0.190321,0.340763,0.036947,34,274,580,5728
1644173136.697173,-0.009705,0.009949,-0.992981,0.098718,0.600305,-0.207328,52,275,577,5664
1644173136.745526,-0.010315,0.009094,-0.992432,0.342992,0.386565,-0.14626,43,279,569,5712
1644173136.794063,-0.01239,0.00769,-0.994507,0.373527,0.340763,-0.192061,58,279,580,5696
1644173136.845391,-0.012024,0.008301,-0.993652,0.052916,0.462901,-0.069924,47,275,577,5760
1644173136.895789,-0.01062,0.008362,-0.992798,0.205588,0.508702,-0.176794,45,270,572,5712
1644173136.940347,-0.012512,0.008362,-0.993225,0.190321,0.279695,-0.192061,43,286,576,5664
1644173137.03593,-0.010376,0.009033,-0.99292,0.113985,0.417099,-0.130992,53,274,569,5712
1644173137.08442,-0.011658,0.01062,-0.991577,0.327725,0.447634,-0.176794,49,280,577,5728
1644173137.13267,-0.013855,0.009827,-0.992615,0.404061,0.462901,-0.192061,48,274,576,5728
1644173137.181062,-0.011475,0.010132,-0.990051,0.236122,0.508702,-0.130992,47,270,572,5696
1644173137.229431,-0.009949,0.00824,-0.994324,0.037649,0.401832,0.067481,54,275,563,5664
1644173137.277841,-0.009216,0.007507,-0.992859,0.129252,0.294962,-0.085191,55,271,573,5712
1644173137.32624,-0.012207,0.008118,-0.992126,0.404061,0.447634,-0.14626,49,282,577,5696
1644173137.374648,-0.012329,0.007996,-0.99176,0.113985,0.447634,-0.008855,46,271,566,5760
1644173137.423045,-0.010681,0.009705,-0.993347,0.373527,0.417099,-0.237863,48,269,566,5664
1644173137.471412,-0.011047,0.006836,-0.993774,0.190321,0.432366,0.021679,57,268,575,5696
1644173137.519809,-0.012451,0.00592,-0.992737,0.297191,0.417099,-0.069924,53,276,573,5696
1644173137.56819,-0.009888,0.009583,-0.990845,0.236122,0.294962,0.12855,49,265,584,5728
1644173137.616593,-0.012085,0.007812,-0.992737,0.144519,0.447634,-0.085191,46,271,580,5696
1644173137.665116,-0.010132,0.005127,-0.992493,0.419328,0.386565,0.098015,49,285,572,5776
1644173137.713382,-0.012329,0.010864,-0.991394,0.373527,0.432366,-0.161527,48,269,578,5664
1644173137.761745,-0.010803,0.00885,-0.992981,0.327725,0.493435,-0.024122,48,274,576,5696
1644173137.810198,-0.011108,0.00769,-0.993164,0.175053,0.523969,-0.054656,54,285,570,5760
1644173137.858579,-0.012817,0.008911,-0.989929,0.190321,0.371298,-0.161527,39,274,576,5664
1644173137.906987,-0.012268,0.009033,-0.994141,0.220855,0.279695,-0.130992,58,266,573,5760
1644173137.956288,-0.013306,0.008301,-0.994507,0.236122,0.356031,-0.039389,45,285,582,5696
1644173138.057134,-0.011169,0.008301,-0.991943,0.266656,0.615573,-0.008855,47,277,579,5728
1644173138.103525,-0.007751,0.010315,-0.992554,0.113985,0.554504,-0.085191,55,276,585,5712
1644173138.148871,-0.009094,0.010681,-0.991089,0.205588,0.386565,-0.008855,46,276,573,5728
1644173138.197274,-0.010986,0.009644,-0.99231,0.175053,0.279695,-0.100458,51,279,576,5760
1644173138.245658,-0.009094,0.006409,-0.993103,0.236122,0.478168,-0.130992,43,281,580,5808
1644173138.29406,-0.006287,0.008423,-0.994995,0.266656,0.218626,-0.024122,42,275,586,5648
1644173138.342466,-0.010315,0.008301,-0.993225,0.175053,0.417099,-0.069924,48,271,576,5696
1644173138.390841,-0.009949,0.00824,-0.993469,0.159786,0.279695,-0.008855,43,276,578,5760
1644173138.439227,-0.008484,0.007996,-0.993286,0.113985,0.432366,-0.161527,53,276,576,5664
1644173138.4876,-0.009583,0.007996,-0.99176,0.205588,0.340763,-0.024122,54,273,575,5728
1644173138.536034,-0.012817,0.011047,-0.992188,0.327725,0.493435,-0.115725,53,281,587,5664
1644173138.584423,-0.01001,0.008179,-0.995361,0.175053,0.386565,-0.039389,57,277,586,5760
1644173138.632808,-0.008911,0.008362,-0.99469,0.251389,0.340763,-0.207328,55,259,573,5664
1644173138.681179,-0.011597,0.006592,-0.995422,0.251389,0.447634,-0.14626,52,273,572,5696
1644173138.729574,-0.011597,0.008606,-0.993835,0.297191,0.264427,-0.069924,52,268,575,5712
1644173138.777964,-0.012756,0.006409,-0.992615,0.190321,0.310229,-0.024122,43,279,573,5664
1644173138.826587,-0.013489,0.010986,-0.992371,0.251389,0.264427,-0.054656,43,276,583,5712
1644173138.876769,-0.00885,0.006104,-0.990234,0.236122,0.356031,-0.100458,57,275,575,5712
1644173138.926916,-0.008606,0.00824,-0.994507,0.205588,0.386565,-0.192061,47,270,589,5776
1644173138.977872,-0.011902,0.006958,-0.992371,0.113985,0.371298,-0.14626,55,279,571,5664
1644173139.068479,-0.013123,0.008118,-0.992737,0.236122,0.325496,-0.085191,48,279,576,5728
1644173139.116687,-0.010925,0.007019,-0.993774,0.312458,0.371298,-0.100458,48,283,583,5712
1644173139.165323,-0.009705,0.009644,-0.994019,0.205588,0.478168,-0.161527,52,273,565,5760
1644173139.213482,-0.007202,0.008362,-0.991516,0.35826,0.569771,-0.161527,53,266,566,5728
1644173139.261853,-0.011841,0.009033,-0.992188,0.312458,0.371298,-0.054656,46,269,576,5696
1644173139.310262,-0.012573,0.006653,-0.99469,0.113985,0.462901,-0.100458,48,279,585,5696
1644173139.358631,-0.011047,0.008301,-0.995056,0.251389,0.447634,-0.25313,54,270,572,5712
1644173139.407047,-0.009888,0.006409,-0.993774,0.236122,0.356031,-0.100458,43,274,576,5664
1644173139.455436,-0.01001,0.007324,-0.993896,0.068183,0.447634,-0.069924,47,273,572,5696
1644173139.503828,-0.011292,0.008911,-0.993164,0.266656,0.401832,0.006412,57,270,579,5712
1644173139.552243,-0.010559,0.008362,-0.993835,0.236122,0.508702,-0.008855,49,265,575,5648
1644173139.600593,-0.010437,0.009583,-0.992188,0.281924,0.462901,-0.161527,52,280,568,5696
1644173139.649,-0.01178,0.010132,-0.992737,0.297191,0.447634,-0.207328,47,270,577,5696
1644173139.697392,-0.009521,0.007629,-0.993774,0.236122,0.294962,-0.237863,61,265,572,5712
1644173139.745747,-0.011902,0.00885,-0.992798,0.251389,0.340763,-0.100458,47,277,568,5696
1644173139.794178,-0.008789,0.007996,-0.990723,0.144519,0.386565,-0.161527,47,275,579,5696
1644173139.842632,-0.011414,0.009583,-0.995361,0.007115,0.462901,-0.069924,51,269,566,5728
1644173139.89107,-0.007935,0.009644,-0.99292,0.190321,0.523969,-0.024122,41,266,580,5760
1644173139.93939,-0.013062,0.010071,-0.992981,0.205588,0.386565,-0.100458,57,275,565,5760
1644173139.989047,-0.012573,0.006348,-0.994751,0.312458,0.539237,-0.054656,49,275,570,5696
1644173140.039565,-0.013733,0.007141,-0.992798,0.205588,0.401832,-0.115725,39,276,578,5696
1644173140.091344,-0.010986,0.007629,-0.993225,0.297191,0.356031,-0.039389,42,268,577,5648
1644173140.181306,-0.011475,0.010254,-0.993469,0.159786,0.508702,0.189618,58,271,580,5712
1644173140.229686,-0.01123,0.008972,-0.992859,0.251389,0.493435,-0.024122,51,281,583,5696
1644173140.278059,-0.010559,0.010376,-0.992188,0.266656,0.539237,-0.069924,46,266,571,5664
1644173140.326465,-0.010986,0.008423,-0.992554,0.220855,0.462901,-0.130992,49,268,572,5728
1644173140.374883,-0.011841,0.00946,-0.990784,0.297191,0.294962,-0.115725,43,264,578,5664
1644173140.423242,-0.013306,0.01001,-0.992004,0.342992,0.325496,-0.115725,48,276,573,5696
1644173140.471642,-0.011658,0.007874,-0.991455,0.236122,0.493435,-0.192061,49,275,589,5728
1644173140.52004,-0.009949,0.008728,-0.991699,0.159786,0.371298,-0.161527,49,280,575,5696
1644173140.568392,-0.009949,0.008362,-0.991455,0.281924,0.356031,-0.237863,53,274,573,5664
1644173140.616815,-0.010864,0.007874,-0.992493,0.419328,0.447634,-0.161527,51,271,576,5776
1644173140.665287,-0.009583,0.008057,-0.991394,0.266656,0.432366,-0.176794,45,282,579,5728
1644173140.713599,-0.012512,0.011353,-0.991089,0.205588,0.478168,-0.100458,53,276,585,5696
1644173140.76197,-0.012756,0.006958,-0.991516,0.251389,0.478168,-0.100458,51,271,578,5760
1644173140.810378,-0.009338,0.010315,-0.994568,0.297191,0.310229,-0.085191,48,276,569,5696
1644173140.858804,-0.012268,0.007019,-0.996399,0.190321,0.462901,-0.039389,53,266,590,5712
1644173140.907191,-0.009094,0.007202,-0.991821,0.297191,0.447634,-0.14626,52,285,582,5808
1644173140.95559,-0.008728,0.008118,-0.993469,0.266656,0.417099,-0.222595,41,274,576,5696
1644173141.003988,-0.012024,0.008545,-0.988647,0.144519,0.417099,-0.268397,53,269,585,5664
1644173141.072372,-0.009033,0.007202,-0.995483,0.205588,0.523969,-0.192061,52,282,575,5696
1644173141.110304,-0.01123,0.008179,-0.991821,0.236122,0.371298,-0.024122,54,285,572,5712
1644173141.154039,-0.013672,0.009827,-0.993347,0.35826,0.523969,0.006412,51,276,585,5648
1644173141.198574,-0.012329,0.009033,-0.992554,0.297191,0.340763,-0.085191,51,274,566,5696
1644173141.294297,-0.009705,0.009277,-0.993469,0.129252,0.371298,-0.329466,48,281,576,5728
1644173141.342699,-0.01239,0.00708,-0.992188,0.236122,0.401832,-0.054656,52,277,577,5728
1644173141.391049,-0.007019,0.011963,-0.994263,0.220855,0.432366,-0.024122,48,269,576,5696
1644173141.439454,-0.010315,0.010803,-0.991089,0.175053,0.417099,-0.237863,54,265,575,5696
1644173141.487844,-0.007996,0.009338,-0.993408,0.236122,0.508702,-0.176794,48,288,566,5728
1644173141.536226,-0.008789,0.008606,-0.994019,0.266656,0.432366,-0.161527,42,280,575,5712
1644173141.584638,-0.009827,0.009888,-0.988892,0.342992,0.218626,-0.100458,47,268,572,5776
1644173141.633013,-0.008728,0.008728,-0.993591,0.236122,0.371298,-0.100458,49,275,577,5776
1644173141.681411,-0.007324,0.007812,-0.99176,0.266656,0.417099,-0.14626,45,275,589,5696
1644173141.729811,-0.010071,0.009094,-0.993286,0.266656,0.340763,-0.085191,61,277,575,5696
1644173141.778191,-0.008789,0.01178,-0.991638,0.175053,0.478168,0.052214,47,273,577,5760
1644173141.826585,-0.010498,0.006958,-0.994202,0.297191,0.325496,-0.222595,55,279,569,5696
1644173141.875051,-0.009766,0.010986,-0.993958,0.159786,0.417099,-0.054656,52,282,575,5696
1644173141.923408,-0.013306,0.007263,-0.99585,0.449863,0.386565,-0.039389,52,282,575,5728
1644173141.971787,-0.011414,0.006958,-0.992676,0.281924,0.585038,-0.024122,49,273,582,5776
1644173142.020178,-0.01001,0.006104,-0.992371,0.220855,0.371298,-0.14626,68,275,579,5696
1644173142.08235,-0.009644,0.010193,-0.994507,0.297191,0.523969,-0.054656,52,270,575,5728
1644173142.117899,-0.009338,0.008179,-0.991577,0.220855,0.386565,-0.192061,58,269,583,5728
1644173142.168235,-0.011902,0.00769,-0.990417,0.007115,0.340763,-0.039389,43,279,580,5664
1644173142.217447,-0.010559,0.00592,-0.991516,0.312458,0.417099,-0.237863,58,259,578,5712
1644173142.262275,-0.009399,0.009949,-0.994446,0.098718,0.554504,-0.039389,55,274,578,5696
1644173142.358862,-0.010559,0.01001,-0.990051,0.205588,0.417099,-0.008855,60,264,583,5760
1644173142.407263,-0.008545,0.010254,-0.991699,0.144519,0.279695,-0.115725,46,269,573,5760
1644173142.455644,-0.009644,0.008423,-0.992371,0.159786,0.417099,-0.161527,52,275,570,5712
1644173142.504053,-0.012268,0.00824,-0.992065,0.220855,0.310229,-0.039389,40,265,568,5696
1644173142.552459,-0.011047,0.009888,-0.993591,0.327725,0.478168,-0.039389,54,273,589,5696
1644173142.60083,-0.011292,0.009033,-0.993835,0.175053,0.432366,-0.161527,46,266,583,5664
1644173142.649233,-0.00946,0.008362,-0.989868,0.175053,0.356031,-0.192061,53,279,573,5776
1644173142.697614,-0.01001,0.008911,-0.990356,0.266656,0.386565,-0.130992,61,287,586,5664
1644173142.74599,-0.00824,0.010071,-0.99231,0.175053,0.340763,-0.069924,49,270,582,5728
1644173142.794404,-0.009949,0.010437,-0.991394,0.342992,0.279695,-0.039389,57,270,575,5760
1644173142.842795,-0.01123,0.011353,-0.990723,0.175053,0.340763,-0.161527,47,273,575,5712
1644173142.89122,-0.01239,0.007568,-0.99231,0.129252,0.417099,-0.085191,46,281,585,5648
1644173142.939606,-0.00824,0.010376,-0.992371,0.266656,0.371298,0.006412,53,271,569,5696
1644173142.988004,-0.011536,0.009827,-0.990112,0.35826,0.401832,0.052214,46,281,566,5696
1644173143.036393,-0.008301,0.009338,-0.99054,0.312458,0.432366,-0.237863,48,279,580,5696
1644173143.084821,-0.013306,0.010132,-0.992432,0.312458,0.462901,-0.14626,54,263,582,5712
1644173143.133192,-0.010193,0.008789,-0.994385,0.159786,0.386565,-0.115725,43,276,573,5600
1644173143.18241,-0.009216,0.006287,-0.99469,0.220855,0.340763,-0.054656,51,281,573,5712
1644173143.230008,-0.010376,0.011292,-0.991516,0.236122,0.523969,-0.176794,64,275,586,5648
1644173143.280163,-0.012695,0.009155,-0.993042,0.022382,0.310229,-0.14626,46,276,583,5728
1644173143.330352,-0.009888,0.00708,-0.993225,0.297191,0.569771,-0.14626,46,274,583,5648
1644173143.380652,-0.009949,0.010132,-0.990479,0.297191,0.417099,-0.085191,48,266,580,5728
1644173143.471944,-0.010254,0.007812,-0.991333,0.251389,0.401832,-0.085191,49,275,572,5712
1644173143.520301,-0.00946,0.010071,-0.99231,0.220855,0.371298,-0.176794,54,277,575,5712
1644173143.568689,-0.010193,0.010071,-0.99176,0.342992,0.279695,-0.100458,39,252,580,5712
1644173143.617057,-0.010559,0.010071,-0.991516,0.175053,0.493435,-0.024122,48,274,573,5760
1644173143.665479,-0.011902,0.008545,-0.993713,0.098718,0.279695,-0.192061,47,268,572,5760
1644173143.71388,-0.009949,0.00885,-0.993469,0.205588,0.462901,-0.100458,57,275,568,5776
1644173143.762268,-0.010803,0.009216,-0.993591,0.190321,0.493435,-0.115725,46,279,583,5664
1644173143.810636,-0.010071,0.007568,-0.992981,0.175053,0.340763,-0.069924,42,268,579,5664
1644173143.85905,-0.006104,0.008789,-0.991394,0.190321,0.508702,-0.069924,57,275,565,5712
1644173143.907429,-0.012695,0.008667,-0.992432,0.205588,0.371298,-0.008855,51,276,573,5696
1644173143.955823,-0.010681,0.009827,-0.992798,0.251389,0.478168,-0.222595,51,269,578,5760
1644173144.004222,-0.010864,0.009033,-0.992126,0.175053,0.432366,-0.207328,55,279,573,5696
1644173144.065289,-0.011658,0.003784,-0.993713,0.159786,0.371298,-0.008855,54,275,584,5712
1644173144.103495,-0.011292,0.00708,-0.993652,0.342992,0.447634,-0.176794,55,274,578,5728
1644173144.149334,-0.012695,0.008362,-0.993164,0.251389,0.493435,-0.100458,52,270,577,5760
1644173144.197729,-0.011292,0.010071,-0.993896,0.251389,0.325496,-0.100458,48,279,573,5696
1644173144.246121,-0.007935,0.00885,-0.992249,0.220855,0.432366,-0.115725,47,268,579,5760
1644173144.294503,-0.012085,0.00885,-0.992798,0.236122,0.462901,-0.008855,43,281,576,5824
1644173144.343152,-0.011902,0.010559,-0.992432,0.220855,0.432366,-0.161527,46,281,583,5664
1644173144.391907,-0.01062,0.008057,-0.993164,0.327725,0.386565,-0.039389,41,279,569,5664
1644173144.442758,-0.012207,0.009399,-0.992981,0.281924,0.325496,-0.054656,38,280,582,5696
1644173144.4935,-0.01123,0.008606,-0.994751,0.144519,0.386565,-0.054656,53,264,573,5760
1644173144.537849,-0.014038,0.00769,-0.993591,0.205588,0.432366,-0.085191,47,280,572,5728
1644173144.633313,-0.009644,0.009155,-0.992493,0.266656,0.417099,-0.283664,47,280,579,5648
1644173144.681641,-0.013,0.010437,-0.99115,0.236122,0.462901,-0.161527,53,274,578,5712
1644173144.730019,-0.011719,0.007751,-0.992981,0.297191,0.523969,-0.222595,51,266,578,5696
1644173144.77842,-0.013245,0.008057,-0.99292,0.190321,0.371298,-0.008855,51,276,580,5760
1644173144.826833,-0.010132,0.009155,-0.994141,0.266656,0.478168,-0.100458,41,276,576,5728
1644173144.875283,-0.011475,0.009827,-0.990112,0.159786,0.325496,-0.039389,48,279,578,5712
1644173144.923634,-0.011536,0.008362,-0.99176,0.404061,0.294962,-0.130992,62,276,583,5696
1644173144.972033,-0.010925,0.009827,-0.992432,0.068183,0.462901,-0.14626,53,266,576,5712
1644173145.020418,-0.009827,0.010193,-0.992493,0.266656,0.401832,-0.054656,57,273,575,5728
1644173145.07404,-0.010925,0.008972,-0.991028,0.281924,0.325496,-0.207328,52,270,584,5664
1644173145.117154,-0.009644,0.00592,-0.992065,0.251389,0.569771,0.006412,61,277,575,5760
1644173145.165552,-0.013306,0.010986,-0.989624,0.190321,0.493435,-0.069924,46,274,571,5728
1644173145.213916,-0.010681,0.01062,-0.991455,0.098718,0.493435,-0.14626,53,269,578,5712
1644173145.262312,-0.012146,0.008728,-0.992004,0.159786,0.432366,-0.085191,51,269,573,5728
1644173145.310691,-0.01062,0.007019,-0.993164,0.175053,0.340763,-0.176794,57,285,584,5808
1644173145.359076,-0.009644,0.010925,-0.992432,0.220855,0.417099,-0.130992,41,276,580,5696
1644173145.407973,-0.012207,0.00946,-0.993591,0.297191,0.478168,-0.268397,42,277,563,5696
1644173145.455892,-0.013306,0.011719,-0.99292,0.297191,0.493435,-0.14626,40,268,579,5712
1644173145.504658,-0.01239,0.008423,-0.992798,0.236122,0.340763,-0.207328,61,265,582,5696
1644173145.555105,-0.011353,0.010864,-0.992798,0.220855,0.432366,-0.024122,53,271,576,5728
1644173145.605268,-0.009216,0.010315,-0.99408,0.08345,0.310229,-0.115725,53,274,580,5728
1644173145.650348,-0.010376,0.008972,-0.994446,0.144519,0.569771,-0.161527,49,277,572,5760
1644173145.746212,-0.00946,0.006958,-0.993774,0.159786,0.523969,-0.130992,43,279,576,5696
1644173145.795135,-0.011292,0.007996,-0.992371,-0.008153,0.356031,0.067481,55,271,576,5728
1644173145.84303,-0.008545,0.007874,-0.992798,0.08345,0.386565,-0.130992,51,283,573,5696
1644173145.891419,-0.008301,0.008606,-0.992249,0.312458,0.340763,-0.130992,49,275,577,5696
1644173145.939829,-0.01123,0.006714,-0.991333,0.129252,0.386565,-0.054656,54,270,582,5712
1644173145.98822,-0.010437,0.00592,-0.992981,0.159786,0.386565,-0.161527,52,282,575,5696
1644173146.036616,-0.013306,0.009521,-0.993347,0.449863,0.371298,-0.054656,46,266,578,5712
1644173146.088646,-0.010071,0.011536,-0.994751,0.205588,0.417099,-0.14626,61,275,577,5664
1644173146.133388,-0.011353,0.008911,-0.991699,0.144519,0.447634,-0.130992,55,276,585,5728
1644173146.18176,-0.011414,0.008484,-0.993958,0.266656,0.371298,0.006412,45,277,565,5728
1644173146.230143,-0.011414,0.010742,-0.991333,0.297191,0.432366,-0.207328,43,283,578,5760
1644173146.278507,-0.011292,0.009827,-0.992126,0.159786,0.478168,-0.115725,43,279,578,5664
1644173146.326916,-0.009338,0.011108,-0.992981,0.236122,0.386565,-0.069924,53,279,576,5712
1644173146.375901,-0.008789,0.012085,-0.992737,0.220855,0.447634,-0.085191,48,269,578,5728
1644173146.42372,-0.009155,0.006897,-0.992859,0.342992,0.294962,-0.085191,52,270,577,5728
1644173146.473646,-0.012329,0.006042,-0.994446,0.251389,0.523969,-0.085191,58,279,580,5776
1644173146.523634,-0.010925,0.009827,-0.99231,0.312458,0.432366,-0.268397,46,281,578,5696
1644173146.573959,-0.011963,0.011353,-0.993225,0.251389,0.417099,-0.115725,43,279,578,5776
1644173146.665681,-0.010681,0.008179,-0.992249,0.251389,0.447634,-0.115725,48,271,576,5696
1644173146.714059,-0.012634,0.009583,-0.994385,0.037649,0.218626,-0.130992,49,275,579,5696
1644173146.762428,-0.013184,0.007324,-0.995544,0.251389,0.432366,-0.100458,47,275,582,5728
1644173146.810815,-0.011597,0.007141,-0.992981,0.251389,0.310229,-0.192061,47,263,572,5664
1644173146.859257,-0.008667,0.010315,-0.992371,0.068183,0.233893,-0.100458,52,277,577,5664
1644173146.90762,-0.01123,0.008728,-0.991089,0.297191,0.478168,0.052214,54,275,572,5728
1644173146.956062,-0.012939,0.008667,-0.994141,0.205588,0.432366,0.098015,52,265,577,5696
1644173147.004406,-0.012268,0.009155,-0.993042,0.35826,0.523969,0.006412,46,276,578,5760
1644173147.065858,-0.00946,0.00824,-0.992432,0.266656,0.325496,-0.14626,45,268,577,5696
1644173147.102072,-0.009277,0.009705,-0.990112,0.190321,0.447634,-0.024122,48,276,583,5648
1644173147.149557,-0.012756,0.008789,-0.993286,0.098718,0.417099,-0.069924,51,271,576,5664
1644173147.197956,-0.008179,0.011047,-0.99353,0.205588,0.447634,-0.130992,49,275,579,5712
1644173147.246319,-0.010193,0.006348,-0.993835,0.297191,0.569771,-0.115725,41,266,578,5712
1644173147.294714,-0.01062,0.008057,-0.990112,0.159786,0.432366,-0.054656,53,281,583,5776
1644173147.343131,-0.011047,0.008484,-0.991699,0.312458,0.325496,-0.161527,48,279,585,5728
1644173147.391527,-0.013,0.008728,-0.992126,0.205588,0.386565,-0.222595,55,279,580,5696
1644173147.439908,-0.012634,0.011292,-0.992981,0.205588,0.356031,0.036947,51,276,578,5696
1644173147.488297,-0.009583,0.007935,-0.992798,0.388794,0.386565,-0.192061,52,270,575,5728
1644173147.536692,-0.008484,0.010498,-0.993774,0.113985,0.508702,-0.161527,46,274,576,5696
1644173147.5858,-0.009094,0.008972,-0.991028,0.251389,0.478168,-0.100458,47,268,575,5648
1644173147.635624,-0.009521,0.007874,-0.992554,0.144519,0.539237,-0.176794,54,265,572,5760
1644173147.685933,-0.011414,0.009766,-0.991699,0.266656,0.325496,-0.039389,49,268,579,5728
1644173147.730912,-0.010132,0.007996,-0.991089,0.129252,0.493435,-0.069924,47,270,577,5728
1644173147.827016,-0.009216,0.007874,-0.992249,0.052916,0.340763,-0.069924,54,275,572,5696
1644173147.875456,-0.011292,0.007568,-0.991821,0.220855,0.371298,-0.115725,48,281,562,5728
1644173147.923858,-0.011047,0.005676,-0.993469,0.205588,0.24916,-0.130992,49,275,575,5712
1644173147.972258,-0.010803,0.006409,-0.992188,0.220855,0.310229,-0.161527,43,274,578,5664
1644173148.020615,-0.008789,0.007263,-0.989441,0.159786,0.401832,-0.085191,53,276,571,5696
1644173148.069101,-0.010742,0.012573,-0.991333,-0.008153,0.417099,-0.008855,52,280,572,5648
1644173148.11743,-0.009094,0.01001,-0.992432,0.35826,0.340763,-0.161527,42,263,577,5648
1644173148.16576,-0.012573,0.007874,-0.991455,0.251389,0.401832,-0.008855,55,269,573,5776
1644173148.214151,-0.010193,0.010498,-0.992859,0.220855,0.432366,-0.085191,51,264,578,5696
1644173148.262567,-0.012451,0.00708,-0.989624,0.052916,0.432366,-0.115725,46,279,576,5776
1644173148.310945,-0.012451,0.00824,-0.993286,0.35826,0.340763,-0.024122,48,279,585,5712
1644173148.359327,-0.00946,0.008545,-0.993774,0.159786,0.417099,-0.039389,48,286,580,5760
1644173148.40772,-0.011963,0.009888,-0.990967,0.144519,0.462901,-0.237863,53,276,576,5760
1644173148.456111,-0.010803,0.008606,-0.992126,0.236122,0.401832,-0.130992,46,271,580,5728
1644173148.504486,-0.01239,0.008423,-0.992676,0.205588,0.325496,-0.100458,54,270,575,5760
1644173148.55291,-0.010681,0.008789,-0.990356,0.281924,0.340763,-0.176794,46,274,587,5728
1644173148.601283,-0.009338,0.007446,-0.991028,0.022382,0.279695,-0.054656,47,277,575,5648
1644173148.649833,-0.008789,0.00769,-0.992249,0.205588,0.386565,0.052214,48,279,590,5696
1644173148.698377,-0.011658,0.009827,-0.991577,0.266656,0.401832,-0.176794,46,271,592,5776
1644173148.747229,-0.011902,0.00354,-0.991699,0.404061,0.310229,-0.069924,49,280,572,5696
1644173148.797874,-0.011597,0.006592,-0.994141,0.327725,0.432366,-0.176794,49,275,570,5696
1644173148.848413,-0.010742,0.007568,-0.992493,0.342992,0.432366,-0.100458,51,274,583,5760
1644173148.940079,-0.009216,0.007874,-0.994385,0.342992,0.386565,-0.207328,52,280,579,5728
1644173148.988426,-0.010071,0.008057,-0.991394,0.129252,0.279695,-0.054656,52,275,570,5648
1644173149.036844,-0.010498,0.007812,-0.993103,0.327725,0.401832,0.006412,48,271,583,5760
1644173149.085493,-0.012939,0.007935,-0.99176,0.327725,0.447634,-0.069924,49,277,575,5728
1644173149.133596,-0.010193,0.009277,-0.993469,0.159786,0.371298,-0.008855,43,276,585,5712
1644173149.181973,-0.009766,0.008972,-0.994629,0.297191,0.401832,0.006412,45,268,577,5776
1644173149.230362,-0.009338,0.009216,-0.992188,0.327725,0.417099,-0.069924,60,274,569,5728
1644173149.278766,-0.009766,0.010315,-0.991089,0.35826,0.447634,-0.115725,51,281,573,5712
1644173149.327149,-0.009033,0.008118,-0.992554,0.388794,0.417099,-0.130992,52,268,568,5728
1644173149.375535,-0.012207,0.008301,-0.992065,0.220855,0.325496,-0.069924,46,264,573,5760
1644173149.423948,-0.010803,0.007446,-0.99115,0.159786,0.462901,-0.054656,61,273,579,5760
1644173149.472341,-0.010986,0.00769,-0.992676,0.327725,0.432366,-0.161527,54,275,575,5712
1644173149.52071,-0.012878,0.007324,-0.991699,0.175053,0.386565,-0.115725,46,264,573,5728
1644173149.569104,-0.012207,0.010925,-0.993774,0.266656,0.294962,-0.115725,52,273,572,5696
1644173149.617461,-0.01001,0.007812,-0.992859,0.175053,0.478168,0.082748,49,275,582,5728
1644173149.665912,-0.01178,0.008972,-0.993225,0.327725,0.493435,-0.054656,47,280,575,5712
1644173149.714265,-0.011475,0.009399,-0.993347,0.205588,0.432366,-0.268397,45,275,575,5712
1644173149.762679,-0.00824,0.008362,-0.992188,0.236122,0.371298,-0.054656,51,276,587,5760
1644173149.811066,-0.008301,0.010742,-0.994446,0.35826,0.386565,-0.100458,52,268,575,5696
1644173149.860684,-0.010803,0.009644,-0.991699,0.144519,0.356031,-0.161527,53,262,576,5712
1644173149.911211,-0.009888,0.010071,-0.991394,0.220855,0.417099,-0.008855,47,273,572,5696
1644173149.961631,-0.014099,0.008911,-0.993347,0.388794,0.554504,-0.039389,40,280,584,5728
1644173150.063487,-0.009033,0.009827,-0.990295,0.236122,0.371298,0.052214,46,279,585,5760
1644173150.104891,-0.01062,0.009888,-0.992126,0.144519,0.279695,-0.054656,46,271,573,5712
1644173150.149822,-0.011169,0.010254,-0.993042,0.220855,0.417099,-0.039389,49,280,575,5712
1644173150.198187,-0.012695,0.007629,-0.99231,0.236122,0.523969,-0.130992,41,288,580,5712
1644173150.246539,-0.010193,0.009338,-0.989746,0.175053,0.279695,-0.176794,45,268,568,5664
1644173150.295092,-0.01239,0.007935,-0.993896,0.236122,0.279695,-0.115725,51,276,578,5696
1644173150.343366,-0.009216,0.006348,-0.99231,0.327725,0.356031,-0.069924,52,280,582,5712
1644173150.391755,-0.009216,0.008362,-0.992676,0.205588,0.325496,-0.024122,52,280,582,5664
1644173150.440137,-0.008606,0.009949,-0.990295,0.251389,0.401832,-0.161527,58,276,578,5696
1644173150.488523,-0.014465,0.010254,-0.99353,0.022382,0.279695,0.067481,43,269,580,5760
1644173150.53692,-0.01239,0.00885,-0.992249,0.205588,0.432366,-0.100458,52,280,582,5760
1644173150.585308,-0.012817,0.008728,-0.992981,0.175053,0.264427,-0.207328,59,282,568,5696
1644173150.63371,-0.012512,0.010254,-0.991211,0.297191,0.417099,-0.100458,49,268,579,5728
1644173150.682347,-0.010803,0.009277,-0.992004,0.281924,0.447634,-0.161527,51,274,569,5728
1644173150.731181,-0.012329,0.008423,-0.989258,0.266656,0.462901,-0.14626,54,268,575,5664
1644173150.781723,-0.013733,0.012207,-0.993896,0.205588,0.340763,0.021679,62,276,580,5760
1644173150.83181,-0.00946,0.006287,-0.992371,0.098718,0.478168,-0.14626,54,260,584,5712
1644173150.877698,-0.012085,0.009216,-0.990784,0.388794,0.401832,-0.039389,51,274,580,5664
1644173150.972481,-0.011719,0.010315,-0.994263,0.266656,0.508702,-0.100458,43,271,566,5648
1644173151.020867,-0.011902,0.009644,-0.992065,0.113985,0.386565,-0.024122,51,274,580,5664
1644173151.069299,-0.010498,0.007996,-0.992249,0.251389,0.356031,0.021679,41,276,571,5712
1644173151.117584,-0.012329,0.006531,-0.994995,0.281924,0.508702,-0.192061,52,273,570,5776
1644173151.16598,-0.012085,0.008606,-0.993652,0.327725,0.432366,-0.161527,41,274,566,5696
1644173151.214399,-0.010376,0.009705,-0.993164,0.175053,0.356031,-0.176794,42,277,582,5712
1644173151.262795,-0.008911,0.007263,-0.99353,0.190321,0.508702,-0.069924,49,265,575,5712
1644173151.311167,-0.011658,0.009583,-0.992737,0.266656,0.462901,-0.115725,47,275,579,5664
1644173151.35956,-0.01062,0.01062,-0.993286,0.052916,0.478168,0.036947,48,264,583,5664
1644173151.407962,-0.011658,0.008911,-0.991272,0.144519,0.218626,-0.039389,55,279,573,5760
1644173151.456386,-0.008057,0.007874,-0.99469,0.022382,0.356031,-0.024122,55,271,566,5760
1644173151.504794,-0.012146,0.010437,-0.994446,0.113985,0.386565,-0.024122,51,269,576,5824
1644173151.553135,-0.012695,0.008179,-0.992065,0.312458,0.371298,0.174351,51,274,576,5664
1644173151.601484,-0.011169,0.009033,-0.98877,0.312458,0.478168,0.189618,55,274,573,5696
1644173151.649897,-0.009766,0.010803,-0.99292,0.205588,0.417099,-0.115725,51,283,571,5664
1644173151.698292,-0.012207,0.009338,-0.993896,0.297191,0.523969,-0.161527,49,270,579,5696
1644173151.746689,-0.010071,0.009216,-0.992126,0.129252,0.432366,-0.130992,57,280,572,5664
1644173151.795304,-0.012329,0.008057,-0.991211,0.327725,0.356031,-0.024122,54,275,584,5696
1644173151.843522,-0.010559,0.007507,-0.991699,0.068183,0.401832,-0.14626,47,273,577,5728
1644173151.893412,-0.011475,0.006958,-0.992981,-0.008153,0.432366,0.006412,53,274,571,5776
1644173151.943589,-0.010681,0.010193,-0.992065,0.251389,0.462901,-0.222595,51,262,585,5712
1644173151.993819,-0.01123,0.00824,-0.989624,0.159786,0.432366,-0.069924,61,277,582,5696
1644173152.038303,-0.014648,0.012207,-0.993042,0.08345,0.417099,0.052214,48,264,578,5648
1644173152.133822,-0.012085,0.010315,-0.993103,0.312458,0.401832,-0.054656,60,279,576,5712
1644173152.182385,-0.009705,0.006836,-0.990784,0.281924,0.417099,-0.192061,53,274,576,5696
1644173152.230592,-0.011292,0.011414,-0.990845,0.251389,0.417099,-0.024122,49,270,561,5664
1644173152.278974,-0.007263,0.007812,-0.991455,0.281924,0.386565,-0.008855,54,268,579,5808
1644173152.327377,-0.012817,0.007751,-0.993591,0.281924,0.478168,0.082748,48,269,573,5696
1644173152.375763,-0.007385,0.008728,-0.991821,0.190321,0.462901,-0.207328,51,274,573,5696
1644173152.424167,-0.010986,0.008057,-0.994263,0.327725,0.447634,-0.100458,53,279,580,5664
1644173152.472574,-0.011108,0.008484,-0.991943,0.113985,0.539237,-0.100458,57,263,579,5648
1644173152.520943,-0.011719,0.010193,-0.992065,0.266656,0.24916,-0.039389,47,275,584,5776
1644173152.569323,-0.00946,0.009399,-0.993958,0.342992,0.356031,-0.054656,53,271,564,5664
1644173152.617718,-0.012268,0.006897,-0.98999,0.312458,0.401832,-0.085191,57,280,568,5760
1644173152.666106,-0.00824,0.008362,-0.991943,0.297191,0.508702,-0.115725,48,281,580,5696
1644173152.714522,-0.012085,0.008606,-0.990723,0.144519,0.462901,0.006412,47,268,579,5696
1644173152.762893,-0.011902,0.007935,-0.99115,0.190321,0.310229,-0.069924,52,275,575,5712
1644173152.81132,-0.00885,0.008484,-0.992004,0.266656,0.340763,-0.008855,51,279,580,5664
1644173152.859711,-0.013489,0.011414,-0.995972,0.159786,0.462901,-0.054656,62,279,580,5808
1644173152.908108,-0.010498,0.008484,-0.991272,0.297191,0.478168,-0.054656,57,273,572,5728
1644173152.956485,-0.010559,0.008911,-0.993225,0.205588,0.417099,-0.25313,43,283,576,5712
1644173153.004896,-0.009583,0.010193,-0.99292,0.35826,0.356031,-0.207328,45,268,575,5664
1644173153.07688,-0.010559,0.010925,-0.993652,0.297191,0.401832,-0.085191,54,280,572,5664
1644173153.108493,-0.013062,0.010254,-0.993164,0.312458,0.417099,-0.207328,47,263,582,5664
1644173153.150146,-0.008423,0.008301,-0.993164,0.190321,0.401832,-0.268397,57,277,575,5696
1644173153.246788,-0.012878,0.008179,-0.995239,0.281924,0.386565,-0.100458,58,271,573,5664
1644173153.29536,-0.009338,0.010559,-0.994812,0.220855,0.371298,-0.237863,51,264,571,5760
1644173153.343585,-0.01062,0.010864,-0.991455,0.281924,0.478168,0.052214,58,266,580,5648
1644173153.391972,-0.011292,0.007935,-0.991455,0.144519,0.447634,-0.039389,57,273,565,5664
1644173153.440371,-0.010986,0.010437,-0.992432,0.266656,0.401832,-0.161527,53,286,578,5776
1644173153.488746,-0.010437,0.006287,-0.991394,0.205588,0.203359,-0.069924,52,280,565,5728
1644173153.537121,-0.013489,0.011292,-0.992065,0.388794,0.386565,0.006412,53,269,569,5696
1644173153.585513,-0.010498,0.008667,-0.992188,0.205588,0.508702,-0.115725,53,276,571,5664
1644173153.633934,-0.015198,0.010742,-0.991699,0.175053,0.432366,0.082748,58,271,578,5696
1644173153.682336,-0.012268,0.005371,-0.99353,0.297191,0.386565,-0.024122,47,270,570,5728
1644173153.730713,-0.013306,0.008179,-0.994873,0.220855,0.401832,0.021679,57,273,579,5696
1644173153.7791,-0.013977,0.006104,-0.994202,0.205588,0.294962,-0.25313,55,276,576,5712
1644173153.827541,-0.008179,0.007751,-0.99176,0.068183,0.432366,0.113282,48,274,571,5760
1644173153.875919,-0.010437,0.009644,-0.993713,0.205588,0.478168,-0.115725,47,280,575,5648
1644173153.924319,-0.011536,0.008972,-0.993469,0.281924,0.310229,-0.054656,54,277,582,5760
1644173153.97272,-0.00824,0.00647,-0.993103,0.205588,0.432366,-0.176794,48,271,576,5728
1644173154.021056,-0.008301,0.008301,-0.991455,0.205588,0.386565,-0.14626,57,268,579,5728
1644173154.092297,-0.006592,0.007324,-0.99176,0.159786,0.432366,-0.039389,57,275,582,5808
1644173154.118462,-0.01001,0.008118,-0.993958,0.281924,0.340763,-0.237863,58,276,578,5600
1644173154.214882,-0.012146,0.006897,-0.99292,0.159786,0.462901,-0.024122,48,286,578,5664
1644173154.262995,-0.008728,0.00885,-0.992859,0.220855,0.401832,0.021679,48,286,576,5696
1644173154.311385,-0.014709,0.008423,-0.992493,0.297191,0.401832,0.006412,55,269,580,5728
1644173154.359778,-0.011719,0.009644,-0.994202,0.205588,0.493435,-0.085191,45,273,570,5696
1644173154.40818,-0.01001,0.010193,-0.991211,0.251389,0.371298,-0.130992,49,263,575,5728
1644173154.456553,-0.009094,0.008179,-0.990906,0.312458,0.462901,-0.192061,53,269,576,5776
1644173154.505003,-0.010071,0.009827,-0.990356,0.098718,0.386565,-0.207328,43,279,585,5648
1644173154.553333,-0.008484,0.008301,-0.98999,0.251389,0.508702,-0.222595,53,274,578,5696
1644173154.601728,-0.011597,0.009399,-0.992371,0.205588,0.340763,-0.161527,54,273,570,5664
1644173154.65011,-0.007324,0.010742,-0.990845,0.297191,0.371298,-0.222595,39,274,569,5760
1644173154.698521,-0.009888,0.00885,-0.992859,0.144519,0.447634,-0.192061,60,276,566,5712
1644173154.746893,-0.011963,0.007812,-0.994141,0.175053,0.462901,0.006412,48,271,573,5712
1644173154.795291,-0.008301,0.008972,-0.989807,0.175053,0.569771,-0.222595,40,277,582,5696
1644173154.843752,-0.006836,0.009033,-0.992615,0.159786,0.371298,-0.008855,53,279,583,5696
1644173154.892175,-0.010315,0.010071,-0.991699,0.175053,0.417099,-0.054656,54,270,589,5712
1644173154.940517,-0.012085,0.008545,-0.990051,0.251389,0.401832,-0.100458,53,271,583,5712
1644173154.988904,-0.010315,0.007263,-0.992188,0.297191,0.294962,-0.283664,49,275,570,5696
1644173155.037555,-0.010681,0.009583,-0.991516,0.098718,0.279695,-0.085191,47,285,586,5632
1644173155.094976,-0.011169,0.008179,-0.991638,0.342992,0.356031,0.006412,45,282,579,5648
1644173155.135711,-0.01416,0.007141,-0.993591,0.159786,0.401832,-0.024122,42,268,582,5696
1644173155.18464,-0.009705,0.010925,-0.991699,0.251389,0.432366,-0.085191,46,271,576,5696
1644173155.234986,-0.012085,0.007568,-0.991577,0.297191,0.356031,-0.115725,47,282,570,5696
1644173155.279893,-0.009521,0.00885,-0.993835,0.205588,0.218626,-0.25313,43,279,576,5696
1644173155.375969,-0.01123,0.010803,-0.989014,0.327725,0.24916,-0.192061,41,269,573,5712
1644173155.424431,-0.009827,0.010498,-0.992188,0.46513,0.462901,-0.115725,51,281,580,5760
1644173155.472776,-0.011414,0.009888,-0.991394,0.144519,0.310229,-0.008855,51,269,576,5696
1644173155.521145,-0.011963,0.009583,-0.990417,0.129252,0.432366,-0.115725,53,281,573,5664
1644173155.569541,-0.011169,0.010193,-0.989014,0.251389,0.340763,-0.069924,45,260,575,5760
1644173155.617933,-0.009827,0.010071,-0.989563,0.113985,0.493435,-0.100458,51,283,576,5696
1644173155.666326,-0.009766,0.008789,-0.994995,0.190321,0.493435,-0.024122,47,270,572,5760
1644173155.714733,-0.008911,0.010803,-0.991211,0.327725,0.569771,-0.100458,52,270,575,5728
1644173155.763126,-0.012207,0.006348,-0.991455,0.297191,0.447634,-0.329466,45,277,575,5696
1644173155.81151,-0.01178,0.010681,-0.989807,0.159786,0.325496,-0.115725,55,269,580,5664
1644173155.859934,-0.012695,0.008118,-0.990295,0.175053,0.356031,-0.222595,52,268,570,5760
1644173155.908327,-0.010254,0.005432,-0.991943,0.220855,0.432366,-0.069924,46,274,571,5760
1644173155.956717,-0.011536,0.005188,-0.99231,0.266656,0.417099,-0.176794,58,264,578,5696
1644173156.005157,-0.009888,0.006531,-0.992432,0.297191,0.523969,-0.192061,55,269,583,5696
1644173156.063071,-0.01123,0.008606,-0.992371,0.251389,0.447634,-0.176794,47,270,570,5760
1644173156.103397,-0.010864,0.011047,-0.989685,0.205588,0.401832,-0.130992,53,281,580,5712
1644173156.150221,-0.01123,0.011414,-0.992859,0.129252,0.203359,-0.100458,52,280,572,5648
1644173156.198623,-0.010559,0.008423,-0.993835,0.220855,0.371298,-0.115725,51,281,580,5760
1644173156.247,-0.009888,0.009155,-0.991577,0.434595,0.340763,-0.161527,62,281,583,5696
1644173156.295451,-0.012512,0.006042,-0.992798,0.251389,0.432366,-0.054656,54,273,582,5664
1644173156.346071,-0.014771,0.007629,-0.992371,0.297191,0.325496,-0.085191,45,273,577,5728
1644173156.396099,-0.010254,0.009338,-0.99353,0.419328,0.493435,-0.130992,48,276,583,5696
1644173156.441177,-0.009583,0.010376,-0.992371,0.251389,0.432366,-0.115725,46,276,578,5712
1644173156.537349,-0.011902,0.008118,-0.994202,0.266656,0.401832,-0.100458,51,266,583,5696
1644173156.585744,-0.012329,0.008728,-0.990845,0.251389,0.417099,0.021679,51,264,571,5664
1644173156.63415,-0.010193,0.010315,-0.991394,0.144519,0.462901,-0.192061,55,279,569,5696
1644173156.682544,-0.010315,0.00647,-0.993469,0.281924,0.417099,-0.115725,39,264,573,5712
1644173156.730926,-0.011963,0.006531,-0.993347,0.129252,0.432366,-0.192061,45,270,575,5664
1644173156.779314,-0.011597,0.012024,-0.994751,0.312458,0.386565,-0.085191,58,271,576,5760
1644173156.827711,-0.013855,0.008301,-0.995483,0.281924,0.432366,-0.069924,60,283,571,5728
1644173156.876142,-0.013855,0.007812,-0.99408,0.251389,0.447634,-0.115725,55,279,576,5696
1644173156.924543,-0.010803,0.008362,-0.992493,0.251389,0.569771,-0.222595,51,279,590,5648
1644173156.972905,-0.009216,0.006653,-0.994507,0.220855,0.447634,-0.039389,52,285,577,5712
1644173157.021304,-0.008728,0.010437,-0.993896,0.236122,0.340763,-0.161527,49,273,572,5648
1644173157.088918,-0.012939,0.009033,-0.993347,0.251389,0.401832,-0.192061,55,274,580,5728
1644173157.118124,-0.00824,0.00946,-0.992554,0.404061,0.523969,-0.054656,49,273,579,5696
1644173157.166453,-0.011414,0.006592,-0.992249,0.266656,0.447634,-0.14626,51,271,580,5760
1644173157.214877,-0.009216,0.00824,-0.994019,0.190321,0.356031,-0.161527,43,279,564,5712
1644173157.263237,-0.010559,0.008545,-0.991333,0.297191,0.417099,-0.069924,48,276,573,5760
1644173157.311618,-0.010193,0.00885,-0.991516,0.480397,0.493435,-0.237863,58,271,573,5728
1644173157.36001,-0.007996,0.009338,-0.990784,0.190321,0.340763,0.067481,49,270,579,5808
1644173157.408427,-0.009949,0.006653,-0.992188,0.236122,0.294962,-0.222595,53,271,580,5712
1644173157.456911,-0.011108,0.008667,-0.992859,0.236122,0.24916,0.036947,51,276,576,5712
1644173157.507406,-0.008789,0.008301,-0.990112,0.327725,0.539237,-0.176794,46,281,580,5760
1644173157.557901,-0.010254,0.010315,-0.994507,0.251389,0.325496,-0.115725,47,273,591,5728
1644173157.602859,-0.010559,0.006897,-0.989563,0.220855,0.371298,-0.085191,45,268,579,5696
1644173157.698734,-0.009399,0.009949,-0.993469,0.266656,0.294962,-0.176794,42,280,572,5696
1644173157.747121,-0.010681,0.01062,-0.99231,0.434595,0.462901,-0.024122,57,275,577,5696
1644173157.795505,-0.010437,0.007202,-0.992981,0.251389,0.356031,-0.268397,49,280,582,5696
1644173157.843925,-0.012024,0.006836,-0.990295,0.281924,0.401832,-0.115725,43,269,594,5712
1644173157.892364,-0.011536,0.007385,-0.994995,0.281924,0.462901,-0.115725,64,277,570,5728
1644173157.94073,-0.011047,0.009033,-0.992676,0.144519,0.356031,-0.207328,48,269,580,5712
1644173157.989123,-0.008484,0.008972,-0.99353,0.342992,0.325496,-0.161527,52,275,582,5712
1644173158.037519,-0.011292,0.009155,-0.991089,0.297191,0.462901,-0.14626,46,279,571,5664
1644173158.094865,-0.010193,0.009705,-0.993286,0.251389,0.310229,-0.069924,57,280,586,5728
1644173158.134292,-0.010498,0.009033,-0.991089,0.159786,0.356031,-0.100458,48,279,583,5696
1644173158.182672,-0.010132,0.009644,-0.991943,0.281924,0.417099,-0.115725,45,275,577,5696
1644173158.231009,-0.008972,0.007385,-0.990295,0.144519,0.340763,-0.176794,46,279,571,5760
1644173158.279413,-0.010315,0.007996,-0.989319,0.297191,0.432366,-0.100458,42,280,572,5728
1644173158.32783,-0.010315,0.011658,-0.992981,0.281924,0.462901,-0.054656,58,269,580,5664
1644173158.376249,-0.009888,0.01001,-0.992126,0.312458,0.432366,-0.039389,43,271,569,5696
1644173158.425018,-0.01001,0.007385,-0.990906,0.052916,0.554504,-0.115725,52,268,579,5648
1644173158.47622,-0.009338,0.01178,-0.991699,0.220855,0.401832,-0.085191,51,279,587,5760
1644173158.526004,-0.00946,0.006592,-0.989929,0.190321,0.417099,-0.024122,46,276,576,5696
1644173158.571007,-0.007446,0.01239,-0.990906,0.266656,0.386565,-0.085191,52,273,586,5696
1644173158.666548,-0.011292,0.009277,-0.991516,0.312458,0.401832,-0.100458,55,276,566,5696
1644173158.715208,-0.014221,0.008911,-0.987854,0.007115,0.233893,0.067481,49,268,565,5712
1644173158.763347,-0.003723,-0.002991,-0.995728,0.251389,0.462901,-0.176794,58,266,585,5664
1644173158.811723,-0.01886,0.009644,-0.993225,0.190321,0.432366,-0.25313,58,274,576,5712
1644173158.860096,-0.013672,0.005676,-0.991821,0.46513,0.432366,0.036947,46,271,573,5696
1644173158.908535,-0.005127,0.007935,-0.99469,0.007115,0.188092,-0.344733,35,275,586,5696
1644173158.956936,-0.014526,0.014526,-0.985535,0.236122,0.310229,0.067481,49,270,575,5696
1644173159.00534,-0.009827,0.003845,-0.993774,0.404061,0.462901,0.174351,52,268,577,5712
1644173159.068533,-0.009216,0.013306,-0.989929,0.022382,0.371298,-0.298931,57,270,582,5696
1644173159.107515,-0.01001,0.01062,-0.988708,0.480397,0.523969,0.082748,54,277,579,5712
1644173159.150512,-0.00946,0.010559,-0.993958,0.175053,0.325496,0.006412,49,282,577,5664
1644173159.198862,-0.008179,0.011963,-0.988586,0.007115,0.401832,-0.192061,51,279,583,5712
1644173159.24722,-0.008484,0.007507,-0.991699,0.281924,0.432366,0.006412,57,285,575,5664
1644173159.295635,-0.011292,0.011108,-0.993225,0.175053,0.218626,-0.25313,48,271,576,5712
1644173159.34403,-0.011353,0.013977,-0.991882,0.144519,0.386565,-0.085191,57,280,579,5712
1644173159.392442,-0.009766,0.007874,-0.990845,0.434595,0.523969,-0.069924,53,279,583,5760
1644173159.440807,-0.009277,0.008667,-0.992676,0.297191,0.294962,0.036947,45,268,579,5664
1644173159.489326,-0.010742,0.010071,-0.989807,0.251389,0.462901,0.036947,45,270,584,5712
1644173159.537586,-0.012451,0.008667,-0.992249,0.236122,0.233893,-0.207328,66,268,586,5808
1644173159.586188,-0.008972,0.013184,-0.99054,0.281924,0.447634,-0.069924,55,276,583,5648
1644173159.636662,-0.011719,0.009399,-0.993164,0.434595,0.585038,-0.039389,45,270,575,5712
1644173159.686789,-0.01123,0.008545,-0.991943,0.113985,0.386565,-0.176794,53,279,578,5776
1644173159.731857,-0.010315,0.01178,-0.991333,0.327725,0.478168,-0.130992,49,277,572,5664
1644173159.827925,-0.012573,0.007751,-0.993469,0.205588,0.386565,-0.008855,51,276,573,5712
1644173159.876309,-0.012634,0.007629,-0.993896,0.220855,0.325496,-0.115725,45,273,570,5712
1644173159.924788,-0.011475,0.007141,-0.99231,0.236122,0.157557,-0.039389,49,273,577,5696
1644173159.97316,-0.010254,0.009399,-0.991028,0.281924,0.432366,-0.25313,49,273,568,5696
1644173160.021545,-0.011902,0.010132,-0.994263,0.373527,0.401832,-0.192061,48,271,580,5696
1644173160.069978,-0.010254,0.007935,-0.992432,0.236122,0.401832,-0.176794,54,275,572,5696
1644173160.118285,-0.012146,0.011841,-0.991699,0.190321,0.386565,-0.100458,55,274,573,5728
1644173160.166667,-0.013733,0.005737,-0.991699,0.327725,0.585038,-0.14626,58,274,571,5664
1644173160.215088,-0.014404,0.009644,-0.992859,0.281924,0.279695,-0.115725,55,279,573,5728
1644173160.263443,-0.013184,0.008118,-0.994446,0.205588,0.478168,-0.115725,59,275,570,5760
1644173160.311845,-0.009705,0.00824,-0.991638,0.098718,0.294962,-0.115725,52,268,577,5696
1644173160.360227,-0.012451,0.008484,-0.992981,0.251389,0.371298,-0.069924,52,277,568,5696
1644173160.408621,-0.011841,0.007751,-0.993652,0.175053,0.447634,-0.039389,55,269,583,5760
1644173160.457014,-0.012512,0.007629,-0.992493,0.236122,0.371298,-0.008855,41,269,580,5696
1644173160.505387,-0.010498,0.009705,-0.99231,0.312458,0.386565,-0.130992,53,279,573,5664
1644173160.55381,-0.009094,0.009338,-0.992615,0.144519,0.432366,-0.039389,51,269,580,5648
1644173160.602206,-0.012573,0.008362,-0.991516,0.373527,0.462901,-0.161527,57,265,570,5696
1644173160.650576,-0.008667,0.012146,-0.992676,0.205588,0.325496,-0.207328,54,255,575,5712
1644173160.698972,-0.01062,0.010071,-0.992249,0.113985,0.386565,-0.115725,47,268,582,5696
1644173160.747394,-0.012573,0.008789,-0.992615,0.190321,0.371298,-0.024122,58,283,583,5728
1644173160.798375,-0.01239,0.007263,-0.994019,0.159786,0.462901,-0.130992,48,283,571,5696
1644173160.84876,-0.010071,0.00885,-0.993591,0.205588,0.371298,-0.069924,47,268,582,5728
1644173160.893344,-0.013062,0.011169,-0.991028,0.236122,0.386565,-0.298931,55,271,569,5648
1644173160.989329,-0.011597,0.008911,-0.994812,0.251389,0.462901,0.052214,48,276,573,5728
1644173161.037757,-0.009827,0.006592,-0.992737,0.266656,0.386565,-0.222595,48,271,571,5760
1644173161.089901,-0.008423,0.010071,-0.994568,0.175053,0.310229,-0.130992,53,269,585,5664
1644173161.134489,-0.011475,0.009277,-0.992554,0.236122,0.554504,-0.115725,53,283,576,5696
1644173161.182873,-0.011536,0.008362,-0.992737,0.251389,0.462901,-0.069924,51,269,580,5760
1644173161.23127,-0.011047,0.006226,-0.992859,0.266656,0.371298,-0.069924,46,279,585,5728
1644173161.279652,-0.011536,0.008728,-0.992737,0.175053,0.493435,-0.054656,60,271,576,5696
1644173161.32805,-0.010437,0.010376,-0.991577,0.281924,0.356031,-0.069924,52,270,565,5760
1644173161.376431,-0.009521,0.011108,-0.992859,0.236122,0.340763,-0.085191,59,275,577,5696
1644173161.424854,-0.007996,0.010254,-0.990662,0.129252,0.371298,-0.176794,54,277,579,5728
1644173161.473228,-0.006775,0.011719,-0.991028,-0.008153,0.386565,-0.14626,53,269,587,5712
1644173161.52162,-0.011292,0.010742,-0.993347,0.175053,0.432366,-0.130992,46,262,576,5712
1644173161.569997,-0.010742,0.010925,-0.992676,0.35826,0.386565,-0.115725,43,279,571,5728
1644173161.618399,-0.012756,0.00708,-0.995667,0.190321,0.371298,-0.085191,52,282,575,5728
1644173161.666787,-0.010315,0.008484,-0.991943,0.312458,0.432366,-0.14626,49,282,584,5728
1644173161.715171,-0.015503,0.009094,-0.994202,0.220855,0.478168,-0.130992,57,277,579,5712
1644173161.763569,-0.010071,0.010132,-0.993103,0.373527,0.523969,-0.039389,54,285,577,5728
1644173161.812002,-0.01178,0.008972,-0.993164,0.297191,0.325496,0.052214,57,268,577,5712
1644173161.860416,-0.011536,0.008362,-0.990112,0.205588,0.417099,-0.115725,43,269,571,5776
1644173161.910252,-0.009949,0.00885,-0.989807,0.35826,0.325496,-0.054656,52,270,575,5696
1644173161.96055,-0.010925,0.008179,-0.992615,0.236122,0.386565,-0.192061,51,266,576,5728
1644173162.066601,-0.009705,0.009033,-0.992004,0.419328,0.371298,-0.085191,45,270,570,5696
1644173162.105782,-0.009399,0.008057,-0.989563,0.281924,0.356031,-0.069924,46,271,569,5712
1644173162.150695,-0.008118,0.006592,-0.99115,0.251389,0.447634,-0.115725,38,287,579,5664
1644173162.199066,-0.01123,0.009949,-0.993164,0.266656,0.493435,-0.115725,47,275,577,5664
1644173162.247454,-0.010803,0.008057,-0.990906,0.373527,0.356031,-0.176794,47,277,575,5664
1644173162.295851,-0.012207,0.008179,-0.992493,0.251389,0.417099,0.067481,52,268,579,5696
1644173162.344256,-0.01239,0.008545,-0.991028,0.297191,0.233893,-0.100458,55,283,583,5696
1644173162.392638,-0.009155,0.008484,-0.994141,0.312458,0.508702,-0.192061,47,265,572,5696
1644173162.441042,-0.009949,0.01001,-0.993042,0.159786,0.539237,-0.130992,52,280,586,5760
1644173162.489454,-0.008118,0.011108,-0.991577,0.266656,0.447634,-0.298931,48,276,573,5664
1644173162.53782,-0.007629,0.009338,-0.99176,0.281924,0.493435,-0.161527,61,277,579,5808
1644173162.586216,-0.008545,0.010193,-0.991089,0.297191,0.386565,-0.008855,41,269,576,5712
1644173162.634749,-0.011658,0.010071,-0.992065,0.251389,0.401832,-0.14626,48,279,571,5776
1644173162.683717,-0.009949,0.009033,-0.994263,0.098718,0.432366,-0.085191,53,264,585,5648
1644173162.734292,-0.005859,0.007446,-0.995972,0.205588,0.523969,-0.25313,41,271,587,5728
1644173162.784395,-0.011963,0.010864,-0.992065,0.190321,0.417099,-0.008855,51,274,571,5696
1644173162.876574,-0.012146,0.010925,-0.990845,0.342992,0.447634,0.006412,45,275,577,5712
1644173162.92505,-0.009216,0.008118,-0.993408,0.175053,0.478168,0.021679,52,282,565,5696
1644173162.973381,-0.009338,0.011963,-0.988037,0.205588,0.478168,-0.085191,49,277,568,5728
1644173163.021731,-0.010803,0.009888,-0.989502,0.175053,0.523969,-0.130992,48,271,578,5712
1644173163.070994,-0.010498,0.008484,-0.992981,0.281924,0.279695,0.113282,51,271,580,5664
1644173163.118509,-0.009644,0.010498,-0.991943,0.388794,0.493435,-0.054656,49,270,575,5696
1644173163.166891,-0.011047,0.009338,-0.993958,0.266656,0.356031,0.006412,43,271,583,5696
1644173163.215288,-0.010437,0.009094,-0.990234,0.236122,0.432366,-0.024122,46,283,583,5696
1644173163.263664,-0.011169,0.006897,-0.994629,0.113985,0.447634,-0.130992,65,276,573,5712
1644173163.312042,-0.010315,0.008179,-0.99292,0.220855,0.356031,-0.085191,43,271,571,5696
1644173163.360461,-0.011353,0.009521,-0.992981,0.342992,0.447634,-0.298931,55,269,587,5664
1644173163.408859,-0.011963,0.00708,-0.990601,0.312458,0.493435,-0.115725,45,277,572,5728
1644173163.457245,-0.011597,0.009216,-0.992188,0.297191,0.432366,-0.115725,33,273,575,5712
1644173163.505613,-0.008301,0.013184,-0.991882,0.175053,0.356031,0.143817,40,270,579,5648
1644173163.554027,-0.009644,0.00824,-0.993408,0.205588,0.508702,-0.161527,51,276,576,5728
1644173163.602433,-0.010986,0.010742,-0.994873,0.266656,0.264427,-0.024122,48,283,580,5760
1644173163.650816,-0.009949,0.007446,-0.993469,0.297191,0.401832,-0.161527,49,268,577,5696
1644173163.699203,-0.011108,0.012268,-0.989075,0.281924,0.386565,0.021679,45,275,582,5696
1644173163.747563,-0.011414,0.011047,-0.993958,0.297191,0.386565,-0.008855,59,277,582,5664
1644173163.79645,-0.00946,0.011047,-0.994141,0.266656,0.417099,-0.100458,46,276,571,5664
1644173163.847772,-0.009033,0.010193,-0.993286,0.297191,0.417099,-0.14626,47,270,575,5776
1644173163.898084,-0.011536,0.007629,-0.992676,0.297191,0.493435,0.006412,55,269,585,5760
1644173163.942762,-0.011719,0.00647,-0.989807,0.35826,0.371298,-0.039389,45,273,582,5696
1644173164.037941,-0.010681,0.009949,-0.992615,0.129252,0.493435,0.12855,41,276,569,5696
1644173164.086453,-0.015381,0.010437,-0.992493,0.236122,0.417099,-0.024122,46,274,571,5664
1644173164.13498,-0.011597,0.007874,-0.992188,0.266656,0.325496,0.036947,52,265,561,5696
1644173164.183112,-0.008911,0.010193,-0.993896,0.251389,0.523969,0.098015,54,275,579,5696
1644173164.231487,-0.011536,0.008728,-0.994202,0.404061,0.340763,-0.039389,62,276,573,5712
1644173164.279875,-0.008362,0.008728,-0.993164,0.388794,0.401832,-0.14626,51,281,569,5712
1644173164.328262,-0.012329,0.007751,-0.990845,0.113985,0.417099,0.098015,49,280,584,5728
1644173164.376664,-0.014587,0.006348,-0.991943,0.281924,0.432366,-0.085191,47,275,575,5728
1644173164.425185,-0.012756,0.006531,-0.993652,0.266656,0.371298,0.036947,49,273,582,5696
1644173164.473476,-0.009644,0.008911,-0.989929,0.251389,0.310229,-0.039389,49,277,577,5760
1644173164.521843,-0.010864,0.008911,-0.992126,0.266656,0.417099,-0.039389,47,280,572,5728
1644173164.570223,-0.010132,0.009216,-0.989868,0.281924,0.478168,-0.130992,38,285,575,5808
1644173164.618622,-0.011047,0.01239,-0.991028,0.266656,0.401832,-0.039389,51,274,571,5696
1644173164.667011,-0.008972,0.007202,-0.991699,0.251389,0.310229,0.036947,41,269,573,5696
1644173164.715408,-0.004333,0.007324,-0.990173,0.281924,0.386565,-0.161527,58,262,585,5728
1644173164.763789,-0.009827,0.01178,-0.992798,0.266656,0.523969,-0.222595,54,270,577,5712
1644173164.812198,-0.011292,0.00769,-0.990051,0.175053,0.447634,-0.130992,47,270,586,5712
1644173164.860623,-0.007935,0.006409,-0.993408,0.373527,0.310229,-0.192061,49,268,575,5728
1644173164.909021,-0.010315,0.007263,-0.991516,0.312458,0.401832,0.006412,48,276,576,5712
1644173164.958815,-0.010437,0.009521,-0.994385,0.190321,0.340763,0.006412,49,265,568,5696
1644173165.009051,-0.01001,0.010193,-0.989746,0.388794,0.508702,-0.039389,55,271,580,5664
1644173165.105167,-0.007996,0.010864,-0.990967,0.266656,0.478168,-0.130992,54,282,570,5696
1644173165.150961,-0.009705,0.008972,-0.991882,0.266656,0.356031,-0.130992,51,274,583,5760
1644173165.199312,-0.011047,0.007568,-0.98938,0.190321,0.356031,-0.161527,48,276,569,5728
1644173165.247692,-0.010498,0.008301,-0.993835,0.205588,0.310229,-0.100458,55,266,580,5696
1644173165.296083,-0.009705,0.008057,-0.989441,0.144519,0.447634,-0.039389,52,273,575,5696
1644173165.344489,-0.011414,0.01001,-0.992737,0.266656,0.447634,0.021679,53,266,571,5664
1644173165.392892,-0.010742,0.010376,-0.993042,0.266656,0.371298,-0.024122,49,277,577,5664
1644173165.441273,-0.010437,0.009705,-0.991638,0.159786,0.508702,-0.100458,52,280,575,5648
1644173165.489685,-0.009583,0.011475,-0.990906,0.297191,0.371298,-0.130992,53,276,587,5728
1644173165.538054,-0.007874,0.009644,-0.992859,0.342992,0.432366,-0.237863,49,273,570,5696
1644173165.586442,-0.012634,0.010376,-0.991394,0.388794,0.264427,-0.085191,57,275,579,5728
1644173165.63483,-0.008484,0.008545,-0.99054,0.266656,0.462901,-0.100458,47,285,577,5808
1644173165.68322,-0.010559,0.009827,-0.989502,0.220855,0.371298,-0.054656,53,266,573,5760
1644173165.731605,-0.011353,0.009155,-0.993225,0.190321,0.325496,-0.176794,45,275,582,5664
1644173165.779971,-0.010742,0.011047,-0.991028,0.404061,0.462901,-0.130992,51,274,573,5696
1644173165.828391,-0.008545,0.008118,-0.991699,0.35826,0.432366,-0.176794,49,270,570,5648
1644173165.87719,-0.011047,0.008118,-0.992981,0.220855,0.417099,-0.14626,54,277,565,5648
1644173165.928407,-0.009949,0.009644,-0.989868,0.236122,0.386565,-0.039389,51,274,578,5664
1644173165.977389,-0.011719,0.009521,-0.990295,0.312458,0.371298,-0.130992,45,270,579,5632
1644173166.027478,-0.009521,0.010193,-0.995544,0.297191,0.310229,-0.176794,48,274,585,5712
1644173166.118817,-0.012329,0.009094,-0.992554,0.205588,0.401832,-0.069924,54,270,584,5776
1644173166.16714,-0.01178,0.008972,-0.993713,0.175053,0.417099,-0.039389,52,275,575,5728
1644173166.215554,-0.011597,0.006348,-0.989136,0.327725,0.462901,-0.176794,45,275,568,5728
1644173166.263949,-0.012268,0.011536,-0.98938,0.266656,0.462901,0.021679,51,271,571,5728
1644173166.312335,-0.012085,0.011353,-0.991882,0.297191,0.340763,-0.130992,59,273,577,5712
1644173166.360739,-0.008911,0.009644,-0.994141,0.175053,0.356031,-0.115725,47,280,584,5664
1644173166.409098,-0.010254,0.009705,-0.992004,0.388794,0.401832,-0.192061,46,274,578,5760
1644173166.457511,-0.009644,0.009216,-0.992859,0.281924,0.417099,-0.085191,61,287,570,5712
1644173166.505919,-0.009338,0.007202,-0.992737,0.281924,0.539237,-0.085191,40,265,565,5728
1644173166.554376,-0.011169,0.007751,-0.992126,0.404061,0.523969,-0.237863,57,268,582,5728
1644173166.602709,-0.01001,0.008545,-0.993469,0.220855,0.371298,-0.069924,49,277,575,5712
1644173166.651079,-0.011414,0.011047,-0.992615,0.312458,0.310229,-0.024122,58,276,578,5808
1644173166.699456,-0.010498,0.007446,-0.993896,0.037649,0.447634,-0.008855,51,281,578,5728
1644173166.747844,-0.006226,0.006592,-0.991577,0.297191,0.447634,-0.161527,53,269,587,5664
1644173166.796218,-0.00946,0.009583,-0.991394,0.175053,0.356031,-0.100458,43,279,578,5728
1644173166.844651,-0.012634,0.010681,-0.992004,0.251389,0.417099,-0.054656,53,269,578,5728
1644173166.893006,-0.009277,0.008789,-0.993347,0.205588,0.417099,-0.024122,55,283,580,5712
1644173166.94184,-0.010803,0.008606,-0.990112,0.220855,0.462901,0.036947,43,276,578,5728
1644173166.990128,-0.011353,0.008545,-0.992371,0.281924,0.493435,0.021679,52,273,575,5760
1644173167.040247,-0.010742,0.009949,-0.990601,0.342992,0.340763,-0.100458,57,275,575,5696
1644173167.097716,-0.011108,0.011353,-0.991455,0.251389,0.432366,-0.039389,41,274,576,5696
1644173167.140254,-0.009827,0.009216,-0.991638,0.388794,0.462901,-0.100458,52,285,582,5728
1644173167.231723,-0.010498,0.009155,-0.994385,0.281924,0.310229,0.006412,62,276,573,5728
1644173167.280103,-0.013062,0.008301,-0.991089,0.297191,0.508702,-0.14626,51,271,578,5600
1644173167.328511,-0.010559,0.008362,-0.991089,0.312458,0.447634,-0.130992,48,264,573,5760
