epoch,acc_x,acc_y,acc_z,rot_x,rot_y,rot_z,mag_x,mag_y,mag_z,temp
1644180600.01556,-0.009033,0.011597,-0.992432,0.342992,0.294962,-0.192061,62,279,587,6128
1644180600.091588,-0.008179,0.011169,-0.991882,0.236122,0.508702,-0.161527,41,279,585,6112
1644180600.160737,-0.008301,0.00946,-0.991821,0.220855,0.417099,0.036947,46,279,585,6128
1644180600.209091,-0.009888,0.009888,-0.994629,0.129252,0.340763,-0.085191,41,274,587,6160
1644180600.257468,-0.01062,0.009583,-0.992004,0.266656,0.462901,0.021679,57,275,586,6112
1644180600.30586,-0.007874,0.010437,-0.991455,0.236122,0.386565,-0.161527,41,274,580,6112
1644180600.35428,-0.008972,0.012085,-0.988892,0.175053,0.432366,-0.176794,47,277,579,6080
1644180600.402687,-0.010925,0.006836,-0.992737,0.236122,0.371298,-0.069924,52,280,582,6112
1644180600.451051,-0.01123,0.009338,-0.994019,0.342992,0.24916,-0.25313,46,279,583,6128
1644180600.499427,-0.008484,0.012695,-0.992371,0.327725,0.218626,-0.176794,59,277,584,6128
1644180600.547826,-0.010315,0.009644,-0.992615,0.312458,0.371298,-0.085191,51,271,583,6128
1644180600.596239,-0.00708,0.01062,-0.990662,0.312458,0.233893,-0.100458,49,277,586,6160
1644180600.644783,-0.011353,0.009644,-0.993225,0.327725,0.310229,-0.130992,41,286,578,6080
1644180600.693041,-0.006287,0.01001,-0.992126,0.205588,0.356031,-0.14626,58,279,576,6160
1644180600.741786,-0.008728,0.007812,-0.992004,0.281924,0.386565,-0.054656,48,274,592,6112
1644180600.789811,-0.009094,0.010437,-0.99054,0.205588,0.401832,-0.069924,38,282,586,6048
1644180600.8382,-0.00769,0.008423,-0.992798,0.129252,0.310229,-0.100458,51,274,587,6160
1644180600.886649,-0.012207,0.009094,-0.991638,0.251389,0.401832,0.036947,49,277,582,6080
1644180600.935403,-0.008301,0.008545,-0.99054,0.175053,0.371298,-0.192061,49,280,589,6112
1644180600.984051,-0.008911,0.009705,-0.991455,0.175053,0.493435,-0.237863,48,293,583,6112
1644180601.034303,-0.009827,0.010132,-0.991394,0.175053,0.569771,-0.039389,57,277,596,6112
1644180601.087372,-0.009827,0.010315,-0.992981,0.144519,0.340763,-0.207328,46,279,594,6176
1644180601.176975,-0.008789,0.011108,-0.992615,0.220855,0.493435,0.036947,49,282,589,6128
1644180601.225454,-0.007019,0.011414,-0.993225,0.175053,0.371298,-0.085191,40,277,584,6080
1644180601.273776,-0.010071,0.012207,-0.99054,0.327725,0.371298,-0.054656,39,288,592,6080
1644180601.322391,-0.009277,0.010376,-0.98999,0.266656,0.417099,-0.008855,49,270,586,6128
1644180601.370558,-0.009399,0.009705,-0.991272,0.129252,0.554504,0.052214,52,273,584,6080
1644180601.418941,-0.007385,0.008606,-0.98999,0.159786,0.310229,-0.085191,41,276,587,6128
1644180601.46733,-0.010376,0.010193,-0.99292,0.373527,0.294962,-0.130992,49,277,584,6128
1644180601.51582,-0.010864,0.009766,-0.992981,0.236122,0.356031,-0.008855,47,277,586,6112
1644180601.564114,-0.011108,0.011047,-0.991821,0.159786,0.401832,-0.237863,48,286,583,6128
1644180601.61253,-0.00946,0.010254,-0.990784,0.266656,0.447634,-0.008855,54,270,577,6112
1644180601.660916,-0.009705,0.00946,-0.993896,0.190321,0.447634,-0.161527,46,281,590,6160
1644180601.709302,-0.009216,0.012085,-0.991638,0.159786,0.310229,-0.100458,51,276,583,6080
1644180601.757686,-0.008789,0.008057,-0.98999,0.190321,0.478168,-0.100458,46,276,587,6112
1644180601.806094,-0.009338,0.012634,-0.992554,0.098718,0.432366,-0.100458,36,286,585,6128
1644180601.854493,-0.010742,0.010254,-0.991394,0.297191,0.493435,-0.039389,57,275,582,6080
1644180601.902845,-0.012573,0.008362,-0.990967,0.144519,0.447634,-0.100458,40,277,572,6176
1644180601.951251,-0.008972,0.006897,-0.995056,0.281924,0.432366,-0.039389,45,275,582,6080
1644180601.999878,-0.010498,0.009705,-0.991089,0.190321,0.401832,-0.298931,60,269,583,6112
1644180602.060492,-0.009949,0.008972,-0.993408,0.159786,0.356031,-0.14626,47,280,584,6128
1644180602.10465,-0.009338,0.009155,-0.989014,0.068183,0.523969,-0.100458,58,271,599,6080
1644180602.148094,-0.009705,0.009705,-0.990173,0.35826,0.508702,-0.039389,55,274,592,6080
1644180602.198157,-0.010559,0.009766,-0.993591,0.281924,0.401832,-0.008855,41,279,580,6128
1644180602.289968,-0.009033,0.009583,-0.991211,0.327725,0.417099,-0.14626,53,291,585,6112
1644180602.338367,-0.007385,0.009033,-0.993347,0.144519,0.432366,-0.375267,52,277,572,6128
1644180602.386734,-0.008911,0.00946,-0.990845,0.190321,0.371298,0.006412,48,288,590,6080
1644180602.435353,-0.009766,0.009705,-0.992798,0.35826,0.478168,0.006412,45,268,586,6160
1644180602.48355,-0.008484,0.008667,-0.992859,0.251389,0.508702,-0.054656,48,274,592,6176
1644180602.531923,-0.008118,0.007935,-0.992188,0.220855,0.508702,-0.222595,45,275,579,6080
1644180602.580332,-0.007874,0.009888,-0.990723,0.388794,0.340763,-0.14626,46,276,592,6080
1644180602.628705,-0.010132,0.012817,-0.993469,0.342992,0.386565,-0.161527,46,283,580,6160
1644180602.677123,-0.008179,0.008667,-0.992432,0.144519,0.493435,-0.14626,45,273,582,6064
1644180602.725492,-0.009094,0.010437,-0.993774,0.373527,0.356031,-0.069924,52,273,586,6128
1644180602.773923,-0.008667,0.009827,-0.993286,0.159786,0.432366,-0.069924,52,270,591,6128
1644180602.82236,-0.01062,0.007812,-0.994385,0.129252,0.371298,-0.222595,54,273,582,6080
1644180602.870723,-0.007568,0.006165,-0.992371,0.236122,0.432366,-0.115725,52,280,575,6112
1644180602.919116,-0.009949,0.012024,-0.991699,0.236122,0.432366,-0.024122,59,280,600,6080
1644180602.967515,-0.009644,0.010925,-0.992737,0.113985,0.340763,-0.14626,49,277,589,6048
1644180603.01591,-0.005798,0.012268,-0.990845,0.449863,0.569771,-0.085191,48,274,594,6080
1644180603.075312,-0.008118,0.007874,-0.991943,0.281924,0.462901,-0.039389,54,268,579,6176
1644180603.116184,-0.009216,0.010986,-0.99469,0.159786,0.340763,-0.008855,51,274,594,6080
1644180603.161333,-0.010925,0.010132,-0.990784,0.342992,0.356031,0.006412,54,277,582,6128
1644180603.210728,-0.010864,0.008057,-0.99176,0.297191,0.371298,-0.085191,43,274,580,6080
1644180603.261062,-0.01001,0.00885,-0.989868,0.251389,0.24916,-0.14626,48,274,585,6112
1644180603.311133,-0.008667,0.007751,-0.992676,0.144519,0.432366,-0.054656,49,275,589,6128
1644180603.403006,-0.008179,0.012756,-0.994141,0.404061,0.493435,-0.085191,41,274,576,6080
1644180603.451392,-0.00824,0.008362,-0.993164,0.129252,0.325496,-0.039389,38,263,589,6128
1644180603.499788,-0.007812,0.010132,-0.991394,0.281924,0.417099,-0.161527,52,285,591,6080
1644180603.548191,-0.007263,0.007385,-0.99469,0.205588,0.371298,-0.069924,49,273,589,6128
1644180603.596562,-0.008057,0.010376,-0.993896,0.190321,0.386565,-0.130992,45,275,591,6160
1644180603.645015,-0.00885,0.00885,-0.991089,0.266656,0.310229,-0.115725,57,265,586,6128
1644180603.693366,-0.009094,0.011719,-0.992065,0.220855,0.325496,-0.024122,43,271,592,6176
1644180603.741763,-0.005615,0.010559,-0.99231,0.113985,0.417099,-0.130992,48,274,599,6176
1644180603.790126,-0.007996,0.00885,-0.992004,0.297191,0.356031,-0.024122,51,274,580,6112
1644180603.838617,-0.011414,0.007751,-0.993408,0.113985,0.493435,-0.039389,39,279,583,6080
1644180603.886965,-0.01001,0.007629,-0.989807,0.08345,0.386565,-0.069924,58,276,580,6112
1644180603.935367,-0.010559,0.009033,-0.992371,0.312458,0.386565,-0.130992,53,271,585,6112
1644180603.983768,-0.010376,0.009949,-0.99292,0.205588,0.432366,-0.024122,45,282,589,6080
1644180604.032234,-0.01062,0.011047,-0.992554,0.373527,0.264427,-0.176794,51,269,583,6112
1644180604.09225,-0.013,0.008423,-0.992432,0.266656,0.462901,-0.100458,47,275,589,6112
1644180604.130327,-0.008362,0.007935,-0.99292,0.342992,0.325496,-0.069924,54,277,575,6160
1644180604.179033,-0.007019,0.01001,-0.991516,0.220855,0.447634,-0.176794,43,276,583,6080
1644180604.229435,-0.007324,0.009705,-0.991394,0.35826,0.462901,-0.192061,42,275,586,6160
1644180604.274368,-0.009705,0.01062,-0.992188,0.205588,0.447634,-0.100458,45,273,591,6160
1644180604.37085,-0.009155,0.011047,-0.993286,0.220855,0.432366,-0.024122,59,282,586,6064
1644180604.419238,-0.009094,0.006714,-0.992432,0.220855,0.279695,-0.100458,46,269,578,6128
1644180604.46764,-0.010803,0.011658,-0.993225,0.205588,0.447634,-0.024122,54,275,584,6080
1644180604.51603,-0.010193,0.010193,-0.992432,0.144519,0.508702,-0.14626,51,271,590,6192
1644180604.564476,-0.012512,0.007751,-0.991455,0.068183,0.172824,-0.115725,48,279,576,6160
1644180604.612837,-0.008728,0.008606,-0.995483,0.159786,0.432366,-0.008855,42,270,582,6128
1644180604.661217,-0.006042,0.010132,-0.991943,0.205588,0.432366,-0.100458,52,268,579,6080
1644180604.709589,-0.007996,0.00885,-0.992249,0.129252,0.508702,-0.085191,47,270,586,6112
1644180604.758005,-0.010681,0.011292,-0.99176,0.220855,0.310229,-0.222595,53,274,583,6112
1644180604.806388,-0.00824,0.01062,-0.994263,0.342992,0.386565,-0.069924,52,270,591,6112
1644180604.854811,-0.007629,0.007935,-0.992554,0.327725,0.478168,-0.024122,49,280,582,6016
1644180604.903222,-0.009277,0.00885,-0.991455,0.266656,0.325496,-0.100458,49,273,577,6160
1644180604.95162,-0.006958,0.011169,-0.994324,0.159786,0.417099,0.021679,49,277,579,6128
1644180605.000009,-0.007568,0.008972,-0.991333,0.236122,0.417099,-0.115725,43,283,585,6048
1644180605.048398,-0.008423,0.010315,-0.990601,0.236122,0.417099,-0.039389,53,266,583,6160
1644180605.10065,-0.011902,0.008911,-0.992676,0.236122,0.401832,-0.100458,59,275,582,6160
1644180605.145211,-0.005798,0.009399,-0.990051,0.266656,0.478168,-0.115725,46,279,592,6128
1644180605.193527,-0.009521,0.006287,-0.991028,0.175053,0.417099,0.036947,43,276,585,6112
1644180605.241926,-0.008301,0.012512,-0.990906,0.281924,0.508702,-0.222595,45,275,586,6048
1644180605.290371,-0.011353,0.008057,-0.993835,0.175053,0.478168,-0.039389,48,276,580,6128
1644180605.341051,-0.009399,0.010559,-0.992004,0.251389,0.401832,0.006412,57,265,589,6128
1644180605.391011,-0.008179,0.009033,-0.989868,0.35826,0.417099,-0.161527,49,280,584,6112
1644180605.43626,-0.008362,0.010437,-0.993225,0.175053,0.478168,-0.115725,51,279,583,6080
1644180605.532395,-0.006958,0.010498,-0.992432,0.220855,0.340763,-0.024122,43,283,571,6080
1644180605.580668,-0.007874,0.009827,-0.993042,0.312458,0.371298,-0.069924,51,274,597,6048
1644180605.629051,-0.009521,0.008911,-0.993286,0.236122,0.432366,-0.024122,46,279,583,6160
1644180605.677459,-0.009949,0.00885,-0.991821,0.434595,0.386565,-0.024122,46,274,576,6080
1644180605.725842,-0.008301,0.009521,-0.99054,0.236122,0.417099,-0.207328,57,275,591,6080
1644180605.774243,-0.006897,0.011963,-0.992737,0.266656,0.432366,-0.130992,46,271,580,6112
1644180605.822644,-0.009399,0.009521,-0.991211,0.312458,0.386565,-0.14626,45,282,591,6128
1644180605.871067,-0.008972,0.00769,-0.994812,0.236122,0.325496,-0.161527,48,271,576,6064
1644180605.919463,-0.010437,0.009338,-0.994202,0.297191,0.340763,-0.14626,48,283,583,6160
1644180605.967856,-0.008545,0.011108,-0.993164,0.175053,0.233893,-0.14626,47,275,579,6064
1644180606.016243,-0.00946,0.008057,-0.992493,0.08345,0.401832,-0.14626,45,268,596,6064
1644180606.066335,-0.008118,0.011841,-0.991394,0.281924,0.523969,-0.039389,53,279,587,6128
1644180606.113068,-0.00647,0.005188,-0.990906,0.297191,0.340763,-0.192061,58,283,578,6112
1644180606.161411,-0.008667,0.009827,-0.992798,0.327725,0.417099,-0.069924,59,280,584,6080
1644180606.209771,-0.008301,0.012817,-0.990906,0.297191,0.401832,-0.054656,53,274,580,6048
1644180606.258153,-0.009338,0.011292,-0.99231,0.281924,0.371298,-0.298931,51,276,580,6080
1644180606.306527,-0.010376,0.008545,-0.993469,0.35826,0.447634,-0.024122,61,282,584,6192
1644180606.354989,-0.008057,0.00769,-0.992432,0.129252,0.432366,-0.024122,55,279,578,6160
1644180606.403343,-0.007935,0.009888,-0.992432,0.327725,0.493435,-0.115725,43,269,583,6080
1644180606.451771,-0.009521,0.007202,-0.990967,0.159786,0.447634,-0.130992,47,273,582,6128
1644180606.502323,-0.009583,0.010193,-0.987732,0.129252,0.508702,-0.008855,51,274,571,6160
1644180606.552428,-0.01001,0.009705,-0.990417,0.266656,0.310229,0.021679,54,282,582,6128
1644180606.597549,-0.007935,0.00824,-0.99176,0.220855,0.447634,0.036947,51,271,585,6160
1644180606.693709,-0.009033,0.007935,-0.992065,0.312458,0.447634,-0.085191,45,292,575,6048
1644180606.742068,-0.007935,0.008545,-0.990234,0.236122,0.294962,-0.237863,46,271,585,6112
1644180606.790481,-0.00824,0.010681,-0.990967,0.220855,0.279695,0.082748,55,274,590,6080
1644180606.838862,-0.011414,0.009521,-0.992859,0.281924,0.417099,0.021679,57,280,586,6080
1644180606.887314,-0.009705,0.010681,-0.991394,0.190321,0.340763,-0.054656,48,276,576,6080
1644180606.935692,-0.007812,0.008667,-0.992737,0.113985,0.447634,-0.069924,53,279,594,6064
1644180606.984107,-0.011047,0.01001,-0.990417,0.220855,0.401832,-0.222595,55,271,587,6080
1644180607.03251,-0.007019,0.009399,-0.990723,0.205588,0.325496,0.082748,55,274,585,6112
1644180607.095398,-0.009155,0.007446,-0.992737,0.388794,0.24916,-0.069924,53,271,585,6080
1644180607.129275,-0.010071,0.009155,-0.992676,0.251389,0.447634,-0.130992,52,270,584,6080
1644180607.177602,-0.00946,0.008911,-0.994629,0.373527,0.554504,0.082748,53,281,576,6128
1644180607.226013,-0.010742,0.009399,-0.993042,0.190321,0.539237,-0.008855,59,280,589,6112
1644180607.274416,-0.008606,0.011047,-0.994751,0.129252,0.401832,-0.161527,41,269,590,6128
1644180607.322815,-0.007019,0.008972,-0.990356,0.113985,0.462901,-0.069924,58,269,587,6128
1644180607.371163,-0.007812,0.009766,-0.990784,0.404061,0.508702,-0.115725,43,274,585,6112
1644180607.419588,-0.006836,0.010986,-0.992798,0.251389,0.447634,-0.039389,49,268,593,6128
1644180607.46798,-0.009521,0.011353,-0.990967,0.251389,0.356031,-0.115725,57,282,593,6176
1644180607.516375,-0.009827,0.008667,-0.991882,0.205588,0.447634,-0.100458,54,290,584,6128
1644180607.564768,-0.00708,0.011841,-0.992493,0.220855,0.356031,-0.222595,48,281,590,6080
1644180607.613485,-0.004517,0.008301,-0.993225,0.297191,0.462901,-0.039389,49,280,577,6128
1644180607.663956,-0.006958,0.008911,-0.989502,0.205588,0.310229,-0.069924,36,281,583,6160
1644180607.714015,-0.007812,0.010925,-0.991455,0.266656,0.294962,-0.130992,49,280,582,6080
1644180607.759154,-0.009644,0.011108,-0.991211,0.052916,0.401832,-0.115725,43,269,585,6112
1644180607.85534,-0.009888,0.009094,-0.989319,0.388794,0.539237,-0.054656,49,280,579,6112
1644180607.903568,-0.009766,0.010315,-0.99115,0.190321,0.279695,-0.069924,41,269,583,6080
1644180607.951943,-0.006531,0.010071,-0.992798,0.404061,0.432366,-0.14626,55,269,585,6128
1644180608.00042,-0.008301,0.00946,-0.990906,0.312458,0.310229,-0.192061,51,271,590,6128
1644180608.049122,-0.009583,0.010925,-0.989685,0.007115,0.386565,-0.008855,51,286,587,6080
1644180608.097144,-0.010132,0.009583,-0.991821,0.190321,0.478168,-0.039389,49,277,593,6128
1644180608.145588,-0.011169,0.009277,-0.991516,0.098718,0.325496,-0.054656,35,277,591,6128
1644180608.193953,-0.007507,0.00885,-0.994568,0.144519,0.340763,-0.161527,57,275,582,6080
1644180608.242255,-0.011841,0.008728,-0.991333,0.266656,0.386565,0.006412,52,273,591,6128
1644180608.290632,-0.00885,0.007568,-0.99231,0.266656,0.401832,-0.207328,51,276,578,6128
1644180608.339036,-0.01062,0.006348,-0.990479,0.068183,0.508702,-0.024122,45,273,577,6112
1644180608.387437,-0.008484,0.00824,-0.991699,0.175053,0.447634,-0.008855,53,274,583,6128
1644180608.435825,-0.01001,0.006287,-0.991333,0.129252,0.386565,-0.161527,52,275,584,6080
1644180608.484221,-0.008362,0.007202,-0.992981,0.205588,0.24916,-0.069924,52,268,589,6016
1644180608.532628,-0.008118,0.011414,-0.992126,0.236122,0.386565,0.021679,51,281,583,6160
1644180608.581001,-0.008667,0.009766,-0.992004,0.129252,0.279695,-0.222595,46,281,587,6128
1644180608.629417,-0.006836,0.008118,-0.991699,0.144519,0.508702,-0.14626,48,279,587,6016
1644180608.678248,-0.006287,0.009338,-0.99231,0.297191,0.310229,-0.039389,48,264,590,6160
1644180608.728235,-0.006836,0.010986,-0.992615,0.159786,0.325496,-0.039389,43,269,580,6080
1644180608.779129,-0.010986,0.006653,-0.991516,0.35826,0.554504,0.006412,53,279,580,6160
1644180608.823942,-0.009827,0.009216,-0.991638,0.297191,0.493435,-0.085191,51,276,585,6128
1644180608.919799,-0.007812,0.008179,-0.989075,0.297191,0.569771,-0.100458,55,274,585,6080
1644180608.96818,-0.007507,0.009827,-0.991882,0.312458,0.401832,-0.115725,53,274,580,6080
1644180609.01656,-0.008911,0.011292,-0.992798,0.022382,0.401832,-0.054656,43,276,583,6160
1644180609.069981,-0.009705,0.009216,-0.990662,0.342992,0.371298,-0.024122,49,287,591,6128
1644180609.113358,-0.009216,0.008606,-0.992065,0.251389,0.233893,0.036947,43,279,580,6160
1644180609.161744,-0.012146,0.009583,-0.992615,0.220855,0.569771,-0.115725,57,273,579,6048
1644180609.21014,-0.010498,0.009766,-0.993164,0.052916,0.356031,-0.207328,47,273,584,6064
1644180609.258529,-0.007202,0.011475,-0.990051,0.144519,0.417099,-0.085191,40,287,589,6128
1644180609.306915,-0.010193,0.008057,-0.990967,0.129252,0.340763,-0.054656,39,274,583,6128
1644180609.355326,-0.007874,0.010681,-0.995911,0.312458,0.508702,0.113282,45,268,584,6112
1644180609.403736,-0.011841,0.009827,-0.991699,0.373527,0.310229,-0.039389,42,280,572,6160
1644180609.452247,-0.011902,0.011658,-0.990295,0.144519,0.508702,-0.100458,46,269,583,6128
1644180609.500511,-0.007141,0.008728,-0.992188,0.205588,0.340763,0.052214,58,286,587,6160
1644180609.548898,-0.007507,0.011353,-0.992249,0.205588,0.539237,-0.14626,51,269,585,6160
1644180609.597297,-0.007385,0.009888,-0.990784,0.098718,0.417099,0.036947,45,287,586,6112
1644180609.645682,-0.009827,0.008179,-0.992065,0.297191,0.447634,-0.039389,51,279,590,6128
1644180609.694068,-0.008545,0.011475,-0.991638,0.251389,0.523969,-0.115725,54,275,589,6080
1644180609.742663,-0.009583,0.011353,-0.990601,0.175053,0.401832,-0.161527,49,282,584,6080
1644180609.791526,-0.011902,0.011169,-0.989563,0.251389,0.356031,0.021679,47,275,589,6112
1644180609.841631,-0.008728,0.00708,-0.991699,0.190321,0.432366,-0.268397,45,265,586,6128
1644180609.892291,-0.009033,0.01178,-0.98938,0.35826,0.401832,-0.130992,47,277,584,6128
1644180609.936716,-0.010437,0.00885,-0.991272,0.190321,0.462901,-0.207328,43,279,580,6160
1644180610.032814,-0.008179,0.010559,-0.991699,0.35826,0.386565,-0.069924,53,281,587,6176
1644180610.08123,-0.009399,0.009338,-0.991028,0.098718,0.24916,-0.14626,47,275,579,6128
1644180610.130169,-0.007263,0.008301,-0.992126,0.129252,0.401832,-0.130992,53,279,580,6080
1644180610.177931,-0.011169,0.010559,-0.991211,0.144519,0.401832,0.082748,51,274,590,6176
1644180610.226341,-0.007446,0.011047,-0.990906,0.220855,0.478168,-0.085191,42,280,568,6080
1644180610.274726,-0.009338,0.010376,-0.993286,0.266656,0.554504,-0.085191,59,268,589,6176
1644180610.323146,-0.009277,0.011597,-0.993103,0.251389,0.294962,0.021679,54,273,582,6160
1644180610.371534,-0.005005,0.008118,-0.991577,0.190321,0.493435,-0.100458,51,264,585,6112
1644180610.419936,-0.010376,0.011169,-0.993286,0.144519,0.447634,-0.14626,55,266,583,6128
1644180610.468321,-0.010742,0.010803,-0.992432,0.129252,0.325496,-0.008855,41,286,587,6160
1644180610.516704,-0.008972,0.008423,-0.99231,0.281924,0.188092,-0.207328,46,281,587,6080
1644180610.56521,-0.00647,0.011597,-0.992554,0.190321,0.447634,-0.039389,48,271,580,6128
1644180610.613499,-0.007751,0.00946,-0.994507,0.281924,0.310229,0.082748,39,279,590,6176
1644180610.661882,-0.01001,0.009338,-0.990234,0.159786,0.188092,-0.100458,58,271,599,6112
1644180610.710326,-0.007324,0.008057,-0.993042,0.297191,0.523969,-0.085191,46,271,585,6128
1644180610.758641,-0.010803,0.009033,-0.990295,0.190321,0.462901,-0.069924,47,270,591,6128
1644180610.807072,-0.009766,0.008545,-0.993652,0.434595,0.493435,0.036947,51,283,585,6128
1644180610.855478,-0.00946,0.009155,-0.992188,0.35826,0.417099,-0.207328,53,271,573,6048
1644180610.903911,-0.006409,0.008423,-0.992981,0.175053,0.401832,-0.054656,53,276,578,6112
1644180610.953666,-0.006897,0.006958,-0.990906,0.220855,0.432366,-0.024122,51,281,583,6080
1644180611.003919,-0.009216,0.008911,-0.994385,0.205588,0.417099,-0.14626,59,270,589,6112
1644180611.072318,-0.008606,0.010681,-0.991455,0.297191,0.294962,-0.192061,59,282,591,6128
1644180611.104693,-0.007935,0.00946,-0.993164,0.175053,0.203359,-0.069924,42,275,591,6112
1644180611.194223,-0.007141,0.004578,-0.992249,0.159786,0.462901,-0.085191,36,279,580,6128
1644180611.242601,-0.006287,0.008789,-0.991638,0.129252,0.493435,-0.039389,54,268,586,6080
1644180611.290967,-0.011047,0.009277,-0.990173,0.129252,0.325496,-0.130992,53,269,592,6128
1644180611.339378,-0.007324,0.010376,-0.99054,0.327725,0.478168,-0.161527,49,280,584,6224
1644180611.387763,-0.005188,0.011169,-0.992676,0.236122,0.478168,-0.237863,45,280,584,6080
1644180611.436161,-0.00531,0.007385,-0.992615,0.342992,0.340763,-0.054656,52,280,575,6128
1644180611.484603,-0.01062,0.007568,-0.991699,0.236122,0.340763,-0.207328,53,281,580,6128
1644180611.53296,-0.009766,0.006042,-0.992065,0.266656,0.340763,-0.192061,51,274,578,6112
1644180611.581335,-0.010315,0.011292,-0.993591,0.220855,0.401832,-0.192061,58,286,587,6128
1644180611.629731,-0.008972,0.010803,-0.992188,0.113985,0.371298,0.006412,49,280,575,6080
1644180611.678128,-0.009399,0.007141,-0.99176,0.281924,0.508702,-0.085191,49,273,586,6064
1644180611.726521,-0.006531,0.008179,-0.992371,0.220855,0.462901,0.021679,51,274,585,6160
1644180611.774945,-0.00885,0.009338,-0.992065,0.266656,0.462901,-0.085191,57,280,591,6080
1644180611.823349,-0.010986,0.00647,-0.992676,0.159786,0.539237,-0.207328,48,286,583,6128
1644180611.871739,-0.009277,0.010254,-0.991699,0.068183,0.340763,-0.14626,53,281,585,6080
1644180611.920131,-0.010803,0.00708,-0.992004,0.236122,0.401832,-0.024122,46,281,583,6160
1644180611.968521,-0.012756,0.007019,-0.993713,0.297191,0.340763,-0.207328,43,274,590,6048
1644180612.07101,-0.00647,0.01062,-0.990845,0.35826,0.508702,-0.024122,53,283,590,6080
1644180612.113636,-0.008118,0.010925,-0.993408,0.205588,0.432366,-0.085191,51,279,585,6080
1644180612.162033,-0.009033,0.008179,-0.99231,0.159786,0.310229,-0.069924,54,277,582,6224
1644180612.210441,-0.00885,0.009644,-0.994568,0.251389,0.401832,-0.069924,61,275,586,6080
1644180612.258842,-0.006714,0.007996,-0.992065,0.175053,0.508702,-0.161527,45,275,582,6080
1644180612.307217,-0.008789,0.009827,-0.993652,0.205588,0.478168,-0.085191,49,280,589,6128
1644180612.355626,-0.006409,0.010498,-0.994202,0.190321,0.417099,-0.054656,49,280,579,6080
1644180612.404042,-0.009705,0.009094,-0.994263,0.220855,0.447634,-0.222595,52,275,591,6192
1644180612.452434,-0.006897,0.009949,-0.991943,0.312458,0.401832,-0.085191,49,270,582,6080
1644180612.500826,-0.010071,0.010559,-0.989807,0.342992,0.340763,-0.268397,49,280,586,6064
1644180612.549195,-0.007141,0.011108,-0.988647,0.327725,0.356031,-0.115725,54,275,584,6080
1644180612.597585,-0.007751,0.010864,-0.992249,0.113985,0.294962,0.021679,45,280,598,6064
1644180612.645974,-0.01001,0.008911,-0.992676,0.251389,0.432366,-0.069924,49,277,589,6064
1644180612.694368,-0.00824,0.008057,-0.989746,0.144519,0.508702,-0.115725,52,275,593,6080
1644180612.742777,-0.008484,0.009399,-0.991394,0.159786,0.417099,-0.14626,54,277,591,6128
1644180612.791125,-0.007996,0.005676,-0.990906,0.190321,0.386565,-0.054656,53,281,587,6128
1644180612.840101,-0.008667,0.008484,-0.989685,0.266656,0.386565,-0.268397,58,274,587,6080
1644180612.891181,-0.010254,0.008606,-0.990295,0.175053,0.493435,-0.085191,48,271,594,6080
1644180612.941278,-0.010437,0.011353,-0.990662,0.266656,0.386565,-0.115725,48,276,592,6192
1644180612.985783,-0.012817,0.009033,-0.993164,0.236122,0.462901,-0.115725,58,279,583,6128
1644180613.081678,-0.009827,0.010071,-0.992981,0.159786,0.294962,-0.039389,52,275,586,6128
1644180613.12993,-0.009216,0.008301,-0.992432,0.113985,0.432366,-0.115725,43,281,587,6112
1644180613.178285,-0.009033,0.009644,-0.994812,0.327725,0.279695,0.021679,46,274,585,6160
1644180613.226685,-0.010254,0.006775,-0.98999,0.297191,0.24916,-0.161527,53,276,585,6160
1644180613.275123,-0.008179,0.008484,-0.992249,0.144519,0.401832,-0.192061,64,280,596,6080
1644180613.323485,-0.007935,0.009338,-0.99353,0.327725,0.371298,-0.115725,45,277,582,6080
1644180613.371881,-0.01178,0.007507,-0.993347,0.266656,0.386565,-0.008855,49,275,579,6128
1644180613.420269,-0.011658,0.008423,-0.991516,0.312458,0.279695,-0.130992,51,274,578,6112
1644180613.468646,-0.007141,0.007996,-0.99353,0.327725,0.294962,-0.054656,49,280,589,6128
1644180613.517054,-0.009888,0.008179,-0.993469,0.297191,0.294962,-0.069924,51,281,576,6160
1644180613.56544,-0.00769,0.006104,-0.991821,0.251389,0.569771,-0.054656,52,270,589,6080
1644180613.61385,-0.008972,0.009521,-0.993713,0.266656,0.371298,-0.069924,48,274,578,6112
1644180613.66231,-0.009888,0.008484,-0.991211,0.373527,0.478168,-0.054656,55,291,578,6128
1644180613.710622,-0.010437,0.010315,-0.991394,0.220855,0.371298,-0.115725,47,273,591,6160
1644180613.758989,-0.007629,0.009827,-0.99176,0.205588,0.264427,-0.130992,48,276,594,6080
1644180613.807404,-0.006897,0.007324,-0.994629,0.159786,0.493435,0.098015,48,286,597,6112
1644180613.855844,-0.006897,0.009766,-0.991516,0.281924,0.432366,-0.054656,45,270,572,6080
1644180613.904304,-0.008667,0.01123,-0.992065,0.297191,0.401832,-0.237863,40,268,586,6128
1644180613.952612,-0.00946,0.009399,-0.994324,0.190321,0.401832,-0.039389,47,270,586,6080
1644180614.002329,-0.009888,0.009766,-0.991882,0.159786,0.447634,0.052214,57,268,591,6160
1644180614.062353,-0.009216,0.010071,-0.992188,0.404061,0.523969,-0.085191,53,279,587,6128
1644180614.111923,-0.006958,0.009949,-0.995361,0.052916,0.493435,-0.069924,57,275,584,6160
1644180614.194547,-0.010925,0.009644,-0.992554,0.220855,0.508702,-0.054656,53,281,590,6128
1644180614.242942,-0.010071,0.00885,-0.992065,0.236122,0.447634,-0.024122,55,271,583,6080
1644180614.291309,-0.009399,0.007935,-0.993469,0.205588,0.386565,-0.069924,46,276,571,6048
1644180614.339714,-0.005798,0.007141,-0.990173,0.327725,0.386565,-0.115725,42,277,575,6128
1644180614.388102,-0.008301,0.008606,-0.993408,0.205588,0.417099,-0.192061,48,283,587,6192
1644180614.436503,-0.010925,0.009705,-0.992065,0.144519,0.447634,0.036947,46,279,580,6128
1644180614.484889,-0.010559,0.010803,-0.993103,0.220855,0.432366,-0.100458,51,276,587,6160
1644180614.533297,-0.008972,0.010681,-0.988464,0.312458,0.432366,-0.25313,40,275,579,6128
1644180614.581684,-0.009644,0.010437,-0.991028,0.266656,0.493435,-0.054656,49,282,579,6080
1644180614.630064,-0.008484,0.007935,-0.991211,0.327725,0.401832,-0.024122,45,270,589,6112
1644180614.678518,-0.008545,0.010864,-0.989746,0.251389,0.432366,-0.222595,53,274,585,6160
1644180614.726865,-0.011108,0.008667,-0.989929,0.236122,0.478168,-0.085191,54,277,584,6048
1644180614.775296,-0.009338,0.008789,-0.991882,0.297191,0.447634,-0.100458,45,277,584,6112
1644180614.823655,-0.007874,0.009705,-0.994446,0.190321,0.24916,-0.176794,49,280,589,6080
1644180614.872073,-0.008057,0.009521,-0.991211,0.08345,0.417099,-0.161527,45,282,589,6128
1644180614.920448,-0.008179,0.009644,-0.994202,0.281924,0.447634,0.052214,52,275,582,6176
1644180614.968835,-0.009399,0.00708,-0.992737,0.251389,0.325496,-0.085191,46,281,587,6160
1644180615.017253,-0.010559,0.007507,-0.991089,0.236122,0.432366,-0.100458,48,274,583,6160
1644180615.11399,-0.008667,0.009399,-0.992981,0.205588,0.432366,0.006412,51,269,590,6128
1644180615.162704,-0.00769,0.00824,-0.991943,0.068183,0.493435,-0.039389,52,280,579,6112
1644180615.210772,-0.007874,0.006836,-0.992249,0.251389,0.340763,-0.039389,52,275,593,6128
1644180615.259153,-0.011475,0.010193,-0.994019,0.190321,0.478168,-0.069924,54,270,591,6176
1644180615.30757,-0.008423,0.010254,-0.989624,0.175053,0.447634,-0.024122,53,288,580,6112
1644180615.355945,-0.007568,0.00885,-0.993286,0.175053,0.371298,-0.130992,48,281,576,6160
1644180615.404355,-0.010315,0.01062,-0.994812,0.266656,0.417099,-0.222595,52,270,582,6048
1644180615.452787,-0.007202,0.011353,-0.993591,0.144519,0.478168,-0.039389,47,265,575,6080
1644180615.501112,-0.009949,0.008057,-0.993958,0.220855,0.172824,-0.069924,57,277,586,6080
1644180615.549499,-0.010803,0.009521,-0.99054,0.144519,0.356031,-0.054656,45,270,582,6160
1644180615.597914,-0.008362,0.009094,-0.991577,0.175053,0.432366,-0.130992,49,270,577,6128
1644180615.64632,-0.00885,0.01001,-0.991699,0.129252,0.325496,0.12855,39,281,583,6080
1644180615.694717,-0.010376,0.011169,-0.991699,0.281924,0.432366,-0.054656,52,275,591,6128
1644180615.743103,-0.011597,0.009766,-0.990723,0.281924,0.356031,0.006412,43,274,580,6080
1644180615.791492,-0.00946,0.010376,-0.992371,0.312458,0.462901,-0.115725,42,275,589,6176
1644180615.839888,-0.00824,0.007996,-0.990662,0.052916,0.264427,-0.008855,47,273,584,6128
1644180615.888318,-0.01001,0.008545,-0.991089,0.266656,0.447634,-0.069924,47,277,589,6064
1644180615.936792,-0.007874,0.008484,-0.991882,0.266656,0.401832,0.006412,47,277,584,6064
1644180615.985165,-0.008911,0.009277,-0.991882,0.08345,0.233893,-0.024122,55,283,585,6080
1644180616.034686,-0.00824,0.007629,-0.993103,0.236122,0.447634,-0.069924,51,276,593,6160
1644180616.095412,-0.008423,0.010193,-0.989258,0.312458,0.417099,-0.069924,46,288,597,6224
1644180616.134919,-0.010498,0.008362,-0.991821,0.327725,0.432366,0.021679,47,290,582,6176
1644180616.179541,-0.009338,0.009583,-0.990967,0.35826,0.478168,-0.115725,49,270,579,6128
1644180616.275455,-0.008301,0.011658,-0.992004,0.220855,0.493435,-0.130992,47,277,579,6176
1644180616.323845,-0.010742,0.008667,-0.99115,0.205588,0.294962,-0.130992,52,273,572,6160
1644180616.372413,-0.009766,0.010376,-0.992065,0.281924,0.432366,-0.207328,52,273,586,6128
1644180616.420624,-0.00946,0.011047,-0.992676,0.144519,0.478168,-0.054656,53,271,580,6112
1644180616.469029,-0.009155,0.009949,-0.990906,0.190321,0.417099,-0.008855,38,287,579,6080
1644180616.517413,-0.008667,0.008911,-0.991882,0.129252,0.386565,0.021679,41,269,583,6112
1644180616.5658,-0.008606,0.00946,-0.99176,0.205588,0.417099,0.067481,51,276,573,6160
1644180616.614212,-0.007019,0.009583,-0.992798,0.312458,0.417099,-0.100458,41,276,583,6128
1644180616.662606,-0.009277,0.007507,-0.992859,0.35826,0.432366,0.021679,40,280,579,6160
1644180616.710978,-0.008484,0.008606,-0.991638,0.342992,0.508702,-0.161527,46,283,580,6112
1644180616.759364,-0.009277,0.009155,-0.990906,0.220855,0.478168,-0.100458,51,274,587,6128
1644180616.80777,-0.009033,0.010681,-0.990784,0.312458,0.447634,0.036947,47,280,584,6016
1644180616.856166,-0.010071,0.008484,-0.994629,0.098718,0.600305,-0.100458,47,277,579,6128
1644180616.904614,-0.007507,0.008362,-0.991028,0.297191,0.340763,-0.054656,43,276,583,6080
1644180616.952973,-0.00824,0.010193,-0.99176,0.144519,0.386565,-0.039389,46,279,597,6080
1644180617.001312,-0.010437,0.011658,-0.992981,0.159786,0.478168,-0.161527,40,265,591,6080
1644180617.049727,-0.009277,0.007324,-0.992432,0.159786,0.401832,-0.115725,49,263,584,6080
1644180617.099038,-0.008057,0.006287,-0.991638,0.35826,0.539237,-0.024122,53,288,585,6112
1644180617.146458,-0.011353,0.008789,-0.993408,0.159786,0.432366,-0.085191,48,264,578,6112
1644180617.19592,-0.009827,0.007629,-0.991577,0.434595,0.493435,-0.161527,49,270,593,6112
1644180617.246448,-0.00824,0.010986,-0.991333,0.220855,0.462901,-0.161527,47,280,582,6160
1644180617.296421,-0.007935,0.010803,-0.993164,0.175053,0.356031,0.082748,48,281,583,6112
1644180617.341335,-0.008911,0.007324,-0.994751,0.190321,0.264427,0.006412,41,264,587,6128
1644180617.436831,-0.008911,0.010437,-0.989563,0.281924,0.447634,0.052214,47,280,591,6064
1644180617.485374,-0.008545,0.009094,-0.990784,0.144519,0.325496,0.052214,52,275,589,6080
1644180617.533605,-0.011292,0.012512,-0.993408,0.129252,0.340763,-0.14626,54,275,589,6128
1644180617.582013,-0.008057,0.008179,-0.992004,0.068183,0.386565,-0.085191,59,275,589,6112
1644180617.630413,-0.010498,0.007507,-0.992065,0.373527,0.401832,-0.130992,53,276,585,6080
1644180617.678806,-0.011963,0.007202,-0.992859,0.220855,0.447634,-0.085191,54,282,582,6112
1644180617.72719,-0.009033,0.010315,-0.993042,0.251389,0.432366,-0.115725,58,276,583,6128
1644180617.775586,-0.009338,0.009338,-0.990051,0.175053,0.432366,-0.069924,57,280,593,6128
1644180617.824028,-0.007874,0.00946,-0.991699,0.297191,0.432366,0.006412,42,280,577,6064
1644180617.872399,-0.010132,0.010071,-0.989929,0.373527,0.340763,-0.237863,53,274,580,6128
1644180617.920804,-0.007202,0.008972,-0.990784,0.205588,0.417099,-0.14626,45,275,582,6128
1644180617.969187,-0.01001,0.01178,-0.994141,0.236122,0.447634,-0.14626,47,275,579,6080
1644180618.017575,-0.010071,0.006592,-0.990723,0.388794,0.386565,-0.14626,42,277,584,6048
1644180618.07055,-0.009399,0.010071,-0.990723,0.35826,0.356031,-0.085191,52,270,589,6176
1644180618.114362,-0.009155,0.010193,-0.990417,0.190321,0.325496,-0.115725,46,281,590,6160
1644180618.16274,-0.009216,0.008545,-0.992981,0.342992,0.401832,-0.069924,58,279,587,6176
1644180618.211114,-0.01178,0.007385,-0.990173,0.144519,0.432366,-0.054656,58,274,580,6080
1644180618.25952,-0.007629,0.009399,-0.993103,0.022382,0.508702,-0.085191,55,286,587,6128
1644180618.307904,-0.01001,0.008423,-0.992554,0.037649,0.371298,-0.100458,45,270,582,6112
1644180618.356519,-0.007507,0.008545,-0.992371,0.159786,0.508702,-0.207328,47,275,586,6160
1644180618.407059,-0.008057,0.013245,-0.992432,0.35826,0.356031,-0.039389,48,279,587,6176
1644180618.457321,-0.010071,0.008789,-0.993652,0.159786,0.264427,-0.085191,47,265,579,6160
1644180618.502282,-0.010559,0.007141,-0.991516,0.236122,0.386565,-0.085191,43,279,583,6080
1644180618.598249,-0.010132,0.010986,-0.99353,0.251389,0.417099,-0.161527,55,276,576,6112
1644180618.646645,-0.010925,0.006042,-0.991577,0.098718,0.508702,-0.069924,51,279,573,6128
1644180618.695286,-0.008667,0.010803,-0.991028,0.007115,0.432366,0.006412,48,264,585,6048
1644180618.743435,-0.013184,0.01123,-0.992737,0.220855,0.401832,-0.024122,45,277,577,6080
1644180618.791835,-0.007874,0.010559,-0.98938,0.236122,0.539237,-0.161527,55,276,580,6080
1644180618.840267,-0.008911,0.008972,-0.991333,0.281924,0.356031,-0.039389,48,279,578,6048
1644180618.88866,-0.011292,0.008667,-0.99231,0.251389,0.447634,-0.115725,55,283,587,6128
1644180618.937038,-0.012268,0.008362,-0.995361,0.098718,0.233893,-0.054656,38,268,584,6128
1644180618.985441,-0.008484,0.006714,-0.992676,0.098718,0.432366,-0.085191,52,273,582,6128
1644180619.033836,-0.009583,0.010132,-0.992737,0.266656,0.539237,-0.100458,59,280,577,6128
1644180619.096618,-0.011841,0.007874,-0.993164,0.113985,0.462901,-0.192061,53,276,571,6080
1644180619.130562,-0.009399,0.007385,-0.990967,0.190321,0.478168,-0.161527,52,270,584,6112
1644180619.178971,-0.008911,0.010132,-0.99231,0.08345,0.279695,-0.069924,43,274,590,6128
1644180619.228098,-0.009644,0.009094,-0.992004,0.144519,0.294962,-0.069924,46,281,583,6192
1644180619.276959,-0.007812,0.009155,-0.991638,0.266656,0.417099,0.067481,52,273,589,6160
1644180619.327343,-0.009277,0.006714,-0.991455,0.205588,0.401832,-0.130992,48,264,578,6080
1644180619.377477,-0.010681,0.008057,-0.990295,0.404061,0.554504,-0.130992,53,266,580,6160
1644180619.469346,-0.00708,0.008301,-0.991272,0.175053,0.386565,-0.161527,53,276,587,6128
1644180619.517689,-0.008911,0.008728,-0.990601,0.236122,0.447634,-0.161527,46,276,576,6080
1644180619.566092,-0.009033,0.008606,-0.994568,0.08345,0.462901,-0.237863,54,268,584,6080
1644180619.614505,-0.007874,0.008423,-0.993225,0.190321,0.478168,-0.192061,42,277,589,6080
1644180619.66291,-0.00824,0.007996,-0.993103,0.35826,0.294962,-0.069924,54,280,582,6080
1644180619.711283,-0.011108,0.01239,-0.989136,0.159786,0.493435,-0.161527,39,279,583,6080
1644180619.759683,-0.009583,0.010376,-0.991943,0.312458,0.493435,-0.039389,40,285,572,6080
1644180619.808085,-0.009094,0.009216,-0.99353,0.144519,0.218626,-0.069924,46,283,578,6080
1644180619.856514,-0.01178,0.009583,-0.993896,0.297191,0.508702,-0.039389,39,283,585,6176
1644180619.904917,-0.005798,0.006958,-0.99176,0.434595,0.432366,-0.100458,43,269,583,6160
1644180619.953305,-0.007751,0.008545,-0.990784,0.098718,0.523969,0.006412,47,287,584,6128
1644180620.001674,-0.009888,0.009277,-0.994812,0.404061,0.325496,-0.176794,49,282,584,6128
1644180620.062941,-0.007812,0.008545,-0.991577,0.312458,0.462901,-0.085191,54,282,582,6128
1644180620.102211,-0.008911,0.012085,-0.989807,0.205588,0.371298,-0.054656,53,276,590,6128
1644180620.146821,-0.00824,0.008423,-0.992065,0.266656,0.447634,-0.268397,54,280,579,6112
1644180620.195217,-0.010681,0.008911,-0.995117,0.113985,0.432366,0.021679,48,274,580,6160
1644180620.243609,-0.006897,0.008667,-0.993591,0.159786,0.386565,-0.161527,47,287,598,6112
1644180620.291998,-0.008423,0.009033,-0.993042,0.037649,0.523969,-0.207328,40,277,589,6128
1644180620.340388,-0.009277,0.006836,-0.991882,0.281924,0.340763,-0.161527,48,276,583,6080
1644180620.388811,-0.011169,0.009399,-0.991882,0.312458,0.371298,-0.130992,60,271,590,6160
1644180620.439014,-0.007141,0.007874,-0.990417,0.251389,0.447634,-0.100458,43,279,592,6080
1644180620.489611,-0.008789,0.009521,-0.99408,0.281924,0.447634,-0.176794,45,275,584,6112
1644180620.534351,-0.009949,0.010864,-0.992126,0.35826,0.356031,0.006412,47,285,589,6048
1644180620.630741,-0.009094,0.008484,-0.991272,0.190321,0.432366,-0.069924,52,277,577,6080
1644180620.679134,-0.006226,0.010315,-0.990601,0.373527,0.478168,-0.054656,52,280,575,6016
1644180620.727531,-0.007935,0.008606,-0.992676,0.281924,0.325496,-0.069924,55,269,583,6128
1644180620.775924,-0.011169,0.007385,-0.992371,0.312458,0.462901,-0.024122,42,273,591,6112
1644180620.824344,-0.010925,0.011536,-0.992615,0.159786,0.462901,-0.039389,43,266,580,6128
1644180620.872762,-0.010376,0.008911,-0.99115,0.159786,0.325496,-0.069924,52,282,579,6128
1644180620.921141,-0.009521,0.009033,-0.99115,0.236122,0.447634,-0.130992,58,259,583,6160
1644180620.969537,-0.007263,0.008423,-0.993835,0.266656,0.340763,0.006412,45,270,584,6080
1644180621.017925,-0.007263,0.009033,-0.991272,0.281924,0.478168,-0.130992,51,269,576,6080
1644180621.071234,-0.008728,0.010376,-0.992065,0.266656,0.294962,-0.069924,51,281,590,6160
1644180621.114706,-0.01001,0.008484,-0.993652,0.129252,0.401832,-0.161527,38,285,586,6064
1644180621.163091,-0.005859,0.007141,-0.993958,0.312458,0.508702,-0.14626,59,273,582,6128
1644180621.211443,-0.007446,0.010925,-0.991272,0.175053,0.401832,-0.085191,47,280,584,6048
1644180621.259833,-0.01001,0.010071,-0.98877,0.129252,0.401832,-0.008855,51,279,592,6112
1644180621.308243,-0.005249,0.010925,-0.990112,0.190321,0.310229,-0.085191,53,281,583,6112
1644180621.356607,-0.009216,0.011719,-0.992004,0.312458,0.325496,0.006412,57,275,584,6112
1644180621.405076,-0.010437,0.008057,-0.992493,0.220855,0.508702,-0.207328,58,279,585,6064
1644180621.453408,-0.009949,0.011414,-0.993958,0.342992,0.417099,-0.024122,54,273,584,6128
1644180621.501946,-0.010193,0.006714,-0.993347,0.220855,0.340763,-0.100458,42,273,589,6128
1644180621.550931,-0.009521,0.008667,-0.993774,0.434595,0.356031,-0.14626,55,274,578,6128
1644180621.601529,-0.009033,0.008057,-0.99231,0.175053,0.356031,-0.085191,40,277,572,6080
1644180621.651674,-0.010193,0.011658,-0.991577,0.175053,0.340763,0.036947,43,276,576,6112
1644180621.696621,-0.009155,0.009338,-0.994812,0.342992,0.493435,-0.039389,55,274,587,6112
1644180621.792395,-0.007751,0.01123,-0.990845,0.327725,0.417099,-0.14626,49,282,579,6112
1644180621.840553,-0.009521,0.011414,-0.99231,0.327725,0.340763,0.098015,49,277,579,6160
1644180621.888977,-0.007385,0.00885,-0.991211,0.175053,0.401832,0.021679,53,276,590,6080
1644180621.937374,-0.00415,0.012329,-0.992981,0.46513,0.523969,-0.039389,42,280,577,6048
1644180621.985776,-0.011658,0.008545,-0.992554,0.266656,0.371298,-0.069924,34,281,585,6112
1644180622.034173,-0.007141,0.011292,-0.992615,0.220855,0.462901,-0.085191,49,277,577,6112
1644180622.082628,-0.008057,0.009155,-0.989258,0.037649,0.325496,-0.130992,54,270,589,6128
1644180622.130965,-0.008728,0.011353,-0.992249,0.236122,0.233893,-0.130992,49,285,584,6112
1644180622.179326,-0.007629,0.010315,-0.992188,0.159786,0.386565,-0.115725,42,270,586,6112
1644180622.227713,-0.008362,0.010376,-0.99115,0.068183,0.523969,-0.054656,45,275,586,6128
1644180622.276066,-0.010925,0.007385,-0.991516,0.251389,0.356031,-0.069924,54,277,589,6080
1644180622.324497,-0.009338,0.009583,-0.98999,0.342992,0.417099,-0.100458,46,279,583,6112
1644180622.372899,-0.008545,0.009338,-0.992432,0.342992,0.371298,-0.008855,54,273,589,6064
1644180622.421262,-0.007996,0.011475,-0.991333,0.266656,0.340763,-0.069924,42,280,579,6048
1644180622.469671,-0.009338,0.008911,-0.992065,0.373527,0.63084,-0.100458,43,271,587,6112
1644180622.518059,-0.009155,0.010254,-0.992676,0.220855,0.371298,-0.130992,46,276,585,6160
1644180622.566451,-0.009949,0.013,-0.99054,0.266656,0.386565,-0.14626,49,277,579,6112
1644180622.614867,-0.009583,0.009521,-0.990906,0.098718,0.172824,-0.054656,41,288,580,6128
1644180622.663242,-0.010803,0.011475,-0.990234,0.342992,0.462901,0.052214,59,277,575,6080
1644180622.711673,-0.008484,0.009888,-0.993896,0.159786,0.325496,-0.161527,48,271,585,6080
1644180622.76217,-0.007874,0.010498,-0.991394,0.373527,0.386565,-0.039389,40,280,575,6256
1644180622.812339,-0.009033,0.008179,-0.991028,0.159786,0.371298,-0.100458,48,279,583,6128
1644180622.858301,-0.010803,0.008667,-0.992798,0.205588,0.310229,-0.008855,46,271,580,6160
1644180622.953633,-0.007568,0.012268,-0.993713,0.251389,0.356031,-0.115725,51,283,580,6192
1644180623.002,-0.011169,0.009155,-0.990784,0.297191,0.417099,-0.085191,54,277,584,6160
1644180623.063537,-0.009827,0.011047,-0.992004,0.220855,0.401832,0.036947,48,288,587,6080
1644180623.100843,-0.009644,0.009338,-0.994507,0.190321,0.432366,-0.100458,47,282,586,6128
1644180623.147198,-0.010437,0.010559,-0.992432,0.327725,0.539237,-0.237863,46,283,573,6128
1644180623.195555,-0.010986,0.009094,-0.992493,0.205588,0.417099,-0.100458,59,275,586,6160
1644180623.243948,-0.008606,0.007202,-0.990784,0.220855,0.523969,0.006412,43,276,578,6160
1644180623.292338,-0.009216,0.007507,-0.993652,0.220855,0.478168,-0.100458,47,280,589,6128
1644180623.340723,-0.009399,0.007507,-0.99292,0.312458,0.447634,-0.100458,49,270,584,6080
1644180623.389124,-0.006287,0.007263,-0.990784,0.35826,0.539237,-0.024122,51,281,583,6112
1644180623.437531,-0.010742,0.010742,-0.991516,0.281924,0.432366,-0.25313,55,281,590,6128
1644180623.485905,-0.007874,0.009583,-0.992188,0.159786,0.218626,-0.039389,47,287,570,6080
1644180623.534274,-0.009583,0.010681,-0.993225,0.129252,0.340763,-0.161527,51,281,585,6176
1644180623.582709,-0.008972,0.008789,-0.992065,0.266656,0.432366,-0.130992,54,275,589,6128
1644180623.631096,-0.010132,0.011108,-0.994995,0.159786,0.600305,-0.100458,41,271,585,6128
1644180623.680971,-0.006775,0.008911,-0.99176,0.312458,0.508702,-0.054656,52,277,582,6112
1644180623.731331,-0.00885,0.009766,-0.993835,0.35826,0.386565,-0.14626,52,273,591,6112
1644180623.781586,-0.010315,0.009399,-0.990356,0.144519,0.493435,-0.176794,41,279,583,6080
1644180623.873095,-0.008667,0.011108,-0.990845,0.251389,0.432366,-0.008855,43,281,578,6080
1644180623.92147,-0.010376,0.008972,-0.994812,0.312458,0.447634,-0.085191,46,269,578,6128
1644180623.969861,-0.010315,0.009094,-0.990356,0.297191,0.432366,-0.008855,52,280,579,6128
1644180624.018243,-0.007812,0.009827,-0.99115,0.205588,0.371298,-0.008855,51,276,592,6160
1644180624.075207,-0.009949,0.00708,-0.993225,0.251389,0.417099,-0.008855,42,275,596,6160
1644180624.115087,-0.009827,0.013733,-0.992493,0.175053,0.432366,-0.207328,51,279,580,6128
1644180624.163418,-0.011658,0.00885,-0.993347,0.129252,0.508702,-0.161527,49,280,589,6128
1644180624.211841,-0.005554,0.008911,-0.99292,0.388794,0.554504,-0.085191,55,274,578,6128
1644180624.260235,-0.011047,0.010803,-0.991089,0.404061,0.585038,-0.176794,47,280,582,6128
1644180624.308614,-0.009155,0.00824,-0.993286,0.312458,0.325496,-0.130992,53,286,580,6080
1644180624.357003,-0.009216,0.01123,-0.993286,0.129252,0.386565,-0.085191,62,279,580,6160
1644180624.405408,-0.01239,0.007568,-0.994324,0.205588,0.493435,0.021679,53,274,585,6160
1644180624.45381,-0.011047,0.007141,-0.992188,0.220855,0.508702,-0.207328,52,282,577,6160
1644180624.502234,-0.00946,0.007202,-0.993958,0.251389,0.356031,-0.024122,39,276,578,6080
1644180624.550577,-0.011475,0.01123,-0.992126,0.175053,0.401832,-0.069924,47,273,589,6112
1644180624.598972,-0.009766,0.011841,-0.991394,0.251389,0.356031,-0.039389,54,282,582,6080
1644180624.647366,-0.009521,0.008667,-0.989929,0.251389,0.325496,-0.085191,49,275,577,6128
1644180624.695793,-0.00824,0.009521,-0.993652,0.144519,0.554504,-0.207328,53,279,583,6192
1644180624.74431,-0.011597,0.011719,-0.99176,0.281924,0.417099,-0.069924,39,274,580,6080
1644180624.794849,-0.01001,0.00592,-0.991394,0.113985,0.310229,-0.14626,48,279,583,6128
1644180624.844841,-0.007324,0.010254,-0.990601,0.205588,0.417099,-0.115725,48,279,580,6128
1644180624.895252,-0.009949,0.010193,-0.993164,0.220855,0.508702,-0.069924,46,279,580,6080
1644180624.986094,-0.009399,0.008606,-0.993164,0.266656,0.386565,0.021679,46,276,587,6080
1644180625.034502,-0.006104,0.008362,-0.991516,0.251389,0.310229,-0.130992,51,276,576,6128
1644180625.085412,-0.00885,0.010254,-0.993591,0.220855,0.340763,-0.069924,43,281,576,6160
1644180625.131247,-0.012451,0.009094,-0.992126,0.098718,0.523969,-0.008855,47,280,577,6112
1644180625.179643,-0.010559,0.00885,-0.990723,0.251389,0.386565,-0.024122,53,286,587,6128
1644180625.228037,-0.005188,0.010925,-0.992493,0.205588,0.417099,-0.069924,54,275,579,6176
1644180625.276402,-0.008972,0.008301,-0.992371,0.327725,0.340763,-0.069924,49,280,577,6176
1644180625.324829,-0.009155,0.010742,-0.991943,0.312458,0.325496,-0.176794,42,280,579,6112
1644180625.373229,-0.005493,0.011169,-0.99231,0.159786,0.401832,-0.024122,47,273,582,6128
1644180625.421604,-0.007629,0.012451,-0.989014,0.113985,0.447634,-0.130992,49,275,586,6112
1644180625.470002,-0.009766,0.00885,-0.993286,0.281924,0.371298,-0.085191,42,282,582,6160
1644180625.518389,-0.00946,0.008667,-0.990906,0.144519,0.493435,0.006412,59,280,589,6112
1644180625.566789,-0.008362,0.010498,-0.99353,0.144519,0.371298,-0.085191,36,281,583,6080
1644180625.615175,-0.011841,0.009033,-0.994568,0.251389,0.340763,0.021679,47,280,591,6080
1644180625.663573,-0.008911,0.008484,-0.989075,0.037649,0.554504,-0.176794,46,276,573,6112
1644180625.711964,-0.010986,0.010315,-0.99115,0.129252,0.447634,0.006412,53,274,585,6064
1644180625.760353,-0.008179,0.012695,-0.993042,0.251389,0.401832,-0.054656,49,287,586,6160
1644180625.80933,-0.00946,0.00885,-0.992249,0.388794,0.172824,-0.085191,55,283,580,6080
1644180625.860406,-0.006104,0.013916,-0.994385,0.266656,0.478168,-0.069924,55,286,594,6192
1644180625.910664,-0.011536,0.010315,-0.990356,0.220855,0.417099,-0.268397,54,273,582,6128
1644180625.955403,-0.010315,0.011597,-0.991699,0.144519,0.340763,0.052214,47,280,582,6080
1644180626.066181,-0.008667,0.011292,-0.991577,0.159786,0.371298,-0.085191,54,277,593,6128
1644180626.101364,-0.008789,0.009521,-0.991882,0.251389,0.493435,0.067481,47,287,577,6112
1644180626.147498,-0.007751,0.00769,-0.991821,0.220855,0.340763,-0.161527,52,273,589,6160
1644180626.195901,-0.008911,0.008057,-0.99054,0.175053,0.401832,0.036947,60,276,592,6160
1644180626.244285,-0.008057,0.009766,-0.99353,0.312458,0.310229,-0.100458,48,279,585,6128
1644180626.292685,-0.009705,0.007568,-0.990906,0.297191,0.294962,-0.039389,52,275,591,6112
1644180626.341063,-0.007141,0.010681,-0.992859,0.312458,0.417099,-0.14626,43,274,592,6112
1644180626.389457,-0.009399,0.008789,-0.994202,0.037649,0.401832,-0.14626,48,283,573,6080
1644180626.437853,-0.010071,0.010986,-0.990662,0.236122,0.371298,-0.008855,47,280,579,6128
1644180626.486244,-0.006653,0.008972,-0.993713,0.190321,0.340763,-0.085191,51,283,597,6080
1644180626.534865,-0.007629,0.008911,-0.991638,0.281924,0.447634,0.052214,55,271,585,6128
1644180626.583171,-0.009705,0.008972,-0.991211,0.129252,0.523969,-0.024122,52,275,579,6080
1644180626.633212,-0.008545,0.010193,-0.99292,0.190321,0.493435,-0.237863,41,269,583,6128
1644180626.68353,-0.009399,0.010681,-0.991272,0.266656,0.264427,-0.024122,48,274,578,6080
1644180626.728537,-0.01123,0.010742,-0.99353,0.144519,0.386565,0.036947,52,277,579,6128
1644180626.825536,-0.008423,0.008301,-0.995789,0.236122,0.340763,-0.008855,52,273,589,6128
1644180626.873436,-0.008545,0.010925,-0.992859,0.190321,0.325496,-0.207328,47,273,575,6160
1644180626.921809,-0.009399,0.012817,-0.989014,0.190321,0.493435,-0.14626,55,281,583,6160
1644180626.970199,-0.010864,0.009338,-0.992249,0.251389,0.432366,-0.024122,53,274,583,6160
1644180627.018604,-0.009033,0.00885,-0.994202,0.251389,0.417099,-0.161527,49,275,582,6128
1644180627.072314,-0.009277,0.009521,-0.993225,0.266656,0.508702,-0.039389,62,276,587,6112
1644180627.115468,-0.009583,0.007019,-0.991699,0.159786,0.447634,-0.039389,54,277,586,6112
1644180627.163748,-0.008911,0.008972,-0.991943,0.037649,0.340763,-0.024122,34,269,576,6128
1644180627.212186,-0.006531,0.009583,-0.991333,0.373527,0.386565,-0.100458,54,273,589,6128
1644180627.260513,-0.004883,0.009216,-0.989563,0.175053,0.356031,-0.085191,42,280,577,6048
1644180627.308894,-0.009827,0.011414,-0.991577,0.220855,0.432366,-0.100458,54,275,591,6080
1644180627.357311,-0.008789,0.007874,-0.992432,0.251389,0.371298,-0.268397,49,277,596,6176
1644180627.40571,-0.010132,0.008728,-0.992371,0.342992,0.432366,-0.115725,52,273,575,6080
1644180627.454124,-0.008362,0.008118,-0.992371,0.388794,0.294962,-0.130992,52,275,586,6112
1644180627.502482,-0.00769,0.007507,-0.989685,0.251389,0.508702,0.036947,55,276,580,6128
1644180627.550876,-0.00769,0.008057,-0.993225,0.205588,0.493435,-0.115725,42,285,589,6160
1644180627.599272,-0.005737,0.01123,-0.991577,0.251389,0.356031,-0.085191,54,273,582,6112
1644180627.647664,-0.010498,0.010376,-0.990662,0.236122,0.401832,-0.100458,61,280,584,6080
1644180627.69608,-0.009399,0.011353,-0.995361,0.205588,0.432366,-0.192061,54,270,598,6128
1644180627.745284,-0.009827,0.009094,-0.992004,0.297191,0.386565,-0.024122,45,277,582,6160
1644180627.795886,-0.009644,0.011475,-0.988281,0.175053,0.294962,0.113282,57,275,586,6128
1644180627.846264,-0.00946,0.005737,-0.991882,0.144519,0.508702,-0.130992,48,269,587,6112
1644180627.938067,-0.009094,0.011169,-0.993042,0.251389,0.447634,-0.14626,41,274,592,6176
1644180627.986427,-0.00824,0.011169,-0.99054,0.220855,0.325496,-0.085191,42,277,577,6080
1644180628.034848,-0.010559,0.011292,-0.990417,0.205588,0.401832,-0.100458,51,269,585,6128
1644180628.08332,-0.008728,0.012085,-0.992371,0.068183,0.676641,-0.039389,52,270,586,6080
1644180628.131633,-0.012085,0.005859,-0.992798,0.052916,0.356031,0.052214,49,275,586,6128
1644180628.17999,-0.006897,0.009705,-0.990479,0.220855,0.340763,-0.100458,49,287,579,6160
1644180628.228372,-0.00769,0.010315,-0.989929,0.236122,0.264427,0.052214,46,274,580,6080
1644180628.276757,-0.008423,0.008423,-0.98999,0.35826,0.401832,-0.161527,49,265,586,6128
1644180628.325193,-0.00885,0.008545,-0.989319,0.205588,0.417099,-0.161527,47,280,579,6080
1644180628.373536,-0.008728,0.010681,-0.993347,0.08345,0.310229,-0.085191,49,270,579,6128
1644180628.421956,-0.007568,0.007385,-0.993408,0.251389,0.478168,-0.161527,47,273,577,6112
1644180628.470336,-0.008118,0.008362,-0.992065,0.327725,0.371298,0.006412,46,281,587,6160
1644180628.518745,-0.007935,0.009216,-0.990173,0.144519,0.356031,0.052214,51,281,585,6160
1644180628.567129,-0.010071,0.008484,-0.992004,0.342992,0.447634,-0.039389,46,288,578,6128
1644180628.615524,-0.009644,0.010803,-0.993896,0.205588,0.279695,-0.100458,58,281,580,6080
1644180628.663913,-0.009277,0.011841,-0.991577,0.236122,0.325496,-0.054656,47,277,584,6080
1644180628.712328,-0.013794,0.01355,-0.991516,0.08345,0.478168,-0.024122,45,282,579,6128
1644180628.760687,-0.011353,0.009766,-0.993225,0.205588,0.508702,-0.024122,48,269,590,6160
1644180628.809087,-0.008667,0.010498,-0.991211,0.08345,0.294962,-0.039389,55,281,583,6224
1644180628.858129,-0.00708,0.009766,-0.991211,0.281924,0.233893,-0.192061,42,273,579,6176
1644180628.908608,-0.010498,0.010315,-0.993835,0.098718,0.371298,-0.192061,42,287,591,6160
1644180628.95903,-0.008362,0.011841,-0.991516,0.297191,0.508702,-0.008855,52,282,584,6080
1644180629.003543,-0.007935,0.008423,-0.995361,0.175053,0.386565,-0.176794,48,281,580,6080
1644180629.100187,-0.007568,0.008545,-0.993652,0.266656,0.508702,-0.039389,52,268,600,6112
1644180629.147865,-0.008118,0.010071,-0.992188,0.205588,0.386565,-0.176794,45,282,579,6112
1644180629.196221,-0.009827,0.006775,-0.99292,0.129252,0.401832,-0.115725,48,288,580,6080
1644180629.244654,-0.010254,0.006348,-0.991943,0.220855,0.508702,-0.115725,52,277,570,6080
1644180629.293029,-0.010864,0.007446,-0.993774,0.236122,0.218626,-0.085191,61,265,575,6080
1644180629.34141,-0.008301,0.007874,-0.99231,0.175053,0.478168,0.021679,46,276,583,6128
1644180629.389796,-0.009094,0.009583,-0.990601,0.144519,0.462901,-0.176794,43,286,580,6128
1644180629.438195,-0.008972,0.012085,-0.992004,0.113985,0.386565,-0.024122,45,265,579,6080
1644180629.486564,-0.010803,0.012207,-0.990784,0.159786,0.478168,-0.054656,58,276,587,6160
1644180629.535017,-0.00824,0.008118,-0.992737,0.129252,0.325496,-0.054656,45,277,579,6080
1644180629.583382,-0.010071,0.012573,-0.991699,0.205588,0.508702,-0.100458,55,271,585,6080
1644180629.631735,-0.008789,0.009705,-0.990967,0.327725,0.340763,0.12855,51,281,583,6176
1644180629.680115,-0.009949,0.009277,-0.99408,0.281924,0.356031,-0.069924,59,275,577,6080
1644180629.728544,-0.010498,0.008911,-0.992432,0.266656,0.356031,-0.054656,43,281,580,6112
1644180629.776935,-0.009277,0.007568,-0.993286,0.251389,0.478168,-0.054656,61,280,591,6224
1644180629.825328,-0.006287,0.012085,-0.992371,0.236122,0.340763,-0.039389,45,273,584,6176
1644180629.873764,-0.008484,0.010437,-0.991272,0.159786,0.478168,-0.176794,53,266,587,6128
1644180629.922188,-0.009399,0.007385,-0.993164,0.266656,0.294962,-0.008855,48,283,578,6160
1644180629.970704,-0.006836,0.010437,-0.994202,0.281924,0.478168,-0.192061,51,266,576,6160
1644180630.020943,-0.01239,0.009277,-0.994141,0.236122,0.554504,0.098015,48,274,585,6112
1644180630.115718,-0.009705,0.00531,-0.992981,0.220855,0.371298,-0.207328,54,273,589,6016
1644180630.16412,-0.008911,0.011414,-0.990967,0.129252,0.386565,-0.085191,49,277,579,6160
1644180630.212466,-0.007935,0.009766,-0.993164,0.159786,0.294962,-0.25313,47,270,582,6080
1644180630.260832,-0.007935,0.011108,-0.993591,0.159786,0.340763,-0.069924,52,280,575,6160
1644180630.309251,-0.009277,0.005859,-0.991089,0.205588,0.310229,0.006412,38,275,582,6080
1644180630.357644,-0.008057,0.010132,-0.992981,0.159786,0.294962,0.036947,46,286,580,6128
1644180630.406042,-0.011047,0.011536,-0.991638,0.08345,0.356031,-0.008855,46,271,585,6176
1644180630.454435,-0.010315,0.009277,-0.990479,0.113985,0.417099,-0.100458,57,282,584,6128
1644180630.50281,-0.009705,0.008545,-0.992615,0.144519,0.417099,0.098015,51,288,580,6160
1644180630.551257,-0.010315,0.008484,-0.991272,0.220855,0.294962,-0.192061,53,279,583,6112
1644180630.599611,-0.007324,0.009644,-0.990662,0.327725,0.356031,-0.085191,55,281,580,6224
1644180630.648001,-0.011719,0.009277,-0.991333,0.297191,0.447634,-0.100458,52,280,570,6128
1644180630.696371,-0.007019,0.008118,-0.993164,0.251389,0.447634,-0.14626,66,275,577,6048
1644180630.744783,-0.009888,0.010376,-0.993225,0.251389,0.386565,-0.100458,53,276,585,6160
1644180630.79317,-0.007812,0.008179,-0.989685,0.327725,0.432366,-0.024122,53,276,597,6112
1644180630.841571,-0.010437,0.010803,-0.990417,0.098718,0.340763,0.052214,51,274,590,6112
1644180630.889982,-0.006165,0.012512,-0.993347,0.297191,0.569771,-0.14626,47,273,589,6112
1644180630.938397,-0.008423,0.007935,-0.99176,0.08345,0.371298,-0.14626,51,269,585,6128
1644180630.986804,-0.01123,0.010559,-0.990784,0.205588,0.508702,-0.176794,51,276,576,6160
1644180631.036014,-0.008545,0.009399,-0.992126,0.449863,0.447634,-0.069924,51,269,583,6224
1644180631.097005,-0.01062,0.007874,-0.993469,0.220855,0.508702,-0.069924,35,277,589,6064
1644180631.137276,-0.010132,0.008972,-0.992188,0.251389,0.447634,0.036947,62,271,585,6128
1644180631.181684,-0.01001,0.006104,-0.994507,0.220855,0.493435,-0.14626,59,273,577,6080
1644180631.277144,-0.008789,0.009888,-0.99292,0.251389,0.462901,0.021679,45,275,584,6080
1644180631.32552,-0.008057,0.010315,-0.99176,0.297191,0.539237,-0.054656,55,274,583,6128
1644180631.37393,-0.007507,0.006897,-0.992188,0.373527,0.325496,0.052214,42,275,584,6160
1644180631.422406,-0.007751,0.008301,-0.993042,0.419328,0.432366,-0.176794,47,277,586,6112
1644180631.470703,-0.009949,0.007324,-0.992554,0.098718,0.264427,0.006412,55,274,585,6128
1644180631.519099,-0.009094,0.009216,-0.991882,0.312458,0.356031,-0.054656,47,260,579,6128
1644180631.567496,-0.009705,0.009583,-0.990234,0.236122,0.447634,-0.130992,41,283,578,6080
1644180631.615891,-0.009888,0.008362,-0.989197,0.327725,0.523969,-0.14626,47,275,584,6224
1644180631.664258,-0.010376,0.010559,-0.993469,0.327725,0.310229,0.006412,47,273,586,6160
1644180631.712685,-0.010559,0.008545,-0.99353,0.037649,0.493435,-0.039389,48,276,580,6080
1644180631.761034,-0.008301,0.009399,-0.992249,0.113985,0.279695,-0.008855,48,274,580,6080
1644180631.809428,-0.007812,0.011169,-0.992126,0.159786,0.386565,-0.130992,65,274,580,6160
1644180631.857857,-0.012634,0.009888,-0.993164,0.129252,0.447634,-0.14626,53,279,585,6160
1644180631.906253,-0.007141,0.00824,-0.991882,0.220855,0.417099,-0.008855,57,282,582,6080
1644180631.954652,-0.007385,0.007874,-0.990662,0.266656,0.447634,-0.100458,46,276,592,6080
1644180632.003014,-0.010193,0.008789,-0.991516,0.098718,0.279695,-0.039389,48,286,583,6080
1644180632.063886,-0.008362,0.008667,-0.991699,0.236122,0.447634,-0.024122,54,292,589,6112
1644180632.102151,-0.009521,0.008301,-0.992249,0.220855,0.310229,-0.176794,54,277,575,6128
1644180632.148524,-0.009644,0.009949,-0.991455,0.022382,0.478168,-0.161527,52,282,593,6080
1644180632.197085,-0.006775,0.010803,-0.993103,0.236122,0.264427,-0.069924,51,281,580,6112
1644180632.247675,-0.007568,0.009216,-0.99292,0.205588,0.432366,-0.192061,51,281,585,6160
1644180632.297713,-0.009399,0.006531,-0.99115,0.175053,0.325496,-0.054656,57,277,582,6128
1644180632.342846,-0.009094,0.004761,-0.993408,0.175053,0.478168,-0.069924,52,275,582,6160
1644180632.438512,-0.00824,0.010376,-0.992859,0.159786,0.417099,-0.161527,51,281,585,6112
1644180632.486906,-0.009033,0.00824,-0.990356,0.159786,0.371298,-0.130992,41,288,578,6080
1644180632.535396,-0.010132,0.00708,-0.991272,0.251389,0.615573,-0.130992,46,283,587,6080
1644180632.583696,-0.012329,0.008545,-0.992981,0.190321,0.508702,0.006412,48,271,585,6160
1644180632.63209,-0.007751,0.008728,-0.994446,0.266656,0.310229,0.021679,47,285,582,6112
1644180632.680484,-0.010315,0.008423,-0.99054,0.220855,0.371298,-0.069924,46,279,580,6160
1644180632.72887,-0.007874,0.008728,-0.993103,0.266656,0.356031,-0.192061,41,281,578,6080
1644180632.777242,-0.008362,0.010925,-0.992554,0.251389,0.447634,-0.130992,45,273,586,6112
1644180632.825709,-0.012207,0.007446,-0.992981,0.220855,0.340763,-0.25313,42,282,579,6160
1644180632.874114,-0.009949,0.007385,-0.990601,0.220855,0.371298,-0.207328,59,273,582,6128
1644180632.922504,-0.01355,0.008301,-0.993958,0.068183,0.340763,-0.069924,58,286,573,6128
1644180632.970881,-0.006897,0.006775,-0.989258,0.175053,0.523969,-0.161527,47,273,589,6112
1644180633.019277,-0.006958,0.008911,-0.992798,0.220855,0.371298,0.021679,45,277,577,6080
1644180633.075336,-0.008179,0.012451,-0.994446,0.35826,0.386565,-0.024122,45,275,593,6064
1644180633.116038,-0.009705,0.011536,-0.99054,0.159786,0.386565,-0.130992,42,282,577,6128
1644180633.16441,-0.011658,0.009888,-0.991272,0.175053,0.493435,-0.085191,57,277,582,6160
1644180633.212821,-0.010193,0.008667,-0.99115,0.113985,0.371298,-0.14626,42,282,582,6048
1644180633.261197,-0.007629,0.008362,-0.991882,0.236122,0.340763,0.006412,52,280,579,6128
1644180633.309587,-0.009155,0.009338,-0.991943,0.281924,0.447634,-0.054656,52,273,589,6112
1644180633.358346,-0.011963,0.008057,-0.99231,0.373527,0.386565,-0.207328,47,275,584,6112
1644180633.408489,-0.010742,0.011475,-0.995789,0.251389,0.478168,-0.085191,47,275,586,6128
1644180633.458738,-0.008484,0.00946,-0.992554,0.144519,0.447634,-0.222595,41,281,585,6128
1644180633.503809,-0.008972,0.008484,-0.993835,0.205588,0.478168,-0.14626,55,271,592,6080
1644180633.599938,-0.009399,0.010071,-0.995728,0.35826,0.401832,-0.130992,46,274,587,6112
1644180633.648316,-0.009155,0.008545,-0.993713,0.08345,0.417099,-0.115725,41,271,583,6080
1644180633.696727,-0.007935,0.007874,-0.99292,0.220855,0.493435,-0.130992,52,277,579,6176
1644180633.745325,-0.010437,0.008179,-0.991394,-0.008153,0.417099,-0.039389,45,277,589,6176
1644180633.793518,-0.010498,0.00885,-0.993408,0.236122,0.417099,0.067481,42,280,586,6048
1644180633.841927,-0.00531,0.007507,-0.992859,0.297191,0.462901,-0.14626,49,277,586,6112
1644180633.890351,-0.00946,0.010193,-0.991211,0.08345,0.371298,-0.130992,62,279,576,6016
1644180633.938737,-0.010681,0.008179,-0.991577,0.220855,0.432366,-0.115725,46,288,590,6080
1644180633.987133,-0.01062,0.006775,-0.994263,0.342992,0.508702,-0.14626,45,270,582,6048
1644180634.03551,-0.006836,0.011719,-0.994568,0.342992,0.432366,-0.115725,47,285,577,6112
1644180634.099607,-0.01062,0.009888,-0.99176,0.236122,0.417099,-0.25313,60,271,592,6128
1644180634.132282,-0.011963,0.008545,-0.993164,0.190321,0.432366,-0.085191,55,281,597,6128
1644180634.18066,-0.011108,0.006287,-0.992188,0.190321,0.325496,0.006412,41,276,590,6016
1644180634.229049,-0.010986,0.00885,-0.992737,0.373527,0.24916,0.052214,47,275,591,6192
1644180634.277411,-0.009094,0.010071,-0.989502,0.236122,0.417099,-0.14626,48,269,597,6112
1644180634.326009,-0.00769,0.008118,-0.989624,0.266656,0.447634,-0.237863,53,276,583,6128
1644180634.376541,-0.006165,0.008606,-0.992188,0.251389,0.447634,-0.054656,53,279,587,6016
1644180634.426651,-0.008728,0.006531,-0.991211,0.175053,0.386565,-0.130992,48,279,585,6080
1644180634.471716,-0.006104,0.010986,-0.992615,0.113985,0.401832,-0.069924,47,273,579,6112
1644180634.567775,-0.005615,0.013123,-0.988953,0.220855,0.233893,-0.222595,53,274,578,6128
1644180634.616168,-0.010376,0.010132,-0.993591,0.434595,0.493435,-0.130992,43,271,580,6080
1644180634.664933,-0.009583,0.007202,-0.992615,0.052916,0.478168,-0.085191,41,271,571,6128
1644180634.712991,-0.008179,0.008484,-0.99292,0.205588,0.447634,0.036947,54,275,582,6112
1644180634.761351,-0.010254,0.009949,-0.990662,0.327725,0.447634,-0.14626,54,285,591,6080
1644180634.809751,-0.008972,0.008972,-0.991211,0.205588,0.462901,-0.222595,57,275,579,6080
1644180634.858175,-0.008911,0.009033,-0.991211,0.205588,0.462901,0.021679,52,280,584,6160
1644180634.906594,-0.009277,0.009399,-0.992126,0.251389,0.478168,0.082748,52,280,584,6112
1644180634.955136,-0.010437,0.007019,-0.992798,0.159786,0.417099,-0.054656,36,283,585,6080
1644180635.003378,-0.010254,0.010437,-0.991272,0.297191,0.417099,-0.115725,52,285,577,6160
1644180635.064524,-0.007629,0.009277,-0.990906,0.052916,0.508702,0.006412,53,271,590,6048
1644180635.103781,-0.009827,0.009521,-0.993469,0.220855,0.417099,-0.085191,57,280,584,6080
1644180635.14851,-0.012207,0.009338,-0.992554,0.434595,0.371298,-0.207328,49,280,584,6160
1644180635.196898,-0.007935,0.009338,-0.991394,0.342992,0.447634,-0.085191,57,277,586,6080
1644180635.245292,-0.007324,0.00946,-0.992859,0.175053,0.386565,-0.192061,42,273,579,6112
1644180635.293669,-0.006958,0.01123,-0.990967,0.098718,0.356031,0.052214,51,271,578,6128
1644180635.342077,-0.009277,0.010132,-0.99231,0.266656,0.279695,-0.024122,58,279,573,6080
1644180635.39047,-0.01178,0.007507,-0.993896,0.205588,0.386565,-0.039389,66,275,593,6016
1644180635.438875,-0.010437,0.009583,-0.991272,0.175053,0.401832,0.036947,53,276,590,6128
1644180635.487568,-0.008728,0.012512,-0.99115,0.220855,0.493435,-0.176794,51,274,573,6160
1644180635.538181,-0.007263,0.009399,-0.99231,0.205588,0.371298,-0.283664,60,271,580,6080
1644180635.588223,-0.010742,0.009155,-0.99115,0.297191,0.447634,-0.115725,52,273,582,6112
1644180635.633303,-0.009827,0.009521,-0.99176,0.297191,0.401832,0.021679,51,274,580,6080
1644180635.729215,-0.007996,0.007751,-0.995483,0.144519,0.401832,-0.085191,54,285,582,6160
1644180635.7776,-0.011353,0.007202,-0.990723,0.388794,0.523969,-0.039389,46,283,583,6128
1644180635.825988,-0.010681,0.009094,-0.989258,0.342992,0.371298,-0.008855,53,271,583,6160
1644180635.874442,-0.010803,0.00885,-0.994446,0.08345,0.325496,-0.192061,47,285,584,6128
1644180635.922809,-0.009277,0.008484,-0.990295,0.266656,0.325496,-0.192061,53,283,585,5984
1644180635.971233,-0.009888,0.009033,-0.991638,0.312458,0.294962,0.067481,61,277,582,6176
1644180636.019607,-0.008606,0.008911,-0.991028,0.312458,0.447634,-0.100458,46,279,583,6112
1644180636.071086,-0.009583,0.009644,-0.994019,0.220855,0.569771,-0.237863,48,281,585,6160
1644180636.116368,-0.009644,0.011292,-0.992371,0.205588,0.325496,0.067481,53,274,580,6128
1644180636.164779,-0.009521,0.008057,-0.991943,0.205588,0.356031,-0.130992,47,275,575,6160
1644180636.213162,-0.006348,0.008667,-0.98999,0.037649,0.432366,-0.024122,51,279,587,6128
1644180636.261513,-0.009277,0.011047,-0.993347,0.251389,0.462901,-0.192061,47,268,575,6112
1644180636.309941,-0.007629,0.009888,-0.992126,0.251389,0.478168,-0.054656,54,273,582,6128
1644180636.358319,-0.007568,0.008789,-0.991638,0.220855,0.371298,-0.115725,49,275,575,6128
1644180636.406716,-0.008057,0.008972,-0.989624,0.327725,0.386565,-0.115725,47,273,589,6224
1644180636.455146,-0.011841,0.011353,-0.990845,0.281924,0.493435,0.006412,40,275,579,6112
1644180636.503465,-0.00946,0.010193,-0.991882,0.236122,0.401832,-0.115725,47,277,579,6128
1644180636.551857,-0.008179,0.009521,-0.98761,0.190321,0.340763,-0.14626,59,285,586,6112
1644180636.600441,-0.008423,0.009277,-0.99176,0.113985,0.417099,-0.192061,43,271,578,6112
1644180636.648715,-0.007874,0.011902,-0.991699,0.113985,0.508702,-0.192061,54,290,582,6112
1644180636.699403,-0.010864,0.008423,-0.992065,0.251389,0.371298,0.036947,53,276,583,6112
1644180636.749364,-0.007019,0.010925,-0.991272,0.190321,0.432366,-0.237863,55,281,571,6112
1644180636.794364,-0.008911,0.008972,-0.99231,0.129252,0.432366,0.174351,45,282,584,6112
1644180636.890679,-0.010376,0.008667,-0.990112,0.297191,0.462901,-0.024122,41,274,583,6080
1644180636.93907,-0.009216,0.00885,-0.991821,0.35826,0.615573,0.006412,49,280,586,6112
1644180636.987449,-0.007629,0.010376,-0.993896,0.266656,0.462901,-0.008855,47,282,579,6128
1644180637.035838,-0.010315,0.009155,-0.991516,0.129252,0.325496,-0.115725,41,269,583,6160
1644180637.084498,-0.008301,0.008057,-0.991211,0.312458,0.462901,-0.176794,54,270,593,6160
1644180637.132674,-0.009155,0.010193,-0.992859,0.175053,0.508702,-0.176794,42,277,586,6112
1644180637.180978,-0.009277,0.012146,-0.990295,0.113985,0.340763,-0.192061,43,283,580,6080
1644180637.229386,-0.010498,0.009216,-0.991455,0.266656,0.401832,-0.069924,57,268,586,6080
1644180637.277791,-0.006897,0.010559,-0.990662,0.236122,0.417099,-0.176794,52,273,582,6112
1644180637.326182,-0.008728,0.009338,-0.994629,0.251389,0.401832,-0.268397,48,288,583,6080
1644180637.374696,-0.008667,0.008301,-0.991272,0.297191,0.493435,-0.222595,57,287,582,6080
1644180637.422949,-0.009583,0.011292,-0.991577,0.175053,0.401832,0.006412,48,279,587,6080
1644180637.471355,-0.01123,0.011414,-0.99292,0.205588,0.447634,-0.039389,59,280,584,6080
1644180637.519737,-0.007568,0.008606,-0.990601,0.159786,0.63084,0.052214,51,271,585,6128
1644180637.568138,-0.010376,0.01001,-0.992798,0.220855,0.462901,-0.192061,59,268,586,6112
1644180637.616523,-0.010925,0.007874,-0.994446,0.190321,0.554504,-0.085191,55,276,580,6112
1644180637.664904,-0.011841,0.009644,-0.991821,0.281924,0.569771,-0.14626,57,273,584,6128
1644180637.713305,-0.009766,0.006531,-0.993896,0.129252,0.432366,-0.069924,51,269,580,6048
1644180637.761899,-0.011719,0.010681,-0.989929,0.220855,0.340763,-0.100458,51,283,592,6160
1644180637.812536,-0.010193,0.011353,-0.992249,0.159786,0.371298,-0.054656,46,279,590,6064
1644180637.863969,-0.007568,0.009644,-0.992493,0.297191,0.401832,-0.115725,48,281,583,6112
1644180637.90828,-0.010803,0.009277,-0.993103,0.129252,0.340763,-0.024122,45,285,584,6112
1644180638.003686,-0.011841,0.006348,-0.994568,0.129252,0.340763,-0.115725,54,280,579,6112
1644180638.070806,-0.007568,0.009644,-0.990784,0.144519,0.508702,-0.192061,45,275,582,6080
1644180638.102874,-0.009583,0.011047,-0.995361,0.266656,0.356031,-0.115725,58,286,587,6128
1644180638.148886,-0.008301,0.010132,-0.990662,0.251389,0.462901,-0.008855,43,274,587,6080
1644180638.197243,-0.01239,0.010254,-0.994385,0.251389,0.432366,0.021679,42,280,577,6192
1644180638.245636,-0.007874,0.009216,-0.992676,0.175053,0.493435,0.006412,51,279,590,6080
1644180638.294013,-0.009094,0.009277,-0.991821,0.236122,0.417099,-0.039389,51,271,585,6128
1644180638.342433,-0.009216,0.011108,-0.990295,0.312458,0.401832,-0.085191,51,283,590,6112
1644180638.390806,-0.010132,0.008728,-0.992188,0.388794,0.508702,-0.115725,47,277,572,6080
1644180638.439421,-0.010803,0.009155,-0.99231,0.281924,0.417099,-0.115725,49,285,586,6128
1644180638.487911,-0.010132,0.008545,-0.993103,0.144519,0.432366,-0.237863,52,277,589,6128
1644180638.537754,-0.010315,0.007202,-0.990845,0.220855,0.356031,-0.008855,46,281,578,6080
1644180638.588063,-0.010437,0.010864,-0.992859,0.175053,0.585038,-0.207328,49,270,586,6128
1644180638.633048,-0.008118,0.007629,-0.990601,0.297191,0.432366,-0.008855,60,279,578,6128
1644180638.729548,-0.00946,0.009644,-0.992065,0.251389,0.478168,-0.024122,46,264,580,6128
1644180638.777932,-0.007446,0.010132,-0.991821,0.205588,0.462901,0.021679,48,279,578,6160
1644180638.826321,-0.00531,0.009583,-0.99115,0.297191,0.294962,-0.161527,41,281,573,6080
1644180638.875161,-0.010071,0.01001,-0.991211,0.35826,0.523969,-0.008855,54,277,572,6128
1644180638.92317,-0.010437,0.010681,-0.989624,0.113985,0.478168,-0.008855,52,275,577,6160
1644180638.971547,-0.011475,0.009949,-0.99115,0.373527,0.432366,-0.207328,40,282,584,6112
1644180639.019958,-0.007507,0.011108,-0.989868,0.251389,0.401832,-0.069924,48,281,587,6112
1644180639.068375,-0.005859,0.009155,-0.991089,0.342992,0.279695,-0.069924,43,281,587,6080
1644180639.116719,-0.009644,0.010864,-0.992249,0.098718,0.356031,-0.039389,49,273,589,6112
1644180639.165124,-0.006165,0.011597,-0.994141,0.327725,0.233893,-0.069924,45,282,570,6160
1644180639.213483,-0.012573,0.01178,-0.993164,0.297191,0.386565,-0.085191,47,273,579,6112
1644180639.261871,-0.004761,0.011047,-0.993896,0.205588,0.493435,-0.207328,42,273,593,6176
1644180639.310238,-0.007812,0.01062,-0.992249,0.266656,0.356031,-0.085191,48,276,573,6160
1644180639.358652,-0.010193,0.009155,-0.990845,0.190321,0.615573,-0.207328,48,281,587,6080
1644180639.40739,-0.006287,0.010986,-0.99353,0.312458,0.325496,-0.176794,49,275,596,6128
1644180639.458012,-0.007629,0.010559,-0.993347,0.266656,0.508702,-0.130992,61,280,586,6016
1644180639.507877,-0.007812,0.007874,-0.990723,0.159786,0.539237,-0.039389,49,270,584,6080
1644180639.552979,-0.006836,0.00885,-0.991089,0.281924,0.401832,-0.25313,47,277,589,6112
1644180639.649001,-0.008362,0.011169,-0.990662,0.205588,0.432366,0.036947,49,273,586,6128
1644180639.697392,-0.009338,0.008728,-0.990723,0.175053,0.462901,-0.069924,61,277,575,6128
1644180639.745782,-0.00946,0.008057,-0.990601,0.190321,0.493435,-0.14626,46,286,587,6112
1644180639.794232,-0.007324,0.007324,-0.994873,0.190321,0.371298,-0.069924,51,274,585,6192
1644180639.842643,-0.009216,0.008667,-0.990417,0.08345,0.371298,-0.115725,51,271,569,6112
1644180639.891018,-0.00946,0.006104,-0.992188,0.236122,0.432366,-0.14626,42,280,582,6128
1644180639.939396,-0.010681,0.008972,-0.992004,0.220855,0.371298,-0.192061,54,275,570,6112
1644180639.987804,-0.008179,0.01123,-0.992981,0.08345,0.24916,-0.085191,40,273,584,6160
1644180640.036199,-0.010376,0.010742,-0.993408,0.327725,0.356031,-0.298931,58,283,592,6160
1644180640.095275,-0.007019,0.010498,-0.994873,0.342992,0.478168,-0.130992,53,274,592,6128
1644180640.132918,-0.008179,0.010559,-0.992126,0.08345,0.24916,-0.161527,53,281,576,6080
1644180640.181329,-0.00885,0.009216,-0.992676,0.175053,0.294962,-0.176794,53,271,590,6080
1644180640.229721,-0.008362,0.009644,-0.99292,0.220855,0.478168,-0.085191,47,275,589,6160
1644180640.278145,-0.010681,0.010071,-0.990845,0.129252,0.24916,-0.008855,55,276,580,6224
1644180640.326484,-0.006653,0.009277,-0.992004,0.190321,0.462901,-0.085191,46,271,578,6080
1644180640.374948,-0.007935,0.01062,-0.993469,0.251389,0.325496,-0.054656,57,275,596,6080
1644180640.424735,-0.006653,0.009644,-0.990295,0.113985,0.478168,-0.085191,60,269,590,6080
1644180640.475167,-0.008179,0.011414,-0.993042,0.236122,0.478168,-0.14626,54,277,575,6112
1644180640.525375,-0.009827,0.011169,-0.990173,0.175053,0.493435,-0.085191,40,265,591,6160
1644180640.616852,-0.009521,0.008484,-0.994568,0.236122,0.325496,0.021679,42,277,577,6128
1644180640.665399,-0.010498,0.01123,-0.99469,0.129252,0.432366,-0.161527,49,282,584,6080
1644180640.716582,-0.010437,0.005371,-0.992249,0.236122,0.447634,-0.130992,46,269,585,6176
1644180640.762015,-0.008057,0.01062,-0.989014,0.266656,0.371298,-0.069924,46,281,587,6128
1644180640.810437,-0.010742,0.01001,-0.993774,0.266656,0.447634,-0.115725,57,277,582,6160
1644180640.858854,-0.010376,0.008728,-0.992493,0.175053,0.371298,-0.039389,53,279,578,6128
1644180640.907258,-0.009583,0.008057,-0.992981,0.312458,0.462901,-0.192061,41,271,585,6112
1644180640.955621,-0.008118,0.009277,-0.99292,-0.008153,0.417099,-0.024122,52,280,586,6160
1644180641.004075,-0.007446,0.008301,-0.994324,0.342992,0.417099,-0.115725,48,293,580,6128
1644180641.066443,-0.00708,0.009277,-0.992371,0.144519,0.493435,-0.207328,49,275,586,6160
1644180641.103376,-0.008362,0.004883,-0.992249,0.175053,0.371298,-0.298931,46,276,592,6128
1644180641.149182,-0.006653,0.006165,-0.990784,0.205588,0.386565,0.098015,55,283,590,6128
1644180641.197587,-0.010437,0.008118,-0.99292,0.159786,0.386565,-0.130992,55,279,580,6160
1644180641.245976,-0.008179,0.008667,-0.991333,0.175053,0.462901,-0.069924,46,281,585,6080
1644180641.294369,-0.011597,0.013245,-0.990295,0.190321,0.417099,-0.100458,54,280,579,6112
1644180641.342767,-0.007507,0.01178,-0.993591,0.220855,0.371298,-0.100458,42,285,589,6112
1644180641.391155,-0.009094,0.008972,-0.988403,0.236122,0.340763,-0.085191,54,268,584,6128
1644180641.439509,-0.008911,0.009888,-0.992432,0.297191,0.310229,0.006412,58,281,576,6080
1644180641.487998,-0.008606,0.010559,-0.993103,0.251389,0.462901,-0.069924,49,275,586,6080
1644180641.537392,-0.007446,0.011353,-0.991943,0.205588,0.646107,-0.100458,53,274,594,6080
1644180641.587911,-0.008057,0.010986,-0.991699,0.175053,0.447634,-0.039389,49,275,584,6080
1644180641.638207,-0.008423,0.01178,-0.992981,0.175053,0.523969,-0.024122,52,273,589,6128
1644180641.72991,-0.008545,0.009949,-0.989746,0.144519,0.371298,-0.054656,43,274,583,6128
1644180641.778267,-0.009216,0.009399,-0.989807,0.266656,0.279695,-0.25313,55,279,583,6064
1644180641.826651,-0.006531,0.009583,-0.989746,0.220855,0.325496,-0.207328,60,276,585,6128
1644180641.875138,-0.01062,0.010254,-0.989197,0.251389,0.279695,-0.008855,49,277,582,6160
1644180641.923505,-0.01001,0.00769,-0.992859,0.312458,0.401832,-0.115725,49,275,584,6128
1644180641.971893,-0.011353,0.007263,-0.989807,0.068183,0.401832,-0.161527,54,270,589,6160
1644180642.020284,-0.010376,0.007568,-0.991882,0.312458,0.508702,-0.024122,51,283,585,6080
1644180642.076344,-0.01001,0.009644,-0.99353,0.220855,0.417099,-0.115725,52,277,586,6128
1644180642.117059,-0.007141,0.006897,-0.990784,0.205588,0.401832,-0.054656,45,280,586,6128
1644180642.165425,-0.010559,0.007996,-0.99292,0.098718,0.386565,-0.069924,48,276,583,6048
1644180642.213837,-0.010376,0.008972,-0.994995,0.098718,0.279695,-0.100458,49,258,589,6160
1644180642.262237,-0.010986,0.008728,-0.993042,0.220855,0.417099,-0.069924,49,275,584,6016
1644180642.310627,-0.01239,0.007629,-0.992798,0.297191,0.356031,-0.069924,52,280,579,6080
1644180642.359,-0.009521,0.013367,-0.993713,0.113985,0.417099,-0.100458,46,288,583,6080
1644180642.407388,-0.00769,0.009644,-0.993042,0.205588,0.417099,-0.008855,53,283,587,6112
1644180642.45578,-0.010254,0.009033,-0.994873,0.205588,0.371298,0.021679,47,273,591,6112
1644180642.504155,-0.008423,0.011902,-0.992493,0.251389,0.493435,-0.100458,54,275,589,6160
1644180642.552583,-0.010559,0.007568,-0.992432,0.098718,0.478168,-0.024122,40,282,593,6080
1644180642.600969,-0.01001,0.009277,-0.993896,0.144519,0.386565,-0.176794,59,268,591,6160
1644180642.650441,-0.010742,0.010925,-0.99707,0.220855,0.325496,0.006412,48,288,580,6080
1644180642.700641,-0.007568,0.01239,-0.990723,0.281924,0.462901,0.006412,51,266,580,6112
1644180642.750738,-0.011108,0.008362,-0.991455,0.159786,0.386565,-0.085191,43,279,587,6176
1644180642.795789,-0.009155,0.007385,-0.992737,0.251389,0.371298,0.036947,55,279,592,6112
1644180642.891326,-0.008667,0.008789,-0.992004,0.129252,0.371298,-0.161527,57,275,582,6128
1644180642.93974,-0.010803,0.010803,-0.991394,0.220855,0.340763,-0.192061,45,270,577,6112
1644180642.988133,-0.008118,0.010376,-0.991638,0.205588,0.432366,-0.115725,52,268,577,6128
1644180643.036532,-0.01062,0.009888,-0.991882,0.113985,0.401832,-0.100458,48,269,590,6160
1644180643.085136,-0.010681,0.010498,-0.99176,0.251389,0.264427,-0.069924,49,280,582,6160
1644180643.133327,-0.007935,0.009705,-0.992249,0.251389,0.294962,-0.14626,58,281,578,6064
1644180643.181677,-0.008972,0.008057,-0.993042,0.281924,0.340763,-0.115725,47,282,591,6192
1644180643.230073,-0.010559,0.010559,-0.992615,0.175053,0.447634,-0.161527,49,285,579,6080
1644180643.27845,-0.009888,0.007935,-0.990173,0.205588,0.447634,-0.008855,38,290,591,6080
1644180643.326846,-0.006775,0.008789,-0.994202,0.35826,0.478168,-0.085191,42,270,586,6080
1644180643.375286,-0.013794,0.010986,-0.990723,0.266656,0.478168,-0.069924,62,279,573,6160
1644180643.423659,-0.010864,0.009155,-0.99115,0.373527,0.294962,-0.008855,51,283,590,6080
1644180643.47203,-0.011475,0.009583,-0.993713,0.266656,0.432366,-0.008855,49,277,582,6176
1644180643.520429,-0.010193,0.009949,-0.990906,0.205588,0.417099,-0.176794,53,274,585,6080
1644180643.568817,-0.005615,0.008667,-0.99176,0.113985,0.508702,-0.085191,48,271,583,6128
1644180643.617212,-0.005432,0.008728,-0.99176,0.35826,0.24916,-0.100458,55,279,583,6128
1644180643.665596,-0.00824,0.008057,-0.991882,0.342992,0.462901,-0.115725,52,282,577,6080
1644180643.713997,-0.007935,0.007751,-0.991028,0.175053,0.340763,0.052214,43,279,585,6176
1644180643.7624,-0.009521,0.00946,-0.991028,0.190321,0.417099,-0.085191,48,281,578,6080
1644180643.811022,-0.007446,0.007996,-0.993958,0.08345,0.462901,0.036947,43,283,578,6064
1644180643.862667,-0.010986,0.007019,-0.992859,0.220855,0.432366,-0.14626,51,281,580,6160
1644180643.912975,-0.010071,0.009583,-0.991821,0.236122,0.386565,-0.283664,49,285,577,6080
1644180643.95744,-0.011353,0.008484,-0.99176,0.281924,0.447634,-0.115725,57,277,591,6160
1644180644.066148,-0.00769,0.012634,-0.992676,0.327725,0.340763,-0.130992,40,277,579,6016
1644180644.103624,-0.010803,0.01062,-0.992615,0.327725,0.432366,-0.161527,53,283,585,6128
1644180644.149524,-0.008789,0.010254,-0.991089,0.236122,0.310229,-0.024122,41,283,590,6160
1644180644.197916,-0.010742,0.011108,-0.989136,0.113985,0.386565,0.006412,52,280,582,6128
1644180644.246283,-0.009216,0.009399,-0.99115,0.266656,0.325496,-0.115725,53,281,580,6112
1644180644.294717,-0.010376,0.008057,-0.989807,0.327725,0.294962,-0.14626,49,275,584,6224
1644180644.343103,-0.006287,0.011108,-0.989319,0.205588,0.447634,-0.100458,46,283,583,6112
1644180644.391479,-0.00708,0.009338,-0.991516,0.159786,0.294962,-0.069924,51,271,578,6128
1644180644.439871,-0.008301,0.007263,-0.990051,0.052916,0.218626,-0.100458,48,279,585,6112
1644180644.488272,-0.009888,0.010864,-0.992249,0.281924,0.478168,-0.069924,54,282,589,6128
1644180644.536631,-0.008667,0.00708,-0.99469,0.144519,0.417099,-0.069924,39,274,594,6160
1644180644.585091,-0.007019,0.007996,-0.99353,0.251389,0.462901,-0.085191,52,273,589,6112
1644180644.633466,-0.009094,0.011902,-0.991455,0.205588,0.294962,-0.192061,58,279,583,6112
1644180644.683302,-0.008057,0.009888,-0.992493,0.159786,0.371298,-0.176794,43,276,583,6112
1644180644.733574,-0.010071,0.008484,-0.995056,0.159786,0.478168,0.006412,45,277,582,6080
1644180644.783812,-0.009216,0.009827,-0.993591,0.144519,0.386565,0.098015,58,276,583,6128
1644180644.875403,-0.010376,0.008606,-0.992188,0.327725,0.294962,-0.085191,48,271,585,6128
1644180644.923858,-0.011047,0.008057,-0.993225,0.281924,0.462901,-0.069924,47,273,593,6128
1644180644.97242,-0.00824,0.00824,-0.994873,0.190321,0.218626,-0.100458,57,275,589,6128
1644180645.020627,-0.01123,0.010986,-0.991333,0.068183,0.539237,-0.14626,61,277,591,6128
1644180645.070574,-0.007751,0.008362,-0.99292,0.068183,0.569771,-0.054656,43,274,590,6112
1644180645.11734,-0.012451,0.010376,-0.995361,0.281924,0.417099,-0.161527,59,275,589,6160
1644180645.165733,-0.012695,0.010925,-0.991394,0.251389,0.356031,-0.024122,48,276,583,6080
1644180645.214161,-0.008423,0.00946,-0.989441,0.281924,0.401832,-0.161527,45,287,586,6048
1644180645.262586,-0.009399,0.009277,-0.992859,0.297191,0.63084,-0.222595,49,290,577,6128
1644180645.310908,-0.00824,0.010559,-0.993652,0.144519,0.356031,-0.100458,52,280,579,6080
1644180645.359335,-0.008301,0.009827,-0.993469,0.312458,0.386565,-0.085191,58,271,580,6160
1644180645.40773,-0.004883,0.010315,-0.992249,0.205588,0.386565,-0.100458,59,268,577,6080
1644180645.457216,-0.010193,0.010376,-0.993591,0.388794,0.401832,-0.024122,61,268,577,6112
1644180645.504542,-0.007263,0.010925,-0.991821,0.236122,0.447634,-0.039389,46,274,585,6080
1644180645.552925,-0.008667,0.009644,-0.991394,0.175053,0.401832,-0.222595,42,277,591,6176
1644180645.60129,-0.009644,0.007629,-0.992249,0.297191,0.401832,-0.237863,59,280,591,6224
1644180645.649692,-0.010559,0.008484,-0.990967,0.35826,0.401832,-0.039389,58,279,580,6112
1644180645.698079,-0.007751,0.009399,-0.993225,0.098718,0.508702,-0.207328,47,275,591,6080
1644180645.74644,-0.007874,0.009277,-0.993835,0.159786,0.432366,-0.024122,42,275,582,6192
1644180645.795311,-0.007751,0.00708,-0.991272,0.190321,0.432366,-0.130992,52,280,591,6112
1644180645.845839,-0.012207,0.010559,-0.99469,0.205588,0.264427,-0.161527,58,274,587,6176
1644180645.896241,-0.009583,0.009399,-0.991943,0.205588,0.325496,-0.069924,57,268,589,6112
1644180645.940724,-0.009766,0.009094,-0.991638,0.129252,0.493435,-0.039389,51,271,580,6128
1644180646.036853,-0.013428,0.007751,-0.994141,0.220855,0.478168,-0.085191,53,279,583,6128
1644180646.085924,-0.007263,0.007568,-0.992188,0.434595,0.508702,-0.115725,51,279,587,6128
1644180646.133594,-0.009155,0.01001,-0.993164,0.175053,0.432366,-0.069924,45,263,579,6112
1644180646.182008,-0.011353,0.008972,-0.991577,0.052916,0.218626,-0.100458,42,277,579,6080
1644180646.230398,-0.010376,0.010498,-0.994141,0.205588,0.325496,-0.085191,42,270,591,6128
1644180646.27878,-0.009583,0.010498,-0.991089,0.266656,0.310229,-0.069924,46,281,592,6048
1644180646.327166,-0.008789,0.010742,-0.988037,0.281924,0.508702,0.174351,49,277,586,6112
1644180646.375565,-0.013245,0.007812,-0.990601,0.281924,0.371298,-0.039389,39,283,583,6016
1644180646.423959,-0.009521,0.008667,-0.991211,0.327725,0.432366,-0.115725,49,273,589,6128
1644180646.47238,-0.006653,0.010254,-0.993347,0.388794,0.417099,-0.115725,48,271,576,6224
1644180646.520758,-0.00946,0.009399,-0.992371,0.434595,0.24916,-0.100458,51,276,583,6000
1644180646.569144,-0.008301,0.014465,-0.991333,0.236122,0.371298,0.082748,48,291,583,6160
1644180646.617544,-0.010498,0.008118,-0.993042,0.327725,0.386565,-0.161527,54,273,591,6224
1644180646.665929,-0.008606,0.008423,-0.991211,0.251389,0.401832,-0.115725,55,283,578,6112
1644180646.714329,-0.009399,0.009277,-0.992615,0.159786,0.401832,0.006412,47,268,584,6112
1644180646.762727,-0.008301,0.010071,-0.991211,0.404061,0.356031,0.021679,47,275,593,6080
1644180646.811153,-0.011108,0.007385,-0.996887,0.312458,0.294962,0.021679,60,274,587,6080
1644180646.859883,-0.013123,0.010742,-0.993225,0.129252,0.508702,-0.039389,59,275,589,6048
1644180646.907956,-0.007507,0.00885,-0.992981,0.342992,0.401832,-0.054656,53,279,585,6112
1644180646.957902,-0.008789,0.00946,-0.989807,0.190321,0.462901,-0.054656,49,273,589,6048
1644180647.008104,-0.01062,0.012573,-0.992371,0.205588,0.493435,-0.176794,53,279,585,6112
1644180647.074561,-0.010193,0.006042,-0.992615,0.175053,0.356031,-0.161527,55,281,580,6128
1644180647.109155,-0.008972,0.008179,-0.992798,0.129252,0.371298,-0.130992,42,273,586,6112
1644180647.198228,-0.007019,0.006348,-0.995544,0.251389,0.493435,-0.130992,47,275,584,6128
1644180647.246617,-0.008423,0.008606,-0.993469,0.220855,0.294962,-0.115725,57,287,586,6080
1644180647.295245,-0.008118,0.010254,-0.990295,0.251389,0.310229,-0.100458,45,280,582,6176
1644180647.343439,-0.010254,0.009827,-0.990295,0.190321,0.279695,-0.008855,46,281,583,6080
1644180647.391813,-0.008545,0.008118,-0.992676,0.190321,0.523969,-0.207328,58,281,576,6128
1644180647.44021,-0.008667,0.010193,-0.990295,0.281924,0.325496,0.082748,45,273,584,6128
1644180647.488598,-0.007446,0.008118,-0.991455,0.342992,0.462901,-0.085191,52,270,584,6128
1644180647.537008,-0.009827,0.011719,-0.992188,0.281924,0.462901,-0.130992,60,276,590,6176
1644180647.5854,-0.007141,0.011841,-0.990295,0.144519,0.356031,-0.14626,46,271,576,6128
1644180647.633787,-0.006958,0.011719,-0.991882,0.052916,0.432366,-0.25313,51,288,573,6192
1644180647.682303,-0.009827,0.010132,-0.992737,0.281924,0.264427,-0.039389,52,287,579,6192
1644180647.730555,-0.00824,0.00946,-0.991699,0.220855,0.585038,0.006412,46,281,587,6048
1644180647.778956,-0.009766,0.01001,-0.990723,0.175053,0.386565,-0.130992,47,282,579,6112
1644180647.827396,-0.005371,0.010376,-0.993774,0.266656,0.279695,0.006412,47,273,586,6048
1644180647.875801,-0.00769,0.012817,-0.992554,0.297191,0.417099,0.052214,51,279,585,6112
1644180647.924177,-0.00824,0.009827,-0.990051,0.08345,0.386565,-0.115725,48,276,583,6128
1644180647.972594,-0.009521,0.010498,-0.991028,0.190321,0.432366,-0.237863,49,273,591,6128
1644180648.021155,-0.011963,0.012451,-0.991882,0.388794,0.264427,-0.115725,43,276,592,6128
1644180648.093798,-0.009277,0.007385,-0.990173,0.129252,0.462901,-0.130992,60,276,576,6176
1644180648.119561,-0.009338,0.009583,-0.989502,0.190321,0.325496,-0.085191,53,281,585,6128
1644180648.214535,-0.006104,0.012756,-0.990479,0.312458,0.356031,-0.100458,49,280,589,6080
1644180648.262879,-0.008728,0.01239,-0.992859,0.251389,0.462901,-0.054656,47,273,584,6128
1644180648.311261,-0.008423,0.009216,-0.993469,0.08345,0.371298,-0.161527,49,285,582,6128
1644180648.35967,-0.007019,0.010193,-0.99353,0.266656,0.478168,-0.008855,43,279,578,6112
1644180648.408053,-0.008789,0.010254,-0.993042,0.068183,0.447634,-0.100458,51,276,587,6128
1644180648.456456,-0.007629,0.010071,-0.992493,0.236122,0.233893,0.143817,55,266,580,6128
1644180648.504832,-0.008667,0.009277,-0.991272,0.236122,0.371298,-0.130992,46,281,585,6192
1644180648.553257,-0.010803,0.010193,-0.994019,0.266656,0.340763,0.052214,52,282,577,6048
1644180648.601649,-0.00824,0.006897,-0.992554,0.098718,0.417099,-0.100458,49,277,584,6176
1644180648.650036,-0.009521,0.010254,-0.992554,0.266656,0.417099,-0.176794,45,280,589,6128
1644180648.698421,-0.008667,0.009583,-0.990845,0.434595,0.294962,-0.207328,52,273,577,6112
1644180648.746781,-0.00824,0.010803,-0.992371,0.220855,0.386565,0.021679,48,281,587,6128
1644180648.795285,-0.008972,0.005554,-0.994263,0.159786,0.371298,0.021679,53,274,583,6128
1644180648.843638,-0.007263,0.009766,-0.991028,0.297191,0.554504,-0.039389,48,271,585,6080
1644180648.892032,-0.009583,0.009949,-0.990356,0.373527,0.386565,-0.085191,51,274,590,6128
1644180648.940392,-0.010803,0.004639,-0.991028,0.251389,0.401832,0.021679,53,281,580,6160
1644180648.988811,-0.012512,0.010315,-0.992188,0.098718,0.462901,-0.069924,55,283,587,6192
1644180649.037255,-0.011475,0.011536,-0.993835,0.327725,0.294962,0.021679,43,281,590,6192
1644180649.100034,-0.008301,0.009521,-0.992126,0.068183,0.432366,-0.039389,58,279,580,6064
1644180649.137756,-0.008545,0.009583,-0.991882,0.205588,0.401832,-0.130992,52,280,596,6080
1644180649.186336,-0.007568,0.007935,-0.991272,0.220855,0.371298,-0.100458,53,283,583,6128
1644180649.231468,-0.009216,0.009521,-0.991089,0.312458,0.462901,-0.161527,54,273,582,6160
1644180649.327505,-0.007874,0.010742,-0.992249,0.190321,0.371298,0.067481,55,266,583,6128
1644180649.375889,-0.009827,0.007629,-0.990845,0.312458,0.447634,-0.115725,57,277,584,6160
1644180649.4243,-0.007568,0.008301,-0.991455,0.297191,0.508702,-0.161527,60,271,576,6048
1644180649.472719,-0.009094,0.010071,-0.991089,0.266656,0.371298,-0.054656,59,268,582,6224
1644180649.521059,-0.013733,0.007568,-0.991394,-0.008153,0.447634,-0.207328,52,270,584,6128
1644180649.569487,-0.008667,0.009888,-0.994629,0.022382,0.356031,-0.085191,39,283,578,6112
1644180649.617873,-0.009338,0.009644,-0.990112,0.052916,0.417099,-0.222595,57,275,584,6176
1644180649.66626,-0.005981,0.011658,-0.991699,0.08345,0.340763,-0.25313,53,274,590,6128
1644180649.714674,-0.009094,0.007324,-0.99231,0.037649,0.417099,-0.115725,46,276,585,6160
1644180649.763078,-0.008972,0.009155,-0.991638,0.175053,0.417099,-0.14626,54,270,589,6080
1644180649.811444,-0.01062,0.010742,-0.993652,0.159786,0.401832,-0.207328,49,280,582,6080
1644180649.859904,-0.010559,0.008484,-0.992371,0.205588,0.233893,-0.130992,53,264,587,6112
1644180649.908274,-0.007202,0.013245,-0.990234,0.220855,0.523969,-0.054656,45,273,584,6128
1644180649.956676,-0.009033,0.009338,-0.991699,0.220855,0.325496,-0.069924,48,281,585,6128
1644180650.005125,-0.008667,0.006714,-0.990967,0.220855,0.478168,-0.115725,47,282,591,6016
1644180650.064298,-0.009521,0.009338,-0.991882,0.281924,0.478168,-0.008855,43,266,585,6128
1644180650.104835,-0.010925,0.007568,-0.992371,0.144519,0.432366,-0.115725,43,266,573,6160
1644180650.150195,-0.005798,0.008606,-0.989868,0.08345,0.356031,-0.069924,57,275,584,6064
1644180650.198571,-0.011658,0.010376,-0.992615,0.159786,0.478168,0.082748,47,282,582,6112
1644180650.248319,-0.008423,0.007629,-0.992432,0.236122,0.523969,-0.161527,53,283,587,6160
1644180650.298614,-0.011658,0.005981,-0.994873,0.281924,0.24916,-0.130992,52,270,577,6160
1644180650.34876,-0.009705,0.006897,-0.993225,0.205588,0.539237,-0.130992,46,271,580,6128
1644180650.440547,-0.010437,0.010559,-0.992493,0.327725,0.401832,-0.14626,47,282,586,6128
1644180650.489294,-0.009277,0.011902,-0.988098,0.220855,0.386565,-0.130992,34,279,585,6128
1644180650.537316,-0.00946,0.006836,-0.991211,0.220855,0.371298,-0.039389,48,274,576,6160
1644180650.585723,-0.007324,0.008728,-0.991211,0.281924,0.356031,-0.161527,45,280,586,6160
1644180650.634107,-0.011536,0.006592,-0.994263,0.281924,0.279695,-0.085191,51,271,587,6160
1644180650.682527,-0.009888,0.008606,-0.993103,0.220855,0.478168,-0.069924,51,269,585,6128
1644180650.730923,-0.009766,0.01001,-0.992798,0.327725,0.401832,-0.237863,52,277,586,6080
1644180650.779306,-0.006897,0.007263,-0.992371,0.098718,0.493435,-0.024122,51,276,590,6112
1644180650.827668,-0.008423,0.008484,-0.991455,0.205588,0.432366,-0.207328,46,279,590,6112
1644180650.876134,-0.007324,0.008911,-0.993164,0.251389,0.432366,-0.115725,40,268,586,6080
1644180650.924538,-0.010437,0.007996,-0.991882,0.220855,0.340763,-0.161527,57,282,577,6192
1644180650.97294,-0.011658,0.009399,-0.99115,0.388794,0.539237,-0.100458,52,277,591,6160
1644180651.021304,-0.01062,0.008423,-0.989868,0.220855,0.294962,0.021679,55,276,592,6112
1644180651.073759,-0.009155,0.009521,-0.991455,0.236122,0.310229,0.006412,60,274,590,6048
1644180651.118031,-0.006531,0.010254,-0.994995,0.129252,0.432366,-0.14626,47,282,586,6128
1644180651.166445,-0.007385,0.011169,-0.993591,0.129252,0.585038,-0.085191,49,277,589,6048
1644180651.21484,-0.009766,0.009705,-0.992981,0.251389,0.401832,-0.008855,54,275,579,6112
1644180651.263232,-0.010498,0.006531,-0.993286,0.068183,0.325496,0.006412,53,266,587,6160
1644180651.31193,-0.009033,0.010132,-0.989929,0.236122,0.462901,-0.008855,53,281,580,6080
1644180651.360365,-0.006592,0.009521,-0.992065,0.220855,0.401832,-0.176794,53,274,587,6128
1644180651.410746,-0.007263,0.009338,-0.99115,0.205588,0.310229,-0.25313,48,271,578,6064
1644180651.460953,-0.009521,0.006775,-0.990723,0.236122,0.539237,-0.161527,51,271,594,6064
1644180651.506046,-0.009644,0.008118,-0.990417,0.144519,0.447634,-0.085191,43,286,580,6176
1644180651.601963,-0.009521,0.010681,-0.991089,0.281924,0.600305,-0.176794,58,269,587,6176
1644180651.650348,-0.011841,0.010315,-0.99353,0.190321,0.523969,-0.130992,55,266,578,6128
1644180651.698735,-0.010132,0.011658,-0.992798,0.205588,0.325496,-0.14626,60,274,587,6176
1644180651.747149,-0.010742,0.009399,-0.991638,0.373527,0.432366,-0.054656,51,266,578,6160
1644180651.795544,-0.007202,0.010864,-0.993347,0.098718,0.24916,-0.100458,48,274,580,6080
1644180651.84394,-0.007629,0.007629,-0.991272,0.251389,0.447634,0.006412,54,265,577,6080
1644180651.892389,-0.011169,0.010132,-0.994324,0.144519,0.264427,-0.069924,48,276,580,6160
1644180651.940761,-0.009277,0.009766,-0.990845,-0.008153,0.462901,-0.207328,51,269,587,6112
1644180651.989136,-0.006775,0.010803,-0.993652,0.251389,0.539237,-0.222595,51,274,578,6128
1644180652.037544,-0.006653,0.007874,-0.992737,0.251389,0.417099,-0.024122,43,281,590,6112
1644180652.085968,-0.007935,0.012512,-0.988586,0.205588,0.478168,-0.115725,43,286,585,6112
1644180652.134346,-0.00769,0.008545,-0.993408,0.327725,0.493435,0.036947,46,279,592,6128
1644180652.182685,-0.007751,0.011353,-0.989502,0.220855,0.310229,-0.008855,43,274,597,6048
1644180652.231072,-0.009155,0.010254,-0.992004,0.251389,0.447634,-0.069924,57,292,584,6112
1644180652.279469,-0.007935,0.008972,-0.991699,0.266656,0.493435,-0.039389,52,280,591,6128
1644180652.327862,-0.009766,0.012817,-0.99115,0.388794,0.417099,0.021679,42,287,596,6080
1644180652.376252,-0.009033,0.009766,-0.992065,0.266656,0.447634,-0.161527,52,273,582,6176
1644180652.42465,-0.008362,0.010071,-0.989929,0.175053,0.401832,0.006412,48,274,580,6080
1644180652.473304,-0.006836,0.009827,-0.990112,0.098718,0.493435,-0.130992,52,273,582,6160
1644180652.523975,-0.009766,0.009827,-0.994324,0.205588,0.508702,-0.130992,59,275,584,6128
1644180652.57412,-0.009094,0.006897,-0.991882,0.220855,0.310229,-0.176794,54,280,589,6176
1644180652.619048,-0.009094,0.009766,-0.989807,0.297191,0.493435,-0.085191,48,276,583,6112
1644180652.71526,-0.007263,0.010925,-0.99054,0.205588,0.371298,-0.130992,64,275,582,6112
1644180652.763392,-0.008606,0.011841,-0.993591,0.236122,0.401832,-0.115725,45,277,584,6160
1644180652.811776,-0.010559,0.010681,-0.993652,0.098718,0.401832,-0.25313,49,280,582,6160
1644180652.860173,-0.009338,0.012207,-0.992004,0.190321,0.218626,0.006412,42,277,591,6160
1644180652.908611,-0.008423,0.010986,-0.993896,0.144519,0.401832,-0.14626,48,283,573,6080
1644180652.956998,-0.010071,0.008545,-0.99054,0.175053,0.432366,0.021679,49,277,582,6080
1644180653.00537,-0.011658,0.010132,-0.992065,0.175053,0.401832,-0.100458,58,274,580,6160
1644180653.066497,-0.010742,0.011414,-0.991699,0.129252,0.432366,-0.039389,47,282,582,6128
1644180653.104551,-0.009033,0.00769,-0.992004,0.251389,0.523969,-0.085191,53,274,580,6128
1644180653.15056,-0.009216,0.007874,-0.993835,0.266656,0.600305,-0.054656,49,273,584,6160
1644180653.198966,-0.008545,0.009949,-0.990662,0.236122,0.325496,-0.069924,59,273,584,6080
1644180653.247353,-0.00946,0.010437,-0.991028,0.190321,0.432366,-0.176794,53,271,592,6128
1644180653.295746,-0.010986,0.007996,-0.992126,0.327725,0.310229,-0.115725,55,281,583,6128
1644180653.344146,-0.007446,0.009277,-0.990723,0.159786,0.432366,-0.069924,47,290,584,6112
1644180653.392542,-0.009155,0.009216,-0.987,0.113985,0.264427,0.036947,46,283,585,6112
1644180653.440927,-0.008545,0.012756,-0.990967,0.342992,0.432366,-0.222595,48,269,583,6080
1644180653.489679,-0.007812,0.011047,-0.991882,0.205588,0.340763,-0.115725,58,276,585,6112
1644180653.537721,-0.012024,0.010193,-0.990723,0.175053,0.447634,-0.100458,57,273,586,6112
1644180653.587286,-0.012329,0.011169,-0.992981,0.266656,0.371298,-0.130992,51,274,590,6176
1644180653.637185,-0.010742,0.009583,-0.991028,0.220855,0.340763,-0.115725,46,279,585,6128
1644180653.687576,-0.009644,0.009888,-0.994507,0.220855,0.371298,-0.115725,53,271,592,6080
1644180653.732242,-0.009949,0.009338,-0.991394,0.251389,0.340763,-0.008855,55,279,592,6160
1644180653.828062,-0.00708,0.011597,-0.989746,0.35826,0.371298,-0.130992,51,271,592,6160
1644180653.876462,-0.006653,0.012268,-0.988586,0.388794,0.478168,-0.130992,55,274,585,6048
1644180653.924859,-0.006287,0.009521,-0.994507,0.251389,0.646107,-0.085191,45,277,584,6160
1644180653.97326,-0.008179,0.009155,-0.99353,0.327725,0.401832,-0.268397,53,291,585,6128
1644180654.021629,-0.007324,0.006531,-0.991577,0.220855,0.371298,-0.100458,47,277,584,6080
1644180654.075117,-0.0047,0.007019,-0.992004,0.129252,0.279695,-0.176794,53,279,594,6080
1644180654.118369,-0.007324,0.01239,-0.992859,0.190321,0.569771,-0.161527,43,274,578,6080
1644180654.166761,-0.008484,0.010437,-0.992798,0.205588,0.462901,-0.085191,52,280,582,6080
1644180654.215186,-0.008362,0.011963,-0.990784,0.266656,0.340763,0.036947,58,274,585,6176
1644180654.264787,-0.007996,0.012451,-0.991089,0.236122,0.539237,-0.283664,59,282,583,6160
1644180654.311925,-0.011108,0.010132,-0.992188,0.342992,0.401832,-0.039389,57,277,577,6080
1644180654.360338,-0.00769,0.012146,-0.993286,0.266656,0.462901,-0.14626,48,274,592,6112
1644180654.408704,-0.010986,0.012024,-0.991089,0.144519,0.478168,-0.054656,53,281,578,6080
1644180654.457125,-0.006714,0.008606,-0.992188,0.08345,0.279695,-0.222595,51,281,583,6176
1644180654.505506,-0.008057,0.010437,-0.992432,0.388794,0.401832,-0.008855,51,276,592,6160
1644180654.553909,-0.007446,0.009583,-0.990051,0.113985,0.417099,0.021679,53,283,578,6016
1644180654.602324,-0.009033,0.012085,-0.990906,0.129252,0.310229,-0.024122,45,277,582,6080
1644180654.6507,-0.007812,0.009583,-0.992798,0.205588,0.386565,-0.008855,45,287,579,6128
1644180654.699091,-0.006287,0.010803,-0.992798,0.35826,0.478168,-0.161527,53,271,578,6128
1644180654.747717,-0.007996,0.008423,-0.992371,0.205588,0.447634,-0.069924,55,274,592,6160
1644180654.798724,-0.007568,0.011414,-0.99176,0.037649,0.462901,-0.069924,53,279,599,6080
1644180654.849095,-0.007019,0.009338,-0.99054,0.312458,0.447634,-0.130992,42,275,586,6080
1644180654.893624,-0.006348,0.01001,-0.99292,0.159786,0.539237,-0.115725,52,275,591,6128
1644180654.989492,-0.009644,0.00769,-0.990112,0.220855,0.462901,-0.100458,43,271,590,6080
1644180655.037847,-0.006958,0.009521,-0.991394,0.281924,0.356031,-0.085191,53,266,590,6128
1644180655.086334,-0.010254,0.010254,-0.992554,0.113985,0.386565,0.113282,54,277,598,6048
1644180655.134638,-0.01178,0.009888,-0.99231,0.251389,0.417099,-0.069924,41,279,587,6128
1644180655.183037,-0.006775,0.012207,-0.990112,0.175053,0.478168,0.036947,43,269,587,6128
1644180655.231419,-0.008057,0.010071,-0.992371,0.327725,0.508702,-0.161527,55,266,585,6080
1644180655.279787,-0.010742,0.010132,-0.99231,0.144519,0.462901,-0.161527,42,285,586,6128
1644180655.328196,-0.007263,0.010437,-0.993958,0.190321,0.432366,0.021679,46,271,576,6048
1644180655.37659,-0.00708,0.01062,-0.992065,0.312458,0.569771,-0.024122,48,279,587,6128
1644180655.425108,-0.007202,0.012207,-0.992676,0.190321,0.340763,-0.085191,47,265,586,6064
1644180655.473385,-0.011414,0.010437,-0.991028,0.159786,0.279695,-0.115725,47,282,589,6080
1644180655.521762,-0.009888,0.009644,-0.99469,0.205588,0.386565,-0.039389,48,274,590,6128
1644180655.570155,-0.007263,0.010925,-0.992737,0.297191,0.539237,-0.115725,43,283,569,6080
1644180655.618551,-0.008057,0.011292,-0.993347,0.220855,0.432366,-0.14626,53,276,573,6080
1644180655.666912,-0.008118,0.010376,-0.992065,0.159786,0.417099,-0.176794,57,275,579,6080
1644180655.715337,-0.009583,0.010071,-0.990173,0.373527,0.401832,-0.115725,54,280,589,6160
1644180655.763729,-0.01123,0.009521,-0.991028,0.129252,0.279695,-0.069924,46,279,585,6112
1644180655.81218,-0.011841,0.01001,-0.99176,0.220855,0.356031,-0.100458,53,266,590,6080
1644180655.860583,-0.006592,0.008911,-0.990173,0.312458,0.386565,-0.192061,55,281,576,6160
1644180655.91077,-0.009705,0.008362,-0.993286,0.220855,0.447634,-0.054656,46,276,578,6160
1644180655.960942,-0.007751,0.00946,-0.994507,0.266656,0.401832,-0.069924,59,277,589,6128
1644180656.064609,-0.009399,0.008118,-0.990662,0.159786,0.325496,0.052214,45,275,586,6128
1644180656.104805,-0.010986,0.008179,-0.992798,0.113985,0.371298,-0.100458,43,286,583,6080
1644180656.150883,-0.007629,0.009399,-0.992615,0.052916,0.493435,-0.115725,53,276,585,6128
1644180656.199272,-0.008606,0.009033,-0.99292,0.281924,0.264427,0.021679,52,282,582,6112
1644180656.247634,-0.009216,0.008179,-0.992981,0.175053,0.447634,-0.085191,52,277,579,6048
1644180656.296054,-0.007385,0.010681,-0.992126,0.266656,0.401832,-0.054656,45,285,579,6080
1644180656.344457,-0.007019,0.008423,-0.993164,0.251389,0.386565,-0.176794,54,273,589,6160
1644180656.392852,-0.008667,0.008179,-0.992615,0.190321,0.24916,-0.222595,62,281,580,6128
1644180656.44122,-0.00946,0.008362,-0.994019,0.159786,0.325496,-0.115725,51,276,585,6176
1644180656.489636,-0.008484,0.011536,-0.991638,0.297191,0.401832,-0.024122,53,271,592,6048
1644180656.538005,-0.01062,0.007812,-0.992615,0.281924,0.264427,-0.069924,49,270,582,6112
1644180656.586412,-0.008057,0.011292,-0.990845,0.266656,0.310229,-0.100458,48,279,587,6160
1644180656.634813,-0.009888,0.011353,-0.989624,0.190321,0.462901,0.067481,49,282,577,6112
1644180656.683395,-0.007935,0.008972,-0.991699,0.266656,0.371298,-0.069924,41,271,578,6112
1644180656.73244,-0.010437,0.009155,-0.991089,-0.038687,0.478168,-0.054656,41,274,590,6176
1644180656.782996,-0.008606,0.009949,-0.988403,0.175053,0.371298,-0.14626,55,269,580,6176
1644180656.828908,-0.007019,0.008423,-0.994507,0.35826,0.325496,-0.085191,59,282,582,6128
1644180656.878856,-0.011047,0.012329,-0.991089,0.159786,0.401832,-0.085191,53,274,583,6112
1644180656.973582,-0.01001,0.011719,-0.99231,0.098718,0.325496,-0.130992,55,266,578,6128
1644180657.021968,-0.004211,0.009949,-0.991638,0.205588,0.356031,0.021679,55,281,583,6112
1644180657.071207,-0.008606,0.007507,-0.99231,0.129252,0.401832,-0.130992,55,281,580,6080
1644180657.118736,-0.012024,0.011536,-0.98999,0.190321,0.432366,-0.161527,48,288,583,6128
1644180657.167091,-0.002441,0.010864,-0.991577,0.129252,0.371298,-0.100458,58,276,580,6112
1644180657.215491,-0.008484,0.008118,-0.991699,0.342992,0.508702,-0.237863,53,288,576,6048
1644180657.263901,-0.009094,0.008789,-0.993103,0.373527,0.478168,-0.161527,52,270,586,6080
1644180657.312286,-0.01062,0.011536,-0.99231,0.052916,0.371298,-0.054656,40,273,591,6128
1644180657.360679,-0.010254,0.013855,-0.991211,0.190321,0.294962,-0.054656,49,287,586,6176
1644180657.409088,-0.007629,0.011047,-0.990906,0.175053,0.310229,-0.008855,48,276,578,6128
1644180657.457465,-0.008789,0.009155,-0.992432,0.35826,0.356031,-0.222595,59,275,586,6112
1644180657.505869,-0.005737,0.00824,-0.991943,0.266656,0.493435,0.006412,43,276,580,6160
1644180657.55427,-0.008484,0.008789,-0.991089,0.251389,0.401832,-0.161527,46,276,580,6128
1644180657.602656,-0.008484,0.007507,-0.99231,0.35826,0.508702,-0.069924,47,273,584,6080
1644180657.651042,-0.010498,0.009399,-0.992798,0.205588,0.600305,-0.008855,45,275,586,6160
1644180657.699435,-0.005981,0.01001,-0.992493,0.342992,0.371298,-0.115725,43,271,592,6112
1644180657.747825,-0.006226,0.01355,-0.991333,0.144519,0.264427,-0.237863,47,282,577,6128
1644180657.796211,-0.010559,0.009155,-0.990906,0.190321,0.386565,-0.207328,54,268,582,6128
1644180657.84468,-0.00769,0.010376,-0.989502,0.266656,0.585038,-0.14626,49,287,586,6128
1644180657.894153,-0.00708,0.01001,-0.992065,0.190321,0.340763,-0.115725,48,281,587,6128
1644180657.94476,-0.009216,0.012512,-0.992188,0.297191,0.356031,-0.054656,41,283,580,6128
1644180657.994732,-0.009094,0.01123,-0.991455,0.297191,0.24916,-0.024122,49,273,582,6112
1644180658.039205,-0.007629,0.009094,-0.990295,0.205588,0.615573,-0.024122,49,275,582,6128
1644180658.13506,-0.009705,0.007996,-0.992676,0.159786,0.294962,0.098015,54,282,579,6080
1644180658.183371,-0.008301,0.009583,-0.992065,0.175053,0.417099,-0.115725,53,274,587,6128
1644180658.231748,-0.00946,0.008728,-0.99231,0.281924,0.356031,0.021679,53,279,583,6128
1644180658.280135,-0.009644,0.010864,-0.989563,0.113985,0.447634,0.052214,46,271,583,6112
1644180658.328526,-0.006775,0.010376,-0.991821,0.08345,0.462901,-0.008855,42,270,579,6080
1644180658.376918,-0.007751,0.006958,-0.992676,0.236122,0.417099,-0.298931,57,275,579,6128
1644180658.425313,-0.009033,0.012329,-0.994385,0.35826,0.539237,-0.115725,51,288,576,6128
1644180658.473728,-0.00647,0.009888,-0.991699,0.266656,0.356031,-0.115725,48,276,576,6112
1644180658.522156,-0.007446,0.008972,-0.98877,0.327725,0.508702,0.036947,51,286,583,6080
1644180658.570502,-0.007507,0.012268,-0.992554,0.175053,0.356031,-0.024122,49,275,577,6064
1644180658.618895,-0.007935,0.008423,-0.990417,0.297191,0.432366,-0.222595,57,275,586,6080
1644180658.667289,-0.01178,0.008972,-0.993103,0.190321,0.417099,-0.207328,46,281,585,6080
1644180658.71568,-0.008972,0.012512,-0.98999,0.373527,0.417099,-0.069924,58,276,583,6112
1644180658.764059,-0.011536,0.008789,-0.989319,0.220855,0.340763,-0.130992,54,282,582,6128
1644180658.812486,-0.007568,0.013245,-0.993042,0.159786,0.371298,-0.115725,49,280,577,6176
1644180658.86089,-0.010742,0.01001,-0.990479,0.052916,0.401832,-0.115725,48,281,578,6176
1644180658.909273,-0.00824,0.007996,-0.990845,0.159786,0.417099,-0.14626,48,271,590,6128
1644180658.95781,-0.006775,0.009521,-0.990784,0.220855,0.417099,-0.085191,59,275,584,6064
1644180659.006083,-0.007812,0.01239,-0.991272,0.220855,0.24916,-0.100458,46,274,580,6080
1644180659.076566,-0.00592,0.009583,-0.992371,0.175053,0.493435,-0.085191,54,285,589,6128
1644180659.110801,-0.007874,0.012207,-0.991577,0.205588,0.310229,0.052214,57,273,586,6160
1644180659.157662,-0.007019,0.009033,-0.990967,0.159786,0.401832,-0.008855,54,268,586,6128
1644180659.200784,-0.00946,0.010376,-0.991882,0.144519,0.325496,-0.130992,47,273,593,6080
1644180659.296368,-0.008545,0.009277,-0.990784,0.236122,0.417099,-0.069924,40,280,575,6128
1644180659.344871,-0.009827,0.008179,-0.990479,0.236122,0.340763,-0.054656,36,281,583,6160
1644180659.393167,-0.012695,0.009338,-0.98822,0.144519,0.401832,-0.130992,48,276,587,6112
1644180659.441548,-0.008484,0.009888,-0.992676,0.220855,0.386565,-0.085191,49,275,582,6112
1644180659.49,-0.00946,0.008972,-0.990234,0.175053,0.340763,-0.024122,45,287,584,6048
1644180659.538348,-0.007446,0.010559,-0.990479,0.236122,0.340763,-0.054656,45,280,577,6080
1644180659.586735,-0.007324,0.011719,-0.99353,0.205588,0.508702,0.036947,49,280,586,6160
1644180659.635162,-0.00708,0.009521,-0.993469,0.129252,0.478168,-0.207328,45,277,586,6112
1644180659.683535,-0.009766,0.00946,-0.992493,0.159786,0.401832,0.052214,43,271,583,6112
1644180659.731965,-0.012451,0.010681,-0.992981,0.190321,0.371298,-0.176794,42,280,591,6112
1644180659.780315,-0.010132,0.008545,-0.991272,0.297191,0.447634,-0.085191,49,280,577,6112
1644180659.828688,-0.008362,0.008972,-0.992371,0.159786,0.310229,-0.069924,49,263,579,6160
1644180659.877122,-0.009583,0.010559,-0.99353,0.220855,0.386565,-0.100458,41,274,580,6080
1644180659.925525,-0.008545,0.009216,-0.989868,0.297191,0.340763,-0.069924,47,280,586,6176
1644180659.973917,-0.006287,0.009338,-0.991638,0.312458,0.493435,-0.039389,47,280,591,6080
1644180660.022337,-0.008606,0.010071,-0.989136,0.159786,0.279695,-0.054656,53,266,580,6112
1644180660.090064,-0.009277,0.007812,-0.991577,0.113985,0.279695,-0.115725,42,285,589,6112
1644180660.124447,-0.007874,0.006653,-0.990662,0.220855,0.432366,-0.115725,59,270,591,6128
1644180660.169186,-0.00824,0.006409,-0.993408,0.297191,0.356031,0.036947,45,282,577,6112
1644180660.264234,-0.008728,0.004883,-0.994019,0.129252,0.325496,-0.14626,49,273,579,6176
1644180660.31264,-0.009033,0.012817,-0.993225,0.190321,0.432366,-0.024122,51,269,580,6112
1644180660.361005,-0.007935,0.008728,-0.992798,0.190321,0.417099,-0.14626,55,276,585,6160
1644180660.409401,-0.007996,0.012695,-0.987793,-0.038687,0.478168,0.052214,58,271,578,6112
1644180660.457804,-0.012817,0.008667,-0.994385,0.266656,0.493435,-0.100458,43,276,585,6128
1644180660.506173,-0.009705,0.01178,-0.993042,0.113985,0.417099,0.021679,47,287,577,6080
1644180660.55463,-0.008728,0.008484,-0.991455,0.251389,0.264427,-0.14626,54,275,577,6160
1644180660.602997,-0.007019,0.009888,-0.990906,0.236122,0.371298,-0.039389,58,279,583,6080
1644180660.651382,-0.007324,0.010193,-0.990173,0.190321,0.462901,0.006412,47,268,591,6064
1644180660.69975,-0.010864,0.007385,-0.993225,0.373527,0.417099,0.067481,41,283,590,6112
1644180660.74814,-0.008667,0.007568,-0.991943,0.404061,0.493435,-0.100458,51,279,566,6112
1644180660.796556,-0.009521,0.008667,-0.99115,0.113985,0.478168,-0.207328,65,286,590,6128
1644180660.845075,-0.011169,0.009399,-0.990356,0.404061,0.279695,0.021679,57,273,582,6128
1644180660.893384,-0.010437,0.009216,-0.994507,0.205588,0.508702,-0.069924,49,270,589,6112
1644180660.941773,-0.008789,0.010925,-0.990051,0.220855,0.569771,-0.069924,49,275,579,6128
1644180660.990157,-0.007751,0.01123,-0.993042,0.205588,0.462901,-0.298931,49,277,584,6176
1644180661.038554,-0.008484,0.010681,-0.992676,0.159786,0.478168,-0.115725,54,282,589,6112
1644180661.094795,-0.007507,0.008179,-0.991577,0.327725,0.447634,-0.115725,61,292,593,6128
1644180661.135369,-0.012024,0.009888,-0.991211,0.312458,0.447634,-0.14626,45,273,577,6080
1644180661.184873,-0.009216,0.010254,-0.993958,0.129252,0.401832,-0.069924,49,280,582,6048
1644180661.235278,-0.004761,0.008728,-0.991638,0.220855,0.447634,0.052214,42,285,582,6112
1644180661.285335,-0.00824,0.007996,-0.992371,0.175053,0.24916,-0.085191,55,276,583,6160
1644180661.329759,-0.011169,0.009094,-0.992371,0.312458,0.447634,-0.085191,49,277,582,6080
1644180661.425679,-0.008484,0.009949,-0.99176,0.236122,0.539237,-0.054656,52,287,586,6128
1644180661.474086,-0.006653,0.009644,-0.99115,0.144519,0.462901,0.021679,52,277,586,6128
1644180661.522488,-0.011414,0.004761,-0.990723,0.297191,0.401832,-0.024122,42,277,589,6112
1644180661.570864,-0.009583,0.008484,-0.990784,0.236122,0.401832,-0.054656,46,271,576,6112
1644180661.619262,-0.008118,0.006409,-0.993469,0.129252,0.401832,-0.039389,43,283,583,6160
1644180661.667653,-0.007935,0.00885,-0.992615,0.236122,0.356031,-0.161527,47,287,577,6128
1644180661.716043,-0.012024,0.008484,-0.992493,0.342992,0.432366,-0.054656,49,268,591,6128
1644180661.764449,-0.009644,0.010986,-0.992065,0.129252,0.325496,-0.008855,57,290,584,6080
1644180661.812836,-0.009033,0.01123,-0.990723,0.281924,0.478168,-0.268397,54,273,584,6160
1644180661.861216,-0.006897,0.009949,-0.991821,0.037649,0.478168,-0.115725,49,270,579,6080
1644180661.909618,-0.006958,0.009216,-0.992493,0.175053,0.493435,0.006412,48,274,592,6048
1644180661.958005,-0.009094,0.013245,-0.992432,0.159786,0.462901,-0.069924,49,275,577,6080
1644180662.006384,-0.008362,0.009827,-0.989014,0.236122,0.386565,-0.130992,48,274,580,6112
1644180662.065016,-0.006775,0.011292,-0.992676,0.08345,0.264427,0.006412,48,274,576,6128
1644180662.103151,-0.012024,0.011902,-0.993591,0.35826,0.569771,-0.008855,57,275,593,6080
1644180662.151549,-0.00708,0.008667,-0.99231,0.205588,0.417099,-0.115725,55,281,590,6080
1644180662.199936,-0.007568,0.009216,-0.989868,0.205588,0.325496,-0.024122,48,274,587,6160
1644180662.24831,-0.008484,0.010559,-0.99353,0.113985,0.432366,-0.115725,53,271,578,6128
1644180662.296733,-0.009216,0.010071,-0.989563,0.190321,0.462901,-0.176794,46,276,580,6112
1644180662.346445,-0.013306,0.008728,-0.99176,0.266656,0.447634,-0.008855,57,270,579,6112
1644180662.396914,-0.010071,0.011475,-0.991028,0.175053,0.401832,-0.192061,49,277,572,6064
1644180662.446858,-0.01001,0.009033,-0.988708,0.266656,0.569771,-0.100458,59,282,579,6160
1644180662.538688,-0.010742,0.012756,-0.990723,0.266656,0.432366,0.082748,52,280,579,6080
1644180662.587065,-0.007385,0.010681,-0.99231,0.190321,0.386565,-0.130992,52,285,586,6128
1644180662.635447,-0.010437,0.007812,-0.991333,0.35826,0.188092,-0.008855,51,274,587,6112
1644180662.683873,-0.008667,0.011536,-0.992432,0.205588,0.432366,-0.161527,42,285,577,6176
1644180662.732397,-0.007751,0.013123,-0.98999,0.312458,0.172824,-0.085191,55,271,578,6064
1644180662.780625,-0.011597,0.007812,-0.99231,0.46513,0.371298,0.036947,42,273,591,6080
1644180662.829072,-0.006409,0.010498,-0.991272,0.159786,0.401832,-0.115725,57,270,586,6128
1644180662.877469,-0.007568,0.01001,-0.992065,0.312458,0.508702,-0.161527,49,282,586,6080
1644180662.925869,-0.007141,0.009033,-0.989502,0.190321,0.447634,-0.085191,47,273,577,6128
1644180662.974271,-0.009705,0.010254,-0.991272,0.175053,0.386565,-0.100458,47,280,584,6112
1644180663.022642,-0.009583,0.012085,-0.988525,0.236122,0.371298,-0.085191,49,285,589,6080
1644180663.078967,-0.008301,0.00824,-0.988831,0.052916,0.24916,-0.008855,49,275,589,6160
1644180663.119382,-0.008179,0.01239,-0.99231,0.251389,0.386565,-0.100458,43,281,587,6112
1644180663.167791,-0.007935,0.008057,-0.992249,0.220855,0.462901,0.006412,59,265,577,6080
1644180663.216179,-0.009033,0.00885,-0.99231,0.068183,0.478168,-0.14626,54,275,584,6112
1644180663.264612,-0.006531,0.011597,-0.993652,0.220855,0.340763,-0.039389,53,276,585,6128
1644180663.31298,-0.008118,0.010071,-0.992798,0.251389,0.447634,-0.115725,53,283,576,6176
1644180663.361357,-0.008911,0.007507,-0.988831,0.037649,0.356031,-0.039389,54,285,582,6112
1644180663.409883,-0.008057,0.009888,-0.992004,0.022382,0.478168,-0.25313,57,282,579,6112
1644180663.460168,-0.01001,0.007812,-0.992249,0.35826,0.539237,-0.130992,52,294,586,6064
1644180663.510637,-0.010071,0.011963,-0.992126,0.113985,0.356031,-0.024122,47,268,579,6128
1644180663.555648,-0.006958,0.010864,-0.992249,0.297191,0.24916,-0.054656,49,270,586,6128
1644180663.6517,-0.01062,0.012817,-0.992065,0.052916,0.508702,-0.039389,51,279,576,6160
1644180663.700104,-0.013672,0.012939,-0.990662,0.159786,0.356031,0.036947,49,275,586,6128
1644180663.748516,-0.007996,0.008606,-0.992004,0.327725,0.432366,0.006412,55,276,583,6080
1644180663.796864,-0.008179,0.012146,-0.994629,0.190321,0.325496,-0.14626,46,281,583,6080
1644180663.845313,-0.006653,0.008789,-0.993347,0.190321,0.432366,-0.024122,55,279,583,6112
1644180663.893725,-0.005859,0.011536,-0.993286,0.297191,0.386565,-0.085191,53,293,578,6048
1644180663.942153,-0.012024,0.012268,-0.993408,0.190321,0.24916,-0.207328,52,275,582,6112
1644180663.990477,-0.010376,0.008972,-0.993591,0.251389,0.401832,0.067481,45,268,589,6128
1644180664.038898,-0.011841,0.007874,-0.995911,0.434595,0.401832,-0.085191,58,276,585,6080
1644180664.095356,-0.011414,0.009827,-0.991272,0.266656,0.340763,-0.14626,53,274,583,6112
1644180664.135633,-0.006653,0.011169,-0.991455,0.46513,0.585038,0.036947,48,281,585,6128
1644180664.184032,-0.009521,0.007019,-0.989319,0.281924,0.462901,-0.115725,55,276,585,6176
1644180664.232442,-0.007385,0.013062,-0.992554,0.281924,0.432366,-0.085191,42,282,586,6160
1644180664.280783,-0.006897,0.007629,-0.992249,0.175053,0.401832,-0.069924,54,268,584,6160
1644180664.3334,-0.006226,0.012085,-0.992065,0.236122,0.356031,-0.268397,43,293,580,6128
1644180664.377658,-0.007568,0.011841,-0.99292,0.113985,0.569771,-0.115725,51,274,578,6176
1644180664.42809,-0.008789,0.009766,-0.993408,0.281924,0.447634,-0.085191,54,275,582,6112
1644180664.47864,-0.005676,0.010925,-0.989258,0.297191,0.539237,-0.039389,49,280,589,6160
1644180664.52331,-0.006775,0.009644,-0.991638,0.281924,0.462901,-0.069924,43,274,590,6080
1644180664.619552,-0.008057,0.010681,-0.988342,0.236122,0.401832,-0.130992,54,268,577,6112
1644180664.66794,-0.010376,0.007568,-0.992065,0.175053,0.554504,-0.130992,55,271,580,6112
1644180664.716324,-0.009766,0.008301,-0.990967,0.281924,0.478168,-0.039389,57,270,579,6192
1644180664.764856,-0.010376,0.012512,-0.991272,0.251389,0.264427,-0.085191,47,275,577,6112
1644180664.813154,-0.006531,0.010925,-0.993103,0.236122,0.371298,-0.069924,39,276,578,6128
1644180664.86158,-0.00708,0.011475,-0.988037,0.098718,0.462901,-0.130992,46,271,580,6128
1644180664.909961,-0.009094,0.010559,-0.990479,0.068183,0.417099,-0.115725,57,270,575,6128
1644180664.958365,-0.007629,0.00824,-0.991272,0.281924,0.493435,0.067481,53,271,580,6080
1644180665.006747,-0.010925,0.011841,-0.991272,0.129252,0.325496,-0.161527,47,285,579,6160
1644180665.06012,-0.010254,0.008423,-0.993225,0.190321,0.340763,0.006412,48,271,587,6128
1644180665.10357,-0.007507,0.009338,-0.992432,0.144519,0.493435,-0.054656,54,280,598,6080
1644180665.151888,-0.008972,0.010742,-0.991821,0.327725,0.340763,-0.14626,59,287,575,6080
1644180665.200274,-0.003723,0.014343,-0.992432,0.251389,0.386565,-0.085191,52,273,589,6160
1644180665.248665,-0.014465,0.011047,-0.988708,0.266656,0.417099,0.021679,54,270,593,6112
1644180665.297053,-0.003479,0.008301,-0.991699,0.022382,0.218626,-0.176794,46,271,578,6112
1644180665.345449,-0.010376,0.012878,-0.990173,0.342992,0.508702,-0.237863,49,290,586,6112
1644180665.393846,-0.007324,0.009094,-0.993347,0.205588,0.432366,-0.069924,52,268,586,6048
1644180665.44227,-0.012329,0.012695,-0.993591,0.098718,0.279695,-0.039389,49,273,577,6112
1644180665.490635,-0.005066,0.00769,-0.992493,0.068183,0.462901,-0.176794,53,279,580,6080
1644180665.539054,-0.007446,0.009033,-0.990784,0.35826,0.417099,-0.130992,49,282,584,6080
1644180665.589169,-0.009277,0.013428,-0.989197,0.144519,0.371298,-0.039389,55,271,580,6192
1644180665.639551,-0.003357,0.008911,-0.992554,0.266656,0.401832,-0.054656,45,275,586,6080
1644180665.684476,-0.005615,0.009399,-0.992615,0.35826,0.478168,0.021679,47,280,579,6160
1644180665.780979,-0.012329,0.009583,-0.988953,0.205588,0.478168,-0.192061,53,283,580,6192
1644180665.829373,-0.008423,0.010437,-0.989197,0.205588,0.493435,-0.100458,51,276,587,6112
1644180665.877869,-0.008545,0.011597,-0.990906,0.220855,0.432366,0.021679,45,265,572,6128
1644180665.926207,-0.007202,0.008484,-0.991882,0.35826,0.294962,0.067481,52,265,586,6112
1644180665.974655,-0.012756,0.01001,-0.991333,0.236122,0.401832,-0.115725,47,275,584,6128
1644180666.023012,-0.00824,0.00885,-0.989746,0.205588,0.310229,-0.176794,53,279,578,6080
1644180666.073535,-0.010986,0.010864,-0.990295,0.205588,0.508702,0.021679,43,281,592,6128
1644180666.119781,-0.007385,0.007812,-0.992432,0.236122,0.493435,-0.222595,51,274,583,6112
1644180666.168129,-0.00885,0.009277,-0.991089,0.373527,0.157557,-0.054656,46,271,583,6128
1644180666.216515,-0.009705,0.008545,-0.994202,0.220855,0.279695,-0.024122,51,276,583,6080
1644180666.264917,-0.009094,0.00824,-0.992859,0.281924,0.508702,0.006412,61,280,584,6128
1644180666.313318,-0.009399,0.013062,-0.993347,0.251389,0.401832,-0.069924,47,263,586,6048
1644180666.361699,-0.01123,0.008545,-0.993713,0.281924,0.539237,0.036947,45,270,586,6112
1644180666.410097,-0.0047,0.007324,-0.989319,0.159786,0.462901,-0.237863,43,291,587,6112
1644180666.458484,-0.006104,0.01123,-0.989624,0.175053,0.294962,-0.25313,51,276,587,6160
1644180666.506854,-0.007996,0.009155,-0.993225,0.113985,0.432366,-0.237863,47,277,593,6160
1644180666.555364,-0.011475,0.007141,-0.992859,0.08345,0.417099,-0.25313,48,281,587,6112
1644180666.603655,-0.008667,0.01001,-0.994202,0.312458,0.493435,-0.069924,58,276,590,6160
1644180666.652066,-0.005127,0.007019,-0.992432,0.251389,0.401832,-0.115725,52,270,591,6080
1644180666.700601,-0.010254,0.011658,-0.987854,0.190321,0.325496,-0.085191,52,282,579,6128
1644180666.751294,-0.010193,0.010315,-0.990723,0.327725,0.432366,-0.207328,40,275,579,6112
1644180666.801459,-0.007996,0.009827,-0.993347,0.281924,0.447634,-0.069924,52,275,586,6128
1644180666.847184,-0.007568,0.011536,-0.992004,0.159786,0.569771,-0.130992,53,279,583,6128
1644180666.942469,-0.010864,0.011597,-0.990906,0.297191,0.386565,-0.237863,42,285,589,6064
1644180666.99084,-0.008728,0.011841,-0.991455,0.266656,0.356031,-0.176794,46,274,580,6192
1644180667.039227,-0.010803,0.009644,-0.991943,0.144519,0.356031,-0.207328,60,281,590,6080
1644180667.087665,-0.007507,0.009705,-0.992065,0.236122,0.432366,-0.161527,46,271,585,6160
1644180667.13601,-0.006165,0.010742,-0.990417,0.175053,0.493435,-0.192061,41,279,583,6112
1644180667.184371,-0.007141,0.00946,-0.992554,0.220855,0.279695,-0.008855,46,279,576,6112
1644180667.232768,-0.008362,0.008423,-0.992126,0.113985,0.386565,-0.085191,59,273,582,6128
1644180667.28114,-0.010742,0.012207,-0.991272,0.35826,0.356031,0.052214,42,277,579,6016
