epoch,acc_x,acc_y,acc_z,rot_x,rot_y,rot_z,mag_x,mag_y,mag_z,temp
1644177900.02039,-0.012329,0.009705,-0.991394,0.175053,0.401832,-0.100458,46,274,592,5952
1644177900.093587,-0.007385,0.01062,-0.991028,0.220855,0.340763,-0.100458,57,268,591,5952
1644177900.119104,-0.009094,0.010742,-0.991394,0.113985,0.386565,-0.115725,34,274,590,6048
1644177900.169528,-0.01062,0.006592,-0.992065,0.312458,0.432366,-0.192061,58,281,590,5952
1644177900.214237,-0.009644,0.011475,-0.993164,0.35826,0.386565,0.021679,51,269,580,5952
1644177900.310682,-0.008728,0.010925,-0.99115,0.190321,0.279695,-0.085191,45,277,582,5984
1644177900.359091,-0.01001,0.008423,-0.991943,0.113985,0.569771,-0.008855,52,268,582,5952
1644177900.407473,-0.009277,0.008606,-0.993286,0.190321,0.447634,-0.100458,47,275,575,5952
1644177900.45586,-0.010681,0.010132,-0.990356,0.266656,0.340763,0.143817,53,281,573,5952
1644177900.50425,-0.011597,0.00824,-0.992981,0.281924,0.310229,-0.024122,54,287,584,5952
1644177900.552668,-0.010071,0.008972,-0.990723,0.205588,0.447634,0.082748,53,269,583,5936
1644177900.601054,-0.007263,0.010254,-0.994202,0.205588,0.447634,-0.039389,43,269,573,5936
1644177900.64944,-0.012451,0.009399,-0.992493,0.35826,0.493435,-0.069924,45,280,577,5984
1644177900.697834,-0.010681,0.00946,-0.992432,0.159786,0.539237,-0.100458,47,275,586,5936
1644177900.74619,-0.010803,0.007507,-0.992188,0.144519,0.539237,-0.115725,53,276,578,5904
1644177900.794701,-0.009338,0.007874,-0.994202,0.175053,0.356031,0.052214,54,280,586,5984
1644177900.843061,-0.010925,0.007874,-0.992065,0.312458,0.432366,-0.207328,54,285,575,5936
1644177900.8914,-0.010925,0.007812,-0.993103,0.373527,0.417099,-0.14626,36,286,587,5936
1644177900.939831,-0.009583,0.006653,-0.994202,0.236122,0.340763,-0.085191,53,274,594,5872
1644177900.988219,-0.008545,0.008484,-0.992493,0.327725,0.508702,-0.039389,42,285,579,6016
1644177901.03661,-0.008301,0.010681,-0.99292,0.129252,0.371298,-0.100458,51,281,594,5952
1644177901.087352,-0.011841,0.007324,-0.991394,0.297191,0.462901,-0.039389,52,275,582,5952
1644177901.133372,-0.013,0.008667,-0.991577,0.052916,0.264427,-0.100458,52,277,572,5904
1644177901.181779,-0.008667,0.008667,-0.991638,0.144519,0.386565,-0.085191,51,269,590,6016
1644177901.232221,-0.007629,0.011536,-0.991516,0.281924,0.218626,-0.039389,43,279,585,5904
1644177901.282414,-0.010864,0.010315,-0.993774,0.052916,0.462901,-0.130992,46,276,583,5952
1644177901.327554,-0.008179,0.009399,-0.992432,0.251389,0.447634,-0.14626,48,274,580,5936
1644177901.423723,-0.012512,0.009094,-0.99231,0.312458,0.24916,-0.130992,46,283,583,5936
1644177901.472353,-0.005859,0.008545,-0.99231,0.251389,0.478168,-0.100458,40,280,568,5984
1644177901.520462,-0.010742,0.006897,-0.991089,0.297191,0.386565,-0.039389,61,270,579,5952
1644177901.568873,-0.008118,0.006714,-0.992493,0.220855,0.508702,0.006412,53,279,597,5952
1644177901.617283,-0.009949,0.011414,-0.991699,0.052916,0.432366,-0.069924,51,279,590,5952
1644177901.665642,-0.01123,0.007141,-0.989624,0.022382,0.233893,-0.024122,51,271,573,5888
1644177901.714056,-0.009827,0.010315,-0.99176,0.266656,0.310229,-0.039389,53,269,585,5936
1644177901.762429,-0.011902,0.009033,-0.990723,0.190321,0.432366,-0.085191,49,275,575,6048
1644177901.810838,-0.012207,0.009644,-0.993591,0.327725,0.310229,-0.207328,41,274,576,5904
1644177901.859274,-0.00824,0.007263,-0.991089,0.205588,0.447634,-0.069924,41,281,583,5888
1644177901.907638,-0.006287,0.013123,-0.992004,0.159786,0.462901,0.052214,49,275,582,5952
1644177901.956053,-0.009583,0.011719,-0.989441,0.144519,0.371298,-0.130992,45,280,584,5936
1644177902.004434,-0.007629,0.007385,-0.992249,0.113985,0.371298,-0.115725,53,276,583,5952
1644177902.068406,-0.01062,0.007141,-0.99115,0.190321,0.432366,-0.085191,51,283,587,5952
1644177902.101248,-0.010132,0.009949,-0.994812,0.327725,0.325496,-0.039389,45,280,584,5936
1644177902.149547,-0.010254,0.010254,-0.991821,0.205588,0.569771,-0.054656,58,279,580,5984
1644177902.197968,-0.008301,0.008728,-0.990173,0.098718,0.417099,-0.024122,40,273,593,5936
1644177902.246367,-0.010254,0.007812,-0.992981,0.373527,0.523969,-0.130992,43,271,587,5952
1644177902.294762,-0.00824,0.008301,-0.991089,0.236122,0.294962,-0.100458,35,268,584,5936
1644177902.343549,-0.011414,0.009338,-0.992859,0.205588,0.386565,-0.161527,42,273,584,5952
1644177902.394048,-0.009338,0.008362,-0.991516,0.159786,0.462901,-0.14626,43,274,592,5952
1644177902.443923,-0.00824,0.010864,-0.992249,0.205588,0.417099,-0.085191,39,269,583,5984
1644177902.489339,-0.007996,0.01239,-0.990295,0.113985,0.233893,-0.085191,42,277,591,5984
1644177902.585351,-0.008057,0.007629,-0.990601,0.205588,0.340763,-0.176794,57,287,579,5904
1644177902.633507,-0.008301,0.008118,-0.994263,0.190321,0.371298,-0.25313,47,277,575,6000
1644177902.681891,-0.008789,0.008911,-0.991394,0.144519,0.356031,-0.161527,46,286,580,5904
1644177902.730272,-0.010315,0.010315,-0.990173,0.266656,0.523969,-0.039389,47,275,584,5936
1644177902.77865,-0.009033,0.009888,-0.991211,0.251389,0.462901,-0.008855,46,279,585,5888
1644177902.827054,-0.008179,0.008301,-0.993042,0.144519,0.508702,0.006412,45,275,570,5904
1644177902.875497,-0.007019,0.010254,-0.993652,0.220855,0.325496,-0.100458,49,285,582,6000
1644177902.9239,-0.009399,0.007141,-0.994263,0.266656,0.340763,0.006412,55,264,592,5984
1644177902.972294,-0.00885,0.009705,-0.994263,0.297191,0.310229,-0.024122,45,282,586,5904
1644177903.020669,-0.007935,0.007935,-0.99231,0.251389,0.432366,-0.192061,42,275,589,5936
1644177903.074867,-0.010315,0.007385,-0.991028,0.159786,0.417099,-0.069924,46,279,587,6000
1644177903.117479,-0.012024,0.007874,-0.992737,0.297191,0.386565,-0.222595,38,275,582,5904
1644177903.165808,-0.010193,0.008728,-0.991943,0.297191,0.508702,-0.100458,48,271,583,6000
1644177903.214201,-0.009277,0.008301,-0.990723,0.190321,0.401832,-0.130992,54,277,582,5904
1644177903.262585,-0.010193,0.007874,-0.993958,0.297191,0.417099,-0.054656,58,281,585,5952
1644177903.310981,-0.009521,0.009399,-0.990662,0.281924,0.432366,-0.14626,53,274,585,5904
1644177903.359372,-0.008728,0.008789,-0.991455,0.08345,0.523969,0.006412,48,274,583,5936
1644177903.407779,-0.013184,0.008179,-0.991028,0.236122,0.447634,0.052214,49,275,572,5904
1644177903.456159,-0.010681,0.010254,-0.992676,0.220855,0.356031,-0.085191,45,280,584,5904
1644177903.504943,-0.010193,0.008118,-0.99231,0.281924,0.356031,0.021679,61,275,584,5984
1644177903.555021,-0.010742,0.006775,-0.990112,0.297191,0.279695,-0.115725,48,276,576,5984
1644177903.605273,-0.007629,0.007385,-0.994141,0.220855,0.203359,-0.192061,48,266,587,5984
1644177903.650372,-0.01001,0.009583,-0.991699,0.281924,0.432366,-0.268397,51,274,590,6016
1644177903.746491,-0.010254,0.009033,-0.992249,0.068183,0.508702,-0.100458,51,276,583,5952
1644177903.794909,-0.011658,0.009399,-0.993347,-0.008153,0.432366,-0.100458,48,281,585,6000
1644177903.8433,-0.009705,0.009338,-0.989868,0.190321,0.432366,-0.25313,53,276,576,5936
1644177903.891742,-0.008667,0.011414,-0.993164,0.129252,0.462901,-0.054656,59,265,589,5952
1644177903.940119,-0.010803,0.010742,-0.99353,0.220855,0.478168,-0.069924,51,279,576,5984
1644177903.988511,-0.010071,0.007874,-0.991394,0.266656,0.371298,0.006412,57,280,584,5952
1644177904.036874,-0.011475,0.007141,-0.993408,0.022382,0.340763,-0.176794,54,273,579,5872
1644177904.085432,-0.006958,0.009827,-0.992126,0.159786,0.340763,-0.085191,57,282,582,5984
1644177904.133705,-0.008667,0.006653,-0.991089,0.297191,0.447634,-0.222595,53,279,585,5952
1644177904.182024,-0.007568,0.009338,-0.99115,0.297191,0.401832,-0.14626,57,282,591,5936
1644177904.230421,-0.011536,0.008057,-0.996582,0.113985,0.401832,0.067481,49,275,584,5984
1644177904.278814,-0.00946,0.011292,-0.991699,0.159786,0.294962,-0.161527,51,274,578,5904
1644177904.327213,-0.008301,0.008911,-0.993774,0.08345,0.523969,-0.008855,48,271,578,5984
1644177904.375605,-0.011902,0.008728,-0.99292,0.327725,0.264427,-0.115725,53,283,585,5952
1644177904.42401,-0.008301,0.007629,-0.993225,0.281924,0.401832,-0.085191,57,273,582,5984
1644177904.473333,-0.009827,0.01123,-0.99176,0.220855,0.432366,-0.024122,55,283,578,5904
1644177904.523875,-0.010803,0.008301,-0.993835,0.251389,0.340763,0.052214,54,270,584,5952
1644177904.573959,-0.011414,0.009888,-0.990356,0.327725,0.401832,-0.161527,49,265,584,5904
1644177904.665977,-0.006653,0.010315,-0.990479,0.129252,0.478168,-0.115725,38,273,579,5936
1644177904.714362,-0.011169,0.011169,-0.991821,0.327725,0.310229,-0.100458,54,273,589,5952
1644177904.76273,-0.01062,0.009399,-0.992004,0.220855,0.417099,-0.344733,67,271,578,5904
1644177904.811124,-0.010681,0.01001,-0.991394,0.266656,0.340763,-0.283664,46,274,578,5952
1644177904.859516,-0.008484,0.007874,-0.993958,0.129252,0.462901,0.036947,59,282,582,5936
1644177904.907949,-0.009216,0.010193,-0.992676,0.251389,0.294962,-0.100458,47,275,579,5984
1644177904.956356,-0.009399,0.009949,-0.99585,0.388794,0.371298,-0.161527,45,265,575,5936
1644177905.004727,-0.010071,0.011169,-0.99176,0.190321,0.371298,-0.176794,49,273,589,5888
1644177905.066015,-0.010132,0.007812,-0.992859,0.35826,0.340763,-0.085191,52,270,584,6000
1644177905.104035,-0.007507,0.008484,-0.991577,0.312458,0.24916,-0.268397,46,279,587,5952
1644177905.1499,-0.010925,0.008972,-0.991882,0.205588,0.417099,-0.130992,42,282,582,5904
1644177905.198317,-0.011536,0.007751,-0.992615,0.266656,0.478168,-0.054656,62,276,583,5872
1644177905.246697,-0.008545,0.011719,-0.99292,0.098718,0.203359,-0.024122,46,271,587,6000
1644177905.295238,-0.00946,0.010559,-0.99115,-0.02342,0.356031,-0.100458,48,266,580,5952
1644177905.343483,-0.01123,0.007019,-0.991516,0.266656,0.294962,0.159084,47,275,579,5936
1644177905.391873,-0.00946,0.009399,-0.993958,0.297191,0.356031,-0.130992,51,279,576,5904
1644177905.440857,-0.008423,0.010986,-0.99231,0.205588,0.417099,-0.039389,47,280,577,5952
1644177905.488659,-0.011536,0.008301,-0.994019,0.220855,0.417099,-0.024122,51,274,585,5936
1644177905.538235,-0.009399,0.008362,-0.99231,0.236122,0.279695,-0.085191,46,271,585,6048
1644177905.588729,-0.007751,0.009827,-0.993408,0.205588,0.340763,-0.054656,48,269,580,5904
1644177905.639018,-0.009399,0.009155,-0.988708,0.098718,0.356031,-0.069924,47,277,584,5904
1644177905.683404,-0.009338,0.009033,-0.994934,0.236122,0.386565,-0.085191,49,268,582,5888
1644177905.778999,-0.011475,0.008789,-0.990845,0.327725,0.523969,-0.14626,45,273,579,5952
1644177905.827392,-0.011414,0.006897,-0.990356,0.190321,0.401832,-0.344733,41,274,583,5984
1644177905.875776,-0.008057,0.010254,-0.991638,0.266656,0.417099,-0.115725,45,277,586,5984
1644177905.924181,-0.01123,0.00769,-0.991577,0.175053,0.325496,-0.130992,48,281,587,5984
1644177905.972595,-0.011475,0.009888,-0.994324,0.098718,0.386565,-0.069924,48,283,571,6000
1644177906.020975,-0.011292,0.009216,-0.993408,0.113985,0.447634,-0.192061,55,276,587,5952
1644177906.070582,-0.008118,0.010376,-0.993958,0.022382,0.371298,-0.222595,38,280,591,5936
1644177906.11771,-0.009888,0.009827,-0.993469,0.236122,0.478168,-0.100458,51,281,583,5936
1644177906.166102,-0.009644,0.009888,-0.990295,0.159786,0.294962,-0.207328,54,277,584,5952
1644177906.214504,-0.008423,0.005493,-0.989929,0.205588,0.401832,-0.192061,46,283,583,5984
1644177906.262881,-0.008057,0.009766,-0.990234,0.297191,0.401832,-0.008855,47,273,579,5952
1644177906.311291,-0.008911,0.01062,-0.991028,0.175053,0.386565,-0.115725,54,270,589,5872
1644177906.359654,-0.011597,0.008667,-0.992554,0.297191,0.203359,-0.024122,55,271,583,5904
1644177906.408067,-0.007141,0.007568,-0.991455,0.220855,0.264427,-0.130992,64,273,582,5984
1644177906.456453,-0.012024,0.008606,-0.991699,0.297191,0.356031,-0.161527,60,276,587,5984
1644177906.504834,-0.010132,0.011902,-0.991089,0.190321,0.371298,0.12855,47,273,582,5952
1644177906.553223,-0.007935,0.010925,-0.990479,0.281924,0.356031,-0.207328,55,281,578,5952
1644177906.60162,-0.010437,0.010132,-0.992126,0.144519,0.432366,-0.054656,48,276,590,5888
1644177906.650016,-0.007568,0.007324,-0.992676,0.236122,0.417099,-0.176794,51,276,599,5904
1644177906.698607,-0.008057,0.010376,-0.990051,0.251389,0.340763,-0.283664,59,277,577,5904
1644177906.749142,-0.010254,0.010193,-0.993164,0.175053,0.447634,-0.161527,46,274,592,5952
1644177906.800597,-0.010376,0.009705,-0.989868,0.129252,0.386565,-0.100458,53,276,590,5984
1644177906.844762,-0.009277,0.009277,-0.993591,0.205588,0.447634,-0.039389,57,277,572,5936
1644177906.940418,-0.011169,0.011353,-0.992065,0.113985,0.24916,-0.237863,45,275,582,5936
1644177906.988796,-0.010742,0.009521,-0.99292,0.251389,0.493435,0.174351,47,270,584,5904
1644177907.037183,-0.00647,0.006592,-0.993591,0.220855,0.356031,-0.039389,52,277,579,5936
1644177907.085735,-0.009705,0.007507,-0.992432,0.159786,0.401832,-0.100458,49,275,593,5904
1644177907.133944,-0.008179,0.011536,-0.993469,0.373527,0.386565,-0.100458,45,277,584,5872
1644177907.182319,-0.008972,0.009644,-0.99353,0.159786,0.356031,0.021679,52,273,575,5952
1644177907.230729,-0.007507,0.010254,-0.99231,0.342992,0.294962,-0.176794,52,270,579,5904
1644177907.279112,-0.009277,0.012573,-0.992493,0.281924,0.417099,-0.085191,54,275,579,5904
1644177907.327516,-0.00885,0.00885,-0.992798,0.129252,0.294962,-0.192061,45,282,575,5840
1644177907.375911,-0.011475,0.010742,-0.992615,0.404061,0.462901,0.052214,41,276,573,5936
1644177907.424311,-0.007751,0.007263,-0.990906,0.190321,0.371298,-0.192061,52,285,584,5904
1644177907.472699,-0.006653,0.008972,-0.993835,0.388794,0.432366,-0.14626,46,276,583,5904
1644177907.52108,-0.012878,0.007263,-0.993896,0.159786,0.340763,-0.115725,54,280,586,5952
1644177907.569461,-0.009155,0.008911,-0.991577,0.236122,0.478168,-0.207328,55,283,585,6016
1644177907.617865,-0.009033,0.011536,-0.990479,0.159786,0.386565,-0.130992,55,288,576,5872
1644177907.66625,-0.007568,0.006348,-0.99115,0.266656,0.447634,-0.25313,57,277,584,5952
1644177907.714657,-0.008545,0.010803,-0.99115,0.205588,0.218626,-0.085191,40,273,577,5936
1644177907.763044,-0.010803,0.009583,-0.990479,0.052916,0.432366,-0.039389,58,274,590,5840
1644177907.811441,-0.008118,0.005615,-0.98822,0.205588,0.310229,-0.085191,42,275,579,5888
1644177907.860807,-0.007812,0.012329,-0.992432,0.297191,0.325496,-0.115725,55,281,585,5888
1644177907.911179,-0.009277,0.010193,-0.993103,0.373527,0.371298,0.067481,40,280,577,5888
1644177907.961391,-0.00647,0.010437,-0.992371,0.35826,0.371298,0.021679,51,276,576,5984
1644177908.067175,-0.010803,0.010742,-0.991699,0.205588,0.508702,-0.14626,53,279,583,5984
1644177908.102584,-0.009705,0.008911,-0.990173,0.35826,0.585038,0.036947,36,279,585,6000
1644177908.150139,-0.008179,0.010315,-0.991577,0.297191,0.340763,-0.192061,42,280,577,5936
1644177908.198557,-0.00885,0.005798,-0.994141,0.251389,0.432366,-0.100458,53,291,585,5952
1644177908.246922,-0.007751,0.010986,-0.992737,0.129252,0.356031,-0.176794,49,273,582,5904
1644177908.29534,-0.010376,0.00824,-0.993713,0.129252,0.478168,0.006412,49,275,577,6000
1644177908.343746,-0.007507,0.010498,-0.99176,0.205588,0.447634,-0.008855,58,281,580,6000
1644177908.392246,-0.009338,0.009766,-0.991699,0.236122,0.432366,-0.039389,45,275,582,5984
1644177908.440516,-0.007629,0.009277,-0.990784,0.037649,0.447634,-0.054656,54,270,586,6000
1644177908.489269,-0.01001,0.010498,-0.993896,0.342992,0.508702,-0.085191,48,279,590,5984
1644177908.537293,-0.007996,0.009827,-0.993347,0.35826,0.539237,-0.130992,51,288,587,5936
1644177908.585684,-0.009155,0.009033,-0.994446,0.220855,0.218626,-0.039389,48,274,585,5952
1644177908.634454,-0.008362,0.010437,-0.990417,0.251389,0.417099,-0.085191,46,276,580,5952
1644177908.684686,-0.007263,0.012817,-0.990051,0.205588,0.356031,-0.008855,45,273,582,5936
1644177908.735006,-0.011169,0.009277,-0.990662,0.220855,0.478168,-0.25313,54,265,579,5984
1644177908.780022,-0.008911,0.010925,-0.991821,0.35826,0.417099,-0.115725,49,268,586,5904
1644177908.876064,-0.008362,0.011108,-0.993408,0.144519,0.401832,-0.054656,46,281,569,5936
1644177908.924484,-0.009521,0.010742,-0.990295,0.251389,0.325496,-0.054656,48,274,571,5840
1644177908.972856,-0.008545,0.00824,-0.991516,0.068183,0.447634,0.006412,46,271,580,5952
1644177909.021244,-0.00946,0.007935,-0.99231,0.175053,0.432366,-0.192061,47,282,586,5984
1644177909.069725,-0.010376,0.010315,-0.993835,0.236122,0.401832,-0.115725,51,281,592,5936
1644177909.118047,-0.008545,0.008179,-0.992737,0.129252,0.356031,-0.039389,55,279,576,5984
1644177909.166396,-0.009644,0.010315,-0.992554,0.266656,0.554504,-0.115725,49,280,579,5984
1644177909.214788,-0.010071,0.011414,-0.993591,0.113985,0.325496,-0.222595,57,265,586,5984
1644177909.263187,-0.00592,0.01178,-0.991272,0.068183,0.386565,-0.100458,54,275,577,5984
1644177909.311579,-0.010803,0.007385,-0.990417,0.281924,0.554504,-0.054656,41,276,576,6016
1644177909.360138,-0.009216,0.009949,-0.991943,0.220855,0.386565,-0.069924,45,282,589,5872
1644177909.408328,-0.00885,0.009399,-0.991211,0.190321,0.386565,-0.085191,51,276,583,5888
1644177909.456745,-0.008545,0.008484,-0.991577,0.266656,0.371298,-0.039389,43,266,583,5984
1644177909.50521,-0.009644,0.008057,-0.991577,0.251389,0.493435,-0.25313,53,283,573,5984
1644177909.553509,-0.010437,0.009949,-0.990417,0.342992,0.356031,-0.069924,55,286,578,5952
1644177909.601925,-0.009521,0.006531,-0.991943,0.205588,0.356031,0.036947,49,275,577,5984
1644177909.650315,-0.00885,0.012024,-0.991394,0.312458,0.371298,-0.192061,51,274,590,5904
1644177909.698677,-0.007568,0.010132,-0.988892,0.098718,0.432366,-0.085191,47,277,584,5904
1644177909.747077,-0.007874,0.010925,-0.991211,0.159786,0.447634,-0.176794,46,276,585,5952
1644177909.795506,-0.008362,0.007629,-0.991089,0.236122,0.371298,-0.176794,48,271,578,5936
1644177909.846067,-0.010498,0.012634,-0.991516,0.297191,0.462901,0.12855,49,277,579,6000
1644177909.897032,-0.009277,0.008911,-0.993958,0.129252,0.432366,-0.192061,48,276,583,5984
1644177909.941609,-0.012268,0.00708,-0.991394,0.266656,0.478168,-0.085191,45,277,577,5888
1644177910.037476,-0.008545,0.009338,-0.99292,0.236122,0.340763,-0.039389,55,271,583,6048
1644177910.085949,-0.010803,0.009705,-0.991638,0.236122,0.462901,-0.115725,53,281,583,5952
1644177910.134279,-0.011169,0.009399,-0.990295,0.205588,0.371298,-0.039389,57,282,584,5936
1644177910.182629,-0.009583,0.008301,-0.991394,0.297191,0.356031,-0.115725,51,274,569,6000
1644177910.231015,-0.009338,0.00946,-0.993713,0.113985,0.279695,-0.161527,54,270,584,6048
1644177910.279381,-0.008789,0.008728,-0.995361,0.251389,0.478168,-0.14626,48,279,580,6000
1644177910.327803,-0.007996,0.008911,-0.990417,0.220855,0.478168,0.021679,47,287,591,5952
1644177910.376188,-0.009338,0.009155,-0.991211,0.098718,0.447634,-0.25313,47,265,579,5888
1644177910.424621,-0.008728,0.00946,-0.993164,0.297191,0.371298,-0.176794,48,279,587,5936
1644177910.472965,-0.009644,0.007751,-0.992554,0.205588,0.478168,-0.222595,46,283,576,5952
1644177910.521352,-0.008362,0.010315,-0.991272,0.205588,0.478168,-0.085191,49,270,586,5904
1644177910.569753,-0.008301,0.01001,-0.993347,0.251389,0.478168,0.021679,52,275,593,5952
1644177910.618141,-0.010437,0.011475,-0.994446,0.236122,0.279695,-0.130992,42,277,584,6000
1644177910.66653,-0.00824,0.01001,-0.990967,0.205588,0.310229,-0.069924,55,269,590,5904
1644177910.714917,-0.010986,0.008423,-0.98938,0.281924,0.294962,-0.115725,48,276,585,6000
1644177910.763325,-0.007263,0.008728,-0.99231,0.312458,0.523969,-0.25313,42,285,577,5904
1644177910.811687,-0.005554,0.010864,-0.991211,0.312458,0.417099,-0.115725,57,280,586,5936
1644177910.860152,-0.008789,0.010681,-0.995117,0.236122,0.371298,-0.130992,54,270,589,5984
1644177910.90856,-0.010071,0.006165,-0.992188,0.266656,0.554504,-0.14626,49,280,586,6000
1644177910.95808,-0.008362,0.009094,-0.994873,0.297191,0.417099,-0.283664,40,268,593,5872
1644177911.066372,-0.010498,0.006409,-0.990723,0.312458,0.371298,-0.085191,46,271,585,5984
1644177911.103654,-0.008667,0.009094,-0.990723,0.297191,0.417099,-0.100458,46,276,604,5936
1644177911.150501,-0.009155,0.009888,-0.992493,0.266656,0.432366,-0.130992,57,265,586,5984
1644177911.198849,-0.009949,0.012024,-0.990356,0.175053,0.294962,-0.14626,52,270,579,5904
1644177911.247225,-0.008972,0.007874,-0.992676,0.251389,0.401832,-0.039389,38,280,579,5904
1644177911.29564,-0.01062,0.008667,-0.992554,0.220855,0.462901,-0.085191,55,269,585,6016
1644177911.344049,-0.010437,0.009827,-0.989807,0.327725,0.371298,-0.054656,41,281,583,5952
1644177911.392402,-0.010498,0.010315,-0.989075,0.312458,0.310229,-0.024122,67,269,578,5904
1644177911.44081,-0.007568,0.011108,-0.991638,0.113985,0.294962,-0.130992,52,285,589,5936
1644177911.489323,-0.010132,0.009949,-0.993103,0.175053,0.386565,-0.039389,57,277,575,5936
1644177911.537594,-0.007812,0.008606,-0.993652,0.144519,0.371298,-0.100458,52,280,584,5904
1644177911.585978,-0.008362,0.008484,-0.992004,0.251389,0.447634,-0.115725,51,281,590,5904
1644177911.634701,-0.009888,0.007202,-0.99115,0.220855,0.325496,-0.069924,58,274,587,5952
1644177911.683691,-0.01123,0.011658,-0.992798,0.190321,0.478168,-0.161527,60,274,592,5888
1644177911.734101,-0.00647,0.009888,-0.993408,0.251389,0.386565,-0.039389,45,285,577,5936
1644177911.784158,-0.007751,0.009216,-0.990601,0.129252,0.386565,-0.008855,55,271,580,5984
1644177911.829165,-0.00946,0.00946,-0.992432,0.205588,0.294962,-0.192061,47,280,584,5936
1644177911.924884,-0.00769,0.009766,-0.994568,0.175053,0.310229,-0.069924,57,280,586,5984
1644177911.97314,-0.007812,0.008362,-0.989746,0.175053,0.523969,-0.054656,46,276,583,5888
1644177912.02152,-0.008301,0.007751,-0.992798,0.190321,0.447634,-0.237863,46,274,601,5904
1644177912.069985,-0.008484,0.009399,-0.992859,0.190321,0.233893,-0.024122,48,279,583,5984
1644177912.118246,-0.010254,0.011353,-0.992676,0.175053,0.462901,-0.192061,48,276,585,5936
1644177912.166683,-0.010132,0.00824,-0.994385,0.205588,0.325496,-0.115725,43,276,580,6048
1644177912.215096,-0.012085,0.008057,-0.992676,0.281924,0.478168,-0.100458,49,273,586,6000
1644177912.263474,-0.011292,0.009949,-0.992493,0.251389,0.462901,-0.130992,51,274,578,5952
1644177912.311839,-0.010559,0.012573,-0.991028,0.388794,0.233893,-0.115725,47,277,584,5904
1644177912.360277,-0.01001,0.004883,-0.992126,0.236122,0.310229,-0.100458,46,279,580,5904
1644177912.408641,-0.009583,0.011902,-0.990723,0.159786,0.478168,-0.130992,45,277,584,5888
1644177912.457039,-0.007141,0.010071,-0.990845,0.205588,0.371298,-0.008855,43,276,585,5904
1644177912.505432,-0.008362,0.008057,-0.991333,0.236122,0.24916,-0.100458,47,273,584,5952
1644177912.55384,-0.009216,0.010132,-0.990234,0.022382,0.554504,-0.054656,48,283,585,5904
1644177912.602245,-0.007935,0.006042,-0.992615,0.129252,0.493435,-0.176794,42,277,582,5984
1644177912.650576,-0.006226,0.00708,-0.988586,0.342992,0.401832,-0.054656,53,271,590,5952
1644177912.698992,-0.007629,0.01001,-0.991699,0.175053,0.478168,-0.176794,49,280,584,5904
1644177912.747401,-0.010742,0.010498,-0.989929,0.251389,0.294962,-0.039389,47,275,596,5984
1644177912.795836,-0.009827,0.008301,-0.989319,0.190321,0.478168,-0.039389,49,275,591,5984
1644177912.84604,-0.012024,0.008179,-0.992615,0.220855,0.294962,-0.024122,47,273,589,5904
1644177912.895917,-0.009705,0.009399,-0.994019,0.175053,0.401832,-0.024122,45,277,586,5904
1644177912.946115,-0.009705,0.009888,-0.991943,0.205588,0.401832,-0.008855,41,274,587,5872
1644177912.99062,-0.010498,0.009399,-0.993164,0.144519,0.371298,-0.237863,48,283,590,5904
1644177913.08624,-0.009521,0.009827,-0.989868,0.190321,0.340763,-0.054656,48,279,585,5984
1644177913.134496,-0.012146,0.007996,-0.992615,0.037649,0.371298,-0.176794,35,280,575,5952
1644177913.182917,-0.008118,0.008545,-0.99054,0.297191,0.432366,-0.192061,43,286,585,5952
1644177913.231295,-0.007446,0.009399,-0.993958,0.068183,0.310229,-0.161527,52,282,579,6000
1644177913.27967,-0.009399,0.005371,-0.992737,-0.053954,0.279695,-0.207328,47,282,575,5952
1644177913.328082,-0.009216,0.009583,-0.992432,0.434595,0.432366,-0.069924,59,273,579,6000
1644177913.376467,-0.010742,0.010254,-0.990784,0.266656,0.264427,-0.176794,51,281,583,5984
1644177913.424864,-0.011597,0.01062,-0.99353,0.113985,0.371298,-0.130992,49,280,589,5904
1644177913.473274,-0.008362,0.005615,-0.990234,0.175053,0.447634,-0.130992,45,275,584,6000
1644177913.521696,-0.010193,0.010681,-0.989319,0.281924,0.432366,-0.008855,47,280,586,5984
1644177913.570046,-0.01239,0.012695,-0.991455,0.236122,0.523969,0.052214,51,283,583,5952
1644177913.618445,-0.009705,0.011658,-0.991394,0.297191,0.371298,-0.161527,51,283,583,5888
1644177913.666828,-0.006226,0.012634,-0.992615,0.175053,0.432366,0.036947,43,274,580,5952
1644177913.715222,-0.009277,0.007568,-0.993591,0.220855,0.447634,-0.008855,49,285,584,5952
1644177913.763611,-0.009827,0.01123,-0.991638,0.297191,0.401832,-0.14626,49,277,586,5936
1644177913.812048,-0.007629,0.009766,-0.992065,0.281924,0.569771,-0.115725,64,280,570,5952
1644177913.860432,-0.01062,0.009705,-0.991211,0.419328,0.401832,-0.085191,45,282,586,5952
1644177913.908817,-0.009521,0.009583,-0.99292,0.098718,0.462901,-0.100458,57,282,593,5984
1644177913.957231,-0.010132,0.008911,-0.992676,0.266656,0.554504,-0.039389,53,279,583,6000
1644177914.006812,-0.009827,0.008057,-0.990723,0.129252,0.279695,-0.207328,47,277,579,5904
1644177914.075051,-0.009888,0.011597,-0.992432,0.068183,0.157557,0.067481,51,274,580,5936
1644177914.111946,-0.010864,0.008484,-0.994568,0.098718,0.386565,-0.100458,47,280,584,5984
1644177914.151408,-0.012878,0.007446,-0.990845,0.113985,0.508702,0.067481,49,268,591,5872
1644177914.247505,-0.009949,0.008911,-0.98999,0.266656,0.356031,-0.192061,52,277,579,5984
1644177914.295907,-0.008972,0.008362,-0.991638,0.007115,0.371298,-0.100458,41,276,576,5952
1644177914.344307,-0.010437,0.008606,-0.989563,0.266656,0.432366,-0.14626,57,273,589,6016
1644177914.392697,-0.008911,0.006409,-0.993713,0.297191,0.569771,0.036947,39,274,585,5952
1644177914.441092,-0.008057,0.009216,-0.989624,0.281924,0.264427,-0.069924,49,268,582,5984
1644177914.489502,-0.009766,0.009277,-0.990784,0.175053,0.615573,-0.298931,53,271,585,6000
1644177914.53785,-0.010071,0.010071,-0.991272,0.037649,0.462901,-0.115725,35,285,572,6016
1644177914.58627,-0.010864,0.006653,-0.991211,0.281924,0.279695,-0.130992,42,280,577,5952
1644177914.634678,-0.010559,0.009155,-0.992981,0.342992,0.478168,-0.14626,47,282,575,6000
1644177914.683076,-0.009399,0.010071,-0.994385,0.281924,0.340763,-0.100458,46,279,585,5952
1644177914.731447,-0.01123,0.008728,-0.99231,0.220855,0.478168,-0.054656,55,279,590,6016
1644177914.779845,-0.007385,0.010742,-0.994629,0.037649,0.371298,-0.14626,49,280,586,5936
1644177914.828267,-0.010132,0.009644,-0.992371,0.205588,0.523969,-0.14626,42,273,586,5936
1644177914.87666,-0.007324,0.008179,-0.988892,0.159786,0.279695,-0.207328,43,283,578,5952
1644177914.925097,-0.008423,0.008545,-0.993774,0.281924,0.447634,-0.207328,43,279,583,5904
1644177914.973451,-0.007263,0.009705,-0.991577,0.113985,0.539237,-0.008855,51,276,590,6016
1644177915.02181,-0.013062,0.007996,-0.989441,0.281924,0.615573,0.006412,49,285,593,5936
1644177915.092952,-0.009521,0.008179,-0.99115,0.281924,0.340763,-0.115725,43,279,585,5952
1644177915.122233,-0.008972,0.008301,-0.991943,0.190321,0.432366,-0.115725,51,274,587,5952
1644177915.171625,-0.007141,0.008301,-0.99176,0.205588,0.279695,-0.192061,45,270,586,5952
1644177915.216534,-0.01001,0.010559,-0.99176,0.190321,0.310229,0.021679,53,279,576,5984
1644177915.312392,-0.009399,0.008606,-0.990173,0.144519,0.279695,-0.14626,52,290,575,5904
1644177915.360526,-0.008606,0.007507,-0.990234,0.236122,0.401832,-0.024122,40,273,589,5904
1644177915.408908,-0.006592,0.010925,-0.992859,0.281924,0.447634,-0.237863,52,270,582,5904
1644177915.457315,-0.00824,0.010742,-0.990723,0.129252,0.432366,-0.176794,47,282,577,5952
1644177915.505695,-0.008423,0.00885,-0.992188,0.144519,0.294962,-0.069924,49,280,584,6016
1644177915.554111,-0.01062,0.007263,-0.99115,0.205588,0.233893,-0.192061,43,271,580,5952
1644177915.602514,-0.010498,0.012024,-0.990967,0.220855,0.386565,-0.024122,46,271,583,5952
1644177915.650894,-0.010315,0.007874,-0.995239,0.297191,0.462901,-0.085191,53,291,583,5952
1644177915.699292,-0.008667,0.009277,-0.991028,0.236122,0.447634,-0.176794,45,285,584,5936
1644177915.747658,-0.011963,0.009521,-0.991882,0.251389,0.417099,0.067481,51,286,583,5952
1644177915.796053,-0.006958,0.007568,-0.992798,0.190321,0.432366,-0.069924,54,277,591,5984
1644177915.844512,-0.007507,0.008728,-0.991455,0.342992,0.432366,-0.176794,57,280,584,5936
1644177915.892907,-0.007141,0.009033,-0.99115,0.236122,0.508702,-0.161527,59,285,586,5840
1644177915.941282,-0.009705,0.008484,-0.990662,0.312458,0.508702,-0.100458,53,279,599,5952
1644177915.98968,-0.006348,0.009033,-0.991272,0.266656,0.386565,-0.054656,46,281,580,5952
1644177916.03806,-0.007568,0.010254,-0.989685,0.144519,0.493435,-0.069924,52,282,589,5904
1644177916.09181,-0.007996,0.009583,-0.995239,0.35826,0.279695,-0.085191,43,276,585,6000
1644177916.134834,-0.009216,0.009949,-0.991333,0.113985,0.401832,-0.100458,49,270,584,5872
1644177916.183315,-0.009521,0.010925,-0.990417,0.159786,0.386565,-0.054656,53,283,585,5888
1644177916.231655,-0.007019,0.009338,-0.991577,0.175053,0.447634,-0.008855,55,286,585,5952
1644177916.282219,-0.006104,0.011597,-0.99408,0.144519,0.279695,0.021679,59,273,584,5952
1644177916.332311,-0.008606,0.010132,-0.992432,0.327725,0.417099,-0.314198,61,277,579,5936
1644177916.3775,-0.007568,0.008484,-0.991638,0.236122,0.478168,0.021679,57,280,579,5936
1644177916.473575,-0.011169,0.00647,-0.994141,0.159786,0.447634,-0.039389,55,274,590,5984
1644177916.521947,-0.011414,0.006775,-0.993896,0.205588,0.310229,-0.115725,51,269,580,5952
1644177916.570331,-0.00769,0.010132,-0.991577,0.190321,0.493435,-0.176794,52,273,589,5952
1644177916.618725,-0.010437,0.01062,-0.991211,0.159786,0.172824,-0.115725,42,268,591,5952
1644177916.667107,-0.008606,0.009094,-0.992615,0.175053,0.356031,-0.161527,45,285,589,5952
1644177916.715504,-0.010498,0.009705,-0.991333,0.205588,0.493435,-0.14626,51,269,580,5984
1644177916.763907,-0.008057,0.011353,-0.990051,0.342992,0.294962,-0.008855,47,280,586,5888
1644177916.812299,-0.008301,0.009216,-0.993774,0.266656,0.432366,0.052214,43,281,578,5904
1644177916.860725,-0.00946,0.008972,-0.993591,0.236122,0.279695,-0.069924,52,287,582,5984
1644177916.90912,-0.012146,0.008545,-0.99353,0.388794,0.447634,-0.100458,36,276,583,5936
1644177916.957519,-0.007996,0.007385,-0.991455,0.175053,0.371298,-0.130992,46,276,576,5952
1644177917.005902,-0.007935,0.010986,-0.991516,0.052916,0.417099,-0.14626,51,286,580,5952
1644177917.067731,-0.009888,0.010559,-0.993408,0.419328,0.203359,-0.100458,40,275,586,5984
1644177917.105351,-0.009766,0.010559,-0.991394,0.236122,0.310229,0.021679,54,282,589,5888
1644177917.151038,-0.008118,0.011292,-0.991089,0.129252,0.386565,-0.100458,54,277,591,5888
1644177917.199429,-0.010254,0.00647,-0.992737,0.175053,0.462901,-0.008855,45,282,577,6000
1644177917.247815,-0.010071,0.006836,-0.993958,0.220855,0.356031,-0.14626,54,270,579,5904
1644177917.296209,-0.010559,0.007935,-0.989014,0.205588,0.432366,-0.176794,59,273,586,5984
1644177917.344645,-0.00824,0.010681,-0.993774,0.205588,0.417099,0.021679,45,270,584,5984
1644177917.393049,-0.008728,0.010498,-0.991699,0.35826,0.493435,-0.085191,51,276,592,5952
1644177917.443245,-0.00769,0.009094,-0.990784,0.297191,0.478168,-0.008855,45,270,579,5952
1644177917.494175,-0.00824,0.010193,-0.990906,0.281924,0.508702,-0.085191,48,271,569,5888
1644177917.538824,-0.010315,0.009827,-0.996643,0.205588,0.417099,-0.25313,54,280,579,5888
1644177917.635242,-0.00885,0.011597,-0.993286,0.297191,0.279695,-0.161527,53,279,587,6000
1644177917.683372,-0.010925,0.009888,-0.992188,0.312458,0.310229,0.006412,55,276,580,5952
1644177917.731725,-0.012695,0.00885,-0.991089,0.220855,0.493435,0.052214,52,277,589,6000
1644177917.780118,-0.009216,0.01062,-0.990112,0.297191,0.462901,-0.115725,55,286,580,5936
1644177917.82851,-0.011108,0.00946,-0.991699,0.220855,0.371298,-0.085191,54,273,579,5984
1644177917.87695,-0.010742,0.011414,-0.99231,0.281924,0.386565,-0.115725,48,283,576,5952
1644177917.925341,-0.009583,0.008606,-0.992981,0.205588,0.447634,-0.069924,54,273,579,5936
1644177917.973751,-0.011108,0.009094,-0.99176,0.297191,0.447634,-0.024122,51,271,583,5904
1644177918.022247,-0.010254,0.009521,-0.991943,0.220855,0.432366,-0.115725,51,266,585,5984
1644177918.074431,-0.007812,0.009399,-0.990356,0.175053,0.310229,-0.039389,59,282,579,5952
1644177918.118935,-0.007568,0.006287,-0.99292,0.281924,0.310229,0.006412,45,273,582,5936
1644177918.16727,-0.007935,0.008118,-0.994141,0.175053,0.401832,-0.115725,53,274,580,5952
1644177918.215658,-0.008911,0.006714,-0.99115,0.46513,0.294962,-0.069924,43,271,590,5952
1644177918.264034,-0.00824,0.008545,-0.992188,0.144519,0.371298,-0.130992,53,283,585,5904
1644177918.312448,-0.007751,0.009583,-0.991272,0.373527,0.340763,-0.085191,54,273,586,5952
1644177918.360804,-0.009094,0.008667,-0.991516,0.113985,0.493435,0.006412,54,280,586,5952
1644177918.409221,-0.01062,0.009033,-0.990295,0.327725,0.417099,-0.192061,53,279,580,6016
1644177918.457594,-0.009827,0.008911,-0.991516,0.113985,0.294962,-0.039389,47,282,589,5952
1644177918.506011,-0.007263,0.011902,-0.992493,0.35826,0.172824,-0.130992,47,287,586,5952
1644177918.556436,-0.009583,0.009888,-0.991211,0.159786,0.417099,-0.161527,47,277,582,6000
1644177918.605706,-0.007202,0.010864,-0.989624,0.205588,0.447634,-0.054656,48,264,583,5952
1644177918.655838,-0.010498,0.009216,-0.992065,0.220855,0.447634,-0.008855,41,271,583,5904
1644177918.7008,-0.00824,0.009216,-0.992432,0.342992,0.325496,-0.085191,54,263,584,5936
1644177918.796335,-0.00885,0.01062,-0.991516,0.175053,0.371298,-0.085191,51,274,571,5888
1644177918.844857,-0.008911,0.008118,-0.99054,0.297191,0.386565,-0.024122,52,273,572,5984
1644177918.893197,-0.009521,0.009399,-0.991699,0.373527,0.462901,-0.024122,46,271,594,5936
1644177918.941564,-0.00885,0.007996,-0.992859,0.281924,0.493435,-0.054656,49,280,584,5952
1644177918.989971,-0.010437,0.007446,-0.995117,0.281924,0.401832,-0.207328,53,266,578,5984
1644177919.038357,-0.009583,0.008545,-0.99231,0.190321,0.294962,-0.115725,38,290,582,5936
1644177919.086856,-0.010376,0.009705,-0.992065,0.297191,0.340763,0.021679,46,274,587,5952
1644177919.135276,-0.010559,0.007996,-0.990112,0.220855,0.432366,-0.100458,40,273,579,5984
1644177919.18351,-0.009644,0.009888,-0.993286,0.220855,0.310229,0.036947,51,276,590,5904
1644177919.231883,-0.010559,0.010498,-0.991272,0.281924,0.401832,-0.176794,49,275,579,5984
1644177919.28028,-0.00824,0.009155,-0.991821,0.327725,0.401832,0.021679,53,279,585,6000
1644177919.328666,-0.01001,0.007507,-0.988831,0.159786,0.447634,-0.008855,53,279,587,5936
1644177919.377057,-0.009155,0.010254,-0.995117,0.373527,0.432366,-0.130992,47,282,577,5952
1644177919.425432,-0.008545,0.01123,-0.990967,-0.008153,0.325496,-0.100458,52,277,582,5936
1644177919.474214,-0.007324,0.010742,-0.990173,0.175053,0.447634,-0.100458,45,285,582,5904
1644177919.524512,-0.010315,0.009033,-0.992554,0.068183,0.356031,-0.008855,53,266,583,5904
1644177919.575012,-0.012024,0.009338,-0.993713,0.144519,0.356031,-0.222595,58,276,578,5952
1644177919.619808,-0.006531,0.008972,-0.991699,0.068183,0.447634,-0.054656,52,273,579,5904
1644177919.715785,-0.00946,0.009216,-0.99054,0.113985,0.172824,0.036947,51,276,592,5984
1644177919.764181,-0.011536,0.010376,-0.990967,0.098718,0.447634,0.006412,51,281,571,5984
1644177919.812607,-0.013733,0.009094,-0.993774,0.251389,0.508702,-0.25313,53,264,580,5952
1644177919.86097,-0.007996,0.009277,-0.992371,0.220855,0.401832,-0.039389,41,276,580,5936
1644177919.909414,-0.00885,0.010315,-0.992249,0.068183,0.371298,-0.039389,51,271,583,6000
1644177919.957807,-0.007751,0.010925,-0.992126,0.098718,0.294962,-0.069924,49,268,579,5984
1644177920.006183,-0.009399,0.010986,-0.992615,0.312458,0.508702,-0.054656,38,282,584,5984
1644177920.064764,-0.011292,0.007812,-0.994263,0.251389,0.417099,-0.222595,55,279,590,5904
1644177920.102983,-0.007812,0.010071,-0.992981,0.251389,0.371298,-0.14626,53,281,576,5936
1644177920.151366,-0.011292,0.007874,-0.992126,0.388794,0.340763,-0.14626,51,276,585,5888
1644177920.199761,-0.011658,0.008728,-0.991516,0.022382,0.264427,-0.085191,55,271,576,5952
1644177920.248147,-0.010254,0.009766,-0.994324,0.159786,0.447634,-0.161527,43,281,592,5936
1644177920.296547,-0.008179,0.010559,-0.991638,0.312458,0.401832,-0.161527,58,276,578,5952
1644177920.344933,-0.007385,0.006836,-0.99469,0.220855,0.386565,0.052214,48,276,590,5904
1644177920.393333,-0.008972,0.009216,-0.993774,0.190321,0.386565,-0.024122,35,273,579,5904
1644177920.441718,-0.007629,0.009705,-0.992432,0.312458,0.264427,-0.069924,51,266,578,5952
1644177920.490121,-0.01001,0.01001,-0.991943,0.281924,0.24916,-0.069924,46,274,590,6000
1644177920.538722,-0.010437,0.009033,-0.99292,0.266656,0.462901,-0.192061,41,276,592,5952
1644177920.586914,-0.010498,0.00769,-0.99115,0.266656,0.447634,0.006412,52,277,577,5984
1644177920.636957,-0.010559,0.007019,-0.991089,0.327725,0.417099,-0.130992,48,279,583,6000
1644177920.687333,-0.008972,0.009277,-0.993225,0.266656,0.493435,-0.176794,49,277,582,5952
1644177920.737151,-0.009155,0.013184,-0.98938,0.190321,0.356031,-0.100458,53,271,578,5984
1644177920.781656,-0.00946,0.006897,-0.99353,0.113985,0.447634,-0.130992,51,286,585,5904
1644177920.877247,-0.00885,0.008789,-0.990479,0.251389,0.325496,-0.115725,60,279,576,5984
1644177920.925622,-0.006409,0.010498,-0.992188,0.098718,0.401832,-0.130992,43,283,580,5984
1644177920.974028,-0.007202,0.006226,-0.993286,0.159786,0.417099,-0.207328,42,275,584,5984
1644177921.022444,-0.009766,0.009155,-0.996765,0.220855,0.447634,-0.192061,39,276,585,5952
1644177921.070851,-0.010559,0.009644,-0.994812,0.190321,0.462901,0.006412,61,285,584,5904
1644177921.119147,-0.01062,0.008789,-0.992798,0.236122,0.554504,-0.008855,55,281,585,5904
1644177921.167546,-0.00885,0.00824,-0.991455,0.266656,0.417099,-0.100458,35,273,582,5984
1644177921.215946,-0.009644,0.008667,-0.989746,0.327725,0.523969,-0.039389,49,268,584,5936
1644177921.264338,-0.00647,0.010864,-0.991821,0.281924,0.371298,-0.069924,54,270,589,5984
1644177921.312733,-0.008423,0.010803,-0.992554,0.312458,0.523969,-0.25313,60,286,583,5952
1644177921.361128,-0.00885,0.008179,-0.990845,0.220855,0.371298,-0.085191,55,271,580,6000
1644177921.409526,-0.006836,0.00708,-0.992493,0.175053,0.310229,-0.222595,40,280,579,5984
1644177921.457898,-0.008301,0.009216,-0.993042,0.190321,0.432366,-0.176794,32,279,597,5952
1644177921.506291,-0.011536,0.009155,-0.989807,0.449863,0.401832,-0.176794,48,279,580,5984
1644177921.554702,-0.008911,0.01001,-0.991638,0.175053,0.386565,-0.192061,51,283,580,6016
1644177921.60311,-0.009033,0.008118,-0.990906,0.159786,0.432366,-0.069924,53,274,587,5952
1644177921.651438,-0.011047,0.008606,-0.988037,0.113985,0.493435,-0.039389,54,273,584,5984
1644177921.699867,-0.009155,0.010559,-0.992737,0.144519,0.478168,-0.085191,46,281,580,5984
1644177921.748239,-0.009644,0.007141,-0.993774,0.236122,0.417099,0.021679,52,282,589,5952
1644177921.79742,-0.010193,0.009644,-0.994385,0.190321,0.310229,-0.222595,58,276,587,5952
1644177921.848467,-0.008057,0.011597,-0.993958,0.236122,0.646107,-0.130992,51,269,590,5936
1644177921.898682,-0.007507,0.013,-0.993286,0.175053,0.401832,-0.039389,51,274,578,5952
1644177921.9432,-0.009583,0.00647,-0.992371,0.312458,0.340763,-0.283664,46,269,576,6048
1644177922.038642,-0.009277,0.00824,-0.990601,0.159786,0.478168,0.036947,58,269,585,6016
1644177922.087182,-0.008972,0.007751,-0.991699,0.175053,0.264427,-0.100458,47,273,589,5936
1644177922.135374,-0.009705,0.009033,-0.991394,0.35826,0.417099,-0.085191,51,281,576,5952
1644177922.183776,-0.008423,0.008728,-0.992798,0.098718,0.417099,-0.130992,47,280,584,5984
1644177922.232381,-0.010071,0.00708,-0.993103,0.251389,0.401832,-0.054656,53,274,578,6048
1644177922.280547,-0.011597,0.007996,-0.992493,0.266656,0.432366,-0.054656,47,270,586,5888
1644177922.328941,-0.008545,0.008789,-0.992371,0.251389,0.401832,-0.161527,43,262,573,6000
1644177922.37736,-0.010315,0.010498,-0.989563,0.312458,0.447634,-0.100458,58,281,576,5984
1644177922.425757,-0.008606,0.012268,-0.992676,0.190321,0.340763,0.021679,49,273,579,5888
1644177922.474147,-0.008972,0.008118,-0.992981,0.190321,0.386565,-0.100458,54,277,577,5952
1644177922.522521,-0.010803,0.010925,-0.992126,0.388794,0.447634,-0.008855,54,273,584,5984
1644177922.57094,-0.010437,0.009949,-0.993103,0.266656,0.340763,-0.054656,47,277,589,5888
1644177922.619309,-0.007446,0.01001,-0.99176,0.159786,0.218626,-0.085191,47,277,572,5984
1644177922.667698,-0.011719,0.006409,-0.992676,0.236122,0.340763,-0.192061,48,274,594,5904
1644177922.716063,-0.007385,0.01123,-0.994019,0.175053,0.24916,-0.054656,48,276,573,5888
1644177922.764487,-0.008789,0.011963,-0.990967,0.129252,0.478168,-0.130992,46,271,587,5936
1644177922.812954,-0.009644,0.01178,-0.990845,0.266656,0.539237,-0.176794,54,277,598,5984
1644177922.861313,-0.009033,0.012207,-0.989746,0.220855,0.554504,-0.176794,48,286,583,5904
1644177922.90973,-0.007202,0.010254,-0.992798,0.144519,0.371298,-0.268397,49,273,575,5984
1644177922.959229,-0.007263,0.013367,-0.99054,0.251389,0.386565,-0.069924,49,277,591,6000
1644177923.064287,-0.01062,0.008667,-0.990479,0.175053,0.310229,-0.054656,46,274,580,5904
1644177923.104317,-0.007385,0.008667,-0.991943,0.159786,0.401832,-0.069924,55,262,587,5984
1644177923.151606,-0.009216,0.010559,-0.991577,0.113985,0.462901,-0.054656,57,280,582,5952
1644177923.200018,-0.009705,0.009521,-0.99115,0.190321,0.203359,-0.115725,46,271,587,5904
1644177923.248391,-0.010376,0.010315,-0.990784,0.205588,0.417099,-0.100458,51,276,580,5936
1644177923.296794,-0.00708,0.010132,-0.99292,0.373527,0.356031,-0.008855,49,270,582,5984
1644177923.345259,-0.011047,0.009827,-0.991272,0.281924,0.508702,0.052214,42,273,586,5952
1644177923.393593,-0.007568,0.007202,-0.987549,0.236122,0.417099,-0.192061,51,286,578,6000
1644177923.441978,-0.008362,0.009888,-0.994202,0.449863,0.447634,-0.085191,59,282,589,5952
1644177923.490381,-0.006958,0.007446,-0.990417,0.144519,0.340763,-0.100458,42,277,593,5952
1644177923.538756,-0.007812,0.010376,-0.989929,0.281924,0.356031,-0.130992,45,275,582,5904
1644177923.58715,-0.008728,0.011292,-0.994324,0.419328,0.417099,-0.14626,48,269,587,5904
1644177923.635779,-0.011536,0.010742,-0.99231,0.144519,0.462901,-0.039389,52,270,591,5936
1644177923.68393,-0.009705,0.009521,-0.990601,0.205588,0.478168,-0.039389,54,270,584,5936
1644177923.732355,-0.012268,0.009216,-0.99115,0.297191,0.371298,-0.176794,55,274,580,6016
1644177923.782386,-0.009399,0.008423,-0.991882,0.190321,0.493435,-0.192061,53,283,583,5888
1644177923.833934,-0.007568,0.008118,-0.991882,0.220855,0.356031,0.036947,52,275,586,6000
1644177923.878331,-0.00885,0.008972,-0.991455,0.297191,0.478168,-0.14626,53,271,585,5936
1644177923.974354,-0.006836,0.008667,-0.989441,0.251389,0.401832,-0.085191,42,273,579,5952
1644177924.02273,-0.00708,0.009705,-0.993774,0.251389,0.523969,-0.130992,52,275,586,5952
1644177924.071779,-0.007812,0.006592,-0.990601,0.129252,0.554504,-0.100458,57,282,593,5872
1644177924.119442,-0.009094,0.010803,-0.989868,0.297191,0.340763,-0.054656,49,277,579,5872
1644177924.167848,-0.008972,0.009827,-0.990662,0.35826,0.478168,-0.024122,54,275,579,5904
1644177924.216232,-0.008484,0.007324,-0.990479,0.266656,0.401832,-0.14626,53,274,571,5936
1644177924.264644,-0.011108,0.006958,-0.99115,0.113985,0.447634,-0.008855,52,280,582,5952
1644177924.313004,-0.010315,0.008423,-0.989746,0.251389,0.447634,0.006412,51,276,580,5872
1644177924.361419,-0.00647,0.010986,-0.991272,0.281924,0.371298,-0.069924,43,269,576,5952
1644177924.409814,-0.008057,0.010803,-0.991211,0.113985,0.356031,-0.069924,52,263,577,5936
1644177924.458203,-0.009155,0.008179,-0.991028,0.297191,0.401832,0.067481,53,281,585,5904
1644177924.506605,-0.006897,0.010986,-0.995422,0.251389,0.264427,-0.192061,48,279,580,5952
1644177924.55511,-0.008728,0.010071,-0.988464,0.175053,0.417099,-0.085191,49,273,584,6000
1644177924.603375,-0.007446,0.008606,-0.991577,0.251389,0.356031,-0.069924,41,269,585,6048
1644177924.651764,-0.009277,0.009644,-0.99292,0.251389,0.539237,-0.115725,51,264,583,5952
1644177924.700155,-0.012207,0.009521,-0.993225,0.281924,0.447634,0.021679,64,275,589,5904
1644177924.74856,-0.010315,0.007507,-0.989441,0.205588,0.417099,0.036947,51,283,590,5984
1644177924.796918,-0.007446,0.010254,-0.992371,0.159786,0.386565,0.006412,49,280,586,5984
1644177924.845558,-0.006897,0.010925,-0.99115,0.312458,0.371298,-0.054656,42,275,580,5888
1644177924.894612,-0.010559,0.009583,-0.988647,0.236122,0.279695,-0.039389,61,280,572,5952
1644177924.944782,-0.007996,0.00885,-0.991272,0.251389,0.310229,-0.039389,48,274,580,5952
1644177924.995199,-0.009155,0.007751,-0.990723,0.129252,0.325496,-0.024122,53,276,587,5936
1644177925.039818,-0.008423,0.008789,-0.991577,0.236122,0.340763,0.006412,48,274,585,6000
1644177925.135724,-0.00885,0.010132,-0.992065,0.251389,0.523969,-0.130992,42,273,582,5952
1644177925.184087,-0.007812,0.007507,-0.99469,0.236122,0.523969,-0.054656,61,263,584,5984
1644177925.232472,-0.011475,0.007629,-0.991211,0.129252,0.447634,-0.039389,49,277,582,5952
1644177925.280849,-0.010193,0.007935,-0.990906,0.159786,0.523969,0.036947,46,271,590,5952
1644177925.329254,-0.011292,0.009399,-0.993958,0.113985,0.325496,0.006412,54,268,582,5936
1644177925.377644,-0.008789,0.008545,-0.992188,0.205588,0.432366,-0.130992,49,273,586,5936
1644177925.426032,-0.010864,0.010742,-0.990784,0.098718,0.356031,-0.069924,54,275,582,5888
1644177925.474439,-0.008179,0.010376,-0.993652,0.205588,0.233893,-0.085191,58,276,580,6016
1644177925.522833,-0.007507,0.009644,-0.99231,0.327725,0.417099,0.006412,54,275,586,5952
1644177925.57121,-0.010071,0.007751,-0.991699,0.098718,0.325496,-0.130992,54,277,584,5984
1644177925.619605,-0.008118,0.009827,-0.993652,0.129252,0.401832,-0.14626,48,274,583,5936
1644177925.66799,-0.010376,0.005615,-0.995483,0.251389,0.356031,-0.085191,52,275,586,5952
1644177925.716388,-0.010986,0.009705,-0.99469,0.297191,0.371298,-0.039389,51,271,580,6000
1644177925.76478,-0.01001,0.010559,-0.99292,0.175053,0.447634,-0.085191,60,269,580,5984
1644177925.813174,-0.010132,0.008667,-0.993896,0.35826,0.233893,-0.008855,57,273,586,5952
1644177925.861605,-0.009827,0.01001,-0.99353,0.159786,0.310229,-0.100458,51,269,580,5936
1644177925.909995,-0.011047,0.008423,-0.997314,0.022382,0.417099,-0.25313,48,276,578,5952
1644177925.958375,-0.01001,0.009216,-0.992249,0.251389,0.417099,-0.085191,49,273,584,5984
1644177926.006791,-0.011169,0.010132,-0.989136,0.159786,0.356031,0.021679,57,275,586,6016
1644177926.073742,-0.008789,0.011292,-0.992004,0.190321,0.417099,-0.207328,53,276,590,5952
1644177926.111871,-0.008118,0.009216,-0.993225,0.113985,0.432366,-0.14626,54,270,596,5936
1644177926.157548,-0.009155,0.01062,-0.993591,0.327725,0.340763,-0.100458,46,279,579,5952
1644177926.201075,-0.010437,0.009583,-0.992859,0.281924,0.447634,-0.039389,54,277,582,5952
1644177926.297066,-0.007874,0.009338,-0.994629,0.220855,0.401832,-0.085191,51,276,590,5888
1644177926.345481,-0.010132,0.009155,-0.993958,0.373527,0.508702,-0.161527,45,282,577,5952
1644177926.393877,-0.008301,0.008118,-0.991028,0.144519,0.508702,0.036947,49,280,579,5936
1644177926.442393,-0.009949,0.008667,-0.99176,0.190321,0.386565,-0.100458,51,271,580,5984
1644177926.490668,-0.010376,0.009155,-0.994446,0.205588,0.401832,-0.024122,57,268,586,5984
1644177926.539037,-0.010193,0.007935,-0.991882,0.220855,0.432366,-0.100458,46,283,583,5984
1644177926.587433,-0.007446,0.010437,-0.991089,0.236122,0.462901,-0.283664,57,285,586,5936
1644177926.635821,-0.01062,0.009644,-0.991272,-0.053954,0.356031,-0.115725,53,286,583,5952
1644177926.684237,-0.008545,0.011414,-0.992371,0.144519,0.325496,-0.100458,48,276,587,5952
1644177926.732633,-0.008545,0.009827,-0.991394,0.205588,0.417099,-0.161527,54,268,584,5936
1644177926.781004,-0.012329,0.011597,-0.990051,0.236122,0.508702,-0.054656,59,273,589,5888
1644177926.829398,-0.010193,0.01239,-0.992798,0.220855,0.401832,0.052214,45,275,577,5904
1644177926.8778,-0.008545,0.010925,-0.990112,0.297191,0.432366,-0.161527,49,285,586,5952
1644177926.926188,-0.009583,0.006714,-0.991882,0.205588,0.310229,-0.25313,43,279,587,5984
1644177926.974665,-0.010254,0.013428,-0.992126,0.388794,0.417099,-0.054656,41,281,594,5904
1644177927.02302,-0.009399,0.01062,-0.990967,0.159786,0.340763,-0.069924,47,268,589,5952
1644177927.086689,-0.008972,0.009033,-0.99292,0.190321,0.508702,0.006412,47,275,591,5872
1644177927.123846,-0.00885,0.007568,-0.989197,0.175053,0.417099,-0.237863,48,276,585,5984
1644177927.168874,-0.006226,0.007751,-0.992798,0.205588,0.401832,-0.069924,51,271,592,5952
1644177927.264936,-0.012878,0.00824,-0.991882,0.419328,0.203359,-0.100458,58,283,580,5952
1644177927.313332,-0.010193,0.010742,-0.993103,0.434595,0.417099,-0.268397,51,286,583,5952
1644177927.361714,-0.008911,0.01001,-0.993652,0.251389,0.356031,-0.176794,45,270,584,5904
1644177927.4101,-0.011353,0.008728,-0.993286,0.190321,0.310229,-0.14626,55,276,580,5936
1644177927.458496,-0.010681,0.009888,-0.990784,0.052916,0.356031,-0.069924,55,279,580,5904
1644177927.50686,-0.00824,0.00824,-0.993347,0.190321,0.447634,-0.054656,57,270,591,5904
1644177927.555273,-0.008667,0.010254,-0.992371,0.373527,0.432366,-0.100458,45,275,582,6016
1644177927.603673,-0.010559,0.008484,-0.993347,0.251389,0.371298,-0.207328,48,276,583,5872
1644177927.65207,-0.011841,0.010437,-0.992188,0.220855,0.447634,-0.054656,43,283,583,5904
1644177927.700458,-0.014526,0.01178,-0.992554,0.144519,0.417099,-0.222595,52,280,577,5984
1644177927.748826,-0.011414,0.012634,-0.989746,0.205588,0.417099,0.036947,59,273,582,5984
1644177927.79724,-0.008179,0.010376,-0.993896,0.205588,0.493435,-0.14626,48,271,580,5872
1644177927.845648,-0.009094,0.006653,-0.993347,0.068183,0.447634,-0.192061,48,274,580,6000
1644177927.894071,-0.009094,0.009216,-0.994629,0.159786,0.325496,-0.176794,51,276,583,5936
1644177927.942471,-0.010986,0.008545,-0.993713,0.35826,0.386565,-0.268397,48,276,587,5888
1644177927.990834,-0.008789,0.007812,-0.990295,0.159786,0.386565,-0.161527,52,273,586,5984
1644177928.039226,-0.01062,0.009583,-0.992249,0.205588,0.325496,-0.344733,48,276,585,6000
1644177928.095566,-0.012329,0.008545,-0.991943,0.129252,0.371298,-0.176794,53,286,590,5952
1644177928.135986,-0.009033,0.009094,-0.991333,0.35826,0.340763,-0.222595,48,269,585,5952
1644177928.185016,-0.007935,0.010498,-0.990356,0.251389,0.386565,-0.115725,48,279,585,6000
1644177928.235119,-0.010803,0.009766,-0.992004,0.404061,0.294962,-0.039389,41,279,580,5952
1644177928.285303,-0.01001,0.009521,-0.989624,0.159786,0.401832,0.021679,55,286,580,6000
1644177928.330339,-0.008545,0.008362,-0.991211,0.113985,0.386565,-0.024122,59,280,575,5952
1644177928.426312,-0.009888,0.009827,-0.993042,0.281924,0.493435,-0.161527,52,282,584,5984
1644177928.474864,-0.007751,0.008545,-0.992249,0.281924,0.462901,-0.008855,47,275,582,5904
1644177928.523118,-0.008972,0.011047,-0.989746,0.266656,0.279695,-0.222595,48,283,585,5952
1644177928.571506,-0.010132,0.008728,-0.993103,0.205588,0.386565,-0.100458,51,276,583,5952
1644177928.61988,-0.007324,0.009766,-0.992249,0.327725,0.539237,-0.100458,49,273,586,6000
1644177928.668273,-0.007019,0.010437,-0.991577,0.220855,0.325496,-0.100458,49,277,575,6016
1644177928.716676,-0.010315,0.008484,-0.989075,0.281924,0.340763,0.036947,41,279,573,5984
1644177928.765109,-0.007019,0.008118,-0.992432,0.35826,0.325496,0.082748,55,281,573,5984
1644177928.813511,-0.008789,0.008606,-0.99231,0.35826,0.356031,-0.176794,49,277,586,5936
1644177928.861901,-0.009583,0.008606,-0.991394,0.175053,0.340763,-0.207328,52,285,582,5984
1644177928.91028,-0.009827,0.010376,-0.991516,0.373527,0.294962,0.006412,48,283,583,5952
1644177928.958652,-0.008667,0.005798,-0.99115,0.266656,0.462901,-0.115725,59,270,586,5936
1644177929.007051,-0.010803,0.010986,-0.994141,0.159786,0.294962,-0.039389,43,266,580,5952
1644177929.066873,-0.006714,0.008606,-0.993896,0.236122,0.401832,-0.100458,52,270,589,5888
1644177929.103835,-0.007751,0.011841,-0.990906,0.129252,0.356031,-0.069924,46,279,573,5904
1644177929.152225,-0.008728,0.010864,-0.992432,0.220855,0.432366,-0.024122,43,274,573,5952
1644177929.200597,-0.008728,0.006958,-0.99353,0.007115,0.462901,-0.069924,51,281,580,6016
1644177929.248964,-0.009766,0.006531,-0.993347,0.297191,0.432366,-0.100458,57,280,582,5952
1644177929.297355,-0.00946,0.008606,-0.994568,0.297191,0.203359,-0.161527,51,264,580,6000
1644177929.345799,-0.009644,0.009949,-0.991821,0.251389,0.371298,-0.207328,49,280,584,5936
1644177929.396362,-0.008484,0.011108,-0.992126,0.281924,0.401832,-0.14626,45,273,596,5936
1644177929.446423,-0.011292,0.008972,-0.99054,0.373527,0.371298,-0.14626,48,281,587,5936
1644177929.491817,-0.009949,0.007507,-0.993225,0.159786,0.447634,-0.14626,51,276,578,5952
1644177929.587719,-0.009644,0.00946,-0.993469,0.220855,0.417099,0.021679,39,286,578,5952
1644177929.636103,-0.01062,0.007629,-0.992737,0.251389,0.508702,-0.192061,43,274,580,5952
1644177929.684502,-0.007996,0.009033,-0.992004,0.220855,0.371298,-0.100458,51,274,585,6000
1644177929.73291,-0.009338,0.00885,-0.994019,0.205588,0.371298,-0.130992,38,280,582,5904
1644177929.781299,-0.008789,0.009827,-0.991638,0.281924,0.325496,-0.14626,49,277,591,5952
1644177929.829732,-0.010498,0.009583,-0.992371,0.220855,0.432366,-0.024122,47,275,575,5904
1644177929.878126,-0.010498,0.007812,-0.99231,0.205588,0.401832,-0.192061,45,268,584,5904
1644177929.926508,-0.008972,0.010742,-0.992126,0.205588,0.432366,-0.085191,55,269,576,5952
1644177929.974918,-0.009705,0.01178,-0.992798,0.220855,0.447634,-0.085191,51,274,573,5904
1644177930.023306,-0.010681,0.009888,-0.992249,0.220855,0.569771,-0.130992,46,266,592,5952
1644177930.088535,-0.009583,0.010498,-0.992249,0.236122,0.447634,-0.069924,40,282,579,5984
1644177930.121107,-0.008301,0.010681,-0.993408,0.251389,0.493435,0.006412,48,279,587,5952
1644177930.171498,-0.01062,0.010437,-0.992981,0.297191,0.462901,-0.085191,48,276,576,5936
1644177930.221472,-0.004395,0.008728,-0.992554,0.327725,0.462901,-0.085191,60,271,585,6048
1644177930.266541,-0.007812,0.011475,-0.992859,0.08345,0.462901,-0.207328,51,276,592,5888
1644177930.361998,-0.009094,0.006287,-0.99054,0.281924,0.340763,-0.024122,48,281,578,5904
1644177930.410385,-0.008667,0.011169,-0.991638,0.205588,0.279695,-0.024122,49,277,575,5936
1644177930.458771,-0.010986,0.01001,-0.992188,0.175053,0.447634,-0.054656,43,271,578,5936
1644177930.507149,-0.011414,0.009094,-0.991333,0.205588,0.447634,-0.130992,55,279,587,6000
1644177930.555568,-0.007874,0.009827,-0.991821,0.297191,0.523969,-0.222595,47,277,586,5936
1644177930.603967,-0.007507,0.008728,-0.99469,0.144519,0.417099,-0.268397,48,271,583,5904
1644177930.652374,-0.010498,0.010925,-0.992737,0.388794,0.447634,-0.100458,38,275,582,5984
1644177930.700726,-0.008667,0.008484,-0.990417,0.297191,0.340763,-0.054656,54,277,575,5904
1644177930.749109,-0.011353,0.009949,-0.992981,0.205588,0.417099,-0.008855,61,277,577,6000
1644177930.797528,-0.012207,0.013,-0.99353,0.113985,0.462901,-0.039389,52,273,593,5952
1644177930.845957,-0.010559,0.009399,-0.990784,0.236122,0.478168,-0.25313,45,270,589,5936
1644177930.894351,-0.006714,0.009644,-0.992676,0.434595,0.356031,-0.100458,52,280,589,6016
1644177930.942757,-0.007568,0.009583,-0.994995,0.098718,0.417099,-0.207328,46,271,583,5952
1644177930.99113,-0.012268,0.009705,-0.990784,0.251389,0.310229,0.006412,40,275,584,5936
1644177931.039494,-0.006592,0.010132,-0.992676,0.251389,0.294962,-0.161527,59,277,586,5952
1644177931.092257,-0.00824,0.007446,-0.989746,0.266656,0.417099,-0.130992,49,275,584,5952
1644177931.13629,-0.008301,0.007935,-0.991577,0.190321,0.310229,-0.085191,54,277,589,5984
1644177931.184718,-0.009277,0.011414,-0.993896,0.281924,0.432366,-0.14626,49,273,589,5904
1644177931.23307,-0.009888,0.008972,-0.993469,0.312458,0.432366,-0.054656,47,277,572,6016
1644177931.28159,-0.009827,0.00885,-0.99292,0.266656,0.401832,-0.192061,51,269,592,5872
1644177931.332074,-0.007385,0.009216,-0.993225,0.175053,0.432366,-0.069924,45,273,577,5984
1644177931.382317,-0.007751,0.011841,-0.99054,0.266656,0.371298,0.036947,54,268,579,5984
1644177931.427413,-0.006897,0.011108,-0.993042,0.190321,0.356031,-0.100458,52,282,582,5984
1644177931.523423,-0.008728,0.008667,-0.99176,0.205588,0.447634,-0.14626,38,277,565,5872
1644177931.571784,-0.008606,0.007751,-0.993103,0.342992,0.386565,-0.130992,36,274,569,5840
1644177931.620177,-0.008789,0.011353,-0.993774,0.251389,0.417099,-0.008855,48,266,580,5952
1644177931.668577,-0.00885,0.010864,-0.992859,0.251389,0.508702,-0.130992,51,281,576,5984
1644177931.716969,-0.008362,0.011597,-0.990417,0.205588,0.478168,-0.14626,59,275,568,5936
1644177931.76535,-0.010071,0.009216,-0.991211,0.266656,0.203359,-0.039389,53,283,583,5984
1644177931.813771,-0.007507,0.010559,-0.992065,0.220855,0.356031,0.021679,49,282,579,5984
1644177931.862196,-0.009521,0.005859,-0.993469,0.205588,0.401832,-0.161527,52,277,572,5952
1644177931.910578,-0.009094,0.009399,-0.991211,0.129252,0.371298,-0.14626,49,285,582,5984
1644177931.958937,-0.010315,0.008423,-0.992371,0.159786,0.432366,-0.054656,51,271,578,6000
1644177932.007366,-0.01062,0.01062,-0.992126,0.159786,0.417099,-0.054656,48,286,578,6000
1644177932.069129,-0.010254,0.008301,-0.991089,0.251389,0.401832,-0.115725,53,279,594,5936
1644177932.108021,-0.011841,0.011536,-0.991943,0.373527,0.478168,-0.039389,67,276,585,5984
1644177932.152532,-0.011047,0.007324,-0.994568,0.281924,0.279695,-0.054656,49,285,586,5984
1644177932.20089,-0.009766,0.008545,-0.989807,0.297191,0.432366,-0.161527,45,263,575,5952
1644177932.249279,-0.010193,0.010803,-0.992798,0.113985,0.203359,-0.085191,57,280,579,5984
1644177932.297673,-0.007812,0.008484,-0.99115,0.281924,0.462901,-0.069924,61,280,579,5984
1644177932.346043,-0.008667,0.008118,-0.992126,0.190321,0.417099,-0.069924,51,276,580,5888
1644177932.39444,-0.009583,0.009216,-0.992554,0.205588,0.508702,-0.161527,43,276,578,5952
1644177932.443192,-0.009766,0.009338,-0.990417,0.236122,0.493435,-0.039389,48,279,573,5936
1644177932.4942,-0.008179,0.01123,-0.990234,0.113985,0.356031,-0.024122,53,276,585,5904
1644177932.543967,-0.009766,0.00824,-0.991516,0.159786,0.493435,-0.115725,58,274,571,5904
1644177932.589076,-0.009949,0.008179,-0.99353,0.190321,0.340763,-0.085191,59,275,582,5952
1644177932.684863,-0.00592,0.010681,-0.992859,0.098718,0.493435,-0.25313,55,276,587,5904
1644177932.733214,-0.008301,0.009583,-0.992126,0.404061,0.432366,-0.069924,59,282,572,6016
1644177932.781594,-0.009216,0.009216,-0.99231,0.281924,0.523969,-0.25313,36,276,585,5952
1644177932.829966,-0.011719,0.011047,-0.991882,0.022382,0.432366,-0.100458,46,276,585,5904
1644177932.87839,-0.008118,0.008057,-0.993469,0.129252,0.386565,-0.130992,42,280,572,5984
1644177932.926788,-0.011108,0.007263,-0.993103,0.327725,0.310229,-0.008855,55,271,580,5984
1644177932.975234,-0.007202,0.007263,-0.993408,0.327725,0.279695,-0.298931,45,275,584,5984
1644177933.02359,-0.011047,0.011108,-0.991699,0.297191,0.356031,-0.085191,55,274,592,5984
1644177933.075168,-0.00946,0.008728,-0.992371,0.205588,0.386565,-0.100458,57,282,584,5936
1644177933.120374,-0.00946,0.009766,-0.992371,0.129252,0.508702,-0.176794,49,282,582,5952
1644177933.168722,-0.011353,0.008972,-0.989807,0.312458,0.386565,-0.130992,51,276,580,5952
1644177933.217118,-0.008057,0.00708,-0.99292,0.388794,0.371298,-0.100458,45,285,586,5952
1644177933.26551,-0.006287,0.010254,-0.990845,0.266656,0.371298,-0.222595,39,276,583,6000
1644177933.313899,-0.008423,0.008362,-0.990051,0.266656,0.462901,-0.039389,46,269,576,5936
1644177933.362307,-0.01001,0.012268,-0.992737,0.266656,0.356031,-0.115725,60,286,583,5904
1644177933.410678,-0.010498,0.008789,-0.991638,0.175053,0.294962,-0.085191,46,276,580,6000
1644177933.459074,-0.011841,0.007629,-0.992065,0.190321,0.478168,-0.176794,55,281,583,5936
1644177933.507593,-0.007507,0.009338,-0.991821,0.236122,0.447634,0.052214,41,274,585,5888
1644177933.556477,-0.01062,0.008301,-0.992065,0.205588,0.417099,-0.024122,43,271,590,5984
1644177933.607056,-0.010315,0.009094,-0.992126,0.297191,0.493435,-0.176794,60,283,587,5936
1644177933.657185,-0.004883,0.00824,-0.991333,0.297191,0.294962,-0.14626,57,273,579,6016
1644177933.702402,-0.009705,0.009766,-0.990356,0.236122,0.340763,-0.283664,57,275,586,5952
1644177933.79781,-0.011414,0.009155,-0.993286,0.129252,0.340763,-0.14626,43,264,576,5904
1644177933.846189,-0.007568,0.010986,-0.992432,0.297191,0.478168,-0.115725,45,282,582,5984
1644177933.894691,-0.010498,0.010071,-0.990967,0.388794,0.325496,-0.085191,48,274,580,5904
1644177933.943059,-0.009766,0.009521,-0.989807,0.251389,0.462901,0.006412,47,275,577,5984
1644177933.991433,-0.01123,0.009216,-0.990173,0.205588,0.386565,-0.130992,45,277,577,5936
1644177934.039819,-0.010071,0.009094,-0.993835,0.266656,0.493435,-0.069924,47,277,582,5952
1644177934.088272,-0.007751,0.008728,-0.989563,0.281924,0.493435,0.113282,46,274,583,5888
1644177934.136603,-0.010071,0.010315,-0.991516,0.098718,0.386565,-0.085191,42,280,582,5984
1644177934.185076,-0.009827,0.009583,-0.992676,0.388794,0.478168,-0.100458,54,277,579,5904
1644177934.233355,-0.009766,0.010925,-0.991028,0.159786,0.401832,-0.130992,51,279,580,5888
1644177934.281709,-0.010681,0.008484,-0.993164,0.251389,0.371298,-0.14626,54,280,577,5984
1644177934.330123,-0.008423,0.007812,-0.991516,0.159786,0.279695,-0.130992,49,275,572,5904
1644177934.378513,-0.011047,0.007629,-0.994019,0.190321,0.417099,-0.115725,48,281,580,5936
1644177934.426915,-0.00885,0.008728,-0.989197,0.175053,0.371298,-0.115725,51,271,583,5984
1644177934.475301,-0.011108,0.009155,-0.99353,0.129252,0.401832,0.052214,49,277,579,6000
1644177934.523881,-0.009827,0.011169,-0.992676,0.373527,0.386565,-0.130992,59,276,571,5936
1644177934.572668,-0.011292,0.00885,-0.994324,0.251389,0.371298,-0.298931,52,287,586,5952
1644177934.623223,-0.00769,0.008179,-0.990417,0.312458,0.493435,-0.161527,61,282,582,5936
1644177934.673522,-0.008972,0.00946,-0.993103,0.281924,0.294962,-0.14626,48,271,578,5952
1644177934.718575,-0.010803,0.010681,-0.993896,0.159786,0.401832,-0.069924,45,277,584,5952
1644177934.814058,-0.009644,0.007324,-0.992249,0.113985,0.508702,-0.054656,51,271,576,5952
1644177934.862642,-0.008606,0.006897,-0.99292,0.266656,0.294962,-0.069924,46,274,583,5952
1644177934.910854,-0.010681,0.008118,-0.993042,0.266656,0.417099,-0.100458,47,265,582,5888
1644177934.95926,-0.009399,0.010254,-0.990051,0.205588,0.340763,-0.024122,54,277,589,5952
1644177935.007643,-0.007935,0.010193,-0.99353,0.190321,0.386565,-0.100458,45,277,577,5888
1644177935.057702,-0.011414,0.00885,-0.991577,0.266656,0.585038,-0.085191,49,280,589,5936
1644177935.104431,-0.009705,0.006226,-0.994385,0.113985,0.462901,-0.130992,51,274,583,5936
1644177935.15285,-0.008728,0.00769,-0.990906,0.205588,0.417099,-0.14626,47,280,579,5984
1644177935.201223,-0.007568,0.009216,-0.991333,0.251389,0.478168,-0.115725,41,281,578,5888
1644177935.249594,-0.008545,0.01001,-0.993591,0.144519,0.371298,0.006412,49,285,586,5984
1644177935.297988,-0.010559,0.009216,-0.989441,0.220855,0.340763,-0.115725,47,280,577,6000
1644177935.346397,-0.007935,0.009644,-0.990234,0.205588,0.386565,-0.069924,43,274,585,5936
1644177935.394789,-0.00946,0.008118,-0.99353,0.113985,0.478168,-0.14626,47,270,579,5952
1644177935.443194,-0.010742,0.010071,-0.991699,0.144519,0.447634,-0.115725,52,282,582,5952
1644177935.491879,-0.009399,0.008423,-0.992615,0.312458,0.356031,-0.039389,54,275,593,5904
1644177935.539964,-0.012451,0.010254,-0.991638,0.236122,0.539237,0.006412,57,275,591,5904
1644177935.588355,-0.009277,0.010132,-0.992493,0.205588,0.356031,-0.085191,58,276,590,6000
1644177935.637104,-0.006897,0.008911,-0.993713,0.159786,0.401832,-0.100458,53,269,580,5984
1644177935.685225,-0.007446,0.010437,-0.990662,0.175053,0.63084,-0.054656,43,276,585,5904
1644177935.734851,-0.011902,0.010254,-0.991882,0.266656,0.218626,0.021679,49,280,589,6016
1644177935.785236,-0.008789,0.007446,-0.994751,0.190321,0.386565,0.067481,51,281,573,5904
1644177935.835287,-0.009277,0.011108,-0.992188,0.220855,0.371298,-0.039389,55,276,592,5984
1644177935.879918,-0.010559,0.006531,-0.992004,0.205588,0.279695,-0.207328,57,277,582,5952
1644177935.975486,-0.008728,0.008728,-0.990356,0.068183,0.340763,0.006412,55,276,580,5952
1644177936.023896,-0.011536,0.00946,-0.990662,0.129252,0.401832,-0.100458,55,281,583,5952
1644177936.072324,-0.010803,0.009338,-0.991211,0.175053,0.523969,-0.085191,36,276,576,5936
1644177936.120619,-0.012268,0.00769,-0.992554,0.35826,0.279695,-0.039389,48,274,580,5936
1644177936.168985,-0.01001,0.008118,-0.989807,0.175053,0.447634,-0.207328,54,280,579,5936
1644177936.21741,-0.010254,0.010803,-0.991272,0.297191,0.294962,-0.25313,41,276,580,5984
1644177936.265782,-0.008301,0.008667,-0.992432,0.129252,0.386565,-0.100458,43,281,580,5904
1644177936.314182,-0.010071,0.008179,-0.992859,0.220855,0.371298,-0.130992,48,279,578,5952
1644177936.362605,-0.010986,0.008667,-0.991882,0.312458,0.432366,-0.207328,41,286,585,5904
1644177936.410988,-0.01062,0.006714,-0.990662,0.404061,0.493435,-0.161527,53,279,571,5904
1644177936.459381,-0.007996,0.008606,-0.990784,0.251389,0.432366,-0.054656,41,279,573,5952
1644177936.507771,-0.009277,0.010315,-0.992004,0.373527,0.447634,-0.130992,51,279,585,5952
1644177936.556157,-0.009888,0.00885,-0.993225,0.373527,0.493435,0.113282,53,274,580,6000
1644177936.604633,-0.007019,0.010559,-0.991455,0.281924,0.569771,-0.207328,60,274,573,5952
1644177936.65295,-0.008606,0.008179,-0.990417,0.297191,0.432366,-0.130992,45,277,584,5952
1644177936.701325,-0.008972,0.012939,-0.992798,0.08345,0.493435,-0.222595,51,266,573,5888
1644177936.749691,-0.009949,0.012878,-0.992737,0.052916,0.447634,-0.14626,54,282,584,5984
1644177936.798146,-0.009216,0.01239,-0.993164,0.129252,0.371298,-0.130992,42,275,582,5904
1644177936.846559,-0.008118,0.009094,-0.991089,0.205588,0.462901,-0.237863,47,270,586,5952
1644177936.896341,-0.009827,0.01123,-0.99292,0.190321,0.508702,-0.039389,41,271,576,5936
1644177936.946447,-0.010742,0.010864,-0.990234,0.266656,0.523969,-0.100458,51,271,585,5984
1644177936.996706,-0.008606,0.008972,-0.994751,0.190321,0.417099,-0.161527,60,274,580,5952
1644177937.040923,-0.008606,0.007629,-0.990906,0.190321,0.493435,-0.024122,52,282,586,5904
1644177937.136847,-0.008423,0.013855,-0.990906,0.190321,0.432366,-0.115725,42,263,575,5904
1644177937.185391,-0.010559,0.013,-0.992249,0.297191,0.188092,-0.069924,46,288,583,5904
1644177937.233628,-0.010071,0.00885,-0.99231,0.022382,0.447634,-0.039389,40,273,563,5952
1644177937.282,-0.008179,0.008301,-0.993286,0.220855,0.432366,-0.085191,46,279,585,5952
1644177937.330417,-0.008484,0.009644,-0.99231,0.159786,0.340763,0.036947,45,273,582,5952
1644177937.378809,-0.006409,0.009033,-0.991089,0.342992,0.478168,-0.192061,55,269,583,5904
1644177937.42718,-0.010254,0.007507,-0.992615,0.175053,0.417099,-0.024122,49,275,577,5904
1644177937.475587,-0.010925,0.011658,-0.991211,0.144519,0.539237,-0.054656,52,277,584,6064
1644177937.524003,-0.009705,0.006897,-0.991089,0.266656,0.371298,-0.14626,58,274,585,5952
1644177937.572399,-0.006287,0.01001,-0.991272,0.388794,0.462901,-0.024122,52,275,579,5936
1644177937.620783,-0.008484,0.00824,-0.992371,0.129252,0.401832,-0.039389,43,283,585,6000
1644177937.669156,-0.009583,0.00946,-0.99176,0.312458,0.493435,-0.130992,45,270,582,5984
1644177937.717558,-0.008789,0.009766,-0.991272,0.281924,0.401832,-0.054656,53,269,576,6016
1644177937.765945,-0.008972,0.010864,-0.990356,0.159786,0.401832,-0.115725,41,276,585,5904
1644177937.814395,-0.008728,0.011414,-0.9953,0.312458,0.325496,-0.069924,45,277,579,5904
1644177937.86278,-0.008484,0.009399,-0.990417,0.236122,0.24916,-0.024122,53,279,585,5984
1644177937.911156,-0.009949,0.011169,-0.98938,0.190321,0.325496,0.036947,46,283,583,6000
1644177937.959557,-0.00946,0.008484,-0.993652,0.327725,0.478168,-0.008855,48,274,583,6016
1644177938.007953,-0.009033,0.007629,-0.990967,0.327725,0.264427,-0.115725,51,271,590,5952
1644177938.085344,-0.010254,0.008728,-0.994385,0.007115,0.24916,-0.039389,47,273,591,5984
1644177938.112444,-0.008728,0.011536,-0.993774,0.129252,0.478168,-0.161527,57,275,579,5984
1644177938.156869,-0.010193,0.00769,-0.993286,0.327725,0.340763,-0.039389,51,276,578,5984
1644177938.201849,-0.012695,0.011108,-0.98999,0.175053,0.401832,-0.176794,53,274,571,6080
1644177938.29824,-0.009827,0.009094,-0.991821,0.220855,0.447634,0.006412,46,286,578,5984
1644177938.34663,-0.01123,0.007446,-0.990662,0.297191,0.371298,-0.268397,46,271,576,5904
1644177938.395279,-0.011658,0.006226,-0.990784,0.190321,0.508702,-0.039389,48,279,590,5888
1644177938.443447,-0.010437,0.00769,-0.994751,0.205588,0.447634,-0.085191,61,268,586,5952
1644177938.49238,-0.009033,0.010925,-0.993958,0.220855,0.401832,-0.069924,54,270,579,5952
1644177938.540215,-0.011108,0.011963,-0.991333,0.129252,0.401832,-0.054656,52,285,575,5952
1644177938.588597,-0.011108,0.008667,-0.992126,0.251389,0.432366,0.113282,54,275,579,5984
1644177938.637007,-0.008179,0.011963,-0.995667,0.281924,0.401832,-0.161527,59,275,582,5952
1644177938.685386,-0.010376,0.007568,-0.992798,0.190321,0.325496,-0.14626,57,285,582,5984
1644177938.733796,-0.011169,0.010498,-0.990784,0.35826,0.371298,0.036947,53,281,590,5984
1644177938.782238,-0.007874,0.012268,-0.99176,0.220855,0.63084,-0.069924,54,280,586,5888
1644177938.830617,-0.011902,0.009766,-0.991211,0.190321,0.401832,-0.054656,51,274,576,5984
1644177938.878999,-0.008301,0.010071,-0.989014,0.342992,0.401832,-0.069924,41,281,587,5904
1644177938.927408,-0.011902,0.009888,-0.991699,0.251389,0.325496,0.036947,42,273,579,5952
1644177938.975788,-0.00885,0.009521,-0.993164,0.419328,0.462901,-0.115725,45,273,582,6000
1644177939.024189,-0.009094,0.008301,-0.990723,0.220855,0.417099,-0.130992,51,271,578,5984
1644177939.08883,-0.007935,0.012817,-0.991455,0.159786,0.539237,-0.069924,59,275,582,5952
1644177939.123254,-0.009155,0.007629,-0.992981,0.266656,0.478168,-0.024122,46,279,592,6000
1644177939.172286,-0.009216,0.007324,-0.991699,0.434595,0.310229,-0.115725,57,282,577,5904
1644177939.222583,-0.010925,0.008911,-0.994141,0.373527,0.325496,-0.176794,48,274,585,5952
1644177939.314528,-0.010742,0.008057,-0.988953,0.236122,0.340763,-0.115725,48,279,578,5952
1644177939.362861,-0.008728,0.008667,-0.993225,0.251389,0.478168,-0.054656,39,274,573,5952
1644177939.411272,-0.008972,0.008728,-0.99292,0.190321,0.371298,-0.161527,49,273,565,5952
1644177939.459655,-0.009705,0.009216,-0.992249,0.297191,0.478168,-0.085191,42,273,579,5936
1644177939.508039,-0.010986,0.011292,-0.990784,0.068183,0.447634,-0.222595,45,270,575,5984
1644177939.556444,-0.010193,0.010437,-0.992432,0.327725,0.417099,-0.25313,45,275,582,5904
1644177939.604842,-0.008911,0.008179,-0.99469,0.08345,0.371298,-0.100458,51,281,583,6016
1644177939.653224,-0.008301,0.008911,-0.99231,0.159786,0.432366,-0.130992,52,299,586,5984
1644177939.701614,-0.009827,0.007019,-0.992798,0.312458,0.386565,0.052214,55,276,583,5952
1644177939.749982,-0.008423,0.007324,-0.992065,0.159786,0.325496,-0.115725,51,274,580,5952
1644177939.798413,-0.009583,0.006592,-0.994934,0.220855,0.340763,-0.024122,59,273,589,5952
1644177939.846838,-0.011719,0.007629,-0.994995,0.327725,0.310229,-0.14626,53,281,585,5904
1644177939.895297,-0.007324,0.007263,-0.992249,0.098718,0.356031,-0.161527,48,276,578,5952
1644177939.943597,-0.010925,0.008179,-0.989319,0.159786,0.508702,0.036947,47,275,589,5952
1644177939.992023,-0.011292,0.00769,-0.992554,0.342992,0.417099,0.006412,40,282,586,5984
1644177940.040406,-0.010315,0.009216,-0.992859,0.220855,0.325496,-0.161527,54,273,575,5952
1644177940.094714,-0.009033,0.009033,-0.993469,0.08345,0.386565,-0.069924,55,276,583,5888
1644177940.137151,-0.007874,0.008728,-0.991333,0.373527,0.493435,-0.039389,52,285,586,5952
1644177940.185535,-0.007996,0.00885,-0.993286,0.190321,0.447634,0.021679,58,271,580,5984
1644177940.234262,-0.01123,0.008911,-0.992737,0.190321,0.340763,-0.161527,45,273,586,5984
1644177940.28484,-0.011108,0.009277,-0.991211,0.236122,0.478168,-0.100458,47,277,593,5936
1644177940.335083,-0.010986,0.00824,-0.992554,0.220855,0.447634,-0.100458,62,274,592,5952
1644177940.380044,-0.009094,0.009277,-0.991699,0.281924,0.264427,-0.115725,55,288,585,5936
1644177940.475873,-0.009827,0.011658,-0.993164,0.281924,0.340763,-0.024122,57,275,579,5952
1644177940.524296,-0.008545,0.007385,-0.993164,0.190321,0.294962,-0.14626,55,269,576,5872
1644177940.572691,-0.008667,0.011719,-0.99176,0.312458,0.432366,-0.024122,43,279,578,5952
1644177940.621053,-0.008484,0.011169,-0.990784,0.175053,0.478168,-0.176794,52,277,568,5952
1644177940.669452,-0.010437,0.011292,-0.990356,0.251389,0.340763,-0.024122,43,276,576,5904
1644177940.717827,-0.012817,0.010315,-0.990479,0.327725,0.371298,-0.039389,53,279,594,6000
1644177940.766237,-0.01123,0.009155,-0.994324,0.007115,0.310229,-0.14626,58,269,580,5888
1644177940.814627,-0.01001,0.010132,-0.992859,0.281924,0.508702,-0.008855,52,277,577,6000
1644177940.863074,-0.009521,0.010071,-0.992126,0.205588,0.523969,-0.039389,54,277,586,5936
1644177940.911442,-0.010071,0.007935,-0.99054,0.220855,0.417099,-0.024122,46,281,583,6000
1644177940.959878,-0.011963,0.010986,-0.991943,0.175053,0.264427,0.006412,52,273,582,5888
1644177941.008227,-0.010315,0.009827,-0.994385,0.190321,0.493435,-0.130992,53,271,592,5936
1644177941.06646,-0.010864,0.010132,-0.994202,0.35826,0.264427,-0.039389,54,275,584,5952
1644177941.105661,-0.00647,0.00708,-0.990112,0.236122,0.417099,-0.115725,49,282,584,5952
1644177941.1534,-0.008362,0.008423,-0.992859,0.236122,0.462901,-0.085191,54,273,586,5840
1644177941.201737,-0.010742,0.007507,-0.992615,0.190321,0.554504,-0.069924,54,282,584,5984
1644177941.250134,-0.01239,0.009583,-0.99292,0.175053,0.218626,-0.192061,55,279,573,5888
1644177941.298551,-0.010925,0.007324,-0.993835,0.175053,0.386565,-0.115725,61,275,586,5936
1644177941.346946,-0.011963,0.009216,-0.995117,0.373527,0.340763,-0.115725,51,276,569,5888
1644177941.395682,-0.009888,0.008301,-0.992981,0.251389,0.386565,-0.192061,57,265,579,5904
1644177941.446343,-0.008362,0.00824,-0.993713,0.144519,0.462901,-0.14626,53,283,580,5984
1644177941.496772,-0.008484,0.00885,-0.993286,0.159786,0.523969,-0.085191,49,277,586,5904
1644177941.541361,-0.009583,0.010681,-0.991699,0.297191,0.493435,0.006412,48,283,580,5952
1644177941.637267,-0.010803,0.007507,-0.991699,0.205588,0.386565,-0.100458,45,280,579,5952
1644177941.685672,-0.008972,0.009644,-0.993835,0.190321,0.279695,-0.298931,45,275,582,6000
1644177941.734074,-0.009949,0.01123,-0.993713,0.129252,0.432366,-0.130992,33,277,577,5904
1644177941.782475,-0.009827,0.00885,-0.994263,0.312458,0.417099,-0.054656,47,282,575,5888
1644177941.83085,-0.009094,0.008484,-0.99176,0.205588,0.523969,-0.176794,48,279,578,5936
1644177941.879297,-0.008606,0.005615,-0.990112,0.159786,0.447634,-0.039389,53,274,580,5984
1644177941.927682,-0.007568,0.01001,-0.993225,0.175053,0.462901,-0.192061,52,275,586,5936
1644177941.976074,-0.010742,0.011108,-0.994934,0.08345,0.493435,-0.25313,48,269,580,5952
1644177942.024481,-0.007019,0.010132,-0.990112,0.373527,0.447634,-0.161527,47,270,584,5936
1644177942.08949,-0.010254,0.01001,-0.991516,0.312458,0.340763,-0.192061,58,279,578,5936
1644177942.121275,-0.011047,0.008362,-0.991333,0.129252,0.585038,-0.069924,48,271,580,5984
1644177942.1696,-0.010376,0.006653,-0.993591,0.220855,0.478168,-0.054656,54,275,579,5936
1644177942.21798,-0.009216,0.008606,-0.992249,0.281924,0.417099,0.021679,47,277,591,5952
1644177942.26638,-0.009338,0.009766,-0.995972,0.175053,0.432366,-0.100458,51,271,592,5952
1644177942.314783,-0.011658,0.009399,-0.993164,0.113985,0.432366,-0.130992,51,286,590,5952
1644177942.363189,-0.00946,0.009216,-0.994019,0.266656,0.493435,-0.054656,51,276,580,5904
1644177942.411556,-0.007568,0.009155,-0.992371,0.251389,0.401832,0.067481,52,275,593,5952
1644177942.459929,-0.007568,0.010986,-0.993958,0.251389,0.371298,-0.176794,48,271,590,5952
1644177942.508655,-0.00769,0.009033,-0.992676,0.205588,0.310229,-0.054656,62,269,583,5952
1644177942.557465,-0.008484,0.009888,-0.992371,0.190321,0.478168,-0.054656,57,277,579,5904
1644177942.608014,-0.008972,0.009094,-0.992981,0.236122,0.554504,-0.207328,49,280,589,5840
1644177942.658111,-0.008118,0.009033,-0.986633,0.312458,0.493435,-0.100458,57,277,577,6048
1644177942.703174,-0.008423,0.009766,-0.994995,0.220855,0.386565,0.082748,48,271,585,5984
1644177942.798683,-0.011658,0.00647,-0.992493,0.312458,0.417099,-0.054656,48,266,583,5936
1644177942.847073,-0.011719,0.009766,-0.994873,0.236122,0.310229,-0.008855,54,280,591,5936
1644177942.895503,-0.007507,0.007019,-0.991089,0.297191,0.523969,-0.054656,42,277,582,5936
1644177942.943894,-0.009827,0.007263,-0.993164,0.312458,0.447634,-0.085191,47,282,584,5904
1644177942.992321,-0.011169,0.011597,-0.989563,0.342992,0.233893,0.021679,41,279,576,5888
1644177943.040699,-0.01239,0.007568,-0.990662,0.159786,0.386565,-0.237863,51,279,587,5952
1644177943.093951,-0.006958,0.01001,-0.992126,0.434595,0.371298,-0.024122,43,281,580,5984
1644177943.137477,-0.011169,0.009827,-0.990601,0.297191,0.401832,-0.161527,49,270,577,5904
1644177943.185834,-0.009949,0.008728,-0.991882,0.190321,0.340763,0.006412,48,286,580,5888
1644177943.234234,-0.009338,0.005493,-0.99231,0.297191,0.371298,-0.085191,54,275,579,5888
1644177943.28261,-0.014343,0.010498,-0.989868,0.266656,0.508702,-0.085191,53,269,580,5904
1644177943.331003,-0.013,0.009583,-0.990051,0.297191,0.493435,-0.161527,54,290,577,5936
1644177943.379397,-0.007874,0.008057,-0.990295,0.129252,0.371298,-0.222595,57,277,572,5984
1644177943.427784,-0.008972,0.012024,-0.99353,0.312458,0.508702,-0.024122,53,269,585,5936
1644177943.476182,-0.009277,0.009277,-0.99231,0.220855,0.371298,-0.024122,46,271,585,5952
1644177943.524885,-0.009338,0.008118,-0.994812,0.220855,0.523969,-0.14626,43,274,580,5984
1644177943.573098,-0.008057,0.009094,-0.990784,0.297191,0.432366,-0.176794,48,274,573,5952
1644177943.623533,-0.009583,0.007629,-0.99115,0.220855,0.417099,0.021679,51,279,583,6016
1644177943.673869,-0.008911,0.007874,-0.991211,0.327725,0.386565,-0.100458,52,275,577,5904
1644177943.718776,-0.009277,0.010193,-0.99054,0.236122,0.386565,-0.14626,48,262,578,5936
1644177943.814935,-0.008179,0.006836,-0.995605,0.251389,0.493435,-0.085191,43,291,594,5984
1644177943.863477,-0.008606,0.007568,-0.993652,0.236122,0.371298,-0.192061,53,279,576,6000
1644177943.91174,-0.013184,0.009949,-0.991516,0.113985,0.279695,-0.115725,48,283,580,5952
1644177943.960136,-0.00946,0.010498,-0.991577,0.052916,0.310229,-0.14626,53,269,578,5936
1644177944.008513,-0.009216,0.007324,-0.99176,0.220855,0.340763,-0.115725,52,275,584,5936
1644177944.060194,-0.011047,0.007996,-0.98999,0.297191,0.294962,-0.222595,53,274,590,5872
1644177944.1053,-0.007446,0.006775,-0.994019,0.159786,0.356031,-0.207328,33,277,584,5952
1644177944.153697,-0.008972,0.008972,-0.991699,0.342992,0.539237,0.021679,47,285,586,5984
1644177944.202152,-0.008911,0.012146,-0.991577,0.251389,0.371298,-0.161527,45,277,575,6000
1644177944.250487,-0.008423,0.010193,-0.991882,0.236122,0.493435,-0.237863,60,276,590,5936
1644177944.298879,-0.006836,0.008972,-0.990906,0.35826,0.432366,-0.14626,51,271,583,5984
1644177944.347272,-0.008301,0.009644,-0.993225,0.190321,0.462901,-0.069924,54,280,579,5936
1644177944.395654,-0.007385,0.008179,-0.990967,0.159786,0.493435,0.113282,54,282,584,5936
1644177944.444062,-0.004395,0.012207,-0.992859,0.144519,0.203359,-0.115725,52,277,591,5952
1644177944.492482,-0.010376,0.008911,-0.994263,0.342992,0.172824,-0.130992,52,273,582,5952
1644177944.540828,-0.006409,0.00946,-0.992432,0.297191,0.462901,-0.008855,39,269,578,5952
1644177944.589215,-0.011292,0.007446,-0.992493,0.266656,0.325496,-0.024122,48,279,583,5984
1644177944.637696,-0.009766,0.011047,-0.990845,0.266656,0.417099,-0.14626,40,285,582,5904
1644177944.686406,-0.007019,0.008301,-0.991455,0.297191,0.432366,-0.054656,49,277,582,5952
1644177944.736729,-0.009521,0.008423,-0.990967,0.327725,0.340763,-0.100458,46,279,571,5936
1644177944.787073,-0.009338,0.011719,-0.992004,0.175053,0.417099,-0.069924,60,271,580,5952
1644177944.831455,-0.009338,0.010071,-0.990479,0.35826,0.539237,0.082748,54,273,584,5984
1644177944.92797,-0.00708,0.010803,-0.990051,0.159786,0.340763,-0.069924,42,280,582,5904
1644177944.976353,-0.009644,0.010132,-0.991943,0.205588,0.432366,0.006412,49,282,586,6016
1644177945.024762,-0.009888,0.006409,-0.992188,0.144519,0.432366,-0.054656,35,270,579,6000
1644177945.073219,-0.009399,0.008667,-0.990906,0.327725,0.340763,-0.130992,52,292,582,5984
1644177945.121501,-0.008789,0.009338,-0.992004,0.312458,0.447634,-0.130992,43,279,585,5904
1644177945.169902,-0.010742,0.009705,-0.991394,0.159786,0.462901,-0.024122,48,266,580,5952
1644177945.218277,-0.006897,0.008362,-0.990234,0.08345,0.462901,-0.25313,42,270,575,5904
1644177945.26668,-0.008423,0.008362,-0.993164,0.205588,0.310229,-0.161527,58,266,578,6016
1644177945.315104,-0.009705,0.00647,-0.992615,0.327725,0.386565,-0.024122,49,287,589,5952
1644177945.363477,-0.00946,0.007812,-0.992493,0.175053,0.493435,-0.130992,42,273,586,5984
1644177945.411832,-0.008911,0.010559,-0.991699,0.327725,0.264427,-0.100458,47,270,586,5952
1644177945.460241,-0.008484,0.01123,-0.993835,0.236122,0.401832,0.006412,54,277,579,5984
1644177945.508609,-0.008301,0.010498,-0.991272,0.144519,0.340763,-0.176794,47,277,586,5888
1644177945.557024,-0.010376,0.009949,-0.993835,0.251389,0.294962,-0.237863,47,268,586,5952
1644177945.605417,-0.009521,0.009277,-0.991089,0.251389,0.386565,-0.130992,55,276,578,5872
1644177945.653816,-0.00708,0.009277,-0.990601,0.236122,0.508702,-0.207328,49,277,584,5904
1644177945.702222,-0.010559,0.008606,-0.992432,0.236122,0.356031,-0.085191,48,281,580,5936
1644177945.750565,-0.009949,0.009949,-0.992737,0.205588,0.371298,-0.14626,53,286,585,5952
1644177945.799037,-0.011292,0.011414,-0.992859,0.297191,0.478168,-0.100458,45,294,582,6000
1644177945.848351,-0.011292,0.009949,-0.990784,0.312458,0.233893,-0.054656,43,276,590,5984
1644177945.899176,-0.009827,0.007568,-0.990662,0.220855,0.493435,-0.024122,52,282,600,5984
1644177945.949836,-0.01001,0.011597,-0.99408,0.251389,0.325496,-0.085191,47,275,596,5952
1644177945.993464,-0.007812,0.013428,-0.992798,0.144519,0.233893,-0.130992,52,270,582,5952
1644177946.090047,-0.00824,0.007751,-0.991577,0.190321,0.386565,-0.222595,51,281,583,5872
1644177946.137715,-0.008057,0.00769,-0.992737,0.266656,0.401832,-0.161527,51,271,583,5952
1644177946.186105,-0.009827,0.00946,-0.992676,0.220855,0.325496,-0.069924,43,271,583,5984
1644177946.234521,-0.008789,0.009705,-0.991943,0.175053,0.401832,-0.161527,51,269,576,5936
1644177946.282927,-0.008667,0.011475,-0.991455,0.190321,0.371298,0.006412,43,269,599,6000
1644177946.331309,-0.009155,0.009888,-0.991882,0.251389,0.417099,-0.100458,45,275,584,6000
1644177946.379696,-0.009766,0.00824,-0.990845,0.312458,0.356031,-0.069924,55,281,578,5840
1644177946.42809,-0.00769,0.00946,-0.991089,0.266656,0.523969,-0.161527,49,282,586,5952
1644177946.476475,-0.012085,0.009277,-0.991638,0.159786,0.371298,-0.024122,47,280,584,5904
1644177946.524854,-0.010681,0.006287,-0.990479,0.220855,0.325496,-0.008855,45,280,577,5936
1644177946.573276,-0.008789,0.012268,-0.992249,0.175053,0.569771,-0.008855,49,268,579,6000
1644177946.621647,-0.011597,0.009888,-0.993042,0.08345,0.539237,0.067481,49,280,579,5936
1644177946.670016,-0.006836,0.012268,-0.991516,0.205588,0.401832,-0.100458,55,276,580,5984
1644177946.718435,-0.00885,0.007935,-0.991089,0.129252,0.462901,-0.14626,52,282,586,5952
1644177946.766822,-0.008057,0.007629,-0.99231,0.327725,0.508702,0.052214,51,266,583,5936
1644177946.81525,-0.009033,0.01062,-0.993591,0.08345,0.371298,0.006412,46,276,590,5888
1644177946.863651,-0.009827,0.008972,-0.993164,0.251389,0.417099,-0.069924,53,274,580,5952
1644177946.912413,-0.007202,0.006653,-0.993713,0.35826,0.310229,-0.192061,52,275,593,6016
1644177946.960474,-0.009705,0.010437,-0.991516,0.297191,0.294962,-0.14626,55,276,594,5952
1644177947.064846,-0.012268,0.00647,-0.993164,0.251389,0.371298,-0.085191,62,274,592,6000
1644177947.105564,-0.008362,0.007629,-0.990845,0.266656,0.310229,-0.008855,49,275,586,5984
1644177947.153942,-0.010315,0.009399,-0.990662,0.220855,0.310229,-0.14626,55,271,576,5984
1644177947.202375,-0.008728,0.009338,-0.993347,0.144519,0.447634,-0.25313,55,286,583,5952
1644177947.250723,-0.007507,0.008484,-0.991821,0.098718,0.371298,-0.115725,47,270,589,6016
1644177947.299134,-0.010925,0.01178,-0.996826,0.312458,0.462901,-0.085191,52,270,582,5984
1644177947.347521,-0.011597,0.011414,-0.992615,0.236122,0.264427,-0.100458,45,268,579,6048
1644177947.395919,-0.011108,0.009583,-0.994202,0.220855,0.356031,-0.14626,55,281,590,5904
1644177947.44431,-0.010742,0.009827,-0.991272,0.113985,0.417099,-0.085191,49,270,570,5936
1644177947.492688,-0.01355,0.009521,-0.996155,0.297191,0.203359,-0.115725,51,281,576,5952
1644177947.541062,-0.008789,0.008728,-0.995239,0.266656,0.447634,-0.008855,53,276,585,5904
1644177947.589485,-0.010254,0.007446,-0.991882,0.251389,0.386565,-0.176794,46,279,576,5872
1644177947.637882,-0.009277,0.009705,-0.993408,0.205588,0.325496,-0.054656,57,275,584,5936
1644177947.686281,-0.011475,0.008667,-0.993774,0.205588,0.432366,-0.14626,49,277,589,6000
1644177947.734683,-0.007996,0.00769,-0.99408,0.007115,0.401832,-0.039389,42,277,584,5936
1644177947.7831,-0.009766,0.010437,-0.992126,0.251389,0.432366,-0.039389,43,274,576,5888
1644177947.835353,-0.010254,0.008728,-0.990845,0.220855,0.401832,-0.192061,47,273,582,5888
1644177947.884479,-0.011414,0.008667,-0.992188,0.236122,0.310229,-0.176794,52,285,582,5984
1644177947.929127,-0.01062,0.008484,-0.993103,0.159786,0.600305,-0.054656,42,270,577,5904
1644177948.025361,-0.011414,0.008545,-0.992004,0.404061,0.462901,-0.085191,54,273,586,5904
1644177948.073521,-0.009766,0.007263,-0.99469,0.190321,0.279695,-0.024122,53,283,578,5952
1644177948.121838,-0.01001,0.008484,-0.992798,0.236122,0.417099,-0.268397,40,273,589,6016
1644177948.170179,-0.01001,0.010132,-0.99292,0.251389,0.447634,-0.222595,46,279,585,5872
1644177948.218574,-0.010681,0.008789,-0.994141,0.312458,0.386565,0.006412,39,271,590,5904
1644177948.266959,-0.009155,0.009277,-0.993042,0.281924,0.417099,-0.008855,62,281,592,5952
1644177948.315359,-0.011475,0.008362,-0.992493,0.419328,0.447634,-0.192061,51,276,576,5904
1644177948.363757,-0.009949,0.008972,-0.99231,0.205588,0.447634,-0.161527,57,277,582,6000
1644177948.41217,-0.011414,0.006897,-0.994324,0.342992,0.447634,-0.115725,43,276,569,5888
1644177948.460534,-0.006958,0.011414,-0.990356,0.281924,0.264427,-0.14626,40,277,586,5952
1644177948.508926,-0.01001,0.010742,-0.991028,0.220855,0.493435,-0.176794,41,281,580,5984
1644177948.557321,-0.00885,0.008301,-0.991089,0.236122,0.523969,-0.115725,42,275,584,5936
1644177948.605725,-0.010559,0.009888,-0.993713,0.220855,0.462901,-0.25313,51,266,583,5936
1644177948.654121,-0.011353,0.008301,-0.989563,0.251389,0.356031,-0.130992,45,273,572,5936
1644177948.702506,-0.008667,0.010559,-0.993042,0.08345,0.356031,-0.085191,60,274,587,5936
1644177948.750892,-0.011414,0.00708,-0.994934,0.159786,0.401832,-0.115725,57,270,586,5952
1644177948.799259,-0.009155,0.008911,-0.991577,0.175053,0.447634,-0.25313,47,268,593,5984
1644177948.847722,-0.012634,0.007812,-0.990723,0.205588,0.478168,-0.054656,52,285,584,5840
1644177948.896127,-0.010803,0.005615,-0.993408,0.159786,0.401832,-0.054656,43,276,583,5936
1644177948.945885,-0.011658,0.010071,-0.991516,0.281924,0.401832,-0.130992,52,277,586,5952
1644177948.996086,-0.010132,0.008789,-0.991394,0.281924,0.294962,-0.100458,53,274,580,5888
1644177949.058575,-0.010315,0.008911,-0.993591,0.190321,0.371298,-0.100458,59,268,582,5936
1644177949.096148,-0.014038,0.007629,-0.990356,0.175053,0.462901,-0.115725,55,286,587,5984
1644177949.186397,-0.00769,0.009583,-0.993164,0.220855,0.600305,-0.039389,53,269,576,5888
1644177949.234874,-0.007629,0.007996,-0.993469,0.297191,0.432366,0.067481,52,275,577,5952
1644177949.283191,-0.010437,0.00885,-0.993958,0.236122,0.371298,-0.008855,49,270,582,5952
1644177949.331591,-0.010315,0.01062,-0.991638,0.175053,0.539237,-0.069924,39,281,576,5984
1644177949.379972,-0.010498,0.010498,-0.993042,0.236122,0.356031,-0.176794,48,276,580,5952
1644177949.428366,-0.010498,0.010315,-0.992432,0.205588,0.325496,-0.069924,55,283,578,5984
1644177949.476757,-0.008057,0.008728,-0.992493,0.327725,0.401832,-0.054656,48,281,580,5888
1644177949.52518,-0.00824,0.008362,-0.993958,0.251389,0.401832,-0.039389,51,274,580,5904
1644177949.573526,-0.007874,0.009644,-0.993958,0.220855,0.478168,-0.207328,46,269,580,5952
1644177949.621946,-0.009521,0.01001,-0.992188,0.373527,0.371298,-0.14626,47,277,575,6000
1644177949.670331,-0.009033,0.010681,-0.993469,0.113985,0.417099,-0.054656,54,280,589,6000
1644177949.718728,-0.005554,0.010864,-0.990417,0.35826,0.432366,-0.115725,55,271,580,5952
1644177949.767108,-0.007385,0.009338,-0.99408,0.129252,0.417099,-0.115725,42,280,579,6000
1644177949.815512,-0.012207,0.01062,-0.992004,0.205588,0.356031,-0.130992,55,281,587,5984
1644177949.863943,-0.008789,0.007935,-0.992981,0.220855,0.188092,-0.237863,49,282,591,5936
1644177949.912342,-0.010315,0.007324,-0.994263,0.175053,0.493435,-0.100458,51,274,580,6016
1644177949.960713,-0.010681,0.009216,-0.991089,0.113985,0.401832,-0.085191,53,279,585,5936
1644177950.060376,-0.008423,0.007263,-0.990906,0.205588,0.340763,0.021679,43,279,583,5984
1644177950.105897,-0.007812,0.007935,-0.991272,0.281924,0.462901,-0.25313,47,282,584,5984
1644177950.154281,-0.010132,0.00946,-0.993225,0.266656,0.508702,0.006412,42,275,575,5984
1644177950.202658,-0.011292,0.011108,-0.991516,0.266656,0.462901,-0.024122,48,269,590,5952
1644177950.251004,-0.009521,0.007935,-0.992737,0.236122,0.447634,-0.039389,47,268,584,5904
1644177950.299431,-0.011719,0.009521,-0.992737,0.144519,0.386565,-0.024122,54,275,584,5952
1644177950.34783,-0.011658,0.008118,-0.992859,0.266656,0.417099,-0.237863,52,282,579,5984
1644177950.396207,-0.007629,0.008179,-0.993164,0.175053,0.447634,-0.130992,41,274,578,5952
1644177950.44478,-0.010986,0.009155,-0.992249,0.068183,0.386565,-0.14626,53,266,580,5984
1644177950.492983,-0.009827,0.006836,-0.996094,0.281924,0.447634,-0.039389,48,283,578,5904
1644177950.541385,-0.012512,0.006775,-0.994141,0.129252,0.340763,-0.115725,45,275,579,5952
1644177950.589781,-0.010559,0.008545,-0.99408,0.251389,0.417099,-0.069924,61,280,589,5984
1644177950.638175,-0.007996,0.007446,-0.993713,0.159786,0.493435,-0.130992,51,279,583,5984
1644177950.68656,-0.011902,0.009277,-0.992432,0.281924,0.340763,-0.130992,51,281,590,5952
1644177950.734994,-0.009033,0.010803,-0.994446,0.35826,0.600305,-0.237863,45,280,593,5952
1644177950.783343,-0.007385,0.008728,-0.993347,0.327725,0.340763,-0.039389,55,271,580,5984
1644177950.83176,-0.007935,0.009583,-0.993103,0.342992,0.447634,-0.14626,54,277,575,5952
1644177950.881134,-0.010742,0.007568,-0.991333,0.251389,0.356031,-0.069924,57,277,582,5984
1644177950.931735,-0.012146,0.008606,-0.99292,0.159786,0.340763,-0.14626,48,271,590,5952
1644177950.98198,-0.01001,0.011536,-0.99115,0.251389,0.493435,0.006412,45,273,586,6000
1644177951.026661,-0.010315,0.005981,-0.993774,0.297191,0.417099,-0.115725,41,286,587,5904
1644177951.122245,-0.007263,0.008911,-0.992249,0.190321,0.325496,-0.085191,54,275,593,5936
1644177951.170516,-0.012085,0.007996,-0.990845,0.220855,0.356031,-0.192061,57,275,584,5952
1644177951.218917,-0.011414,0.004456,-0.990967,0.266656,0.401832,-0.069924,61,270,591,5904
1644177951.267302,-0.006592,0.010254,-0.99231,0.236122,0.432366,-0.130992,51,281,585,5904
1644177951.315684,-0.009338,0.007751,-0.991455,0.205588,0.447634,-0.14626,45,277,577,5936
1644177951.364084,-0.010193,0.010193,-0.993591,0.327725,0.417099,0.036947,47,273,589,5984
1644177951.412502,-0.009888,0.010315,-0.992371,0.236122,0.401832,-0.115725,55,276,583,6000
1644177951.460875,-0.010864,0.007874,-0.994202,0.159786,0.600305,-0.222595,48,281,580,5904
1644177951.50928,-0.012573,0.011475,-0.992737,0.175053,0.356031,-0.069924,51,264,583,5952
1644177951.557655,-0.007263,0.008179,-0.991028,0.342992,0.447634,-0.222595,62,276,587,5952
1644177951.606025,-0.007874,0.009766,-0.992859,0.251389,0.386565,-0.222595,51,274,590,5952
1644177951.654449,-0.007751,0.009583,-0.990723,0.251389,0.508702,-0.054656,51,279,585,5936
1644177951.702858,-0.009277,0.010132,-0.992859,0.205588,0.447634,-0.222595,43,271,587,5936
1644177951.751202,-0.008972,0.008057,-0.994507,0.037649,0.386565,-0.161527,51,288,597,5936
1644177951.799614,-0.009094,0.012878,-0.992188,0.388794,0.401832,-0.130992,55,271,590,5936
1644177951.848001,-0.010559,0.007385,-0.992432,0.281924,0.310229,0.021679,47,268,584,5888
1644177951.896391,-0.010864,0.007874,-0.991882,0.144519,0.340763,-0.130992,42,273,584,5888
1644177951.945193,-0.012085,0.008606,-0.992188,0.266656,0.371298,-0.085191,51,281,585,5952
1644177951.993188,-0.00708,0.012268,-0.989441,0.144519,0.432366,-0.207328,43,274,585,5984
1644177952.043409,-0.012085,0.007812,-0.993408,0.266656,0.188092,-0.207328,52,263,586,5904
1644177952.099247,-0.010315,0.008667,-0.990051,0.342992,0.493435,0.052214,54,273,591,5888
1644177952.143054,-0.008606,0.009888,-0.994141,0.220855,0.356031,-0.130992,47,273,582,5936
1644177952.188094,-0.009338,0.010742,-0.99115,0.251389,0.417099,-0.115725,54,280,586,5888
1644177952.283496,-0.010925,0.007812,-0.992493,0.236122,0.523969,-0.024122,48,271,571,5952
1644177952.331873,-0.012573,0.012878,-0.995911,0.236122,0.478168,-0.14626,49,277,579,5984
1644177952.380264,-0.012085,0.009216,-0.991821,0.220855,0.386565,-0.130992,46,274,592,5952
1644177952.428668,-0.01355,0.00769,-0.991699,0.159786,0.401832,-0.176794,60,274,578,5888
1644177952.477054,-0.009766,0.010376,-0.991394,0.175053,0.386565,-0.008855,47,265,589,5952
1644177952.525434,-0.008423,0.010925,-0.992249,0.327725,0.340763,-0.192061,53,279,571,5984
1644177952.573857,-0.012573,0.011108,-0.992859,0.266656,0.401832,-0.115725,54,273,568,5888
1644177952.622272,-0.010681,0.010071,-0.99353,0.175053,0.401832,-0.008855,47,282,579,5984
1644177952.670629,-0.013245,0.008789,-0.992615,0.098718,0.401832,-0.222595,54,268,579,5952
1644177952.71903,-0.010315,0.00885,-0.992493,0.129252,0.447634,0.021679,53,279,585,5888
1644177952.767409,-0.009888,0.011475,-0.989624,0.236122,0.356031,-0.176794,43,283,590,5952
1644177952.815893,-0.007751,0.008667,-0.990906,0.35826,0.432366,-0.314198,46,281,580,5936
1644177952.86423,-0.009644,0.010315,-0.993469,0.266656,0.294962,-0.085191,58,274,590,6048
1644177952.912641,-0.009521,0.008789,-0.992493,0.251389,0.493435,-0.054656,47,275,570,5984
1644177952.960984,-0.009399,0.011536,-0.991272,0.205588,0.340763,-0.069924,51,269,590,5952
1644177953.009412,-0.011658,0.008362,-0.990906,0.251389,0.371298,-0.085191,46,274,585,5952
1644177953.06791,-0.009399,0.008362,-0.991272,0.495664,0.447634,-0.039389,48,279,587,6000
1644177953.109373,-0.010498,0.008301,-0.992004,0.190321,0.264427,0.006412,46,269,583,6000
1644177953.154868,-0.010437,0.009583,-0.989563,0.327725,0.386565,0.021679,53,269,587,5984
1644177953.203518,-0.008484,0.008057,-0.992493,0.312458,0.310229,-0.100458,51,276,590,5904
1644177953.253914,-0.010742,0.008301,-0.991516,0.113985,0.462901,-0.130992,45,280,575,6000
1644177953.303842,-0.00824,0.008606,-0.992065,0.281924,0.447634,-0.176794,61,273,586,5872
1644177953.349073,-0.010498,0.008667,-0.990784,0.266656,0.294962,-0.192061,51,276,580,5984
1644177953.444905,-0.009338,0.010071,-0.992188,0.236122,0.386565,-0.115725,40,277,586,6016
1644177953.493284,-0.009644,0.009644,-0.991577,0.236122,0.371298,-0.115725,47,273,579,5984
1644177953.541681,-0.007996,0.006897,-0.993591,0.251389,0.356031,-0.100458,47,265,586,5936
1644177953.590063,-0.010681,0.009216,-0.993591,0.068183,0.417099,0.006412,41,286,587,5952
1644177953.638809,-0.00708,0.009155,-0.99231,0.159786,0.203359,-0.14626,49,270,579,5952
1644177953.686849,-0.009399,0.008484,-0.991272,0.251389,0.401832,-0.069924,47,275,577,5936
1644177953.735249,-0.008423,0.007263,-0.991638,0.190321,0.493435,-0.130992,45,277,584,5952
1644177953.783616,-0.009766,0.008118,-0.992859,0.175053,0.493435,-0.085191,47,273,570,5904
1644177953.832041,-0.00946,0.011536,-0.992981,0.236122,0.432366,-0.024122,48,274,585,5952
1644177953.880464,-0.010132,0.010864,-0.991333,0.449863,0.401832,-0.207328,52,268,586,5872
1644177953.928864,-0.008728,0.007996,-0.992371,0.236122,0.279695,-0.054656,46,266,578,5952
1644177953.977253,-0.010132,0.010376,-0.993286,0.205588,0.24916,-0.069924,46,283,587,5984
1644177954.025648,-0.010071,0.008118,-0.991943,0.144519,0.615573,-0.008855,39,266,583,5952
1644177954.091888,-0.011841,0.010925,-0.989624,0.159786,0.493435,-0.085191,45,268,586,5952
1644177954.122384,-0.008545,0.00708,-0.991089,0.251389,0.340763,-0.039389,51,276,583,5952
1644177954.170764,-0.010132,0.011719,-0.986938,0.266656,0.279695,-0.054656,45,273,577,6016
1644177954.219144,-0.011047,0.009155,-0.989441,0.220855,0.264427,-0.207328,46,281,580,5984
1644177954.26786,-0.009338,0.012695,-0.989868,0.281924,0.401832,-0.130992,39,269,580,5984
1644177954.31844,-0.007568,0.008667,-0.992432,0.312458,0.401832,-0.085191,51,279,583,6016
1644177954.36842,-0.010559,0.009399,-0.991455,0.175053,0.233893,-0.024122,42,275,586,5872
1644177954.413805,-0.009338,0.008789,-0.991333,0.266656,0.340763,-0.100458,57,268,584,5984
1644177954.509501,-0.012207,0.01001,-0.990295,0.08345,0.325496,-0.14626,48,271,580,5984
1644177954.557895,-0.010071,0.009338,-0.993408,0.297191,0.493435,0.052214,55,266,580,5952
1644177954.606285,-0.008911,0.011841,-0.994263,0.297191,0.539237,-0.115725,51,271,583,5984
1644177954.654861,-0.007874,0.01001,-0.98999,0.312458,0.356031,-0.130992,47,268,584,6000
1644177954.703085,-0.009766,0.011353,-0.991638,0.144519,0.386565,0.021679,53,266,580,5984
1644177954.751473,-0.009521,0.010437,-0.991638,0.236122,0.401832,-0.161527,49,277,579,5952
1644177954.799845,-0.00769,0.010681,-0.991028,0.266656,0.340763,-0.207328,62,276,590,6016
1644177954.848279,-0.00885,0.007385,-0.989563,0.159786,0.447634,-0.192061,55,271,578,6000
1644177954.896691,-0.009644,0.01001,-0.992371,0.266656,0.432366,-0.115725,48,264,580,5904
1644177954.945211,-0.00946,0.008423,-0.991089,0.159786,0.310229,-0.085191,52,280,600,5952
1644177954.993497,-0.00946,0.007324,-0.993408,0.129252,0.356031,-0.161527,43,279,576,6016
1644177955.041886,-0.008423,0.007751,-0.99231,0.205588,0.325496,-0.14626,52,270,582,5952
1644177955.090333,-0.011963,0.007874,-0.989197,0.281924,0.325496,-0.130992,58,274,585,5984
1644177955.138625,-0.011047,0.008728,-0.992432,0.312458,0.478168,-0.085191,57,277,582,5952
1644177955.186974,-0.008911,0.009338,-0.992615,0.220855,0.279695,-0.161527,47,280,582,5952
1644177955.235398,-0.007629,0.007324,-0.989441,0.312458,0.371298,-0.085191,57,275,584,5936
1644177955.283782,-0.008545,0.009338,-0.990784,0.190321,0.432366,-0.130992,45,273,584,5936
1644177955.332201,-0.00824,0.011108,-0.991516,0.220855,0.294962,-0.14626,48,269,578,5936
1644177955.381172,-0.006531,0.009766,-0.99231,0.159786,0.294962,-0.039389,48,274,583,5936
1644177955.42949,-0.008789,0.007935,-0.991638,0.220855,0.279695,0.006412,45,275,591,5904
1644177955.479768,-0.007996,0.010376,-0.991577,0.190321,0.447634,-0.054656,52,270,586,5952
1644177955.530056,-0.009277,0.009705,-0.992859,0.220855,0.417099,-0.085191,48,274,590,5952
1644177955.575191,-0.011719,0.01239,-0.992981,0.129252,0.508702,0.021679,58,276,585,5952
1644177955.670921,-0.010315,0.010193,-0.992676,0.175053,0.432366,-0.25313,52,268,577,5952
1644177955.719303,-0.00885,0.007812,-0.990051,0.098718,0.478168,-0.130992,45,273,579,5904
1644177955.767699,-0.009949,0.009094,-0.991577,0.236122,0.356031,-0.024122,47,282,589,6048
1644177955.816076,-0.012451,0.009521,-0.991882,0.236122,0.401832,-0.130992,51,276,578,5936
1644177955.864528,-0.009766,0.009155,-0.991638,0.297191,0.279695,-0.176794,42,282,570,5904
1644177955.912935,-0.009705,0.008423,-0.990723,0.236122,0.325496,-0.130992,47,275,584,5936
1644177955.961329,-0.008484,0.007751,-0.992249,0.236122,0.371298,-0.069924,47,273,591,5872
1644177956.009701,-0.009216,0.010437,-0.993469,0.312458,0.325496,0.006412,47,265,582,5936
1644177956.064457,-0.008789,0.008484,-0.990906,0.449863,0.279695,-0.100458,54,292,586,5904
1644177956.106469,-0.00885,0.011169,-0.993225,0.251389,0.493435,-0.085191,53,279,594,5904
1644177956.154857,-0.008789,0.009888,-0.99054,0.129252,0.493435,-0.130992,46,271,585,5952
1644177956.203247,-0.009583,0.010071,-0.993835,0.266656,0.462901,-0.25313,46,279,573,5952
1644177956.251618,-0.00824,0.011353,-0.993469,0.159786,0.432366,-0.100458,55,281,585,5952
1644177956.300003,-0.008057,0.009888,-0.992493,0.205588,0.447634,-0.069924,49,277,582,5936
1644177956.348414,-0.008545,0.008606,-0.992371,0.129252,0.310229,-0.100458,49,277,589,5936
1644177956.3968,-0.009399,0.01062,-0.993591,0.129252,0.417099,-0.024122,54,275,579,5888
1644177956.445189,-0.01239,0.00824,-0.991943,0.342992,0.493435,-0.069924,45,275,589,6016
1644177956.493587,-0.008545,0.007446,-0.991333,0.35826,0.478168,-0.130992,46,281,590,5936
1644177956.542018,-0.009155,0.007141,-0.992432,0.205588,0.478168,-0.161527,53,276,585,5904
1644177956.590684,-0.00769,0.013245,-0.992249,0.098718,0.493435,0.098015,48,264,585,5936
1644177956.641218,-0.009399,0.00885,-0.991272,0.297191,0.310229,0.006412,47,273,584,6000
1644177956.691321,-0.01123,0.011597,-0.991394,0.281924,0.447634,0.006412,54,292,586,5872
1644177956.736438,-0.006287,0.010864,-0.991028,0.281924,0.432366,0.021679,47,287,577,5888
1644177956.832396,-0.00946,0.00769,-0.992798,0.495664,0.417099,-0.115725,57,265,596,5904
1644177956.880747,-0.012329,0.009949,-0.990479,0.373527,0.432366,-0.039389,52,273,589,5888
1644177956.929142,-0.010986,0.008423,-0.993042,0.220855,0.432366,-0.176794,48,276,590,5936
1644177956.977527,-0.013062,0.009827,-0.99231,0.175053,0.462901,-0.069924,48,281,583,5952
1644177957.025917,-0.007812,0.010193,-0.993774,0.251389,0.554504,-0.069924,48,266,576,6000
1644177957.074396,-0.006958,0.011047,-0.992065,0.113985,0.294962,-0.130992,52,273,584,5952
1644177957.12273,-0.005615,0.008606,-0.994324,0.098718,0.340763,-0.176794,54,275,579,5872
1644177957.171059,-0.008789,0.008972,-0.989319,0.281924,0.294962,-0.207328,46,276,578,5952
1644177957.21943,-0.008545,0.010193,-0.992371,0.251389,0.508702,-0.222595,45,277,593,6016
1644177957.267814,-0.009216,0.008179,-0.992249,0.236122,0.325496,0.082748,53,279,587,5952
1644177957.316246,-0.008911,0.01062,-0.991272,0.236122,0.279695,-0.039389,52,275,577,5984
1644177957.364688,-0.009888,0.009583,-0.992371,0.251389,0.386565,-0.054656,45,273,591,5984
1644177957.413041,-0.009888,0.009521,-0.993286,0.297191,0.386565,-0.024122,51,276,583,5936
1644177957.46141,-0.006531,0.012817,-0.991272,0.266656,0.371298,-0.008855,49,282,584,6016
1644177957.509784,-0.009644,0.008789,-0.991699,0.327725,0.325496,-0.100458,51,274,587,5936
1644177957.558212,-0.008606,0.010071,-0.993408,0.220855,0.493435,-0.161527,46,269,587,5936
1644177957.606585,-0.011108,0.011414,-0.992493,0.251389,0.310229,0.006412,54,277,586,5904
1644177957.655026,-0.008301,0.007629,-0.990173,0.098718,0.310229,-0.161527,47,270,582,5936
1644177957.703645,-0.007324,0.010986,-0.99176,0.327725,0.310229,0.006412,54,275,586,5904
1644177957.753995,-0.011047,0.009216,-0.992188,0.251389,0.401832,-0.054656,45,265,593,5888
1644177957.804175,-0.008057,0.010132,-0.994141,0.159786,0.24916,-0.039389,46,276,573,5984
1644177957.84935,-0.009644,0.008789,-0.993103,0.342992,0.386565,-0.222595,53,274,587,5984
1644177957.945465,-0.009827,0.007263,-0.991211,0.342992,0.386565,-0.115725,49,273,586,5952
1644177957.993772,-0.010681,0.008179,-0.993286,0.113985,0.325496,-0.100458,49,273,577,5936
1644177958.042414,-0.01123,0.00708,-0.993286,0.190321,0.386565,-0.25313,54,275,584,5936
1644177958.094342,-0.008545,0.01001,-0.992798,0.205588,0.432366,-0.176794,46,283,580,5904
1644177958.138935,-0.009827,0.007446,-0.994385,0.205588,0.279695,0.006412,45,275,586,5952
1644177958.187288,-0.009949,0.010254,-0.992798,0.205588,0.340763,-0.207328,51,279,585,5952
1644177958.235649,-0.010681,0.008179,-0.991394,0.266656,0.462901,-0.069924,46,266,587,5952
1644177958.284083,-0.008911,0.004944,-0.991821,0.08345,0.493435,0.021679,60,271,578,5952
1644177958.332479,-0.012207,0.009338,-0.991394,0.144519,0.462901,0.021679,57,280,577,5984
1644177958.380862,-0.009827,0.00946,-0.990845,0.35826,0.340763,-0.039389,48,283,580,5984
1644177958.429246,-0.01062,0.008484,-0.991638,0.297191,0.493435,-0.069924,57,277,593,5952
1644177958.477637,-0.00647,0.010559,-0.990967,0.113985,0.539237,-0.161527,53,262,583,5952
1644177958.526047,-0.007874,0.009949,-0.991821,0.159786,0.310229,-0.069924,48,271,594,5984
1644177958.575902,-0.009338,0.013062,-0.996826,0.220855,0.24916,-0.14626,47,280,579,6000
1644177958.626173,-0.008911,0.008423,-0.993408,0.205588,0.386565,-0.115725,52,277,586,6000
1644177958.676276,-0.010986,0.008789,-0.991699,0.236122,0.356031,-0.054656,48,286,592,5936
1644177958.768016,-0.008118,0.008606,-0.993042,0.251389,0.356031,-0.115725,59,273,577,5984
1644177958.816367,-0.010376,0.012329,-0.990479,0.236122,0.401832,-0.100458,46,279,583,5984
1644177958.865098,-0.008728,0.01239,-0.992188,0.327725,0.508702,-0.085191,47,270,598,5936
1644177958.913215,-0.00946,0.010437,-0.99353,0.251389,0.157557,-0.100458,39,276,580,5984
1644177958.961609,-0.008423,0.007385,-0.992615,0.190321,0.401832,0.052214,52,275,575,5888
1644177959.009992,-0.00885,0.00769,-0.991882,0.098718,0.508702,-0.268397,57,273,600,5984
1644177959.062576,-0.010742,0.008789,-0.991455,0.190321,0.432366,-0.069924,43,271,592,5952
1644177959.106731,-0.009644,0.010864,-0.991699,0.312458,0.386565,-0.176794,55,283,576,5984
1644177959.155141,-0.007263,0.012756,-0.992188,0.113985,0.432366,-0.069924,51,283,587,5984
1644177959.203518,-0.010559,0.007507,-0.991821,0.266656,0.356031,-0.024122,46,274,578,5952
1644177959.251904,-0.010864,0.007935,-0.995361,0.220855,0.432366,-0.268397,49,273,582,6000
1644177959.300301,-0.007874,0.00592,-0.994202,0.144519,0.462901,-0.222595,53,274,590,5984
1644177959.348689,-0.008667,0.008667,-0.992371,0.251389,0.478168,-0.176794,47,265,579,5904
1644177959.397067,-0.008789,0.006409,-0.995239,0.236122,0.386565,-0.039389,54,280,582,5984
1644177959.445481,-0.008972,0.011353,-0.992188,0.312458,0.279695,0.036947,60,266,578,5984
1644177959.493879,-0.00769,0.008057,-0.991394,0.159786,0.417099,0.021679,59,277,582,6000
1644177959.542289,-0.01178,0.009216,-0.990417,0.175053,0.493435,-0.130992,48,274,576,5984
1644177959.590653,-0.009766,0.005188,-0.996033,0.129252,0.493435,-0.024122,38,273,589,5904
1644177959.639039,-0.010681,0.01123,-0.995728,0.35826,0.462901,-0.161527,45,280,586,5952
1644177959.689054,-0.009155,0.007751,-0.989807,0.068183,0.417099,-0.222595,53,276,585,5952
1644177959.737639,-0.007874,0.008667,-0.993042,0.159786,0.386565,-0.192061,47,273,589,5872
1644177959.789479,-0.009583,0.00708,-0.992249,0.220855,0.478168,-0.161527,42,280,577,5984
1644177959.833457,-0.012024,0.009644,-0.993469,0.35826,0.310229,-0.085191,42,290,577,5872
1644177959.929428,-0.010498,0.011108,-0.991394,0.068183,0.493435,-0.008855,53,283,580,5936
1644177959.977831,-0.008484,0.008911,-0.992126,0.190321,0.569771,-0.14626,51,279,576,6000
1644177960.026217,-0.011902,0.009583,-0.994629,0.342992,0.294962,-0.085191,53,281,585,5952
1644177960.074778,-0.008423,0.012451,-0.990845,0.190321,0.310229,-0.039389,51,274,576,5952
1644177960.122972,-0.009155,0.009399,-0.993286,0.205588,0.493435,-0.115725,58,279,578,5904
1644177960.171354,-0.010925,0.01123,-0.996033,0.419328,0.432366,0.052214,49,275,582,5952
1644177960.219745,-0.010986,0.009094,-0.99115,0.098718,0.417099,-0.054656,53,288,580,5952
1644177960.26813,-0.009644,0.008667,-0.992737,0.281924,0.371298,-0.115725,46,286,583,5952
1644177960.316528,-0.009827,0.009949,-0.990295,0.175053,0.386565,-0.085191,49,273,584,5936
1644177960.365069,-0.009521,0.009949,-0.991699,0.205588,0.432366,-0.039389,47,270,582,5984
1644177960.41333,-0.00708,0.007507,-0.990845,0.236122,0.432366,-0.054656,41,266,578,5984
1644177960.461716,-0.006897,0.009216,-0.991638,0.144519,0.447634,-0.115725,55,288,592,5904
1644177960.510082,-0.009094,0.009521,-0.993469,0.205588,0.386565,-0.008855,53,271,587,5936
1644177960.558493,-0.012024,0.010437,-0.992004,0.404061,0.371298,0.021679,47,273,584,5904
1644177960.606878,-0.011658,0.009338,-0.993286,0.281924,0.569771,-0.130992,42,273,582,5952
1644177960.655274,-0.008057,0.009705,-0.991211,0.159786,0.401832,-0.14626,43,274,587,5984
1644177960.703665,-0.008789,0.008362,-0.98877,0.251389,0.401832,-0.237863,52,268,582,5984
1644177960.752038,-0.010437,0.010254,-0.99408,0.220855,0.310229,-0.039389,46,271,583,5904
1644177960.800497,-0.009888,0.00946,-0.992126,0.205588,0.294962,-0.085191,46,279,592,5984
1644177960.850553,-0.010071,0.006226,-0.990601,0.129252,0.447634,-0.008855,53,271,585,5952
1644177960.90041,-0.009216,0.010803,-0.991272,0.159786,0.24916,-0.207328,48,271,583,5984
1644177960.950868,-0.008362,0.009033,-0.994202,0.266656,0.371298,-0.039389,45,273,589,5984
1644177960.995422,-0.009766,0.008423,-0.992126,0.266656,0.279695,-0.008855,51,269,578,5984
1644177961.096937,-0.010864,0.007019,-0.989746,0.175053,0.478168,-0.130992,51,283,583,5952
1644177961.139182,-0.010132,0.008545,-0.988953,0.08345,0.417099,-0.161527,52,275,586,5952
1644177961.187578,-0.010437,0.009216,-0.987183,0.144519,0.401832,-0.100458,48,274,580,5984
1644177961.235971,-0.008301,0.009827,-0.991882,0.190321,0.508702,0.021679,47,275,582,5936
1644177961.284384,-0.011047,0.009155,-0.992432,0.098718,0.447634,-0.14626,59,270,577,6016
1644177961.332781,-0.009155,0.007874,-0.99054,0.022382,0.401832,-0.085191,43,274,583,5888
1644177961.381164,-0.008301,0.010071,-0.989624,0.236122,0.401832,-0.085191,52,273,582,5936
1644177961.429524,-0.011353,0.009216,-0.991882,0.404061,0.417099,-0.192061,41,271,583,5984
1644177961.477933,-0.009705,0.011353,-0.990906,0.236122,0.462901,0.006412,43,269,585,5952
1644177961.526324,-0.006958,0.010132,-0.989685,0.175053,0.24916,-0.024122,52,270,591,5904
1644177961.574803,-0.008911,0.00946,-0.99054,0.113985,0.417099,-0.085191,52,275,582,5936
1644177961.623126,-0.008972,0.008606,-0.992126,0.205588,0.462901,-0.161527,42,280,579,5952
1644177961.671499,-0.009949,0.009766,-0.989685,0.220855,0.432366,-0.207328,59,268,591,5984
1644177961.719896,-0.009583,0.007019,-0.991699,0.113985,0.356031,0.067481,51,269,587,5936
1644177961.768305,-0.010315,0.01123,-0.989624,0.144519,0.447634,-0.176794,45,282,598,5888
1644177961.816853,-0.008606,0.006836,-0.99176,0.068183,0.508702,-0.115725,46,274,585,5888
1644177961.865918,-0.010315,0.008911,-0.992859,0.220855,0.172824,-0.008855,46,274,580,5888
1644177961.916444,-0.010254,0.009583,-0.991699,0.190321,0.310229,-0.024122,51,274,587,5936
1644177961.96681,-0.011169,0.008301,-0.992737,0.35826,0.417099,-0.008855,49,275,582,5952
1644177962.06587,-0.011353,0.006592,-0.989624,0.190321,0.264427,-0.039389,53,274,580,5904
1644177962.107042,-0.009094,0.006958,-0.991638,0.266656,0.386565,-0.237863,47,287,586,5952
1644177962.155397,-0.009399,0.007202,-0.996033,0.312458,0.417099,-0.069924,41,269,594,5904
1644177962.203797,-0.010559,0.009155,-0.993347,0.068183,0.386565,-0.069924,49,285,582,5984
1644177962.252213,-0.009949,0.008972,-0.994019,0.251389,0.493435,-0.130992,47,277,575,5904
1644177962.300598,-0.009766,0.009033,-0.993286,0.052916,0.417099,-0.008855,51,271,583,5952
1644177962.348992,-0.008728,0.009033,-0.992188,0.190321,0.417099,0.082748,49,290,582,5872
1644177962.397388,-0.008057,0.008484,-0.992981,0.236122,0.203359,-0.100458,49,275,579,5936
1644177962.445759,-0.006897,0.008362,-0.991638,0.220855,0.356031,0.006412,43,271,597,5936
1644177962.494155,-0.010071,0.010681,-0.992981,0.205588,0.432366,-0.176794,54,260,589,5904
1644177962.542563,-0.009705,0.009827,-0.995056,0.205588,0.493435,-0.222595,48,279,571,5984
1644177962.590954,-0.010193,0.010925,-0.992188,0.144519,0.233893,-0.085191,43,276,587,5936
1644177962.639335,-0.011536,0.008362,-0.992554,0.098718,0.371298,-0.176794,58,274,594,5984
1644177962.687743,-0.010559,0.008301,-0.993347,0.144519,0.569771,0.006412,52,273,598,5952
1644177962.736127,-0.010254,0.006531,-0.992615,0.205588,0.401832,0.021679,45,275,591,5904
1644177962.784645,-0.009705,0.007507,-0.992798,0.205588,0.325496,-0.14626,34,279,585,5984
1644177962.835583,-0.006714,0.007202,-0.99231,0.205588,0.386565,-0.054656,54,280,582,5984
1644177962.885417,-0.010742,0.009766,-0.994812,0.220855,0.340763,-0.115725,53,274,583,5952
1644177962.92992,-0.006653,0.007507,-0.992188,0.266656,0.340763,-0.069924,47,275,589,5952
1644177963.026486,-0.008423,0.009277,-0.991882,0.388794,0.462901,0.021679,52,270,589,5936
1644177963.074988,-0.010986,0.01123,-0.991272,0.297191,0.24916,-0.25313,55,271,583,5936
1644177963.123297,-0.008911,0.00592,-0.99353,0.205588,0.264427,-0.115725,53,279,585,6016
1644177963.171644,-0.01178,0.009644,-0.992981,0.113985,0.371298,-0.25313,59,270,589,5984
1644177963.220036,-0.009155,0.010742,-0.99231,0.022382,0.310229,-0.161527,47,275,584,5984
1644177963.268421,-0.009827,0.009277,-0.993774,0.266656,0.401832,-0.069924,48,269,583,6000
1644177963.316807,-0.008423,0.009888,-0.992554,0.312458,0.417099,-0.176794,49,270,579,5904
1644177963.365219,-0.007019,0.013245,-0.992249,0.251389,0.432366,-0.176794,48,274,587,5904
1644177963.413601,-0.009766,0.008545,-0.990784,0.434595,0.478168,-0.115725,47,270,577,5936
1644177963.461999,-0.012146,0.010132,-0.99292,0.129252,0.371298,-0.054656,53,279,578,5936
1644177963.510374,-0.009338,0.008728,-0.993408,0.236122,0.279695,-0.085191,48,271,585,5904
1644177963.558769,-0.008728,0.011658,-0.991699,0.251389,0.279695,-0.130992,54,268,591,6000
1644177963.607165,-0.009583,0.009705,-0.990173,0.220855,0.523969,-0.161527,47,270,586,6000
1644177963.655567,-0.008667,0.008911,-0.991821,0.175053,0.508702,-0.207328,59,273,584,5952
1644177963.703952,-0.01355,0.007263,-0.993958,0.220855,0.356031,-0.130992,46,279,590,5936
1644177963.752334,-0.009949,0.008179,-0.994141,0.052916,0.417099,-0.192061,46,269,580,5984
1644177963.800743,-0.010132,0.009644,-0.991089,0.327725,0.447634,0.021679,45,275,579,5952
1644177963.84915,-0.01001,0.010559,-0.991455,0.113985,0.417099,-0.130992,46,274,583,5904
1644177963.897848,-0.009644,0.007874,-0.99292,0.159786,0.554504,-0.192061,47,273,582,5936
1644177963.948377,-0.009399,0.010071,-0.99469,0.159786,0.325496,0.052214,45,280,589,6016
1644177963.998737,-0.00824,0.007629,-0.991028,0.266656,0.356031,-0.130992,51,281,583,5904
1644177964.043142,-0.010498,0.00592,-0.990356,0.236122,0.264427,-0.115725,55,274,580,5952
1644177964.139478,-0.009949,0.006897,-0.993042,0.052916,0.310229,-0.100458,47,280,572,5984
1644177964.187856,-0.008423,0.009155,-0.993103,0.205588,0.233893,-0.130992,52,275,584,5952
1644177964.236264,-0.008057,0.009949,-0.994751,0.251389,0.371298,-0.130992,49,275,584,5952
1644177964.284854,-0.010132,0.008606,-0.989563,0.281924,0.493435,0.082748,45,270,577,5952
1644177964.333044,-0.00885,0.008423,-0.993286,0.190321,0.478168,-0.085191,58,283,578,5904
1644177964.381449,-0.01178,0.009644,-0.992798,0.297191,0.462901,-0.085191,53,274,576,5952
1644177964.429842,-0.010559,0.009094,-0.991211,0.434595,0.401832,-0.054656,46,276,583,5952
1644177964.478235,-0.010864,0.012329,-0.993652,0.144519,0.417099,-0.008855,47,275,584,5952
1644177964.52661,-0.010376,0.00946,-0.990906,0.068183,0.24916,-0.192061,55,286,580,6000
1644177964.57513,-0.006714,0.00946,-0.992981,0.129252,0.585038,-0.100458,51,276,585,6000
1644177964.623408,-0.010437,0.009399,-0.99585,0.175053,0.554504,0.036947,55,274,578,5984
1644177964.671797,-0.009583,0.008179,-0.992493,0.068183,0.417099,-0.130992,52,285,575,5904
1644177964.720212,-0.009399,0.010376,-0.992798,0.205588,0.24916,-0.008855,49,277,593,6000
1644177964.768585,-0.010498,0.006348,-0.990906,0.220855,0.432366,0.052214,53,276,587,5952
1644177964.816975,-0.010742,0.009766,-0.989441,0.190321,0.554504,-0.161527,51,281,590,5984
1644177964.865405,-0.00946,0.007935,-0.992859,0.08345,0.279695,-0.054656,51,279,583,6016
1644177964.9138,-0.00885,0.00708,-0.994507,0.175053,0.340763,-0.161527,55,281,583,5952
1644177964.962287,-0.011292,0.010803,-0.993347,0.159786,0.478168,-0.176794,47,263,584,5984
1644177965.010586,-0.012512,0.007935,-0.991943,0.205588,0.401832,-0.207328,54,280,586,5952
1644177965.107328,-0.006958,0.00885,-0.992188,0.052916,0.447634,-0.161527,59,280,582,5936
1644177965.155721,-0.011719,0.008179,-0.988647,0.190321,0.539237,-0.192061,48,286,576,5936
1644177965.20411,-0.010864,0.009949,-0.991943,0.144519,0.462901,-0.176794,47,270,584,5952
1644177965.252506,-0.012939,0.008484,-0.99176,0.312458,0.371298,-0.085191,49,282,579,6000
1644177965.300893,-0.010498,0.00647,-0.989624,0.373527,0.447634,-0.008855,53,264,580,5904
1644177965.349258,-0.00885,0.008911,-0.992798,0.281924,0.447634,-0.085191,46,276,578,5936
1644177965.397678,-0.008423,0.007446,-0.989929,0.113985,0.447634,-0.054656,55,271,583,6000
1644177965.446074,-0.010437,0.009644,-0.992554,0.144519,0.401832,-0.176794,43,274,578,5952
1644177965.494439,-0.010498,0.010071,-0.993103,0.281924,0.340763,0.021679,45,275,586,5936
1644177965.542875,-0.009766,0.008301,-0.993469,0.312458,0.325496,-0.054656,52,275,579,5872
1644177965.591243,-0.012146,0.008118,-0.992249,0.35826,0.356031,0.052214,58,271,590,5952
1644177965.639627,-0.009766,0.009644,-0.993408,0.281924,0.325496,0.113282,55,276,590,5952
1644177965.688024,-0.009277,0.009094,-0.989197,0.327725,0.325496,-0.069924,55,274,585,5984
1644177965.736428,-0.011658,0.010986,-0.98877,0.251389,0.371298,-0.207328,39,281,587,5936
1644177965.784818,-0.008789,0.010376,-0.99176,0.312458,0.340763,-0.024122,47,282,589,5936
1644177965.833228,-0.009216,0.00885,-0.991211,0.098718,0.447634,-0.100458,45,270,582,5872
1644177965.881633,-0.009949,0.009155,-0.992981,0.35826,0.279695,-0.069924,49,270,584,6016
1644177965.930051,-0.011658,0.009094,-0.990112,0.205588,0.279695,-0.100458,49,265,584,5984
1644177965.979852,-0.011047,0.009033,-0.988342,0.068183,0.371298,-0.085191,48,264,583,5984
1644177966.030405,-0.010681,0.010132,-0.991516,0.220855,0.462901,-0.192061,49,280,582,5952
1644177966.085346,-0.010071,0.00592,-0.994141,0.251389,0.401832,-0.054656,51,276,585,6000
1644177966.125299,-0.009644,0.009827,-0.993896,0.236122,0.371298,-0.130992,57,270,589,6000
1644177966.220376,-0.008667,0.004456,-0.99292,0.373527,0.371298,0.052214,61,275,584,5984
1644177966.268776,-0.008423,0.008728,-0.993164,0.373527,0.447634,-0.161527,40,268,591,5952
1644177966.317146,-0.009521,0.005798,-0.992188,0.251389,0.386565,-0.115725,46,271,587,5904
1644177966.365539,-0.008911,0.00885,-0.992981,0.236122,0.340763,-0.054656,48,269,583,5904
1644177966.413953,-0.011963,0.007141,-0.991516,0.266656,0.401832,-0.115725,49,287,586,5984
1644177966.462344,-0.012512,0.011108,-0.991638,0.236122,0.432366,-0.024122,47,273,584,5984
1644177966.510743,-0.008118,0.00946,-0.992065,0.342992,0.340763,0.082748,49,273,591,6000
1644177966.559131,-0.011414,0.008789,-0.990784,0.190321,0.432366,-0.115725,45,277,579,5984
1644177966.607491,-0.009033,0.008972,-0.991211,0.297191,0.417099,-0.14626,57,275,584,5904
1644177966.655914,-0.010376,0.007019,-0.990967,0.175053,0.264427,-0.085191,43,276,585,5904
1644177966.704301,-0.011353,0.01001,-0.990479,0.312458,0.386565,-0.176794,47,285,565,5888
1644177966.752707,-0.010132,0.007751,-0.995544,0.175053,0.478168,-0.222595,45,280,582,5904
1644177966.801075,-0.010986,0.009033,-0.994263,0.190321,0.386565,-0.085191,61,275,589,5952
1644177966.849471,-0.008484,0.009094,-0.994202,0.266656,0.218626,-0.14626,55,279,592,5984
1644177966.897847,-0.007507,0.005798,-0.994141,0.052916,0.279695,-0.25313,43,279,599,5952
1644177966.946249,-0.010132,0.008911,-0.994141,0.159786,0.417099,0.006412,51,274,573,5872
1644177966.994646,-0.008972,0.00946,-0.992432,0.236122,0.432366,-0.039389,43,296,587,5984
1644177967.04326,-0.006287,0.01062,-0.992249,0.236122,0.615573,-0.085191,48,281,587,5984
1644177967.09845,-0.009155,0.006897,-0.992188,0.281924,0.356031,-0.176794,48,271,578,5952
1644177967.141372,-0.008423,0.00824,-0.99115,0.098718,0.417099,-0.207328,43,269,587,5872
1644177967.191498,-0.00769,0.009399,-0.992065,0.159786,0.386565,0.036947,55,276,573,5952
1644177967.241777,-0.008057,0.009033,-0.992371,0.281924,0.371298,0.021679,61,275,577,5984
