epoch,acc_x,acc_y,acc_z,rot_x,rot_y,rot_z,mag_x,mag_y,mag_z,temp
1644171300.027928,-0.010742,0.011292,-0.990051,0.159786,0.432366,-0.069924,59,280,572,5664
1644171300.092309,-0.010254,0.007263,-0.991089,0.35826,0.401832,-0.039389,49,265,579,5696
1644171300.124741,-0.010681,0.009338,-0.990601,0.037649,0.325496,-0.130992,46,286,571,5632
1644171300.173076,-0.008179,0.007935,-0.99054,0.297191,0.340763,-0.176794,47,277,584,5664
1644171300.221445,-0.00946,0.011047,-0.992615,0.281924,0.447634,-0.130992,49,268,589,5728
1644171300.270084,-0.010925,0.008545,-0.99054,0.281924,0.356031,-0.130992,51,269,578,5664
1644171300.31901,-0.01178,0.010559,-0.992676,0.281924,0.523969,-0.008855,53,269,576,5664
1644171300.369485,-0.010437,0.00824,-0.99176,0.068183,0.24916,-0.14626,47,265,572,5760
1644171300.419611,-0.010803,0.00885,-0.991089,0.434595,0.600305,-0.115725,58,276,583,5664
1644171300.464641,-0.009583,0.008911,-0.990234,0.144519,0.386565,-0.237863,49,263,582,5696
1644171300.560185,-0.011169,0.008789,-0.992004,0.220855,0.264427,-0.161527,41,274,576,5664
1644171300.608558,-0.010803,0.011963,-0.992126,0.251389,0.447634,-0.115725,57,277,563,5696
1644171300.656946,-0.008911,0.010071,-0.991516,0.220855,0.264427,-0.161527,54,273,591,5648
1644171300.705387,-0.012634,0.01062,-0.991211,0.281924,0.294962,-0.130992,47,275,579,5664
1644171300.753736,-0.009094,0.008606,-0.992371,0.327725,0.493435,-0.161527,45,280,579,5696
1644171300.802173,-0.011169,0.011475,-0.991821,0.175053,0.203359,-0.192061,48,271,583,5632
1644171300.850535,-0.01178,0.010132,-0.991211,0.175053,0.493435,-0.14626,47,270,589,5728
1644171300.898957,-0.009766,0.008911,-0.991577,0.327725,0.356031,-0.085191,51,283,573,5664
1644171300.94735,-0.010498,0.013611,-0.98877,0.205588,0.401832,-0.25313,53,281,578,5664
1644171300.995712,-0.00946,0.009277,-0.992371,0.388794,0.493435,-0.207328,43,269,571,5664
1644171301.058002,-0.012573,0.009888,-0.992676,0.144519,0.264427,-0.130992,52,275,572,5728
1644171301.0943,-0.010864,0.011536,-0.989624,0.175053,0.432366,-0.176794,48,274,583,5648
1644171301.140932,-0.010559,0.009033,-0.991699,0.404061,0.371298,-0.024122,48,274,578,5696
1644171301.189303,-0.008362,0.011475,-0.992371,-0.038687,0.401832,-0.161527,54,275,579,5696
1644171301.237676,-0.010742,0.00885,-0.992615,0.190321,0.432366,-0.14626,60,281,580,5760
1644171301.286071,-0.012329,0.009338,-0.990906,0.113985,0.417099,-0.161527,53,269,573,5664
1644171301.334477,-0.010376,0.008728,-0.993408,0.144519,0.432366,0.052214,57,265,584,5664
1644171301.383373,-0.01001,0.008423,-0.9953,0.220855,0.325496,-0.130992,58,274,569,5696
1644171301.431808,-0.011841,0.010803,-0.991943,0.144519,0.523969,-0.085191,51,276,578,5664
1644171301.482272,-0.009766,0.009277,-0.991699,0.205588,0.447634,-0.100458,49,268,584,5600
1644171301.532391,-0.009094,0.009644,-0.991394,0.251389,0.401832,-0.192061,60,274,587,5696
1644171301.577158,-0.008789,0.013184,-0.991333,0.205588,0.417099,-0.085191,48,279,578,5696
1644171301.673244,-0.007629,0.009705,-0.989868,0.251389,0.325496,-0.100458,53,279,578,5664
1644171301.72157,-0.012329,0.00647,-0.990173,0.236122,0.356031,-0.176794,49,270,570,5696
1644171301.769998,-0.011841,0.009338,-0.994873,0.281924,0.401832,-0.115725,47,275,572,5760
1644171301.818374,-0.007629,0.010742,-0.990295,0.08345,0.325496,-0.115725,54,270,558,5648
1644171301.866768,-0.008118,0.008728,-0.991638,0.159786,0.417099,-0.161527,47,277,575,5664
1644171301.915182,-0.009766,0.007812,-0.989319,0.205588,0.478168,-0.14626,43,276,580,5776
1644171301.963563,-0.012024,0.010376,-0.990723,0.266656,0.264427,-0.25313,42,287,570,5664
1644171302.011948,-0.010681,0.010864,-0.992615,0.373527,0.401832,-0.25313,55,271,569,5648
1644171302.063584,-0.010254,0.010437,-0.989014,0.46513,0.447634,-0.115725,54,275,579,5728
1644171302.108712,-0.008789,0.008423,-0.993774,0.35826,0.417099,-0.115725,47,275,584,5664
1644171302.157072,-0.007996,0.008728,-0.99115,0.312458,0.310229,-0.176794,52,265,586,5696
1644171302.205467,-0.00946,0.011414,-0.990234,0.312458,0.310229,-0.100458,54,268,575,5664
1644171302.253831,-0.009033,0.009277,-0.99231,0.281924,0.371298,-0.130992,45,268,577,5648
1644171302.302255,-0.011047,0.008606,-0.992859,0.251389,0.432366,0.067481,65,266,587,5696
1644171302.350629,-0.006409,0.01123,-0.992554,0.35826,0.478168,-0.024122,52,265,579,5664
1644171302.399032,-0.011536,0.00946,-0.992249,0.190321,0.478168,-0.069924,51,279,573,5696
1644171302.44742,-0.007446,0.008728,-0.992737,0.266656,0.401832,-0.085191,47,277,575,5696
1644171302.49581,-0.008972,0.008789,-0.98938,0.236122,0.432366,-0.008855,45,275,582,5712
1644171302.544198,-0.009155,0.009583,-0.990479,0.220855,0.417099,-0.039389,51,281,578,5696
1644171302.592897,-0.011169,0.010254,-0.991333,0.480397,0.371298,-0.207328,52,270,575,5776
1644171302.643385,-0.011597,0.008545,-0.99231,0.129252,0.386565,-0.14626,61,273,579,5696
1644171302.693742,-0.007996,0.009521,-0.992432,0.266656,0.310229,-0.130992,41,279,569,5648
1644171302.738771,-0.008118,0.011658,-0.990234,0.342992,0.340763,-0.222595,51,271,576,5728
1644171302.834879,-0.013611,0.007507,-0.990356,0.46513,0.447634,-0.161527,54,265,568,5664
1644171302.882964,-0.012207,0.010376,-0.991028,0.159786,0.356031,-0.192061,53,276,580,5760
1644171302.931352,-0.00946,0.009338,-0.98938,0.281924,0.386565,0.067481,53,274,578,5712
1644171302.979748,-0.010925,0.009766,-0.994568,0.08345,0.264427,-0.008855,49,275,575,5664
1644171303.028147,-0.00946,0.01001,-0.993652,0.175053,0.493435,-0.085191,46,283,576,5808
1644171303.076704,-0.012756,0.00885,-0.992188,0.236122,0.325496,-0.161527,59,268,579,5712
1644171303.124932,-0.010681,0.01001,-0.991394,0.342992,0.356031,-0.14626,42,265,579,5696
1644171303.173294,-0.011536,0.011292,-0.993774,0.297191,0.432366,-0.085191,49,275,568,5696
1644171303.221667,-0.010559,0.009155,-0.993958,0.159786,0.401832,-0.222595,58,264,580,5696
1644171303.27004,-0.009277,0.011047,-0.988831,0.113985,0.417099,-0.100458,57,273,586,5648
1644171303.318447,-0.013123,0.008972,-0.992065,0.281924,0.294962,-0.039389,46,271,571,5696
1644171303.366845,-0.009949,0.009033,-0.99176,0.175053,0.340763,-0.054656,59,275,584,5696
1644171303.415233,-0.008545,0.01062,-0.991882,0.236122,0.401832,-0.14626,46,274,583,5648
1644171303.463636,-0.010864,0.009094,-0.991333,0.205588,0.279695,-0.222595,55,271,580,5664
1644171303.511982,-0.007996,0.009888,-0.993713,0.35826,0.493435,-0.36,54,263,584,5664
1644171303.560408,-0.007812,0.008057,-0.989868,0.281924,0.432366,-0.024122,45,275,570,5696
1644171303.608799,-0.011719,0.009338,-0.988953,0.098718,0.508702,-0.14626,48,271,578,5664
1644171303.657155,-0.008057,0.011963,-0.99176,0.281924,0.401832,0.006412,49,270,577,5664
1644171303.705542,-0.007874,0.010986,-0.991882,0.312458,0.462901,-0.130992,53,271,573,5696
1644171303.754284,-0.012756,0.010376,-0.98938,0.190321,0.356031,-0.237863,59,263,586,5696
1644171303.804996,-0.008606,0.010132,-0.993591,0.266656,0.371298,0.143817,53,269,580,5696
1644171303.856027,-0.012634,0.012085,-0.990295,0.266656,0.356031,0.082748,51,276,573,5696
1644171303.900391,-0.009583,0.011841,-0.993042,0.190321,0.462901,-0.039389,55,271,573,5728
1644171303.995955,-0.008789,0.008606,-0.993835,0.373527,0.432366,0.098015,38,270,575,5696
1644171303.995955,-0.008789,0.008606,-0.993835,0.373527,0.432366,0.098015,38,270,575,5696
1644171304.100825,-0.008911,0.009033,-0.989502,0.266656,0.508702,-0.085191,51,281,585,5760
1644171304.141045,-0.010254,0.010071,-0.990051,0.190321,0.478168,0.006412,45,275,572,5648
1644171304.18948,-0.010864,0.00946,-0.994934,0.190321,0.356031,0.052214,54,280,584,5696
1644171304.237878,-0.008789,0.010376,-0.991943,0.220855,0.447634,0.006412,59,275,582,5696
1644171304.286265,-0.009399,0.009644,-0.992126,0.220855,0.325496,0.067481,54,265,575,5760
1644171304.334669,-0.010254,0.009644,-0.992798,0.251389,0.539237,-0.085191,61,275,575,5664
1644171304.383655,-0.00885,0.009155,-0.994202,0.220855,0.432366,0.006412,47,282,577,5696
1644171304.431447,-0.009949,0.01062,-0.992493,0.297191,0.386565,-0.100458,52,277,575,5696
1644171304.480071,-0.008423,0.010132,-0.989502,0.205588,0.432366,-0.130992,51,269,592,5664
1644171304.530165,-0.009277,0.00946,-0.990479,0.175053,0.401832,-0.024122,51,274,580,5696
1644171304.580382,-0.008423,0.01001,-0.991272,0.312458,0.401832,-0.14626,55,276,573,5648
1644171304.625438,-0.012695,0.011597,-0.990723,0.281924,0.356031,0.052214,60,281,576,5664
1644171304.721781,-0.012634,0.010071,-0.99115,0.342992,0.493435,-0.192061,47,275,582,5712
1644171304.770135,-0.012268,0.011047,-0.992188,0.190321,0.401832,-0.008855,58,269,564,5728
1644171304.818586,-0.008484,0.01178,-0.99408,0.342992,0.386565,-0.192061,55,286,583,5664
1644171304.866974,-0.008667,0.012573,-0.991211,0.281924,0.432366,-0.069924,46,264,569,5600
1644171304.915347,-0.008057,0.009338,-0.991394,0.251389,0.462901,-0.069924,59,268,572,5696
1644171304.963773,-0.00946,0.006897,-0.990112,0.190321,0.478168,-0.115725,61,258,575,5728
1644171305.012234,-0.010315,0.010315,-0.988647,0.46513,0.447634,-0.14626,48,276,571,5696
1644171305.06258,-0.013062,0.008301,-0.992432,0.205588,0.478168,-0.115725,57,285,579,5632
1644171305.108911,-0.010376,0.010925,-0.992188,0.373527,0.478168,-0.176794,59,270,577,5664
1644171305.157296,-0.010437,0.010376,-0.988831,0.068183,0.417099,-0.130992,61,270,575,5712
1644171305.205695,-0.011536,0.008057,-0.991333,0.327725,0.417099,-0.25313,47,268,586,5696
1644171305.254086,-0.008728,0.006653,-0.992676,0.220855,0.417099,0.021679,51,271,583,5664
1644171305.302462,-0.011353,0.011169,-0.992188,0.251389,0.478168,-0.222595,51,274,580,5696
1644171305.350845,-0.011108,0.008057,-0.992188,0.251389,0.371298,-0.024122,51,269,578,5760
1644171305.399261,-0.010254,0.010315,-0.992188,0.205588,0.371298,-0.14626,52,265,577,5664
1644171305.447654,-0.008057,0.009155,-0.991211,0.205588,0.462901,-0.237863,45,275,575,5696
1644171305.496029,-0.008118,0.008484,-0.990112,0.312458,0.386565,-0.314198,47,270,572,5600
1644171305.544493,-0.012024,0.007141,-0.990173,0.373527,0.401832,-0.115725,48,279,580,5696
1644171305.593565,-0.010193,0.008179,-0.991455,0.297191,0.447634,-0.085191,54,268,579,5696
1644171305.644013,-0.010864,0.008667,-0.990601,0.312458,0.310229,0.006412,45,277,572,5712
1644171305.694001,-0.009766,0.011047,-0.991333,0.175053,0.523969,0.052214,52,265,579,5712
1644171305.739105,-0.008362,0.010864,-0.990601,0.297191,0.386565,-0.039389,51,274,576,5696
1644171305.834914,-0.010498,0.009338,-0.990967,0.281924,0.386565,-0.054656,55,276,571,5648
1644171305.883203,-0.010986,0.010986,-0.987732,0.205588,0.417099,-0.207328,53,276,578,5696
1644171305.931544,-0.011169,0.009705,-0.991211,0.236122,0.356031,-0.054656,45,273,570,5664
1644171305.979975,-0.010986,0.008423,-0.992676,0.129252,0.310229,-0.192061,47,270,577,5632
1644171306.028338,-0.007446,0.010498,-0.993591,0.236122,0.401832,0.036947,48,264,573,5712
1644171306.08489,-0.010254,0.010071,-0.990784,0.327725,0.356031,-0.069924,55,271,583,5696
1644171306.125281,-0.011475,0.007385,-0.990112,0.190321,0.24916,-0.008855,41,274,578,5760
1644171306.1735,-0.008118,0.011841,-0.990173,0.129252,0.294962,-0.039389,52,270,572,5664
1644171306.221896,-0.011414,0.011475,-0.992493,0.175053,0.508702,-0.054656,55,283,576,5728
1644171306.27029,-0.008484,0.010681,-0.990051,0.175053,0.310229,-0.100458,51,279,566,5696
1644171306.318683,-0.010254,0.010437,-0.990112,0.251389,0.447634,0.082748,51,271,580,5712
1644171306.367065,-0.010376,0.010925,-0.991028,0.373527,0.386565,-0.085191,51,271,576,5648
1644171306.415456,-0.009705,0.009216,-0.98877,0.08345,0.340763,-0.100458,59,280,577,5696
1644171306.463853,-0.005859,0.009644,-0.989746,0.159786,0.478168,-0.100458,42,275,577,5664
1644171306.512237,-0.009155,0.009705,-0.990906,0.022382,0.279695,0.036947,51,283,578,5712
1644171306.560592,-0.010864,0.006958,-0.99292,0.495664,0.432366,-0.054656,51,266,587,5696
1644171306.60901,-0.009888,0.01355,-0.991577,0.495664,0.508702,0.082748,57,275,575,5696
1644171306.657374,-0.007751,0.010071,-0.991638,0.419328,0.356031,-0.237863,43,271,583,5664
1644171306.705795,-0.007996,0.010193,-0.991821,0.129252,0.417099,-0.069924,52,265,586,5760
1644171306.754475,-0.007996,0.009033,-0.990723,0.144519,0.310229,-0.024122,52,277,579,5600
1644171306.804997,-0.009521,0.007263,-0.992737,0.297191,0.447634,-0.069924,54,270,584,5632
1644171306.855452,-0.009277,0.012573,-0.987732,0.144519,0.462901,0.052214,60,266,576,5760
1644171306.900624,-0.010193,0.010254,-0.991211,0.236122,0.417099,-0.130992,42,273,572,5696
1644171306.99618,-0.009155,0.012695,-0.990356,0.297191,0.401832,-0.207328,48,274,580,5696
1644171307.057236,-0.008606,0.011414,-0.991577,0.251389,0.417099,-0.085191,49,273,584,5696
1644171307.098344,-0.008972,0.009155,-0.991272,0.342992,0.325496,-0.054656,53,271,576,5648
1644171307.141342,-0.009644,0.011169,-0.992493,0.113985,0.462901,-0.207328,48,266,564,5712
1644171307.189708,-0.009766,0.010437,-0.991638,0.113985,0.432366,-0.039389,51,269,576,5664
1644171307.238092,-0.007996,0.01062,-0.991394,0.35826,0.356031,-0.161527,58,279,571,5728
1644171307.28648,-0.011902,0.008362,-0.992737,0.281924,0.493435,0.12855,46,274,564,5664
1644171307.33487,-0.010437,0.008179,-0.99115,0.129252,0.386565,-0.024122,52,285,577,5696
1644171307.383282,-0.008606,0.008911,-0.990234,0.266656,0.279695,-0.115725,49,273,584,5664
1644171307.431674,-0.009155,0.012695,-0.996582,0.297191,0.539237,-0.085191,47,280,577,5712
1644171307.480061,-0.010315,0.015137,-0.989258,0.190321,0.279695,-0.054656,57,270,575,5664
1644171307.52843,-0.008118,0.012634,-0.990662,0.266656,0.401832,0.006412,58,281,583,5664
1644171307.576803,-0.010132,0.010071,-0.99292,0.08345,0.279695,-0.161527,57,273,584,5696
1644171307.625539,-0.009949,0.009338,-0.991211,0.205588,0.432366,-0.054656,58,271,571,5696
1644171307.674437,-0.00885,0.009033,-0.992554,0.281924,0.325496,-0.222595,58,266,578,5696
1644171307.725029,-0.010376,0.010498,-0.990479,0.251389,0.386565,-0.14626,48,262,580,5696
1644171307.775164,-0.008972,0.010498,-0.991821,0.175053,0.493435,-0.054656,52,270,575,5664
1644171307.867171,-0.01239,0.010925,-0.992188,0.175053,0.203359,-0.207328,49,273,570,5728
1644171307.915581,-0.005127,0.012756,-0.99231,0.251389,0.325496,-0.100458,49,270,572,5696
1644171307.964004,-0.008362,0.011658,-0.991089,0.312458,0.462901,-0.024122,43,271,569,5696
1644171308.012431,-0.011353,0.005798,-0.990845,0.175053,0.539237,-0.161527,54,270,575,5600
1644171308.063441,-0.010376,0.009033,-0.991699,0.190321,0.478168,-0.069924,47,268,575,5664
1644171308.109132,-0.010193,0.008118,-0.99176,0.144519,0.386565,-0.069924,52,268,582,5712
1644171308.157513,-0.011719,0.011536,-0.991943,0.098718,0.401832,0.143817,40,280,577,5760
1644171308.205922,-0.008301,0.00885,-0.990601,0.281924,0.356031,-0.14626,43,271,583,5664
1644171308.254281,-0.009705,0.004578,-0.991577,0.266656,0.478168,-0.100458,58,276,571,5648
1644171308.302679,-0.01239,0.00885,-0.990906,0.236122,0.462901,-0.161527,55,266,587,5696
1644171308.351077,-0.005798,0.009766,-0.990601,0.373527,0.417099,0.021679,43,276,580,5664
1644171308.399474,-0.011475,0.009888,-0.993225,0.251389,0.264427,-0.085191,53,274,576,5712
1644171308.447853,-0.009094,0.010498,-0.990784,0.297191,0.493435,-0.130992,53,281,576,5728
1644171308.496253,-0.007446,0.010071,-0.989014,0.266656,0.371298,-0.161527,38,270,579,5584
1644171308.544745,-0.011292,0.009094,-0.991821,0.373527,0.600305,-0.14626,52,275,582,5712
1644171308.593034,-0.008606,0.010559,-0.993164,0.266656,0.356031,-0.207328,59,275,575,5728
1644171308.641422,-0.00708,0.009888,-0.991028,0.281924,0.24916,-0.115725,48,269,587,5696
1644171308.689814,-0.008667,0.009766,-0.991333,0.312458,0.478168,0.067481,49,282,586,5760
1644171308.73819,-0.011719,0.010254,-0.991882,0.266656,0.401832,-0.069924,47,270,579,5664
1644171308.78735,-0.009399,0.005859,-0.988342,0.144519,0.401832,-0.14626,54,273,579,5760
1644171308.837772,-0.007629,0.009399,-0.992371,0.251389,0.447634,-0.054656,54,277,575,5712
1644171308.888199,-0.013428,0.011292,-0.992798,0.205588,0.447634,-0.222595,57,270,577,5712
1644171308.932709,-0.01178,0.008911,-0.99292,0.312458,0.417099,-0.054656,51,269,571,5696
1644171309.028578,-0.008484,0.009949,-0.989197,0.190321,0.432366,-0.100458,41,271,590,5648
1644171309.079124,-0.010925,0.011719,-0.993164,0.175053,0.340763,-0.085191,57,270,579,5696
1644171309.125411,-0.008789,0.009949,-0.993347,0.342992,0.417099,-0.039389,53,274,590,5696
1644171309.173727,-0.008362,0.010071,-0.990662,0.312458,0.356031,-0.100458,58,276,583,5664
1644171309.222174,-0.00885,0.009399,-0.991394,0.266656,0.371298,-0.161527,46,274,576,5696
1644171309.270483,-0.009277,0.009583,-0.990967,0.251389,0.493435,-0.069924,42,277,575,5696
1644171309.318901,-0.013,0.011658,-0.992615,0.251389,0.340763,-0.054656,48,271,578,5632
1644171309.367286,-0.01001,0.008789,-0.990356,0.175053,0.340763,-0.039389,52,275,577,5648
1644171309.415681,-0.012756,0.011475,-0.992126,0.327725,0.340763,-0.008855,45,268,577,5696
1644171309.464055,-0.010193,0.009399,-0.991699,0.404061,0.539237,-0.085191,48,276,580,5664
1644171309.512453,-0.009766,0.014282,-0.991455,0.205588,0.432366,-0.069924,48,279,580,5664
1644171309.560827,-0.010803,0.008972,-0.992126,0.037649,0.523969,-0.115725,60,271,580,5664
1644171309.609236,-0.006348,0.008118,-0.991211,0.434595,0.279695,-0.054656,46,274,580,5696
1644171309.657624,-0.008972,0.010315,-0.990601,0.236122,0.539237,-0.008855,52,265,568,5696
1644171309.706014,-0.009399,0.009216,-0.992004,0.297191,0.447634,-0.14626,43,281,585,5648
1644171309.754382,-0.009888,0.011719,-0.992188,0.205588,0.432366,-0.130992,57,280,586,5712
1644171309.802834,-0.008789,0.013184,-0.992188,0.388794,0.310229,-0.069924,53,276,578,5696
1644171309.851248,-0.010315,0.00885,-0.994141,0.297191,0.554504,-0.039389,55,266,571,5648
1644171309.900989,-0.00708,0.009827,-0.992371,0.129252,0.432366,-0.130992,55,274,576,5664
1644171309.951266,-0.009705,0.009949,-0.991211,0.205588,0.371298,-0.237863,49,270,579,5696
1644171310.001385,-0.010376,0.011475,-0.991699,0.342992,0.340763,0.098015,48,271,592,5696
1644171310.093463,-0.010376,0.010132,-0.99469,0.388794,0.371298,-0.069924,52,280,584,5728
1644171310.141542,-0.01001,0.009338,-0.994202,0.251389,0.24916,-0.008855,52,268,575,5632
1644171310.189921,-0.009399,0.007141,-0.990417,0.251389,0.386565,-0.085191,51,271,580,5712
1644171310.238308,-0.007935,0.01001,-0.989197,0.159786,0.294962,-0.069924,53,276,585,5648
1644171310.286688,-0.009094,0.008972,-0.993042,0.220855,0.264427,-0.069924,55,283,578,5664
1644171310.335125,-0.008728,0.014038,-0.989258,0.159786,0.478168,-0.115725,57,275,579,5664
1644171310.383472,-0.008057,0.008179,-0.990479,0.327725,0.371298,-0.024122,52,268,579,5712
1644171310.431865,-0.008545,0.009399,-0.992004,0.251389,0.447634,-0.237863,55,269,580,5728
1644171310.480268,-0.011047,0.010925,-0.991455,0.251389,0.432366,-0.039389,52,275,577,5648
1644171310.52866,-0.010742,0.009949,-0.991455,0.236122,0.371298,-0.161527,43,262,583,5664
1644171310.577059,-0.01001,0.007996,-0.994446,0.297191,0.447634,-0.130992,46,266,585,5664
1644171310.625422,-0.008179,0.010437,-0.992065,0.159786,0.371298,-0.100458,46,279,569,5664
1644171310.67385,-0.010254,0.009338,-0.989929,0.251389,0.447634,0.006412,53,269,590,5648
1644171310.722244,-0.011658,0.013,-0.991943,0.281924,0.478168,-0.130992,45,280,582,5664
1644171310.770614,-0.007019,0.00769,-0.994141,0.281924,0.264427,-0.024122,59,280,586,5584
1644171310.819044,-0.011963,0.008911,-0.992004,0.266656,0.432366,-0.054656,46,264,580,5696
1644171310.867437,-0.010925,0.010254,-0.989014,0.037649,0.386565,-0.100458,48,281,580,5648
1644171310.915894,-0.011536,0.006287,-0.993103,0.35826,0.371298,-0.176794,54,277,568,5712
1644171310.96428,-0.013123,0.009766,-0.991272,-0.008153,0.325496,-0.268397,58,269,580,5664
1644171311.014311,-0.00946,0.006653,-0.992432,0.312458,0.401832,-0.085191,58,281,578,5728
1644171311.091219,-0.012024,0.010803,-0.991028,0.35826,0.493435,-0.14626,53,274,580,5648
1644171311.109399,-0.010132,0.007202,-0.990356,0.251389,0.478168,-0.039389,51,276,578,5712
1644171311.206101,-0.011292,0.008606,-0.991333,0.281924,0.340763,-0.024122,55,271,573,5648
1644171311.254523,-0.009033,0.011292,-0.993103,0.144519,0.432366,-0.161527,64,263,565,5648
1644171311.302921,-0.008728,0.00946,-0.99115,0.404061,0.294962,-0.100458,48,281,578,5696
1644171311.351292,-0.007019,0.011414,-0.99176,0.251389,0.478168,-0.192061,53,259,578,5760
1644171311.39969,-0.01062,0.008118,-0.991943,0.297191,0.294962,0.036947,57,277,579,5696
1644171311.448068,-0.011353,0.010498,-0.991943,0.144519,0.233893,0.006412,42,273,572,5760
1644171311.496443,-0.009399,0.007507,-0.992859,0.175053,0.493435,-0.054656,48,288,571,5664
1644171311.544873,-0.012085,0.010376,-0.992126,0.297191,0.432366,-0.069924,43,279,576,5648
1644171311.593257,-0.006775,0.01062,-0.988525,0.312458,0.356031,0.036947,47,268,579,5664
1644171311.641651,-0.009277,0.011414,-0.99054,0.113985,0.417099,-0.054656,41,286,580,5712
1644171311.690017,-0.010681,0.01123,-0.990967,0.297191,0.356031,-0.039389,48,276,576,5648
1644171311.738435,-0.008423,0.008545,-0.989624,0.342992,0.279695,-0.054656,49,270,579,5728
1644171311.786823,-0.007568,0.009827,-0.991089,0.129252,0.356031,0.174351,53,274,585,5728
1644171311.835263,-0.006714,0.011414,-0.992004,0.220855,0.294962,-0.115725,60,276,580,5664
1644171311.883649,-0.01001,0.008362,-0.992981,0.190321,0.386565,-0.024122,55,281,587,5712
1644171311.932029,-0.009277,0.01123,-0.991516,0.236122,0.401832,-0.130992,48,269,580,5696
1644171311.980413,-0.011841,0.010071,-0.992126,0.144519,0.539237,-0.069924,49,280,575,5728
1644171312.029585,-0.008057,0.008423,-0.993103,0.098718,0.417099,-0.115725,48,274,571,5712
1644171312.087735,-0.010437,0.013367,-0.987427,0.236122,0.310229,-0.008855,48,274,587,5696
1644171312.127652,-0.009521,0.010742,-0.989563,0.205588,0.462901,0.006412,51,276,571,5664
1644171312.176246,-0.009766,0.011292,-0.992371,0.205588,0.462901,-0.115725,58,271,583,5760
1644171312.226478,-0.008362,0.010864,-0.991699,0.266656,0.371298,-0.222595,58,266,590,5664
1644171312.271467,-0.011841,0.008301,-0.992676,0.419328,0.325496,-0.222595,57,270,575,5728
1644171312.367491,-0.010681,0.009277,-0.990906,0.190321,0.371298,0.006412,40,280,577,5760
1644171312.415868,-0.011414,0.011902,-0.988342,0.159786,0.417099,0.067481,41,279,569,5664
1644171312.464281,-0.008728,0.010437,-0.991699,0.205588,0.508702,-0.161527,57,277,584,5712
1644171312.512678,-0.006775,0.009399,-0.992737,0.297191,0.356031,-0.192061,46,274,576,5696
1644171312.561057,-0.009399,0.010193,-0.992004,0.159786,0.447634,-0.069924,49,265,570,5664
1644171312.609447,-0.010559,0.012268,-0.992249,0.08345,0.401832,-0.130992,59,270,575,5696
1644171312.657852,-0.009949,0.010132,-0.991394,0.327725,0.386565,-0.039389,46,286,569,5696
1644171312.706232,-0.008118,0.00885,-0.992188,0.281924,0.432366,-0.024122,53,274,578,5664
1644171312.754672,-0.006958,0.009766,-0.993713,0.327725,0.462901,-0.085191,55,269,569,5760
1644171312.803006,-0.009888,0.01062,-0.991638,0.236122,0.432366,-0.115725,49,282,577,5696
1644171312.851458,-0.009399,0.013245,-0.990906,0.144519,0.356031,0.006412,39,271,578,5696
1644171312.899831,-0.010498,0.009338,-0.99115,0.404061,0.417099,-0.069924,46,281,576,5712
1644171312.948232,-0.00885,0.00946,-0.988892,0.236122,0.432366,-0.085191,46,276,585,5696
1644171312.996649,-0.006897,0.014038,-0.992554,0.342992,0.294962,0.021679,62,269,590,5712
1644171313.057527,-0.009399,0.008179,-0.992432,0.159786,0.310229,0.021679,51,269,578,5696
1644171313.098727,-0.009338,0.010864,-0.993286,0.327725,0.264427,-0.268397,47,273,577,5696
1644171313.14177,-0.01123,0.012512,-0.990173,0.480397,0.554504,-0.100458,52,265,593,5648
1644171313.19014,-0.01001,0.012207,-0.989197,0.144519,0.447634,-0.176794,49,277,589,5760
1644171313.238867,-0.01001,0.008423,-0.992188,0.404061,0.432366,0.021679,43,281,587,5712
1644171313.287815,-0.010559,0.012268,-0.989441,0.159786,0.325496,-0.14626,53,279,580,5600
1644171313.338346,-0.007446,0.009216,-0.991699,0.266656,0.356031,-0.115725,55,269,578,5696
1644171313.388401,-0.009033,0.008057,-0.990051,0.297191,0.523969,-0.130992,53,274,576,5712
1644171313.480504,-0.009949,0.008179,-0.990845,0.175053,0.325496,0.021679,45,273,586,5664
1644171313.528871,-0.010559,0.008728,-0.991882,0.159786,0.462901,-0.222595,41,274,583,5664
1644171313.577266,-0.011353,0.007935,-0.990906,0.266656,0.401832,-0.25313,57,268,575,5664
1644171313.625653,-0.010681,0.01001,-0.989868,0.281924,0.417099,-0.115725,60,276,578,5664
1644171313.674064,-0.007568,0.010498,-0.990051,0.327725,0.462901,-0.069924,54,282,584,5728
1644171313.722463,-0.012878,0.006958,-0.992371,0.159786,0.401832,-0.085191,42,268,584,5696
1644171313.770838,-0.007019,0.009033,-0.993103,0.236122,0.24916,-0.14626,48,274,580,5664
1644171313.819232,-0.009583,0.009399,-0.991455,0.281924,0.264427,-0.024122,49,275,579,5696
1644171313.867655,-0.010864,0.009888,-0.989502,0.175053,0.356031,-0.085191,55,271,576,5712
1644171313.916042,-0.010986,0.007874,-0.991882,0.236122,0.294962,-0.176794,51,283,571,5712
1644171313.964421,-0.012451,0.012939,-0.992188,0.327725,0.356031,-0.054656,52,270,572,5696
1644171314.012804,-0.013123,0.010376,-0.990234,0.312458,0.401832,-0.039389,47,282,586,5632
1644171314.068219,-0.009827,0.010437,-0.99054,0.297191,0.417099,-0.130992,45,275,568,5648
1644171314.109621,-0.007751,0.009888,-0.992615,0.205588,0.401832,-0.222595,54,285,575,5664
1644171314.157956,-0.012878,0.008606,-0.992493,0.236122,0.356031,-0.039389,52,273,579,5664
1644171314.206346,-0.010925,0.012329,-0.991272,0.35826,0.401832,0.006412,49,275,575,5600
1644171314.254723,-0.009827,0.010132,-0.991028,0.205588,0.508702,-0.130992,52,277,575,5696
1644171314.30311,-0.008484,0.008911,-0.991638,0.281924,0.371298,-0.176794,57,277,577,5600
1644171314.351727,-0.009094,0.008911,-0.991272,0.175053,0.386565,-0.085191,55,276,569,5664
1644171314.402277,-0.007629,0.008545,-0.992371,0.098718,0.432366,-0.008855,48,274,571,5728
1644171314.452753,-0.010071,0.012329,-0.992249,0.388794,0.340763,0.174351,58,266,580,5664
1644171314.49778,-0.008484,0.009644,-0.993164,0.205588,0.447634,-0.054656,45,268,571,5696
1644171314.593488,-0.005493,0.010376,-0.991516,0.373527,0.401832,-0.161527,46,264,578,5728
1644171314.641838,-0.00885,0.009033,-0.990906,0.08345,0.478168,-0.085191,52,275,582,5712
1644171314.690259,-0.01001,0.01062,-0.98999,0.236122,0.478168,-0.054656,54,268,579,5760
1644171314.738643,-0.008911,0.008423,-0.991333,0.205588,0.447634,-0.100458,57,265,579,5648
1644171314.787028,-0.01355,0.009094,-0.99115,0.266656,0.24916,-0.008855,47,277,579,5712
1644171314.835416,-0.011169,0.009338,-0.994019,0.175053,0.310229,-0.222595,58,271,576,5664
1644171314.88385,-0.010498,0.009094,-0.992188,0.129252,0.371298,-0.054656,57,275,579,5648
1644171314.932307,-0.010071,0.01001,-0.989441,0.251389,0.600305,-0.085191,54,268,568,5664
1644171314.980643,-0.011597,0.009399,-0.989258,0.098718,0.462901,0.021679,43,271,578,5664
1644171315.029032,-0.010498,0.009949,-0.99054,0.205588,0.462901,-0.222595,58,274,576,5648
1644171315.088841,-0.009094,0.010193,-0.99469,0.35826,0.294962,-0.024122,49,277,584,5664
1644171315.125823,-0.01178,0.010193,-0.991272,0.297191,0.401832,-0.237863,57,275,575,5664
1644171315.174172,-0.010254,0.011475,-0.991272,0.35826,0.447634,-0.14626,55,271,576,5664
1644171315.222903,-0.011963,0.010681,-0.991211,0.220855,0.233893,-0.069924,52,282,584,5696
1644171315.271742,-0.010193,0.008911,-0.991577,0.220855,0.523969,-0.14626,52,282,579,5696
1644171315.322402,-0.008606,0.011475,-0.990906,0.266656,0.340763,0.021679,49,277,584,5728
1644171315.372533,-0.012146,0.009949,-0.99115,0.129252,0.371298,-0.008855,49,277,577,5696
1644171315.417355,-0.007874,0.009521,-0.992126,0.144519,0.325496,-0.100458,58,264,571,5728
1644171315.512898,-0.009583,0.006653,-0.993469,0.312458,0.325496,-0.069924,45,275,572,5648
1644171315.561289,-0.010559,0.011475,-0.992737,0.251389,0.432366,-0.069924,53,276,576,5664
1644171315.609665,-0.011536,0.009338,-0.990662,0.220855,0.478168,-0.039389,39,281,573,5696
1644171315.658075,-0.009216,0.009827,-0.991455,0.175053,0.356031,-0.054656,43,269,573,5712
1644171315.706455,-0.009521,0.009155,-0.991089,0.175053,0.294962,-0.085191,45,265,572,5664
1644171315.754843,-0.010315,0.008118,-0.99054,0.297191,0.294962,0.052214,48,274,569,5664
1644171315.803246,-0.010559,0.010193,-0.993774,0.312458,0.401832,-0.008855,49,265,577,5696
1644171315.851629,-0.009033,0.009644,-0.991882,0.159786,0.462901,-0.14626,58,262,559,5664
1644171315.900054,-0.012146,0.005676,-0.991882,0.205588,0.310229,-0.14626,53,283,580,5696
1644171315.948453,-0.011414,0.009827,-0.992859,0.373527,0.462901,0.036947,52,268,582,5664
1644171315.996821,-0.008789,0.007568,-0.992249,0.312458,0.356031,-0.069924,59,275,586,5696
1644171316.06393,-0.009949,0.011719,-0.990845,0.297191,0.233893,-0.100458,42,270,568,5648
1644171316.096572,-0.009583,0.009583,-0.992432,0.251389,0.417099,-0.054656,53,269,578,5664
1644171316.142023,-0.010864,0.012939,-0.991882,0.266656,0.340763,-0.207328,51,279,580,5648
1644171316.190409,-0.00769,0.011353,-0.993103,0.266656,0.478168,-0.222595,52,273,570,5728
1644171316.238804,-0.009277,0.010132,-0.990906,0.297191,0.356031,-0.161527,46,271,585,5712
1644171316.287161,-0.011902,0.008484,-0.992188,0.35826,0.432366,-0.115725,48,264,580,5664
1644171316.335647,-0.006714,0.012512,-0.991516,0.159786,0.447634,-0.039389,43,274,580,5664
1644171316.383978,-0.011841,0.009705,-0.990173,0.205588,0.523969,0.067481,48,271,571,5696
1644171316.433858,-0.00647,0.009155,-0.991699,0.236122,0.356031,-0.054656,54,270,577,5728
1644171316.484056,-0.00824,0.009583,-0.989807,0.35826,0.523969,-0.069924,42,275,579,5712
1644171316.534458,-0.008362,0.010742,-0.992004,0.236122,0.371298,-0.069924,48,274,573,5648
1644171316.579022,-0.01123,0.007568,-0.992065,0.297191,0.432366,-0.161527,46,271,573,5712
1644171316.674335,-0.008789,0.008362,-0.992004,0.342992,0.447634,0.021679,53,271,571,5696
1644171316.722719,-0.010315,0.007385,-0.992065,0.236122,0.462901,-0.100458,55,276,585,5664
1644171316.771087,-0.010681,0.007935,-0.991394,0.08345,0.432366,-0.115725,52,273,572,5696
1644171316.819468,-0.010681,0.010864,-0.991028,0.327725,0.478168,-0.085191,49,275,577,5696
1644171316.86787,-0.01062,0.010376,-0.992493,0.190321,0.417099,-0.130992,48,271,576,5664
1644171316.91626,-0.010986,0.009583,-0.994507,0.190321,0.432366,-0.115725,51,266,578,5696
1644171316.964679,-0.01062,0.009033,-0.991516,0.159786,0.310229,-0.176794,45,277,568,5664
1644171317.01303,-0.012024,0.006958,-0.989075,0.190321,0.325496,-0.130992,34,262,580,5696
1644171317.065311,-0.010498,0.010437,-0.99353,0.205588,0.340763,-0.192061,46,276,576,5696
1644171317.109741,-0.01001,0.011414,-0.991699,0.327725,0.462901,-0.008855,51,274,573,5664
1644171317.158175,-0.011108,0.012756,-0.994507,0.281924,0.462901,-0.14626,47,275,572,5664
1644171317.206573,-0.010803,0.009766,-0.992737,0.098718,0.508702,-0.069924,51,274,573,5760
1644171317.255096,-0.007263,0.010498,-0.992004,0.190321,0.447634,-0.115725,54,277,582,5696
1644171317.303353,-0.010437,0.007263,-0.988708,0.037649,0.447634,-0.115725,48,274,576,5712
1644171317.351735,-0.010071,0.009827,-0.992493,0.251389,0.264427,-0.314198,59,265,584,5696
1644171317.400141,-0.010986,0.012024,-0.991089,0.175053,0.539237,-0.085191,47,280,582,5696
1644171317.448539,-0.007812,0.01001,-0.992554,0.144519,0.401832,-0.100458,59,277,582,5728
1644171317.496915,-0.010254,0.010071,-0.988708,0.297191,0.325496,-0.069924,41,279,569,5648
1644171317.545307,-0.01001,0.010498,-0.994324,0.236122,0.462901,0.021679,51,276,580,5664
1644171317.593732,-0.008972,0.009644,-0.990845,0.220855,0.585038,-0.100458,60,257,576,5664
1644171317.64414,-0.010132,0.011536,-0.990356,0.08345,0.157557,-0.222595,53,269,571,5664
1644171317.694331,-0.013794,0.011108,-0.991028,0.098718,0.386565,-0.039389,42,270,577,5696
1644171317.739497,-0.008911,0.008118,-0.990479,0.205588,0.523969,-0.298931,53,269,580,5648
1644171317.835663,-0.013916,0.010437,-0.991272,0.205588,0.294962,-0.237863,52,273,584,5664
1644171317.884084,-0.008728,0.012329,-0.989014,0.144519,0.462901,-0.237863,57,275,586,5696
1644171317.932472,-0.008423,0.008423,-0.991455,0.190321,0.493435,-0.069924,45,277,579,5696
1644171317.980854,-0.007263,0.008301,-0.989258,0.220855,0.386565,-0.085191,58,276,564,5712
1644171318.029229,-0.011597,0.011414,-0.992737,0.297191,0.417099,-0.100458,49,275,577,5728
1644171318.084866,-0.010681,0.010315,-0.992798,0.159786,0.417099,-0.100458,55,274,569,5760
1644171318.125988,-0.009644,0.008362,-0.992249,0.236122,0.401832,-0.024122,48,276,573,5664
1644171318.17441,-0.010376,0.011719,-0.990784,0.35826,0.386565,-0.14626,54,265,577,5712
1644171318.222776,-0.012939,0.009888,-0.992615,0.388794,0.569771,-0.039389,55,276,583,5664
1644171318.271142,-0.010681,0.007263,-0.993835,0.251389,0.432366,-0.039389,48,276,576,5664
1644171318.319543,-0.010132,0.009949,-0.993591,0.220855,0.371298,-0.14626,47,273,579,5664
1644171318.367942,-0.009216,0.010925,-0.992554,0.205588,0.554504,-0.008855,59,277,577,5696
1644171318.416356,-0.010925,0.00885,-0.987976,0.312458,0.417099,-0.100458,34,274,587,5648
1644171318.465842,-0.011353,0.006165,-0.991028,0.236122,0.340763,-0.085191,51,269,576,5664
1644171318.516275,-0.010437,0.006714,-0.993408,0.159786,0.310229,0.006412,49,282,584,5712
1644171318.566454,-0.00769,0.010376,-0.993103,0.190321,0.340763,-0.024122,49,263,577,5728
1644171318.65831,-0.00946,0.009705,-0.991821,0.342992,0.432366,0.082748,52,277,568,5648
1644171318.706667,-0.010315,0.011047,-0.993164,0.144519,0.279695,-0.192061,46,276,578,5712
1644171318.75528,-0.008484,0.009155,-0.990112,0.419328,0.447634,-0.039389,45,270,578,5760
1644171318.803612,-0.006958,0.008362,-0.993896,0.205588,0.585038,0.021679,54,270,584,5664
1644171318.851883,-0.013062,0.007324,-0.993713,0.35826,0.371298,-0.115725,47,275,572,5664
1644171318.900295,-0.010315,0.009338,-0.991882,0.342992,0.401832,-0.130992,46,274,583,5728
1644171318.948676,-0.010742,0.010376,-0.991638,0.266656,0.462901,0.036947,53,276,576,5664
1644171318.997046,-0.009888,0.01062,-0.991211,0.159786,0.356031,-0.14626,48,279,578,5648
1644171319.063961,-0.009338,0.007324,-0.993286,0.281924,0.447634,-0.14626,53,274,587,5728
1644171319.098656,-0.010132,0.011719,-0.994568,0.266656,0.203359,-0.085191,46,279,583,5728
1644171319.14225,-0.010986,0.010742,-0.992493,0.236122,0.310229,-0.25313,53,269,571,5696
1644171319.190601,-0.010925,0.010925,-0.990662,0.190321,0.417099,-0.085191,52,280,575,5648
1644171319.238977,-0.010193,0.008118,-0.992126,0.205588,0.554504,-0.085191,51,288,585,5648
1644171319.287369,-0.011719,0.010864,-0.990967,0.327725,0.462901,0.113282,45,263,577,5664
1644171319.335754,-0.010681,0.008911,-0.990173,0.220855,0.462901,-0.130992,49,280,579,5712
1644171319.384165,-0.011169,0.009705,-0.993652,0.175053,0.188092,-0.237863,48,279,576,5696
1644171319.432713,-0.008728,0.010925,-0.990417,0.236122,0.447634,0.006412,51,274,580,5648
1644171319.480947,-0.011414,0.013184,-0.992126,0.312458,0.417099,-0.161527,52,263,582,5664
1644171319.530354,-0.008545,0.012512,-0.991028,0.388794,0.417099,-0.085191,61,270,577,5696
1644171319.580867,-0.009399,0.012146,-0.988647,0.08345,0.432366,-0.085191,49,282,579,5664
1644171319.630955,-0.009705,0.010681,-0.993103,0.251389,0.462901,-0.039389,42,265,579,5712
1644171319.722919,-0.011108,0.009521,-0.990601,0.205588,0.401832,-0.054656,52,275,577,5696
1644171319.771258,-0.01123,0.008972,-0.991394,0.312458,0.462901,-0.130992,60,276,578,5760
1644171319.819663,-0.010925,0.01062,-0.994751,0.236122,0.539237,0.036947,45,270,579,5648
1644171319.868085,-0.012329,0.009949,-0.993286,0.251389,0.508702,-0.100458,55,283,576,5760
1644171319.916487,-0.012878,0.008484,-0.991272,0.327725,0.539237,0.052214,48,283,571,5696
1644171319.964886,-0.009155,0.010254,-0.991394,0.220855,0.508702,-0.25313,57,275,572,5664
1644171320.013273,-0.007996,0.011902,-0.990417,0.236122,0.432366,-0.069924,47,282,572,5664
1644171320.066115,-0.008667,0.009033,-0.990479,0.312458,0.325496,-0.008855,52,277,572,5712
1644171320.110084,-0.007751,0.007385,-0.992493,0.251389,0.386565,0.021679,48,281,578,5712
1644171320.158807,-0.010498,0.010559,-0.991699,0.327725,0.462901,0.036947,48,274,573,5664
1644171320.206784,-0.012878,0.009583,-0.992432,0.297191,0.325496,-0.192061,51,271,576,5696
1644171320.255267,-0.008606,0.010376,-0.993896,0.251389,0.523969,-0.176794,55,274,580,5728
1644171320.303588,-0.01123,0.011475,-0.989624,0.281924,0.325496,-0.25313,48,264,580,5712
1644171320.351966,-0.009155,0.01239,-0.992798,0.281924,0.401832,-0.069924,49,273,570,5664
1644171320.400357,-0.009949,0.008667,-0.992249,0.251389,0.417099,-0.008855,53,276,576,5696
1644171320.448741,-0.010864,0.007324,-0.991394,0.220855,0.264427,-0.115725,48,276,585,5600
1644171320.49714,-0.01355,0.007507,-0.992554,0.022382,0.340763,-0.25313,46,269,576,5696
1644171320.54552,-0.009827,0.007935,-0.99115,0.281924,0.310229,0.082748,52,275,575,5712
1644171320.593983,-0.010376,0.010376,-0.990845,0.297191,0.356031,-0.222595,53,286,583,5712
1644171320.643222,-0.011719,0.009766,-0.993225,0.266656,0.279695,-0.054656,58,266,583,5712
1644171320.69392,-0.010803,0.009949,-0.992859,0.251389,0.432366,-0.100458,53,271,573,5712
1644171320.743851,-0.009827,0.007263,-0.991333,0.327725,0.401832,-0.344733,54,273,572,5664
1644171320.835902,-0.007507,0.010132,-0.993103,0.205588,0.371298,-0.222595,55,271,576,5664
1644171320.884314,-0.010864,0.010742,-0.990845,0.113985,0.325496,-0.054656,45,270,584,5728
1644171320.93271,-0.009277,0.009705,-0.990723,0.190321,0.417099,-0.069924,54,280,570,5664
1644171320.981074,-0.007446,0.009155,-0.991455,0.297191,0.371298,-0.130992,43,281,576,5664
1644171321.029461,-0.012512,0.01123,-0.991028,0.404061,0.310229,-0.069924,43,269,587,5696
1644171321.084887,-0.009888,0.013,-0.990723,0.297191,0.325496,0.021679,49,270,584,5696
1644171321.126227,-0.010925,0.01062,-0.989502,0.373527,0.462901,-0.130992,46,276,576,5760
1644171321.174642,-0.010681,0.010803,-0.99054,0.312458,0.493435,-0.069924,46,279,573,5696
1644171321.223013,-0.009827,0.010864,-0.989563,0.297191,0.310229,-0.130992,52,275,572,5664
1644171321.271383,-0.010437,0.008606,-0.991699,0.205588,0.417099,0.021679,49,275,570,5696
1644171321.319756,-0.006653,0.010132,-0.989685,0.236122,0.462901,-0.039389,51,283,571,5712
1644171321.368172,-0.009033,0.008728,-0.990479,0.251389,0.356031,0.021679,58,276,583,5696
1644171321.416565,-0.011292,0.010254,-0.988831,0.281924,0.401832,-0.039389,57,275,582,5600
1644171321.465072,-0.009521,0.010681,-0.992249,0.113985,0.371298,-0.008855,54,273,586,5696
1644171321.513337,-0.01239,0.011047,-0.991394,0.312458,0.386565,-0.008855,54,275,577,5728
1644171321.561709,-0.00946,0.010132,-0.990051,0.312458,0.294962,-0.161527,54,275,582,5648
1644171321.610128,-0.010925,0.013611,-0.992493,0.190321,0.264427,-0.268397,55,276,585,5664
1644171321.658503,-0.007141,0.010559,-0.992126,0.297191,0.310229,0.006412,48,271,583,5664
1644171321.706898,-0.006592,0.010315,-0.992554,0.266656,0.417099,-0.161527,48,283,585,5696
1644171321.75575,-0.007141,0.009399,-0.993225,0.266656,0.646107,-0.100458,49,263,579,5664
1644171321.80595,-0.009644,0.009216,-0.993164,0.251389,0.386565,-0.207328,49,275,582,5712
1644171321.856492,-0.011108,0.01123,-0.99353,0.404061,0.462901,-0.237863,49,260,584,5696
1644171321.901575,-0.009033,0.011353,-0.989014,0.266656,0.401832,-0.024122,52,275,570,5712
1644171321.99729,-0.011047,0.011658,-0.989868,0.159786,0.401832,-0.085191,54,270,582,5712
1644171322.058977,-0.010071,0.011353,-0.994202,0.404061,0.462901,-0.008855,61,273,584,5664
1644171322.098232,-0.010315,0.013,-0.990051,0.404061,0.371298,-0.207328,47,280,591,5648
1644171322.142453,-0.010986,0.010986,-0.989136,0.190321,0.508702,-0.024122,57,282,572,5584
1644171322.190802,-0.01178,0.010742,-0.992493,0.312458,0.432366,-0.161527,46,281,573,5696
1644171322.2392,-0.009583,0.009521,-0.989502,0.35826,0.462901,-0.207328,46,276,573,5712
1644171322.287587,-0.009583,0.009644,-0.989075,0.236122,0.417099,-0.115725,53,283,590,5664
1644171322.33597,-0.011658,0.01001,-0.990356,0.144519,0.417099,-0.130992,54,275,579,5648
1644171322.384379,-0.010376,0.009583,-0.990967,0.205588,0.371298,-0.054656,48,269,578,5696
1644171322.432779,-0.006897,0.008484,-0.989319,0.220855,0.325496,0.006412,47,277,575,5632
1644171322.481162,-0.010193,0.008057,-0.990479,0.281924,0.325496,-0.207328,40,270,579,5712
1644171322.529542,-0.009583,0.009277,-0.991699,0.236122,0.432366,0.098015,60,264,583,5664
1644171322.577935,-0.007629,0.010132,-0.99054,0.373527,0.585038,-0.069924,52,273,572,5696
1644171322.626375,-0.009888,0.009094,-0.99292,0.327725,0.294962,-0.008855,51,281,578,5664
1644171322.676538,-0.01001,0.010132,-0.990051,0.220855,0.417099,-0.130992,48,276,573,5696
1644171322.726877,-0.011902,0.010071,-0.993103,0.205588,0.447634,-0.054656,55,266,571,5584
1644171322.771989,-0.009583,0.009155,-0.991333,0.266656,0.417099,-0.222595,55,274,576,5664
1644171322.86826,-0.012329,0.008667,-0.994629,0.159786,0.386565,-0.207328,46,281,580,5664
1644171322.916705,-0.010193,0.009888,-0.990967,0.113985,0.447634,-0.130992,57,277,575,5664
1644171322.965138,-0.008911,0.008911,-0.991333,0.175053,0.356031,-0.115725,47,287,570,5712
1644171323.013501,-0.010071,0.010742,-0.99176,0.144519,0.478168,-0.14626,47,277,586,5664
1644171323.068981,-0.010986,0.010925,-0.993408,0.113985,0.401832,-0.039389,53,276,590,5728
1644171323.110219,-0.00946,0.007996,-0.990967,0.251389,0.447634,0.067481,53,276,578,5648
1644171323.158606,-0.009644,0.008362,-0.992432,0.129252,0.386565,-0.115725,62,281,573,5696
1644171323.207017,-0.009277,0.009338,-0.990417,0.373527,0.462901,0.021679,51,279,578,5728
1644171323.255414,-0.008606,0.010742,-0.990479,0.312458,0.356031,-0.069924,46,276,571,5696
1644171323.303798,-0.014465,0.00946,-0.993042,0.251389,0.340763,0.036947,60,269,578,5664
1644171323.352236,-0.010437,0.01062,-0.992065,0.220855,0.356031,-0.192061,54,265,579,5648
1644171323.400581,-0.011902,0.007629,-0.991882,0.327725,0.386565,-0.085191,57,273,577,5696
1644171323.448959,-0.012512,0.010803,-0.993164,0.404061,0.478168,-0.14626,49,290,572,5696
1644171323.497359,-0.010864,0.010132,-0.989807,0.251389,0.554504,-0.008855,41,279,569,5712
1644171323.545755,-0.010132,0.009277,-0.991638,0.220855,0.447634,-0.069924,60,271,578,5696
1644171323.594133,-0.010437,0.009399,-0.990662,0.190321,0.478168,-0.054656,48,283,573,5712
1644171323.642502,-0.012817,0.008301,-0.99231,0.159786,0.417099,-0.085191,45,285,579,5696
1644171323.69091,-0.008972,0.010193,-0.991089,0.007115,0.554504,-0.069924,48,283,580,5712
1644171323.739306,-0.014099,0.007141,-0.99115,0.251389,0.478168,0.098015,62,279,576,5696
1644171323.788391,-0.009949,0.01123,-0.99408,0.449863,0.432366,-0.176794,47,268,575,5664
1644171323.838835,-0.010193,0.01178,-0.989685,0.236122,0.417099,-0.161527,51,274,573,5696
1644171323.889148,-0.010498,0.008484,-0.990417,0.205588,0.493435,-0.222595,46,271,578,5696
1644171323.933697,-0.011719,0.008606,-0.992432,0.266656,0.478168,-0.100458,52,280,584,5696
1644171324.02971,-0.010315,0.007935,-0.994812,0.297191,0.401832,-0.039389,52,273,572,5664
1644171324.078143,-0.010071,0.01123,-0.991333,0.236122,0.386565,-0.130992,53,274,576,5696
1644171324.126429,-0.010986,0.007935,-0.994873,0.35826,0.356031,-0.054656,48,271,583,5760
1644171324.174836,-0.012207,0.009338,-0.98999,0.297191,0.401832,-0.024122,49,275,572,5712
1644171324.22322,-0.009521,0.010315,-0.993103,0.190321,0.24916,-0.024122,54,273,572,5664
1644171324.271585,-0.009583,0.007385,-0.994629,0.220855,0.462901,-0.100458,35,270,584,5664
1644171324.32,-0.009949,0.010559,-0.989319,0.297191,0.401832,-0.14626,52,270,575,5776
1644171324.368391,-0.010925,0.007507,-0.989441,0.266656,0.386565,-0.130992,54,277,584,5728
1644171324.416789,-0.011841,0.009216,-0.992126,0.159786,0.371298,-0.085191,52,265,568,5776
1644171324.465255,-0.006714,0.011292,-0.992004,0.08345,0.401832,-0.100458,52,273,582,5648
1644171324.51355,-0.007568,0.011414,-0.99115,0.312458,0.432366,-0.085191,48,269,578,5728
1644171324.56195,-0.010681,0.010742,-0.990967,0.220855,0.508702,-0.161527,51,274,580,5696
1644171324.610334,-0.012756,0.010132,-0.990356,0.266656,0.340763,-0.054656,57,275,577,5664
1644171324.658734,-0.011597,0.011292,-0.990173,0.129252,0.417099,-0.024122,47,260,570,5696
1644171324.707117,-0.013123,0.010071,-0.993042,0.175053,0.523969,-0.222595,48,276,587,5760
1644171324.755489,-0.013306,0.010437,-0.991943,0.205588,0.386565,-0.130992,51,266,580,5664
1644171324.80396,-0.011353,0.009949,-0.989868,0.236122,0.401832,-0.14626,51,264,576,5664
1644171324.852357,-0.013428,0.010254,-0.991028,0.251389,0.447634,-0.222595,48,283,573,5712
1644171324.901232,-0.01123,0.007324,-0.990601,0.281924,0.447634,-0.176794,55,266,576,5648
1644171324.951434,-0.010193,0.010559,-0.990784,0.220855,0.356031,-0.100458,53,264,576,5664
1644171325.001868,-0.010071,0.00946,-0.992065,0.220855,0.462901,-0.085191,52,280,572,5648
1644171325.078074,-0.008911,0.008545,-0.992249,0.266656,0.386565,-0.039389,46,276,583,5648
1644171325.142617,-0.009094,0.011414,-0.99115,0.281924,0.462901,-0.039389,51,262,578,5664
1644171325.191025,-0.010498,0.011719,-0.992432,0.205588,0.478168,-0.054656,51,266,583,5648
1644171325.239437,-0.010986,0.007019,-0.993774,0.08345,0.447634,-0.14626,53,279,580,5664
1644171325.287803,-0.009644,0.009888,-0.990845,0.251389,0.417099,0.052214,48,276,578,5696
1644171325.336207,-0.009399,0.010437,-0.992371,0.281924,0.233893,0.006412,54,263,579,5696
1644171325.384626,-0.009705,0.009277,-0.99292,0.220855,0.294962,0.067481,54,260,579,5696
1644171325.432981,-0.012817,0.008789,-0.988159,0.159786,0.447634,0.036947,57,282,586,5696
1644171325.481372,-0.006958,0.01178,-0.991333,0.266656,0.539237,-0.039389,47,282,582,5696
1644171325.529772,-0.009644,0.008972,-0.990051,0.159786,0.386565,-0.176794,46,276,576,5696
1644171325.578147,-0.010742,0.006409,-0.993835,0.159786,0.462901,-0.008855,49,273,582,5648
1644171325.626546,-0.010254,0.008179,-0.993835,0.236122,0.386565,-0.069924,42,273,579,5696
1644171325.675053,-0.008789,0.009888,-0.99115,0.46513,0.432366,-0.222595,51,269,583,5712
1644171325.723348,-0.009644,0.008057,-0.988098,0.205588,0.493435,-0.100458,51,274,573,5696
1644171325.771684,-0.010803,0.006897,-0.993835,0.312458,0.447634,-0.222595,48,271,585,5760
1644171325.820158,-0.00946,0.010193,-0.992676,0.129252,0.310229,0.036947,43,266,578,5664
1644171325.868541,-0.010071,0.007812,-0.989624,0.068183,0.493435,-0.25313,54,277,572,5664
1644171325.916929,-0.011597,0.010437,-0.992493,0.220855,0.585038,0.021679,42,277,568,5648
1644171325.965312,-0.01239,0.010986,-0.992615,0.297191,0.554504,-0.100458,47,268,582,5696
1644171326.013716,-0.010864,0.010559,-0.993408,0.266656,0.493435,-0.085191,45,275,565,5712
1644171326.110438,-0.011597,0.009094,-0.992798,0.281924,0.356031,-0.008855,52,273,575,5648
1644171326.158816,-0.012024,0.010437,-0.991943,0.175053,0.447634,-0.192061,51,274,578,5728
1644171326.207206,-0.009827,0.010864,-0.993042,0.159786,0.493435,-0.130992,52,265,586,5648
1644171326.25562,-0.006531,0.010559,-0.992981,0.144519,0.539237,-0.115725,54,273,575,5728
1644171326.304015,-0.009033,0.008606,-0.99054,0.327725,0.340763,-0.085191,54,275,572,5760
1644171326.352428,-0.008789,0.007874,-0.992188,0.144519,0.310229,-0.069924,55,276,580,5664
1644171326.400797,-0.012634,0.007141,-0.992188,0.373527,0.478168,-0.085191,47,273,582,5664
1644171326.449199,-0.007568,0.008667,-0.994141,0.113985,0.417099,-0.085191,42,268,584,5696
1644171326.497561,-0.011841,0.009399,-0.992615,0.205588,0.325496,-0.298931,54,260,582,5696
1644171326.545973,-0.009949,0.010986,-0.992676,0.251389,0.310229,-0.115725,53,269,580,5664
1644171326.594352,-0.008911,0.009583,-0.992737,0.175053,0.294962,-0.039389,49,277,575,5696
1644171326.642775,-0.007874,0.007935,-0.99115,0.266656,0.417099,-0.130992,43,269,580,5696
1644171326.69114,-0.010559,0.008911,-0.991333,0.297191,0.356031,-0.130992,55,276,573,5696
1644171326.739543,-0.009644,0.010315,-0.992004,0.312458,0.432366,-0.115725,60,271,578,5664
1644171326.787928,-0.008301,0.013306,-0.991333,0.373527,0.447634,-0.207328,61,268,570,5696
1644171326.836349,-0.009888,0.010376,-0.992554,-0.008153,0.356031,-0.085191,45,280,577,5728
1644171326.884752,-0.009399,0.009338,-0.991272,0.251389,0.462901,-0.115725,46,276,580,5728
1644171326.933411,-0.008118,0.010559,-0.993713,0.342992,0.600305,-0.298931,49,268,577,5648
1644171326.981541,-0.008484,0.010437,-0.99176,0.190321,0.508702,-0.207328,48,276,585,5696
1644171327.031184,-0.010437,0.010132,-0.993286,0.159786,0.294962,-0.192061,46,286,590,5696
1644171327.089876,-0.009277,0.009094,-0.993774,0.342992,0.371298,0.036947,42,275,584,5664
1644171327.127753,-0.008911,0.008179,-0.988953,0.220855,0.294962,-0.054656,52,275,575,5648
1644171327.223462,-0.008301,0.009827,-0.993652,0.312458,0.417099,-0.207328,43,279,576,5696
1644171327.271827,-0.010193,0.010742,-0.994995,0.251389,0.417099,-0.054656,39,279,576,5760
1644171327.320198,-0.009705,0.009338,-0.992188,0.251389,0.340763,0.067481,55,271,576,5808
1644171327.368588,-0.009827,0.013855,-0.993286,0.266656,0.432366,-0.115725,52,270,582,5712
1644171327.416991,-0.008362,0.009399,-0.991272,0.129252,0.371298,-0.085191,54,282,568,5648
1644171327.465377,-0.007568,0.007996,-0.990662,0.327725,0.417099,-0.115725,52,270,582,5648
1644171327.513781,-0.011169,0.009155,-0.992371,0.342992,0.325496,-0.008855,57,270,572,5664
1644171327.562182,-0.012634,0.010559,-0.992065,0.266656,0.432366,-0.207328,46,271,573,5600
1644171327.610566,-0.006714,0.009766,-0.98938,0.113985,0.386565,-0.069924,48,283,583,5712
1644171327.658949,-0.009216,0.01123,-0.991455,0.434595,0.447634,-0.268397,46,274,576,5648
1644171327.707345,-0.00885,0.006897,-0.994934,0.205588,0.310229,-0.176794,60,271,578,5664
1644171327.755739,-0.013611,0.012329,-0.99231,0.190321,0.462901,-0.008855,48,266,585,5664
1644171327.804132,-0.010742,0.009094,-0.993042,0.35826,0.432366,-0.100458,55,283,571,5664
1644171327.852569,-0.009888,0.010742,-0.993835,0.08345,0.447634,-0.008855,51,274,580,5728
1644171327.900948,-0.011902,0.01001,-0.993103,0.175053,0.523969,-0.008855,52,270,579,5664
1644171327.949312,-0.008728,0.007751,-0.990417,0.159786,0.462901,-0.008855,58,271,576,5664
1644171327.997697,-0.011597,0.007629,-0.991455,0.190321,0.371298,-0.192061,52,273,582,5632
1644171328.062381,-0.009888,0.013428,-0.993652,0.327725,0.340763,-0.176794,53,283,585,5728
1644171328.099297,-0.006042,0.009644,-0.99408,0.236122,0.279695,-0.14626,49,273,579,5696
1644171328.143899,-0.008911,0.011047,-0.991028,0.052916,0.462901,-0.130992,43,269,578,5696
1644171328.193566,-0.009766,0.008972,-0.991272,0.175053,0.340763,-0.008855,54,275,575,5664
1644171328.243767,-0.013794,0.010193,-0.991699,0.266656,0.386565,-0.130992,51,274,580,5648
1644171328.288756,-0.009766,0.011047,-0.991028,0.190321,0.539237,-0.222595,53,269,569,5696
1644171328.384865,-0.008667,0.010559,-0.990479,0.281924,0.356031,-0.085191,52,273,575,5696
1644171328.43322,-0.009521,0.010132,-0.992676,0.342992,0.325496,-0.25313,48,274,573,5664
1644171328.481581,-0.008667,0.011414,-0.991272,0.297191,0.401832,-0.14626,64,277,577,5760
1644171328.529977,-0.009521,0.012695,-0.991882,0.175053,0.523969,-0.130992,53,271,583,5760
1644171328.578368,-0.009705,0.008911,-0.990295,0.312458,0.447634,-0.008855,52,275,577,5696
1644171328.626764,-0.012085,0.011536,-0.99231,0.251389,0.310229,-0.130992,53,271,573,5664
1644171328.675177,-0.009583,0.009216,-0.991394,0.144519,0.554504,-0.192061,51,276,583,5696
1644171328.723552,-0.009583,0.010193,-0.98938,0.312458,0.447634,-0.14626,43,266,583,5728
1644171328.771946,-0.010681,0.010803,-0.990967,0.312458,0.340763,-0.054656,54,273,572,5712
1644171328.820331,-0.010925,0.009033,-0.991577,0.236122,0.417099,-0.222595,55,264,576,5808
1644171328.868749,-0.010803,0.008301,-0.991272,0.388794,0.539237,-0.192061,52,282,575,5600
1644171328.917147,-0.009583,0.012207,-0.994141,0.236122,0.279695,-0.161527,57,277,572,5632
1644171328.965525,-0.011047,0.007019,-0.991882,0.266656,0.386565,-0.130992,52,273,572,5712
1644171329.013929,-0.009888,0.012146,-0.990417,0.144519,0.462901,0.021679,53,276,576,5664
1644171329.085003,-0.008911,0.008667,-0.991333,0.037649,0.340763,-0.024122,49,273,575,5712
1644171329.111114,-0.007812,0.008911,-0.991089,0.251389,0.401832,0.006412,53,276,590,5712
1644171329.159063,-0.00946,0.01123,-0.993103,0.404061,0.401832,-0.192061,49,273,586,5728
1644171329.20743,-0.012268,0.007996,-0.989807,0.205588,0.585038,-0.039389,46,274,576,5696
1644171329.255822,-0.009277,0.010376,-0.992065,0.220855,0.264427,-0.024122,49,277,589,5648
1644171329.304952,-0.009583,0.009399,-0.989136,0.251389,0.462901,-0.192061,60,279,569,5664
1644171329.354944,-0.007385,0.009399,-0.990051,0.236122,0.554504,-0.115725,54,270,579,5712
1644171329.405195,-0.009521,0.009827,-0.991211,0.205588,0.493435,-0.085191,52,265,584,5696
1644171329.45016,-0.012329,0.008545,-0.991272,0.342992,0.462901,-0.085191,58,271,576,5696
1644171329.546167,-0.01062,0.011047,-0.992188,0.220855,0.401832,-0.115725,53,269,583,5696
1644171329.594842,-0.008667,0.011353,-0.991943,0.281924,0.386565,-0.085191,43,274,573,5696
1644171329.642974,-0.011658,0.007874,-0.990234,0.190321,0.417099,-0.008855,54,275,563,5696
1644171329.691355,-0.008789,0.010193,-0.994751,0.312458,0.462901,-0.130992,46,271,571,5728
1644171329.73974,-0.012451,0.008484,-0.990112,0.312458,0.386565,-0.25313,41,266,578,5760
1644171329.788143,-0.006775,0.006775,-0.99115,0.068183,0.539237,-0.054656,49,285,579,5728
1644171329.836511,-0.007629,0.007019,-0.993286,0.342992,0.340763,-0.14626,51,274,573,5584
1644171329.885097,-0.007874,0.010071,-0.991577,0.236122,0.447634,-0.115725,48,276,578,5696
1644171329.933352,-0.007202,0.010132,-0.992371,0.159786,0.401832,-0.024122,60,266,583,5760
1644171329.981724,-0.007935,0.008362,-0.992188,0.434595,0.310229,-0.192061,57,268,582,5696
1644171330.030131,-0.010071,0.007141,-0.991028,0.297191,0.401832,-0.054656,46,279,583,5696
1644171330.083252,-0.009399,0.011841,-0.992859,0.144519,0.264427,-0.085191,45,285,582,5696
1644171330.126938,-0.007629,0.010986,-0.994934,0.175053,0.478168,-0.054656,46,279,580,5712
1644171330.175294,-0.009888,0.011414,-0.991394,0.312458,0.432366,-0.085191,57,268,586,5728
1644171330.223659,-0.008362,0.002563,-0.991028,0.251389,0.417099,-0.039389,42,268,582,5664
1644171330.272027,-0.009949,0.004944,-0.993652,0.129252,0.371298,-0.14626,46,269,587,5712
1644171330.320455,-0.010132,0.011108,-0.992859,0.205588,0.432366,-0.237863,45,275,584,5712
1644171330.369534,-0.01062,0.014099,-0.993835,0.205588,0.279695,-0.024122,62,279,573,5664
1644171330.419604,-0.011169,0.011353,-0.992615,0.220855,0.386565,0.006412,45,268,589,5600
1644171330.469908,-0.00946,0.008423,-0.990662,0.281924,0.432366,-0.130992,57,280,577,5664
1644171330.514948,-0.008301,0.009949,-0.99176,0.220855,0.401832,-0.039389,41,264,585,5664
1644171330.610778,-0.008057,0.009766,-0.992981,0.144519,0.417099,-0.085191,45,263,577,5664
1644171330.659182,-0.011292,0.011169,-0.990906,0.129252,0.24916,-0.008855,54,270,579,5664
1644171330.707564,-0.010437,0.008789,-0.991394,0.281924,0.539237,-0.130992,49,270,577,5712
1644171330.75594,-0.010742,0.00946,-0.989685,0.373527,0.325496,-0.054656,60,279,578,5712
1644171330.804338,-0.012146,0.011292,-0.991943,0.327725,0.417099,-0.130992,60,276,576,5696
1644171330.852746,-0.011841,0.010437,-0.992676,0.098718,0.615573,-0.176794,48,271,569,5696
1644171330.901169,-0.009094,0.009827,-0.99054,0.205588,0.447634,-0.176794,48,271,578,5648
1644171330.949531,-0.01123,0.010437,-0.99353,0.434595,0.417099,0.021679,46,274,573,5664
1644171330.99792,-0.010315,0.009033,-0.988403,0.220855,0.554504,-0.069924,51,274,576,5664
1644171331.059002,-0.008667,0.011475,-0.991943,0.312458,0.371298,-0.130992,58,279,585,5712
1644171331.094727,-0.010742,0.011475,-0.990295,0.388794,0.523969,0.067481,54,277,584,5696
1644171331.143155,-0.007996,0.013306,-0.987915,0.220855,0.478168,-0.161527,55,276,578,5664
1644171331.191504,-0.011353,0.01062,-0.992004,0.175053,0.325496,-0.054656,48,281,580,5712
1644171331.239886,-0.008667,0.012146,-0.99115,0.159786,0.478168,-0.14626,61,275,575,5776
1644171331.288297,-0.009338,0.008179,-0.99115,0.388794,0.523969,-0.024122,42,280,572,5664
1644171331.336681,-0.009155,0.010437,-0.991333,0.220855,0.462901,0.036947,48,281,571,5664
1644171331.385403,-0.008911,0.011902,-0.990479,0.190321,0.508702,0.006412,53,269,578,5712
1644171331.4335,-0.010925,0.009644,-0.992493,0.388794,0.24916,-0.039389,48,269,566,5696
1644171331.481884,-0.01001,0.007996,-0.993042,0.266656,0.523969,-0.130992,51,274,573,5696
1644171331.532179,-0.011963,0.011353,-0.993774,0.113985,0.493435,-0.008855,45,277,584,5696
1644171331.582488,-0.01239,0.010498,-0.994568,0.144519,0.493435,0.006412,55,269,569,5728
1644171331.632624,-0.010376,0.00647,-0.989258,0.205588,0.462901,0.036947,53,271,578,5712
1644171331.723799,-0.011963,0.010315,-0.991333,0.327725,0.493435,-0.024122,65,274,573,5696
1644171331.772418,-0.00946,0.00708,-0.991943,0.129252,0.432366,0.021679,54,273,570,5760
1644171331.82059,-0.010193,0.011597,-0.990784,0.251389,0.401832,-0.25313,46,274,569,5696
1644171331.868976,-0.009583,0.009155,-0.991882,0.449863,0.417099,0.052214,49,265,572,5728
1644171331.917365,-0.008545,0.010803,-0.991028,0.449863,0.401832,-0.054656,51,276,578,5712
1644171331.965765,-0.011169,0.011292,-0.989868,0.297191,0.417099,0.021679,54,285,575,5712
1644171332.01415,-0.007019,0.008118,-0.991882,0.342992,0.310229,-0.192061,51,274,583,5648
1644171332.067465,-0.007568,0.009644,-0.990356,0.175053,0.340763,-0.039389,39,269,583,5696
1644171332.110923,-0.007202,0.009155,-0.993225,0.312458,0.447634,-0.115725,59,280,584,5728
1644171332.159292,-0.011108,0.010254,-0.991089,0.159786,0.401832,-0.161527,46,259,583,5696
1644171332.207678,-0.006165,0.007263,-0.992676,0.190321,0.432366,-0.161527,53,279,573,5664
1644171332.256063,-0.006836,0.010864,-0.991028,0.220855,0.447634,0.021679,47,273,584,5648
1644171332.304461,-0.010376,0.010376,-0.990601,0.175053,0.371298,-0.130992,40,275,579,5664
1644171332.352861,-0.012817,0.007874,-0.992981,0.266656,0.401832,-0.039389,51,279,580,5664
1644171332.401214,-0.010071,0.011353,-0.992981,0.236122,0.386565,0.021679,45,282,584,5648
1644171332.449631,-0.011108,0.011658,-0.990845,0.113985,0.386565,-0.161527,42,277,586,5712
1644171332.498019,-0.009583,0.01062,-0.990356,0.373527,0.493435,-0.069924,53,283,583,5696
1644171332.546407,-0.008362,0.010376,-0.992188,0.236122,0.432366,-0.100458,46,269,576,5696
1644171332.594813,-0.007874,0.012878,-0.994568,0.144519,0.356031,0.113282,43,276,576,5664
1644171332.643345,-0.011353,0.01001,-0.989441,0.266656,0.478168,-0.115725,51,269,583,5664
1644171332.693767,-0.00946,0.009094,-0.990417,0.281924,0.508702,-0.14626,45,273,570,5712
1644171332.743941,-0.011536,0.009644,-0.990845,0.236122,0.264427,-0.069924,52,270,579,5728
1644171332.789068,-0.008362,0.009766,-0.989258,0.175053,0.356031,-0.161527,47,277,577,5696
1644171332.885427,-0.00824,0.009338,-0.990417,0.205588,0.432366,-0.085191,46,271,571,5712
1644171332.933569,-0.010376,0.009644,-0.989929,0.327725,0.371298,0.113282,40,275,579,5696
1644171332.981963,-0.010254,0.010376,-0.99176,0.373527,0.264427,-0.14626,59,275,577,5696
1644171333.030356,-0.009338,0.011475,-0.990967,0.205588,0.386565,0.082748,54,265,570,5728
1644171333.078807,-0.006531,0.008667,-0.993286,0.129252,0.417099,-0.176794,61,270,591,5664
1644171333.127087,-0.007507,0.011719,-0.991089,0.175053,0.386565,-0.14626,49,277,572,5648
1644171333.175493,-0.012085,0.010193,-0.99054,0.159786,0.462901,-0.085191,54,277,586,5584
1644171333.223887,-0.009583,0.009094,-0.990051,0.205588,0.462901,-0.176794,43,269,573,5664
1644171333.272264,-0.010193,0.009766,-0.991882,0.419328,0.478168,-0.176794,60,274,599,5696
1644171333.320637,-0.011597,0.009827,-0.988098,0.327725,0.539237,-0.176794,51,274,585,5760
1644171333.369047,-0.008606,0.007446,-0.992126,0.220855,0.478168,-0.008855,41,281,578,5664
1644171333.417435,-0.009155,0.012146,-0.990967,0.449863,0.447634,-0.085191,53,291,576,5712
1644171333.465828,-0.007568,0.012756,-0.994385,0.144519,0.310229,-0.25313,52,263,584,5696
1644171333.514224,-0.012756,0.010437,-0.990356,0.297191,0.432366,0.082748,46,276,580,5696
1644171333.562632,-0.010925,0.010437,-0.991699,0.327725,0.615573,-0.024122,61,277,589,5664
1644171333.611014,-0.007324,0.010376,-0.99292,0.35826,0.478168,-0.130992,52,280,579,5664
1644171333.659378,-0.012268,0.007935,-0.990906,0.297191,0.478168,-0.024122,51,274,592,5728
1644171333.707786,-0.012146,0.009033,-0.991638,0.220855,0.447634,-0.207328,43,279,580,5696
1644171333.756175,-0.012634,0.011047,-0.992249,0.220855,0.508702,-0.100458,52,275,579,5664
1644171333.805598,-0.007202,0.012451,-0.993042,0.327725,0.325496,-0.222595,55,274,585,5664
1644171333.856764,-0.009521,0.009338,-0.991638,0.388794,0.478168,-0.085191,47,268,579,5648
1644171333.906877,-0.009583,0.010193,-0.989746,0.205588,0.356031,-0.130992,59,273,577,5696
1644171333.998201,-0.010254,0.011108,-0.988586,0.175053,0.279695,-0.14626,52,280,579,5712
1644171334.062823,-0.005676,0.00885,-0.98877,0.297191,0.386565,-0.130992,53,264,585,5712
1644171334.095005,-0.01062,0.008789,-0.990051,0.205588,0.478168,-0.161527,58,269,580,5696
1644171334.143306,-0.01178,0.010742,-0.99408,0.175053,0.462901,-0.085191,41,271,578,5712
1644171334.191706,-0.010742,0.00647,-0.992249,0.251389,0.371298,-0.176794,48,276,578,5664
1644171334.240101,-0.012634,0.010437,-0.99176,0.419328,0.294962,-0.039389,47,268,582,5712
1644171334.288488,-0.01123,0.009766,-0.990479,0.220855,0.401832,-0.14626,39,274,578,5664
1644171334.336858,-0.011292,0.009155,-0.992249,0.312458,0.478168,-0.115725,40,277,577,5632
1644171334.385258,-0.009521,0.009216,-0.990723,0.327725,0.401832,-0.130992,53,281,587,5664
1644171334.43365,-0.010864,0.011108,-0.990356,0.388794,0.356031,-0.008855,47,282,577,5712
1644171334.482042,-0.009766,0.00946,-0.990662,0.129252,0.356031,-0.100458,53,274,569,5664
1644171334.530509,-0.006104,0.008362,-0.990173,0.327725,0.325496,-0.100458,51,266,585,5760
1644171334.579346,-0.009094,0.011536,-0.990662,0.190321,0.294962,-0.054656,47,265,584,5696
1644171334.629692,-0.009338,0.00885,-0.990295,0.251389,0.264427,-0.008855,57,273,582,5696
1644171334.680041,-0.012756,0.011536,-0.992065,0.327725,0.417099,-0.176794,48,269,580,5696
1644171334.725053,-0.010132,0.009033,-0.99469,0.297191,0.447634,-0.054656,43,276,585,5696
1644171334.82079,-0.012573,0.009521,-0.991516,0.205588,0.386565,-0.14626,51,279,576,5728
1644171334.869168,-0.010132,0.009277,-0.991028,0.190321,0.310229,-0.100458,42,277,568,5696
1644171334.917552,-0.008362,0.007202,-0.990479,0.327725,0.340763,0.052214,53,276,571,5664
1644171334.965974,-0.012817,0.009766,-0.991089,0.144519,0.539237,-0.283664,65,281,583,5696
1644171335.014351,-0.008606,0.008057,-0.992676,0.297191,0.478168,-0.100458,49,273,577,5664
1644171335.064771,-0.008484,0.009583,-0.990112,0.251389,0.325496,-0.100458,45,277,582,5664
1644171335.111188,-0.011047,0.009644,-0.994568,0.251389,0.554504,-0.14626,52,280,572,5696
1644171335.159502,-0.013123,0.01001,-0.992188,0.205588,0.493435,0.052214,54,273,575,5696
1644171335.207877,-0.010925,0.012146,-0.993652,0.08345,0.340763,-0.176794,52,273,577,5696
1644171335.256299,-0.010803,0.012207,-0.991455,0.251389,0.432366,-0.069924,47,282,584,5712
1644171335.304718,-0.009155,0.008728,-0.993591,0.251389,0.264427,-0.115725,47,285,577,5648
1644171335.353076,-0.010925,0.012512,-0.992981,0.266656,0.462901,-0.115725,57,270,575,5696
1644171335.401468,-0.007996,0.01001,-0.993225,0.312458,0.417099,-0.130992,52,270,584,5760
1644171335.449856,-0.012024,0.007202,-0.991455,0.098718,0.493435,-0.130992,53,271,580,5664
1644171335.498253,-0.009766,0.009338,-0.990295,0.205588,0.523969,-0.192061,51,269,569,5632
1644171335.546629,-0.007446,0.009399,-0.993713,0.113985,0.417099,-0.115725,58,276,583,5648
1644171335.595061,-0.010742,0.010254,-0.990906,0.190321,0.218626,-0.14626,51,266,564,5712
1644171335.643417,-0.010193,0.012024,-0.989929,0.342992,0.417099,0.159084,49,273,577,5648
1644171335.691808,-0.009338,0.010437,-0.990723,0.251389,0.386565,-0.054656,54,273,575,5664
1644171335.740513,-0.011475,0.008118,-0.991577,0.251389,0.386565,-0.024122,54,268,589,5696
1644171335.791412,-0.011719,0.010437,-0.991211,0.190321,0.478168,-0.161527,43,262,576,5648
1644171335.842783,-0.010254,0.010864,-0.992249,0.175053,0.417099,-0.024122,57,268,579,5664
1644171335.886805,-0.012634,0.006836,-0.990967,0.251389,0.447634,-0.115725,61,265,570,5664
1644171335.982428,-0.008911,0.009155,-0.991028,0.281924,0.401832,-0.039389,49,275,568,5696
1644171336.030578,-0.012085,0.012939,-0.989746,0.052916,0.233893,-0.192061,54,277,577,5728
1644171336.079041,-0.009033,0.009766,-0.995605,0.342992,0.264427,-0.115725,58,269,580,5696
1644171336.127359,-0.007446,0.008057,-0.991882,0.175053,0.24916,-0.192061,58,283,576,5632
1644171336.175703,-0.007019,0.008118,-0.991272,0.190321,0.478168,-0.14626,52,285,572,5728
1644171336.224103,-0.01001,0.011169,-0.991699,0.159786,0.340763,-0.039389,47,268,577,5664
1644171336.272464,-0.006958,0.00946,-0.992981,0.388794,0.356031,-0.115725,53,281,580,5664
1644171336.320879,-0.010864,0.009216,-0.993164,0.175053,0.264427,0.036947,54,280,577,5712
1644171336.369276,-0.009033,0.011963,-0.993042,0.266656,0.325496,-0.14626,57,273,579,5600
1644171336.41767,-0.009399,0.012024,-0.993103,0.220855,0.432366,-0.069924,49,280,570,5664
1644171336.466031,-0.011108,0.008057,-0.988831,0.175053,0.310229,0.052214,46,262,583,5664
1644171336.514443,-0.007751,0.009216,-0.991394,0.159786,0.279695,-0.100458,52,275,572,5728
1644171336.562835,-0.008911,0.008972,-0.992004,0.251389,0.478168,0.036947,54,273,579,5696
1644171336.611229,-0.011169,0.010498,-0.989258,0.159786,0.356031,-0.14626,54,268,586,5648
1644171336.659613,-0.010254,0.01001,-0.989868,0.251389,0.432366,0.006412,53,271,578,5664
1644171336.708006,-0.011353,0.010315,-0.98999,0.190321,0.462901,-0.054656,47,280,577,5712
1644171336.756367,-0.007507,0.009094,-0.993286,0.113985,0.417099,-0.161527,52,265,579,5696
1644171336.804796,-0.00946,0.009216,-0.991577,0.022382,0.371298,-0.039389,53,269,583,5664
1644171336.853244,-0.008179,0.010864,-0.992249,0.175053,0.294962,-0.024122,53,269,580,5696
1644171336.903244,-0.009705,0.009705,-0.992004,0.373527,0.493435,-0.085191,45,280,565,5728
1644171336.953661,-0.011719,0.01001,-0.989868,0.190321,0.340763,0.036947,60,269,578,5664
1644171337.057078,-0.009033,0.008545,-0.992554,0.175053,0.340763,-0.039389,42,268,568,5664
1644171337.098184,-0.010925,0.008362,-0.992676,0.190321,0.340763,-0.176794,47,273,579,5664
1644171337.143557,-0.01062,0.009216,-0.993896,0.205588,0.508702,-0.14626,53,274,573,5696
1644171337.19189,-0.01123,0.009827,-0.990845,0.327725,0.401832,-0.054656,46,271,583,5712
1644171337.240293,-0.007568,0.013062,-0.993774,0.175053,0.417099,-0.100458,62,269,580,5728
1644171337.288692,-0.010925,0.009888,-0.99054,0.129252,0.371298,-0.14626,47,277,570,5696
1644171337.337089,-0.006836,0.011169,-0.989868,0.251389,0.340763,-0.176794,57,270,582,5664
1644171337.385472,-0.008118,0.011719,-0.993408,0.342992,0.478168,-0.14626,46,266,583,5712
1644171337.43389,-0.00885,0.010193,-0.993225,0.251389,0.264427,-0.024122,49,282,572,5696
1644171337.482284,-0.010986,0.010742,-0.992981,0.129252,0.523969,-0.024122,55,276,578,5696
1644171337.53061,-0.011414,0.010193,-0.991638,0.35826,0.462901,-0.115725,42,270,577,5712
1644171337.579038,-0.012451,0.007751,-0.989441,0.144519,0.386565,-0.039389,47,268,586,5664
1644171337.627435,-0.010742,0.007019,-0.992737,0.220855,0.340763,-0.14626,46,276,578,5760
1644171337.675819,-0.008118,0.012146,-0.993591,0.205588,0.539237,-0.237863,53,271,580,5728
1644171337.724491,-0.009766,0.009521,-0.990784,0.236122,0.401832,-0.039389,48,269,576,5712
1644171337.774943,-0.011841,0.011475,-0.989502,0.388794,0.386565,0.036947,52,277,572,5664
1644171337.825084,-0.010498,0.008057,-0.99115,0.251389,0.294962,-0.024122,52,275,584,5728
1644171337.870222,-0.008545,0.009399,-0.991577,0.35826,0.417099,-0.100458,48,271,578,5664
1644171337.966182,-0.01123,0.009888,-0.991699,0.159786,0.340763,-0.100458,45,268,582,5648
1644171338.014883,-0.013367,0.007141,-0.99054,0.297191,0.447634,-0.069924,55,276,571,5712
1644171338.066974,-0.01123,0.008667,-0.989685,0.220855,0.462901,-0.130992,52,273,584,5648
1644171338.111372,-0.010681,0.007263,-0.991882,0.236122,0.310229,-0.100458,46,279,587,5696
1644171338.15973,-0.010742,0.008484,-0.992126,0.159786,0.340763,-0.161527,48,271,583,5776
1644171338.20816,-0.011169,0.00946,-0.994446,0.266656,0.371298,-0.069924,51,271,583,5664
1644171338.256521,-0.009583,0.01062,-0.987915,0.266656,0.462901,-0.161527,48,266,578,5696
1644171338.304942,-0.008484,0.011902,-0.991577,0.159786,0.417099,-0.14626,34,281,578,5600
1644171338.353336,-0.010803,0.006226,-0.99115,0.251389,0.356031,-0.069924,48,279,583,5664
1644171338.401724,-0.01062,0.009338,-0.991699,0.205588,0.493435,-0.130992,54,265,570,5696
1644171338.450106,-0.009705,0.010315,-0.992065,0.175053,0.493435,-0.085191,41,274,583,5696
1644171338.49851,-0.005066,0.010498,-0.990601,0.266656,0.478168,-0.268397,49,275,586,5696
1644171338.546888,-0.00946,0.010742,-0.992004,0.190321,0.340763,-0.085191,59,268,579,5600
1644171338.595305,-0.010559,0.008789,-0.993225,0.052916,0.371298,0.052214,49,275,586,5728
1644171338.643685,-0.011169,0.009766,-0.98938,0.144519,0.432366,-0.100458,48,271,578,5712
1644171338.692055,-0.011719,0.009094,-0.991638,0.266656,0.310229,-0.085191,58,269,569,5696
1644171338.740488,-0.006775,0.008484,-0.98999,0.404061,0.356031,0.036947,58,276,571,5696
1644171338.789178,-0.009949,0.010498,-0.991394,0.159786,0.325496,-0.176794,47,268,575,5664
1644171338.837419,-0.008484,0.014404,-0.992859,0.175053,0.447634,-0.161527,46,274,566,5648
1644171338.888345,-0.009094,0.008179,-0.991028,0.266656,0.447634,-0.283664,60,274,571,5712
1644171338.938154,-0.010986,0.009949,-0.992493,0.220855,0.493435,-0.039389,45,270,582,5664
1644171338.982438,-0.009399,0.007812,-0.991211,0.190321,0.432366,-0.115725,41,269,585,5648
1644171339.080199,-0.00769,0.008362,-0.992188,-0.02342,0.325496,-0.008855,53,271,571,5696
1644171339.127538,-0.011719,0.011169,-0.987549,0.327725,0.432366,-0.130992,53,279,578,5696
1644171339.175916,-0.009583,0.01001,-0.991943,0.388794,0.478168,0.052214,57,275,584,5712
1644171339.22432,-0.007935,0.010803,-0.989075,0.098718,0.401832,-0.100458,57,268,577,5696
1644171339.272707,-0.010498,0.009705,-0.991943,0.281924,0.371298,0.098015,53,281,580,5664
1644171339.321113,-0.012817,0.006653,-0.994202,0.144519,0.356031,0.021679,54,270,579,5712
1644171339.369486,-0.009644,0.012268,-0.991333,0.251389,0.310229,-0.054656,53,279,571,5664
1644171339.417886,-0.00647,0.010376,-0.98761,0.220855,0.340763,-0.085191,51,274,571,5664
1644171339.466278,-0.011414,0.01062,-0.990112,0.144519,0.356031,-0.130992,43,269,578,5696
1644171339.514727,-0.010803,0.009644,-0.991882,0.144519,0.294962,-0.115725,53,274,578,5696
1644171339.563072,-0.012451,0.009888,-0.989624,0.175053,0.371298,-0.069924,52,277,579,5696
1644171339.611449,-0.010742,0.011841,-0.992004,0.175053,0.539237,-0.085191,48,271,580,5696
1644171339.659833,-0.009399,0.008301,-0.993774,0.236122,0.462901,-0.024122,61,270,575,5712
1644171339.708221,-0.008179,0.009949,-0.989624,0.113985,0.432366,0.006412,49,268,584,5712
1644171339.756592,-0.010986,0.009338,-0.99176,0.342992,0.432366,0.006412,57,277,575,5712
1644171339.805098,-0.009033,0.010437,-0.992676,0.190321,0.569771,-0.100458,52,268,575,5664
1644171339.853445,-0.009949,0.008301,-0.99115,0.205588,0.310229,-0.085191,53,281,583,5696
1644171339.901839,-0.010864,0.010803,-0.993225,0.327725,0.417099,-0.14626,55,274,576,5696
1644171339.95052,-0.010498,0.007019,-0.99292,0.236122,0.356031,-0.100458,59,275,586,5648
1644171340.000868,-0.010986,0.010315,-0.991272,0.129252,0.294962,-0.130992,49,265,584,5648
1644171340.0727,-0.011169,0.010437,-0.991699,0.251389,0.325496,-0.039389,54,270,586,5712
1644171340.143785,-0.00885,0.007935,-0.993286,0.281924,0.493435,-0.039389,58,271,580,5696
1644171340.192369,-0.010132,0.010986,-0.988953,0.266656,0.401832,-0.176794,57,258,572,5664
1644171340.240517,-0.010376,0.00885,-0.991638,0.236122,0.523969,-0.14626,55,279,578,5696
1644171340.288914,-0.01062,0.012268,-0.990784,0.205588,0.294962,-0.100458,53,271,585,5696
1644171340.337299,-0.010437,0.00946,-0.994812,0.419328,0.523969,0.036947,48,271,580,5632
1644171340.385703,-0.00885,0.007446,-0.990051,0.312458,0.356031,-0.069924,51,262,569,5648
1644171340.434098,-0.01062,0.010376,-0.98999,0.220855,0.356031,-0.237863,47,285,572,5648
1644171340.482494,-0.00824,0.01123,-0.991516,0.266656,0.371298,-0.100458,51,276,578,5648
1644171340.530885,-0.008301,0.008118,-0.992493,0.098718,0.401832,-0.100458,51,269,583,5728
1644171340.579262,-0.012268,0.010559,-0.989807,0.098718,0.417099,-0.161527,51,276,573,5664
1644171340.627654,-0.010803,0.008301,-0.987854,0.159786,0.432366,-0.14626,48,271,578,5696
1644171340.67603,-0.011719,0.008911,-0.991394,0.297191,0.233893,-0.130992,52,268,575,5712
1644171340.724458,-0.011902,0.010742,-0.992981,0.266656,0.478168,-0.130992,48,276,585,5728
1644171340.77284,-0.010315,0.008301,-0.993408,0.190321,0.493435,-0.130992,52,273,579,5696
1644171340.821257,-0.007385,0.009216,-0.992065,0.236122,0.478168,-0.069924,43,271,573,5696
1644171340.869654,-0.01239,0.010376,-0.991516,0.190321,0.569771,-0.192061,55,274,576,5696
1644171340.918035,-0.011719,0.009888,-0.989624,0.327725,0.356031,-0.130992,48,269,590,5664
1644171340.966595,-0.008667,0.008423,-0.991516,0.022382,0.310229,-0.100458,60,276,587,5696
1644171341.014858,-0.01001,0.010498,-0.99231,0.205588,0.432366,0.006412,54,265,579,5696
1644171341.078721,-0.009827,0.009521,-0.991516,0.159786,0.279695,-0.192061,51,262,585,5648
1644171341.116244,-0.011902,0.006714,-0.992126,0.297191,0.203359,0.036947,49,263,579,5664
1644171341.164935,-0.01062,0.011292,-0.993225,0.129252,0.401832,-0.115725,49,275,572,5664
1644171341.256718,-0.008972,0.012634,-0.992737,0.159786,0.310229,0.098015,53,271,571,5648
1644171341.305282,-0.009644,0.011169,-0.990845,0.35826,0.401832,-0.115725,45,265,572,5664
1644171341.353527,-0.010376,0.010315,-0.992188,0.159786,0.432366,-0.192061,57,277,570,5728
1644171341.401903,-0.010498,0.009216,-0.992004,0.175053,0.462901,0.067481,52,268,572,5664
1644171341.450296,-0.01062,0.010864,-0.993774,0.068183,0.386565,0.036947,55,288,578,5648
1644171341.498668,-0.011108,0.011536,-0.990845,0.220855,0.233893,-0.100458,45,270,584,5664
1644171341.547075,-0.008057,0.009827,-0.992737,0.190321,0.386565,-0.100458,58,271,566,5648
1644171341.595458,-0.009277,0.011536,-0.98999,0.281924,0.264427,-0.192061,47,273,575,5664
1644171341.643854,-0.008484,0.009888,-0.994263,0.144519,0.371298,0.082748,59,277,579,5664
1644171341.692255,-0.009216,0.009216,-0.991943,0.312458,0.432366,-0.14626,46,279,580,5760
1644171341.740639,-0.008362,0.009094,-0.991455,0.388794,0.478168,-0.207328,48,264,576,5648
1644171341.789027,-0.009338,0.007874,-0.991699,0.297191,0.310229,-0.100458,53,276,576,5760
1644171341.83747,-0.010681,0.010803,-0.992737,0.175053,0.493435,-0.176794,47,280,589,5648
1644171341.885859,-0.011475,0.010254,-0.991211,0.281924,0.386565,-0.130992,43,269,583,5712
1644171341.93422,-0.011292,0.010071,-0.994141,0.35826,0.371298,-0.100458,54,277,577,5696
1644171341.982645,-0.010681,0.00946,-0.988098,0.251389,0.356031,0.052214,52,273,572,5696
1644171342.031023,-0.010925,0.009338,-0.992188,0.175053,0.447634,-0.115725,53,274,576,5648
1644171342.08265,-0.01001,0.008972,-0.991455,0.327725,0.417099,-0.085191,53,286,587,5648
1644171342.12791,-0.010193,0.007751,-0.98877,0.098718,0.188092,-0.161527,47,273,575,5728
1644171342.176244,-0.011475,0.009644,-0.991272,0.404061,0.386565,-0.176794,59,273,577,5664
1644171342.226689,-0.009216,0.008728,-0.990601,0.144519,0.432366,-0.024122,49,268,582,5664
1644171342.276862,-0.009216,0.01178,-0.992126,0.159786,0.279695,-0.100458,51,283,576,5696
1644171342.321953,-0.011047,0.012512,-0.990601,0.404061,0.218626,0.052214,53,279,559,5712
1644171342.418098,-0.010437,0.012695,-0.986877,0.266656,0.386565,-0.085191,53,281,573,5664
1644171342.466485,-0.008606,0.009521,-0.990356,0.251389,0.371298,-0.25313,51,274,578,5664
1644171342.514904,-0.010803,0.011047,-0.989868,0.236122,0.447634,-0.115725,47,275,589,5648
1644171342.563294,-0.007812,0.010376,-0.992737,0.159786,0.462901,-0.14626,53,269,573,5712
1644171342.61164,-0.011902,0.01123,-0.991882,0.144519,0.340763,-0.054656,53,276,576,5648
1644171342.660056,-0.010254,0.010437,-0.992065,0.159786,0.401832,-0.100458,47,273,582,5728
1644171342.708474,-0.011108,0.011841,-0.989685,0.190321,0.325496,-0.100458,55,276,573,5664
1644171342.756826,-0.009033,0.008179,-0.990906,0.236122,0.356031,-0.14626,64,277,579,5696
1644171342.80523,-0.009094,0.01001,-0.990723,0.281924,0.294962,-0.161527,55,281,569,5760
1644171342.853685,-0.011047,0.009155,-0.993408,0.190321,0.356031,-0.008855,49,275,579,5696
1644171342.902053,-0.010681,0.011047,-0.989197,0.205588,0.386565,-0.192061,57,282,579,5824
1644171342.950457,-0.008118,0.010376,-0.990784,0.205588,0.493435,-0.069924,51,271,583,5696
1644171342.998841,-0.011292,0.009155,-0.989807,0.495664,0.447634,-0.14626,48,288,587,5760
1644171343.062354,-0.013977,0.011108,-0.990112,0.205588,0.294962,0.143817,58,269,576,5648
1644171343.095597,-0.010071,0.009399,-0.993103,0.190321,0.462901,0.113282,54,270,584,5696
1644171343.143965,-0.012329,0.009094,-0.990051,0.098718,0.462901,0.036947,54,280,582,5712
1644171343.192346,-0.008118,0.009583,-0.992737,0.388794,0.432366,0.021679,57,275,582,5696
1644171343.240746,-0.007507,0.009644,-0.99115,0.159786,0.417099,-0.100458,59,273,584,5664
1644171343.289147,-0.011475,0.007874,-0.989075,0.205588,0.371298,0.021679,48,276,569,5808
1644171343.337963,-0.010376,0.008179,-0.994995,0.297191,0.417099,-0.008855,53,269,585,5728
1644171343.388537,-0.010376,0.011169,-0.988831,0.159786,0.462901,-0.161527,49,268,579,5696
1644171343.438804,-0.01062,0.009399,-0.98938,0.327725,0.386565,-0.039389,53,281,573,5696
1644171343.483599,-0.010376,0.010254,-0.99054,0.373527,0.401832,-0.130992,55,269,576,5648
1644171343.579472,-0.012268,0.008484,-0.991577,0.236122,0.417099,-0.115725,46,276,585,5808
1644171343.627839,-0.010437,0.004944,-0.994263,0.236122,0.401832,-0.069924,60,271,578,5696
1644171343.676244,-0.012146,0.009766,-0.994812,0.175053,0.417099,-0.115725,48,266,583,5760
1644171343.724844,-0.007507,0.011414,-0.992188,0.205588,0.417099,-0.161527,57,265,572,5648
1644171343.77305,-0.009033,0.011719,-0.991089,0.35826,0.493435,-0.039389,48,281,571,5632
1644171343.821429,-0.011353,0.010193,-0.989502,0.266656,0.356031,-0.207328,48,264,569,5760
1644171343.869879,-0.008667,0.012268,-0.991821,0.281924,0.417099,-0.14626,59,277,572,5696
1644171343.918268,-0.007324,0.009277,-0.990356,0.236122,0.447634,-0.130992,54,275,568,5696
1644171343.966648,-0.00946,0.010864,-0.989502,0.205588,0.386565,-0.161527,52,277,582,5712
1644171344.015155,-0.012878,0.010193,-0.991211,0.220855,0.401832,-0.14626,65,279,580,5664
1644171344.069479,-0.007568,0.010193,-0.991028,0.159786,0.340763,-0.115725,54,273,575,5600
1644171344.111838,-0.010925,0.007996,-0.99292,0.236122,0.569771,-0.024122,43,269,578,5696
1644171344.160184,-0.008972,0.010681,-0.991089,0.144519,0.707176,-0.237863,54,270,572,5664
1644171344.208556,-0.011658,0.006897,-0.993896,0.236122,0.417099,-0.085191,54,277,579,5648
1644171344.256932,-0.008545,0.011719,-0.989624,0.281924,0.325496,-0.008855,55,274,576,5696
1644171344.305344,-0.01001,0.008179,-0.992432,0.159786,0.294962,0.067481,58,279,590,5696
1644171344.353734,-0.01001,0.01001,-0.992554,0.08345,0.340763,-0.100458,54,282,577,5584
1644171344.402839,-0.009705,0.008545,-0.990662,0.205588,0.401832,-0.176794,55,274,573,5696
1644171344.450773,-0.011292,0.008301,-0.99115,0.251389,0.447634,-0.14626,65,271,578,5696
1644171344.501255,-0.01178,0.009277,-0.989807,0.388794,0.432366,-0.115725,51,276,576,5664
1644171344.551266,-0.009521,0.010559,-0.991699,0.342992,0.371298,-0.085191,49,273,572,5728
1644171344.596419,-0.005188,0.012634,-0.991577,0.297191,0.340763,-0.039389,47,273,572,5840
1644171344.692477,-0.00824,0.012512,-0.992981,0.281924,0.340763,-0.039389,53,264,585,5664
1644171344.740852,-0.013306,0.01001,-0.991028,0.236122,0.401832,0.006412,54,270,575,5696
1644171344.789248,-0.010925,0.008484,-0.99292,0.236122,0.264427,-0.054656,53,269,580,5712
1644171344.837636,-0.008606,0.010315,-0.992493,0.327725,0.417099,-0.085191,48,274,573,5696
1644171344.886053,-0.008362,0.009766,-0.991882,0.220855,0.401832,0.021679,49,273,582,5632
1644171344.93448,-0.009949,0.008362,-0.990967,0.419328,0.401832,-0.039389,59,270,584,5728
1644171344.982874,-0.011597,0.010132,-0.993408,0.327725,0.356031,-0.176794,55,266,576,5712
1644171345.031234,-0.007812,0.009888,-0.991089,0.327725,0.294962,-0.054656,49,268,575,5760
1644171345.086219,-0.010376,0.010742,-0.989746,0.098718,0.279695,-0.176794,53,279,580,5696
1644171345.128024,-0.010437,0.009155,-0.991272,0.281924,0.447634,-0.085191,48,276,578,5696
1644171345.176376,-0.010864,0.01123,-0.990906,0.190321,0.157557,0.12855,49,270,579,5728
1644171345.224775,-0.010681,0.006409,-0.991455,0.236122,0.478168,-0.054656,43,279,578,5664
1644171345.273137,-0.009094,0.010925,-0.990967,0.205588,0.310229,-0.054656,58,271,573,5664
1644171345.321544,-0.009888,0.011108,-0.98938,0.220855,0.386565,-0.054656,58,281,580,5712
1644171345.369937,-0.007996,0.00885,-0.990051,0.159786,0.447634,-0.130992,46,271,573,5664
1644171345.41833,-0.009827,0.008423,-0.989807,0.312458,0.417099,-0.130992,66,277,575,5648
1644171345.46756,-0.011536,0.007263,-0.99115,0.236122,0.462901,-0.207328,54,270,579,5712
1644171345.518355,-0.008179,0.010498,-0.990295,0.190321,0.386565,0.006412,57,270,565,5696
1644171345.568216,-0.012817,0.00885,-0.993835,0.098718,0.386565,-0.100458,60,276,576,5648
1644171345.660291,-0.010376,0.009216,-0.993103,0.236122,0.432366,-0.008855,49,263,568,5664
1644171345.708652,-0.009888,0.010071,-0.993958,0.297191,0.386565,-0.039389,51,266,573,5664
1644171345.757056,-0.010132,0.007996,-0.994385,0.190321,0.371298,-0.008855,46,274,580,5696
1644171345.805451,-0.010803,0.008545,-0.990967,0.266656,0.523969,-0.161527,48,271,564,5664
1644171345.85386,-0.008667,0.01123,-0.992493,0.037649,0.325496,-0.085191,55,279,580,5648
1644171345.902286,-0.009277,0.009216,-0.990295,0.388794,0.386565,-0.039389,55,271,576,5696
1644171345.950663,-0.01416,0.013794,-0.991577,0.419328,0.447634,-0.085191,51,274,573,5696
1644171345.999025,-0.008423,0.009583,-0.993591,0.236122,0.478168,0.036947,49,273,570,5696
1644171346.057025,-0.011536,0.009521,-0.992859,0.297191,0.478168,-0.069924,48,274,580,5712
1644171346.09834,-0.009705,0.010254,-0.990295,0.190321,0.279695,-0.115725,48,276,580,5600
1644171346.144194,-0.007202,0.008301,-0.990417,0.220855,0.462901,-0.069924,54,280,570,5712
1644171346.1926,-0.010193,0.006958,-0.992859,0.35826,0.386565,-0.14626,43,266,576,5696
1644171346.240969,-0.010742,0.008545,-0.99231,0.342992,0.294962,-0.069924,49,277,579,5696
1644171346.289403,-0.009033,0.010986,-0.991028,0.068183,0.569771,-0.176794,51,264,580,5664
1644171346.337755,-0.010803,0.011169,-0.988892,0.159786,0.478168,-0.115725,54,275,570,5728
1644171346.386148,-0.010254,0.010376,-0.987976,0.251389,0.264427,-0.069924,59,277,577,5632
1644171346.434525,-0.010376,0.010315,-0.991455,0.205588,0.478168,-0.039389,47,273,586,5664
1644171346.48292,-0.009094,0.01001,-0.99115,0.236122,0.386565,-0.039389,47,270,577,5712
1644171346.53132,-0.007324,0.011292,-0.993042,0.113985,0.371298,-0.176794,59,270,579,5648
1644171346.579978,-0.011597,0.007812,-0.991028,0.312458,0.417099,-0.008855,52,275,582,5696
1644171346.630449,-0.011108,0.008911,-0.992432,0.205588,0.356031,-0.069924,53,259,571,5664
1644171346.680732,-0.010376,0.012756,-0.992432,0.35826,0.386565,-0.161527,45,273,577,5648
1644171346.725703,-0.01123,0.009644,-0.990967,0.281924,0.462901,-0.054656,53,271,578,5664
1644171346.821656,-0.009949,0.009949,-0.99231,0.373527,0.447634,0.006412,51,274,576,5664
1644171346.870048,-0.013855,0.008362,-0.991821,0.35826,0.462901,-0.039389,53,279,571,5664
1644171346.918465,-0.008362,0.008484,-0.993225,0.342992,0.554504,-0.176794,57,263,579,5664
1644171346.966868,-0.009827,0.009277,-0.993042,0.281924,0.294962,-0.14626,54,277,577,5696
1644171347.015251,-0.010559,0.008606,-0.989319,0.281924,0.356031,-0.161527,52,277,582,5696
1644171347.063709,-0.010498,0.010376,-0.992554,0.037649,0.310229,0.036947,48,279,578,5712
1644171347.112003,-0.010864,0.009949,-0.988892,0.312458,0.417099,-0.054656,53,274,590,5664
1644171347.160394,-0.008545,0.008667,-0.991455,0.190321,0.386565,-0.222595,36,271,580,5664
1644171347.208784,-0.009949,0.009827,-0.99054,0.205588,0.447634,-0.054656,58,274,571,5648
1644171347.257181,-0.010925,0.009399,-0.992676,0.220855,0.523969,-0.130992,47,270,570,5712
1644171347.305568,-0.01062,0.008728,-0.989563,0.205588,0.294962,-0.008855,60,274,573,5696
1644171347.353964,-0.010864,0.009277,-0.990112,0.037649,0.539237,-0.069924,40,277,586,5712
1644171347.402332,-0.010132,0.009155,-0.992615,0.281924,0.478168,0.159084,48,269,573,5696
1644171347.450717,-0.009277,0.007324,-0.991211,0.098718,0.493435,-0.085191,49,273,584,5776
1644171347.499119,-0.007996,0.009399,-0.989746,0.35826,0.401832,-0.176794,49,270,582,5696
1644171347.547509,-0.010803,0.010315,-0.989075,0.281924,0.478168,-0.069924,53,276,576,5760
1644171347.595877,-0.009949,0.011108,-0.990295,0.297191,0.447634,-0.039389,58,271,578,5664
1644171347.644295,-0.010193,0.011475,-0.987671,0.190321,0.371298,-0.130992,54,277,570,5696
1644171347.692939,-0.012512,0.007996,-0.989624,0.236122,0.432366,-0.008855,45,287,579,5712
1644171347.741706,-0.008606,0.01123,-0.991089,0.144519,0.386565,-0.130992,61,268,575,5696
1644171347.793386,-0.006714,0.009949,-0.991272,0.220855,0.371298,-0.100458,46,274,590,5760
1644171347.843921,-0.011292,0.012268,-0.990906,0.098718,0.340763,-0.024122,43,271,564,5760
1644171347.888165,-0.009644,0.010071,-0.99115,0.373527,0.325496,-0.207328,52,287,575,5760
1644171347.983091,-0.01062,0.010559,-0.991455,0.297191,0.371298,-0.176794,49,270,575,5648
1644171348.031434,-0.009827,0.00885,-0.990662,0.297191,0.508702,0.067481,48,279,583,5648
1644171348.080535,-0.009399,0.009338,-0.991333,0.190321,0.432366,-0.207328,55,274,580,5696
1644171348.12819,-0.010071,0.009583,-0.991028,0.175053,0.493435,-0.008855,48,279,580,5648
1644171348.176596,-0.008789,0.010132,-0.991089,0.175053,0.264427,-0.024122,48,264,573,5712
1644171348.225034,-0.009399,0.007324,-0.995911,0.190321,0.447634,-0.222595,46,276,571,5696
1644171348.273365,-0.008545,0.00946,-0.991089,0.220855,0.539237,-0.039389,46,264,580,5648
1644171348.32177,-0.007141,0.00946,-0.98938,0.281924,0.371298,-0.161527,43,271,569,5712
1644171348.370162,-0.011841,0.011414,-0.989624,0.205588,0.417099,0.006412,52,273,579,5664
1644171348.41855,-0.012329,0.00946,-0.99231,0.236122,0.447634,0.006412,54,265,575,5600
1644171348.466952,-0.011292,0.009644,-0.990784,0.251389,0.294962,-0.069924,47,280,570,5696
1644171348.515332,-0.012207,0.009033,-0.989929,0.068183,0.356031,-0.039389,47,265,579,5664
1644171348.563729,-0.008423,0.008179,-0.991821,0.220855,0.325496,-0.115725,54,277,586,5648
1644171348.612213,-0.009583,0.008423,-0.992493,0.342992,0.447634,-0.115725,52,268,575,5648
1644171348.660471,-0.009827,0.009338,-0.990417,0.159786,0.264427,-0.100458,54,277,584,5712
1644171348.708891,-0.008972,0.008362,-0.992981,-0.008153,0.279695,-0.085191,51,274,578,5664
1644171348.757261,-0.008118,0.009583,-0.992615,0.35826,0.447634,-0.130992,54,273,586,5712
1644171348.805921,-0.007812,0.008728,-0.990906,0.144519,0.432366,-0.085191,47,277,582,5664
1644171348.854112,-0.010193,0.011169,-0.989929,0.068183,0.233893,0.036947,49,287,568,5712
1644171348.903913,-0.009583,0.009155,-0.991211,0.327725,0.401832,-0.100458,49,270,582,5728
1644171348.954103,-0.010254,0.010132,-0.992249,0.281924,0.432366,-0.039389,53,276,585,5648
1644171349.004455,-0.007751,0.012939,-0.992859,0.312458,0.447634,-0.008855,47,275,579,5696
1644171349.075447,-0.008423,0.009827,-0.99054,0.312458,0.371298,-0.237863,57,275,577,5696
1644171349.144415,-0.010071,0.011597,-0.991516,0.205588,0.401832,-0.024122,51,279,576,5696
1644171349.19282,-0.010864,0.008057,-0.99231,0.312458,0.447634,-0.024122,51,269,580,5664
1644171349.241175,-0.010864,0.012573,-0.992493,0.098718,0.386565,-0.039389,49,273,582,5712
1644171349.289561,-0.011169,0.009583,-0.991455,0.190321,0.401832,-0.069924,48,276,578,5696
1644171349.337967,-0.012695,0.008911,-0.991577,0.251389,0.432366,-0.130992,49,265,577,5760
1644171349.386364,-0.011292,0.009277,-0.990479,0.190321,0.447634,-0.039389,52,280,575,5712
1644171349.434755,-0.011292,0.008667,-0.994446,0.190321,0.462901,-0.14626,52,273,570,5696
1644171349.483155,-0.00769,0.009399,-0.990662,0.434595,0.401832,-0.069924,53,281,578,5648
1644171349.53153,-0.00769,0.01239,-0.992065,0.159786,0.539237,-0.161527,51,266,580,5664
1644171349.57993,-0.010254,0.009216,-0.99292,0.205588,0.432366,-0.069924,54,273,577,5696
1644171349.628322,-0.010254,0.009277,-0.992432,0.159786,0.478168,-0.069924,42,275,589,5648
1644171349.6767,-0.010132,0.008301,-0.991638,0.281924,0.386565,-0.130992,54,277,582,5696
1644171349.725214,-0.007019,0.006714,-0.993286,0.205588,0.386565,-0.176794,49,273,577,5696
1644171349.773499,-0.010498,0.014343,-0.993164,0.266656,0.310229,-0.130992,53,271,578,5712
1644171349.821919,-0.009583,0.00824,-0.991638,0.266656,0.447634,-0.176794,49,275,589,5696
1644171349.870304,-0.010132,0.006958,-0.993591,0.312458,0.432366,-0.069924,49,282,570,5664
1644171349.918689,-0.012085,0.009216,-0.990479,0.205588,0.432366,-0.130992,54,277,579,5648
1644171349.967122,-0.009155,0.008667,-0.993835,0.113985,0.371298,-0.25313,49,273,579,5712
1644171350.015519,-0.010498,0.009949,-0.992371,0.266656,0.478168,-0.008855,54,268,579,5728
1644171350.082807,-0.011169,0.007568,-0.988953,0.251389,0.432366,-0.176794,61,275,582,5664
1644171350.160591,-0.007812,0.009888,-0.991638,0.159786,0.340763,-0.115725,43,281,576,5696
1644171350.208992,-0.008667,0.008667,-0.992249,0.297191,0.401832,-0.054656,53,274,569,5696
1644171350.257427,-0.011658,0.00946,-0.991272,0.144519,0.539237,-0.161527,57,285,579,5696
1644171350.305787,-0.009644,0.01123,-0.989258,0.266656,0.279695,-0.130992,58,276,573,5712
1644171350.354167,-0.007812,0.011475,-0.990906,0.236122,0.386565,0.021679,51,279,578,5696
1644171350.402587,-0.008972,0.009094,-0.99292,0.297191,0.340763,-0.024122,52,277,577,5696
1644171350.45095,-0.010742,0.010559,-0.98938,0.129252,0.310229,-0.008855,52,273,579,5696
1644171350.499329,-0.010376,0.010315,-0.991882,0.220855,0.462901,-0.161527,47,280,584,5600
1644171350.547736,-0.009521,0.009399,-0.993408,0.129252,0.310229,-0.085191,59,265,582,5648
1644171350.596134,-0.013245,0.011902,-0.991028,0.251389,0.386565,-0.14626,47,277,584,5664
1644171350.644525,-0.008362,0.008179,-0.991028,0.251389,0.401832,-0.069924,59,277,584,5696
1644171350.692936,-0.013367,0.010559,-0.989746,0.236122,0.493435,-0.039389,49,268,577,5664
1644171350.741301,-0.010193,0.011047,-0.990845,0.297191,0.432366,-0.085191,52,268,575,5648
1644171350.789694,-0.009583,0.010803,-0.993164,0.312458,0.310229,-0.054656,49,273,579,5696
1644171350.838115,-0.006897,0.00885,-0.993286,0.098718,0.401832,-0.100458,60,262,580,5696
1644171350.886503,-0.010071,0.013977,-0.992249,0.175053,0.386565,0.082748,59,275,582,5600
1644171350.934899,-0.011108,0.008545,-0.992432,0.236122,0.356031,0.021679,55,276,573,5648
1644171350.983294,-0.010315,0.007568,-0.992004,0.373527,0.310229,0.067481,47,273,589,5760
1644171351.032015,-0.009583,0.010071,-0.993774,0.098718,0.356031,-0.039389,51,286,585,5664
1644171351.08761,-0.007019,0.008423,-0.991333,0.175053,0.462901,-0.024122,53,274,573,5696
1644171351.131347,-0.009583,0.008301,-0.990662,0.281924,0.493435,0.036947,51,266,580,5664
1644171351.180573,-0.006104,0.010254,-0.992371,0.159786,0.569771,0.021679,54,273,577,5632
1644171351.225726,-0.011963,0.009338,-0.994385,0.327725,0.432366,-0.115725,47,277,584,5696
1644171351.321976,-0.009094,0.01123,-0.99231,0.342992,0.325496,-0.176794,49,270,575,5632
1644171351.370373,-0.011902,0.010437,-0.99054,0.190321,0.325496,-0.069924,51,266,580,5664
1644171351.418764,-0.010193,0.01001,-0.992004,0.220855,0.432366,-0.115725,38,277,582,5648
1644171351.467156,-0.010193,0.009155,-0.991089,0.35826,0.294962,-0.039389,60,276,569,5696
1644171351.51555,-0.009888,0.009216,-0.99115,0.190321,0.310229,-0.14626,49,275,575,5728
1644171351.563949,-0.007874,0.009094,-0.991089,0.205588,0.478168,-0.008855,49,280,572,5664
1644171351.612351,-0.010742,0.009338,-0.990417,0.327725,0.417099,-0.161527,53,271,571,5696
1644171351.660729,-0.010254,0.010742,-0.990601,0.205588,0.371298,-0.054656,45,265,572,5648
1644171351.709123,-0.011597,0.012268,-0.995117,0.236122,0.447634,-0.054656,41,276,580,5664
1644171351.757495,-0.013367,0.008667,-0.992004,0.251389,0.386565,-0.054656,58,271,576,5712
1644171351.805898,-0.012451,0.010437,-0.989807,0.404061,0.417099,-0.039389,59,270,584,5648
1644171351.854342,-0.010681,0.009277,-0.993896,0.129252,0.401832,-0.222595,59,280,572,5696
1644171351.902734,-0.00885,0.008667,-0.990356,0.266656,0.417099,-0.115725,57,268,577,5712
1644171351.951109,-0.013062,0.008789,-0.994202,0.175053,0.356031,-0.054656,52,270,591,5664
1644171351.999514,-0.009644,0.010498,-0.991455,0.35826,0.386565,0.067481,49,275,575,5696
1644171352.063718,-0.01239,0.01062,-0.993408,0.205588,0.356031,0.021679,53,271,578,5664
1644171352.100783,-0.008789,0.011597,-0.991272,0.175053,0.462901,0.006412,54,263,591,5760
1644171352.144642,-0.008972,0.01062,-0.992249,0.342992,0.493435,0.036947,54,280,579,5664
1644171352.193121,-0.010498,0.010986,-0.991882,0.312458,0.401832,-0.115725,57,268,586,5648
1644171352.241989,-0.006226,0.011597,-0.989807,0.236122,0.447634,-0.039389,60,279,576,5648
1644171352.292488,-0.010315,0.01001,-0.993164,0.236122,0.417099,-0.115725,55,276,580,5648
1644171352.342831,-0.01001,0.009766,-0.991333,0.342992,0.401832,-0.024122,54,275,593,5696
1644171352.387681,-0.009827,0.010132,-0.991028,0.251389,0.340763,0.006412,53,271,573,5696
1644171352.483375,-0.010803,0.012817,-0.993469,0.236122,0.523969,-0.268397,55,276,573,5712
1644171352.53175,-0.010315,0.00946,-0.990967,0.098718,0.462901,-0.024122,51,266,583,5712
1644171352.580143,-0.010925,0.009583,-0.990234,0.251389,0.523969,-0.130992,49,270,572,5728
1644171352.628541,-0.01062,0.007385,-0.989441,0.236122,0.447634,-0.039389,57,277,568,5648
1644171352.676918,-0.010437,0.010071,-0.992249,0.342992,0.401832,-0.024122,54,275,575,5664
1644171352.725319,-0.010254,0.009216,-0.992249,0.251389,0.493435,-0.115725,47,263,577,5648
1644171352.773714,-0.010803,0.008606,-0.993591,0.327725,0.325496,-0.14626,49,275,572,5648
1644171352.822144,-0.01062,0.009216,-0.992004,0.205588,0.279695,-0.130992,57,268,584,5696
1644171352.870502,-0.008545,0.009521,-0.992981,0.205588,0.356031,-0.039389,46,274,569,5664
1644171352.918931,-0.012024,0.006287,-0.990662,0.251389,0.432366,-0.100458,53,276,578,5584
1644171352.967318,-0.01178,0.012939,-0.991272,0.098718,0.508702,-0.130992,54,285,582,5696
1644171353.015711,-0.00946,0.006348,-0.990112,0.190321,0.386565,-0.298931,48,274,576,5696
1644171353.069536,-0.006897,0.012024,-0.990784,0.068183,0.310229,-0.130992,59,282,584,5696
1644171353.112486,-0.010254,0.007874,-0.992126,0.342992,0.279695,-0.085191,42,287,586,5696
1644171353.160835,-0.009338,0.006226,-0.989868,0.175053,0.386565,-0.176794,46,271,573,5664
1644171353.209242,-0.010193,0.00885,-0.992065,0.342992,0.401832,-0.024122,53,271,585,5696
1644171353.257599,-0.010681,0.008789,-0.990356,0.281924,0.386565,-0.14626,60,264,578,5712
1644171353.306006,-0.010803,0.010925,-0.990967,0.266656,0.432366,-0.100458,60,274,578,5648
1644171353.354391,-0.014038,0.010376,-0.99176,0.159786,0.447634,-0.054656,43,281,583,5712
1644171353.403105,-0.009888,0.008911,-0.989868,0.129252,0.386565,-0.161527,52,260,586,5696
1644171353.45387,-0.010986,0.012024,-0.991943,0.342992,0.340763,-0.192061,51,276,585,5664
1644171353.503875,-0.010864,0.010315,-0.992493,0.159786,0.478168,-0.008855,53,269,583,5696
1644171353.548715,-0.011169,0.008423,-0.992065,0.266656,0.310229,-0.115725,57,273,577,5664
1644171353.644866,-0.010681,0.012756,-0.990845,0.098718,0.478168,-0.130992,45,273,584,5648
1644171353.693146,-0.010437,0.010193,-0.992981,0.220855,0.279695,-0.176794,57,270,579,5648
1644171353.741509,-0.007812,0.009827,-0.990967,0.281924,0.203359,-0.25313,49,270,572,5728
1644171353.789897,-0.009521,0.010315,-0.990662,0.266656,0.386565,-0.085191,45,270,575,5696
1644171353.838274,-0.01001,0.010498,-0.992249,0.220855,0.203359,-0.161527,47,275,579,5648
1644171353.886729,-0.010193,0.008362,-0.991028,-0.02342,0.585038,-0.054656,49,275,570,5664
1644171353.93516,-0.009949,0.009521,-0.99054,0.281924,0.386565,-0.085191,57,277,579,5664
1644171353.983527,-0.007629,0.010437,-0.987976,0.190321,0.325496,-0.268397,48,262,585,5664
1644171354.031918,-0.007874,0.006836,-0.991821,0.190321,0.447634,-0.176794,51,274,578,5664
1644171354.083765,-0.009766,0.00708,-0.992676,0.388794,0.508702,-0.069924,51,271,576,5696
1644171354.128679,-0.008728,0.008179,-0.989868,0.342992,0.386565,-0.222595,51,271,569,5696
1644171354.177046,-0.009888,0.011841,-0.989929,0.205588,0.462901,-0.237863,43,269,578,5664
1644171354.225441,-0.010193,0.009644,-0.991028,0.297191,0.325496,-0.222595,47,280,577,5648
1644171354.273791,-0.012085,0.007629,-0.989807,0.190321,0.340763,-0.100458,53,274,585,5696
1644171354.322293,-0.008545,0.012024,-0.992371,0.159786,0.325496,-0.207328,54,270,584,5712
1644171354.371153,-0.010071,0.010498,-0.990967,0.251389,0.294962,-0.192061,47,285,577,5664
1644171354.419012,-0.009155,0.010864,-0.991516,0.312458,0.371298,-0.008855,55,271,583,5728
1644171354.468697,-0.008362,0.009399,-0.99115,0.037649,0.310229,-0.069924,58,269,576,5664
1644171354.519074,-0.007385,0.007996,-0.991211,0.113985,0.310229,-0.085191,51,281,578,5648
1644171354.569172,-0.012329,0.010681,-0.992981,0.342992,0.417099,-0.314198,47,268,572,5664
1644171354.660941,-0.006531,0.010925,-0.990173,0.205588,0.386565,-0.25313,46,279,580,5728
1644171354.709331,-0.010254,0.009155,-0.991699,0.297191,0.569771,-0.222595,47,270,584,5664
1644171354.757693,-0.010681,0.008179,-0.993042,0.220855,0.386565,-0.069924,52,268,575,5696
1644171354.806102,-0.008667,0.011658,-0.99054,0.35826,0.417099,-0.176794,52,275,568,5648
1644171354.854508,-0.008362,0.008606,-0.990784,0.113985,0.386565,-0.130992,52,273,577,5696
1644171354.902948,-0.01062,0.010803,-0.990234,0.220855,0.462901,-0.069924,45,275,570,5600
1644171354.951304,-0.009216,0.010376,-0.991394,0.205588,0.371298,0.036947,59,273,579,5696
1644171354.999699,-0.00708,0.01001,-0.989563,0.144519,0.386565,-0.069924,59,268,579,5696
1644171355.063629,-0.010132,0.009827,-0.992004,0.175053,0.478168,0.006412,60,269,587,5712
1644171355.098015,-0.007629,0.012146,-0.991699,0.281924,0.417099,-0.085191,60,269,580,5696
1644171355.144933,-0.008179,0.011963,-0.992798,0.297191,0.401832,-0.14626,64,277,575,5664
1644171355.193301,-0.010315,0.010742,-0.990479,0.281924,0.356031,-0.085191,49,273,575,5696
1644171355.241663,-0.00885,0.007629,-0.991211,0.129252,0.478168,0.021679,42,277,579,5728
1644171355.290052,-0.008423,0.012085,-0.992065,0.220855,0.401832,-0.130992,60,269,571,5760
1644171355.338446,-0.008667,0.009155,-0.992188,0.220855,0.340763,-0.008855,45,280,577,5664
1644171355.386851,-0.009705,0.012756,-0.99353,0.098718,0.310229,-0.039389,42,282,577,5696
1644171355.43622,-0.00946,0.008667,-0.990234,0.327725,0.371298,-0.176794,46,276,594,5648
1644171355.483646,-0.010864,0.010742,-0.991028,0.052916,0.401832,0.006412,40,270,575,5696
1644171355.533779,-0.011047,0.011169,-0.989868,0.144519,0.539237,0.067481,47,280,584,5760
1644171355.583933,-0.008911,0.010376,-0.99231,0.098718,0.325496,-0.008855,59,275,572,5728
1644171355.634127,-0.008972,0.01178,-0.991638,0.205588,0.356031,-0.115725,52,275,582,5712
1644171355.678872,-0.010132,0.006958,-0.989563,0.297191,0.24916,0.021679,49,277,582,5712
1644171355.773975,-0.011047,0.008728,-0.99176,0.251389,0.325496,-0.130992,58,279,580,5760
1644171355.822437,-0.012207,0.011963,-0.990784,0.220855,0.447634,-0.14626,49,275,575,5696
1644171355.870728,-0.007751,0.008362,-0.991089,0.312458,0.447634,0.021679,40,282,572,5664
1644171355.919111,-0.009216,0.011475,-0.990723,0.159786,0.340763,-0.176794,47,277,579,5712
1644171355.967522,-0.009705,0.009705,-0.991272,0.251389,0.401832,-0.14626,49,277,572,5648
1644171356.015911,-0.008423,0.011169,-0.990356,0.113985,0.325496,-0.069924,43,271,573,5712
1644171356.064528,-0.01062,0.01239,-0.989929,0.251389,0.386565,-0.100458,61,275,580,5648
1644171356.1127,-0.007141,0.009094,-0.991272,0.190321,0.386565,0.036947,49,268,586,5632
1644171356.161059,-0.010254,0.008728,-0.995239,0.251389,0.508702,0.113282,55,274,576,5664
1644171356.209416,-0.011169,0.010498,-0.99176,0.175053,0.462901,0.021679,54,275,579,5696
1644171356.257827,-0.007996,0.010681,-0.992371,0.327725,0.218626,-0.100458,60,271,580,5712
1644171356.306211,-0.011597,0.010498,-0.992004,0.068183,0.356031,-0.237863,51,274,578,5664
1644171356.354706,-0.010925,0.01178,-0.990601,0.434595,0.417099,-0.130992,45,273,584,5728
1644171356.403039,-0.00946,0.011292,-0.990417,0.159786,0.432366,-0.024122,58,276,583,5664
1644171356.451398,-0.011597,0.008606,-0.989868,0.220855,0.508702,0.006412,54,273,577,5696
1644171356.499792,-0.009705,0.011719,-0.990234,0.205588,0.585038,-0.207328,58,269,583,5664
1644171356.548181,-0.01239,0.011719,-0.993591,0.281924,0.386565,0.006412,46,269,585,5696
1644171356.596569,-0.006592,0.01239,-0.991821,0.205588,0.417099,0.006412,48,276,573,5728
1644171356.645007,-0.009033,0.010254,-0.991882,0.35826,0.24916,0.021679,45,280,582,5648
1644171356.693381,-0.010315,0.007141,-0.990417,0.205588,0.264427,0.021679,52,275,579,5728
1644171356.743568,-0.012573,0.008484,-0.992615,0.205588,0.401832,-0.176794,53,276,576,5648
1644171356.794533,-0.011292,0.007812,-0.992554,0.129252,0.447634,-0.069924,48,257,576,5760
1644171356.839495,-0.011963,0.00824,-0.989929,0.342992,0.462901,-0.054656,54,265,577,5664
1644171356.935493,-0.009155,0.008911,-0.993164,0.251389,0.325496,-0.069924,51,271,573,5728
1644171356.983736,-0.008118,0.007996,-0.992737,0.220855,0.340763,-0.008855,41,276,576,5648
1644171357.032408,-0.007935,0.011597,-0.988647,0.297191,0.462901,-0.039389,54,263,577,5696
1644171357.080598,-0.008911,0.007935,-0.98877,0.251389,0.539237,-0.100458,58,271,578,5728
1644171357.128871,-0.012451,0.008667,-0.988831,0.312458,0.325496,-0.192061,57,275,563,5664
1644171357.177251,-0.011292,0.011475,-0.995178,0.236122,0.386565,0.052214,43,279,580,5712
1644171357.225641,-0.007507,0.01123,-0.993042,0.175053,0.462901,-0.008855,52,268,575,5712
1644171357.274022,-0.010437,0.008911,-0.992004,0.327725,0.462901,-0.085191,59,277,582,5648
1644171357.32245,-0.012207,0.011536,-0.993347,0.266656,0.294962,-0.115725,57,268,582,5696
1644171357.370772,-0.01239,0.008484,-0.993286,0.159786,0.310229,-0.161527,55,274,585,5776
1644171357.419217,-0.010681,0.008728,-0.992249,0.159786,0.478168,-0.161527,62,266,578,5664
1644171357.467601,-0.012329,0.010925,-0.991577,0.08345,0.539237,-0.176794,46,269,573,5712
1644171357.515994,-0.010498,0.01001,-0.992188,0.312458,0.447634,-0.207328,58,271,583,5696
1644171357.564385,-0.010559,0.009094,-0.993164,0.251389,0.340763,0.036947,49,268,577,5584
1644171357.612819,-0.010437,0.008972,-0.993103,0.434595,0.356031,-0.054656,47,265,579,5664
1644171357.662576,-0.008911,0.009766,-0.993164,0.251389,0.294962,-0.192061,52,270,565,5760
1644171357.712835,-0.00885,0.010559,-0.989319,0.205588,0.371298,0.174351,51,276,573,5696
1644171357.762877,-0.008545,0.007324,-0.992615,0.113985,0.447634,-0.008855,48,274,583,5728
1644171357.854901,-0.010193,0.007202,-0.990051,0.449863,0.447634,-0.14626,47,277,575,5696
1644171357.903147,-0.009705,0.009155,-0.993225,0.342992,0.325496,-0.130992,51,274,576,5664
1644171357.951553,-0.009583,0.007507,-0.990845,0.297191,0.401832,-0.039389,60,286,585,5712
1644171357.999906,-0.009521,0.01178,-0.990906,0.266656,0.493435,-0.085191,39,269,573,5696
1644171358.060519,-0.009399,0.007507,-0.989563,0.098718,0.478168,-0.100458,47,277,577,5664
1644171358.100304,-0.010803,0.009399,-0.992188,0.251389,0.340763,-0.024122,60,279,587,5696
1644171358.145106,-0.010376,0.007874,-0.99231,0.037649,0.294962,-0.069924,54,270,568,5728
1644171358.193481,-0.009705,0.009521,-0.991943,0.281924,0.432366,-0.024122,58,266,578,5728
1644171358.241851,-0.009399,0.01062,-0.990479,0.144519,0.325496,-0.069924,47,275,579,5776
1644171358.290239,-0.007141,0.00824,-0.993103,0.327725,0.356031,0.021679,54,277,589,5648
1644171358.338633,-0.009399,0.009705,-0.99054,0.281924,0.493435,-0.069924,49,277,579,5696
1644171358.387037,-0.007751,0.014343,-0.991211,0.342992,0.386565,-0.100458,47,270,575,5696
1644171358.43542,-0.009644,0.009094,-0.98999,0.266656,0.493435,-0.130992,57,277,572,5664
1644171358.483802,-0.009155,0.008606,-0.988953,0.190321,0.462901,-0.207328,53,271,587,5648
1644171358.532214,-0.008667,0.010193,-0.989075,0.266656,0.493435,-0.161527,53,281,578,5696
1644171358.580589,-0.01062,0.011414,-0.99292,0.388794,0.401832,-0.14626,55,262,585,5648
1644171358.628969,-0.008911,0.009827,-0.990112,0.220855,0.417099,0.036947,60,276,576,5664
1644171358.677673,-0.009888,0.011169,-0.991455,0.388794,0.432366,0.067481,47,270,579,5696
1644171358.728281,-0.008118,0.00946,-0.990784,0.327725,0.432366,0.021679,51,271,590,5664
1644171358.778697,-0.007935,0.010254,-0.989563,0.129252,0.63084,0.006412,46,279,585,5664
1644171358.82349,-0.009338,0.011414,-0.988159,0.129252,0.386565,-0.192061,54,273,589,5696
1644171358.91936,-0.01062,0.011292,-0.990845,0.220855,0.432366,-0.100458,55,279,580,5648
1644171358.967753,-0.008911,0.012695,-0.993164,0.205588,0.325496,0.052214,61,282,575,5824
1644171359.016142,-0.012024,0.008423,-0.990601,0.327725,0.386565,-0.130992,42,260,575,5648
1644171359.067649,-0.011597,0.009949,-0.990173,0.220855,0.462901,-0.054656,54,270,579,5712
1644171359.112916,-0.008118,0.007385,-0.991821,0.327725,0.417099,-0.039389,49,275,589,5760
1644171359.161242,-0.012024,0.008362,-0.989929,0.297191,0.401832,0.021679,45,270,575,5776
1644171359.209654,-0.00769,0.011292,-0.991028,0.281924,0.356031,-0.069924,53,271,576,5648
1644171359.258065,-0.007324,0.011292,-0.992676,-0.038687,0.523969,-0.054656,45,280,577,5600
1644171359.306426,-0.011719,0.01062,-0.990967,0.236122,0.218626,-0.115725,54,275,584,5696
1644171359.354829,-0.010925,0.010498,-0.993835,0.190321,0.356031,-0.176794,53,269,573,5664
1644171359.403258,-0.011353,0.009766,-0.991028,0.251389,0.294962,-0.069924,51,269,578,5664
1644171359.451625,-0.010864,0.010925,-0.99115,0.297191,0.554504,-0.130992,46,274,576,5648
1644171359.500029,-0.010193,0.010437,-0.992249,0.297191,0.325496,-0.054656,55,274,583,5664
1644171359.548404,-0.010986,0.01123,-0.991394,0.190321,0.508702,-0.008855,43,269,585,5696
1644171359.596788,-0.009827,0.007324,-0.992126,0.281924,0.371298,-0.039389,53,276,573,5696
1644171359.645177,-0.008362,0.014221,-0.989929,0.159786,0.279695,-0.039389,49,270,575,5696
1644171359.693561,-0.011597,0.009583,-0.989807,0.037649,0.554504,-0.100458,57,273,586,5760
1644171359.74196,-0.006958,0.010864,-0.99231,0.205588,0.432366,-0.085191,57,270,579,5664
1644171359.79041,-0.010315,0.011902,-0.990967,0.175053,0.325496,-0.222595,48,271,573,5664
1644171359.840242,-0.010864,0.013,-0.990112,0.281924,0.417099,-0.024122,57,273,577,5712
1644171359.890504,-0.011169,0.011597,-0.992126,0.312458,0.401832,-0.039389,51,266,583,5664
1644171359.940795,-0.010498,0.008423,-0.991028,0.08345,0.356031,-0.192061,54,282,575,5712
1644171359.985514,-0.010681,0.00946,-0.99054,0.159786,0.371298,0.021679,54,268,579,5696
1644171360.082908,-0.010071,0.011047,-0.993042,0.281924,0.432366,-0.130992,46,262,576,5696
1644171360.129122,-0.00946,0.010376,-0.992371,0.297191,0.279695,-0.024122,48,274,573,5584
1644171360.177468,-0.011047,0.010559,-0.990784,0.266656,0.417099,-0.008855,54,273,575,5696
1644171360.225854,-0.012573,0.008789,-0.991638,0.297191,0.279695,-0.069924,53,276,576,5696
1644171360.274268,-0.012146,0.009033,-0.99176,0.373527,0.462901,0.036947,52,270,575,5648
1644171360.322669,-0.011536,0.012573,-0.992004,0.175053,0.462901,-0.222595,41,279,573,5664
1644171360.371063,-0.008179,0.00824,-0.990784,0.266656,0.417099,-0.069924,57,263,561,5728
1644171360.419436,-0.008545,0.008362,-0.992004,0.205588,0.264427,-0.085191,54,273,582,5696
1644171360.467808,-0.010864,0.006531,-0.993103,0.236122,0.264427,-0.115725,52,282,572,5664
1644171360.516218,-0.01062,0.008789,-0.993835,0.251389,0.356031,-0.085191,51,266,569,5712
1644171360.564706,-0.00946,0.011353,-0.992615,0.08345,0.432366,-0.039389,61,275,577,5664
1644171360.613002,-0.010498,0.010193,-0.991455,0.236122,0.462901,-0.069924,47,275,584,5648
1644171360.661389,-0.01062,0.011475,-0.993164,0.266656,0.310229,-0.176794,46,274,580,5648
1644171360.709776,-0.012085,0.011353,-0.99176,0.236122,0.508702,-0.039389,43,274,580,5648
1644171360.75816,-0.011841,0.008728,-0.992065,0.327725,0.24916,-0.085191,58,276,576,5664
1644171360.806552,-0.008789,0.009705,-0.990417,0.312458,0.462901,-0.207328,57,270,577,5696
1644171360.855366,-0.009644,0.007019,-0.993774,0.144519,0.294962,-0.176794,60,264,583,5664
1644171360.903387,-0.010742,0.008179,-0.991516,0.266656,0.478168,0.067481,42,277,570,5664
1644171360.953176,-0.010315,0.01001,-0.99115,0.251389,0.523969,-0.024122,48,276,576,5648
1644171361.003514,-0.010742,0.014099,-0.990906,0.251389,0.462901,-0.161527,48,276,587,5712
1644171361.075644,-0.011536,0.009949,-0.991394,0.266656,0.447634,-0.115725,51,271,585,5712
1644171361.106723,-0.011353,0.007996,-0.992493,0.190321,0.554504,-0.039389,46,274,578,5696
1644171361.193696,-0.009216,0.009399,-0.990784,0.236122,0.569771,-0.130992,52,265,575,5696
1644171361.242079,-0.008057,0.009338,-0.991638,0.220855,0.462901,-0.024122,46,271,569,5664
1644171361.290471,-0.008545,0.007263,-0.99115,0.281924,0.264427,0.036947,51,279,571,5664
1644171361.33885,-0.011658,0.009644,-0.99231,0.190321,0.432366,0.006412,49,268,572,5648
1644171361.387234,-0.009338,0.010071,-0.991455,0.327725,0.508702,0.036947,46,279,566,5712
1644171361.43563,-0.007935,0.010437,-0.992371,0.190321,0.356031,-0.192061,52,273,586,5696
1644171361.484021,-0.009399,0.011597,-0.989807,0.236122,0.493435,-0.054656,54,268,572,5648
1644171361.532425,-0.009277,0.010864,-0.991882,0.068183,0.447634,-0.14626,55,279,566,5696
1644171361.580804,-0.007935,0.010986,-0.994019,0.236122,0.371298,-0.115725,55,271,576,5664
1644171361.6292,-0.012268,0.010742,-0.990234,0.205588,0.462901,-0.161527,59,270,579,5664
1644171361.677584,-0.010986,0.009583,-0.993225,0.434595,0.493435,-0.069924,45,270,572,5696
1644171361.725983,-0.012756,0.01123,-0.989807,0.129252,0.279695,-0.100458,53,281,571,5664
1644171361.774394,-0.010437,0.010254,-0.989197,0.190321,0.493435,-0.054656,52,275,572,5648
1644171361.822776,-0.007568,0.008728,-0.991455,0.159786,0.447634,-0.069924,59,273,579,5664
1644171361.871179,-0.007935,0.011902,-0.993469,0.251389,0.447634,0.036947,49,280,579,5664
1644171361.919587,-0.007996,0.01123,-0.99054,0.220855,0.371298,-0.176794,48,276,576,5664
1644171361.967981,-0.009888,0.010498,-0.99176,0.297191,0.401832,-0.25313,48,264,583,5696
1644171362.016367,-0.01062,0.010193,-0.989624,0.373527,0.417099,-0.008855,55,271,578,5696
1644171362.077591,-0.011841,0.010437,-0.989624,0.266656,0.462901,-0.14626,52,275,577,5664
1644171362.115593,-0.01123,0.008423,-0.991394,0.220855,0.294962,0.021679,53,276,580,5664
1644171362.166354,-0.013062,0.012024,-0.991333,0.266656,0.386565,-0.054656,49,273,572,5728
1644171362.214964,-0.011414,0.009216,-0.99115,0.327725,0.401832,-0.008855,54,280,577,5664
1644171362.306685,-0.006714,0.008728,-0.988708,0.281924,0.279695,-0.192061,43,264,580,5648
1644171362.355294,-0.007874,0.010071,-0.992798,0.236122,0.432366,-0.14626,41,271,566,5696
1644171362.403459,-0.011719,0.009766,-0.993469,0.129252,0.478168,-0.069924,65,271,578,5664
1644171362.451836,-0.010864,0.006348,-0.989075,0.098718,0.447634,-0.115725,47,273,584,5648
1644171362.500215,-0.011719,0.010193,-0.991333,0.205588,0.203359,-0.237863,45,268,572,5648
1644171362.54861,-0.010986,0.009583,-0.989746,0.129252,0.371298,-0.161527,52,258,582,5712
1644171362.596998,-0.011414,0.009827,-0.992249,0.190321,0.447634,-0.115725,57,275,572,5760
1644171362.645394,-0.009094,0.009521,-0.992188,0.113985,0.447634,0.021679,49,273,575,5648
1644171362.693809,-0.010803,0.009399,-0.99115,0.236122,0.447634,-0.085191,61,270,577,5632
1644171362.742201,-0.009094,0.009583,-0.98999,0.35826,0.356031,0.006412,60,271,569,5664
1644171362.79058,-0.012756,0.009521,-0.991333,0.205588,0.493435,-0.207328,48,276,569,5632
1644171362.838969,-0.006592,0.010742,-0.991882,0.327725,0.478168,-0.161527,54,270,586,5664
1644171362.887398,-0.009216,0.00885,-0.990662,0.220855,0.462901,0.021679,60,274,580,5664
1644171362.935779,-0.006409,0.009277,-0.992859,0.266656,0.356031,-0.100458,43,271,576,5696
1644171362.984173,-0.009827,0.009155,-0.994812,0.388794,0.356031,-0.039389,58,269,576,5696
1644171363.032573,-0.00885,0.010132,-0.989502,0.175053,0.401832,-0.085191,55,279,559,5712
1644171363.083493,-0.006226,0.009705,-0.992432,0.434595,0.432366,-0.085191,57,270,589,5648
1644171363.129339,-0.008423,0.009399,-0.991882,0.129252,0.508702,0.036947,53,269,585,5664
1644171363.177761,-0.011292,0.013184,-0.992432,0.297191,0.401832,0.036947,46,269,573,5696
1644171363.227547,-0.009949,0.010376,-0.99292,0.236122,0.340763,-0.024122,49,275,586,5712
1644171363.277834,-0.010132,0.007324,-0.991577,0.297191,0.264427,-0.085191,55,269,576,5664
1644171363.327912,-0.007629,0.010132,-0.991272,0.281924,0.401832,-0.100458,64,273,575,5728
1644171363.372506,-0.009216,0.01178,-0.99231,0.205588,0.386565,-0.054656,46,276,571,5648
1644171363.468065,-0.011658,0.008545,-0.991333,0.251389,0.447634,-0.054656,45,273,570,5696
1644171363.516447,-0.012329,0.009521,-0.992188,0.190321,0.340763,-0.192061,48,271,566,5712
1644171363.564848,-0.009827,0.010132,-0.991699,0.327725,0.401832,-0.115725,47,270,572,5696
1644171363.613256,-0.012878,0.007935,-0.993164,0.312458,0.401832,-0.054656,60,279,569,5696
1644171363.661638,-0.007385,0.006531,-0.991394,0.281924,0.386565,-0.054656,58,271,573,5648
1644171363.71004,-0.009583,0.009033,-0.99115,0.251389,0.478168,-0.069924,58,274,569,5776
1644171363.758428,-0.010071,0.011719,-0.993103,0.175053,0.356031,-0.069924,53,276,580,5664
1644171363.806828,-0.010986,0.011047,-0.99115,0.236122,0.508702,0.021679,61,285,579,5600
1644171363.855305,-0.009155,0.010193,-0.992798,0.281924,0.417099,-0.130992,43,276,578,5696
1644171363.903615,-0.008484,0.007019,-0.991333,0.297191,0.523969,-0.069924,45,275,575,5664
1644171363.951961,-0.007324,0.011169,-0.991333,0.236122,0.294962,-0.054656,52,277,577,5696
1644171364.000371,-0.008728,0.010132,-0.993042,0.419328,0.417099,0.052214,52,280,570,5648
1644171364.065026,-0.00769,0.012817,-0.989197,0.159786,0.371298,-0.115725,53,279,571,5712
1644171364.098578,-0.010437,0.008362,-0.990784,0.342992,0.462901,-0.130992,54,280,582,5648
1644171364.145509,-0.009521,0.009216,-0.991394,0.312458,0.325496,-0.039389,59,273,579,5696
1644171364.193885,-0.009644,0.012756,-0.99115,0.220855,0.371298,-0.100458,58,274,587,5664
1644171364.24231,-0.008545,0.009827,-0.990417,0.312458,0.417099,-0.039389,51,274,576,5600
1644171364.290685,-0.010559,0.009827,-0.990784,0.190321,0.386565,-0.130992,47,280,572,5664
1644171364.33914,-0.010193,0.01001,-0.993347,0.342992,0.462901,-0.054656,47,273,586,5696
1644171364.38798,-0.009705,0.010925,-0.990479,0.236122,0.523969,-0.100458,52,268,575,5696
1644171364.438979,-0.008423,0.009399,-0.99408,0.419328,0.371298,-0.130992,54,270,589,5648
1644171364.489341,-0.009521,0.010986,-0.990784,0.190321,0.401832,-0.039389,49,268,582,5696
1644171364.581028,-0.010559,0.010559,-0.991821,0.190321,0.371298,-0.008855,47,268,579,5664
1644171364.629415,-0.010437,0.009705,-0.990967,0.266656,0.356031,-0.115725,43,274,571,5648
1644171364.677804,-0.008728,0.011108,-0.992432,0.266656,0.478168,-0.100458,43,279,571,5600
1644171364.72619,-0.010315,0.009888,-0.991089,0.281924,0.447634,-0.024122,54,280,579,5728
1644171364.774627,-0.013489,0.009033,-0.989014,0.35826,0.386565,-0.161527,49,270,572,5712
1644171364.823017,-0.011108,0.011841,-0.991821,0.327725,0.310229,-0.130992,59,273,579,5600
1644171364.871415,-0.011597,0.008728,-0.991577,0.236122,0.325496,-0.069924,47,275,570,5664
1644171364.919819,-0.009949,0.009155,-0.991455,0.113985,0.432366,-0.130992,49,273,577,5728
1644171364.968195,-0.007874,0.009705,-0.993164,0.419328,0.417099,0.006412,58,276,576,5600
1644171365.016579,-0.008057,0.01001,-0.98999,0.144519,0.478168,0.067481,52,277,584,5600
1644171365.065843,-0.00592,0.011536,-0.990295,0.312458,0.325496,0.021679,55,269,578,5664
1644171365.11333,-0.01001,0.010986,-0.990417,0.098718,0.417099,0.021679,49,273,575,5648
1644171365.161717,-0.008728,0.012024,-0.991516,0.35826,0.493435,-0.039389,58,279,578,5664
1644171365.210112,-0.010193,0.011414,-0.992737,0.281924,0.493435,-0.161527,47,277,584,5728
1644171365.25848,-0.010132,0.010315,-0.99231,0.113985,0.401832,-0.161527,55,269,573,5664
1644171365.306862,-0.010132,0.010864,-0.992737,0.388794,0.356031,-0.14626,46,281,585,5760
1644171365.355283,-0.010254,0.010132,-0.991943,0.220855,0.310229,-0.100458,46,279,580,5696
1644171365.403986,-0.01062,0.008301,-0.991577,0.129252,0.417099,0.067481,55,274,576,5648
1644171365.452292,-0.009644,0.011414,-0.993103,0.175053,0.371298,-0.14626,47,265,582,5696
1644171365.501358,-0.010803,0.009888,-0.993713,0.312458,0.447634,-0.054656,43,266,587,5664
1644171365.551728,-0.01001,0.010864,-0.990784,0.312458,0.417099,0.006412,47,265,584,5712
1644171365.601746,-0.008911,0.010315,-0.989441,0.236122,0.356031,-0.237863,43,274,576,5664
1644171365.646827,-0.012085,0.011719,-0.991455,0.175053,0.417099,-0.25313,58,274,576,5696
1644171365.742419,-0.008972,0.009766,-0.99176,0.297191,0.294962,-0.054656,51,271,576,5696
1644171365.790796,-0.009155,0.009705,-0.989929,0.175053,0.401832,-0.024122,46,264,569,5648
1644171365.839223,-0.007996,0.013245,-0.991699,0.388794,0.371298,-0.039389,51,266,580,5664
1644171365.887607,-0.01062,0.010803,-0.99115,0.342992,0.539237,0.036947,55,266,578,5712
1644171365.935996,-0.01123,0.010864,-0.991943,0.327725,0.447634,-0.115725,46,279,576,5696
1644171365.984371,-0.01178,0.011047,-0.991699,0.190321,0.356031,-0.14626,52,273,591,5728
1644171366.032806,-0.009705,0.007812,-0.993713,0.327725,0.386565,0.098015,48,281,571,5696
1644171366.085513,-0.010925,0.009277,-0.993408,0.251389,0.554504,-0.115725,51,283,590,5728
1644171366.129538,-0.008423,0.008728,-0.994751,0.251389,0.432366,0.006412,48,276,578,5664
1644171366.177926,-0.00946,0.008972,-0.993469,0.342992,0.356031,-0.130992,51,274,583,5696
1644171366.226312,-0.009216,0.007202,-0.991394,0.327725,0.401832,-0.222595,47,273,582,5696
1644171366.274694,-0.00885,0.010437,-0.992065,0.113985,0.401832,0.006412,43,281,566,5664
1644171366.323108,-0.007141,0.011902,-0.993408,0.251389,0.310229,-0.039389,51,271,578,5664
1644171366.371495,-0.009705,0.007935,-0.994629,0.266656,0.523969,-0.237863,48,279,576,5760
1644171366.419861,-0.012085,0.00885,-0.992676,0.175053,0.386565,-0.207328,46,271,571,5648
1644171366.468509,-0.010315,0.008545,-0.991333,0.113985,0.462901,-0.115725,43,269,585,5696
1644171366.519261,-0.007385,0.008667,-0.99176,0.281924,0.417099,0.006412,47,275,582,5696
1644171366.569141,-0.011047,0.007751,-0.992371,0.266656,0.401832,-0.069924,48,264,576,5664
1644171366.614255,-0.011536,0.011658,-0.991699,0.419328,0.508702,-0.008855,57,260,579,5712
1644171366.710225,-0.012146,0.009338,-0.992737,0.113985,0.401832,-0.085191,48,266,571,5696
1644171366.758588,-0.009766,0.010559,-0.991455,0.388794,0.356031,-0.130992,52,270,579,5712
1644171366.806977,-0.009216,0.009033,-0.991333,0.098718,0.386565,0.113282,52,275,575,5696
1644171366.855419,-0.008423,0.01001,-0.989136,0.175053,0.462901,-0.069924,43,276,569,5664
1644171366.903837,-0.009277,0.01062,-0.991455,0.312458,0.356031,-0.008855,54,265,570,5712
1644171366.952223,-0.009583,0.008545,-0.993347,0.08345,0.310229,-0.085191,51,271,562,5712
1644171367.000577,-0.011597,0.010559,-0.990173,0.220855,0.417099,-0.085191,52,265,582,5728
1644171367.060482,-0.007751,0.006897,-0.990051,0.281924,0.462901,-0.14626,49,275,572,5728
1644171367.098702,-0.011047,0.008545,-0.991882,0.266656,0.294962,0.021679,51,271,583,5808
1644171367.145732,-0.010986,0.010498,-0.990356,0.08345,0.447634,-0.100458,61,275,586,5696
1644171367.194146,-0.007324,0.011414,-0.991943,0.220855,0.340763,-0.024122,58,274,573,5696
1644171367.242524,-0.010376,0.009644,-0.992859,0.190321,0.371298,-0.130992,49,275,589,5760
