epoch,acc_x,acc_y,acc_z,rot_x,rot_y,rot_z,mag_x,mag_y,mag_z,temp
1644183900.014422,-0.009094,0.009399,-0.991394,0.007115,0.386565,-0.008855,53,283,578,6240
1644183900.082851,-0.007324,0.012207,-0.991882,0.113985,0.447634,0.021679,48,281,583,6192
1644183900.159481,-0.008545,0.008667,-0.989197,0.220855,0.508702,-0.161527,40,273,579,6176
1644183900.207868,-0.007751,0.010498,-0.989929,0.220855,0.508702,-0.069924,36,271,578,6224
1644183900.256266,-0.006104,0.01416,-0.99115,0.190321,0.447634,-0.054656,46,271,580,6160
1644183900.304854,-0.004883,0.008484,-0.991394,0.297191,0.264427,-0.085191,47,275,582,6224
1644183900.353086,-0.007629,0.011108,-0.993347,0.205588,0.447634,-0.069924,45,265,593,6160
1644183900.401439,-0.007385,0.012024,-0.987671,0.129252,0.462901,-0.161527,55,274,587,6128
1644183900.449862,-0.008362,0.010864,-0.988281,0.266656,0.478168,-0.100458,53,286,576,6192
1644183900.498225,-0.009705,0.010315,-0.992065,-0.008153,0.493435,-0.192061,45,277,591,6160
1644183900.546641,-0.006409,0.00824,-0.988953,0.251389,0.447634,-0.069924,49,280,582,6176
1644183900.595218,-0.008057,0.006897,-0.989197,0.35826,0.386565,-0.039389,42,268,582,6160
1644183900.643447,-0.007568,0.011353,-0.990906,0.068183,0.340763,-0.283664,43,286,587,6224
1644183900.691828,-0.005432,0.008545,-0.99231,0.220855,0.401832,0.082748,55,286,583,6224
1644183900.740218,-0.004883,0.010315,-0.990845,0.175053,0.371298,-0.161527,54,275,584,6224
1644183900.788662,-0.007629,0.010803,-0.992554,0.251389,0.340763,-0.161527,51,271,578,6176
1644183900.837054,-0.004639,0.012268,-0.987061,0.251389,0.233893,-0.176794,52,280,582,6160
1644183900.885433,-0.00885,0.01123,-0.990906,0.236122,0.462901,-0.161527,48,274,578,6112
1644183900.93383,-0.009399,0.007996,-0.990845,0.113985,0.356031,-0.14626,51,271,578,6176
1644183900.982229,-0.008545,0.009399,-0.991577,0.129252,0.386565,-0.069924,54,280,586,6176
1644183901.030623,-0.007263,0.007996,-0.990845,0.144519,0.340763,-0.161527,53,279,592,6224
1644183901.086169,-0.008606,0.009277,-0.991028,0.08345,0.432366,-0.283664,59,280,577,6192
1644183901.131191,-0.007446,0.008911,-0.991272,0.281924,0.310229,-0.192061,58,274,585,6192
1644183901.180052,-0.00647,0.01416,-0.990234,0.052916,0.508702,-0.054656,53,274,578,6176
1644183901.224885,-0.006165,0.01062,-0.992676,0.144519,0.447634,-0.069924,41,281,587,6192
1644183901.320926,-0.004822,0.012146,-0.990173,0.098718,0.493435,0.006412,41,274,580,6240
1644183901.369315,-0.008362,0.009949,-0.990784,0.312458,0.417099,-0.085191,52,277,582,6240
1644183901.417699,-0.008362,0.010559,-0.99054,0.251389,0.310229,-0.085191,58,279,578,6128
1644183901.466081,-0.007812,0.011108,-0.990295,0.281924,0.401832,-0.14626,46,279,580,6160
1644183901.514497,-0.006714,0.007141,-0.993652,0.190321,0.340763,0.12855,59,268,570,6192
1644183901.562915,-0.00769,0.013062,-0.989563,0.266656,0.523969,-0.161527,54,275,575,6224
1644183901.611285,-0.007996,0.008057,-0.990784,0.08345,0.447634,-0.176794,47,285,579,6224
1644183901.659666,-0.008911,0.009155,-0.992554,0.297191,0.462901,-0.039389,54,270,582,6176
1644183901.708073,-0.007751,0.010071,-0.989502,0.297191,0.294962,-0.100458,35,282,579,6160
1644183901.756473,-0.009338,0.009888,-0.990723,0.08345,0.294962,-0.100458,53,281,583,6256
1644183901.804872,-0.007202,0.010376,-0.989685,0.022382,0.432366,-0.069924,54,277,579,6192
1644183901.853315,-0.007507,0.009094,-0.991577,0.129252,0.386565,-0.039389,53,279,585,6224
1644183901.901687,-0.00824,0.009338,-0.992188,0.129252,0.539237,-0.069924,51,271,578,6240
1644183901.950077,-0.009583,0.009583,-0.991821,0.205588,0.417099,-0.176794,42,277,586,6240
1644183901.998461,-0.009766,0.01001,-0.990662,0.266656,0.233893,-0.283664,48,274,583,6192
1644183902.062446,-0.008728,0.010437,-0.990479,0.113985,0.447634,-0.085191,51,291,583,6224
1644183902.098819,-0.00885,0.009949,-0.992859,0.236122,0.386565,-0.14626,38,277,586,6192
1644183902.143632,-0.00647,0.013489,-0.990417,0.251389,0.478168,0.006412,48,269,576,6224
1644183902.192309,-0.008972,0.013794,-0.989685,0.236122,0.24916,-0.222595,55,269,573,6240
1644183902.241122,-0.011841,0.009705,-0.991272,0.144519,0.417099,-0.069924,51,281,592,6176
1644183902.291734,-0.007263,0.009216,-0.99469,0.266656,0.371298,-0.222595,55,281,578,6176
1644183902.341818,-0.007446,0.009277,-0.994568,0.342992,0.356031,-0.008855,51,269,587,6160
1644183902.386811,-0.004883,0.008606,-0.993408,0.35826,0.294962,-0.069924,52,277,572,6304
1644183902.482479,-0.007446,0.010681,-0.992554,0.251389,0.386565,-0.222595,57,277,577,6224
1644183902.531243,-0.00592,0.009216,-0.99115,0.113985,0.279695,0.082748,54,273,572,6240
1644183902.579161,-0.006226,0.010559,-0.992981,0.312458,0.371298,-0.008855,49,273,575,6160
1644183902.627736,-0.009277,0.01001,-0.98999,0.175053,0.462901,-0.161527,53,281,580,6176
1644183902.675907,-0.009583,0.00946,-0.992126,0.312458,0.478168,-0.207328,41,281,578,6112
1644183902.724326,-0.006226,0.009583,-0.99176,0.251389,0.478168,-0.115725,53,281,576,6160
1644183902.77274,-0.007202,0.009888,-0.990356,0.190321,0.417099,-0.085191,58,279,576,6224
1644183902.821116,-0.006592,0.01178,-0.989746,0.190321,0.279695,-0.085191,46,281,580,6128
1644183902.869546,-0.007874,0.009094,-0.989807,0.220855,0.279695,0.006412,53,274,583,6128
1644183902.917928,-0.009521,0.009705,-0.989319,0.190321,0.325496,-0.085191,47,270,577,6160
1644183902.966324,-0.00946,0.007996,-0.988892,0.251389,0.310229,-0.115725,53,264,587,6224
1644183903.014744,-0.00647,0.009033,-0.993286,0.144519,0.478168,-0.115725,43,276,580,6160
1644183903.073118,-0.009216,0.010681,-0.99292,0.205588,0.325496,-0.085191,49,277,596,6192
1644183903.111482,-0.008728,0.008118,-0.992493,0.190321,0.508702,-0.298931,61,277,586,6176
1644183903.159836,-0.011169,0.010803,-0.992554,0.175053,0.523969,-0.100458,54,280,598,6240
1644183903.208257,-0.007141,0.009094,-0.992981,0.159786,0.493435,-0.176794,46,276,590,6176
1644183903.256622,-0.006775,0.006348,-0.992798,0.236122,0.401832,-0.192061,59,265,579,6224
1644183903.305076,-0.007385,0.010803,-0.992554,0.098718,0.340763,-0.176794,46,276,583,6240
1644183903.353506,-0.008545,0.009094,-0.992188,0.205588,0.264427,-0.192061,53,276,580,6160
1644183903.403588,-0.007263,0.009583,-0.990723,0.098718,0.462901,-0.100458,46,269,583,6240
1644183903.453856,-0.008057,0.009888,-0.989258,0.113985,0.401832,-0.115725,54,277,584,6192
1644183903.499011,-0.008057,0.011658,-0.991821,0.297191,0.447634,-0.222595,53,283,580,6160
1644183903.595411,-0.007202,0.009155,-0.990662,0.251389,0.386565,-0.085191,54,273,582,6160
1644183903.643809,-0.010254,0.011353,-0.992371,0.175053,0.356031,0.113282,38,285,586,6240
1644183903.692383,-0.01001,0.007751,-0.992065,0.281924,0.462901,-0.115725,47,280,584,6112
1644183903.740587,-0.008484,0.013184,-0.990479,0.129252,0.417099,-0.085191,52,285,577,6224
1644183903.788964,-0.007996,0.008423,-0.99115,0.373527,0.310229,-0.161527,57,280,572,6224
1644183903.837353,-0.008301,0.011475,-0.992981,0.236122,0.462901,-0.176794,43,283,585,6224
1644183903.885787,-0.008484,0.011719,-0.993286,0.251389,0.356031,-0.069924,47,275,577,6192
1644183903.934187,-0.009888,0.010864,-0.988953,0.205588,0.462901,-0.069924,51,276,576,6224
1644183903.982589,-0.008545,0.011292,-0.990967,0.342992,0.188092,0.082748,47,277,577,6192
1644183904.030968,-0.01001,0.010742,-0.992432,0.113985,0.371298,-0.176794,34,279,573,6176
1644183904.085326,-0.007324,0.007996,-0.991638,0.144519,0.401832,-0.008855,47,275,577,6256
1644183904.127769,-0.013062,0.010681,-0.994385,0.251389,0.386565,-0.192061,46,274,580,6192
1644183904.176114,-0.006348,0.010071,-0.98938,0.175053,0.432366,-0.024122,53,279,580,6192
1644183904.224506,-0.008362,0.007996,-0.990967,0.404061,0.371298,-0.14626,49,270,584,6224
1644183904.27291,-0.008118,0.010315,-0.989807,0.113985,0.371298,-0.115725,52,277,589,6240
1644183904.321612,-0.005371,0.006409,-0.992737,0.297191,0.401832,-0.100458,39,279,576,6176
1644183904.370486,-0.007629,0.010193,-0.992432,0.190321,0.554504,-0.130992,54,282,577,6224
1644183904.420985,-0.007812,0.008301,-0.990845,0.327725,0.386565,0.036947,53,276,597,6240
1644183904.471327,-0.009949,0.010864,-0.993164,0.205588,0.615573,-0.008855,47,287,586,6176
1644183904.5633,-0.009949,0.010803,-0.990417,0.205588,0.294962,0.021679,55,271,583,6192
1644183904.611638,-0.008667,0.006836,-0.990356,0.266656,0.417099,-0.100458,43,276,580,6192
1644183904.660042,-0.010315,0.011169,-0.992798,0.144519,0.523969,-0.115725,41,279,578,6176
1644183904.708431,-0.009583,0.01001,-0.990479,0.251389,0.371298,-0.283664,52,280,582,6240
1644183904.756816,-0.007935,0.011353,-0.990051,0.327725,0.462901,-0.130992,52,275,575,6128
1644183904.805211,-0.01062,0.011536,-0.989746,0.342992,0.386565,-0.192061,46,293,583,6192
1644183904.853631,-0.008179,0.008484,-0.993164,0.159786,0.432366,-0.100458,52,277,591,6288
1644183904.90205,-0.008179,0.007874,-0.990112,0.205588,0.432366,-0.130992,43,269,578,6256
1644183904.950448,-0.00885,0.005859,-0.992737,0.190321,0.462901,-0.039389,49,280,584,6176
1644183904.998803,-0.008606,0.011719,-0.991943,0.159786,0.462901,-0.268397,43,274,580,6128
1644183905.047232,-0.010315,0.008362,-0.992126,0.220855,0.585038,0.021679,59,280,582,6224
1644183905.100408,-0.007446,0.010132,-0.991699,0.205588,0.417099,0.036947,60,276,587,6240
1644183905.144014,-0.009521,0.006775,-0.989319,0.205588,0.325496,-0.085191,53,281,592,6240
1644183905.192412,-0.006409,0.009155,-0.991272,0.236122,0.340763,-0.115725,45,273,593,6112
1644183905.240789,-0.007507,0.007996,-0.992126,0.175053,0.417099,-0.192061,48,288,590,6224
1644183905.289188,-0.011414,0.011536,-0.992676,0.022382,0.386565,0.006412,48,281,587,6192
1644183905.337598,-0.008179,0.011597,-0.989075,0.327725,0.417099,-0.008855,40,277,584,6128
1644183905.386843,-0.007751,0.009094,-0.991394,0.205588,0.539237,-0.024122,51,279,583,6192
1644183905.437095,-0.007263,0.011292,-0.993225,0.312458,0.493435,-0.161527,41,269,580,6304
1644183905.48703,-0.008667,0.011414,-0.987915,0.144519,0.386565,-0.115725,48,271,583,6192
1644183905.531597,-0.008911,0.00946,-0.994141,0.205588,0.493435,-0.085191,43,279,578,6192
1644183905.627934,-0.008789,0.012756,-0.989075,0.098718,0.264427,-0.176794,39,279,585,6128
1644183905.676325,-0.012085,0.011108,-0.990784,0.205588,0.356031,-0.115725,49,277,572,6224
1644183905.724732,-0.008667,0.009155,-0.990051,0.35826,0.264427,-0.222595,52,282,586,6224
1644183905.773134,-0.007812,0.008789,-0.992432,0.098718,0.462901,-0.008855,38,270,582,6112
1644183905.821499,-0.008301,0.011108,-0.992981,0.236122,0.279695,-0.085191,46,276,587,6128
1644183905.869869,-0.007996,0.00946,-0.992249,0.281924,0.371298,-0.207328,48,274,580,6160
1644183905.918286,-0.00708,0.012085,-0.992249,0.297191,0.523969,-0.085191,53,286,573,6176
1644183905.96669,-0.00708,0.010925,-0.990417,0.175053,0.386565,-0.085191,48,291,580,6160
1644183906.015193,-0.006653,0.012573,-0.988281,0.159786,0.478168,-0.222595,58,283,578,6192
1644183906.067224,-0.006958,0.009094,-0.992554,0.312458,0.371298,-0.14626,43,293,590,6224
1644183906.111851,-0.008362,0.011536,-0.98938,0.129252,0.478168,-0.115725,46,276,585,6160
1644183906.16023,-0.010071,0.009766,-0.991394,0.159786,0.340763,-0.161527,46,276,569,6160
1644183906.208617,-0.007141,0.009216,-0.99176,0.266656,0.310229,-0.222595,45,275,577,6160
1644183906.256993,-0.005859,0.012085,-0.991333,0.144519,0.417099,0.021679,46,279,583,6160
1644183906.3054,-0.007874,0.009338,-0.98761,0.113985,0.417099,-0.115725,49,265,582,6192
1644183906.353782,-0.008118,0.01001,-0.990051,0.159786,0.325496,-0.069924,45,280,579,6176
1644183906.402189,-0.007996,0.010315,-0.991577,0.068183,0.310229,-0.100458,49,282,584,6192
1644183906.450577,-0.009277,0.009277,-0.991455,0.236122,0.600305,-0.024122,59,273,591,6224
1644183906.499032,-0.00769,0.011658,-0.992859,0.251389,0.447634,-0.161527,38,282,572,6224
1644183906.548013,-0.006958,0.009277,-0.98877,0.312458,0.401832,-0.176794,41,276,576,6192
1644183906.598561,-0.006714,0.01001,-0.990295,0.236122,0.279695,-0.069924,55,269,564,6176
1644183906.648632,-0.008911,0.008728,-0.990234,0.129252,0.447634,-0.100458,48,274,583,6224
1644183906.693633,-0.007874,0.010376,-0.99054,0.190321,0.325496,-0.054656,57,270,593,6176
1644183906.789327,-0.006165,0.010254,-0.990417,0.220855,0.462901,-0.130992,48,276,580,6192
1644183906.837729,-0.008057,0.009521,-0.99054,0.342992,0.508702,0.006412,48,269,590,6176
1644183906.88613,-0.008118,0.008789,-0.990601,0.266656,0.478168,-0.161527,52,268,589,6192
1644183906.934546,-0.006775,0.012512,-0.989258,0.159786,0.417099,0.021679,38,277,575,6176
1644183906.982963,-0.011169,0.01178,-0.992249,0.388794,0.386565,-0.161527,49,285,589,6224
1644183907.031299,-0.008789,0.010864,-0.991394,0.236122,0.478168,-0.069924,45,265,579,6224
1644183907.081472,-0.009094,0.011475,-0.993225,0.205588,0.356031,-0.14626,54,287,586,6192
1644183907.128041,-0.008362,0.009644,-0.990417,0.205588,0.462901,-0.176794,43,274,573,6240
1644183907.176479,-0.007874,0.01062,-0.991699,0.281924,0.401832,-0.054656,51,283,578,6192
1644183907.224886,-0.007385,0.010986,-0.993469,0.297191,0.417099,-0.085191,52,273,582,6224
1644183907.273282,-0.009094,0.009094,-0.991333,0.312458,0.340763,-0.14626,42,270,572,6224
1644183907.321615,-0.003662,0.009766,-0.991638,0.113985,0.585038,-0.14626,49,270,577,6160
1644183907.370038,-0.006226,0.007446,-0.992554,0.327725,0.554504,-0.130992,52,282,593,6240
1644183907.418432,-0.008606,0.010376,-0.991394,0.129252,0.432366,-0.024122,47,263,577,6128
1644183907.466831,-0.008484,0.011108,-0.991394,0.159786,0.340763,-0.100458,43,276,592,6224
1644183907.515218,-0.007568,0.010986,-0.990173,0.205588,0.356031,-0.237863,48,274,587,6176
1644183907.563623,-0.009094,0.007874,-0.990723,0.220855,0.279695,-0.039389,53,269,583,6224
1644183907.612,-0.009155,0.010498,-0.991455,0.098718,0.356031,-0.100458,49,277,593,6224
1644183907.660408,-0.009644,0.008911,-0.990662,0.342992,0.294962,-0.130992,59,275,572,6160
1644183907.710229,-0.007874,0.009644,-0.991394,0.266656,0.356031,-0.176794,57,294,577,6160
1644183907.76057,-0.006287,0.008972,-0.991089,0.144519,0.386565,-0.085191,53,281,571,6224
1644183907.811419,-0.00647,0.01178,-0.992737,0.327725,0.233893,-0.039389,45,282,572,6192
1644183907.902504,-0.00885,0.007874,-0.991821,0.281924,0.371298,-0.085191,47,273,591,6192
1644183907.950757,-0.005066,0.009705,-0.991272,0.175053,0.310229,-0.161527,55,281,576,6160
1644183907.999183,-0.005005,0.010071,-0.991455,0.449863,0.203359,-0.039389,58,283,571,6240
1644183908.066813,-0.00946,0.011536,-0.99231,0.342992,0.432366,-0.085191,36,274,592,6240
1644183908.098422,-0.010376,0.008789,-0.99176,0.190321,0.356031,-0.039389,47,282,575,6192
1644183908.144343,-0.006775,0.010559,-0.990295,0.236122,0.325496,-0.039389,45,285,579,6224
1644183908.192736,-0.009094,0.010254,-0.991882,0.251389,0.417099,-0.161527,49,292,575,6240
1644183908.241116,-0.008911,0.007996,-0.990295,0.220855,0.508702,-0.222595,41,279,587,6192
1644183908.289501,-0.010071,0.010193,-0.991272,0.08345,0.539237,-0.054656,47,270,582,6176
1644183908.33789,-0.007385,0.009644,-0.991577,0.129252,0.554504,-0.069924,53,279,585,6176
1644183908.386294,-0.007568,0.010376,-0.989075,0.220855,0.356031,-0.100458,53,271,585,6224
1644183908.434689,-0.007629,0.012512,-0.992493,0.434595,0.569771,-0.176794,53,271,578,6192
1644183908.483111,-0.006836,0.009705,-0.991882,0.266656,0.478168,-0.14626,48,279,576,6128
1644183908.53299,-0.007996,0.008667,-0.99176,0.007115,0.294962,-0.14626,45,275,591,6128
1644183908.58341,-0.007202,0.007202,-0.992249,0.220855,0.432366,-0.176794,55,269,587,6224
1644183908.633461,-0.006348,0.00824,-0.99176,0.098718,0.279695,-0.039389,41,276,578,6192
1644183908.725327,-0.006287,0.007385,-0.991333,0.190321,0.432366,-0.176794,45,282,577,6176
1644183908.773446,-0.005615,0.013123,-0.990234,0.129252,0.356031,-0.161527,55,281,580,6176
1644183908.821812,-0.005127,0.012024,-0.988403,0.113985,0.523969,-0.069924,49,280,579,6128
1644183908.870247,-0.008728,0.010864,-0.989685,0.480397,0.386565,-0.14626,52,277,579,6176
1644183908.918641,-0.007874,0.010193,-0.993652,0.266656,0.294962,-0.161527,53,269,585,6176
1644183908.967037,-0.009338,0.010803,-0.990417,0.190321,0.432366,-0.100458,42,282,589,6192
1644183909.01543,-0.008484,0.013245,-0.989319,0.129252,0.447634,-0.14626,43,274,590,6240
1644183909.064099,-0.006897,0.011353,-0.990662,0.220855,0.615573,-0.161527,51,276,587,6256
1644183909.112266,-0.008667,0.013306,-0.991943,0.251389,0.371298,-0.222595,55,286,583,6128
1644183909.160577,-0.008789,0.012085,-0.988098,0.312458,0.371298,-0.207328,42,277,584,6224
1644183909.208975,-0.007507,0.013733,-0.992065,0.098718,0.310229,0.006412,45,275,582,6224
1644183909.25736,-0.006531,0.011108,-0.99115,0.220855,0.340763,-0.283664,54,275,579,6240
1644183909.305727,-0.00592,0.008972,-0.992249,-0.02342,0.294962,-0.069924,48,266,585,6224
1644183909.35416,-0.00708,0.00824,-0.988342,0.205588,0.356031,-0.314198,48,271,573,6192
1644183909.402544,-0.009216,0.008362,-0.98938,0.144519,0.356031,-0.161527,46,276,580,6224
1644183909.450934,-0.007935,0.012878,-0.990723,0.175053,0.310229,-0.268397,47,290,591,6128
1644183909.49933,-0.006836,0.012634,-0.993164,0.251389,0.417099,-0.024122,51,281,585,6224
1644183909.547696,-0.009216,0.011475,-0.989624,0.159786,0.386565,-0.25313,51,274,590,6160
1644183909.596362,-0.007263,0.009094,-0.988892,0.098718,0.310229,0.006412,61,280,589,6080
1644183909.644544,-0.006897,0.009338,-0.99054,0.251389,0.325496,0.036947,53,271,585,6192
1644183909.694933,-0.008789,0.009094,-0.99054,0.205588,0.340763,-0.222595,51,281,580,6176
1644183909.745156,-0.005615,0.011353,-0.991577,0.113985,0.493435,0.006412,46,269,585,6176
1644183909.79031,-0.008362,0.010376,-0.99176,0.190321,0.371298,0.082748,42,280,586,6176
1644183909.886497,-0.007019,0.009155,-0.991333,0.297191,0.371298,-0.207328,51,283,576,6128
1644183909.934911,-0.008057,0.010925,-0.989502,0.220855,0.447634,-0.176794,53,274,573,6256
1644183909.983309,-0.00592,0.009827,-0.990173,0.175053,0.340763,-0.25313,51,271,580,6192
1644183910.031682,-0.009705,0.012512,-0.99176,0.113985,0.493435,-0.222595,52,273,589,6224
1644183910.080158,-0.009155,0.009766,-0.990845,0.312458,0.554504,-0.237863,54,280,584,6192
1644183910.128481,-0.00824,0.008972,-0.990906,0.297191,0.325496,-0.161527,54,275,579,6240
1644183910.176821,-0.009766,0.010254,-0.989929,0.434595,0.569771,-0.176794,53,269,585,6224
1644183910.225203,-0.009583,0.011536,-0.993103,0.236122,0.447634,-0.115725,45,275,596,6128
1644183910.2736,-0.009827,0.010193,-0.991882,0.266656,0.432366,-0.283664,47,275,575,6128
1644183910.321971,-0.005676,0.011597,-0.98938,0.205588,0.493435,-0.237863,53,266,580,6240
1644183910.3704,-0.009338,0.01123,-0.988892,0.159786,0.325496,-0.024122,42,275,584,6224
1644183910.418794,-0.009888,0.010986,-0.991516,0.068183,0.417099,-0.039389,60,276,585,6128
1644183910.46718,-0.008179,0.009766,-0.990417,0.159786,0.432366,-0.115725,48,276,576,6224
1644183910.515579,-0.00769,0.008911,-0.988281,0.266656,0.356031,0.052214,45,275,589,6240
1644183910.563975,-0.009033,0.012695,-0.991089,0.159786,0.386565,-0.039389,42,280,584,6176
1644183910.612377,-0.008667,0.010559,-0.992188,0.251389,0.356031,-0.14626,49,277,586,6176
1644183910.660759,-0.009155,0.008057,-0.992188,0.113985,0.417099,-0.100458,49,273,596,6160
1644183910.709142,-0.012512,0.008972,-0.991577,0.175053,0.325496,-0.161527,55,279,587,6192
1644183910.757535,-0.007324,0.010986,-0.991699,0.144519,0.447634,-0.14626,53,271,580,6192
1644183910.806335,-0.008484,0.009155,-0.992859,0.236122,0.356031,-0.161527,52,282,582,6256
1644183910.857355,-0.006897,0.01062,-0.992737,0.144519,0.386565,0.067481,42,277,584,6176
1644183910.908156,-0.009155,0.011414,-0.994263,0.449863,0.493435,-0.14626,51,274,590,6224
1644183910.952429,-0.005676,0.009644,-0.992188,0.220855,0.432366,-0.054656,47,275,584,6160
1644183911.002828,-0.010742,0.012024,-0.992188,0.113985,0.539237,-0.207328,60,269,587,6176
1644183911.099012,-0.009399,0.011475,-0.993103,0.236122,0.325496,-0.054656,57,277,582,6192
1644183911.144745,-0.007385,0.012146,-0.989441,0.175053,0.279695,-0.14626,49,277,579,6192
1644183911.193106,-0.010376,0.009338,-0.99231,0.281924,0.294962,-0.100458,55,274,592,6192
1644183911.241465,-0.008484,0.00824,-0.993164,0.175053,0.432366,-0.176794,54,265,582,6224
1644183911.289855,-0.00769,0.012329,-0.989502,0.205588,0.478168,-0.024122,53,281,585,6192
1644183911.338261,-0.007324,0.01001,-0.994141,0.144519,0.493435,-0.085191,52,280,575,6176
1644183911.386641,-0.005554,0.013245,-0.994141,0.205588,0.294962,-0.069924,55,283,585,6160
1644183911.435074,-0.008728,0.012512,-0.990234,0.327725,0.371298,-0.085191,43,269,587,6224
1644183911.483437,-0.009277,0.010193,-0.992798,0.266656,0.371298,-0.069924,55,266,590,6176
1644183911.532157,-0.005005,0.010437,-0.992493,0.266656,0.417099,-0.100458,52,277,586,6160
1644183911.580916,-0.009521,0.009033,-0.992554,0.312458,0.539237,-0.176794,54,280,586,6192
1644183911.631528,-0.007385,0.008545,-0.992004,0.190321,0.340763,-0.25313,54,270,591,6192
1644183911.681896,-0.008301,0.009094,-0.992432,0.220855,0.462901,-0.222595,51,271,592,6192
1644183911.726659,-0.010376,0.010681,-0.991211,0.236122,0.386565,-0.176794,46,279,587,6160
1644183911.822381,-0.00769,0.010254,-0.991089,0.220855,0.462901,-0.039389,52,273,584,6288
1644183911.870574,-0.007507,0.008606,-0.990723,0.266656,0.523969,-0.008855,46,279,576,6224
1644183911.919015,-0.007812,0.011047,-0.991028,0.266656,0.447634,-0.054656,46,281,587,6224
1644183911.967399,-0.008118,0.009705,-0.992737,0.220855,0.432366,-0.176794,42,285,577,6176
1644183912.015799,-0.010437,0.010376,-0.990845,0.113985,0.386565,-0.100458,60,279,580,6160
1644183912.070014,-0.004944,0.007568,-0.992371,0.129252,0.417099,-0.069924,58,269,585,6192
1644183912.112543,-0.008057,0.008301,-0.990845,0.159786,0.386565,-0.237863,45,282,584,6224
1644183912.160931,-0.008667,0.009766,-0.989136,0.312458,0.523969,-0.176794,42,275,591,6240
1644183912.209329,-0.00708,0.010437,-0.992371,0.113985,0.371298,-0.054656,46,283,578,6224
1644183912.257717,-0.010925,0.008667,-0.990417,0.251389,0.294962,-0.14626,51,274,583,6192
1644183912.306115,-0.010559,0.008789,-0.99469,0.251389,0.340763,-0.161527,49,287,586,6192
1644183912.354525,-0.007141,0.009583,-0.99292,0.297191,0.401832,-0.024122,43,274,587,6192
1644183912.402931,-0.009094,0.008057,-0.991943,0.175053,0.371298,-0.069924,59,275,596,6192
1644183912.451293,-0.007935,0.009033,-0.99054,0.342992,0.447634,-0.024122,48,276,580,6160
1644183912.499669,-0.007874,0.010254,-0.991089,0.159786,0.325496,-0.14626,47,277,582,6224
1644183912.548686,-0.009583,0.013611,-0.991211,0.037649,0.417099,-0.222595,48,286,587,6240
1644183912.596478,-0.007385,0.010315,-0.987671,0.144519,0.447634,-0.024122,59,270,591,6160
1644183912.644869,-0.007812,0.01001,-0.989136,0.205588,0.417099,-0.161527,52,275,572,6224
1644183912.693253,-0.00708,0.009399,-0.991516,0.144519,0.432366,-0.161527,40,275,579,6224
1644183912.741675,-0.01001,0.011047,-0.993042,0.190321,0.493435,-0.008855,45,282,584,6128
1644183912.793427,-0.006592,0.011963,-0.993835,0.327725,0.447634,-0.069924,62,269,585,6224
1644183912.84353,-0.009277,0.008057,-0.989502,0.236122,0.508702,-0.100458,48,279,580,6224
1644183912.888089,-0.009155,0.00769,-0.988098,0.312458,0.462901,-0.192061,35,275,589,6224
1644183912.983673,-0.007324,0.006042,-0.990234,0.220855,0.432366,-0.054656,48,276,585,6160
1644183913.032047,-0.006836,0.007324,-0.991089,0.205588,0.432366,-0.161527,58,281,576,6128
1644183913.080534,-0.007141,0.010559,-0.99176,0.281924,0.523969,-0.085191,45,290,591,6192
1644183913.128783,-0.006531,0.009644,-0.989258,0.312458,0.356031,-0.100458,47,282,586,6240
1644183913.177168,-0.008362,0.008667,-0.994507,0.08345,0.325496,-0.176794,52,270,582,6240
1644183913.225565,-0.009827,0.010254,-0.991699,0.159786,0.478168,-0.115725,46,283,580,6192
1644183913.273945,-0.008545,0.011047,-0.99115,0.159786,0.356031,-0.100458,46,269,585,6160
1644183913.322387,-0.008118,0.008606,-0.994385,0.35826,0.279695,-0.268397,48,274,578,6176
1644183913.370747,-0.007263,0.011902,-0.990479,0.175053,0.401832,0.021679,48,281,583,6224
1644183913.419147,-0.008789,0.010986,-0.989807,0.312458,0.432366,-0.054656,43,276,580,6192
1644183913.467545,-0.009277,0.01239,-0.990723,0.159786,0.417099,-0.237863,47,280,584,6224
1644183913.515935,-0.008362,0.011841,-0.989868,0.190321,0.371298,-0.024122,46,281,580,6224
1644183913.564343,-0.007263,0.010132,-0.990845,0.297191,0.24916,-0.14626,39,279,592,6256
1644183913.612771,-0.004822,0.009888,-0.990662,0.251389,0.356031,-0.054656,39,276,585,6240
1644183913.66108,-0.007263,0.011536,-0.991089,0.129252,0.356031,-0.25313,49,280,582,6192
1644183913.709517,-0.006287,0.010681,-0.990112,0.098718,0.462901,-0.207328,51,279,587,6176
1644183913.757876,-0.009644,0.00946,-0.992188,0.281924,0.417099,-0.130992,49,282,582,6224
1644183913.806344,-0.008911,0.010864,-0.992798,0.175053,0.554504,-0.14626,47,270,577,6176
1644183913.855078,-0.009094,0.011719,-0.989868,0.297191,0.462901,-0.237863,40,280,584,6224
1644183913.905307,-0.00946,0.009888,-0.994019,0.129252,0.615573,0.006412,49,275,579,6224
1644183913.955692,-0.00647,0.012878,-0.992981,0.190321,0.401832,-0.207328,52,277,586,6176
1644183914.000114,-0.004211,0.008972,-0.991089,0.129252,0.294962,-0.100458,49,282,589,6160
1644183914.100126,-0.007446,0.010864,-0.992188,0.236122,0.218626,-0.085191,55,279,587,6240
1644183914.145259,-0.007935,0.009216,-0.990784,0.281924,0.371298,0.006412,46,296,576,6176
1644183914.193426,-0.005981,0.009521,-0.991821,0.297191,0.356031,-0.085191,43,283,578,6160
1644183914.241812,-0.009094,0.00824,-0.990662,0.373527,0.493435,-0.207328,49,280,577,6192
1644183914.290216,-0.005981,0.012878,-0.988953,0.144519,0.417099,-0.130992,49,277,591,6128
1644183914.338628,-0.005249,0.015564,-0.991333,0.220855,0.233893,-0.161527,45,270,584,6224
1644183914.386989,-0.009949,0.00946,-0.992737,0.297191,0.325496,-0.222595,49,280,577,6192
1644183914.435403,-0.007202,0.013306,-0.99115,0.327725,0.325496,-0.085191,53,269,592,6240
1644183914.483809,-0.008362,0.012085,-0.990967,0.205588,0.554504,-0.130992,51,276,578,6224
1644183914.532267,-0.006958,0.011108,-0.990845,0.08345,0.371298,-0.207328,40,275,582,6128
1644183914.580585,-0.005676,0.013855,-0.992493,0.159786,0.523969,-0.115725,39,276,580,6224
1644183914.628979,-0.007507,0.009399,-0.98938,0.159786,0.447634,-0.176794,43,266,583,6224
1644183914.677336,-0.00415,0.010437,-0.989258,0.266656,0.508702,-0.192061,40,285,586,6240
1644183914.725758,-0.007324,0.008301,-0.988831,0.236122,0.417099,-0.085191,59,270,577,6192
1644183914.774141,-0.008057,0.008545,-0.98999,0.113985,0.493435,0.006412,46,281,592,6160
1644183914.822598,-0.010376,0.010742,-0.989258,0.251389,0.493435,-0.039389,52,270,582,6224
1644183914.870979,-0.008057,0.009766,-0.991699,0.007115,0.539237,-0.176794,45,280,575,6256
1644183914.919695,-0.009338,0.010498,-0.992798,0.251389,0.386565,-0.115725,47,285,582,6192
1644183914.97069,-0.007751,0.008362,-0.989319,0.266656,0.447634,0.021679,60,281,597,6240
1644183915.065394,-0.010254,0.011414,-0.990173,0.068183,0.279695,-0.115725,59,270,589,6224
1644183915.112948,-0.00647,0.010071,-0.989319,0.190321,0.233893,-0.100458,48,274,587,6192
1644183915.16127,-0.006653,0.009399,-0.989441,0.190321,0.462901,-0.039389,57,280,577,6160
1644183915.209676,-0.010437,0.011658,-0.991272,0.312458,0.569771,-0.085191,45,277,575,6176
1644183915.258065,-0.009827,0.011963,-0.991089,0.281924,0.371298,0.082748,54,285,579,6176
1644183915.306455,-0.007568,0.011597,-0.991455,0.297191,0.386565,-0.069924,49,275,582,6224
1644183915.354874,-0.007202,0.011169,-0.99408,0.251389,0.432366,-0.039389,52,268,575,6160
1644183915.403268,-0.00885,0.010559,-0.991455,0.236122,0.478168,0.006412,49,285,582,6224
1644183915.451645,-0.007996,0.009338,-0.990601,0.190321,0.478168,-0.192061,53,274,592,6224
1644183915.50002,-0.007629,0.011475,-0.990112,0.144519,0.432366,-0.237863,49,273,582,6128
1644183915.548409,-0.009338,0.011169,-0.990417,0.175053,0.356031,-0.176794,53,274,580,6224
1644183915.596829,-0.007629,0.010254,-0.989685,0.159786,0.432366,-0.130992,54,270,589,6224
1644183915.645221,-0.008789,0.010925,-0.992004,0.373527,0.340763,-0.100458,52,275,575,6224
1644183915.693619,-0.008545,0.012024,-0.994324,0.052916,0.386565,-0.176794,58,283,583,6240
1644183915.74201,-0.008362,0.011536,-0.993042,0.236122,0.371298,-0.054656,51,286,592,6128
1644183915.790397,-0.009155,0.011536,-0.991089,0.220855,0.294962,-0.14626,49,275,593,6160
1644183915.838829,-0.006836,0.013184,-0.99176,0.144519,0.462901,-0.024122,49,277,584,6160
1644183915.887277,-0.009644,0.010742,-0.985413,0.266656,0.401832,-0.069924,42,282,582,6240
1644183915.936025,-0.007935,0.00647,-0.990967,0.190321,0.462901,-0.115725,53,269,583,6160
1644183915.986205,-0.00592,0.009644,-0.989746,0.281924,0.401832,-0.130992,51,276,592,6128
1644183916.03659,-0.006775,0.011047,-0.988098,0.175053,0.386565,0.006412,48,269,594,6192
1644183916.095359,-0.006531,0.009521,-0.98999,0.205588,0.371298,-0.008855,59,277,596,6224
1644183916.177526,-0.006348,0.010193,-0.992065,0.190321,0.462901,-0.008855,53,281,590,6256
1644183916.225915,-0.005798,0.010437,-0.990234,0.297191,0.310229,-0.192061,41,288,573,6160
1644183916.274336,-0.006958,0.010132,-0.993896,0.159786,0.371298,-0.25313,41,271,580,6288
1644183916.322715,-0.007935,0.012512,-0.990051,0.312458,0.478168,-0.008855,47,270,586,6240
1644183916.371105,-0.00885,0.011719,-0.990662,0.175053,0.493435,-0.039389,58,276,583,6224
1644183916.419505,-0.006104,0.009338,-0.989075,0.236122,0.188092,-0.222595,51,276,590,6160
1644183916.467899,-0.006226,0.011108,-0.992188,0.205588,0.462901,-0.115725,49,273,591,6176
1644183916.516284,-0.007385,0.010803,-0.99176,0.327725,0.539237,-0.130992,52,270,586,6192
1644183916.564684,-0.011963,0.008057,-0.989563,0.342992,0.493435,0.036947,54,280,575,6192
1644183916.613086,-0.006592,0.012329,-0.991516,0.129252,0.462901,-0.14626,41,279,583,6160
1644183916.661508,-0.009338,0.010498,-0.992065,0.175053,0.356031,-0.024122,47,273,586,6176
1644183916.709845,-0.00769,0.011169,-0.99176,0.175053,0.417099,-0.054656,48,269,578,6224
1644183916.758233,-0.006104,0.010498,-0.99054,0.08345,0.401832,0.021679,42,280,584,6176
1644183916.806643,-0.004456,0.013733,-0.993286,0.205588,0.493435,-0.222595,59,275,591,6176
1644183916.855131,-0.007996,0.008179,-0.990967,0.144519,0.417099,0.021679,51,276,583,6176
1644183916.903482,-0.00824,0.010193,-0.988647,0.068183,0.432366,-0.054656,49,270,591,6224
1644183916.951868,-0.009338,0.01416,-0.991699,0.175053,0.386565,-0.054656,53,281,583,6192
1644183917.000232,-0.008179,0.011536,-0.991028,0.129252,0.462901,-0.237863,52,268,579,6256
1644183917.061419,-0.006775,0.010437,-0.99054,0.113985,0.417099,-0.024122,59,282,589,6240
1644183917.101857,-0.008301,0.010498,-0.991211,0.236122,0.478168,-0.024122,58,269,590,6128
1644183917.150792,-0.007263,0.009155,-0.992188,0.297191,0.310229,-0.192061,52,277,579,6176
1644183917.194352,-0.007019,0.011536,-0.989746,0.08345,0.585038,-0.100458,47,280,591,6224
1644183917.290564,-0.009583,0.007812,-0.991333,0.159786,0.294962,-0.161527,49,275,586,6240
1644183917.338977,-0.007263,0.012573,-0.99115,0.144519,0.371298,-0.207328,54,268,586,6192
1644183917.387358,-0.007019,0.010742,-0.992737,0.281924,0.371298,-0.039389,41,274,583,6192
1644183917.435767,-0.011841,0.010376,-0.994385,0.159786,0.417099,-0.176794,45,275,584,6288
1644183917.484154,-0.00769,0.011963,-0.990051,0.113985,0.417099,-0.283664,41,276,578,6192
1644183917.532558,-0.00946,0.012573,-0.991272,0.342992,0.432366,-0.069924,52,280,591,6192
1644183917.581645,-0.009521,0.010132,-0.991394,0.251389,0.417099,-0.039389,40,270,582,6160
1644183917.629309,-0.006348,0.012146,-0.98822,0.266656,0.417099,-0.283664,53,269,576,6176
1644183917.677726,-0.009155,0.010376,-0.993286,0.297191,0.310229,-0.176794,51,283,578,6192
1644183917.726092,-0.006348,0.00885,-0.991699,0.113985,0.478168,-0.298931,55,276,585,6192
1644183917.774499,-0.008484,0.010681,-0.991638,0.129252,0.432366,-0.100458,55,266,580,6160
1644183917.82289,-0.007446,0.008179,-0.993103,0.144519,0.432366,-0.069924,41,271,580,6176
1644183917.871336,-0.003052,0.012634,-0.990967,0.281924,0.462901,-0.024122,52,282,589,6224
1644183917.919725,-0.008789,0.009705,-0.990662,0.266656,0.325496,0.067481,53,279,580,6128
1644183917.968136,-0.007935,0.009644,-0.989868,0.220855,0.401832,-0.008855,40,277,589,6176
1644183918.016536,-0.008484,0.012512,-0.98938,0.205588,0.447634,-0.176794,51,269,590,6128
1644183918.086565,-0.012207,0.011719,-0.98877,0.312458,0.233893,-0.039389,39,288,583,6240
1644183918.118732,-0.006592,0.011292,-0.988953,0.190321,0.325496,-0.069924,46,279,592,6160
1644183918.210064,-0.006958,0.011536,-0.990967,0.388794,0.508702,0.113282,43,274,583,6224
1644183918.25843,-0.007141,0.012024,-0.993591,0.251389,0.371298,-0.069924,51,286,578,6224
1644183918.30681,-0.008667,0.011169,-0.992859,0.129252,0.478168,0.006412,40,273,582,6176
1644183918.355405,-0.00769,0.011902,-0.992371,0.022382,0.462901,-0.024122,54,275,591,6192
1644183918.403618,-0.009094,0.012085,-0.99292,0.342992,0.462901,-0.207328,48,269,585,6160
1644183918.452021,-0.00824,0.013184,-0.990051,0.251389,0.340763,0.036947,54,275,579,6160
1644183918.500379,-0.00592,0.010742,-0.990295,0.113985,0.279695,-0.14626,53,276,587,6224
1644183918.548777,-0.010315,0.010742,-0.992249,0.236122,0.325496,-0.008855,51,279,583,6160
1644183918.597182,-0.007324,0.010132,-0.991089,0.297191,0.539237,-0.192061,46,279,585,6224
1644183918.645553,-0.006958,0.010559,-0.991394,0.144519,0.24916,-0.039389,48,279,585,6240
1644183918.693984,-0.010254,0.008484,-0.991882,0.266656,0.386565,-0.054656,55,266,573,6176
1644183918.742389,-0.00946,0.01123,-0.989746,0.312458,0.417099,-0.069924,51,276,580,6224
1644183918.790757,-0.008484,0.009338,-0.992126,0.159786,0.371298,-0.100458,48,281,578,6176
1644183918.839143,-0.007263,0.010254,-0.990906,0.220855,0.371298,-0.130992,49,280,582,6224
1644183918.887592,-0.008301,0.010071,-0.989258,0.159786,0.462901,-0.069924,41,276,585,6192
1644183918.935973,-0.010193,0.009705,-0.991577,0.144519,0.356031,-0.069924,43,276,583,6160
1644183918.984378,-0.008484,0.009583,-0.991577,0.144519,0.447634,-0.085191,51,276,580,6192
1644183919.032776,-0.010986,0.010681,-0.991211,0.281924,0.539237,-0.100458,58,281,583,6224
1644183919.085369,-0.008911,0.010864,-0.991455,0.205588,0.462901,-0.024122,49,280,591,6240
1644183919.130694,-0.005798,0.010132,-0.991638,0.342992,0.447634,-0.115725,53,274,590,6224
1644183919.18121,-0.004639,0.010376,-0.988586,0.404061,0.356031,-0.069924,54,275,586,6224
1644183919.231029,-0.008789,0.01001,-0.989502,0.220855,0.188092,-0.100458,51,264,576,6240
1644183919.27581,-0.007019,0.012695,-0.991638,0.236122,0.493435,-0.222595,46,279,580,6160
1644183919.37152,-0.009033,0.008301,-0.994385,0.205588,0.493435,-0.039389,52,280,582,6224
1644183919.419903,-0.011169,0.008667,-0.993286,0.190321,0.447634,-0.024122,39,283,578,6176
1644183919.468298,-0.010742,0.006531,-0.99469,0.190321,0.340763,-0.192061,43,283,590,6160
1644183919.516668,-0.007996,0.010864,-0.993408,0.297191,0.539237,-0.161527,52,270,586,6128
1644183919.565106,-0.008179,0.010376,-0.992432,0.205588,0.417099,-0.14626,43,264,583,6224
1644183919.613482,-0.008789,0.009766,-0.991272,0.236122,0.401832,-0.069924,48,281,580,6224
1644183919.661876,-0.00769,0.01178,-0.989746,0.236122,0.325496,-0.176794,45,275,586,6192
1644183919.710251,-0.008545,0.009766,-0.990173,0.266656,0.264427,-0.237863,55,269,573,6256
1644183919.758677,-0.00592,0.010071,-0.989563,0.480397,0.356031,-0.192061,46,281,573,6176
1644183919.807051,-0.00708,0.010193,-0.989746,0.129252,0.310229,-0.085191,46,269,578,6160
1644183919.855448,-0.007446,0.011414,-0.99176,0.297191,0.386565,-0.008855,60,264,580,6240
1644183919.903839,-0.007507,0.010315,-0.987671,0.281924,0.462901,-0.069924,48,281,583,6128
1644183919.952258,-0.009094,0.00946,-0.991028,0.373527,0.432366,-0.130992,57,273,577,6128
1644183920.000619,-0.009216,0.011902,-0.992859,0.251389,0.310229,-0.283664,53,276,583,6176
1644183920.066398,-0.009155,0.011353,-0.992798,0.35826,0.386565,-0.085191,48,281,585,6192
1644183920.097426,-0.011047,0.010742,-0.99231,0.327725,0.523969,0.021679,48,286,592,6224
1644183920.145735,-0.007446,0.009766,-0.992188,0.190321,0.417099,-0.039389,53,269,590,6176
1644183920.194145,-0.007385,0.008911,-0.992676,0.205588,0.325496,-0.115725,60,269,583,6224
1644183920.243153,-0.009216,0.009583,-0.989014,0.190321,0.447634,-0.069924,53,281,590,6224
1644183920.291615,-0.008667,0.009094,-0.992676,0.175053,0.340763,-0.054656,48,274,583,6192
1644183920.342359,-0.007141,0.011292,-0.99115,0.220855,0.493435,0.082748,52,265,579,6176
1644183920.39237,-0.005676,0.010315,-0.988159,0.220855,0.264427,-0.130992,53,276,583,6160
1644183920.437329,-0.008118,0.01062,-0.991821,0.220855,0.218626,-0.024122,55,269,585,6192
1644183920.532905,-0.007019,0.012268,-0.99054,0.327725,0.356031,-0.069924,49,275,582,6192
1644183920.581291,-0.008118,0.009949,-0.991516,0.220855,0.340763,-0.024122,47,280,582,6256
1644183920.629669,-0.008301,0.011292,-0.992615,0.08345,0.432366,0.006412,47,280,584,6240
1644183920.678079,-0.008789,0.008728,-0.990723,0.159786,0.539237,-0.115725,47,273,579,6176
1644183920.726459,-0.006897,0.010132,-0.991272,0.144519,0.294962,-0.207328,54,275,579,6128
1644183920.774889,-0.009766,0.00769,-0.992065,0.281924,0.432366,-0.14626,57,275,579,6224
1644183920.823308,-0.009155,0.009644,-0.990112,0.312458,0.294962,-0.192061,55,291,594,6128
1644183920.871703,-0.00824,0.011108,-0.992554,0.236122,0.386565,0.021679,46,281,578,6240
1644183920.920088,-0.008362,0.012024,-0.990967,0.297191,0.371298,-0.176794,52,273,584,6192
1644183920.96848,-0.009705,0.010376,-0.989624,0.236122,0.447634,0.006412,51,283,587,6192
1644183921.016865,-0.00885,0.009644,-0.989197,0.312458,0.417099,-0.161527,47,277,579,6176
1644183921.071159,-0.008179,0.010071,-0.992004,0.388794,0.386565,-0.100458,48,286,580,6176
1644183921.113645,-0.003845,0.008667,-0.992065,0.113985,0.478168,-0.008855,57,282,582,6240
1644183921.162016,-0.009766,0.008179,-0.990967,0.144519,0.417099,-0.054656,48,291,585,6192
1644183921.210401,-0.00824,0.009338,-0.991943,0.205588,0.386565,-0.100458,46,279,583,6240
1644183921.258779,-0.00885,0.011047,-0.991882,0.281924,0.279695,-0.314198,43,271,599,6160
1644183921.307165,-0.007324,0.011658,-0.990295,0.220855,0.478168,0.021679,52,270,584,6160
1644183921.355558,-0.007507,0.010803,-0.991516,0.190321,0.264427,-0.100458,47,285,584,6192
1644183921.404027,-0.004944,0.012634,-0.988831,0.236122,0.386565,-0.054656,43,279,585,6176
1644183921.454137,-0.00647,0.008423,-0.994751,0.220855,0.401832,-0.115725,38,280,584,6224
1644183921.504505,-0.007141,0.010315,-0.990906,0.281924,0.508702,0.036947,54,270,579,6160
1644183921.549709,-0.007202,0.009644,-0.993408,0.312458,0.478168,-0.054656,45,275,584,6176
1644183921.645916,-0.005798,0.012085,-0.990417,0.251389,0.447634,-0.237863,53,271,573,6160
1644183921.694343,-0.009766,0.010437,-0.993225,0.159786,0.386565,-0.008855,59,280,582,6176
1644183921.742731,-0.007202,0.009827,-0.989807,0.266656,0.325496,-0.054656,52,285,575,6176
1644183921.791125,-0.008789,0.010925,-0.989441,0.266656,0.462901,-0.085191,53,274,580,6192
1644183921.839548,-0.007202,0.011292,-0.99115,0.144519,0.386565,-0.237863,51,276,576,6240
1644183921.887941,-0.005066,0.009155,-0.990173,0.144519,0.462901,-0.039389,45,282,577,6192
1644183921.936315,-0.010986,0.009888,-0.992432,0.098718,0.447634,-0.115725,45,285,575,6176
1644183921.984728,-0.005066,0.009155,-0.991333,0.312458,0.340763,-0.100458,48,274,592,6192
1644183922.033128,-0.007324,0.009521,-0.991699,0.342992,0.478168,-0.115725,52,280,577,6176
1644183922.087558,-0.008484,0.00946,-0.991333,0.129252,0.478168,-0.14626,38,275,586,6224
1644183922.129882,-0.007019,0.011047,-0.990601,0.144519,0.340763,-0.115725,48,288,597,6176
1644183922.178259,-0.00824,0.011597,-0.992126,0.281924,0.310229,-0.115725,45,282,572,6176
1644183922.226614,-0.009644,0.009521,-0.990601,0.373527,0.508702,-0.069924,49,270,596,6160
1644183922.275425,-0.007263,0.009705,-0.988831,0.220855,0.310229,0.021679,54,275,582,6240
1644183922.324249,-0.009338,0.010437,-0.991089,0.251389,0.478168,-0.085191,51,283,590,6192
1644183922.37483,-0.008484,0.012939,-0.993774,0.388794,0.523969,-0.207328,42,275,584,6176
1644183922.42505,-0.006104,0.007874,-0.991028,0.327725,0.386565,-0.085191,53,274,578,6176
1644183922.517013,-0.010132,0.010315,-0.993225,0.327725,0.432366,-0.207328,43,274,585,6224
1644183922.5654,-0.00769,0.010742,-0.989746,0.342992,0.401832,-0.008855,54,277,586,6224
1644183922.6138,-0.007751,0.011047,-0.992432,0.236122,0.417099,-0.14626,48,271,580,6192
1644183922.662373,-0.009888,0.008545,-0.990662,0.236122,0.340763,-0.069924,49,282,589,6240
1644183922.71058,-0.010864,0.008728,-0.99176,0.297191,0.386565,-0.115725,52,280,582,6224
1644183922.758952,-0.007996,0.007385,-0.990417,0.419328,0.356031,-0.161527,40,275,586,6224
1644183922.80736,-0.007874,0.00769,-0.989929,0.205588,0.417099,-0.039389,62,269,583,6128
1644183922.855792,-0.009033,0.010132,-0.99408,0.175053,0.386565,-0.283664,49,273,579,6256
1644183922.904191,-0.010254,0.010437,-0.992188,0.281924,0.310229,-0.100458,51,266,585,6176
1644183922.952591,-0.009583,0.008179,-0.991272,0.236122,0.478168,-0.130992,54,268,582,6240
1644183923.000968,-0.009583,0.009949,-0.99054,0.08345,0.371298,-0.207328,52,273,586,6192
1644183923.062469,-0.008118,0.009521,-0.992432,0.236122,0.493435,-0.207328,55,266,580,6160
1644183923.098874,-0.00885,0.012695,-0.991638,0.098718,0.386565,-0.14626,57,280,584,6176
1644183923.146115,-0.007385,0.008545,-0.990784,0.251389,0.371298,-0.054656,48,281,583,6128
1644183923.194521,-0.010681,0.007935,-0.990112,0.098718,0.325496,-0.085191,51,279,576,6224
1644183923.242912,-0.007507,0.011658,-0.990601,0.236122,0.447634,-0.024122,46,269,576,6192
1644183923.291291,-0.00885,0.010437,-0.992981,0.297191,0.432366,-0.039389,41,281,578,6224
1644183923.339653,-0.009583,0.008301,-0.990784,0.236122,0.340763,-0.008855,49,268,591,6160
1644183923.388072,-0.009766,0.011536,-0.98877,0.08345,0.371298,-0.192061,52,277,582,6240
1644183923.436513,-0.006592,0.010925,-0.988892,0.098718,0.310229,-0.100458,57,277,584,6224
1644183923.487005,-0.00824,0.007996,-0.992676,0.281924,0.447634,-0.25313,52,285,589,6176
1644183923.537305,-0.007996,0.012695,-0.98999,0.404061,0.478168,-0.100458,51,266,576,6240
1644183923.582284,-0.009766,0.009949,-0.991943,0.144519,0.310229,-0.207328,49,282,579,6176
1644183923.678426,-0.006348,0.011108,-0.991455,0.266656,0.264427,-0.130992,41,276,585,6192
1644183923.726812,-0.006958,0.011169,-0.990051,0.205588,0.294962,-0.085191,47,282,570,6192
1644183923.775414,-0.008362,0.010071,-0.993469,0.297191,0.432366,-0.100458,65,274,590,6160
1644183923.823616,-0.011414,0.010071,-0.993164,0.113985,0.646107,-0.192061,45,275,582,6240
1644183923.872044,-0.010315,0.012146,-0.99353,0.251389,0.325496,-0.222595,52,273,579,6176
1644183923.920431,-0.009094,0.008728,-0.991455,0.236122,0.493435,-0.207328,58,296,576,6192
1644183923.968832,-0.012268,0.010986,-0.990173,0.220855,0.386565,-0.390534,41,279,587,6176
1644183924.017235,-0.007141,0.011963,-0.990051,0.175053,0.401832,-0.268397,43,276,594,6224
1644183924.069476,-0.008789,0.008972,-0.992065,0.113985,0.432366,-0.024122,45,277,584,6224
1644183924.114052,-0.007263,0.010376,-0.989197,0.220855,0.462901,-0.14626,43,288,583,6192
1644183924.162386,-0.009583,0.010132,-0.992004,0.159786,0.310229,-0.207328,49,275,586,6240
1644183924.210768,-0.008484,0.010193,-0.992676,0.113985,0.569771,-0.039389,51,279,580,6160
1644183924.259131,-0.008667,0.010437,-0.992004,0.098718,0.264427,-0.130992,47,270,579,6288
1644183924.307549,-0.006897,0.00769,-0.990906,0.327725,0.325496,0.036947,53,276,585,6240
1644183924.355937,-0.010742,0.01123,-0.992981,0.266656,0.356031,-0.085191,46,281,590,6128
1644183924.404326,-0.008118,0.00708,-0.988953,0.281924,0.417099,-0.130992,54,273,575,6176
1644183924.452732,-0.008667,0.008667,-0.990723,0.129252,0.371298,-0.237863,43,288,587,6192
1644183924.501087,-0.005249,0.009033,-0.991577,0.205588,0.432366,-0.100458,58,283,583,6224
1644183924.54966,-0.007507,0.009827,-0.988647,0.312458,0.310229,-0.069924,36,274,590,6192
1644183924.598591,-0.009949,0.011658,-0.992676,0.037649,0.325496,-0.14626,46,276,576,6192
1644183924.649053,-0.010437,0.010132,-0.990112,0.35826,0.417099,0.006412,41,274,585,6224
1644183924.699032,-0.007874,0.008667,-0.988831,0.236122,0.493435,0.006412,49,273,577,6224
1644183924.744095,-0.008423,0.009705,-0.989929,0.175053,0.325496,-0.039389,57,280,589,6160
1644183924.83986,-0.009338,0.01123,-0.992859,0.236122,0.279695,-0.222595,46,276,587,6192
1644183924.888295,-0.007019,0.013184,-0.990906,0.068183,0.523969,-0.115725,47,273,591,6256
1644183924.936669,-0.007812,0.011597,-0.992432,0.129252,0.386565,-0.085191,47,287,584,6176
1644183924.985122,-0.006653,0.010437,-0.993164,0.281924,0.264427,-0.100458,39,274,580,6160
1644183925.033488,-0.010071,0.00769,-0.989441,0.159786,0.340763,-0.115725,41,288,587,6128
1644183925.081996,-0.009277,0.009766,-0.991394,0.220855,0.371298,-0.130992,47,280,584,6176
1644183925.130272,-0.006409,0.010254,-0.991699,0.190321,0.462901,-0.161527,57,270,584,6160
1644183925.178612,-0.006226,0.01001,-0.988831,0.297191,0.447634,-0.115725,41,271,578,6176
1644183925.22701,-0.008789,0.009766,-0.992249,0.220855,0.508702,-0.085191,47,275,584,6192
1644183925.276318,-0.00708,0.008911,-0.990417,0.175053,0.417099,-0.14626,47,275,584,6240
1644183925.323814,-0.00708,0.012573,-0.990906,0.068183,0.340763,-0.115725,46,286,585,6224
1644183925.372314,-0.006104,0.011536,-0.988037,0.236122,0.417099,-0.069924,54,280,582,6240
1644183925.42057,-0.007629,0.007996,-0.989502,0.327725,0.294962,-0.237863,53,271,587,6160
1644183925.468976,-0.00647,0.012207,-0.991516,0.190321,0.371298,-0.100458,55,281,580,6256
1644183925.517367,-0.01001,0.009521,-0.990417,0.08345,0.386565,-0.192061,49,280,582,6160
1644183925.565793,-0.005493,0.010925,-0.993774,0.266656,0.340763,-0.008855,55,271,573,6192
1644183925.614164,-0.009338,0.009033,-0.991577,0.220855,0.401832,-0.161527,48,286,580,6224
1644183925.662559,-0.012451,0.011047,-0.990356,0.251389,0.523969,-0.054656,52,277,584,6224
1644183925.710935,-0.008972,0.008423,-0.992554,0.251389,0.432366,-0.222595,51,274,583,6176
1644183925.759422,-0.007202,0.01123,-0.990784,0.190321,0.447634,-0.024122,41,274,576,6192
1644183925.809656,-0.008057,0.01239,-0.988647,0.190321,0.294962,-0.14626,55,286,578,6224
1644183925.860524,-0.01062,0.010193,-0.993225,0.35826,0.493435,-0.039389,43,274,583,6224
1644183925.90551,-0.00592,0.00946,-0.992249,0.266656,0.386565,-0.176794,45,275,579,6176
1644183926.001338,-0.007324,0.007874,-0.989319,0.220855,0.356031,-0.14626,49,268,582,6240
1644183926.064869,-0.007996,0.008179,-0.990112,0.205588,0.432366,-0.192061,54,282,584,6192
1644183926.098213,-0.008057,0.008362,-0.992859,0.236122,0.432366,-0.192061,42,280,589,6240
1644183926.146497,-0.00824,0.011597,-0.993469,0.159786,0.325496,-0.222595,47,280,579,6224
1644183926.1949,-0.007568,0.009766,-0.993713,0.281924,0.340763,-0.100458,54,277,575,6192
1644183926.243267,-0.008667,0.012695,-0.990967,0.35826,0.401832,-0.14626,41,276,573,6176
1644183926.291649,-0.009705,0.008423,-0.99292,0.342992,0.279695,-0.024122,57,280,584,6224
1644183926.340039,-0.007019,0.008728,-0.991211,0.129252,0.264427,-0.008855,48,274,585,6176
1644183926.388438,-0.009583,0.009705,-0.990845,0.159786,0.386565,-0.085191,53,269,585,6224
1644183926.436831,-0.011658,0.012207,-0.990356,0.297191,0.554504,-0.14626,43,269,573,6192
1644183926.485225,-0.01001,0.008545,-0.993774,0.220855,0.401832,0.036947,49,282,584,6224
1644183926.53362,-0.011108,0.011353,-0.990051,0.281924,0.508702,-0.283664,48,274,592,6160
1644183926.582022,-0.008301,0.009033,-0.992554,0.281924,0.417099,-0.237863,47,275,589,6192
1644183926.631799,-0.01001,0.012207,-0.99231,0.220855,0.371298,-0.085191,54,282,572,6224
1644183926.682173,-0.009277,0.009949,-0.991638,0.113985,0.340763,-0.192061,52,277,589,6192
1644183926.732257,-0.006042,0.00946,-0.991272,0.098718,0.371298,-0.14626,42,277,579,6224
1644183926.823997,-0.009644,0.010498,-0.990173,0.175053,0.462901,-0.069924,47,275,584,6240
1644183926.872805,-0.006958,0.012207,-0.992004,0.068183,0.279695,-0.100458,51,266,592,6240
1644183926.920782,-0.007446,0.012207,-0.994019,0.220855,0.371298,-0.085191,53,269,573,6192
1644183926.969177,-0.006592,0.010376,-0.991028,0.113985,0.432366,-0.100458,53,281,576,6112
1644183927.017589,-0.009583,0.008789,-0.990173,0.129252,0.401832,-0.25313,58,281,578,6192
1644183927.068651,-0.00647,0.008667,-0.989868,0.281924,0.493435,-0.207328,41,291,592,6224
1644183927.114381,-0.006958,0.013184,-0.991577,0.159786,0.432366,0.067481,57,282,591,6176
1644183927.162792,-0.007629,0.013733,-0.990112,0.236122,0.493435,0.006412,46,283,573,6176
1644183927.211167,-0.009644,0.010315,-0.98999,0.342992,0.371298,-0.25313,48,276,583,6224
1644183927.259523,-0.01062,0.010254,-0.990906,0.312458,0.356031,-0.14626,42,265,586,6112
1644183927.307917,-0.008484,0.008301,-0.988953,0.113985,0.432366,-0.161527,41,283,578,6176
1644183927.356336,-0.005859,0.010864,-0.98877,0.190321,0.401832,-0.192061,46,276,587,6176
1644183927.404757,-0.005859,0.008911,-0.991882,0.312458,0.371298,-0.176794,53,266,571,6224
1644183927.45314,-0.009766,0.012024,-0.994324,0.35826,0.14229,-0.100458,46,281,583,6192
1644183927.501494,-0.007996,0.008484,-0.990723,0.159786,0.432366,0.036947,47,275,579,6176
1644183927.549922,-0.008728,0.010132,-0.990906,0.205588,0.478168,-0.085191,47,268,579,6160
1644183927.598301,-0.008606,0.010559,-0.991882,0.205588,0.508702,-0.069924,53,281,587,6128
1644183927.646704,-0.006409,0.010498,-0.992188,0.404061,0.356031,-0.039389,46,269,587,6224
1644183927.695174,-0.008667,0.008545,-0.990906,0.266656,0.417099,-0.130992,42,277,577,6176
1644183927.745015,-0.010803,0.011841,-0.992188,0.052916,0.417099,-0.039389,51,274,594,6192
1644183927.795599,-0.006653,0.011047,-0.992737,0.266656,0.386565,-0.039389,52,285,589,6224
1644183927.845762,-0.008423,0.010925,-0.990601,0.220855,0.493435,0.082748,54,277,579,6224
1644183927.937026,-0.007812,0.010315,-0.990479,0.281924,0.356031,-0.207328,46,269,578,6224
1644183927.985443,-0.006592,0.012573,-0.989929,0.205588,0.401832,-0.039389,53,293,583,6224
1644183928.033848,-0.006653,0.007812,-0.988831,0.236122,0.417099,-0.161527,49,275,591,6192
1644183928.082659,-0.00708,0.011719,-0.991821,0.236122,0.386565,0.067481,53,279,594,6224
1644183928.130588,-0.009277,0.011963,-0.989502,0.190321,0.401832,-0.054656,55,274,590,6240
1644183928.178978,-0.009949,0.010803,-0.993042,0.159786,0.325496,-0.115725,52,268,579,6176
1644183928.227369,-0.006592,0.010925,-0.990662,0.190321,0.417099,-0.14626,51,281,583,6224
1644183928.275733,-0.007751,0.012329,-0.988892,0.342992,0.478168,-0.085191,49,265,579,6176
1644183928.324136,-0.008911,0.012146,-0.990356,0.159786,0.462901,-0.085191,55,269,573,6160
1644183928.372555,-0.009888,0.009583,-0.991699,0.35826,0.523969,-0.130992,47,287,577,6128
1644183928.420938,-0.007263,0.010559,-0.99176,0.113985,0.325496,-0.14626,53,281,585,6192
1644183928.469333,-0.009583,0.010437,-0.992126,0.266656,0.371298,-0.039389,54,280,577,6224
1644183928.517737,-0.004456,0.011169,-0.988342,0.159786,0.432366,-0.207328,47,287,598,6192
1644183928.566113,-0.007874,0.010315,-0.992126,0.220855,0.417099,-0.192061,41,279,578,6128
1644183928.614522,-0.00824,0.01123,-0.992859,0.205588,0.294962,-0.176794,61,287,598,6192
1644183928.662925,-0.009155,0.005493,-0.991882,0.205588,0.432366,-0.192061,48,291,580,6256
1644183928.7113,-0.009644,0.007629,-0.991821,0.266656,0.401832,-0.237863,51,274,580,6176
1644183928.759685,-0.010559,0.009277,-0.995544,0.144519,0.386565,-0.054656,51,279,576,6160
1644183928.808296,-0.010376,0.011597,-0.98877,0.159786,0.432366,-0.207328,43,283,585,6176
1644183928.858946,-0.009399,0.009766,-0.991211,0.129252,0.478168,-0.054656,53,281,571,6176
1644183928.909071,-0.009094,0.010132,-0.990417,0.236122,0.340763,-0.130992,60,281,576,6224
1644183928.953614,-0.007141,0.010864,-0.991211,0.266656,0.585038,-0.115725,47,280,591,6256
1644183929.068564,-0.007385,0.010254,-0.991028,0.113985,0.493435,-0.069924,53,281,590,6176
1644183929.103577,-0.009827,0.007812,-0.990723,0.205588,0.371298,-0.054656,53,274,583,6240
1644183929.146807,-0.008118,0.011108,-0.991455,0.220855,0.432366,-0.115725,46,271,583,6224
1644183929.195429,-0.009094,0.012329,-0.991882,0.342992,0.447634,-0.161527,62,271,590,6128
1644183929.243615,-0.006348,0.011963,-0.989868,0.251389,0.417099,-0.100458,57,277,586,6192
1644183929.292004,-0.00885,0.011963,-0.990479,0.266656,0.462901,-0.14626,45,273,591,6160
1644183929.340378,-0.006897,0.008301,-0.992615,0.236122,0.386565,-0.130992,51,279,583,6160
1644183929.388802,-0.006226,0.013733,-0.990601,0.175053,0.462901,-0.25313,47,290,591,6160
1644183929.437186,-0.008728,0.010437,-0.992981,0.205588,0.401832,-0.085191,49,268,582,6224
1644183929.485578,-0.005798,0.009766,-0.990601,0.266656,0.340763,-0.100458,47,277,577,6224
1644183929.535231,-0.009705,0.00946,-0.991577,0.236122,0.462901,-0.130992,47,280,584,6176
1644183929.585583,-0.009155,0.010376,-0.990417,0.35826,0.539237,-0.054656,43,271,590,6176
1644183929.636401,-0.007019,0.011719,-0.993286,0.175053,0.478168,-0.100458,52,270,602,6192
1644183929.727536,-0.007263,0.010071,-0.992432,0.312458,0.432366,-0.024122,49,280,582,6160
1644183929.77591,-0.009644,0.010681,-0.989563,0.159786,0.432366,-0.222595,58,283,580,6224
1644183929.824367,-0.009338,0.009338,-0.991577,0.144519,0.417099,0.052214,45,273,582,6160
1644183929.872776,-0.007446,0.010803,-0.990417,0.159786,0.325496,-0.024122,52,275,579,6224
1644183929.921158,-0.008911,0.010071,-0.991394,0.236122,0.294962,-0.054656,43,274,576,6176
1644183929.969523,-0.010803,0.010925,-0.991638,0.098718,0.386565,-0.085191,47,280,579,6224
1644183930.017953,-0.006714,0.012817,-0.99292,0.220855,0.294962,0.067481,48,274,585,6240
1644183930.071506,-0.010437,0.007507,-0.990723,0.236122,0.539237,-0.207328,48,271,578,6224
1644183930.114757,-0.010193,0.009277,-0.991272,0.190321,0.340763,-0.039389,59,280,582,6224
1644183930.163092,-0.009216,0.010986,-0.991638,0.236122,0.432366,-0.115725,42,280,582,6160
1644183930.211439,-0.00415,0.010132,-0.989197,0.159786,0.264427,-0.130992,51,279,580,6224
1644183930.259845,-0.010254,0.012634,-0.990051,0.159786,0.401832,-0.069924,54,280,589,6256
1644183930.308251,-0.007629,0.009155,-0.993286,0.037649,0.356031,-0.024122,45,277,591,6224
1644183930.35666,-0.006592,0.011841,-0.992615,0.281924,0.478168,-0.25313,52,277,577,6128
1644183930.40508,-0.009888,0.011841,-0.992065,0.266656,0.432366,-0.130992,41,279,590,6288
1644183930.45344,-0.010132,0.009705,-0.990784,0.434595,0.310229,-0.176794,58,283,592,6160
1644183930.501804,-0.008423,0.011719,-0.99176,0.037649,0.478168,-0.024122,51,271,583,6240
1644183930.550221,-0.009216,0.009827,-0.991394,0.327725,0.508702,-0.115725,49,275,589,6256
1644183930.598614,-0.011841,0.010071,-0.991699,0.297191,0.462901,-0.161527,54,277,582,6176
1644183930.647166,-0.009705,0.008972,-0.99231,0.46513,0.356031,-0.14626,62,281,590,6240
1644183930.697636,-0.009766,0.009644,-0.990234,0.266656,0.417099,-0.100458,39,279,583,6224
1644183930.747994,-0.009277,0.007751,-0.991272,0.205588,0.432366,-0.14626,51,283,590,6176
1644183930.79316,-0.006714,0.008728,-0.994385,0.129252,0.417099,0.036947,53,281,587,6240
1644183930.88902,-0.009277,0.00824,-0.989929,0.266656,0.432366,-0.024122,46,274,578,6112
1644183930.937406,-0.008728,0.009155,-0.99231,0.175053,0.325496,-0.039389,48,283,580,6192
1644183930.985798,-0.005615,0.009766,-0.994385,0.297191,0.462901,-0.130992,51,271,580,6224
1644183931.03419,-0.007751,0.009155,-0.99231,0.251389,0.447634,-0.054656,46,281,587,6224
1644183931.083693,-0.008789,0.008911,-0.993408,0.297191,0.585038,-0.130992,57,275,590,6192
1644183931.130992,-0.010864,0.010315,-0.992004,0.205588,0.371298,0.021679,57,277,577,6224
1644183931.179339,-0.007996,0.009705,-0.990723,0.327725,0.386565,-0.039389,35,275,572,6160
1644183931.227724,-0.007141,0.009766,-0.994446,0.205588,0.294962,-0.024122,60,266,578,6240
1644183931.276117,-0.006897,0.010437,-0.989563,0.236122,0.523969,-0.222595,49,273,582,6176
1644183931.324527,-0.010925,0.009644,-0.991394,0.297191,0.386565,-0.085191,45,280,591,6224
1644183931.372894,-0.006592,0.008301,-0.992371,0.251389,0.340763,-0.192061,51,281,587,6240
1644183931.4213,-0.00824,0.009155,-0.99231,0.251389,0.356031,-0.069924,45,268,582,6176
1644183931.469662,-0.007019,0.010437,-0.990112,0.342992,0.386565,-0.192061,40,275,582,6224
1644183931.518086,-0.006775,0.009277,-0.992188,0.266656,0.462901,-0.024122,55,281,587,6176
1644183931.566482,-0.008057,0.010315,-0.990417,0.266656,0.371298,-0.237863,46,286,580,6224
1644183931.614885,-0.012146,0.010132,-0.989685,0.205588,0.478168,-0.161527,46,276,585,6176
1644183931.66326,-0.008179,0.01001,-0.990295,0.281924,0.447634,-0.161527,46,276,585,6224
1644183931.711644,-0.009277,0.008667,-0.991272,0.281924,0.264427,0.021679,54,265,579,6192
1644183931.760036,-0.008484,0.01001,-0.991455,0.312458,0.508702,-0.024122,49,275,582,6224
1644183931.808504,-0.005859,0.009094,-0.994568,0.159786,0.401832,-0.069924,55,274,578,6224
1644183931.859128,-0.009888,0.011963,-0.993835,0.205588,0.310229,-0.176794,35,275,582,6160
1644183931.910191,-0.008728,0.009644,-0.98999,0.220855,0.447634,-0.024122,46,269,580,6176
1644183931.954781,-0.007629,0.009033,-0.99408,0.190321,0.233893,-0.054656,45,280,579,6160
1644183932.069166,-0.007751,0.011597,-0.990906,0.175053,0.432366,-0.039389,48,279,590,6160
1644183932.101786,-0.009155,0.012024,-0.987854,0.312458,0.585038,-0.130992,47,275,579,6240
1644183932.14721,-0.008911,0.009827,-0.992737,0.251389,0.569771,0.021679,58,286,583,6128
1644183932.195577,-0.005981,0.007629,-0.989685,0.113985,0.447634,-0.222595,41,279,580,6128
1644183932.243956,-0.010437,0.009338,-0.993408,0.159786,0.493435,-0.222595,47,277,591,6176
1644183932.292348,-0.009033,0.010254,-0.991577,0.236122,0.24916,-0.192061,58,276,587,6192
1644183932.34076,-0.009033,0.010376,-0.994141,0.068183,0.447634,-0.100458,62,266,587,6192
1644183932.389164,-0.006042,0.008179,-0.992859,0.190321,0.462901,-0.176794,49,270,591,6176
1644183932.437549,-0.010071,0.008057,-0.993774,0.175053,0.432366,0.006412,46,286,590,6160
1644183932.485927,-0.007141,0.010071,-0.991882,0.129252,0.432366,-0.069924,60,276,583,6192
1644183932.535485,-0.008118,0.009033,-0.989502,0.159786,0.447634,-0.176794,53,271,583,6192
1644183932.585856,-0.009338,0.010132,-0.992188,0.113985,0.539237,0.052214,48,276,580,6224
1644183932.63602,-0.009888,0.011658,-0.991333,0.037649,0.432366,-0.039389,54,273,584,6176
1644183932.727906,-0.006836,0.012695,-0.990601,0.129252,0.356031,-0.039389,48,281,583,6160
1644183932.776276,-0.006226,0.011719,-0.990662,0.236122,0.447634,-0.008855,53,279,590,6176
1644183932.824851,-0.005737,0.01001,-0.990601,0.220855,0.233893,-0.25313,49,280,582,6176
1644183932.873107,-0.006714,0.008057,-0.98999,0.266656,0.386565,0.12855,48,276,587,6192
1644183932.921524,-0.008301,0.010498,-0.992859,0.205588,0.417099,-0.161527,53,281,573,6192
1644183932.969911,-0.00946,0.00946,-0.991943,0.220855,0.478168,-0.207328,48,281,583,6192
1644183933.018311,-0.006714,0.010803,-0.992004,0.281924,0.432366,-0.176794,54,280,584,6128
1644183933.069265,-0.008179,0.010437,-0.991211,0.098718,0.264427,-0.054656,52,280,593,6192
1644183933.115148,-0.007446,0.008789,-0.991516,0.342992,0.340763,0.052214,45,275,586,6160
1644183933.163443,-0.009094,0.011719,-0.991272,0.266656,0.340763,-0.069924,45,275,589,6256
1644183933.211824,-0.01062,0.012451,-0.992554,0.388794,0.371298,-0.085191,47,277,589,6224
1644183933.260203,-0.005493,0.007385,-0.990723,0.251389,0.294962,-0.039389,57,275,586,6240
1644183933.308628,-0.007996,0.010193,-0.993591,0.144519,0.478168,-0.054656,51,279,587,6160
1644183933.356984,-0.00531,0.010132,-0.992249,0.35826,0.386565,-0.161527,53,286,583,6176
1644183933.40538,-0.009583,0.00885,-0.993896,0.388794,0.493435,0.021679,53,288,585,6240
1644183933.4538,-0.010254,0.01062,-0.989563,0.236122,0.417099,-0.100458,53,281,594,6176
1644183933.502224,-0.009277,0.010925,-0.992798,0.205588,0.356031,-0.207328,48,279,583,6224
1644183933.550582,-0.010498,0.008545,-0.990234,0.236122,0.508702,-0.130992,47,285,589,6240
1644183933.598976,-0.006592,0.011414,-0.993347,0.251389,0.417099,-0.024122,55,266,585,6176
1644183933.647417,-0.008789,0.010132,-0.990051,0.327725,0.447634,-0.069924,36,274,585,6192
1644183933.698249,-0.008057,0.009705,-0.991638,0.220855,0.356031,-0.069924,55,274,583,6256
1644183933.748022,-0.009155,0.011536,-0.992371,0.373527,0.447634,-0.115725,41,271,583,6240
1644183933.793129,-0.010437,0.009338,-0.989502,0.236122,0.432366,-0.008855,64,268,589,6176
1644183933.889371,-0.006409,0.01123,-0.991211,0.144519,0.417099,-0.100458,45,270,593,6192
1644183933.937762,-0.007141,0.007202,-0.993347,0.327725,0.371298,0.036947,48,286,583,6128
1644183933.98613,-0.006714,0.00946,-0.992981,0.342992,0.371298,-0.268397,51,276,578,6192
1644183934.034553,-0.010498,0.009216,-0.991699,0.190321,0.371298,-0.100458,52,285,584,6128
1644183934.085077,-0.006226,0.010864,-0.991394,0.144519,0.310229,0.036947,60,283,580,6224
1644183934.131303,-0.007629,0.009644,-0.989441,0.205588,0.447634,-0.176794,53,283,585,6176
1644183934.179682,-0.00946,0.010315,-0.993958,0.251389,0.523969,-0.085191,59,277,586,6224
1644183934.228052,-0.007507,0.009827,-0.992126,0.113985,0.279695,-0.054656,41,281,573,6192
1644183934.276473,-0.00885,0.008606,-0.993286,0.236122,0.386565,-0.069924,54,268,577,6224
1644183934.32494,-0.009094,0.00769,-0.99353,0.373527,0.447634,0.036947,61,282,586,6240
1644183934.373291,-0.00885,0.009644,-0.989929,0.175053,0.386565,-0.115725,51,269,587,6192
1644183934.421663,-0.009094,0.012146,-0.991028,0.266656,0.310229,-0.069924,49,280,577,6128
1644183934.470054,-0.010498,0.013123,-0.989502,0.297191,0.493435,0.006412,59,280,589,6240
1644183934.518451,-0.00946,0.012329,-0.991211,0.144519,0.310229,-0.008855,34,286,580,6176
1644183934.566813,-0.009583,0.008545,-0.991821,0.236122,0.417099,-0.100458,52,277,575,6160
1644183934.615281,-0.007324,0.009827,-0.990356,0.236122,0.279695,-0.25313,45,285,586,6224
1644183934.663613,-0.009521,0.007751,-0.990356,0.297191,0.493435,0.052214,58,274,578,6128
1644183934.712013,-0.009583,0.01062,-0.993408,0.08345,0.340763,-0.14626,41,279,578,6160
1644183934.760402,-0.005371,0.012268,-0.989868,0.159786,0.371298,-0.100458,49,275,584,6192
1644183934.809238,-0.009155,0.01001,-0.990662,0.327725,0.325496,-0.115725,49,285,586,6224
1644183934.860467,-0.007324,0.009888,-0.990723,0.327725,0.310229,-0.054656,49,280,586,6160
1644183934.910649,-0.011169,0.011536,-0.989258,0.190321,0.294962,-0.130992,57,280,579,6192
1644183934.955281,-0.006287,0.009094,-0.993652,0.220855,0.478168,-0.115725,51,276,573,6240
1644183935.065243,-0.007568,0.008057,-0.992004,0.251389,0.356031,0.006412,49,285,589,6224
1644183935.102062,-0.009094,0.009338,-0.99292,0.190321,0.417099,-0.130992,52,280,589,6128
1644183935.147537,-0.009705,0.009399,-0.989807,0.190321,0.264427,-0.008855,42,277,586,6224
1644183935.19591,-0.011047,0.010681,-0.993103,0.190321,0.340763,-0.207328,36,279,585,6304
1644183935.244342,-0.007935,0.008423,-0.990051,0.297191,0.310229,-0.192061,51,281,587,6192
1644183935.292749,-0.006104,0.009644,-0.99408,0.220855,0.493435,-0.14626,46,283,590,6224
1644183935.341119,-0.007568,0.010681,-0.992371,0.35826,0.493435,-0.085191,53,286,585,6224
1644183935.38952,-0.008301,0.010803,-0.991882,0.327725,0.371298,-0.100458,54,273,589,6128
1644183935.437902,-0.007629,0.010071,-0.991211,0.342992,0.523969,-0.176794,49,290,589,6240
1644183935.486292,-0.006531,0.01239,-0.993164,0.327725,0.432366,-0.054656,52,273,579,6240
1644183935.534705,-0.00824,0.011841,-0.988953,0.251389,0.478168,-0.161527,55,274,576,6128
1644183935.583361,-0.007812,0.008423,-0.989746,0.327725,0.386565,-0.039389,41,269,590,6176
1644183935.632349,-0.010132,0.012268,-0.99292,0.266656,0.233893,-0.115725,58,283,583,6128
1644183935.68282,-0.009155,0.010437,-0.990295,0.068183,0.447634,0.036947,57,270,586,6192
1644183935.733043,-0.006775,0.009827,-0.99231,0.388794,0.585038,-0.085191,48,271,587,6240
1644183935.778164,-0.007996,0.009888,-0.991394,0.251389,0.432366,0.021679,45,277,582,6176
1644183935.873511,-0.00946,0.008057,-0.989197,0.266656,0.447634,0.036947,55,276,578,6224
1644183935.921875,-0.006775,0.01001,-0.992188,0.175053,0.386565,-0.192061,54,270,591,6224
1644183935.970277,-0.011597,0.006958,-0.991699,0.205588,0.417099,0.036947,52,273,582,6128
1644183936.018667,-0.00885,0.009583,-0.989746,0.251389,0.462901,-0.069924,48,276,590,6240
1644183936.071215,-0.011841,0.011841,-0.98938,0.404061,0.371298,0.036947,54,285,582,6224
1644183936.115413,-0.008362,0.007935,-0.988098,0.220855,0.371298,-0.130992,49,275,584,6240
1644183936.163808,-0.008179,0.01001,-0.989563,0.327725,0.478168,-0.100458,42,282,579,6224
1644183936.212206,-0.005981,0.01178,-0.989502,0.236122,0.401832,-0.008855,48,283,578,6160
1644183936.260598,-0.009583,0.01062,-0.989563,0.175053,0.325496,0.052214,45,277,577,6176
1644183936.30895,-0.009766,0.012085,-0.993835,0.297191,0.356031,-0.14626,54,268,582,6224
1644183936.357379,-0.00885,0.009583,-0.993591,0.144519,0.294962,-0.054656,53,281,585,6176
1644183936.405768,-0.00647,0.010193,-0.994141,0.312458,0.294962,-0.085191,42,285,579,6128
1644183936.454165,-0.008606,0.011353,-0.988525,0.220855,0.523969,-0.024122,42,275,586,6176
1644183936.502568,-0.010803,0.010254,-0.990967,0.266656,0.462901,-0.176794,47,273,586,6240
1644183936.550937,-0.007751,0.007568,-0.990173,0.266656,0.294962,-0.039389,48,283,580,6224
1644183936.599331,-0.010193,0.011292,-0.991516,0.281924,0.432366,-0.237863,48,281,587,6128
1644183936.647727,-0.007996,0.011108,-0.990967,0.251389,0.294962,-0.115725,47,287,582,6240
1644183936.696119,-0.007385,0.008789,-0.989746,0.449863,0.386565,0.052214,41,274,580,6160
1644183936.744516,-0.005432,0.009399,-0.990601,0.251389,0.356031,-0.100458,43,274,585,6176
1644183936.793275,-0.010559,0.011719,-0.991821,0.297191,0.417099,-0.161527,40,277,589,6224
1644183936.84377,-0.006653,0.009583,-0.990906,0.129252,0.401832,-0.039389,53,271,592,6224
1644183936.894977,-0.008057,0.009827,-0.993103,0.220855,0.188092,-0.130992,52,273,591,6192
1644183936.939518,-0.008362,0.011108,-0.992615,0.266656,0.523969,0.052214,46,286,583,6192
1644183937.034918,-0.009888,0.010925,-0.992371,0.236122,0.371298,-0.115725,52,277,577,6224
1644183937.086891,-0.007141,0.007324,-0.991272,0.205588,0.386565,-0.207328,48,281,583,6128
1644183937.131677,-0.009399,0.011719,-0.992615,0.144519,0.325496,-0.176794,53,271,587,6224
1644183937.180052,-0.005493,0.010132,-0.992432,0.159786,0.371298,-0.207328,54,287,579,6224
1644183937.228438,-0.008667,0.00946,-0.991638,0.159786,0.432366,-0.14626,52,282,589,6240
1644183937.276813,-0.00824,0.009216,-0.98938,0.297191,0.447634,-0.115725,49,285,579,6224
1644183937.325227,-0.005554,0.012207,-0.99231,0.220855,0.417099,-0.054656,54,270,582,6224
1644183937.373655,-0.010132,0.009766,-0.990845,0.388794,0.523969,-0.069924,41,271,576,6192
1644183937.422015,-0.007812,0.013794,-0.991394,0.297191,0.417099,-0.161527,49,268,584,6192
1644183937.470412,-0.008545,0.010376,-0.990784,0.312458,0.462901,-0.222595,53,271,576,6192
1644183937.518788,-0.008667,0.009705,-0.991943,-0.053954,0.401832,-0.192061,48,274,585,6240
1644183937.567196,-0.007568,0.008423,-0.994507,0.190321,0.493435,-0.161527,46,276,578,6160
1644183937.615583,-0.008179,0.011475,-0.991333,0.052916,0.356031,-0.039389,38,275,584,6176
1644183937.663985,-0.010071,0.011292,-0.99115,0.113985,0.508702,-0.039389,48,269,583,6176
1644183937.712386,-0.010681,0.012817,-0.990845,0.129252,0.432366,-0.237863,47,280,584,6160
1644183937.760737,-0.008667,0.009705,-0.989868,0.205588,0.386565,-0.100458,53,276,590,6224
1644183937.80915,-0.007568,0.008484,-0.990173,0.144519,0.508702,0.021679,49,280,582,6224
1644183937.858141,-0.009277,0.009094,-0.990967,0.434595,0.447634,-0.130992,48,271,583,6176
1644183937.90886,-0.007874,0.010925,-0.989624,0.113985,0.417099,0.006412,51,276,594,6224
1644183937.95913,-0.009338,0.011108,-0.99353,0.251389,0.523969,-0.085191,54,273,579,6176
1644183938.003591,-0.008545,0.011047,-0.990112,0.266656,0.508702,0.021679,57,273,586,6160
1644183938.102286,-0.007568,0.010132,-0.989075,0.297191,0.325496,-0.008855,47,277,575,6128
1644183938.147933,-0.007385,0.008362,-0.99231,0.342992,0.432366,0.021679,47,280,591,6160
1644183938.196301,-0.00824,0.011536,-0.992249,0.113985,0.539237,-0.039389,49,270,589,6176
1644183938.244709,-0.006897,0.012085,-0.990723,0.220855,0.401832,-0.054656,51,288,576,6224
1644183938.293087,-0.007263,0.010437,-0.992065,0.159786,0.310229,-0.161527,45,277,591,6224
1644183938.341478,-0.006226,0.012512,-0.991272,0.281924,0.478168,-0.069924,52,282,579,6160
1644183938.389874,-0.009888,0.011963,-0.990173,0.373527,0.310229,-0.024122,54,287,586,6240
1644183938.438266,-0.007629,0.009583,-0.992676,0.098718,0.493435,-0.054656,42,280,596,6192
1644183938.486649,-0.007812,0.012024,-0.992676,0.342992,0.417099,-0.039389,48,276,583,6128
1644183938.535074,-0.010864,0.012207,-0.991333,0.312458,0.401832,-0.024122,52,270,572,6224
1644183938.583612,-0.010315,0.009521,-0.994141,0.190321,0.340763,-0.130992,43,276,597,6128
1644183938.633952,-0.007996,0.009033,-0.991943,0.281924,0.371298,-0.085191,55,269,592,6240
1644183938.684298,-0.007019,0.009644,-0.992126,0.098718,0.233893,-0.008855,49,275,591,6224
1644183938.7293,-0.00885,0.008606,-0.993164,0.08345,0.401832,-0.069924,61,277,582,6192
1644183938.825401,-0.009155,0.009888,-0.992493,0.129252,0.447634,-0.085191,55,271,587,6160
1644183938.87384,-0.009949,0.006714,-0.992249,0.098718,0.417099,-0.054656,52,282,572,6160
1644183938.922416,-0.00946,0.008789,-0.99054,0.190321,0.447634,-0.069924,54,277,586,6240
1644183938.970592,-0.009766,0.009766,-0.988708,0.144519,0.432366,0.006412,43,274,587,6304
1644183939.018994,-0.007629,0.011414,-0.992371,0.205588,0.401832,-0.161527,38,282,584,6224
1644183939.07097,-0.007629,0.009766,-0.993713,0.251389,0.432366,-0.161527,62,281,585,6224
1644183939.115777,-0.011169,0.009521,-0.993774,0.312458,0.356031,-0.100458,57,268,579,6224
1644183939.164181,-0.009827,0.00824,-0.992737,0.220855,0.478168,-0.176794,55,276,587,6224
1644183939.212567,-0.009705,0.010559,-0.991028,0.144519,0.432366,-0.024122,47,285,584,6176
1644183939.260943,-0.009216,0.009521,-0.991882,0.35826,0.310229,-0.14626,45,277,589,6128
1644183939.309314,-0.010864,0.007629,-0.991699,0.297191,0.401832,-0.069924,35,275,582,6224
1644183939.357728,-0.007202,0.006226,-0.992249,0.342992,0.432366,-0.222595,58,286,578,6240
1644183939.406115,-0.006775,0.008728,-0.992126,0.205588,0.432366,-0.115725,51,283,590,6224
1644183939.454504,-0.008423,0.010681,-0.992065,0.098718,0.523969,-0.039389,46,281,590,6176
1644183939.502921,-0.010864,0.006958,-0.990967,0.129252,0.371298,-0.161527,33,273,591,6240
1644183939.551292,-0.006165,0.010071,-0.994629,0.35826,0.523969,-0.14626,52,277,586,6224
1644183939.599694,-0.010315,0.007141,-0.992676,0.373527,0.432366,-0.100458,46,281,594,6176
1644183939.648058,-0.005554,0.010864,-0.992859,0.144519,0.279695,-0.085191,49,277,589,6192
1644183939.696475,-0.010559,0.012085,-0.993713,0.251389,0.371298,-0.085191,52,273,584,6224
1644183939.745536,-0.00769,0.010071,-0.992859,0.175053,0.508702,0.082748,45,275,591,6128
1644183939.79628,-0.007385,0.006897,-0.99176,0.068183,0.462901,-0.069924,53,274,583,6160
1644183939.84639,-0.008484,0.010071,-0.993835,0.205588,0.371298,-0.161527,49,277,589,6160
1644183939.891745,-0.008972,0.011536,-0.988403,0.129252,0.554504,-0.161527,45,277,589,6240
1644183939.986844,-0.009155,0.009277,-0.992493,0.342992,0.508702,-0.024122,52,282,584,6224
1644183940.035468,-0.009766,0.010254,-0.98999,0.113985,0.310229,-0.008855,55,269,573,6224
1644183940.083999,-0.009399,0.010559,-0.993896,0.159786,0.401832,-0.161527,55,283,592,6224
1644183940.132005,-0.007385,0.00769,-0.991821,0.129252,0.340763,-0.085191,46,276,580,6176
1644183940.180404,-0.01178,0.007568,-0.991516,0.175053,0.325496,-0.085191,41,281,578,6160
1644183940.228804,-0.008545,0.012695,-0.989258,0.297191,0.340763,-0.100458,51,266,578,6192
1644183940.277173,-0.011108,0.009644,-0.990479,0.129252,0.386565,-0.161527,46,279,578,6224
1644183940.32559,-0.006958,0.008484,-0.992126,0.220855,0.340763,-0.069924,43,279,590,6224
1644183940.373991,-0.007812,0.009033,-0.990784,0.098718,0.340763,-0.130992,48,281,573,6224
1644183940.422389,-0.010193,0.010132,-0.990479,0.342992,0.478168,-0.115725,45,273,589,6240
1644183940.470751,-0.006897,0.012207,-0.98999,0.297191,0.508702,-0.008855,51,276,585,6240
1644183940.519151,-0.00647,0.01001,-0.99054,0.404061,0.539237,-0.024122,54,282,584,6176
1644183940.56755,-0.006531,0.008057,-0.991394,0.236122,0.554504,-0.161527,57,285,586,6224
1644183940.615937,-0.009644,0.008972,-0.99292,0.159786,0.386565,-0.176794,45,268,584,6256
1644183940.664343,-0.009705,0.010681,-0.989746,0.342992,0.432366,-0.130992,53,276,578,6256
1644183940.712744,-0.008606,0.012085,-0.991943,0.113985,0.432366,-0.130992,60,269,585,6224
1644183940.761118,-0.008301,0.011047,-0.988464,0.098718,0.325496,-0.207328,52,285,579,6224
1644183940.810321,-0.008545,0.010193,-0.990662,0.297191,0.462901,0.052214,57,273,593,6240
1644183940.859768,-0.007324,0.010559,-0.994446,0.236122,0.493435,-0.115725,52,277,589,6224
1644183940.909743,-0.007324,0.010498,-0.987671,0.129252,0.569771,-0.054656,49,273,586,6160
1644183940.959949,-0.008179,0.009949,-0.993103,0.022382,0.24916,-0.069924,53,274,585,6176
1644183941.061783,-0.008911,0.011169,-0.990417,0.312458,0.371298,0.036947,54,280,585,6192
1644183941.101811,-0.011292,0.01178,-0.990967,0.266656,0.554504,-0.039389,47,275,579,6160
1644183941.148251,-0.008789,0.012024,-0.990295,0.175053,0.523969,-0.161527,57,282,596,6192
1644183941.196664,-0.011353,0.01001,-0.989319,0.312458,0.401832,-0.192061,47,275,582,6240
1644183941.24516,-0.009277,0.011169,-0.99176,0.327725,0.310229,-0.085191,53,271,585,6224
1644183941.293466,-0.009155,0.009033,-0.990967,0.175053,0.371298,-0.14626,51,279,580,6160
1644183941.34181,-0.010376,0.008362,-0.992188,0.190321,0.478168,0.006412,53,271,587,6192
1644183941.390232,-0.007812,0.011353,-0.993652,0.251389,0.462901,-0.085191,41,281,580,6256
1644183941.438582,-0.009155,0.009094,-0.990967,0.266656,0.493435,-0.024122,48,283,578,6176
1644183941.487003,-0.007568,0.011047,-0.991455,0.342992,0.417099,-0.008855,51,281,583,6240
1644183941.535409,-0.010498,0.009949,-0.993164,0.052916,0.356031,0.006412,55,279,583,6192
1644183941.583797,-0.007751,0.007935,-0.991516,0.281924,0.539237,-0.130992,52,282,584,6224
1644183941.632211,-0.010559,0.008057,-0.990173,0.159786,0.371298,-0.207328,59,282,579,6160
1644183941.680595,-0.009705,0.009705,-0.991699,0.220855,0.401832,0.006412,52,277,577,6160
1644183941.729439,-0.009338,0.01123,-0.98877,0.236122,0.356031,-0.039389,38,273,586,6240
1644183941.779835,-0.006958,0.007751,-0.990906,0.342992,0.356031,0.036947,43,271,576,6224
1644183941.831076,-0.010559,0.010559,-0.990906,-0.008153,0.508702,-0.039389,51,279,580,6240
1644183941.875641,-0.01062,0.008728,-0.990967,0.266656,0.401832,-0.008855,41,279,585,6224
1644183941.970953,-0.007263,0.010376,-0.993774,0.113985,0.554504,-0.039389,45,280,586,6240
1644183942.019374,-0.007996,0.00946,-0.988464,0.297191,0.432366,-0.130992,47,285,575,6176
1644183942.06897,-0.007324,0.011841,-0.990479,0.144519,0.493435,-0.054656,52,290,591,6224
1644183942.116116,-0.008179,0.007507,-0.99176,0.297191,0.508702,-0.176794,45,285,579,6160
1644183942.164522,-0.009827,0.010681,-0.992676,0.113985,0.310229,-0.176794,42,275,577,6224
1644183942.212898,-0.008728,0.01001,-0.991699,0.404061,0.432366,0.082748,51,266,585,6192
1644183942.261311,-0.008972,0.008606,-0.990906,0.404061,0.356031,-0.008855,43,279,576,6240
1644183942.309675,-0.00946,0.008667,-0.990845,0.220855,0.432366,-0.25313,52,275,591,6224
1644183942.358084,-0.010803,0.010925,-0.990356,0.236122,0.447634,-0.130992,59,273,577,6224
1644183942.406485,-0.009216,0.008667,-0.987732,0.175053,0.462901,-0.192061,43,288,580,6160
1644183942.454888,-0.006226,0.011353,-0.990417,0.236122,0.447634,-0.115725,52,268,591,6192
1644183942.503297,-0.009583,0.009033,-0.992554,0.144519,0.417099,0.006412,47,285,584,6160
1644183942.551661,-0.007141,0.00824,-0.991455,0.297191,0.493435,-0.085191,49,275,568,6176
1644183942.600013,-0.007629,0.010437,-0.990784,0.159786,0.24916,-0.039389,49,282,582,6224
1644183942.648442,-0.009033,0.010559,-0.991211,0.236122,0.386565,-0.25313,46,281,585,6224
1644183942.696838,-0.007751,0.009644,-0.991394,0.281924,0.447634,-0.069924,54,268,586,6240
1644183942.745234,-0.009521,0.010315,-0.989746,0.297191,0.462901,-0.054656,55,276,583,6224
1644183942.793622,-0.006592,0.009644,-0.992981,0.175053,0.386565,-0.14626,53,271,580,6128
1644183942.842062,-0.008301,0.008118,-0.987427,0.190321,0.462901,0.082748,48,276,594,6176
1644183942.891724,-0.008972,0.01123,-0.99176,0.205588,0.340763,-0.100458,48,274,585,6192
1644183942.941925,-0.008484,0.012634,-0.993225,0.342992,0.523969,-0.207328,45,268,586,6176
1644183942.992219,-0.010193,0.009583,-0.991028,0.220855,0.462901,-0.161527,49,282,584,6160
1644183943.036856,-0.009094,0.007507,-0.991577,0.098718,0.401832,-0.039389,49,287,570,6160
1644183943.132433,-0.005676,0.012634,-0.990234,0.190321,0.386565,-0.14626,46,279,587,6176
1644183943.180763,-0.007568,0.010132,-0.991089,0.159786,0.356031,-0.14626,51,279,583,6240
1644183943.229128,-0.009705,0.010437,-0.991211,0.190321,0.462901,-0.130992,48,271,580,6176
1644183943.277536,-0.006836,0.007568,-0.98999,0.129252,0.417099,-0.14626,55,279,576,6160
1644183943.325946,-0.008179,0.011536,-0.989624,0.297191,0.401832,-0.115725,51,271,576,6192
1644183943.374336,-0.00769,0.010193,-0.991577,0.190321,0.462901,-0.237863,40,280,575,6192
1644183943.422748,-0.008911,0.010193,-0.991272,0.342992,0.493435,-0.008855,53,271,583,6224
1644183943.471125,-0.007996,0.003235,-0.992798,0.266656,0.401832,-0.100458,51,281,590,6192
1644183943.519517,-0.007751,0.009399,-0.989929,0.175053,0.447634,-0.207328,51,281,583,6160
1644183943.567908,-0.006714,0.01001,-0.991577,0.068183,0.417099,-0.130992,61,277,575,6176
1644183943.616308,-0.010437,0.007996,-0.990967,0.220855,0.386565,-0.222595,54,275,593,6192
1644183943.664718,-0.010559,0.012634,-0.993103,0.098718,0.386565,-0.100458,57,287,582,6224
1644183943.71311,-0.009949,0.009033,-0.99054,0.281924,0.417099,-0.115725,54,282,584,6160
1644183943.761458,-0.008484,0.008789,-0.991882,0.251389,0.356031,-0.115725,57,287,589,6176
1644183943.80986,-0.008667,0.011719,-0.99054,0.129252,0.279695,-0.100458,60,274,590,6224
1644183943.858273,-0.007202,0.008301,-0.99115,0.373527,0.356031,-0.130992,49,270,589,6160
1644183943.906697,-0.007507,0.00946,-0.98938,0.266656,0.676641,-0.161527,48,288,576,6176
1644183943.9552,-0.006653,0.010498,-0.989624,0.175053,0.401832,-0.085191,42,275,582,6224
1644183944.003482,-0.009399,0.008057,-0.994385,0.175053,0.493435,-0.176794,49,275,579,6224
1644183944.066991,-0.008484,0.010071,-0.990234,0.175053,0.417099,0.067481,48,283,585,6160
1644183944.111192,-0.008728,0.007874,-0.990051,0.144519,0.386565,0.036947,64,280,584,6160
1644183944.153608,-0.006287,0.009766,-0.992249,0.266656,0.371298,0.021679,51,269,583,6192
1644183944.197672,-0.009888,0.010498,-0.991272,0.159786,0.447634,-0.176794,35,277,584,6224
1644183944.293802,-0.008118,0.008789,-0.993347,0.113985,0.294962,-0.207328,48,283,578,6224
1644183944.342381,-0.006775,0.007874,-0.993713,0.236122,0.279695,-0.14626,43,281,578,6192
1644183944.390577,-0.010254,0.009277,-0.994202,0.266656,0.371298,-0.069924,54,273,577,6160
1644183944.438972,-0.00885,0.008423,-0.990051,0.129252,0.310229,-0.14626,41,276,583,6240
1644183944.48734,-0.008301,0.01123,-0.99292,0.266656,0.432366,0.052214,45,275,586,6192
1644183944.535765,-0.009521,0.010864,-0.992554,0.312458,0.325496,-0.130992,49,277,579,6224
1644183944.584166,-0.01062,0.006958,-0.990723,0.190321,0.325496,-0.100458,54,277,577,6256
1644183944.63255,-0.007874,0.008179,-0.99054,0.236122,0.417099,-0.039389,51,271,585,6224
1644183944.680946,-0.010193,0.008118,-0.991943,0.159786,0.325496,-0.054656,55,271,585,6192
1644183944.729343,-0.007812,0.007019,-0.991394,0.190321,0.508702,-0.268397,49,277,589,6224
1644183944.77773,-0.00885,0.00647,-0.992493,0.251389,0.417099,-0.039389,43,274,585,6160
1644183944.826129,-0.007446,0.007996,-0.992554,0.236122,0.325496,-0.039389,59,277,570,6240
1644183944.874646,-0.009949,0.008667,-0.989502,0.281924,0.417099,-0.161527,45,275,586,6192
1644183944.922971,-0.007324,0.010864,-0.991211,0.281924,0.478168,-0.192061,53,286,580,6240
1644183944.971343,-0.008545,0.008911,-0.992004,0.190321,0.554504,-0.115725,52,277,589,6224
1644183945.019746,-0.009644,0.012573,-0.993713,0.144519,0.417099,-0.115725,57,275,591,6192
1644183945.087159,-0.00769,0.012451,-0.98938,0.068183,0.447634,-0.069924,52,277,584,6160
1644183945.165199,-0.006775,0.01001,-0.992432,0.159786,0.447634,0.006412,48,274,576,6192
1644183945.213284,-0.006714,0.012512,-0.989441,0.190321,0.417099,-0.085191,51,276,587,6240
1644183945.261639,-0.00824,0.012634,-0.991333,0.266656,0.508702,0.006412,52,277,584,6176
1644183945.310043,-0.006409,0.011719,-0.992676,0.342992,0.615573,-0.161527,51,279,580,6288
1644183945.358431,-0.006775,0.009399,-0.990601,0.098718,0.417099,-0.100458,46,276,592,6224
1644183945.406818,-0.009338,0.011658,-0.993469,0.129252,0.523969,-0.100458,57,273,579,6160
1644183945.455223,-0.006836,0.00885,-0.991028,0.175053,0.294962,-0.161527,42,280,582,6160
1644183945.503609,-0.007324,0.009888,-0.990295,0.220855,0.371298,-0.085191,51,283,583,6176
1644183945.552015,-0.010498,0.008118,-0.991333,0.220855,0.279695,-0.283664,60,281,576,6176
1644183945.600409,-0.009216,0.007324,-0.990234,0.373527,0.386565,0.021679,61,270,589,6224
1644183945.648779,-0.009338,0.009644,-0.989807,0.144519,0.569771,-0.069924,49,270,591,6256
1644183945.697196,-0.00647,0.010681,-0.995117,0.159786,0.432366,-0.069924,51,279,585,6176
1644183945.745565,-0.007263,0.009216,-0.990234,0.312458,0.294962,0.021679,51,279,587,6176
1644183945.793973,-0.008972,0.006958,-0.990845,0.251389,0.478168,-0.085191,49,273,582,6176
1644183945.842387,-0.010315,0.011597,-0.992065,0.113985,0.310229,-0.054656,45,277,589,6160
1644183945.890796,-0.009644,0.009094,-0.990051,0.098718,0.340763,-0.222595,47,275,577,6224
1644183945.939195,-0.00824,0.011536,-0.992737,0.175053,0.493435,-0.176794,55,281,590,6112
1644183945.987777,-0.007812,0.010132,-0.990967,0.327725,0.447634,-0.100458,46,288,587,6224
1644183946.035994,-0.006714,0.010864,-0.990417,0.266656,0.432366,0.036947,43,279,594,6176
1644183946.094825,-0.005798,0.011475,-0.990784,0.220855,0.462901,-0.069924,48,266,585,6160
1644183946.134946,-0.010925,0.012634,-0.992981,0.236122,0.478168,-0.115725,57,273,586,6224
1644183946.185234,-0.006531,0.008423,-0.99231,0.236122,0.462901,-0.115725,42,275,579,6224
1644183946.23044,-0.008789,0.013123,-0.991699,0.220855,0.371298,-0.085191,42,282,582,6128
1644183946.326287,-0.006592,0.010315,-0.99115,0.297191,0.417099,-0.161527,49,275,577,6160
1644183946.374916,-0.009094,0.011414,-0.99115,0.342992,0.447634,-0.069924,47,297,584,6176
1644183946.423091,-0.009583,0.008545,-0.991821,0.327725,0.462901,-0.039389,58,271,573,6176
1644183946.47147,-0.008606,0.007812,-0.993896,0.08345,0.233893,-0.115725,41,274,578,6160
1644183946.519867,-0.010559,0.008972,-0.992737,0.327725,0.386565,-0.115725,48,283,587,6192
1644183946.568264,-0.009705,0.008972,-0.990784,0.266656,0.447634,-0.069924,51,276,583,6176
1644183946.616662,-0.009277,0.009827,-0.992126,0.297191,0.310229,-0.100458,53,274,578,6160
1644183946.665142,-0.008789,0.010254,-0.990723,0.251389,0.401832,-0.176794,57,275,572,6240
1644183946.713431,-0.008667,0.00885,-0.991943,0.159786,0.386565,-0.054656,53,274,592,6240
1644183946.76185,-0.008667,0.012024,-0.99231,0.190321,0.432366,0.006412,46,276,580,6176
1644183946.810255,-0.007202,0.009949,-0.99115,0.220855,0.386565,-0.039389,52,275,582,6176
1644183946.858647,-0.008057,0.010254,-0.990845,0.175053,0.203359,-0.008855,55,276,583,6128
1644183946.907047,-0.009216,0.010254,-0.993896,0.098718,0.447634,-0.192061,46,274,583,6256
1644183946.955441,-0.007263,0.01123,-0.990601,0.312458,0.478168,-0.314198,51,279,587,6224
1644183947.003829,-0.007629,0.008789,-0.989014,0.220855,0.401832,-0.14626,43,271,590,6128
1644183947.067663,-0.008789,0.007751,-0.992065,0.35826,0.340763,-0.130992,48,283,590,6224
1644183947.102633,-0.009583,0.00946,-0.993896,0.205588,0.447634,-0.024122,53,271,597,6192
1644183947.148979,-0.008057,0.013306,-0.991333,0.236122,0.493435,-0.069924,49,287,589,6160
1644183947.197372,-0.009583,0.013,-0.989807,0.312458,0.294962,-0.14626,52,287,582,6224
1644183947.24625,-0.012939,0.007263,-0.990845,0.297191,0.417099,0.052214,57,285,582,6240
1644183947.296781,-0.009888,0.009338,-0.990723,0.129252,0.508702,-0.176794,57,265,584,6176
1644183947.346808,-0.012146,0.009338,-0.993652,0.312458,0.310229,-0.100458,55,281,580,6224
1644183947.391953,-0.009338,0.00946,-0.989502,0.236122,0.356031,-0.054656,49,275,577,6160
1644183947.487719,-0.010498,0.010315,-0.991577,0.068183,0.264427,0.021679,47,285,575,6176
1644183947.536116,-0.008667,0.010315,-0.992554,0.144519,0.264427,-0.176794,52,268,591,6192
1644183947.585181,-0.009277,0.010803,-0.992249,0.327725,0.325496,-0.085191,45,280,577,6176
1644183947.632922,-0.011047,0.01178,-0.990173,0.08345,0.340763,0.082748,39,276,585,6192
1644183947.681272,-0.010132,0.007812,-0.990479,0.388794,0.310229,-0.100458,35,273,589,6224
1644183947.729689,-0.007324,0.00946,-0.989563,0.159786,0.478168,-0.039389,47,277,582,6176
1644183947.77808,-0.009583,0.009216,-0.99115,0.297191,0.417099,-0.085191,43,274,585,6176
1644183947.826516,-0.009888,0.012329,-0.992981,0.297191,0.325496,-0.100458,51,271,585,6176
1644183947.874931,-0.006836,0.009338,-0.991089,0.098718,0.233893,-0.085191,47,282,586,6224
1644183947.923333,-0.009155,0.009827,-0.991882,0.251389,0.294962,-0.176794,45,292,593,6224
1644183947.971707,-0.008606,0.010132,-0.992981,0.266656,0.523969,0.098015,54,277,579,6176
1644183948.020101,-0.008789,0.009033,-0.992676,0.281924,0.478168,-0.192061,48,283,578,6160
1644183948.089978,-0.010376,0.009583,-0.992188,0.342992,0.432366,-0.115725,58,281,590,6240
1644183948.119064,-0.008362,0.00946,-0.990784,0.205588,0.401832,-0.039389,45,275,586,6224
1644183948.168706,-0.009155,0.010498,-0.991882,0.266656,0.356031,-0.100458,39,276,580,6224
1644183948.218832,-0.011047,0.00885,-0.992065,0.266656,0.401832,-0.069924,53,281,590,6128
1644183948.310404,-0.009583,0.00946,-0.992188,0.175053,0.218626,-0.100458,43,281,571,6160
1644183948.358789,-0.010742,0.007996,-0.992432,0.159786,0.478168,-0.054656,55,271,580,6224
1644183948.40718,-0.011475,0.009888,-0.99054,0.159786,0.371298,-0.14626,42,280,584,6224
1644183948.455586,-0.009766,0.007996,-0.995361,0.327725,0.615573,0.036947,46,271,585,6160
1644183948.503957,-0.008667,0.008301,-0.991211,0.312458,0.356031,-0.222595,46,281,562,6160
1644183948.552404,-0.007874,0.01123,-0.990845,0.144519,0.386565,-0.192061,43,283,592,6192
1644183948.600767,-0.010071,0.010071,-0.990906,0.251389,0.508702,-0.024122,32,279,583,6224
1644183948.649174,-0.008362,0.010681,-0.990417,0.281924,0.447634,-0.054656,49,270,575,6128
1644183948.697532,-0.00824,0.006409,-0.991577,0.281924,0.493435,-0.237863,51,271,576,6256
1644183948.745919,-0.007385,0.008972,-0.991333,0.251389,0.325496,-0.100458,55,281,578,6224
1644183948.794335,-0.009644,0.011841,-0.991577,0.251389,0.646107,-0.222595,54,275,586,6224
1644183948.842803,-0.008728,0.007874,-0.990784,0.266656,0.432366,-0.085191,48,269,583,6160
1644183948.891166,-0.00885,0.009888,-0.992126,0.327725,0.172824,-0.100458,58,288,590,6160
1644183948.939562,-0.008484,0.011963,-0.993042,0.205588,0.417099,-0.069924,51,283,580,6176
1644183948.987953,-0.009155,0.012451,-0.992432,0.373527,0.523969,-0.130992,55,276,583,6240
1644183949.036341,-0.009644,0.011414,-0.992126,0.236122,0.478168,-0.100458,48,281,587,6192
1644183949.086895,-0.007324,0.00885,-0.996033,0.404061,0.401832,-0.176794,47,273,596,6224
1644183949.133125,-0.007507,0.010254,-0.991089,0.144519,0.401832,-0.085191,47,280,584,6080
1644183949.181503,-0.010071,0.009644,-0.989441,0.297191,0.356031,-0.100458,47,268,593,6176
1644183949.231615,-0.007629,0.006653,-0.98999,0.297191,0.386565,-0.039389,53,269,580,6240
1644183949.281989,-0.006165,0.01178,-0.990173,0.205588,0.340763,-0.222595,48,276,578,6176
1644183949.32721,-0.008057,0.012573,-0.994568,0.175053,0.325496,-0.14626,46,276,580,6192
1644183949.423457,-0.007568,0.009277,-0.992188,0.205588,0.462901,-0.25313,55,276,578,6112
1644183949.471839,-0.009094,0.00885,-0.992676,0.205588,0.462901,-0.054656,46,276,578,6160
1644183949.52023,-0.009705,0.008301,-0.991638,0.297191,0.310229,-0.298931,53,271,573,6192
1644183949.569226,-0.006165,0.012268,-0.987854,0.220855,0.325496,0.021679,51,274,578,6240
1644183949.617006,-0.00824,0.00946,-0.99054,0.327725,0.401832,-0.176794,52,280,579,6176
1644183949.665415,-0.007629,0.010315,-0.993774,0.205588,0.432366,-0.237863,49,280,584,6224
1644183949.713802,-0.008362,0.010925,-0.994507,0.220855,0.539237,-0.115725,46,274,573,6224
1644183949.762206,-0.007446,0.007874,-0.992432,0.205588,0.447634,-0.268397,52,277,586,6160
1644183949.810596,-0.009094,0.008911,-0.991089,0.205588,0.523969,-0.085191,46,266,587,6224
1644183949.859008,-0.010376,0.010193,-0.991638,0.205588,0.539237,-0.14626,57,275,586,6176
1644183949.90742,-0.012695,0.007751,-0.994446,0.190321,0.386565,-0.039389,48,279,578,6160
1644183949.955814,-0.008728,0.010132,-0.993652,0.175053,0.417099,-0.176794,42,268,582,6224
1644183950.00422,-0.009094,0.009521,-0.991943,0.205588,0.478168,0.006412,46,279,590,6160
1644183950.062585,-0.007629,0.010803,-0.991028,0.190321,0.325496,0.036947,43,286,578,6192
1644183950.10375,-0.008728,0.011963,-0.993408,0.35826,0.386565,-0.298931,53,276,594,6256
1644183950.149348,-0.009399,0.010254,-0.990906,0.052916,0.340763,0.098015,55,271,585,6224
1644183950.197744,-0.009644,0.008118,-0.990845,0.220855,0.417099,-0.085191,55,286,578,6176
1644183950.246124,-0.01123,0.010559,-0.989502,0.236122,0.401832,-0.039389,47,273,589,6192
1644183950.294522,-0.00708,0.009888,-0.989319,0.266656,0.554504,-0.085191,35,277,586,6240
1644183950.34324,-0.01001,0.010071,-0.990662,0.220855,0.371298,-0.207328,51,274,571,6240
1644183950.393816,-0.007507,0.010742,-0.991333,0.220855,0.462901,-0.115725,57,270,577,6224
1644183950.443811,-0.008423,0.010803,-0.99115,0.220855,0.447634,0.021679,66,268,582,6224
1644183950.489335,-0.008362,0.012512,-0.992737,0.236122,0.356031,-0.069924,45,273,586,6224
1644183950.58488,-0.007507,0.010681,-0.991089,0.220855,0.401832,0.036947,47,270,584,6192
1644183950.633283,-0.009766,0.008728,-0.993591,0.205588,0.401832,-0.085191,47,275,577,6192
1644183950.681656,0.001221,0.005676,-0.991882,0.022382,0.401832,-0.329466,49,275,577,6128
1644183950.730039,-0.009094,0.008362,-0.988708,0.556733,0.752977,-0.115725,49,285,596,6240
1644183950.778445,-0.004272,0.005859,-0.99054,0.144519,0.233893,-0.130992,54,268,584,6256
1644183950.826835,-0.002014,0.012878,-0.989868,0.052916,0.294962,-0.161527,54,277,575,6192
1644183950.875376,-0.008911,0.011597,-0.988586,0.510931,0.539237,-0.130992,57,280,586,6128
1644183950.923675,-0.004517,0.008667,-0.990967,0.08345,0.417099,-0.115725,49,277,584,6224
1644183950.972071,-0.006775,0.013245,-0.990906,0.281924,0.356031,-0.161527,58,279,585,6224
1644183951.020467,-0.00708,0.007935,-0.99176,0.35826,0.462901,-0.100458,46,269,585,6224
1644183951.071174,-0.00885,0.009949,-0.991333,0.08345,0.462901,-0.237863,51,281,578,6160
1644183951.117232,-0.01001,0.010864,-0.991272,0.327725,0.432366,-0.069924,54,273,582,6176
1644183951.165598,-0.007629,0.010193,-0.989441,0.113985,0.371298,-0.222595,53,286,583,6176
1644183951.213977,-0.008606,0.011536,-0.992065,0.327725,0.432366,-0.054656,48,279,590,6160
1644183951.262395,-0.011719,0.008179,-0.990479,0.266656,0.386565,-0.069924,48,286,585,6224
1644183951.31077,-0.007751,0.007751,-0.992249,0.190321,0.585038,-0.176794,59,273,593,6176
1644183951.359169,-0.010315,0.012085,-0.992371,0.281924,0.356031,-0.14626,55,279,583,6224
1644183951.407764,-0.008728,0.009521,-0.993774,0.144519,0.554504,-0.161527,47,270,586,6176
1644183951.456642,-0.009094,0.008789,-0.989563,0.022382,0.432366,-0.161527,58,281,578,6176
1644183951.507293,-0.008301,0.009827,-0.992493,0.236122,0.478168,-0.008855,49,280,584,6160
1644183951.557335,-0.008545,0.010071,-0.99054,0.266656,0.386565,-0.085191,52,277,584,6176
1644183951.602344,-0.009277,0.010864,-0.98999,0.220855,0.401832,-0.192061,53,276,587,6224
1644183951.697886,-0.008118,0.00946,-0.992737,0.037649,0.356031,-0.115725,41,276,585,6256
1644183951.746277,-0.003723,0.012085,-0.991028,0.373527,0.432366,0.021679,54,285,586,6240
1644183951.79485,-0.009033,0.008362,-0.992249,0.205588,0.447634,-0.115725,49,285,575,6176
1644183951.843082,-0.007263,0.009094,-0.98877,0.144519,0.462901,-0.085191,51,281,580,6240
1644183951.891517,-0.006653,0.012512,-0.989624,0.281924,0.325496,0.006412,42,290,584,6176
1644183951.939899,-0.008118,0.007141,-0.992188,0.251389,0.371298,-0.069924,45,282,582,6224
1644183951.988325,-0.009888,0.01001,-0.993774,0.205588,0.539237,-0.25313,57,285,593,6176
1644183952.03668,-0.00885,0.008362,-0.991028,0.373527,0.188092,-0.176794,43,271,580,6176
1644183952.091089,-0.008728,0.009766,-0.993896,0.190321,0.279695,-0.161527,52,277,589,6240
1644183952.133477,-0.009338,0.007629,-0.989807,0.220855,0.386565,-0.024122,42,275,572,6192
1644183952.18184,-0.010864,0.010193,-0.989807,0.342992,0.218626,0.036947,52,277,582,6256
1644183952.230228,-0.009399,0.007629,-0.991821,0.281924,0.447634,-0.115725,59,273,593,6176
1644183952.278629,-0.009155,0.00885,-0.995972,0.159786,0.401832,-0.024122,49,282,598,6176
1644183952.327028,-0.008545,0.010742,-0.992493,0.342992,0.356031,-0.008855,45,282,582,6176
1644183952.376023,-0.008606,0.007996,-0.992371,0.159786,0.294962,-0.237863,49,275,584,6256
1644183952.42654,-0.010315,0.008484,-0.989563,0.251389,0.417099,-0.14626,39,274,583,6160
1644183952.476809,-0.008667,0.009644,-0.992126,0.251389,0.294962,0.143817,47,275,582,6160
1644183952.521607,-0.010986,0.011169,-0.992798,0.113985,0.401832,-0.069924,49,270,586,6128
1644183952.617359,-0.008972,0.010925,-0.992615,0.205588,0.432366,-0.130992,45,275,584,6176
1644183952.665746,-0.007629,0.008423,-0.991272,0.251389,0.600305,-0.161527,51,283,576,6224
1644183952.714156,-0.008179,0.012756,-0.992371,0.297191,0.432366,-0.176794,47,273,579,6176
1644183952.762551,-0.010803,0.011353,-0.993591,0.129252,0.386565,-0.100458,52,280,577,6224
1644183952.810943,-0.009949,0.009766,-0.99115,0.281924,0.325496,-0.115725,48,279,578,6224
1644183952.859334,-0.008301,0.009583,-0.993591,0.190321,0.218626,-0.085191,40,280,579,6224
1644183952.907774,-0.013062,0.012146,-0.99054,0.297191,0.340763,-0.14626,51,276,573,6224
1644183952.956155,-0.009338,0.011719,-0.991516,0.220855,0.264427,-0.069924,58,291,580,6176
1644183953.004652,-0.011353,0.00824,-0.993042,0.312458,0.478168,-0.130992,58,274,573,6160
1644183953.069453,-0.010193,0.008728,-0.991028,0.281924,0.508702,0.036947,53,271,590,6240
1644183953.103682,-0.012024,0.009888,-0.992554,0.342992,0.462901,-0.008855,49,285,579,6192
1644183953.149733,-0.006714,0.011292,-0.993408,0.312458,0.539237,-0.085191,52,263,582,6240
1644183953.198093,-0.011414,0.008301,-0.992859,0.190321,0.356031,-0.176794,48,274,578,6160
1644183953.246476,-0.006409,0.010315,-0.993225,0.175053,0.417099,0.067481,52,277,589,6128
1644183953.294852,-0.007202,0.011658,-0.991455,0.251389,0.386565,-0.192061,54,277,582,6192
1644183953.343272,-0.008972,0.008911,-0.991272,0.190321,0.386565,0.036947,52,282,575,6256
1644183953.391662,-0.009583,0.008728,-0.99176,0.236122,0.615573,-0.100458,51,283,583,6160
1644183953.440055,-0.008972,0.00824,-0.990601,0.419328,0.371298,-0.115725,45,277,591,6192
1644183953.488437,-0.006348,0.008728,-0.993164,0.266656,0.371298,-0.100458,51,281,569,6192
1644183953.536892,-0.009827,0.009399,-0.990417,0.251389,0.356031,-0.100458,42,282,577,6160
1644183953.587153,-0.009583,0.012939,-0.991516,0.175053,0.371298,-0.192061,40,287,575,6256
1644183953.637851,-0.009583,0.010071,-0.991455,0.098718,0.340763,-0.237863,48,279,573,6176
1644183953.682636,-0.013,0.011658,-0.99353,0.175053,0.386565,-0.085191,47,280,575,6240
1644183953.778802,-0.008362,0.009644,-0.994568,0.266656,0.432366,-0.237863,51,276,573,6224
1644183953.827184,-0.011108,0.009705,-0.992493,0.220855,0.417099,-0.283664,51,274,571,6176
1644183953.875582,-0.009033,0.00946,-0.991455,0.113985,0.356031,-0.207328,54,280,575,6240
1644183953.924021,-0.010559,0.008057,-0.99408,0.281924,0.24916,-0.100458,49,280,579,6240
1644183953.972425,-0.009827,0.009949,-0.991943,0.281924,0.233893,0.036947,48,279,578,6224
1644183954.020809,-0.009521,0.007874,-0.989807,0.144519,0.401832,-0.115725,54,270,593,6256
1644183954.069248,-0.010315,0.009155,-0.991516,0.220855,0.63084,-0.024122,48,264,585,6176
1644183954.117556,-0.007996,0.010681,-0.98999,0.297191,0.539237,-0.222595,49,268,582,6160
1644183954.165948,-0.008728,0.01123,-0.991699,0.098718,0.325496,-0.024122,40,273,589,6160
1644183954.214357,-0.005554,0.009094,-0.990234,0.251389,0.401832,-0.054656,59,282,584,6224
1644183954.26272,-0.007507,0.008545,-0.991455,0.220855,0.432366,-0.176794,42,280,570,6192
1644183954.311129,-0.009338,0.009644,-0.989929,0.190321,0.493435,-0.100458,57,282,584,6224
1644183954.359484,-0.006226,0.009399,-0.991089,0.190321,0.356031,-0.100458,43,271,583,6192
1644183954.407913,-0.008118,0.010071,-0.99231,0.220855,0.462901,0.082748,47,290,577,6160
1644183954.456279,-0.007996,0.006531,-0.99115,0.190321,0.523969,-0.085191,52,277,591,6176
1644183954.504694,-0.008484,0.009094,-0.991089,0.297191,0.294962,-0.100458,49,282,591,6176
1644183954.553109,-0.007874,0.010376,-0.992432,0.281924,0.310229,-0.100458,54,270,586,6176
1644183954.601472,-0.006531,0.008179,-0.989807,0.342992,0.356031,0.006412,55,279,580,6224
1644183954.649921,-0.00531,0.009399,-0.991455,0.220855,0.386565,-0.024122,43,286,592,6224
1644183954.698722,-0.006836,0.013733,-0.991089,-0.02342,0.386565,-0.100458,39,274,578,6128
1644183954.74925,-0.008728,0.00769,-0.991638,0.08345,0.432366,-0.085191,46,276,576,6160
1644183954.799805,-0.009644,0.010132,-0.989502,0.175053,0.401832,-0.161527,52,277,589,6240
1644183954.844811,-0.007568,0.01123,-0.990967,0.327725,0.462901,-0.069924,51,276,576,6224
1644183954.940283,-0.010132,0.008789,-0.992432,0.35826,0.340763,-0.008855,54,275,589,6176
1644183954.98864,-0.007935,0.00946,-0.991638,0.205588,0.401832,-0.100458,43,271,583,6224
1644183955.037034,-0.008179,0.010986,-0.993408,0.113985,0.294962,-0.069924,65,276,585,6192
1644183955.085522,-0.008728,0.012207,-0.99176,0.266656,0.294962,-0.161527,52,282,591,6192
1644183955.133811,-0.006165,0.008728,-0.992188,0.404061,0.585038,-0.192061,49,273,575,6176
1644183955.182214,-0.007812,0.009705,-0.993103,0.251389,0.417099,-0.039389,46,274,587,6112
1644183955.230596,-0.009705,0.009155,-0.991333,0.266656,0.203359,-0.069924,43,279,590,6240
1644183955.27896,-0.010986,0.011108,-0.991821,0.312458,0.417099,-0.268397,48,276,580,6176
1644183955.327361,-0.005493,0.007324,-0.991272,0.052916,0.24916,-0.008855,52,270,572,6192
1644183955.375766,-0.009949,0.010071,-0.989746,0.068183,0.401832,-0.161527,48,283,583,6224
1644183955.42418,-0.011658,0.007263,-0.99231,0.08345,0.340763,-0.176794,52,277,582,6224
1644183955.472581,-0.010803,0.01001,-0.99353,0.251389,0.356031,-0.14626,39,276,583,6240
1644183955.520927,-0.008423,0.008728,-0.992004,0.251389,0.447634,-0.130992,46,269,583,6176
1644183955.569332,-0.006226,0.010193,-0.991577,0.175053,0.401832,-0.14626,51,274,576,6192
1644183955.617697,-0.006165,0.007385,-0.991455,0.281924,0.264427,-0.283664,45,285,584,6160
1644183955.666131,-0.010742,0.007019,-0.989563,0.236122,0.386565,-0.069924,60,279,585,6160
1644183955.714527,-0.011169,0.011353,-0.99176,0.129252,0.401832,-0.069924,47,277,586,6176
1644183955.762931,-0.009094,0.007874,-0.990967,0.327725,0.432366,-0.161527,49,270,577,6192
1644183955.811347,-0.00708,0.008057,-0.990662,0.144519,0.447634,-0.085191,49,273,593,6192
1644183955.861153,-0.009583,0.01001,-0.988831,0.281924,0.279695,-0.115725,57,285,586,6192
1644183955.911343,-0.007629,0.008545,-0.99353,0.175053,0.462901,-0.039389,43,283,585,6112
1644183955.961639,-0.009399,0.009521,-0.991577,0.251389,0.432366,-0.069924,48,281,580,6176
1644183956.067707,-0.012207,0.008301,-0.992126,0.251389,0.478168,-0.161527,48,276,583,6240
1644183956.102849,-0.010376,0.009521,-0.993164,0.175053,0.294962,-0.085191,49,268,572,6192
1644183956.150058,-0.009583,0.012451,-0.991699,0.297191,0.478168,-0.100458,53,276,587,6176
1644183956.198459,-0.009705,0.010803,-0.991516,0.236122,0.462901,-0.039389,47,275,584,6256
1644183956.246815,-0.009399,0.01239,-0.990906,0.190321,0.325496,-0.192061,48,279,576,6240
1644183956.295274,-0.007935,0.006531,-0.991211,0.190321,0.417099,0.052214,51,286,583,6240
1644183956.343619,-0.00824,0.00824,-0.991882,0.251389,0.478168,-0.115725,53,279,592,6160
1644183956.392032,-0.006531,0.011841,-0.993225,0.251389,0.585038,-0.100458,45,270,584,6192
1644183956.440422,-0.008057,0.008301,-0.99176,0.190321,0.539237,-0.115725,39,264,587,6176
1644183956.488804,-0.009216,0.008484,-0.99231,0.251389,0.478168,-0.085191,46,276,578,6176
1644183956.537165,-0.00946,0.009399,-0.992554,0.266656,0.462901,-0.130992,46,276,585,6240
1644183956.585672,-0.007385,0.008057,-0.989624,0.175053,0.569771,-0.085191,49,280,579,6160
1644183956.634488,-0.007019,0.008484,-0.992981,0.266656,0.310229,-0.054656,38,275,575,6224
1644183956.685045,-0.007629,0.009949,-0.990234,0.251389,0.371298,-0.14626,53,271,583,6240
1644183956.735136,-0.008484,0.013245,-0.989563,0.190321,0.401832,-0.085191,58,271,585,6192
1644183956.780233,-0.008301,0.013855,-0.990906,0.220855,0.432366,-0.008855,45,275,582,6224
1644183956.87597,-0.008118,0.008972,-0.991455,0.08345,0.294962,-0.130992,45,275,577,6192
1644183956.924388,-0.008057,0.008301,-0.992004,0.312458,0.523969,-0.14626,40,285,584,6176
1644183956.972778,-0.010864,0.008179,-0.990173,0.175053,0.401832,-0.115725,49,280,579,6224
1644183957.021162,-0.007202,0.00824,-0.989929,0.068183,0.523969,-0.024122,45,280,584,6224
1644183957.069757,-0.007385,0.011047,-0.991516,0.251389,0.264427,-0.054656,43,286,578,6176
1644183957.117916,-0.008789,0.011169,-0.990234,0.205588,0.554504,-0.161527,49,287,575,6224
1644183957.166301,-0.012451,0.01178,-0.990356,0.342992,0.24916,-0.161527,42,277,584,6224
1644183957.214717,-0.009033,0.008728,-0.989502,0.205588,0.371298,0.006412,48,279,583,6240
1644183957.263112,-0.009094,0.011658,-0.989868,0.327725,0.432366,-0.115725,45,275,586,6176
1644183957.311466,-0.008606,0.009338,-0.990662,0.08345,0.432366,-0.054656,54,275,579,6192
1644183957.35988,-0.009216,0.011536,-0.990173,0.129252,0.371298,-0.161527,55,283,578,6192
1644183957.408276,-0.00946,0.007568,-0.993164,0.297191,0.356031,-0.054656,49,282,577,6160
1644183957.456662,-0.009644,0.006653,-0.993042,0.098718,0.356031,-0.115725,54,280,584,6224
1644183957.505243,-0.009888,0.009949,-0.989807,0.129252,0.325496,-0.100458,48,274,592,6224
1644183957.553433,-0.006836,0.008606,-0.992676,0.251389,0.386565,-0.283664,42,282,577,6192
1644183957.601859,-0.008362,0.011658,-0.990784,0.266656,0.325496,-0.207328,43,283,583,6192
1644183957.650251,-0.005554,0.012512,-0.994934,0.175053,0.508702,-0.176794,52,285,589,6160
1644183957.698633,-0.010376,0.013794,-0.991211,0.175053,0.325496,-0.100458,51,279,583,6176
1644183957.747013,-0.005188,0.010254,-0.990295,0.327725,0.386565,-0.115725,47,280,586,6192
1644183957.795771,-0.00647,0.007874,-0.990295,0.327725,0.386565,-0.039389,51,281,580,6160
1644183957.846814,-0.008728,0.010498,-0.990784,0.327725,0.386565,-0.085191,60,279,583,6192
1644183957.897435,-0.007141,0.010925,-0.99231,0.220855,0.310229,-0.14626,42,280,582,6240
1644183957.941861,-0.009216,0.010315,-0.992004,0.144519,0.401832,-0.085191,53,281,580,6160
1644183958.037408,-0.007996,0.009949,-0.992615,0.297191,0.493435,-0.024122,47,270,586,6224
1644183958.085871,-0.008484,0.008362,-0.993835,0.220855,0.417099,0.021679,46,276,580,6224
1644183958.134196,-0.007751,0.006409,-0.989685,0.312458,0.356031,-0.039389,52,275,579,6256
1644183958.182563,-0.006531,0.008301,-0.990784,0.236122,0.371298,-0.192061,45,275,575,6224
1644183958.230945,-0.007629,0.009094,-0.993042,0.220855,0.401832,0.021679,47,282,589,6192
1644183958.279339,-0.006958,0.008667,-0.990906,0.373527,0.417099,-0.008855,52,280,575,6240
1644183958.327741,-0.00769,0.012268,-0.990173,0.251389,0.371298,-0.069924,49,277,586,6256
1644183958.376124,-0.006226,0.009888,-0.992371,0.327725,0.340763,-0.008855,41,269,592,6224
1644183958.424528,-0.007568,0.010132,-0.992676,0.220855,0.493435,-0.054656,59,287,584,6224
1644183958.472931,-0.008667,0.011353,-0.990723,0.312458,0.508702,-0.024122,58,279,587,6176
1644183958.521311,-0.008484,0.011841,-0.992126,0.205588,0.432366,-0.130992,41,274,592,6176
1644183958.569688,-0.006775,0.00946,-0.989441,0.251389,0.432366,0.021679,53,271,587,6224
1644183958.618093,-0.007507,0.010742,-0.991455,0.281924,0.417099,-0.039389,53,276,576,6192
1644183958.666479,-0.008728,0.011719,-0.991455,0.297191,0.340763,-0.161527,55,283,585,6224
1644183958.714878,-0.00885,0.009827,-0.990234,0.129252,0.478168,-0.115725,51,288,580,6224
1644183958.763258,-0.007874,0.011536,-0.992249,0.144519,0.417099,-0.14626,51,276,585,6176
1644183958.811668,-0.007935,0.010315,-0.990601,0.373527,0.310229,-0.024122,42,275,586,6176
1644183958.860103,-0.007446,0.012939,-0.992004,0.144519,0.478168,-0.130992,54,282,582,6176
1644183958.908517,-0.009399,0.008728,-0.992126,0.220855,0.340763,0.113282,54,275,575,6240
1644183958.957928,-0.006042,0.009644,-0.98938,0.205588,0.432366,-0.085191,59,275,579,6192
1644183959.008237,-0.005798,0.01001,-0.990234,0.281924,0.462901,-0.039389,52,287,570,6224
1644183959.08279,-0.010681,0.009094,-0.992737,0.113985,0.417099,-0.115725,48,283,594,6192
1644183959.108577,-0.006836,0.009094,-0.992615,0.205588,0.462901,-0.024122,49,275,589,6160
1644183959.198786,-0.008484,0.011475,-0.993164,0.159786,0.325496,-0.069924,47,277,575,6224
1644183959.247183,-0.010437,0.010559,-0.991638,0.205588,0.356031,0.006412,45,268,575,6256
1644183959.295572,-0.010132,0.012695,-0.990295,0.297191,0.539237,-0.100458,49,280,591,6192
1644183959.343991,-0.010986,0.009705,-0.99176,0.35826,0.462901,-0.085191,49,275,579,6160
1644183959.392463,-0.010132,0.009399,-0.993652,0.404061,0.371298,-0.192061,45,275,568,6256
1644183959.440768,-0.014282,0.006714,-0.993103,0.159786,0.386565,-0.14626,57,273,579,6192
1644183959.489328,-0.008911,0.010193,-0.991577,0.08345,0.386565,-0.14626,46,281,576,6160
1644183959.537586,-0.009277,0.010559,-0.990967,0.281924,0.340763,-0.085191,49,275,584,6224
1644183959.585945,-0.009644,0.01123,-0.990784,0.236122,0.462901,-0.085191,36,274,578,6192
1644183959.634351,-0.006653,0.010864,-0.988281,0.342992,0.325496,-0.069924,53,274,590,6224
1644183959.682756,-0.005188,0.012573,-0.991577,0.129252,0.493435,0.021679,48,286,580,6160
1644183959.731139,-0.010376,0.009399,-0.993652,0.373527,0.478168,-0.039389,43,291,576,6240
1644183959.779528,-0.011047,0.00885,-0.990173,0.190321,0.401832,-0.192061,43,276,580,6192
1644183959.827907,-0.008972,0.007751,-0.991028,0.175053,0.493435,-0.085191,53,276,580,6240
1644183959.876355,-0.008118,0.011047,-0.993774,0.281924,0.401832,-0.085191,47,282,589,6176
1644183959.924757,-0.009705,0.009399,-0.992371,0.175053,0.325496,-0.130992,47,280,584,6176
1644183959.973148,-0.008057,0.00885,-0.993652,0.175053,0.523969,-0.207328,48,274,585,6176
1644183960.021487,-0.00824,0.011169,-0.992981,0.113985,0.340763,0.006412,48,274,592,6160
1644183960.118323,-0.006226,0.007629,-0.991882,0.236122,0.279695,-0.085191,57,282,586,6224
1644183960.166675,-0.009277,0.01001,-0.99115,0.068183,0.432366,-0.192061,43,281,585,6160
1644183960.215287,-0.008545,0.010925,-0.991394,0.220855,0.386565,-0.024122,52,277,572,6160
1644183960.263432,-0.008057,0.011536,-0.992249,0.175053,0.432366,-0.115725,45,277,584,6192
1644183960.311835,-0.009766,0.009521,-0.991699,0.205588,0.386565,-0.176794,49,280,579,6224
1644183960.36024,-0.009338,0.011047,-0.989197,0.220855,0.447634,-0.14626,46,269,576,6128
1644183960.408619,-0.00769,0.010193,-0.991028,0.08345,0.432366,-0.100458,47,275,577,6176
1644183960.457016,-0.006226,0.010498,-0.991638,0.113985,0.432366,0.006412,48,271,573,6224
1644183960.505386,-0.006287,0.011963,-0.991211,0.236122,0.417099,0.036947,54,290,586,6160
1644183960.553852,-0.009277,0.012451,-0.992737,0.312458,0.386565,-0.069924,57,280,575,6160
1644183960.602233,-0.00885,0.010742,-0.993103,0.327725,0.340763,-0.100458,53,279,590,6192
1644183960.650592,-0.006104,0.011047,-0.991028,0.327725,0.462901,-0.069924,45,282,584,6240
1644183960.698993,-0.00769,0.009216,-0.990845,0.08345,0.310229,-0.039389,49,277,579,6256
1644183960.747383,-0.00885,0.010132,-0.994019,0.190321,0.310229,-0.298931,47,282,591,6128
1644183960.795778,-0.007324,0.008667,-0.99115,0.236122,0.462901,-0.115725,51,276,585,6192
1644183960.844171,-0.009644,0.009888,-0.99292,0.113985,0.447634,-0.100458,53,276,580,6240
1644183960.892625,-0.00824,0.011047,-0.991455,0.098718,0.401832,-0.222595,52,290,584,6192
1644183960.940957,-0.010925,0.01001,-0.99353,0.190321,0.432366,-0.069924,51,274,583,6128
1644183960.989391,-0.006287,0.011597,-0.992676,0.236122,0.447634,0.021679,41,281,583,6192
1644183961.038784,-0.007996,0.007874,-0.989136,0.144519,0.294962,-0.176794,45,273,582,6128
1644183961.097675,-0.008545,0.009705,-0.992126,0.297191,0.371298,-0.085191,41,279,585,6160
1644183961.138532,-0.008667,0.01062,-0.990784,0.266656,0.417099,-0.008855,55,281,580,6176
1644183961.183314,-0.009949,0.010315,-0.992065,0.190321,0.325496,-0.085191,53,281,578,6160
1644183961.27968,-0.006836,0.009094,-0.993591,0.190321,0.386565,-0.161527,53,276,578,6224
1644183961.328087,-0.007019,0.010071,-0.99054,0.251389,0.325496,0.006412,51,283,580,6160
1644183961.376469,-0.007385,0.010559,-0.992126,0.297191,0.585038,-0.176794,49,270,582,6176
1644183961.42487,-0.009399,0.009827,-0.989319,0.220855,0.371298,-0.069924,49,277,584,6224
1644183961.473273,-0.007385,0.011414,-0.99469,0.342992,0.340763,0.006412,41,281,583,6224
1644183961.521664,-0.008301,0.010498,-0.993774,0.220855,0.615573,-0.176794,42,277,584,6160
1644183961.57006,-0.009521,0.009094,-0.989014,0.312458,0.386565,0.067481,38,290,582,6224
1644183961.618444,-0.009155,0.010803,-0.992432,0.190321,0.24916,-0.039389,47,275,589,6176
1644183961.666833,-0.008545,0.009583,-0.990723,0.205588,0.417099,-0.039389,51,276,573,6192
1644183961.715269,-0.006165,0.012451,-0.988708,0.297191,0.401832,-0.039389,49,273,582,6224
1644183961.763625,-0.009399,0.01062,-0.991577,0.236122,0.508702,-0.008855,47,285,582,6240
1644183961.812074,-0.010864,0.01062,-0.991089,0.388794,0.401832,-0.115725,54,268,579,6224
1644183961.860463,-0.007141,0.007141,-0.991333,0.068183,0.340763,-0.069924,48,281,578,6176
1644183961.90884,-0.00647,0.009155,-0.991882,0.159786,0.478168,-0.100458,53,276,571,6192
1644183961.957233,-0.009949,0.008667,-0.991699,0.190321,0.478168,-0.36,43,279,583,6224
1644183962.005609,-0.010803,0.009705,-0.991272,0.251389,0.478168,-0.14626,52,282,591,6224
1644183962.102383,-0.008179,0.011963,-0.98999,0.297191,0.462901,-0.039389,59,273,577,6192
1644183962.150748,-0.009399,0.010315,-0.991638,0.220855,0.294962,0.006412,55,288,571,6240
1644183962.199158,-0.007996,0.010742,-0.995117,0.312458,0.493435,-0.039389,65,279,580,6176
1644183962.247572,-0.010559,0.008728,-0.992859,0.220855,0.615573,-0.192061,45,277,577,6176
1644183962.295941,-0.008179,0.010925,-0.990784,0.113985,0.447634,0.067481,52,285,589,6160
1644183962.344345,-0.007812,0.009888,-0.989319,0.266656,0.493435,-0.14626,60,276,585,6192
1644183962.392753,-0.007874,0.00769,-0.991943,0.266656,0.432366,-0.115725,45,268,579,6160
1644183962.441134,-0.007507,0.009583,-0.989624,0.190321,0.386565,-0.039389,48,281,580,6256
1644183962.489555,-0.006714,0.009888,-0.990112,0.449863,0.554504,0.021679,51,281,573,6176
1644183962.537897,-0.012146,0.011475,-0.991028,0.175053,0.478168,-0.192061,43,281,580,6192
1644183962.586305,-0.008606,0.011169,-0.989319,0.297191,0.294962,-0.100458,55,281,585,6224
1644183962.634727,-0.007324,0.010925,-0.992737,0.129252,0.386565,-0.161527,53,283,583,6192
1644183962.683114,-0.009705,0.012085,-0.995056,0.144519,0.386565,-0.039389,57,273,593,6256
1644183962.731494,-0.00885,0.012817,-0.99231,0.220855,0.478168,-0.14626,51,269,580,6240
1644183962.779878,-0.009888,0.009644,-0.990112,0.205588,0.539237,-0.176794,52,285,575,6240
1644183962.82833,-0.00824,0.011963,-0.992737,0.08345,0.279695,0.113282,59,285,584,6192
1644183962.876699,-0.009521,0.009155,-0.990784,0.068183,0.325496,-0.085191,46,271,585,6192
1644183962.925129,-0.008606,0.010498,-0.992554,0.266656,0.432366,-0.085191,43,279,573,6224
1644183962.973494,-0.007996,0.009521,-0.991699,0.236122,0.417099,-0.14626,46,271,590,6160
1644183963.022721,-0.010437,0.007019,-0.992676,0.312458,0.493435,-0.069924,47,270,584,6224
1644183963.083175,-0.007568,0.005981,-0.987305,0.281924,0.401832,-0.14626,55,276,587,6224
1644183963.12358,-0.009766,0.01239,-0.992676,0.175053,0.401832,-0.192061,42,277,584,6128
1644183963.167504,-0.01001,0.010315,-0.991028,0.220855,0.310229,-0.237863,42,275,575,6192
1644183963.263817,-0.010193,0.013123,-0.990051,0.266656,0.172824,-0.176794,41,279,583,6192
1644183963.312389,-0.00885,0.010742,-0.992065,0.236122,0.371298,-0.085191,51,269,583,6240
1644183963.36056,-0.005676,0.010437,-0.991882,0.266656,0.386565,-0.024122,54,280,584,6192
1644183963.408975,-0.009155,0.012512,-0.991272,0.175053,0.478168,-0.008855,52,282,579,6240
1644183963.457378,-0.008423,0.010986,-0.994629,0.327725,0.478168,-0.039389,52,273,586,6256
1644183963.505755,-0.009583,0.007812,-0.993713,0.297191,0.371298,-0.222595,48,271,571,6176
1644183963.554179,-0.008728,0.012085,-0.99231,0.205588,0.417099,-0.054656,55,281,573,6176
1644183963.602571,-0.00885,0.007874,-0.990723,0.113985,0.447634,-0.024122,42,282,575,6192
1644183963.650965,-0.00946,0.009827,-0.993958,0.434595,0.417099,-0.161527,40,287,579,6224
1644183963.699342,-0.006287,0.012207,-0.98999,0.144519,0.310229,-0.054656,43,283,578,6160
1644183963.74772,-0.011353,0.00946,-0.992676,0.205588,0.264427,-0.115725,55,288,583,6240
1644183963.796103,-0.009033,0.013916,-0.991638,0.175053,0.447634,-0.161527,45,285,589,6192
1644183963.844705,-0.008667,0.012146,-0.989929,0.220855,0.371298,-0.054656,49,273,575,6160
1644183963.892953,-0.007141,0.009216,-0.991394,0.312458,0.417099,0.006412,57,280,586,6128
1644183963.941349,-0.009216,0.007507,-0.99115,0.266656,0.432366,-0.115725,45,280,582,6128
1644183963.989743,-0.009277,0.011719,-0.99231,0.098718,0.371298,-0.100458,49,275,579,6224
1644183964.038137,-0.007874,0.012085,-0.989929,0.327725,0.478168,-0.085191,53,279,583,6176
1644183964.086629,-0.007019,0.009644,-0.992615,0.312458,0.325496,0.067481,41,276,585,6224
1644183964.134884,-0.007141,0.011475,-0.991638,0.068183,0.554504,-0.085191,51,279,583,6160
1644183964.18352,-0.007874,0.010925,-0.990417,0.175053,0.401832,-0.161527,39,274,580,6224
1644183964.233973,-0.008545,0.013062,-0.991028,0.297191,0.401832,0.021679,53,288,594,6160
1644183964.284362,-0.009216,0.012878,-0.990845,0.251389,0.447634,-0.161527,52,282,575,6224
1644183964.329298,-0.006287,0.010559,-0.990967,0.373527,0.478168,-0.008855,48,283,578,6224
1644183964.425394,-0.005249,0.008545,-0.991699,0.434595,0.294962,-0.024122,53,271,576,6256
1644183964.473645,-0.009705,0.010559,-0.992249,0.098718,0.233893,0.036947,38,294,589,6176
1644183964.522007,-0.010986,0.00885,-0.993347,0.388794,0.646107,-0.054656,52,273,579,6288
1644183964.570417,-0.007629,0.007507,-0.988892,0.342992,0.478168,-0.024122,52,280,591,6224
1644183964.618808,-0.007385,0.013062,-0.990662,0.205588,0.447634,-0.192061,47,280,579,6160
1644183964.667205,-0.007812,0.010132,-0.989868,0.266656,0.386565,-0.192061,46,286,573,6224
1644183964.715587,-0.007935,0.008179,-0.990479,0.236122,0.264427,-0.130992,42,282,598,6224
1644183964.764002,-0.007324,0.008606,-0.991516,0.327725,0.203359,-0.024122,49,275,582,6240
1644183964.812395,-0.004822,0.009338,-0.991211,0.205588,0.294962,0.036947,48,281,587,6224
1644183964.86078,-0.008667,0.010803,-0.992859,-0.008153,0.356031,-0.100458,53,276,590,6192
1644183964.909201,-0.006836,0.007935,-0.99115,0.281924,0.340763,-0.207328,55,279,590,6240
1644183964.957609,-0.00946,0.009338,-0.990906,0.129252,0.432366,-0.085191,45,285,598,6192
1644183965.005975,-0.008728,0.010315,-0.990662,0.037649,0.447634,-0.039389,58,276,587,6176
1644183965.070791,-0.006653,0.008667,-0.990845,0.236122,0.417099,-0.039389,43,271,569,6128
1644183965.102863,-0.00824,0.008911,-0.995422,0.342992,0.264427,-0.115725,48,274,583,6160
1644183965.151139,-0.00769,0.008667,-0.991089,0.144519,0.462901,0.006412,48,283,592,6160
1644183965.199526,-0.010803,0.012207,-0.988037,0.312458,0.310229,-0.130992,47,280,586,6256
1644183965.247888,-0.008362,0.009338,-0.990967,0.373527,0.401832,-0.176794,48,286,583,6192
1644183965.296305,-0.007812,0.00885,-0.991394,0.297191,0.478168,-0.085191,46,271,587,6224
1644183965.345004,-0.008362,0.010071,-0.990845,0.251389,0.386565,-0.100458,46,281,583,6192
1644183965.395391,-0.008301,0.008606,-0.991455,0.144519,0.432366,-0.130992,43,276,585,6224
1644183965.445654,-0.008423,0.010742,-0.990417,0.129252,0.371298,-0.100458,53,281,587,6224
1644183965.490764,-0.008362,0.009521,-0.992615,0.129252,0.340763,-0.054656,40,277,582,6192
1644183965.58665,-0.007446,0.007935,-0.991577,0.312458,0.325496,-0.100458,45,280,579,6240
1644183965.635097,-0.01062,0.009094,-0.990845,0.129252,0.356031,-0.161527,33,280,579,6176
1644183965.683459,-0.01178,0.011536,-0.993225,0.297191,0.386565,-0.115725,47,275,593,6288
1644183965.731842,-0.011108,0.011169,-0.990417,0.220855,0.356031,-0.054656,47,270,572,6192
1644183965.780237,-0.008789,0.009155,-0.987976,0.159786,0.401832,-0.130992,49,285,591,6128
1644183965.828618,-0.009521,0.009888,-0.991699,0.297191,0.401832,-0.161527,49,270,577,6176
1644183965.877061,-0.007324,0.011414,-0.990295,0.220855,0.386565,0.052214,55,281,578,6176
1644183965.925459,-0.006775,0.008728,-0.993347,0.266656,0.340763,-0.25313,55,274,587,6160
1644183965.973868,-0.010559,0.00824,-0.991821,0.175053,0.432366,-0.085191,51,276,587,6176
1644183966.022256,-0.009521,0.010254,-0.991028,0.281924,0.386565,-0.024122,48,271,576,6160
1644183966.076127,-0.010681,0.008362,-0.991089,0.205588,0.371298,-0.115725,51,276,583,6224
1644183966.118987,-0.005188,0.011719,-0.991333,0.159786,0.493435,-0.085191,46,279,578,6224
1644183966.167387,-0.009155,0.007751,-0.990662,0.342992,0.386565,-0.008855,60,276,590,6240
1644183966.215777,-0.007751,0.011414,-0.989441,0.281924,0.386565,-0.085191,47,275,579,6176
1644183966.264166,-0.009094,0.009277,-0.991821,0.175053,0.340763,0.067481,52,277,577,6224
1644183966.312774,-0.007935,0.007568,-0.992798,0.159786,0.478168,-0.008855,48,271,594,6192
1644183966.363271,-0.007629,0.007874,-0.992065,0.129252,0.493435,-0.008855,48,269,594,6224
1644183966.413604,-0.008301,0.008179,-0.99054,0.175053,0.356031,-0.024122,58,281,580,6160
1644183966.458675,-0.010193,0.011353,-0.989136,0.144519,0.371298,-0.14626,47,273,582,6224
1644183966.55454,-0.009888,0.008545,-0.990906,0.236122,0.417099,-0.130992,47,280,579,6240
1644183966.602937,-0.01001,0.011719,-0.993774,0.022382,0.493435,-0.192061,48,274,578,6192
1644183966.651306,-0.008484,0.009705,-0.98761,0.205588,0.554504,0.021679,55,276,578,6128
1644183966.699683,-0.008728,0.009949,-0.992615,0.113985,0.371298,-0.130992,51,288,592,6224
1644183966.748064,-0.008362,0.008484,-0.991821,0.113985,0.417099,-0.100458,45,275,586,6160
1644183966.796482,-0.009094,0.008789,-0.98938,0.175053,0.432366,-0.176794,45,280,582,6240
1644183966.844887,-0.011536,0.009705,-0.992432,0.144519,0.539237,-0.192061,58,279,587,6240
1644183966.893322,-0.006653,0.009521,-0.991638,0.190321,0.417099,0.021679,34,281,585,6192
1644183966.941707,-0.008972,0.011047,-0.990356,0.342992,0.401832,-0.161527,49,273,582,6256
1644183966.990102,-0.009888,0.011902,-0.992493,0.037649,0.401832,-0.100458,47,277,586,6128
1644183967.038495,-0.007263,0.011292,-0.991272,0.190321,0.325496,-0.008855,49,277,591,6192
1644183967.091252,-0.007202,0.010315,-0.993286,0.236122,0.493435,0.067481,59,277,586,6224
1644183967.135371,-0.007446,0.009399,-0.992065,0.281924,0.371298,-0.130992,47,277,589,6128
1644183967.183677,-0.007019,0.012634,-0.989746,0.129252,0.401832,-0.085191,46,259,590,6160
1644183967.232068,-0.01001,0.011353,-0.990662,0.251389,0.493435,-0.161527,47,282,589,6128
1644183967.280427,-0.01001,0.009705,-0.991882,0.266656,0.447634,-0.039389,48,274,594,6128
