epoch,acc_x,acc_y,acc_z,rot_x,rot_y,rot_z,mag_x,mag_y,mag_z,temp
1644174600.034258,-0.007263,0.007141,-0.99115,0.251389,0.356031,-0.192061,59,282,572,5760
1644174600.082782,-0.010864,0.010498,-0.99176,0.175053,0.523969,-0.222595,60,274,580,5760
1644174600.130995,-0.010803,0.008423,-0.988403,0.068183,0.386565,-0.008855,48,266,573,5696
1644174600.179381,-0.007935,0.011597,-0.99353,0.220855,0.294962,-0.130992,41,279,585,5776
1644174600.227762,-0.008667,0.012634,-0.992004,0.236122,0.340763,-0.008855,48,274,569,5712
1644174600.276168,-0.008484,0.010986,-0.993042,0.281924,0.356031,-0.14626,52,273,575,5664
1644174600.324533,-0.010925,0.009521,-0.99115,0.236122,0.386565,-0.237863,48,274,569,5760
1644174600.372971,-0.007629,0.005737,-0.99292,0.251389,0.462901,-0.283664,45,270,584,5760
1644174600.421346,-0.012268,0.008423,-0.990967,0.205588,0.462901,-0.192061,48,276,585,5760
1644174600.469731,-0.009521,0.008606,-0.991272,0.312458,0.325496,-0.039389,47,275,575,5728
1644174600.518086,-0.010132,0.01062,-0.994202,0.236122,0.447634,-0.085191,48,276,573,5728
1644174600.566507,-0.009888,0.009338,-0.990295,0.236122,0.417099,-0.25313,43,274,573,5712
1644174600.614887,-0.007324,0.009216,-0.991211,0.068183,0.478168,-0.024122,47,263,584,5728
1644174600.663295,-0.010193,0.00824,-0.989441,0.175053,0.401832,-0.161527,47,275,577,5824
1644174600.711678,-0.012695,0.007812,-0.993591,0.08345,0.508702,-0.161527,46,271,573,5712
1644174600.760074,-0.012695,0.005859,-0.991089,0.35826,0.24916,-0.115725,53,271,580,5776
1644174600.808501,-0.010559,0.009277,-0.994934,0.281924,0.478168,-0.14626,53,266,576,5776
1644174600.857951,-0.011597,0.008301,-0.992859,0.175053,0.340763,-0.085191,47,275,570,5776
1644174600.90815,-0.009583,0.008972,-0.99176,0.388794,0.432366,-0.008855,43,276,578,5728
1644174600.95861,-0.008301,0.010681,-0.99176,0.220855,0.417099,0.021679,52,275,572,5728
1644174601.003006,-0.010315,0.010803,-0.991577,0.327725,0.478168,-0.14626,47,280,577,5776
1644174601.099479,-0.009949,0.005615,-0.993835,0.159786,0.340763,-0.069924,48,271,587,5808
1644174601.147161,-0.009521,0.010559,-0.99292,0.373527,0.371298,-0.054656,51,271,578,5760
1644174601.195579,-0.011719,0.007019,-0.99292,0.327725,0.493435,-0.14626,58,271,576,5712
1644174601.243992,-0.006714,0.008057,-0.992432,0.144519,0.294962,-0.192061,46,279,566,5760
1644174601.292399,-0.01123,0.010681,-0.993591,0.373527,0.523969,-0.130992,49,275,575,5760
1644174601.340767,-0.011047,0.011108,-0.992554,0.037649,0.264427,-0.008855,55,279,573,5760
1644174601.389166,-0.010986,0.007751,-0.99353,0.266656,0.447634,-0.054656,47,273,586,5760
1644174601.437557,-0.014404,0.010376,-0.994263,0.159786,0.325496,-0.069924,40,275,579,5728
1644174601.485937,-0.008301,0.009644,-0.991821,0.251389,0.401832,-0.054656,52,280,572,5808
1644174601.534338,-0.009949,0.010803,-0.993958,0.251389,0.294962,-0.085191,47,270,568,5776
1644174601.582731,-0.011841,0.010742,-0.992554,0.312458,0.401832,-0.222595,51,271,578,5728
1644174601.631113,-0.01355,0.009033,-0.992615,0.312458,0.539237,0.006412,49,275,579,5760
1644174601.679522,-0.010132,0.006775,-0.990601,0.144519,0.508702,-0.161527,48,269,583,5776
1644174601.7279,-0.01178,0.009338,-0.993042,0.327725,0.356031,-0.115725,51,279,587,5776
1644174601.776255,-0.008972,0.008118,-0.991577,0.236122,0.432366,-0.024122,45,273,568,5808
1644174601.824724,-0.008057,0.009094,-0.991028,0.175053,0.554504,0.006412,43,279,578,5664
1644174601.873132,-0.009827,0.01123,-0.992371,0.220855,0.447634,-0.176794,49,273,577,5808
1644174601.921755,-0.007141,0.007019,-0.991638,0.419328,0.493435,-0.100458,55,281,580,5728
1644174601.970269,-0.00885,0.009521,-0.989563,0.297191,0.417099,-0.039389,43,283,583,5696
1644174602.020776,-0.008057,0.009155,-0.993042,0.144519,0.356031,-0.100458,59,268,577,5712
1644174602.087345,-0.010437,0.008179,-0.992493,0.312458,0.447634,-0.100458,43,274,580,5728
1644174602.163393,-0.008179,0.007874,-0.989624,0.052916,0.279695,-0.054656,49,280,579,5712
1644174602.211798,-0.011475,0.008179,-0.989258,0.312458,0.554504,-0.192061,51,281,573,5664
1644174602.260174,-0.009827,0.010132,-0.992554,0.129252,0.279695,0.098015,40,275,577,5728
1644174602.308588,-0.01001,0.009033,-0.99176,0.220855,0.417099,0.113282,57,275,570,5696
1644174602.356965,-0.010498,0.010193,-0.992188,0.342992,0.310229,-0.192061,48,274,576,5696
1644174602.405337,-0.009399,0.00708,-0.994751,0.129252,0.310229,0.052214,53,276,571,5728
1644174602.453765,-0.007935,0.008484,-0.98999,0.266656,0.386565,-0.207328,64,275,575,5728
1644174602.502186,-0.010254,0.010498,-0.989075,0.159786,0.310229,0.021679,53,269,578,5664
1644174602.550513,-0.008789,0.009705,-0.992676,0.175053,0.447634,-0.008855,41,276,585,5760
1644174602.598938,-0.01178,0.009583,-0.990417,0.144519,0.493435,-0.054656,47,270,575,5760
1644174602.647317,-0.011902,0.007263,-0.993652,0.373527,0.310229,-0.069924,53,274,576,5840
1644174602.695718,-0.009216,0.009155,-0.994141,0.281924,0.310229,-0.222595,49,277,577,5760
1644174602.744107,-0.00824,0.005249,-0.989685,0.190321,0.325496,-0.344733,40,275,577,5712
1644174602.792523,-0.010498,0.007751,-0.994263,0.098718,0.417099,0.006412,53,274,583,5712
1644174602.840904,-0.00769,0.010132,-0.992737,0.220855,0.386565,-0.25313,51,281,578,5712
1644174602.889291,-0.01123,0.009216,-0.992676,0.281924,0.24916,-0.024122,49,270,572,5760
1644174602.937702,-0.008911,0.006409,-0.99054,0.159786,0.325496,-0.069924,52,282,575,5712
1644174602.986159,-0.011475,0.01178,-0.992676,0.312458,0.432366,-0.14626,48,276,583,5776
1644174603.034492,-0.007812,0.007141,-0.99176,0.175053,0.432366,-0.14626,51,276,576,5664
1644174603.09052,-0.007568,0.009277,-0.993225,0.220855,0.356031,-0.237863,58,271,585,5760
1644174603.134393,-0.010315,0.009216,-0.995544,0.281924,0.371298,-0.024122,46,279,578,5712
1644174603.183365,-0.007568,0.010742,-0.993103,0.205588,0.493435,-0.161527,47,275,575,5776
1644174603.228385,-0.009705,0.006836,-0.992859,0.205588,0.386565,-0.130992,53,276,573,5808
1644174603.324883,-0.009155,0.006775,-0.991638,0.159786,0.478168,-0.130992,57,280,570,5696
1644174603.373196,-0.012329,0.01123,-0.993225,0.266656,0.24916,-0.100458,43,288,573,5696
1644174603.421571,-0.010132,0.009583,-0.99292,0.159786,0.462901,-0.085191,49,273,565,5728
1644174603.469931,-0.011047,0.010986,-0.99231,0.159786,0.325496,-0.161527,54,277,579,5696
1644174603.518346,-0.010437,0.010376,-0.992981,0.159786,0.401832,-0.100458,59,275,584,5776
1644174603.566734,-0.009644,0.007751,-0.992859,0.205588,0.325496,-0.039389,53,271,578,5712
1644174603.615162,-0.011536,0.011475,-0.99292,0.220855,0.615573,-0.130992,46,271,573,5664
1644174603.663513,-0.010498,0.010559,-0.990723,0.342992,0.340763,0.021679,47,277,577,5728
1644174603.711925,-0.008118,0.010376,-0.990601,0.220855,0.340763,0.052214,51,271,566,5760
1644174603.760317,-0.010681,0.011108,-0.993713,0.068183,0.218626,-0.069924,53,291,571,5776
1644174603.808706,-0.010315,0.010132,-0.993103,0.159786,0.523969,-0.237863,51,276,569,5840
1644174603.857138,-0.008118,0.009216,-0.990784,0.08345,0.371298,-0.069924,54,287,579,5824
1644174603.905522,-0.011475,0.009338,-0.990356,0.266656,0.24916,-0.085191,54,285,584,5760
1644174603.953922,-0.008179,0.009399,-0.992493,0.266656,0.340763,-0.176794,47,275,570,5776
1644174604.002273,-0.011719,0.005676,-0.992798,0.129252,0.493435,-0.085191,47,275,579,5712
1644174604.071766,-0.011169,0.006836,-0.992859,0.236122,0.523969,-0.176794,49,275,584,5712
1644174604.102409,-0.011108,0.011658,-0.992859,0.220855,0.508702,-0.14626,49,277,579,5776
1644174604.147437,-0.011292,0.010254,-0.993408,0.342992,0.188092,-0.176794,54,275,582,5808
1644174604.196049,-0.008179,0.007446,-0.990234,0.297191,0.386565,-0.161527,54,268,589,5712
1644174604.245698,-0.011597,0.012573,-0.993103,0.281924,0.447634,0.052214,45,265,572,5760
1644174604.296191,-0.011414,0.009949,-0.990723,0.205588,0.371298,0.021679,45,277,570,5712
1644174604.346112,-0.010559,0.007446,-0.993591,0.236122,0.539237,-0.069924,53,279,573,5776
1644174604.437799,-0.010742,0.005859,-0.990662,0.266656,0.508702,0.036947,45,275,572,5760
1644174604.486147,-0.01062,0.008423,-0.992554,0.159786,0.310229,0.006412,57,277,586,5760
1644174604.534792,-0.01001,0.008911,-0.991211,0.190321,0.447634,-0.024122,52,275,579,5808
1644174604.582966,-0.010498,0.008545,-0.992188,0.342992,0.462901,-0.115725,43,271,576,5712
1644174604.631334,-0.009644,0.008423,-0.99115,0.190321,0.63084,-0.069924,45,270,575,5696
1644174604.67973,-0.007751,0.009033,-0.993225,0.175053,0.478168,-0.161527,48,269,571,5760
1644174604.728125,-0.012329,0.008362,-0.99408,0.342992,0.356031,-0.176794,55,286,580,5776
1644174604.776515,-0.01062,0.011292,-0.993103,0.098718,0.233893,-0.192061,53,283,576,5696
1644174604.824905,-0.011108,0.009766,-0.991516,0.297191,0.493435,-0.130992,51,279,573,5760
1644174604.873344,-0.010437,0.010315,-0.990723,0.266656,0.401832,-0.207328,57,280,579,5760
1644174604.921716,-0.011841,0.012451,-0.993835,0.190321,0.340763,-0.085191,64,273,579,5728
1644174604.970111,-0.012268,0.009888,-0.99054,0.404061,0.523969,-0.039389,54,265,579,5760
1644174605.01852,-0.011597,0.006714,-0.991089,0.205588,0.432366,-0.130992,53,274,573,5696
1644174605.072045,-0.012939,0.00708,-0.994263,0.129252,0.462901,-0.085191,59,275,577,5776
1644174605.115364,-0.013367,0.00708,-0.991028,0.297191,0.203359,-0.130992,51,274,585,5760
1644174605.163654,-0.011292,0.009277,-0.993774,0.281924,0.371298,-0.039389,52,277,577,5776
1644174605.212041,-0.010864,0.00769,-0.995728,0.327725,0.462901,-0.054656,54,277,598,5728
1644174605.260422,-0.013733,0.009705,-0.9953,0.281924,0.279695,-0.024122,47,277,582,5760
1644174605.309089,-0.010193,0.010498,-0.991272,0.312458,0.294962,-0.054656,47,277,575,5760
1644174605.358449,-0.010986,0.009094,-0.993042,0.266656,0.325496,-0.176794,46,274,571,5760
1644174605.408701,-0.008911,0.006226,-0.992676,0.190321,0.371298,-0.085191,49,275,575,5760
1644174605.45905,-0.00824,0.008789,-0.991882,0.129252,0.432366,-0.192061,55,271,580,5728
1644174605.550756,-0.01062,0.008301,-0.990356,0.251389,0.371298,-0.054656,48,269,578,5808
1644174605.599158,-0.012024,0.010254,-0.991577,0.220855,0.432366,-0.14626,47,268,579,5760
1644174605.647553,-0.00885,0.007629,-0.990356,0.098718,0.462901,-0.130992,53,286,580,5728
1644174605.695942,-0.010681,0.006531,-0.99469,0.129252,0.539237,-0.207328,46,264,576,5696
1644174605.744342,-0.008911,0.009827,-0.994751,0.281924,0.401832,-0.14626,58,276,580,5760
1644174605.792751,-0.008484,0.008728,-0.993958,0.190321,0.493435,-0.039389,48,274,571,5696
1644174605.841124,-0.010864,0.007324,-0.994324,0.205588,0.432366,-0.039389,52,270,565,5728
1644174605.889546,-0.01001,0.010803,-0.989563,0.281924,0.310229,0.021679,52,277,568,5760
1644174605.937934,-0.010315,0.009583,-0.991577,0.236122,0.462901,-0.054656,51,276,571,5728
1644174605.986304,-0.011536,0.010803,-0.991455,0.342992,0.417099,-0.314198,41,276,576,5696
1644174606.034753,-0.01123,0.008301,-0.993103,0.266656,0.585038,-0.161527,46,274,592,5776
1644174606.091508,-0.012512,0.008301,-0.992249,0.098718,0.371298,-0.054656,57,282,584,5776
1644174606.131487,-0.012085,0.006653,-0.993774,0.35826,0.478168,-0.268397,46,271,594,5712
1644174606.179835,-0.009277,0.008118,-0.991089,0.205588,0.371298,-0.085191,48,283,583,5760
1644174606.228222,-0.011414,0.013184,-0.990967,0.205588,0.386565,-0.192061,40,275,582,5808
1644174606.27662,-0.011841,0.009888,-0.993591,0.281924,0.264427,-0.069924,59,275,575,5712
1644174606.325389,-0.00946,0.010498,-0.989624,0.373527,0.569771,-0.14626,42,275,570,5712
1644174606.374386,-0.006104,0.007812,-0.991943,0.281924,0.371298,-0.130992,53,271,585,5712
1644174606.424907,-0.013245,0.008606,-0.98999,0.220855,0.523969,-0.14626,47,270,584,5728
1644174606.475072,-0.007996,0.008484,-0.992554,0.175053,0.432366,0.006412,59,282,582,5760
1644174606.567013,-0.011353,0.008301,-0.991333,0.098718,0.401832,-0.130992,54,268,575,5776
1644174606.615394,-0.014526,0.007324,-0.993347,0.190321,0.478168,-0.14626,49,273,575,5776
1644174606.663768,-0.010193,0.007751,-0.99054,0.327725,0.401832,-0.14626,42,275,575,5728
1644174606.71238,-0.00769,0.009644,-0.991333,0.297191,0.478168,0.082748,39,271,583,5712
1644174606.760529,-0.01062,0.009155,-0.991394,0.144519,0.508702,-0.161527,47,275,572,5728
1644174606.808949,-0.009216,0.00885,-0.991272,0.08345,0.417099,-0.008855,48,269,571,5776
1644174606.857324,-0.008789,0.007324,-0.99115,0.266656,0.493435,-0.008855,55,276,569,5776
1644174606.905743,-0.007935,0.011597,-0.992432,0.08345,0.478168,-0.100458,54,282,570,5776
1644174606.95415,-0.007202,0.009766,-0.991943,0.388794,0.417099,-0.207328,62,276,580,5664
1644174607.002559,-0.01178,0.00885,-0.993408,0.220855,0.493435,0.006412,42,280,570,5760
1644174607.06332,-0.006287,0.008301,-0.992065,0.190321,0.310229,-0.130992,54,275,589,5776
1644174607.099247,-0.009583,0.007874,-0.99231,0.220855,0.554504,0.082748,49,273,584,5712
1644174607.147654,-0.008362,0.009033,-0.991394,0.35826,0.264427,-0.176794,58,276,576,5776
1644174607.196061,-0.009216,0.009888,-0.993408,0.159786,0.356031,-0.130992,41,293,571,5776
1644174607.244458,-0.011475,0.013,-0.990234,0.144519,0.493435,-0.176794,48,281,580,5696
1644174607.292865,-0.010803,0.010437,-0.993774,0.159786,0.340763,-0.192061,49,287,579,5760
1644174607.341234,-0.01123,0.009583,-0.989136,0.281924,0.432366,-0.237863,52,282,570,5824
1644174607.389919,-0.008972,0.011108,-0.991943,0.281924,0.294962,-0.024122,45,260,577,5696
1644174607.437988,-0.007507,0.008606,-0.992249,0.220855,0.417099,-0.161527,55,269,578,5760
1644174607.487646,-0.010559,0.008545,-0.993958,0.266656,0.310229,-0.054656,46,269,576,5760
1644174607.537501,-0.009766,0.009399,-0.995239,0.037649,0.356031,-0.115725,59,280,591,5760
1644174607.587584,-0.01062,0.010742,-0.993164,0.373527,0.401832,-0.024122,53,279,576,5776
1644174607.632606,-0.008545,0.010437,-0.992432,0.373527,0.417099,-0.024122,51,269,580,5760
1644174607.728355,-0.011169,0.009521,-0.990784,0.220855,0.478168,-0.039389,53,279,566,5664
1644174607.776733,-0.013611,0.006958,-0.990417,0.205588,0.310229,0.036947,46,274,569,5840
1644174607.825234,-0.00885,0.008606,-0.994263,0.144519,0.478168,-0.130992,45,277,572,5760
1644174607.87357,-0.009155,0.009338,-0.992981,0.297191,0.401832,-0.054656,45,275,572,5728
1644174607.921968,-0.010925,0.008972,-0.990906,0.205588,0.325496,-0.039389,51,274,583,5776
1644174607.970361,-0.006958,0.009888,-0.993042,0.144519,0.447634,-0.039389,59,275,565,5696
1644174608.018764,-0.009399,0.008789,-0.991516,0.327725,0.340763,-0.268397,52,280,579,5696
1644174608.075611,-0.010254,0.006775,-0.991333,0.236122,0.233893,-0.115725,60,276,583,5776
1644174608.115484,-0.010498,0.005188,-0.992493,0.266656,0.417099,0.036947,54,285,579,5760
1644174608.163865,-0.010925,0.01001,-0.991821,0.129252,0.432366,-0.054656,39,271,573,5776
1644174608.212282,-0.013489,0.008484,-0.99231,0.35826,0.310229,-0.039389,43,274,576,5808
1644174608.260669,-0.00885,0.009766,-0.994873,0.297191,0.478168,-0.054656,53,262,594,5712
1644174608.30906,-0.00946,0.008728,-0.99353,0.220855,0.462901,-0.100458,46,271,569,5776
1644174608.357446,-0.01001,0.00824,-0.991821,0.113985,0.401832,-0.192061,57,275,575,5760
1644174608.40584,-0.012085,0.010376,-0.990967,0.007115,0.447634,0.021679,47,277,584,5728
1644174608.454229,-0.012451,0.012695,-0.992554,0.205588,0.462901,-0.130992,52,263,584,5824
1644174608.502596,-0.010803,0.009766,-0.99353,0.190321,0.462901,-0.085191,46,279,580,5728
1644174608.551007,-0.008362,0.009766,-0.99115,0.037649,0.356031,-0.14626,51,279,576,5696
1644174608.599402,-0.010376,0.011536,-0.992798,0.251389,0.417099,0.006412,46,271,569,5712
1644174608.647975,-0.006592,0.008972,-0.990906,0.205588,0.340763,0.021679,45,268,575,5808
1644174608.69838,-0.011292,0.008545,-0.993408,0.190321,0.447634,-0.115725,58,281,569,5760
1644174608.748517,-0.010437,0.009521,-0.990723,0.251389,0.447634,-0.115725,47,275,575,5760
1644174608.793593,-0.008545,0.010925,-0.991211,0.35826,0.401832,-0.176794,51,281,576,5728
1644174608.889774,-0.011963,0.008911,-0.992676,0.113985,0.523969,-0.14626,46,276,578,5728
1644174608.93817,-0.010864,0.010132,-0.992493,0.205588,0.493435,-0.237863,52,270,570,5760
1644174608.986569,-0.011414,0.008667,-0.992249,0.404061,0.356031,-0.069924,41,274,583,5760
1644174609.035012,-0.009888,0.006042,-0.9953,0.251389,0.386565,0.052214,53,274,569,5712
1644174609.083545,-0.011108,0.011841,-0.990112,0.342992,0.493435,-0.039389,49,270,575,5760
1644174609.131718,-0.010254,0.010071,-0.995728,0.35826,0.432366,-0.207328,59,280,579,5712
1644174609.180072,-0.012451,0.01001,-0.993774,0.159786,0.508702,-0.085191,54,270,577,5760
1644174609.228491,-0.010193,0.008423,-0.994202,0.236122,0.172824,-0.069924,46,281,583,5760
1644174609.276883,-0.011658,0.00946,-0.990906,0.205588,0.493435,-0.14626,55,288,578,5696
1644174609.325285,-0.010254,0.010376,-0.993591,0.175053,0.356031,0.036947,46,276,578,5760
1644174609.373668,-0.00946,0.009033,-0.99115,0.175053,0.508702,-0.008855,54,273,577,5872
1644174609.422064,-0.009338,0.010925,-0.990967,0.129252,0.356031,-0.192061,49,277,577,5824
1644174609.470441,-0.013489,0.006958,-0.994324,0.342992,0.340763,-0.115725,46,269,578,5728
1644174609.518842,-0.007263,0.007019,-0.990784,0.098718,0.371298,-0.161527,54,275,575,5760
1644174609.567223,-0.011902,0.00708,-0.990967,0.434595,0.447634,-0.008855,52,268,582,5776
1644174609.615619,-0.010071,0.005432,-0.993408,0.220855,0.523969,0.082748,51,262,580,5728
1644174609.664008,-0.006836,0.008423,-0.992859,0.129252,0.24916,-0.130992,51,288,580,5808
1644174609.712408,-0.008545,0.01062,-0.991211,0.098718,0.371298,-0.039389,41,281,578,5696
1644174609.760794,-0.008362,0.009094,-0.995178,0.266656,0.340763,-0.176794,54,270,579,5808
1644174609.810356,-0.012878,0.012024,-0.989502,0.312458,0.523969,-0.115725,52,275,572,5808
1644174609.86104,-0.011597,0.007935,-0.990479,0.297191,0.417099,0.021679,59,275,579,5712
1644174609.911278,-0.011414,0.00946,-0.993652,0.297191,0.462901,-0.14626,46,274,576,5712
1644174609.955986,-0.011719,0.009216,-0.989075,0.35826,0.508702,-0.024122,54,280,575,5808
1644174610.063318,-0.010925,0.00824,-0.995422,0.129252,0.386565,-0.130992,48,279,580,5712
1644174610.103309,-0.008118,0.01123,-0.994324,0.129252,0.417099,-0.008855,45,273,579,5760
1644174610.147913,-0.01123,0.010437,-0.994385,0.404061,0.462901,0.006412,52,280,577,5728
1644174610.196281,-0.010376,0.007812,-0.994141,0.251389,0.401832,-0.069924,41,271,580,5776
1644174610.244712,-0.010376,0.009277,-0.996338,0.159786,0.325496,-0.008855,49,260,579,5760
1644174610.293066,-0.01001,0.010681,-0.989929,0.113985,0.539237,-0.192061,40,275,572,5728
1644174610.341477,-0.010376,0.00946,-0.992676,0.022382,0.401832,-0.176794,48,269,573,5808
1644174610.389848,-0.009155,0.008301,-0.992371,0.236122,0.386565,-0.039389,54,277,575,5760
1644174610.438271,-0.012756,0.01062,-0.993958,0.068183,0.447634,-0.008855,55,262,580,5712
1644174610.486646,-0.008057,0.006653,-0.992737,0.175053,0.401832,-0.008855,49,273,577,5776
1644174610.535087,-0.008667,0.012146,-0.99115,0.205588,0.432366,-0.14626,55,266,580,5824
1644174610.583427,-0.011475,0.009521,-0.992065,0.342992,0.386565,-0.008855,54,270,577,5696
1644174610.631839,-0.007019,0.007568,-0.995178,0.342992,0.401832,-0.161527,47,277,579,5728
1644174610.680458,-0.010132,0.010681,-0.989624,0.144519,0.386565,-0.207328,47,270,577,5728
1644174610.731102,-0.010559,0.008728,-0.992615,0.251389,0.432366,-0.14626,52,265,582,5776
1644174610.781195,-0.009766,0.006104,-0.995483,0.327725,0.539237,-0.176794,47,280,579,5664
1644174610.826973,-0.011108,0.009705,-0.99231,0.068183,0.478168,-0.100458,52,280,568,5808
1644174610.922451,-0.008545,0.007202,-0.991821,0.052916,0.371298,0.036947,46,266,576,5776
1644174610.970591,-0.011169,0.011719,-0.989868,0.236122,0.462901,-0.085191,59,277,568,5760
1644174611.018959,-0.01062,0.008545,-0.993347,0.205588,0.462901,0.052214,51,279,578,5776
1644174611.069745,-0.010193,0.008484,-0.993225,0.08345,0.478168,-0.329466,52,273,568,5776
1644174611.115711,-0.013977,0.009277,-0.994324,0.159786,0.386565,-0.054656,53,279,573,5808
1644174611.164123,-0.009705,0.00946,-0.992981,0.220855,0.432366,-0.115725,53,276,580,5712
1644174611.212531,-0.008911,0.011169,-0.99292,0.205588,0.325496,-0.176794,51,269,578,5728
1644174611.260899,-0.009583,0.009644,-0.991089,0.220855,0.401832,0.067481,55,276,576,5776
1644174611.30928,-0.008789,0.008789,-0.989807,0.113985,0.24916,-0.176794,40,277,584,5728
1644174611.357684,-0.010803,0.010315,-0.993408,0.281924,0.462901,-0.115725,46,279,578,5776
1644174611.406077,-0.010071,0.01001,-0.989685,0.327725,0.371298,-0.085191,43,276,583,5760
1644174611.45449,-0.010254,0.009888,-0.992432,0.144519,0.371298,-0.161527,57,270,579,5760
1644174611.502877,-0.010071,0.007996,-0.991638,0.113985,0.371298,-0.115725,47,282,572,5728
1644174611.551265,-0.008545,0.007141,-0.994324,0.022382,0.356031,-0.161527,49,268,577,5760
1644174611.599652,-0.008606,0.010254,-0.993958,0.159786,0.203359,-0.130992,60,279,580,5760
1644174611.648007,-0.013855,0.007751,-0.991455,0.327725,0.279695,-0.085191,58,271,578,5696
1644174611.696427,-0.010986,0.009155,-0.992004,0.281924,0.508702,-0.130992,54,273,575,5760
1644174611.744829,-0.008667,0.011658,-0.990662,0.190321,0.447634,-0.100458,48,279,576,5760
1644174611.793206,-0.010254,0.007324,-0.992371,0.281924,0.340763,-0.192061,54,275,575,5760
1644174611.841865,-0.009949,0.009521,-0.989929,0.098718,0.340763,-0.222595,46,274,569,5808
1644174611.893219,-0.009338,0.011047,-0.991333,0.281924,0.325496,0.098015,40,287,568,5808
1644174611.944216,-0.008667,0.006042,-0.992615,0.251389,0.462901,-0.207328,60,288,571,5760
1644174611.988274,-0.013916,0.008667,-0.991272,0.144519,0.417099,-0.192061,49,273,582,5808
1644174612.083668,-0.011536,0.007812,-0.991943,0.236122,0.371298,-0.25313,54,273,586,5760
1644174612.131942,-0.01178,0.011475,-0.992798,0.098718,0.340763,-0.176794,52,268,570,5808
1644174612.180326,-0.00708,0.009583,-0.991272,0.205588,0.264427,0.036947,49,290,575,5712
1644174612.228708,-0.010559,0.007141,-0.990173,0.35826,0.417099,-0.069924,58,264,573,5808
1644174612.277077,-0.012268,0.007385,-0.993408,0.190321,0.356031,-0.100458,52,282,572,5760
1644174612.325497,-0.010315,0.00647,-0.996338,0.251389,0.539237,-0.054656,49,280,575,5728
1644174612.373902,-0.010498,0.011169,-0.991638,0.144519,0.401832,-0.100458,49,275,572,5760
1644174612.422302,-0.008606,0.009399,-0.991272,0.144519,0.462901,-0.024122,48,274,580,5760
1644174612.470682,-0.007751,0.009094,-0.993286,0.144519,0.386565,-0.237863,46,264,576,5664
1644174612.519071,-0.009338,0.006226,-0.992981,0.129252,0.493435,-0.207328,45,280,577,5712
1644174612.567456,-0.01062,0.008179,-0.992188,0.297191,0.478168,0.006412,47,268,563,5728
1644174612.615846,-0.009949,0.007996,-0.991333,0.251389,0.401832,-0.024122,48,279,566,5776
1644174612.664253,-0.009888,0.009399,-0.99231,0.404061,0.279695,-0.054656,51,271,578,5760
1644174612.712639,-0.010498,0.008911,-0.992432,0.281924,0.371298,-0.069924,53,276,569,5760
1644174612.760992,-0.011169,0.008362,-0.994446,0.052916,0.417099,-0.207328,58,276,576,5696
1644174612.809414,-0.008911,0.007324,-0.994202,0.159786,0.508702,-0.039389,52,270,575,5808
1644174612.857842,-0.013733,0.00824,-0.992432,0.175053,0.447634,-0.14626,57,277,572,5776
1644174612.906223,-0.012085,0.007629,-0.99408,0.08345,0.417099,-0.008855,53,274,573,5776
1644174612.954662,-0.010254,0.011169,-0.991089,0.297191,0.340763,-0.085191,53,281,578,5728
1644174613.004369,-0.012756,0.01001,-0.991455,0.251389,0.432366,-0.130992,51,266,576,5760
1644174613.071028,-0.008972,0.011658,-0.990723,0.190321,0.325496,-0.237863,55,276,580,5728
1644174613.111222,-0.009277,0.010986,-0.992615,0.220855,0.325496,-0.192061,40,277,577,5760
1644174613.149223,-0.013794,0.008301,-0.991028,0.190321,0.325496,-0.085191,49,270,572,5776
1644174613.244931,-0.00946,0.008179,-0.993469,0.190321,0.356031,0.052214,53,269,578,5728
1644174613.293317,-0.009216,0.009399,-0.993225,0.205588,0.325496,-0.115725,45,275,575,5824
1644174613.341707,-0.011108,0.008118,-0.99176,0.190321,0.371298,-0.130992,47,280,572,5728
1644174613.390097,-0.009155,0.007874,-0.99292,0.281924,0.417099,0.036947,57,275,582,5712
1644174613.438494,-0.01239,0.009338,-0.992554,0.098718,0.203359,-0.054656,49,285,575,5712
1644174613.48688,-0.010376,0.009827,-0.990479,0.220855,0.432366,-0.130992,51,276,580,5696
1644174613.535318,-0.009583,0.009705,-0.991211,0.236122,0.417099,-0.024122,51,276,583,5760
1644174613.583675,-0.009583,0.00824,-0.991821,0.129252,0.417099,0.006412,45,273,577,5712
1644174613.632061,-0.010925,0.010437,-0.991516,0.205588,0.493435,-0.069924,48,279,580,5712
1644174613.680453,-0.009644,0.009094,-0.995178,0.327725,0.432366,0.067481,48,271,573,5760
1644174613.728842,-0.009705,0.011047,-0.994629,0.312458,0.310229,-0.008855,49,270,575,5760
1644174613.777224,-0.011353,0.010254,-0.992126,0.327725,0.432366,-0.176794,51,279,571,5728
1644174613.825617,-0.00885,0.009827,-0.989929,0.175053,0.478168,-0.14626,49,277,575,5760
1644174613.874059,-0.012085,0.008484,-0.991394,0.312458,0.417099,-0.176794,55,266,583,5808
1644174613.922454,-0.012695,0.010742,-0.991943,0.251389,0.203359,-0.222595,41,279,583,5728
1644174613.970877,-0.011902,0.010315,-0.995239,0.144519,0.279695,-0.100458,59,277,575,5712
1644174614.019224,-0.007996,0.008057,-0.990601,0.220855,0.539237,0.159084,47,275,584,5808
1644174614.090999,-0.008179,0.009155,-0.994324,0.312458,0.493435,-0.039389,52,275,577,5760
1644174614.12152,-0.009521,0.008118,-0.992065,0.236122,0.417099,-0.085191,52,273,568,5760
1644174614.166787,-0.010254,0.008972,-0.992065,0.251389,0.447634,-0.100458,51,283,571,5728
1644174614.261129,-0.010803,0.006897,-0.993591,0.312458,0.401832,-0.085191,51,274,573,5760
1644174614.309534,-0.008911,0.008911,-0.98999,0.236122,0.340763,-0.161527,43,283,573,5808
1644174614.357922,-0.010803,0.007263,-0.990845,0.236122,0.264427,-0.192061,42,275,586,5712
1644174614.406303,-0.009949,0.008057,-0.994263,0.266656,0.554504,-0.130992,53,279,573,5728
1644174614.45471,-0.012146,0.010315,-0.992798,0.266656,0.371298,-0.054656,57,273,572,5808
1644174614.503079,-0.012085,0.010498,-0.992615,0.281924,0.432366,-0.100458,59,277,568,5760
1644174614.551485,-0.011963,0.00647,-0.994751,0.220855,0.447634,-0.14626,51,266,580,5808
1644174614.599881,-0.009705,0.008423,-0.993408,0.236122,0.417099,0.052214,52,260,584,5840
1644174614.648254,-0.010315,0.006836,-0.993103,0.327725,0.294962,0.006412,49,270,579,5776
1644174614.696659,-0.008667,0.009338,-0.994995,0.159786,0.294962,0.036947,46,276,583,5808
1644174614.745139,-0.012146,0.010071,-0.994263,0.251389,0.356031,-0.054656,52,273,584,5776
1644174614.793464,-0.011169,0.01001,-0.989746,0.373527,0.356031,0.021679,51,274,573,5664
1644174614.841835,-0.014587,0.009644,-0.990417,0.175053,0.401832,-0.176794,54,273,584,5808
1644174614.890257,-0.009216,0.008484,-0.992859,0.220855,0.417099,-0.176794,53,276,578,5760
1644174614.938651,-0.008362,0.012573,-0.991821,0.281924,0.371298,0.052214,51,276,576,5696
1644174614.987047,-0.013916,0.008606,-0.994507,0.297191,0.325496,-0.054656,55,274,573,5760
1644174615.035448,-0.012573,0.007385,-0.992615,0.327725,0.279695,-0.100458,53,274,583,5728
1644174615.09541,-0.009888,0.010925,-0.991882,0.08345,0.310229,-0.054656,53,276,580,5728
1644174615.132235,-0.009644,0.007507,-0.993042,0.159786,0.600305,-0.115725,47,275,575,5760
1644174615.182234,-0.009705,0.009644,-0.992371,0.297191,0.508702,0.036947,57,275,575,5808
1644174615.232256,-0.013,0.009583,-0.996826,0.205588,0.294962,0.021679,61,273,582,5728
1644174615.282616,-0.009155,0.008118,-0.993469,0.175053,0.386565,-0.161527,53,269,590,5776
1644174615.32746,-0.010254,0.010498,-0.992371,0.342992,0.340763,-0.115725,53,279,583,5696
1644174615.42255,-0.008972,0.009521,-0.992126,0.297191,0.386565,-0.192061,49,275,579,5664
1644174615.470961,-0.01123,0.010132,-0.99292,0.297191,0.279695,-0.115725,48,279,580,5760
1644174615.519344,-0.010742,0.009888,-0.992493,0.236122,0.447634,-0.115725,36,283,564,5648
1644174615.568269,-0.009644,0.01178,-0.989441,0.098718,0.264427,-0.161527,54,268,572,5696
1644174615.616114,-0.009094,0.008362,-0.991272,0.281924,0.401832,-0.039389,47,270,570,5696
1644174615.664513,-0.009766,0.009766,-0.991394,0.35826,0.386565,-0.039389,55,271,578,5712
1644174615.712919,-0.009644,0.007751,-0.990601,0.190321,0.432366,-0.115725,41,283,578,5760
1644174615.761302,-0.009949,0.004089,-0.991394,0.236122,0.554504,-0.008855,51,279,583,5696
1644174615.809673,-0.010071,0.007996,-0.993347,0.251389,0.356031,-0.024122,48,279,583,5824
1644174615.858077,-0.00769,0.009338,-0.991394,0.190321,0.401832,-0.130992,43,274,578,5760
1644174615.906475,-0.006836,0.012512,-0.99231,0.205588,0.478168,-0.130992,52,270,572,5776
1644174615.954881,-0.008118,0.009521,-0.992249,0.113985,0.386565,0.098015,52,275,579,5776
1644174616.003269,-0.011597,0.010315,-0.994995,0.022382,0.569771,-0.161527,53,279,583,5776
1644174616.070014,-0.00946,0.010681,-0.990845,0.251389,0.371298,0.021679,45,268,579,5808
1644174616.102276,-0.008179,0.006348,-0.994263,0.251389,0.356031,-0.130992,39,279,585,5760
1644174616.148373,-0.010315,0.010681,-0.992798,0.266656,0.371298,-0.008855,61,282,589,5840
1644174616.196769,-0.009399,0.007996,-0.991211,0.251389,0.478168,-0.039389,46,271,569,5776
1644174616.245167,-0.010315,0.006226,-0.990784,0.449863,0.386565,0.098015,59,268,568,5728
1644174616.293552,-0.00824,0.010498,-0.9953,0.220855,0.325496,-0.207328,47,273,582,5776
1644174616.342346,-0.010193,0.008362,-0.99231,0.236122,0.417099,-0.207328,51,269,583,5760
1644174616.392844,-0.010315,0.007568,-0.991272,0.46513,0.325496,-0.14626,47,275,577,5728
1644174616.443775,-0.00824,0.008118,-0.992493,0.175053,0.294962,-0.130992,48,274,576,5760
1644174616.535549,-0.012817,0.008484,-0.992004,0.251389,0.462901,0.036947,52,268,586,5712
1644174616.583928,-0.010315,0.011414,-0.991455,0.144519,0.325496,-0.024122,53,271,583,5760
1644174616.632391,-0.010437,0.009155,-0.992615,0.388794,0.493435,-0.100458,38,280,584,5728
1644174616.680679,-0.007996,0.010437,-0.99231,0.297191,0.417099,-0.237863,43,274,580,5696
1644174616.729045,-0.008972,0.008423,-0.99054,0.129252,0.585038,-0.024122,53,281,576,5776
1644174616.777471,-0.01178,0.011963,-0.991699,0.220855,0.340763,-0.085191,40,275,584,5712
1644174616.825895,-0.01001,0.009583,-0.991699,0.08345,0.478168,-0.008855,51,269,578,5760
1644174616.874289,-0.00946,0.007812,-0.993774,0.327725,0.539237,-0.130992,54,275,579,5760
1644174616.922697,-0.007629,0.009949,-0.991638,0.220855,0.294962,-0.14626,49,265,575,5776
1644174616.971072,-0.009644,0.010376,-0.990295,0.113985,0.417099,0.052214,41,274,571,5824
1644174617.019464,-0.005798,0.011353,-0.992432,0.236122,0.493435,-0.054656,55,266,583,5728
1644174617.072331,-0.01416,0.009949,-0.989746,0.205588,0.340763,-0.237863,47,277,584,5760
1644174617.11622,-0.009521,0.009705,-0.992737,0.236122,0.447634,-0.176794,43,271,580,5728
1644174617.164692,-0.010193,0.011108,-0.991577,0.220855,0.386565,-0.039389,51,283,585,5712
1644174617.213004,-0.010254,0.008057,-0.99292,0.281924,0.508702,-0.024122,43,274,585,5760
1644174617.261352,-0.010925,0.010986,-0.992065,0.236122,0.417099,0.067481,51,266,576,5760
1644174617.309748,-0.009888,0.010132,-0.991516,0.236122,0.447634,-0.207328,54,277,586,5728
1644174617.35815,-0.007446,0.010376,-0.992371,0.297191,0.356031,-0.130992,48,274,576,5760
1644174617.406553,-0.010193,0.007263,-0.990479,0.129252,0.478168,-0.100458,52,273,586,5712
1644174617.455556,-0.01001,0.006714,-0.991516,0.281924,0.294962,0.006412,61,273,582,5776
1644174617.506332,-0.010925,0.008423,-0.988464,0.373527,0.462901,-0.024122,58,281,583,5760
1644174617.556507,-0.008911,0.009521,-0.991638,0.159786,0.447634,-0.100458,64,280,579,5760
1644174617.601284,-0.009277,0.007141,-0.993103,0.113985,0.447634,-0.130992,48,269,578,5728
1644174617.696887,-0.011047,0.011169,-0.989502,0.327725,0.523969,-0.054656,53,274,573,5760
1644174617.745433,-0.013,0.007507,-0.991943,0.327725,0.417099,0.082748,42,263,572,5760
1644174617.793689,-0.008667,0.008118,-0.988647,0.281924,0.340763,-0.161527,51,281,580,5776
1644174617.842375,-0.010193,0.012024,-0.99469,0.220855,0.478168,-0.039389,51,279,573,5728
1644174617.8905,-0.009155,0.007202,-0.991394,0.266656,0.539237,-0.192061,49,275,575,5728
1644174617.93891,-0.011719,0.008728,-0.991211,0.08345,0.371298,-0.024122,54,277,575,5728
1644174617.987293,-0.010803,0.009216,-0.994202,0.342992,0.401832,0.12855,55,279,571,5760
1644174618.035671,-0.009644,0.008118,-0.991394,0.205588,0.554504,0.052214,57,275,572,5760
1644174618.093663,-0.008423,0.010315,-0.993164,0.373527,0.401832,-0.130992,51,281,578,5760
1644174618.132431,-0.011963,0.011414,-0.990601,0.068183,0.417099,-0.115725,52,275,582,5760
1644174618.180802,-0.008057,0.008484,-0.991882,0.129252,0.539237,-0.085191,47,270,582,5728
1644174618.229189,-0.008484,0.010376,-0.992676,0.190321,0.371298,0.021679,46,281,569,5712
1644174618.277562,-0.012817,0.010498,-0.992737,0.007115,0.447634,-0.115725,55,269,583,5760
1644174618.326005,-0.009827,0.011841,-0.990234,0.175053,0.493435,-0.024122,51,274,578,5808
1644174618.376082,-0.011658,0.008667,-0.991211,0.449863,0.294962,-0.176794,43,269,571,5760
1644174618.426405,-0.008301,0.011169,-0.991882,0.373527,0.417099,-0.085191,60,279,583,5808
1644174618.47139,-0.010254,0.010498,-0.995422,0.266656,0.356031,-0.130992,51,276,583,5760
1644174618.567908,-0.010437,0.010437,-0.992188,0.190321,0.294962,0.006412,54,273,568,5696
1644174618.616302,-0.012268,0.008606,-0.993652,0.159786,0.569771,-0.237863,51,276,578,5776
1644174618.664845,-0.012756,0.010254,-0.99353,0.205588,0.447634,0.098015,52,285,575,5712
1644174618.713112,-0.013672,0.009949,-0.994202,0.297191,0.386565,0.052214,54,273,577,5712
1644174618.761482,-0.012512,0.006958,-0.991577,0.205588,0.478168,0.006412,47,280,572,5712
1644174618.809886,-0.00946,0.010315,-0.995117,0.205588,0.432366,-0.14626,48,276,573,5808
1644174618.858314,-0.01239,0.009277,-0.99292,0.251389,0.386565,-0.024122,54,277,582,5712
1644174618.906711,-0.010315,0.006348,-0.991211,0.144519,0.462901,0.036947,52,285,570,5760
1644174618.955219,-0.007568,0.008301,-0.993225,0.129252,0.386565,-0.008855,45,275,572,5760
1644174619.003476,-0.010437,0.009949,-0.993774,0.113985,0.417099,-0.085191,55,279,576,5760
1644174619.068629,-0.010376,0.008301,-0.992065,0.205588,0.478168,-0.192061,51,266,571,5712
1644174619.103657,-0.008362,0.007935,-0.993408,0.251389,0.493435,-0.115725,54,277,570,5712
1644174619.148628,-0.010559,0.01178,-0.994019,0.175053,0.371298,-0.115725,54,277,579,5760
1644174619.197026,-0.009949,0.009521,-0.992493,0.266656,0.325496,-0.085191,59,280,579,5728
1644174619.245404,-0.015076,0.008179,-0.98999,0.144519,0.356031,-0.176794,54,282,579,5760
1644174619.29381,-0.011536,0.009888,-0.994141,0.281924,0.417099,-0.115725,38,280,591,5776
1644174619.342208,-0.012207,0.008789,-0.992737,0.190321,0.462901,-0.024122,46,271,580,5760
1644174619.391078,-0.010559,0.00708,-0.991699,0.190321,0.340763,-0.176794,51,269,578,5776
1644174619.438967,-0.009827,0.00824,-0.993042,0.510931,0.447634,-0.085191,43,286,583,5712
1644174619.487489,-0.009033,0.010803,-0.992676,0.312458,0.417099,-0.024122,49,275,584,5712
1644174619.537937,-0.013,0.007935,-0.99115,0.236122,0.371298,0.036947,46,274,576,5760
1644174619.588264,-0.008484,0.007202,-0.991089,0.037649,0.264427,-0.024122,48,266,594,5696
1644174619.633224,-0.010254,0.006714,-0.993408,0.052916,0.340763,0.052214,54,268,582,5824
1644174619.729312,-0.008606,0.00946,-0.994995,0.251389,0.432366,0.006412,54,275,577,5696
1644174619.777684,-0.007996,0.008179,-0.993042,0.205588,0.401832,-0.054656,51,276,578,5760
1644174619.82608,-0.008118,0.007629,-0.991882,0.297191,0.386565,-0.14626,55,274,578,5760
1644174619.874531,-0.010986,0.006897,-0.993225,0.113985,0.310229,-0.207328,52,268,572,5728
1644174619.922941,-0.010742,0.009094,-0.992615,0.236122,0.401832,-0.192061,53,279,564,5808
1644174619.971308,-0.01001,0.00647,-0.994629,0.297191,0.310229,-0.069924,43,279,580,5776
1644174620.019692,-0.011047,0.007507,-0.993042,0.251389,0.432366,-0.115725,58,274,566,5760
1644174620.069427,-0.012756,0.00885,-0.993164,0.281924,0.386565,-0.130992,52,280,591,5728
1644174620.116481,-0.012512,0.010803,-0.994446,0.266656,0.417099,-0.008855,51,269,580,5760
1644174620.164858,-0.00824,0.007935,-0.990906,0.297191,0.401832,-0.054656,47,282,579,5712
1644174620.213251,-0.009216,0.01123,-0.992065,0.327725,0.310229,-0.024122,55,274,585,5760
1644174620.261581,-0.010681,0.010132,-0.99115,0.297191,0.539237,-0.207328,53,286,583,5808
1644174620.310001,-0.013184,0.009827,-0.989075,0.159786,0.356031,-0.100458,49,275,577,5696
1644174620.358393,-0.011902,0.010254,-0.99054,0.190321,0.462901,-0.024122,51,269,580,5712
1644174620.406797,-0.007629,0.00885,-0.992065,0.175053,0.386565,0.082748,53,291,576,5776
1644174620.455179,-0.012573,0.007629,-0.98999,0.327725,0.447634,0.052214,49,282,582,5712
1644174620.503545,-0.010132,0.009705,-0.99054,0.205588,0.401832,0.021679,52,275,579,5760
1644174620.552294,-0.010071,0.009155,-0.992676,0.236122,0.447634,-0.100458,47,280,575,5728
1644174620.601602,-0.010803,0.01001,-0.989746,0.205588,0.371298,-0.024122,48,276,578,5696
1644174620.651952,-0.011047,0.011292,-0.992798,0.220855,0.523969,-0.054656,54,277,572,5760
1644174620.701992,-0.010498,0.00769,-0.992737,0.129252,0.447634,0.098015,58,281,573,5760
1644174620.793918,-0.011169,0.005676,-0.994507,0.312458,0.447634,-0.100458,45,275,577,5696
1644174620.842636,-0.010437,0.011658,-0.99292,0.251389,0.310229,-0.115725,42,282,579,5808
1644174620.890705,-0.009705,0.008301,-0.991333,0.251389,0.508702,-0.039389,45,265,575,5664
1644174620.939119,-0.009338,0.00885,-0.990051,0.175053,0.340763,-0.024122,46,274,573,5728
1644174620.987505,-0.010803,0.009888,-0.993164,0.373527,0.478168,-0.069924,49,273,575,5760
1644174621.035895,-0.010254,0.008423,-0.990784,0.205588,0.462901,-0.024122,49,268,582,5760
1644174621.092394,-0.009277,0.009521,-0.992676,0.205588,0.279695,-0.207328,55,271,573,5760
1644174621.13272,-0.010437,0.010437,-0.99054,0.220855,0.371298,-0.054656,47,280,575,5760
1644174621.181047,-0.010498,0.007751,-0.990173,0.312458,0.340763,0.036947,40,265,572,5712
1644174621.229424,-0.009277,0.008118,-0.99176,0.068183,0.569771,-0.192061,53,276,571,5760
1644174621.277824,-0.009521,0.008301,-0.990723,0.205588,0.462901,-0.054656,49,270,579,5728
1644174621.326209,-0.008789,0.012512,-0.993469,0.159786,0.493435,-0.192061,57,275,586,5760
1644174621.374973,-0.011963,0.009888,-0.994202,0.098718,0.386565,-0.192061,47,270,575,5776
1644174621.425606,-0.009644,0.008789,-0.991821,0.327725,0.508702,-0.130992,42,277,582,5776
1644174621.475578,-0.010803,0.006714,-0.992371,0.404061,0.203359,-0.054656,60,279,585,5712
1644174621.520716,-0.009644,0.008179,-0.994568,0.236122,0.371298,-0.100458,53,266,587,5808
1644174621.616553,-0.008362,0.007935,-0.993042,0.220855,0.386565,-0.176794,57,277,563,5776
1644174621.665208,-0.010254,0.008484,-0.991455,0.266656,0.356031,-0.008855,51,283,576,5696
1644174621.713353,-0.010742,0.007874,-0.991333,0.220855,0.523969,-0.115725,59,275,579,5776
1644174621.761716,-0.010071,0.008179,-0.989502,0.251389,0.218626,-0.115725,52,270,572,5776
1644174621.810117,-0.010742,0.009949,-0.993103,0.251389,0.24916,-0.207328,48,274,576,5760
1644174621.858507,-0.009644,0.011597,-0.991577,0.266656,0.462901,-0.130992,46,281,576,5712
1644174621.906965,-0.009644,0.009277,-0.989868,0.251389,0.188092,-0.14626,51,266,580,5808
1644174621.955328,-0.010925,0.009766,-0.990967,0.388794,0.523969,-0.14626,48,262,569,5776
1644174622.003724,-0.011047,0.009155,-0.989563,0.236122,0.417099,-0.024122,48,271,571,5760
1644174622.069136,-0.01001,0.008606,-0.993591,0.251389,0.508702,-0.176794,59,273,579,5760
1644174622.100987,-0.011292,0.009521,-0.99353,0.175053,0.371298,-0.069924,53,276,576,5712
1644174622.14889,-0.00824,0.012085,-0.991943,0.251389,0.447634,-0.039389,53,288,580,5712
1644174622.197251,-0.011108,0.012451,-0.992188,0.144519,0.508702,-0.207328,53,266,583,5664
1644174622.245635,-0.006714,0.00885,-0.992249,0.022382,0.447634,-0.085191,57,275,575,5760
1644174622.294039,-0.009521,0.008118,-0.992065,0.419328,0.432366,-0.130992,57,275,584,5696
1644174622.342447,-0.011536,0.009094,-0.989929,0.205588,0.447634,-0.161527,48,276,569,5760
1644174622.390815,-0.012451,0.009827,-0.991211,0.220855,0.432366,-0.207328,46,276,576,5760
1644174622.439174,-0.009583,0.007263,-0.993835,0.175053,0.417099,-0.054656,54,285,575,5760
1644174622.487579,-0.010193,0.011169,-0.993774,0.159786,0.356031,-0.192061,48,262,576,5776
1644174622.5365,-0.009827,0.011292,-0.992004,0.08345,0.310229,-0.100458,40,280,577,5776
1644174622.587065,-0.010071,0.011108,-0.988892,0.297191,0.371298,-0.069924,42,270,577,5728
1644174622.637248,-0.010559,0.009949,-0.991333,0.159786,0.401832,-0.024122,43,276,583,5776
1644174622.682171,-0.009033,0.006897,-0.992065,0.007115,0.401832,-0.161527,43,266,569,5712
1644174622.77792,-0.010193,0.009094,-0.994751,0.281924,0.417099,-0.192061,47,260,579,5696
1644174622.826328,-0.009399,0.010559,-0.991333,0.46513,0.356031,-0.192061,45,268,579,5808
1644174622.87513,-0.012146,0.011353,-0.991943,0.251389,0.325496,-0.039389,51,274,583,5760
1644174622.923172,-0.008728,0.009583,-0.9953,0.251389,0.356031,-0.207328,59,282,575,5728
1644174622.971532,-0.012024,0.008545,-0.991882,0.113985,0.508702,-0.176794,48,281,580,5712
1644174623.01994,-0.005859,0.007507,-0.993896,0.205588,0.447634,-0.222595,54,282,572,5728
1644174623.073914,-0.006531,0.011536,-0.992737,0.266656,0.493435,-0.115725,53,262,576,5712
1644174623.116648,-0.009155,0.008362,-0.996094,0.129252,0.386565,-0.192061,46,276,576,5712
1644174623.165098,-0.009766,0.00769,-0.99408,0.175053,0.432366,-0.069924,57,282,577,5808
1644174623.213461,-0.008911,0.013489,-0.994324,0.312458,0.462901,-0.115725,52,265,568,5808
1644174623.261839,-0.008118,0.007629,-0.990417,0.297191,0.585038,-0.008855,55,286,585,5712
1644174623.310251,-0.009155,0.007263,-0.992981,0.220855,0.340763,0.006412,41,281,576,5776
1644174623.358609,-0.009766,0.01123,-0.99115,0.281924,0.417099,-0.039389,43,269,571,5760
1644174623.406986,-0.010986,0.010803,-0.991577,0.297191,0.462901,-0.130992,46,276,583,5776
1644174623.455401,-0.011353,0.008179,-0.991394,0.098718,0.356031,-0.069924,47,275,579,5776
1644174623.503778,0.010193,0.008667,-0.991821,-0.02342,0.157557,-0.085191,60,276,566,5760
1644174623.552213,0.005676,0.009949,-0.986023,1.106351,1.272061,-0.207328,52,282,591,5728
1644174623.600578,-0.00354,0.009949,-0.989075,-0.13029,0.386565,-0.268397,57,285,568,5712
1644174623.648973,0.000732,0.01532,-0.989685,0.556733,0.600305,0.113282,51,269,573,5776
1644174623.697772,-0.010925,0.002197,-0.992981,0.312458,0.615573,-0.039389,43,274,576,5760
1644174623.748396,-0.010742,0.012939,-0.992188,-0.160824,0.294962,-0.161527,53,281,578,5728
1644174623.798777,-0.006897,0.010925,-0.993103,0.495664,0.417099,0.082748,47,263,575,5760
1644174623.843853,-0.013611,0.008545,-0.993347,0.220855,0.478168,-0.192061,55,269,573,5776
1644174623.939358,-0.01001,0.003784,-0.991028,0.480397,0.462901,0.067481,54,268,572,5760
1644174623.987751,-0.01001,0.010254,-0.989441,0.220855,0.356031,-0.329466,43,276,562,5776
1644174624.036119,-0.008179,0.011841,-0.990356,0.281924,0.447634,-0.054656,52,287,575,5776
1644174624.084632,-0.009094,0.006958,-0.990723,0.175053,0.294962,0.204885,53,274,583,5760
1644174624.132924,-0.010376,0.008301,-0.991028,0.159786,0.371298,-0.085191,47,273,568,5776
1644174624.18128,-0.01178,0.011536,-0.992249,0.35826,0.371298,-0.14626,45,273,575,5760
1644174624.229686,-0.009705,0.011169,-0.993225,0.312458,0.508702,-0.069924,51,274,576,5760
1644174624.278038,-0.007324,0.009521,-0.99115,0.190321,0.371298,-0.039389,35,280,582,5712
1644174624.326464,-0.009399,0.011475,-0.991821,0.266656,0.554504,-0.161527,46,279,573,5728
1644174624.374866,-0.013,0.006653,-0.991333,0.190321,0.417099,-0.100458,47,273,577,5776
1644174624.423246,-0.007812,0.013245,-0.990112,0.281924,0.310229,-0.161527,52,280,575,5808
1644174624.471605,-0.010193,0.009521,-0.990051,0.144519,0.417099,-0.176794,55,281,583,5760
1644174624.520017,-0.01062,0.010864,-0.989807,0.190321,0.462901,-0.085191,45,270,572,5776
1644174624.568402,-0.008728,0.00885,-0.99176,0.113985,0.371298,-0.085191,51,271,576,5728
1644174624.616801,-0.010132,0.010803,-0.990417,0.159786,0.417099,-0.176794,42,273,577,5776
1644174624.665263,-0.00769,0.010437,-0.992981,0.190321,0.417099,-0.268397,38,282,582,5776
1644174624.713582,-0.010315,0.01001,-0.993103,0.327725,0.264427,-0.100458,51,276,580,5808
1644174624.761969,-0.007874,0.010925,-0.994873,0.190321,0.356031,-0.130992,53,269,578,5760
1644174624.810405,-0.012329,0.012756,-0.992432,0.266656,0.462901,-0.085191,40,265,577,5776
1644174624.860046,-0.007507,0.00946,-0.990784,0.113985,0.356031,-0.039389,52,275,572,5760
1644174624.910077,-0.009827,0.011902,-0.989746,0.297191,0.340763,-0.237863,46,269,576,5760
1644174624.960339,-0.012695,0.011108,-0.993713,0.190321,0.294962,-0.207328,58,271,578,5760
1644174625.063385,-0.009644,0.010437,-0.992065,0.236122,0.401832,0.021679,55,279,580,5808
1644174625.103881,-0.009033,0.009949,-0.99115,0.251389,0.294962,-0.039389,48,279,587,5776
1644174625.149103,-0.009155,0.008911,-0.992432,0.266656,0.340763,-0.130992,52,277,577,5760
1644174625.19749,-0.011719,0.009155,-0.992798,0.220855,0.417099,-0.176794,58,271,580,5808
1644174625.245868,-0.008911,0.009827,-0.992432,0.190321,0.432366,0.082748,54,270,575,5776
1644174625.294289,-0.009521,0.010132,-0.99292,0.068183,0.340763,-0.008855,58,276,583,5728
1644174625.342691,-0.011719,0.010864,-0.992737,0.297191,0.279695,0.098015,49,268,561,5728
1644174625.391025,-0.008972,0.010193,-0.991333,0.205588,0.264427,-0.069924,35,265,577,5712
1644174625.439443,-0.00946,0.011108,-0.992004,0.266656,0.554504,-0.176794,68,285,589,5712
1644174625.487868,-0.011719,0.008972,-0.992493,0.236122,0.432366,-0.115725,61,273,589,5712
1644174625.536253,-0.011719,0.007385,-0.990845,0.205588,0.523969,-0.039389,52,275,586,5760
1644174625.584657,-0.008118,0.012268,-0.990662,0.190321,0.401832,-0.069924,52,275,586,5760
1644174625.633085,-0.011047,0.011475,-0.991394,0.297191,0.478168,-0.069924,54,270,572,5712
1644174625.681824,-0.010254,0.011047,-0.99292,0.144519,0.294962,-0.14626,45,273,579,5696
1644174625.732462,-0.009155,0.009644,-0.99115,0.220855,0.386565,-0.039389,53,266,576,5824
1644174625.782825,-0.009583,0.009399,-0.990845,0.342992,0.462901,-0.130992,52,273,575,5824
1644174625.828582,-0.011658,0.01001,-0.993896,0.373527,0.401832,-0.024122,48,266,578,5808
1644174625.923401,-0.008545,0.008667,-0.993225,0.159786,0.508702,-0.069924,54,282,570,5808
1644174625.971776,-0.011292,0.010742,-0.992493,0.220855,0.508702,-0.222595,54,280,577,5728
1644174626.020147,-0.010925,0.011902,-0.991272,0.175053,0.371298,-0.14626,45,265,577,5808
1644174626.073948,-0.007629,0.008728,-0.991211,0.297191,0.432366,0.021679,43,271,578,5760
1644174626.11694,-0.009338,0.010925,-0.992126,0.190321,0.432366,-0.085191,49,280,565,5760
1644174626.165301,-0.010437,0.011353,-0.989868,0.297191,0.279695,-0.14626,55,281,573,5808
1644174626.213702,-0.008118,0.01123,-0.991089,0.236122,0.294962,-0.115725,52,270,575,5760
1644174626.262142,-0.00647,0.009094,-0.991943,0.205588,0.203359,-0.14626,42,275,575,5696
1644174626.310458,-0.008545,0.009888,-0.989624,0.068183,0.432366,-0.054656,51,264,576,5760
1644174626.358864,-0.011169,0.008911,-0.992004,0.281924,0.401832,-0.069924,51,279,580,5696
1644174626.407238,-0.009399,0.013306,-0.990417,0.144519,0.63084,-0.054656,59,277,577,5696
1644174626.455655,-0.012817,0.011536,-0.992065,0.220855,0.432366,-0.115725,55,271,576,5696
1644174626.504069,-0.007568,0.01062,-0.991211,0.190321,0.462901,-0.069924,47,280,586,5696
1644174626.552472,-0.011047,0.010437,-0.989929,0.342992,0.417099,-0.115725,49,273,584,5712
1644174626.600826,-0.00946,0.009766,-0.99115,0.342992,0.386565,-0.069924,47,263,577,5712
1644174626.649228,-0.010132,0.012207,-0.990662,0.144519,0.417099,-0.100458,57,273,577,5808
1644174626.69761,-0.010925,0.008789,-0.992126,0.159786,0.493435,-0.130992,47,268,577,5760
1644174626.746005,-0.008911,0.008179,-0.990723,0.022382,0.478168,-0.100458,55,271,576,5776
1644174626.794391,-0.013306,0.010925,-0.992126,0.373527,0.462901,-0.207328,49,285,577,5776
1644174626.844379,-0.009399,0.01062,-0.992188,0.190321,0.523969,-0.130992,48,266,573,5760
1644174626.894869,-0.008789,0.010315,-0.991882,0.129252,0.417099,-0.024122,62,269,587,5840
1644174626.944488,-0.008484,0.006042,-0.991699,0.251389,0.508702,-0.008855,51,271,576,5728
1644174626.989097,-0.007263,0.011841,-0.989258,0.297191,0.310229,-0.100458,51,276,576,5696
1644174627.084862,-0.009705,0.008728,-0.993225,0.113985,0.447634,-0.192061,54,277,584,5808
1644174627.133142,-0.010132,0.012146,-0.990417,0.251389,0.462901,-0.115725,46,276,573,5776
1644174627.181512,-0.008423,0.009033,-0.991333,0.266656,0.493435,-0.14626,48,288,566,5760
1644174627.229897,-0.008728,0.012207,-0.991943,0.205588,0.432366,-0.222595,55,266,566,5728
1644174627.278296,-0.009827,0.009888,-0.993347,0.251389,0.294962,-0.130992,40,273,577,5760
1644174627.326682,-0.009033,0.009033,-0.994629,0.342992,0.417099,-0.024122,54,277,582,5760
1644174627.375103,-0.00946,0.007935,-0.993164,0.297191,0.386565,0.006412,57,273,572,5712
1644174627.42348,-0.009583,0.011475,-0.992126,0.113985,0.478168,-0.176794,55,274,576,5760
1644174627.471865,-0.009766,0.012268,-0.993835,0.08345,0.294962,-0.069924,57,290,577,5760
1644174627.520263,-0.009644,0.009399,-0.993469,0.373527,0.447634,-0.14626,55,271,569,5696
1644174627.568652,-0.009338,0.012451,-0.991211,0.08345,0.294962,0.052214,51,276,571,5776
1644174627.617033,-0.006958,0.012329,-0.989319,0.159786,0.432366,0.036947,60,274,578,5696
1644174627.665434,-0.01062,0.010559,-0.990723,0.190321,0.24916,-0.085191,58,271,580,5760
1644174627.713833,-0.011353,0.008301,-0.988159,0.205588,0.493435,-0.115725,53,274,583,5728
1644174627.762237,-0.009277,0.010681,-0.993591,0.220855,0.523969,-0.100458,48,293,578,5808
1644174627.810593,-0.011108,0.012939,-0.991333,0.251389,0.325496,-0.176794,51,279,583,5760
1644174627.859024,-0.010559,0.010376,-0.991943,0.098718,0.386565,-0.100458,45,280,577,5760
1644174627.907768,-0.010071,0.008606,-0.993042,0.35826,0.279695,0.006412,46,271,578,5776
1644174627.955806,-0.008362,0.009094,-0.99054,0.068183,0.417099,-0.14626,52,275,582,5760
1644174628.005739,-0.009399,0.004944,-0.993286,0.266656,0.325496,-0.176794,47,275,577,5696
1644174628.077261,-0.010254,0.009399,-0.992615,0.434595,0.417099,-0.222595,55,276,573,5760
1644174628.111412,-0.011597,0.011841,-0.990479,0.297191,0.478168,-0.192061,60,276,587,5760
1644174628.150851,-0.008728,0.007141,-0.990601,0.35826,0.386565,-0.085191,45,277,568,5664
1644174628.246089,-0.010742,0.01062,-0.990723,0.419328,0.401832,-0.100458,60,279,578,5808
1644174628.294497,-0.007629,0.010437,-0.99176,0.236122,0.356031,-0.237863,54,280,565,5696
1644174628.342894,-0.007629,0.011047,-0.992371,0.281924,0.310229,-0.039389,57,270,579,5712
1644174628.39128,-0.009155,0.007568,-0.990967,0.220855,0.371298,-0.268397,53,269,573,5776
1644174628.439659,-0.006104,0.010376,-0.992126,0.281924,0.432366,-0.192061,48,279,571,5808
1644174628.488067,-0.009583,0.007996,-0.991882,0.144519,0.340763,-0.161527,58,281,571,5760
1644174628.536448,-0.00647,0.007996,-0.993408,0.251389,0.356031,-0.161527,53,276,566,5808
1644174628.584864,-0.01123,0.010742,-0.990967,0.175053,0.432366,-0.176794,47,275,577,5760
1644174628.633252,-0.009277,0.008057,-0.991699,0.205588,0.340763,-0.115725,57,275,570,5728
1644174628.681644,-0.01062,0.007324,-0.992737,0.205588,0.24916,-0.054656,43,271,571,5712
1644174628.730029,-0.011169,0.007629,-0.993225,0.251389,0.279695,-0.283664,45,275,568,5760
1644174628.778409,-0.010132,0.009521,-0.994324,0.068183,0.371298,-0.085191,51,281,569,5760
1644174628.826808,-0.008606,0.009583,-0.991943,0.251389,0.478168,-0.100458,54,275,582,5808
1644174628.875234,-0.011414,0.009277,-0.991333,0.327725,0.340763,-0.069924,60,269,578,5664
1644174628.923659,-0.011841,0.008606,-0.993896,0.144519,0.432366,-0.130992,55,283,571,5728
1644174628.972025,-0.008179,0.00946,-0.992676,0.388794,0.432366,0.006412,53,288,569,5808
1644174629.020547,-0.010925,0.008667,-0.990417,0.144519,0.325496,-0.054656,43,281,585,5728
1644174629.095491,-0.007996,0.009399,-0.992371,0.113985,0.371298,-0.085191,48,276,580,5728
1644174629.12295,-0.010681,0.007507,-0.992188,0.312458,0.279695,0.006412,54,280,573,5808
1644174629.1727,-0.008728,0.010803,-0.990723,0.251389,0.523969,-0.024122,52,270,584,5760
1644174629.219263,-0.010559,0.009888,-0.991272,0.144519,0.554504,-0.008855,48,269,578,5760
1644174629.266516,-0.011902,0.008362,-0.99408,0.297191,0.569771,-0.161527,53,274,571,5760
1644174629.311411,-0.010254,0.008728,-0.991272,0.220855,0.432366,-0.039389,54,277,582,5712
1644174629.407495,-0.012451,0.00769,-0.992676,0.220855,0.432366,-0.14626,55,269,569,5760
1644174629.455873,-0.010864,0.007751,-0.992126,0.404061,0.432366,0.006412,40,268,568,5712
1644174629.504284,-0.010071,0.006409,-0.992004,0.205588,0.279695,-0.085191,41,279,576,5712
1644174629.552679,-0.011292,0.009033,-0.990906,0.35826,0.386565,-0.192061,54,282,575,5728
1644174629.601055,-0.009399,0.011658,-0.989075,0.327725,0.371298,0.052214,53,279,578,5728
1644174629.64945,-0.011169,0.007996,-0.990967,0.266656,0.462901,-0.14626,47,275,568,5760
1644174629.697833,-0.008667,0.012207,-0.991638,0.297191,0.432366,-0.176794,47,258,577,5696
1644174629.746225,-0.011597,0.010498,-0.992615,0.175053,0.356031,-0.085191,60,274,564,5728
1644174629.794735,-0.008972,0.01062,-0.99292,0.236122,0.462901,-0.25313,53,271,573,5664
1644174629.843078,-0.008362,0.009277,-0.990662,0.342992,0.356031,-0.024122,46,276,573,5712
1644174629.891437,-0.00769,0.01123,-0.994629,0.251389,0.386565,0.006412,55,281,571,5712
1644174629.940456,-0.009399,0.007568,-0.994812,0.205588,0.340763,-0.054656,46,276,576,5760
1644174629.9882,-0.011841,0.011658,-0.991577,0.266656,0.310229,-0.192061,41,296,580,5760
1644174630.036639,-0.009399,0.010376,-0.992859,0.159786,0.447634,-0.161527,55,266,578,5712
1644174630.091367,-0.012146,0.011047,-0.993286,0.312458,0.340763,-0.130992,54,277,572,5712
1644174630.133421,-0.010193,0.00946,-0.992981,0.190321,0.386565,-0.207328,60,279,583,5840
1644174630.18175,-0.009521,0.00946,-0.992065,0.251389,0.371298,0.021679,46,279,583,5664
1644174630.230111,-0.010315,0.007935,-0.990295,0.190321,0.356031,-0.085191,58,281,578,5712
1644174630.278666,-0.009766,0.010681,-0.991211,0.220855,0.417099,-0.268397,41,279,573,5776
1644174630.329208,-0.010132,0.009094,-0.992188,0.297191,0.417099,-0.130992,59,265,579,5712
1644174630.379379,-0.010925,0.010498,-0.993958,0.159786,0.554504,-0.039389,51,264,573,5728
1644174630.424433,-0.011719,0.010498,-0.992859,0.144519,0.356031,-0.085191,51,281,576,5728
1644174630.520487,-0.009338,0.010498,-0.993164,0.373527,0.401832,-0.085191,53,266,576,5728
1644174630.568866,-0.012268,0.010315,-0.990967,0.08345,0.386565,-0.130992,55,271,573,5808
1644174630.617256,-0.010498,0.009521,-0.993774,0.312458,0.264427,-0.192061,42,280,577,5648
1644174630.665655,-0.00824,0.008911,-0.992676,0.205588,0.294962,-0.069924,54,270,572,5760
1644174630.714051,-0.011353,0.012634,-0.993774,0.281924,0.585038,-0.085191,49,275,568,5760
1644174630.762451,-0.009888,0.007812,-0.990417,0.266656,0.386565,-0.085191,48,281,580,5776
1644174630.810836,-0.010742,0.009521,-0.990906,0.297191,0.462901,-0.268397,46,262,569,5712
1644174630.859234,-0.011292,0.01062,-0.989807,0.266656,0.325496,-0.161527,55,281,583,5728
1644174630.907666,-0.012146,0.007935,-0.99231,0.190321,0.447634,-0.069924,54,268,570,5728
1644174630.956025,-0.012268,0.010864,-0.993958,0.113985,0.432366,-0.100458,59,282,584,5808
1644174631.004838,-0.009277,0.010742,-0.991577,0.35826,0.432366,0.098015,49,273,572,5696
1644174631.068597,-0.008911,0.008667,-0.992798,0.052916,0.401832,-0.176794,61,275,586,5696
1644174631.103981,-0.011169,0.00885,-0.992249,0.159786,0.340763,-0.14626,48,271,580,5728
1644174631.149584,-0.008606,0.010925,-0.99176,0.144519,0.432366,-0.085191,61,277,584,5760
1644174631.197962,-0.011047,0.006165,-0.993591,0.312458,0.401832,-0.176794,53,276,587,5760
1644174631.246347,-0.01001,0.009705,-0.992004,0.373527,0.325496,-0.237863,52,280,582,5824
1644174631.294761,-0.011047,0.008911,-0.991577,0.251389,0.340763,-0.069924,46,276,578,5760
1644174631.343443,-0.00769,0.012756,-0.990784,0.251389,0.356031,-0.237863,52,280,579,5760
1644174631.394119,-0.011658,0.00647,-0.990906,0.236122,0.325496,-0.130992,42,282,565,5728
1644174631.444055,-0.010864,0.009644,-0.991455,0.251389,0.203359,-0.008855,48,279,580,5760
1644174631.489343,-0.010193,0.008301,-0.991638,0.297191,0.371298,-0.161527,35,275,577,5808
1644174631.585351,-0.007324,0.010193,-0.993103,0.236122,0.371298,-0.054656,45,277,579,5808
1644174631.633487,-0.009094,0.009094,-0.991882,0.281924,0.371298,-0.222595,42,277,582,5760
1644174631.681867,-0.00647,0.011414,-0.990051,0.220855,0.294962,-0.161527,52,265,575,5776
1644174631.730253,-0.011353,0.007874,-0.993103,0.266656,0.447634,-0.176794,57,280,572,5728
1644174631.778658,-0.011414,0.008118,-0.990234,0.373527,0.294962,-0.14626,52,273,570,5760
1644174631.827081,-0.011841,0.012634,-0.992065,0.342992,0.310229,-0.192061,46,276,573,5696
1644174631.87547,-0.010681,0.010681,-0.990784,0.205588,0.417099,-0.115725,59,268,577,5712
1644174631.92387,-0.010681,0.007935,-0.99054,0.159786,0.401832,-0.039389,51,279,578,5776
1644174631.972273,-0.00824,0.010437,-0.993164,0.144519,0.356031,0.036947,51,279,578,5760
1644174632.020621,-0.007996,0.009399,-0.991333,0.312458,0.462901,-0.115725,46,274,566,5776
1644174632.077813,-0.005859,0.012756,-0.991394,0.175053,0.417099,0.021679,60,274,578,5696
1644174632.117381,-0.009583,0.00885,-0.989441,0.205588,0.279695,-0.207328,49,273,582,5712
1644174632.165779,-0.00946,0.007812,-0.989624,0.327725,0.569771,0.052214,43,291,571,5776
1644174632.214172,-0.013733,0.011169,-0.992676,0.190321,0.310229,-0.024122,52,273,565,5776
1644174632.262552,-0.015381,0.010437,-0.991333,0.35826,0.417099,-0.008855,52,280,579,5840
1644174632.310951,-0.009583,0.009216,-0.99231,0.129252,0.356031,-0.100458,39,274,583,5760
1644174632.359319,-0.011414,0.007751,-0.994202,0.312458,0.279695,-0.130992,42,268,579,5760
1644174632.407738,-0.010132,0.009521,-0.993591,0.342992,0.478168,-0.039389,45,282,586,5760
1644174632.456132,-0.010559,0.00824,-0.992615,0.220855,0.371298,-0.039389,54,277,577,5776
1644174632.504554,-0.010254,0.009033,-0.992432,0.205588,0.356031,-0.100458,61,275,582,5728
1644174632.554965,-0.009338,0.009705,-0.993103,0.373527,0.478168,-0.085191,57,275,572,5760
1644174632.605261,-0.010864,0.009155,-0.992432,0.312458,0.432366,-0.054656,54,263,579,5760
1644174632.650363,-0.01062,0.009216,-0.991089,0.327725,0.462901,-0.069924,53,286,583,5808
1644174632.746453,-0.009033,0.01239,-0.990601,0.312458,0.493435,-0.100458,45,275,577,5808
1644174632.794871,-0.012817,0.012085,-0.990723,0.266656,0.493435,-0.192061,42,282,579,5760
1644174632.843291,-0.008423,0.008118,-0.992798,0.35826,0.157557,-0.008855,48,274,580,5728
1644174632.891693,-0.013306,0.011108,-0.990112,0.205588,0.539237,-0.039389,55,274,585,5760
1644174632.940076,-0.010742,0.008118,-0.991699,0.098718,0.356031,-0.314198,47,268,570,5696
1644174632.988478,-0.011414,0.008057,-0.991333,0.388794,0.523969,-0.115725,46,266,583,5712
1644174633.036834,-0.009155,0.010437,-0.990784,0.327725,0.417099,-0.390534,46,279,580,5808
1644174633.091093,-0.010742,0.010071,-0.989441,0.281924,0.462901,-0.039389,48,279,571,5776
1644174633.13363,-0.00885,0.011353,-0.990112,0.190321,0.325496,-0.161527,53,279,592,5728
1644174633.181984,-0.008728,0.011841,-0.994934,0.35826,0.371298,-0.085191,61,280,575,5728
1644174633.23037,-0.008911,0.008301,-0.99292,0.144519,0.356031,-0.024122,48,281,576,5712
1644174633.27874,-0.010071,0.00885,-0.990234,0.251389,0.539237,-0.192061,54,265,577,5696
1644174633.327166,-0.007507,0.01123,-0.990295,0.281924,0.401832,-0.069924,60,266,576,5728
1644174633.375589,-0.010498,0.006836,-0.992676,0.251389,0.462901,-0.054656,43,276,573,5712
1644174633.423963,-0.006653,0.010132,-0.993286,0.312458,0.279695,-0.069924,42,270,579,5840
1644174633.473616,-0.008423,0.009399,-0.992493,0.266656,0.417099,-0.176794,60,274,583,5648
1644174633.523904,-0.01123,0.009583,-0.991882,0.190321,0.310229,-0.130992,45,268,582,5712
1644174633.574133,-0.009766,0.009338,-0.992249,0.35826,0.417099,-0.176794,53,276,583,5760
1644174633.665877,-0.011719,0.00885,-0.990906,0.236122,0.386565,0.006412,33,280,572,5712
1644174633.714284,-0.008545,0.009094,-0.992615,0.312458,0.447634,-0.069924,49,280,570,5728
1644174633.762683,-0.015381,0.011292,-0.990662,0.35826,0.310229,-0.054656,54,275,579,5664
1644174633.811067,-0.009705,0.007568,-0.994202,0.297191,0.478168,-0.115725,47,282,579,5728
1644174633.859498,-0.00769,0.00946,-0.994019,0.144519,0.340763,-0.222595,54,277,568,5760
1644174633.907867,-0.00885,0.009644,-0.992737,0.312458,0.279695,-0.130992,58,274,573,5712
1644174633.956283,-0.010559,0.009216,-0.993896,0.35826,0.401832,-0.14626,49,265,579,5696
1644174634.004706,-0.009277,0.009216,-0.98999,0.159786,0.478168,-0.069924,42,275,582,5760
1644174634.065073,-0.010376,0.011047,-0.993225,0.373527,0.600305,0.006412,47,273,577,5728
1644174634.105647,-0.010071,0.009888,-0.991028,0.266656,0.264427,0.036947,52,268,570,5760
1644174634.14977,-0.010925,0.010132,-0.990906,0.144519,0.447634,-0.237863,51,271,571,5760
1644174634.198207,-0.011841,0.010254,-0.994263,0.297191,0.508702,-0.14626,48,281,571,5712
1644174634.246589,-0.009644,0.010803,-0.991577,0.266656,0.462901,-0.024122,45,280,568,5760
1644174634.29512,-0.008789,0.010681,-0.994202,0.281924,0.508702,-0.085191,46,281,578,5760
1644174634.343366,-0.009094,0.008118,-0.988953,0.236122,0.447634,-0.176794,43,279,583,5776
1644174634.391735,-0.009644,0.010132,-0.991577,0.312458,0.386565,-0.115725,48,274,573,5728
1644174634.44014,-0.012085,0.008057,-0.992004,0.220855,0.356031,-0.161527,58,279,578,5760
1644174634.488532,-0.008911,0.008179,-0.991089,0.251389,0.386565,-0.100458,54,287,577,5696
1644174634.537592,-0.010437,0.009827,-0.992737,0.159786,0.401832,0.021679,43,271,576,5712
1644174634.587992,-0.008972,0.01001,-0.990906,0.190321,0.493435,-0.085191,45,277,579,5728
1644174634.63801,-0.008057,0.007812,-0.990601,0.144519,0.417099,-0.024122,51,269,587,5760
1644174634.683039,-0.010071,0.009521,-0.98999,0.388794,0.523969,-0.100458,52,273,568,5760
1644174634.778867,-0.01001,0.008667,-0.991089,0.281924,0.447634,-0.161527,46,276,573,5760
1644174634.827267,-0.010864,0.01062,-0.989563,0.144519,0.386565,-0.069924,47,280,579,5776
1644174634.875701,-0.009949,0.009155,-0.994202,0.251389,0.447634,-0.024122,58,274,578,5776
1644174634.924105,-0.008179,0.009766,-0.991882,0.251389,0.432366,-0.069924,49,277,575,5760
1644174634.972504,-0.008118,0.006287,-0.990784,0.129252,0.340763,-0.039389,49,275,577,5776
1644174635.02089,-0.013489,0.009949,-0.991516,0.190321,0.462901,-0.054656,45,280,572,5776
1644174635.072949,-0.011292,0.008179,-0.990173,0.236122,0.493435,0.036947,48,271,566,5696
1644174635.117679,-0.007507,0.010925,-0.992249,0.159786,0.417099,-0.192061,60,281,571,5728
1644174635.165982,-0.007996,0.008667,-0.99115,0.220855,0.493435,0.036947,49,270,568,5712
1644174635.214433,-0.008118,0.009155,-0.994141,0.220855,0.432366,-0.161527,55,286,583,5808
1644174635.262793,-0.010376,0.008728,-0.991333,0.312458,0.432366,-0.039389,43,279,573,5712
1644174635.311203,-0.010498,0.008545,-0.992188,0.266656,0.233893,0.021679,47,275,575,5712
1644174635.359583,-0.011475,0.011475,-0.991577,0.281924,0.401832,-0.069924,46,276,578,5840
1644174635.407985,-0.012329,0.007202,-0.989868,0.312458,0.539237,-0.283664,45,277,584,5776
1644174635.45637,-0.011475,0.009216,-0.991638,0.342992,0.539237,-0.100458,55,279,576,5712
1644174635.504743,-0.009888,0.00824,-0.99292,0.205588,0.478168,-0.207328,55,279,571,5760
1644174635.553163,-0.010315,0.010559,-0.990845,0.312458,0.340763,-0.115725,59,277,568,5776
1644174635.601539,-0.010742,0.011597,-0.994507,0.251389,0.371298,-0.207328,47,273,568,5696
1644174635.649919,-0.009827,0.011841,-0.990906,0.266656,0.478168,0.052214,42,268,577,5728
1644174635.698719,-0.011169,0.00885,-0.991272,0.190321,0.386565,-0.130992,57,277,577,5728
1644174635.748966,-0.010132,0.009949,-0.992554,0.327725,0.340763,-0.14626,48,281,569,5696
1644174635.799254,-0.011414,0.008606,-0.992004,0.236122,0.493435,-0.100458,47,273,575,5760
1644174635.845412,-0.010559,0.00769,-0.992615,0.236122,0.371298,0.006412,45,282,572,5760
1644174635.940313,-0.012634,0.007385,-0.993103,0.312458,0.386565,-0.085191,45,277,577,5728
1644174635.988704,-0.012451,0.007141,-0.991272,0.129252,0.340763,-0.024122,47,285,570,5712
1644174636.037093,-0.010071,0.011902,-0.992126,0.037649,0.478168,-0.115725,57,268,577,5776
1644174636.08553,-0.010864,0.009521,-0.993408,0.373527,0.340763,-0.115725,48,281,578,5712
1644174636.133879,-0.010071,0.011414,-0.991394,0.266656,0.493435,-0.100458,45,275,572,5760
1644174636.182246,-0.009888,0.008728,-0.993103,0.327725,0.218626,-0.192061,48,266,585,5712
1644174636.23062,-0.00946,0.009521,-0.992249,0.266656,0.432366,-0.25313,47,280,563,5808
1644174636.278983,-0.009949,0.010986,-0.992004,0.113985,0.356031,-0.130992,49,265,572,5760
1644174636.327412,-0.011719,0.008911,-0.992554,0.236122,0.371298,-0.100458,52,290,575,5824
1644174636.375795,-0.011475,0.00946,-0.99292,0.144519,0.508702,-0.069924,54,265,575,5776
1644174636.424216,-0.009399,0.00946,-0.991638,0.144519,0.523969,-0.024122,53,279,573,5808
1644174636.473301,-0.01001,0.009521,-0.991028,0.129252,0.401832,0.021679,51,271,578,5712
1644174636.520979,-0.01001,0.010193,-0.989807,0.236122,0.539237,-0.130992,61,280,591,5776
1644174636.569353,-0.012695,0.010376,-0.992493,0.159786,0.386565,-0.130992,49,268,568,5760
1644174636.61775,-0.011658,0.009155,-0.990234,0.159786,0.554504,-0.14626,52,280,572,5696
1644174636.666152,-0.00769,0.011047,-0.992737,0.281924,0.356031,-0.024122,48,288,576,5664
1644174636.714532,-0.009338,0.00769,-0.992737,0.236122,0.356031,-0.100458,49,277,572,5728
1644174636.762931,-0.009766,0.009827,-0.98877,0.251389,0.401832,-0.115725,57,273,575,5760
1644174636.811329,-0.009399,0.009094,-0.992798,0.144519,0.386565,-0.054656,52,270,579,5776
1644174636.860883,-0.012024,0.009644,-0.99176,0.175053,0.493435,0.12855,57,273,577,5824
1644174636.911447,-0.012451,0.011047,-0.989319,0.144519,0.203359,-0.085191,55,288,573,5776
1644174636.96184,-0.011047,0.010376,-0.990723,0.297191,0.386565,-0.054656,54,285,568,5728
1644174637.063314,-0.009216,0.009644,-0.99054,0.388794,0.493435,-0.069924,62,279,578,5712
1644174637.10399,-0.010376,0.008484,-0.992737,0.281924,0.371298,-0.024122,57,273,579,5712
1644174637.150087,-0.010437,0.009888,-0.993713,0.312458,0.462901,-0.008855,58,283,580,5760
1644174637.198442,-0.010803,0.008728,-0.994141,0.251389,0.462901,-0.237863,46,274,573,5760
1644174637.246808,-0.009155,0.009155,-0.990784,0.190321,0.600305,-0.14626,49,273,565,5728
1644174637.295258,-0.009521,0.00946,-0.992371,0.342992,0.432366,0.036947,54,273,577,5712
1644174637.343629,-0.008057,0.008789,-0.992065,0.159786,0.462901,-0.039389,43,279,578,5760
1644174637.392011,-0.009888,0.009155,-0.990967,0.159786,0.569771,-0.039389,53,281,583,5760
1644174637.440396,-0.009705,0.010925,-0.993591,0.342992,0.310229,-0.161527,51,276,573,5760
1644174637.488785,-0.010071,0.008606,-0.993713,0.220855,0.386565,-0.069924,59,273,572,5760
1644174637.537171,-0.010376,0.010315,-0.994141,0.312458,0.310229,-0.100458,48,276,585,5824
1644174637.585559,-0.011597,0.009705,-0.99353,0.373527,0.386565,-0.008855,43,269,576,5728
1644174637.63393,-0.008911,0.010437,-0.990601,0.342992,0.417099,-0.115725,46,279,583,5696
1644174637.682328,-0.006226,0.008484,-0.991577,0.373527,0.417099,-0.069924,52,268,575,5840
1644174637.730955,-0.011963,0.010742,-0.992126,0.434595,0.523969,-0.115725,47,268,582,5712
1644174637.781775,-0.009216,0.011719,-0.991394,0.297191,0.432366,-0.054656,53,274,580,5776
1644174637.831594,-0.007385,0.008423,-0.992798,0.236122,0.386565,-0.237863,57,273,577,5808
1644174637.877479,-0.010986,0.006287,-0.993225,0.480397,0.447634,-0.161527,55,274,566,5728
1644174637.972749,-0.012024,0.010315,-0.991211,0.297191,0.340763,0.036947,48,279,578,5808
1644174638.021114,-0.010376,0.013367,-0.992065,0.220855,0.310229,-0.100458,59,260,575,5728
1644174638.072565,-0.012024,0.008789,-0.99231,0.404061,0.371298,-0.100458,48,271,583,5776
1644174638.117893,-0.008911,0.007751,-0.993225,0.297191,0.417099,-0.069924,47,275,570,5728
1644174638.166296,-0.012695,0.008545,-0.991089,0.052916,0.447634,-0.115725,46,266,576,5760
1644174638.214698,-0.009338,0.007874,-0.993469,0.327725,0.310229,0.052214,60,283,573,5712
1644174638.263088,-0.008972,0.009399,-0.989929,0.175053,0.539237,-0.268397,41,266,580,5760
1644174638.311443,-0.009583,0.009705,-0.990417,0.281924,0.508702,-0.237863,42,273,577,5728
1644174638.359857,-0.007874,0.009033,-0.992859,0.159786,0.478168,-0.14626,58,271,578,5760
1644174638.408254,-0.008423,0.008606,-0.992615,0.098718,0.447634,-0.069924,52,275,582,5776
1644174638.456645,-0.00885,0.010986,-0.993164,0.281924,0.417099,0.006412,52,275,563,5712
1644174638.505178,-0.008057,0.010193,-0.991943,0.281924,0.310229,-0.024122,52,277,584,5808
1644174638.553425,-0.011536,0.012939,-0.992126,0.251389,0.340763,-0.024122,53,276,578,5728
1644174638.601805,-0.010132,0.009277,-0.991455,0.236122,0.356031,-0.024122,51,276,576,5728
1644174638.650205,-0.011169,0.007202,-0.992065,0.373527,0.401832,-0.069924,59,285,572,5776
1644174638.698594,-0.010864,0.00824,-0.992737,0.266656,0.371298,-0.069924,46,274,583,5696
1644174638.746967,-0.012024,0.008972,-0.992554,0.129252,0.310229,-0.054656,53,274,576,5776
1644174638.795472,-0.007385,0.009277,-0.992065,0.220855,0.432366,0.067481,46,279,580,5840
1644174638.843981,-0.011414,0.011108,-0.988403,0.266656,0.356031,-0.100458,42,273,572,5712
1644174638.893917,-0.011169,0.011292,-0.99292,0.068183,0.294962,-0.024122,49,260,570,5776
1644174638.944002,-0.011963,0.010376,-0.990784,0.113985,0.508702,-0.024122,57,277,575,5728
1644174638.994355,-0.008362,0.009521,-0.990662,0.08345,0.340763,-0.115725,58,281,576,5728
1644174639.086059,-0.011658,0.01001,-0.99231,0.144519,0.371298,-0.008855,55,276,576,5760
1644174639.134082,-0.008484,0.007263,-0.992126,0.175053,0.233893,-0.207328,53,269,573,5728
1644174639.182472,-0.009644,0.010071,-0.99353,0.052916,0.462901,-0.25313,52,275,572,5808
1644174639.230853,-0.010071,0.012573,-0.993591,0.281924,0.325496,0.021679,47,285,575,5776
1644174639.279231,-0.008606,0.010803,-0.993103,0.175053,0.310229,-0.161527,49,282,575,5696
1644174639.32766,-0.011108,0.010376,-0.991516,0.266656,0.478168,-0.176794,53,274,580,5824
1644174639.376016,-0.011719,0.008057,-0.991943,0.236122,0.371298,0.052214,46,276,571,5728
1644174639.424428,-0.012268,0.010925,-0.992188,0.220855,0.554504,-0.085191,47,277,577,5728
1644174639.472823,-0.010132,0.01123,-0.992371,0.297191,0.294962,-0.054656,47,275,584,5728
1644174639.521192,-0.009705,0.008911,-0.990295,0.205588,0.508702,-0.207328,47,277,584,5760
1644174639.569613,-0.011047,0.009827,-0.991882,0.342992,0.554504,-0.14626,48,279,576,5808
1644174639.617987,-0.011475,0.005798,-0.992493,0.205588,0.325496,-0.176794,52,268,582,5728
1644174639.66635,-0.009949,0.009399,-0.993347,0.236122,0.356031,-0.176794,52,285,575,5840
1644174639.714754,-0.010498,0.00824,-0.990784,0.236122,0.417099,-0.130992,45,282,589,5776
1644174639.763151,-0.013733,0.007751,-0.994019,0.175053,0.646107,-0.024122,46,283,571,5712
1644174639.811584,-0.009338,0.009949,-0.99231,0.159786,0.24916,-0.176794,49,275,577,5696
1644174639.859974,-0.012695,0.008118,-0.990662,0.327725,0.325496,0.12855,55,276,585,5776
1644174639.908712,-0.011902,0.008057,-0.991943,0.190321,0.356031,-0.14626,51,274,576,5760
1644174639.956772,-0.011108,0.006531,-0.991943,0.281924,0.401832,-0.024122,62,269,576,5728
1644174640.006663,-0.010986,0.009155,-0.990967,0.297191,0.294962,-0.176794,54,275,582,5760
1644174640.077415,-0.01178,0.012085,-0.992004,0.220855,0.172824,-0.069924,57,277,582,5808
1644174640.114,-0.00885,0.011108,-0.992859,0.144519,0.432366,-0.100458,60,274,580,5696
1644174640.15135,-0.01178,0.010864,-0.991455,0.266656,0.447634,-0.100458,54,273,577,5728
1644174640.247056,-0.006348,0.01062,-0.990051,0.129252,0.279695,-0.115725,49,277,577,5760
1644174640.295436,-0.008972,0.009827,-0.991577,0.113985,0.417099,0.021679,62,276,566,5760
1644174640.343857,-0.011841,0.009277,-0.992981,0.220855,0.417099,-0.14626,58,264,578,5712
1644174640.392379,-0.00769,0.005676,-0.992126,0.190321,0.233893,-0.069924,51,279,573,5808
1644174640.440635,-0.010376,0.010925,-0.991577,0.388794,0.325496,-0.069924,49,282,575,5776
1644174640.489318,-0.009888,0.009521,-0.994568,0.098718,0.447634,-0.024122,59,280,577,5728
1644174640.537406,-0.01123,0.008911,-0.992371,0.236122,0.371298,-0.100458,52,275,579,5728
1644174640.585801,-0.007996,0.01239,-0.990723,0.266656,0.508702,-0.085191,45,282,577,5728
1644174640.634177,-0.012329,0.008667,-0.992737,0.236122,0.432366,-0.130992,55,279,587,5728
1644174640.682599,-0.011841,0.007507,-0.99353,0.297191,0.523969,0.036947,48,283,578,5696
1644174640.730978,-0.010925,0.00708,-0.99054,0.175053,0.264427,-0.14626,45,280,575,5808
1644174640.779367,-0.012695,0.006104,-0.992737,0.251389,0.417099,-0.085191,59,275,582,5648
1644174640.827798,-0.010193,0.009521,-0.989868,0.08345,0.417099,-0.054656,54,285,577,5760
1644174640.876189,-0.010437,0.008179,-0.994568,0.266656,0.279695,-0.130992,49,270,575,5776
1644174640.924628,-0.010925,0.007446,-0.991455,0.251389,0.417099,-0.115725,45,275,579,5808
1644174640.972979,-0.008728,0.009888,-0.991211,0.297191,0.462901,0.021679,49,268,582,5760
1644174641.021348,-0.009399,0.011597,-0.992188,0.190321,0.478168,-0.100458,58,264,585,5760
1644174641.09537,-0.009888,0.010498,-0.990906,0.266656,0.432366,-0.222595,51,276,580,5760
1644174641.119001,-0.009094,0.008362,-0.991089,0.327725,0.310229,-0.008855,53,269,571,5712
1644174641.214907,-0.006775,0.007874,-0.992676,0.35826,0.294962,-0.008855,48,281,583,5776
1644174641.263264,-0.010498,0.010376,-0.990601,0.297191,0.233893,-0.069924,45,265,584,5760
1644174641.31166,-0.010864,0.009521,-0.990662,0.190321,0.325496,-0.069924,46,271,585,5760
1644174641.360066,-0.009399,0.01123,-0.992004,0.205588,0.356031,-0.085191,58,274,571,5712
1644174641.40845,-0.01062,0.012024,-0.989868,0.251389,0.340763,-0.085191,55,279,573,5776
1644174641.45683,-0.009338,0.009644,-0.992249,0.037649,0.401832,-0.161527,54,273,577,5712
1644174641.505219,-0.009216,0.012268,-0.990173,0.236122,0.432366,-0.085191,48,279,566,5728
1644174641.553635,-0.009094,0.00824,-0.992188,0.266656,0.24916,-0.130992,48,279,566,5712
1644174641.602842,-0.007935,0.012939,-0.989014,0.08345,0.493435,0.036947,49,285,570,5776
1644174641.650404,-0.013245,0.008057,-0.991028,0.190321,0.356031,-0.14626,49,280,579,5760
1644174641.698794,-0.008789,0.01001,-0.992188,0.144519,0.417099,-0.024122,43,283,578,5776
1644174641.74719,-0.011047,0.009521,-0.99176,0.220855,0.539237,-0.207328,41,274,564,5728
1644174641.795577,-0.011536,0.006897,-0.992004,0.175053,0.218626,-0.329466,52,275,570,5776
1644174641.84402,-0.010986,0.008606,-0.988525,0.297191,0.294962,-0.161527,58,281,580,5696
1644174641.892412,-0.010742,0.010193,-0.992126,0.312458,0.294962,0.006412,43,271,580,5760
1644174641.940778,-0.008667,0.011169,-0.990845,0.205588,0.371298,-0.100458,45,273,579,5728
1644174641.989175,-0.008911,0.009583,-0.992554,0.251389,0.432366,-0.130992,47,277,582,5776
1644174642.037716,-0.011963,0.009399,-0.993225,0.159786,0.356031,0.067481,52,280,577,5808
1644174642.092063,-0.010498,0.009827,-0.994568,0.144519,0.493435,-0.085191,45,282,577,5776
1644174642.137787,-0.010437,0.008301,-0.99231,0.175053,0.539237,-0.115725,52,277,570,5760
1644174642.186346,-0.011902,0.010803,-0.991516,0.312458,0.417099,0.036947,48,269,585,5696
1644174642.23129,-0.011414,0.008484,-0.992981,0.35826,0.447634,-0.130992,52,275,577,5728
1644174642.327858,-0.012878,0.010132,-0.990784,0.129252,0.294962,-0.14626,51,286,576,5696
1644174642.376248,-0.010925,0.008911,-0.994812,0.190321,0.462901,-0.100458,49,273,572,5760
1644174642.424664,-0.009521,0.010193,-0.991638,0.46513,0.371298,0.021679,59,287,570,5776
1644174642.473048,-0.010132,0.007935,-0.989746,0.220855,0.401832,-0.268397,43,283,578,5776
1644174642.521436,-0.008789,0.009338,-0.990845,0.236122,0.371298,-0.100458,46,271,576,5760
1644174642.569827,-0.01062,0.00946,-0.991028,0.251389,0.432366,-0.039389,42,273,577,5728
1644174642.618227,-0.00769,0.01001,-0.991821,0.175053,0.447634,-0.024122,51,279,576,5776
1644174642.666609,-0.011475,0.010498,-0.99115,0.175053,0.447634,-0.161527,47,277,570,5728
1644174642.715217,-0.009338,0.007446,-0.994141,0.266656,0.401832,-0.176794,48,281,562,5760
1644174642.763405,-0.012085,0.00946,-0.994446,0.281924,0.417099,-0.008855,49,282,570,5696
1644174642.811785,-0.009338,0.009949,-0.993652,0.129252,0.401832,-0.14626,47,280,572,5760
1644174642.860224,-0.011047,0.008972,-0.991882,0.220855,0.310229,-0.039389,57,275,582,5808
1644174642.908605,-0.008606,0.010071,-0.99292,0.220855,0.386565,-0.039389,53,274,566,5808
1644174642.957002,-0.009033,0.011047,-0.992249,0.220855,0.340763,-0.085191,58,281,573,5696
1644174643.005367,-0.008057,0.010925,-0.992554,0.159786,0.340763,-0.268397,52,277,586,5760
1644174643.07448,-0.010986,0.011414,-0.991333,0.205588,0.401832,-0.054656,45,287,584,5760
1644174643.103891,-0.009216,0.011597,-0.991272,0.35826,0.493435,0.113282,45,282,577,5760
1644174643.150513,-0.010071,0.00885,-0.99292,0.236122,0.356031,-0.192061,55,286,585,5728
1644174643.198911,-0.011597,0.008179,-0.989563,0.236122,0.401832,-0.192061,45,265,582,5808
1644174643.247646,-0.009766,0.010193,-0.991333,0.175053,0.462901,-0.054656,49,273,584,5776
1644174643.298227,-0.008789,0.008728,-0.991638,0.266656,0.310229,-0.008855,49,275,572,5696
1644174643.348189,-0.00946,0.011292,-0.991577,0.266656,0.325496,-0.115725,39,276,587,5760
1644174643.393269,-0.008301,0.010437,-0.991516,0.144519,0.340763,-0.192061,57,273,575,5712
1644174643.489326,-0.009766,0.009521,-0.991943,0.098718,0.188092,-0.085191,47,282,565,5728
1644174643.537677,-0.010498,0.009583,-0.990601,0.419328,0.233893,-0.115725,45,282,579,5712
1644174643.58601,-0.010559,0.009888,-0.990845,0.251389,0.478168,0.021679,53,276,573,5712
1644174643.634433,-0.008057,0.009888,-0.992737,0.159786,0.462901,-0.130992,46,271,562,5808
1644174643.682836,-0.008179,0.010498,-0.990784,0.190321,0.401832,-0.054656,58,274,578,5728
1644174643.73121,-0.008789,0.010071,-0.991577,0.297191,0.233893,0.006412,55,281,571,5760
1644174643.779603,-0.011169,0.009766,-0.992798,0.236122,0.615573,-0.008855,45,277,572,5696
1644174643.828,-0.012451,0.00824,-0.991699,0.236122,0.325496,-0.069924,41,274,569,5808
1644174643.876423,-0.008972,0.013367,-0.991943,0.190321,0.371298,-0.054656,46,271,578,5776
1644174643.924817,-0.012085,0.009399,-0.992859,0.220855,0.294962,-0.115725,48,269,576,5776
1644174643.97323,-0.010437,0.009094,-0.993286,0.236122,0.24916,0.113282,45,270,572,5760
1644174644.021601,-0.01355,0.007507,-0.992554,0.342992,0.432366,-0.054656,55,281,573,5728
1644174644.074754,-0.010254,0.008667,-0.991699,0.190321,0.432366,0.021679,48,276,578,5776
1644174644.118359,-0.010925,0.008362,-0.991211,0.297191,0.432366,-0.024122,49,275,575,5728
1644174644.166738,-0.007996,0.007996,-0.989258,0.342992,0.554504,-0.085191,52,265,579,5808
1644174644.215161,-0.008728,0.009766,-0.993347,0.373527,0.24916,-0.024122,47,282,586,5712
1644174644.263502,-0.013672,0.009705,-0.99054,0.205588,0.493435,-0.176794,57,273,568,5712
1644174644.311877,-0.008179,0.010071,-0.992432,0.327725,0.401832,-0.100458,39,274,576,5760
1644174644.360301,-0.012695,0.008301,-0.989258,0.236122,0.386565,-0.024122,45,270,570,5696
1644174644.408912,-0.011536,0.009277,-0.992188,0.266656,0.432366,-0.069924,48,276,573,5776
1644174644.458779,-0.009766,0.007446,-0.994263,0.205588,0.340763,-0.085191,53,271,576,5728
1644174644.509183,-0.00946,0.008301,-0.991577,0.144519,0.340763,0.159084,58,285,579,5760
1644174644.554147,-0.010376,0.009155,-0.992004,0.220855,0.462901,-0.130992,46,279,571,5728
1644174644.650633,-0.009033,0.008545,-0.992126,0.08345,0.340763,-0.100458,48,286,573,5728
1644174644.699014,-0.007812,0.009033,-0.993958,0.236122,0.478168,-0.024122,45,273,575,5712
1644174644.747419,-0.00946,0.008789,-0.993469,0.266656,0.462901,0.006412,52,277,579,5696
1644174644.795786,-0.009949,0.00824,-0.996155,0.312458,0.447634,0.006412,42,275,575,5760
1644174644.844193,-0.012207,0.010071,-0.991821,0.068183,0.401832,0.067481,41,271,573,5712
1644174644.892646,-0.008911,0.011658,-0.990112,0.251389,0.386565,-0.161527,55,279,569,5728
1644174644.941021,-0.008911,0.008423,-0.992737,0.342992,0.371298,-0.176794,43,262,573,5728
1644174644.989421,-0.011536,0.009766,-0.993042,0.297191,0.310229,-0.054656,39,279,571,5760
1644174645.037802,-0.006836,0.012878,-0.992188,0.220855,0.508702,-0.085191,40,275,577,5840
1644174645.09229,-0.010071,0.009094,-0.994629,0.159786,0.310229,-0.008855,46,279,571,5776
1644174645.134733,-0.011353,0.00708,-0.991333,0.052916,0.356031,-0.176794,57,275,586,5776
1644174645.182955,-0.011719,0.010132,-0.986694,0.144519,0.24916,0.021679,46,281,566,5760
1644174645.231329,-0.011292,0.009949,-0.991821,0.297191,0.493435,-0.161527,51,271,576,5760
1644174645.279695,-0.010498,0.010132,-0.989807,0.251389,0.432366,0.036947,41,291,585,5728
1644174645.328112,-0.009216,0.008118,-0.99231,0.266656,0.340763,-0.054656,47,280,577,5728
1644174645.376541,-0.01001,0.010681,-0.992004,0.159786,0.462901,0.006412,45,275,575,5872
1644174645.425636,-0.009277,0.009338,-0.992188,0.297191,0.432366,-0.008855,51,266,580,5760
1644174645.476104,-0.013489,0.007996,-0.989685,0.220855,0.371298,-0.024122,52,282,572,5696
1644174645.526401,-0.00885,0.006592,-0.992249,0.220855,0.493435,-0.161527,41,274,580,5728
1644174645.571157,-0.013245,0.00946,-0.990173,0.251389,0.264427,-0.024122,51,264,576,5728
1644174645.666828,-0.012878,0.010132,-0.994141,0.205588,0.279695,-0.130992,58,271,576,5728
1644174645.71539,-0.009888,0.010193,-0.992065,0.190321,0.401832,-0.176794,54,270,572,5760
1644174645.763621,-0.008911,0.012024,-0.990601,0.236122,0.340763,-0.054656,49,280,586,5760
1644174645.812009,-0.008972,0.010681,-0.992737,0.159786,0.478168,0.006412,43,271,578,5696
1644174645.860393,-0.00946,0.009399,-0.993652,0.281924,0.447634,0.036947,45,275,565,5712
1644174645.908812,-0.009949,0.008484,-0.993347,0.251389,0.493435,-0.100458,62,264,571,5776
1644174645.957232,-0.010315,0.010681,-0.991699,0.251389,0.417099,-0.069924,52,273,568,5760
1644174646.005625,-0.010864,0.009399,-0.993958,0.205588,0.417099,-0.14626,59,282,570,5760
1644174646.064871,-0.009216,0.009155,-0.99176,0.175053,0.356031,-0.024122,52,277,575,5776
1644174646.105424,-0.012634,0.007812,-0.990234,0.312458,0.432366,-0.130992,47,280,579,5776
1644174646.150796,-0.008484,0.009949,-0.992371,0.236122,0.569771,-0.085191,57,277,572,5760
1644174646.199147,-0.009949,0.010193,-0.990601,0.342992,0.386565,0.067481,47,277,579,5728
1644174646.247532,-0.011414,0.011841,-0.993286,0.190321,0.279695,-0.115725,49,270,577,5696
1644174646.295894,-0.008362,0.006958,-0.992798,0.297191,0.508702,0.098015,49,285,568,5760
1644174646.344326,-0.012695,0.011353,-0.99054,0.388794,0.325496,-0.14626,48,276,573,5728
1644174646.392727,-0.010376,0.007507,-0.991272,0.205588,0.432366,0.036947,40,282,572,5808
1644174646.441102,-0.009827,0.008484,-0.99115,0.175053,0.325496,-0.14626,54,292,579,5760
1644174646.489516,-0.011353,0.009216,-0.993164,0.113985,0.447634,-0.069924,54,280,575,5776
1644174646.537878,-0.010193,0.007446,-0.992371,0.175053,0.417099,-0.207328,52,273,575,5760
1644174646.586821,-0.012146,0.009583,-0.991699,0.266656,0.264427,-0.039389,58,271,578,5712
1644174646.637555,-0.010071,0.007324,-0.991333,0.236122,0.386565,0.159084,52,285,584,5728
1644174646.68739,-0.010437,0.008118,-0.992737,0.312458,0.493435,0.006412,54,275,565,5728
1644174646.732448,-0.010803,0.010925,-0.993774,0.266656,0.432366,-0.039389,48,274,569,5776
1644174646.828208,-0.011169,0.010315,-0.99054,0.297191,0.356031,-0.039389,53,269,571,5760
1644174646.87659,-0.009521,0.008728,-0.993713,0.281924,0.386565,-0.069924,49,280,579,5728
1644174646.925195,-0.010193,0.012146,-0.991821,0.236122,0.417099,-0.085191,47,285,575,5760
1644174646.97345,-0.006714,0.008423,-0.990723,0.434595,0.386565,-0.069924,52,273,572,5728
1644174647.021838,-0.009644,0.009155,-0.990662,0.220855,0.508702,-0.008855,43,274,578,5712
1644174647.072525,-0.008362,0.009644,-0.991272,0.205588,0.356031,0.021679,61,280,577,5776
1644174647.11857,-0.009155,0.008423,-0.991638,0.220855,0.371298,-0.100458,51,281,573,5808
1644174647.166956,-0.007385,0.009705,-0.990845,0.297191,0.478168,0.067481,48,262,576,5696
1644174647.215353,-0.01123,0.010925,-0.993835,0.236122,0.447634,-0.054656,51,283,578,5664
1644174647.26374,-0.01001,0.008423,-0.994324,0.236122,0.432366,0.006412,47,280,579,5776
1644174647.312234,-0.011353,0.006348,-0.995056,0.342992,0.340763,0.006412,55,274,569,5712
1644174647.360524,-0.008545,0.007446,-0.988586,0.251389,0.432366,-0.207328,47,270,577,5760
1644174647.40893,-0.010864,0.008484,-0.99054,0.159786,0.401832,-0.100458,47,277,582,5760
1644174647.457314,-0.009094,0.008972,-0.989319,0.404061,0.294962,-0.069924,51,271,569,5776
1644174647.50571,-0.009216,0.007385,-0.991394,0.08345,0.478168,-0.039389,43,279,576,5712
1644174647.554071,-0.010376,0.011658,-0.990784,0.220855,0.432366,-0.192061,48,279,583,5808
1644174647.602501,-0.008789,0.008667,-0.991333,0.297191,0.386565,0.067481,47,280,563,5728
1644174647.65086,-0.008972,0.011047,-0.988647,0.251389,0.462901,-0.085191,53,274,578,5760
1644174647.699265,-0.009949,0.012939,-0.991516,0.205588,0.417099,-0.024122,48,266,580,5712
1644174647.747997,-0.008545,0.009583,-0.989075,0.373527,0.447634,-0.054656,55,274,587,5696
1644174647.799408,-0.008118,0.010681,-0.992798,0.251389,0.478168,-0.024122,47,275,579,5760
1644174647.849374,-0.008972,0.008789,-0.995056,0.266656,0.386565,-0.085191,53,286,592,5696
1644174647.894004,-0.009827,0.010559,-0.993042,0.266656,0.386565,-0.161527,54,277,582,5728
1644174647.989656,-0.011536,0.01123,-0.99176,0.175053,0.294962,-0.161527,53,271,585,5776
1644174648.038037,-0.011475,0.007568,-0.98938,0.297191,0.294962,-0.176794,46,283,576,5776
1644174648.087599,-0.009155,0.007751,-0.99408,0.129252,0.432366,-0.176794,54,273,584,5648
1644174648.134793,-0.010986,0.007996,-0.993408,0.312458,0.432366,-0.100458,43,276,573,5760
1644174648.183159,-0.007751,0.009644,-0.991394,0.236122,0.356031,0.006412,46,274,576,5808
1644174648.231563,-0.012268,0.009766,-0.993286,0.236122,0.356031,-0.069924,58,274,576,5824
1644174648.279934,-0.008911,0.011108,-0.991333,0.129252,0.432366,0.006412,58,271,576,5776
1644174648.328342,-0.01062,0.009583,-0.99231,0.175053,0.356031,-0.069924,40,275,579,5760
1644174648.376746,-0.009521,0.009766,-0.989746,0.220855,0.386565,-0.100458,48,274,571,5712
1644174648.42524,-0.010803,0.009644,-0.992004,0.220855,0.417099,-0.024122,49,275,579,5696
1644174648.473543,-0.011536,0.009338,-0.991333,0.281924,0.523969,-0.039389,51,269,576,5776
1644174648.521925,-0.010681,0.008057,-0.992249,0.08345,0.462901,-0.008855,42,270,582,5760
1644174648.570307,-0.009705,0.009827,-0.992798,0.236122,0.325496,-0.039389,62,269,585,5776
1644174648.618699,-0.009338,0.005981,-0.99231,0.281924,0.233893,-0.085191,43,269,573,5728
1644174648.667089,-0.008789,0.00769,-0.992432,0.266656,0.386565,-0.008855,43,262,564,5840
1644174648.715475,-0.008545,0.01123,-0.989075,0.129252,0.401832,0.006412,53,271,583,5776
1644174648.763856,-0.009338,0.012756,-0.992188,0.220855,0.401832,-0.008855,52,273,584,5760
1644174648.812317,-0.009277,0.01062,-0.987976,0.495664,0.539237,-0.039389,53,269,583,5760
1644174648.861053,-0.009949,0.01062,-0.991516,0.251389,0.478168,0.021679,52,270,579,5760
1644174648.910406,-0.010681,0.00946,-0.990662,0.266656,0.432366,-0.14626,53,262,578,5712
1644174648.960983,-0.009644,0.010498,-0.991821,0.205588,0.508702,-0.100458,49,273,591,5760
1644174649.066939,-0.009766,0.009644,-0.991821,-0.008153,0.386565,-0.039389,53,264,580,5712
1644174649.106834,-0.008667,0.010986,-0.990845,0.144519,0.401832,-0.069924,42,285,575,5712
1644174649.150993,-0.010498,0.009888,-0.993286,0.312458,0.371298,-0.237863,45,275,577,5696
1644174649.199398,-0.011963,0.009094,-0.99115,0.342992,0.585038,-0.115725,55,266,580,5808
1644174649.247744,-0.008789,0.008301,-0.99176,0.312458,0.478168,-0.069924,52,285,575,5728
1644174649.296187,-0.01001,0.012451,-0.990723,0.327725,0.447634,0.067481,43,274,578,5728
1644174649.344546,-0.008484,0.009583,-0.992188,0.144519,0.493435,-0.039389,55,274,578,5712
1644174649.392973,-0.007935,0.009644,-0.992493,0.068183,0.401832,0.067481,52,270,586,5728
1644174649.441318,-0.009521,0.008606,-0.991516,0.220855,0.478168,-0.14626,52,273,584,5728
1644174649.489753,-0.009766,0.010559,-0.993896,0.281924,0.508702,-0.161527,43,274,573,5760
1644174649.538118,-0.009827,0.010681,-0.993286,0.129252,0.447634,0.006412,48,274,576,5808
1644174649.586535,-0.009521,0.012695,-0.990723,0.220855,0.325496,-0.008855,48,281,592,5712
1644174649.634967,-0.010315,0.011658,-0.99054,0.297191,0.356031,-0.14626,45,280,570,5776
1644174649.684972,-0.010925,0.009705,-0.992065,0.236122,0.493435,-0.14626,49,285,563,5696
1644174649.73517,-0.01062,0.01123,-0.988831,0.205588,0.447634,-0.024122,49,277,579,5760
1644174649.780107,-0.010986,0.008728,-0.991699,0.312458,0.523969,-0.130992,48,274,569,5728
1644174649.87687,-0.010498,0.008667,-0.99115,0.190321,0.294962,-0.161527,51,276,580,5760
1644174649.92544,-0.007446,0.011658,-0.991821,0.175053,0.340763,-0.130992,49,273,582,5728
1644174649.973681,-0.006714,0.009888,-0.990601,0.251389,0.462901,-0.085191,49,280,577,5808
1644174650.022044,-0.012146,0.012207,-0.992981,-0.02342,0.401832,-0.039389,52,270,582,5776
1644174650.070611,-0.006409,0.007751,-0.990723,0.129252,0.325496,-0.14626,55,281,576,5808
1644174650.118765,-0.01123,0.007996,-0.991455,0.327725,0.325496,-0.115725,59,280,582,5776
1644174650.167194,-0.013184,0.008362,-0.992126,0.190321,0.24916,-0.176794,51,279,573,5696
1644174650.215592,-0.009521,0.009094,-0.994568,0.327725,0.462901,-0.115725,46,283,580,5696
1644174650.263984,-0.009827,0.011475,-0.993286,0.342992,0.447634,-0.222595,40,273,568,5728
1644174650.312376,-0.00946,0.008911,-0.99231,0.297191,0.325496,-0.024122,53,269,566,5728
1644174650.360769,-0.012268,0.010071,-0.992493,0.098718,0.310229,-0.130992,53,281,578,5760
1644174650.409176,-0.012085,0.01001,-0.992249,0.037649,0.554504,-0.161527,47,273,579,5760
1644174650.457554,-0.00769,0.009644,-0.993347,0.266656,0.325496,-0.237863,49,277,584,5760
1644174650.505921,-0.010315,0.011353,-0.993774,0.327725,0.386565,-0.207328,60,276,576,5776
1644174650.554336,-0.011047,0.008057,-0.993347,0.129252,0.356031,0.036947,43,274,578,5776
1644174650.602758,-0.010498,0.008728,-0.992737,0.113985,0.386565,-0.130992,46,266,590,5760
1644174650.651111,-0.011353,0.011902,-0.991333,0.144519,0.279695,-0.008855,48,279,576,5728
1644174650.699478,-0.01355,0.009521,-0.991577,0.220855,0.478168,0.021679,45,263,579,5728
1644174650.747872,-0.012329,0.00885,-0.991272,0.220855,0.508702,-0.085191,51,279,573,5776
1644174650.797628,-0.011658,0.007629,-0.992859,0.266656,0.294962,-0.176794,49,282,582,5760
1644174650.848162,-0.009644,0.010742,-0.992371,0.35826,0.401832,-0.054656,53,276,569,5760
1644174650.898581,-0.00946,0.010986,-0.98938,0.175053,0.523969,-0.207328,52,277,584,5776
1644174650.942945,-0.010315,0.008362,-0.990845,0.281924,0.417099,-0.115725,58,279,571,5728
1644174651.038266,-0.011047,0.011047,-0.993103,0.205588,0.447634,-0.100458,48,269,578,5760
1644174651.08735,-0.009216,0.007812,-0.99292,0.129252,0.386565,-0.176794,61,277,579,5712
1644174651.135395,-0.011047,0.011353,-0.989258,0.236122,0.356031,-0.161527,55,281,571,5776
1644174651.183417,-0.006592,0.007263,-0.992126,0.388794,0.493435,-0.130992,54,270,577,5760
1644174651.231807,-0.009094,0.007629,-0.992615,0.220855,0.447634,-0.207328,51,266,576,5712
1644174651.28019,-0.013672,0.012085,-0.993286,0.404061,0.401832,-0.069924,46,274,583,5696
1644174651.328571,-0.009827,0.010925,-0.99115,0.236122,0.325496,-0.054656,49,275,563,5776
1644174651.376982,-0.009888,0.008667,-0.991394,0.113985,0.462901,-0.130992,51,271,569,5712
1644174651.425351,-0.009033,0.010132,-0.989441,0.266656,0.371298,-0.25313,47,277,579,5760
1644174651.473768,-0.011047,0.01001,-0.991455,0.205588,0.401832,-0.130992,45,282,577,5728
1644174651.522225,-0.009583,0.010742,-0.99176,0.190321,0.294962,-0.115725,54,270,579,5712
1644174651.570546,-0.012146,0.007996,-0.991882,0.266656,0.310229,-0.115725,52,277,570,5776
1644174651.618937,-0.008423,0.009094,-0.990784,0.159786,0.371298,0.067481,53,269,580,5760
1644174651.667319,-0.011169,0.008789,-0.991089,0.342992,0.462901,-0.100458,52,270,582,5824
1644174651.71572,-0.01001,0.008484,-0.993103,0.35826,0.325496,0.067481,58,271,583,5776
1644174651.764106,-0.006958,0.010925,-0.992615,0.266656,0.417099,-0.039389,48,269,569,5808
1644174651.812519,-0.01062,0.009094,-0.98822,0.220855,0.417099,-0.14626,49,280,577,5760
1644174651.861262,-0.010437,0.011536,-0.991943,0.190321,0.310229,-0.130992,48,276,583,5728
1644174651.909549,-0.008972,0.009277,-0.992554,0.190321,0.371298,-0.008855,49,277,579,5728
1644174651.959909,-0.012573,0.011169,-0.994629,0.327725,0.279695,-0.130992,45,275,570,5728
1644174652.067822,-0.012451,0.009216,-0.990295,0.281924,0.340763,-0.008855,52,275,579,5664
1644174652.106384,-0.014221,0.009094,-0.993774,0.312458,0.340763,-0.085191,51,281,576,5760
1644174652.151236,-0.011108,0.007019,-0.994324,0.251389,0.264427,0.006412,46,281,580,5760
1644174652.199611,-0.009766,0.006531,-0.994995,0.251389,0.462901,-0.192061,46,269,576,5760
1644174652.248019,-0.012512,0.010132,-0.993225,0.098718,0.356031,-0.14626,49,273,596,5728
1644174652.296407,-0.010071,0.009033,-0.994934,0.220855,0.264427,-0.085191,54,277,577,5808
1644174652.344981,-0.013367,0.010742,-0.990845,0.205588,0.294962,-0.100458,38,273,577,5696
1644174652.393183,-0.01178,0.007812,-0.993774,0.190321,0.508702,0.006412,53,271,573,5808
1644174652.441577,-0.008362,0.007935,-0.992676,0.205588,0.447634,0.082748,62,279,580,5776
1644174652.489989,-0.011475,0.007568,-0.990234,0.342992,0.462901,-0.085191,52,277,577,5728
1644174652.538357,-0.011963,0.006836,-0.993103,0.113985,0.478168,-0.069924,54,277,584,5808
1644174652.586796,-0.010925,0.009155,-0.993103,0.251389,0.401832,-0.130992,49,270,572,5776
1644174652.637291,-0.012207,0.008789,-0.992371,0.281924,0.554504,-0.100458,52,275,572,5776
1644174652.687855,-0.008545,0.009094,-0.991821,0.236122,0.417099,-0.085191,49,270,586,5696
1644174652.732626,-0.008911,0.009033,-0.992737,0.236122,0.401832,-0.085191,57,275,570,5808
1644174652.828688,-0.012878,0.009094,-0.994812,0.281924,0.294962,-0.085191,55,266,571,5728
1644174652.87712,-0.009338,0.008484,-0.990906,0.251389,0.401832,-0.161527,43,271,576,5760
1644174652.925535,-0.012817,0.01123,-0.993286,0.35826,0.310229,-0.100458,49,277,582,5760
1644174652.973903,-0.010376,0.005859,-0.991821,0.404061,0.585038,0.067481,49,270,572,5760
1644174653.022332,-0.009094,0.012634,-0.993774,0.236122,0.310229,-0.039389,48,266,573,5776
1644174653.074133,-0.010132,0.009155,-0.988586,0.098718,0.218626,-0.176794,52,282,572,5776
1644174653.119063,-0.008545,0.01001,-0.994751,0.312458,0.371298,-0.039389,43,283,576,5760
1644174653.167471,-0.012207,0.011169,-0.991028,0.190321,0.554504,-0.161527,51,271,571,5696
1644174653.215848,-0.011658,0.008484,-0.994751,0.205588,0.493435,-0.222595,49,277,584,5712
1644174653.264256,-0.009033,0.009155,-0.988159,0.236122,0.325496,-0.100458,48,276,590,5728
1644174653.312674,-0.010132,0.009216,-0.995544,0.251389,0.279695,-0.130992,43,269,578,5712
1644174653.361049,-0.014038,0.008179,-0.991089,0.236122,0.279695,0.006412,48,274,576,5760
1644174653.409448,-0.009766,0.00885,-0.989441,0.144519,0.417099,-0.100458,53,283,578,5696
1644174653.457829,-0.01178,0.00647,-0.992737,0.205588,0.417099,-0.085191,46,274,569,5696
1644174653.506196,-0.010559,0.009155,-0.992432,0.052916,0.417099,-0.176794,52,275,584,5824
1644174653.555172,-0.010498,0.010193,-0.993042,0.220855,0.340763,-0.130992,60,269,585,5712
1644174653.603036,-0.008728,0.009094,-0.991943,0.297191,0.493435,-0.130992,60,266,578,5728
1644174653.651417,-0.008911,0.009949,-0.991882,0.144519,0.432366,0.052214,47,268,572,5728
1644174653.699791,-0.00824,0.007812,-0.993835,0.220855,0.523969,-0.008855,47,273,570,5728
1644174653.749601,-0.011292,0.011963,-0.991882,0.312458,0.462901,-0.054656,52,273,577,5648
1644174653.800537,-0.011353,0.008179,-0.990295,0.251389,0.417099,-0.115725,53,266,571,5760
1644174653.850633,-0.009766,0.007874,-0.989746,0.327725,0.417099,-0.161527,52,275,572,5760
1644174653.894801,-0.01062,0.009766,-0.990662,0.251389,0.340763,0.006412,51,279,576,5760
1644174653.990126,-0.012939,0.006592,-0.993652,0.144519,0.539237,0.067481,51,286,576,5760
1644174654.038515,-0.008301,0.011475,-0.993408,0.480397,0.371298,-0.054656,49,280,568,5776
1644174654.086943,-0.008911,0.010193,-0.992004,0.144519,0.447634,-0.100458,54,275,579,5808
1644174654.135255,-0.010681,0.009399,-0.993652,0.327725,0.386565,-0.14626,51,274,573,5808
1644174654.183656,-0.011536,0.009766,-0.99115,0.052916,0.417099,-0.14626,40,277,577,5728
1644174654.232054,-0.009949,0.006592,-0.991089,0.205588,0.371298,-0.039389,51,271,578,5696
1644174654.280408,-0.010559,0.008972,-0.992126,0.373527,0.325496,-0.161527,58,266,573,5712
1644174654.328832,-0.009705,0.007996,-0.991211,0.144519,0.371298,-0.069924,46,279,566,5808
1644174654.377217,-0.010132,0.009521,-0.992126,0.312458,0.279695,-0.192061,58,274,571,5776
1644174654.425612,-0.010376,0.013184,-0.992615,0.236122,0.340763,0.021679,51,288,585,5712
1644174654.473988,-0.008179,0.007996,-0.993286,0.35826,0.371298,0.006412,48,276,583,5808
1644174654.52241,-0.010437,0.008179,-0.992554,0.373527,0.554504,-0.085191,54,277,582,5808
1644174654.570773,-0.008545,0.01001,-0.992737,0.144519,0.203359,-0.115725,52,277,586,5712
1644174654.619162,-0.013245,0.008484,-0.991455,0.251389,0.447634,-0.130992,53,274,585,5808
1644174654.667561,-0.009277,0.011963,-0.990295,0.144519,0.478168,0.036947,59,275,577,5712
1644174654.715958,-0.011292,0.01001,-0.994141,0.266656,0.447634,0.021679,62,269,580,5728
1644174654.764345,-0.009155,0.010925,-0.992188,0.251389,0.371298,-0.192061,47,275,572,5808
1644174654.812815,-0.013489,0.010986,-0.993286,0.159786,0.233893,-0.069924,46,279,583,5808
1644174654.862403,-0.009766,0.009705,-0.990356,0.220855,0.294962,-0.085191,58,283,577,5664
1644174654.912591,-0.013916,0.007385,-0.991943,0.08345,0.447634,-0.069924,45,275,582,5776
1644174654.962706,-0.011353,0.008545,-0.992432,0.297191,0.401832,-0.085191,57,270,577,5760
1644174655.065291,-0.010986,0.008362,-0.992493,0.373527,0.432366,-0.161527,61,277,570,5760
1644174655.105772,-0.010681,0.008118,-0.98999,0.251389,0.462901,-0.14626,48,271,585,5776
1644174655.151474,-0.010071,0.011536,-0.993774,0.266656,0.172824,-0.130992,47,275,565,5776
1644174655.199859,-0.011108,0.009277,-0.992615,0.266656,0.401832,-0.161527,54,265,577,5712
1644174655.248238,-0.01001,0.009033,-0.992432,0.175053,0.508702,-0.268397,52,273,579,5808
1644174655.296642,-0.009155,0.008179,-0.993225,0.129252,0.462901,-0.008855,51,266,566,5712
1644174655.345154,-0.009705,0.008545,-0.993286,0.236122,0.447634,-0.069924,52,263,579,5760
1644174655.393423,-0.009094,0.008362,-0.991516,0.220855,0.462901,-0.008855,46,281,583,5712
1644174655.441814,-0.010437,0.011536,-0.99469,0.220855,0.264427,-0.069924,46,271,576,5712
1644174655.490213,-0.011597,0.007935,-0.990112,0.266656,0.508702,-0.039389,65,264,587,5760
1644174655.538566,-0.011902,0.009338,-0.992371,0.098718,0.417099,-0.054656,53,283,576,5728
1644174655.586984,-0.010681,0.008301,-0.993652,0.144519,0.447634,-0.054656,43,266,583,5760
1644174655.635391,-0.00708,0.00946,-0.992676,0.175053,0.356031,-0.176794,53,276,573,5808
1644174655.68408,-0.010742,0.01123,-0.99231,0.281924,0.432366,-0.054656,51,274,587,5712
1644174655.732867,-0.01062,0.00647,-0.993408,0.281924,0.340763,-0.008855,49,270,579,5712
1644174655.783435,-0.010193,0.008606,-0.990723,0.220855,0.447634,-0.14626,51,274,573,5696
1644174655.829503,-0.013,0.011047,-0.992859,0.236122,0.264427,0.021679,55,269,578,5664
1644174655.925765,-0.012451,0.009766,-0.99231,0.190321,0.447634,-0.069924,51,276,576,5808
1644174655.974158,-0.010803,0.01062,-0.996338,0.251389,0.340763,-0.024122,55,271,576,5760
1644174656.022559,-0.01239,0.00824,-0.994385,0.266656,0.386565,-0.192061,54,277,577,5696
1644174656.074916,-0.007446,0.010681,-0.989868,0.297191,0.218626,-0.054656,46,269,580,5808
1644174656.11931,-0.010376,0.010681,-0.992615,0.236122,0.585038,-0.115725,57,280,577,5712
1644174656.167652,-0.009644,0.01062,-0.992249,0.220855,0.432366,-0.161527,53,286,569,5776
1644174656.21606,-0.012329,0.01001,-0.993713,0.281924,0.386565,-0.14626,48,288,592,5808
1644174656.264472,-0.007874,0.007324,-0.994812,0.175053,0.356031,-0.024122,41,276,576,5696
1644174656.312876,-0.007507,0.010681,-0.990723,0.08345,0.279695,-0.054656,51,274,569,5808
1644174656.361256,-0.009888,0.01062,-0.990906,0.312458,0.447634,-0.039389,53,274,573,5760
1644174656.409639,-0.011353,0.007263,-0.991394,0.327725,0.386565,-0.085191,49,268,584,5728
1644174656.458036,-0.009583,0.008972,-0.992798,0.327725,0.279695,-0.069924,59,287,591,5712
1644174656.506426,-0.009644,0.010498,-0.992188,0.388794,0.432366,-0.130992,54,277,572,5760
1644174656.55483,-0.011292,0.010925,-0.992065,0.205588,0.401832,-0.237863,55,279,576,5760
1644174656.603189,-0.011414,0.009399,-0.994934,0.144519,0.417099,-0.390534,51,276,578,5760
1644174656.651575,-0.01239,0.007446,-0.992126,0.159786,0.462901,0.052214,53,279,580,5760
1644174656.699985,-0.010803,0.009277,-0.99469,0.190321,0.508702,-0.039389,58,274,576,5760
1644174656.748363,-0.009644,0.006714,-0.992798,0.205588,0.523969,0.021679,47,273,584,5824
1644174656.796769,-0.012024,0.009399,-0.991028,0.220855,0.478168,-0.207328,47,273,582,5728
1644174656.846282,-0.010376,0.012756,-0.992249,0.175053,0.493435,-0.008855,55,274,578,5728
1644174656.897098,-0.012329,0.008362,-0.993225,0.159786,0.294962,-0.024122,57,277,579,5760
1644174656.947171,-0.010254,0.007751,-0.993958,0.266656,0.539237,-0.115725,54,270,568,5776
1644174656.991593,-0.008118,0.008667,-0.989685,0.236122,0.371298,-0.161527,53,271,576,5696
1644174657.087245,-0.011108,0.006897,-0.994263,0.251389,0.508702,-0.161527,68,280,575,5728
1644174657.135495,-0.010498,0.008484,-0.99115,0.327725,0.401832,-0.100458,59,273,577,5760
1644174657.183893,-0.012085,0.007019,-0.992065,0.342992,0.462901,-0.130992,51,274,578,5664
1644174657.232388,-0.010071,0.011963,-0.989197,0.236122,0.462901,-0.039389,54,282,575,5728
1644174657.280641,-0.005981,0.008362,-0.991272,0.281924,0.310229,0.021679,47,270,579,5840
1644174657.32904,-0.009827,0.009521,-0.990845,0.266656,0.462901,-0.085191,42,270,575,5760
1644174657.377457,-0.009949,0.01123,-0.991882,0.236122,0.294962,-0.176794,49,275,577,5728
1644174657.425824,-0.011536,0.010071,-0.990845,0.266656,0.371298,-0.130992,48,286,590,5776
1644174657.474234,-0.007874,0.011108,-0.992493,0.297191,0.386565,-0.176794,46,271,576,5728
1644174657.522605,-0.009521,0.00885,-0.991882,0.251389,0.340763,-0.024122,55,283,576,5712
1644174657.571005,-0.009583,0.005798,-0.993286,0.281924,0.24916,-0.085191,43,281,585,5728
1644174657.619421,-0.011108,0.009827,-0.99054,0.236122,0.386565,0.036947,42,270,570,5696
1644174657.667798,-0.009399,0.010437,-0.99231,0.342992,0.508702,-0.115725,49,270,579,5808
1644174657.716193,-0.009705,0.009277,-0.994324,0.480397,0.340763,-0.024122,53,271,585,5760
1644174657.76463,-0.011963,0.008667,-0.991577,0.144519,0.432366,-0.085191,55,276,573,5824
1644174657.812985,-0.008606,0.007507,-0.994263,0.236122,0.508702,-0.054656,54,273,575,5776
1644174657.861411,-0.012146,0.007935,-0.991272,0.281924,0.371298,-0.14626,51,283,578,5760
1644174657.90985,-0.008545,0.006226,-0.990234,0.312458,0.508702,-0.115725,47,282,575,5776
1644174657.958232,-0.010376,0.011719,-0.990723,0.251389,0.401832,-0.008855,54,277,570,5760
1644174658.008456,-0.010925,0.007751,-0.991882,0.190321,0.462901,-0.115725,51,274,571,5760
1644174658.07226,-0.00885,0.011963,-0.987915,0.236122,0.233893,-0.085191,61,273,568,5776
1644174658.114117,-0.012573,0.010376,-0.991699,0.297191,0.325496,-0.008855,51,269,583,5808
1644174658.200108,-0.010986,0.00824,-0.9953,0.220855,0.447634,-0.024122,46,279,576,5824
1644174658.248474,-0.01062,0.009949,-0.993408,0.281924,0.447634,-0.192061,47,277,579,5776
1644174658.296875,-0.010315,0.009094,-0.989441,0.220855,0.340763,-0.207328,51,271,578,5760
1644174658.345261,-0.012512,0.010498,-0.993774,0.449863,0.493435,-0.008855,51,271,576,5696
1644174658.393669,-0.009216,0.010132,-0.991272,0.312458,0.417099,-0.14626,49,270,575,5808
1644174658.44206,-0.01239,0.008972,-0.991821,0.388794,0.493435,-0.115725,52,275,577,5760
1644174658.490454,-0.01123,0.008972,-0.994751,0.205588,0.508702,-0.207328,58,271,573,5712
1644174658.538809,-0.013672,0.007324,-0.99353,0.236122,0.401832,-0.115725,46,279,576,5824
1644174658.58723,-0.011108,0.013428,-0.991455,0.220855,0.401832,-0.176794,54,265,570,5696
1644174658.635619,-0.008606,0.010132,-0.992493,0.297191,0.233893,0.021679,53,274,578,5824
1644174658.684037,-0.010559,0.009399,-0.99408,0.113985,0.401832,-0.069924,43,274,569,5808
1644174658.732417,-0.010986,0.008667,-0.990784,0.068183,0.569771,-0.054656,46,286,590,5760
1644174658.780931,-0.010254,0.009094,-0.991699,0.312458,0.279695,0.006412,49,280,582,5728
1644174658.829185,-0.013062,0.01123,-0.993774,0.281924,0.447634,-0.222595,47,268,575,5776
1644174658.87762,-0.00946,0.011169,-0.992065,0.190321,0.340763,-0.176794,42,268,589,5808
1644174658.926009,-0.008301,0.008484,-0.990601,0.266656,0.508702,-0.130992,53,274,583,5776
1644174658.974397,-0.009399,0.007385,-0.992371,0.159786,0.417099,0.052214,49,287,591,5760
1644174659.023038,-0.011414,0.010254,-0.992493,0.327725,0.508702,-0.14626,45,273,577,5776
1644174659.092318,-0.013184,0.006042,-0.991394,0.312458,0.371298,-0.069924,40,277,589,5776
1644174659.125097,-0.008911,0.01001,-0.993713,0.144519,0.401832,0.036947,45,275,579,5808
1644174659.216326,-0.008789,0.008057,-0.99408,0.144519,0.462901,-0.130992,54,270,579,5760
1644174659.264866,-0.01001,0.007996,-0.992432,0.373527,0.432366,0.006412,48,276,573,5760
1644174659.313107,-0.008728,0.010376,-0.993774,0.388794,0.371298,-0.069924,51,279,573,5728
1644174659.361459,-0.008179,0.008667,-0.989197,0.342992,0.432366,-0.039389,40,273,577,5760
1644174659.409876,-0.009583,0.01239,-0.991394,0.144519,0.386565,-0.115725,49,280,577,5712
1644174659.45825,-0.009338,0.008972,-0.992188,0.144519,0.371298,0.036947,48,264,576,5728
1644174659.506635,-0.011963,0.010254,-0.99408,0.388794,0.157557,-0.192061,52,277,579,5808
1644174659.55507,-0.010559,0.009827,-0.99469,0.373527,0.447634,-0.130992,59,277,584,5728
1644174659.60344,-0.012512,0.009155,-0.992981,0.342992,0.417099,-0.100458,59,275,572,5696
1644174659.651831,-0.008545,0.009766,-0.992432,0.251389,0.386565,-0.176794,49,273,575,5808
1644174659.700218,-0.011292,0.008118,-0.994446,0.327725,0.554504,-0.024122,54,277,579,5776
1644174659.748581,-0.007141,0.010315,-0.989563,0.175053,0.386565,-0.14626,40,265,570,5760
1644174659.797011,-0.009155,0.013306,-0.993713,0.297191,0.539237,-0.100458,49,277,579,5760
1644174659.845396,-0.007996,0.009705,-0.992554,0.220855,0.386565,-0.115725,43,276,585,5712
1644174659.893826,-0.010437,0.008728,-0.990906,0.220855,0.417099,-0.100458,47,277,572,5808
1644174659.942305,-0.011719,0.01123,-0.990356,0.297191,0.523969,-0.085191,48,271,585,5760
1644174659.990594,-0.010437,0.006775,-0.993835,0.190321,0.401832,-0.14626,49,273,582,5760
1644174660.038999,-0.007874,0.010132,-0.989197,0.236122,0.325496,-0.039389,51,271,573,5808
1644174660.099386,-0.007629,0.010071,-0.991882,0.205588,0.325496,-0.054656,52,280,579,5808
1644174660.136788,-0.009216,0.010193,-0.991272,0.434595,0.401832,0.12855,47,263,572,5776
1644174660.187059,-0.011658,0.009705,-0.993103,0.281924,0.432366,-0.176794,51,274,585,5776
1644174660.237226,-0.011108,0.009644,-0.993835,0.144519,0.386565,-0.161527,52,270,568,5712
1644174660.281836,-0.010742,0.010742,-0.989319,0.297191,0.340763,-0.085191,52,280,579,5760
1644174660.377739,-0.011963,0.009094,-0.989685,0.175053,0.310229,-0.085191,40,282,582,5808
1644174660.42611,-0.008423,0.010132,-0.9953,0.205588,0.401832,-0.207328,41,276,571,5728
1644174660.474519,-0.008179,0.011047,-0.992554,0.281924,0.325496,-0.161527,47,268,572,5808
1644174660.522913,-0.012573,0.007019,-0.992188,0.251389,0.417099,-0.161527,53,274,580,5760
1644174660.57128,-0.010315,0.00708,-0.990845,0.297191,0.417099,-0.069924,54,282,577,5760
1644174660.619688,-0.008667,0.010864,-0.990845,0.144519,0.554504,-0.176794,58,269,578,5760
1644174660.668077,-0.009705,0.008545,-0.991638,0.113985,0.371298,0.036947,41,271,583,5760
1644174660.716471,-0.007812,0.009766,-0.99115,0.144519,0.417099,-0.054656,51,274,569,5824
1644174660.764858,-0.01416,0.008972,-0.991394,0.35826,0.294962,-0.176794,57,275,568,5760
1644174660.813257,-0.010437,0.008972,-0.993164,0.129252,0.508702,-0.069924,45,277,570,5760
1644174660.861638,-0.011353,0.008362,-0.993896,0.144519,0.401832,-0.25313,47,268,579,5760
1644174660.91003,-0.011414,0.00824,-0.993896,0.327725,0.401832,0.036947,52,265,575,5776
1644174660.958422,-0.010803,0.00824,-0.992126,0.404061,0.401832,-0.14626,42,270,570,5808
1644174661.006789,-0.011475,0.008911,-0.991821,0.404061,0.325496,-0.085191,38,270,579,5776
1644174661.071256,-0.011292,0.008423,-0.991638,0.342992,0.523969,-0.039389,47,282,572,5696
1644174661.106096,-0.009705,0.010803,-0.992554,0.251389,0.432366,0.006412,52,265,584,5728
1644174661.15195,-0.010254,0.007629,-0.990173,0.205588,0.310229,-0.085191,47,275,570,5776
1644174661.200321,-0.011597,0.010254,-0.993896,0.190321,0.356031,-0.14626,57,268,575,5728
1644174661.249037,-0.010742,0.009949,-0.994019,0.08345,0.447634,0.052214,53,279,576,5712
1644174661.298001,-0.009216,0.007507,-0.991211,0.205588,0.386565,-0.024122,52,277,579,5760
1644174661.348574,-0.010315,0.007812,-0.993042,0.205588,0.478168,-0.054656,51,269,580,5776
1644174661.398646,-0.009949,0.007812,-0.99115,0.190321,0.478168,-0.161527,53,264,571,5712
1644174661.490709,-0.009766,0.010254,-0.99231,0.297191,0.493435,-0.115725,51,274,573,5728
1644174661.539067,-0.009094,0.007874,-0.992493,0.281924,0.310229,-0.207328,45,273,577,5776
1644174661.587456,-0.01062,0.010437,-0.993713,0.236122,0.340763,-0.130992,51,279,578,5776
1644174661.635843,-0.011169,0.008728,-0.991028,0.113985,0.386565,-0.039389,45,277,575,5696
1644174661.68427,-0.010803,0.010071,-0.992249,0.312458,0.462901,-0.024122,59,275,577,5760
1644174661.73265,-0.012878,0.009521,-0.991882,0.220855,0.294962,-0.130992,57,275,579,5728
1644174661.781042,-0.008606,0.010498,-0.991333,0.098718,0.462901,-0.085191,49,275,565,5776
1644174661.829444,-0.010315,0.012207,-0.989685,0.159786,0.417099,-0.161527,47,273,579,5712
1644174661.877851,-0.010803,0.010803,-0.994568,0.281924,0.325496,-0.039389,47,277,572,5760
1644174661.926235,-0.008423,0.01123,-0.989746,0.113985,0.279695,-0.115725,47,263,558,5760
1644174661.974719,-0.010254,0.008728,-0.991516,0.281924,0.432366,-0.054656,42,273,577,5728
1644174662.023048,-0.012634,0.00769,-0.991272,0.175053,0.356031,-0.024122,54,282,579,5808
1644174662.084143,-0.008484,0.011597,-0.99054,0.35826,0.279695,-0.039389,54,275,575,5776
1644174662.121726,-0.012329,0.009521,-0.990601,0.220855,0.294962,-0.039389,57,275,584,5776
1644174662.171854,-0.008179,0.008972,-0.993835,0.251389,0.508702,-0.192061,48,276,576,5760
1644174662.216985,-0.011414,0.006897,-0.995239,0.098718,0.569771,-0.192061,53,274,569,5728
1644174662.313347,-0.010193,0.00946,-0.993103,0.220855,0.478168,-0.192061,49,275,579,5728
1644174662.3617,-0.007935,0.011047,-0.991943,0.327725,0.493435,-0.161527,52,270,570,5712
1644174662.410107,-0.010925,0.011414,-0.992126,0.220855,0.356031,0.052214,52,282,582,5808
1644174662.458498,-0.010681,0.010376,-0.992065,0.373527,0.386565,-0.039389,60,279,569,5824
1644174662.506881,-0.010071,0.010193,-0.994019,0.327725,0.417099,-0.207328,61,280,589,5760
1644174662.555278,-0.013184,0.011169,-0.991272,0.052916,0.401832,-0.130992,62,264,590,5776
1644174662.60368,-0.009216,0.008728,-0.993896,0.175053,0.478168,-0.14626,45,263,570,5808
1644174662.65207,-0.008423,0.007446,-0.993896,0.327725,0.294962,0.036947,47,277,584,5760
1644174662.700468,-0.010376,0.009338,-0.990784,0.266656,0.340763,0.067481,52,270,572,5776
1644174662.748826,-0.012085,0.005554,-0.990723,0.297191,0.539237,-0.115725,52,273,579,5776
1644174662.797256,-0.011841,0.008118,-0.994568,0.144519,0.325496,-0.054656,51,276,573,5712
1644174662.845666,-0.009521,0.009216,-0.991333,0.220855,0.356031,0.036947,55,276,590,5760
1644174662.894044,-0.009399,0.00824,-0.99054,0.281924,0.462901,-0.130992,62,271,578,5760
1644174662.942466,-0.011292,0.010437,-0.991577,0.144519,0.310229,-0.14626,62,269,585,5712
1644174662.990863,-0.007935,0.009338,-0.992859,0.205588,0.462901,-0.024122,54,268,589,5776
1644174663.03921,-0.011047,0.009888,-0.991089,0.190321,0.401832,-0.024122,58,274,564,5728
1644174663.094989,-0.011292,0.009094,-0.993225,0.220855,0.310229,-0.069924,55,279,578,5664
1644174663.135942,-0.011414,0.01062,-0.992432,0.388794,0.447634,-0.085191,48,269,578,5728
1644174663.184371,-0.012085,0.012695,-0.995117,0.190321,0.401832,-0.14626,62,269,583,5760
1644174663.233121,-0.009033,0.008911,-0.993103,0.113985,0.325496,-0.100458,40,268,570,5760
1644174663.283595,-0.010925,0.008606,-0.992188,0.281924,0.462901,-0.161527,43,274,580,5728
1644174663.33382,-0.013611,0.008301,-0.994141,0.205588,0.386565,-0.268397,47,265,586,5824
1644174663.378877,-0.008545,0.009949,-0.994629,0.175053,0.462901,0.006412,46,269,573,5728
1644174663.474867,-0.010376,0.006653,-0.992981,0.220855,0.386565,-0.100458,49,290,579,5712
1644174663.523107,-0.012207,0.009277,-0.98999,0.236122,0.401832,-0.100458,46,271,576,5728
1644174663.571491,-0.011719,0.010132,-0.991943,0.190321,0.386565,-0.100458,46,281,578,5712
1644174663.619898,-0.008484,0.010254,-0.992981,0.312458,0.371298,-0.054656,49,275,582,5760
1644174663.668274,-0.011902,0.007568,-0.992798,0.404061,0.172824,-0.054656,55,283,573,5712
1644174663.716663,-0.009888,0.010681,-0.99408,0.35826,0.325496,-0.130992,51,264,580,5712
1644174663.765087,-0.009949,0.007019,-0.993103,0.297191,0.447634,-0.130992,58,274,571,5776
1644174663.813455,-0.01239,0.007996,-0.993774,0.251389,0.447634,-0.039389,55,279,571,5728
1644174663.861882,-0.009277,0.009399,-0.994446,0.35826,0.264427,-0.115725,47,277,577,5712
1644174663.91028,-0.010193,0.008789,-0.99408,0.404061,0.371298,-0.100458,60,271,576,5664
1644174663.958668,-0.006836,0.008545,-0.992065,0.022382,0.478168,-0.069924,45,282,575,5776
1644174664.007065,-0.008179,0.007385,-0.992432,0.312458,0.493435,-0.069924,49,275,579,5776
1644174664.069456,-0.011597,0.012573,-0.99054,0.220855,0.432366,-0.008855,51,281,583,5728
1644174664.106545,-0.009277,0.012268,-0.992004,0.297191,0.371298,-0.024122,48,276,587,5696
1644174664.152251,-0.009888,0.00824,-0.992065,0.373527,0.432366,-0.085191,49,280,572,5728
1644174664.200591,-0.008301,0.01123,-0.991638,0.297191,0.508702,-0.192061,47,268,591,5776
1644174664.24897,-0.009705,0.010803,-0.991516,0.113985,0.447634,-0.161527,51,271,580,5712
1644174664.297365,-0.013,0.006897,-0.992126,0.08345,0.493435,-0.222595,54,277,582,5760
1644174664.345729,-0.012024,0.008179,-0.992737,0.266656,0.371298,-0.161527,46,274,566,5760
1644174664.394797,-0.009521,0.006897,-0.991577,0.266656,0.386565,-0.024122,52,277,582,5776
1644174664.444391,-0.011658,0.008667,-0.992004,0.297191,0.310229,-0.100458,54,275,577,5696
1644174664.495384,-0.009399,0.011169,-0.992004,0.281924,0.569771,0.021679,58,274,578,5760
1644174664.539855,-0.011597,0.009277,-0.990601,0.220855,0.462901,0.006412,51,274,578,5728
1644174664.63608,-0.008911,0.011963,-0.995117,0.297191,0.432366,-0.192061,45,270,579,5760
1644174664.684507,-0.008728,0.011292,-0.990356,0.205588,0.325496,-0.14626,62,276,576,5808
1644174664.732891,-0.010315,0.007935,-0.991211,0.312458,0.447634,-0.024122,51,283,573,5728
1644174664.781236,-0.010132,0.008118,-0.994385,0.342992,0.417099,-0.115725,57,273,575,5840
1644174664.829651,-0.01239,0.008423,-0.989319,0.175053,0.279695,-0.085191,48,276,573,5760
1644174664.878072,-0.011902,0.010071,-0.992249,0.236122,0.462901,-0.085191,51,276,576,5824
1644174664.926481,-0.009644,0.01062,-0.991516,0.205588,0.24916,0.12855,48,274,571,5776
1644174664.974883,-0.009766,0.007385,-0.992493,0.281924,0.340763,-0.100458,38,282,575,5760
1644174665.023281,-0.009338,0.00946,-0.992798,0.098718,0.462901,-0.268397,47,273,568,5808
1644174665.075864,-0.011047,0.011108,-0.992432,0.434595,0.432366,-0.054656,54,275,577,5760
1644174665.120071,-0.010742,0.00769,-0.992676,0.297191,0.432366,-0.085191,55,281,576,5696
1644174665.168407,-0.011597,0.009277,-0.991272,0.312458,0.356031,-0.085191,53,281,585,5760
1644174665.216796,-0.012512,0.011597,-0.992493,0.205588,0.523969,-0.100458,43,271,573,5712
1644174665.265215,-0.011658,0.005188,-0.99176,0.220855,0.462901,-0.14626,58,291,583,5760
1644174665.313555,-0.010315,0.00885,-0.993408,0.281924,0.279695,-0.115725,48,274,585,5760
1644174665.361961,-0.010742,0.009827,-0.990112,0.190321,0.462901,-0.085191,48,283,576,5824
1644174665.410358,-0.013245,0.009094,-0.99408,0.236122,0.264427,0.098015,62,276,571,5808
1644174665.458739,-0.008789,0.009155,-0.990356,0.297191,0.447634,-0.207328,49,285,579,5808
1644174665.507137,-0.007263,0.009216,-0.990051,0.236122,0.508702,-0.115725,39,274,576,5776
1644174665.555771,-0.009827,0.008972,-0.993164,0.236122,0.294962,-0.100458,38,282,577,5696
1644174665.605803,-0.013916,0.009888,-0.994385,0.205588,0.340763,-0.176794,49,273,572,5696
1644174665.656168,-0.009338,0.010498,-0.989685,0.113985,0.401832,-0.054656,53,276,578,5776
1644174665.701199,-0.009399,0.008972,-0.99292,0.251389,0.356031,-0.115725,55,274,573,5760
1644174665.797454,-0.012634,0.009827,-0.992859,0.251389,0.371298,-0.130992,54,280,575,5760
1644174665.845835,-0.012329,0.008545,-0.990234,0.190321,0.417099,-0.100458,41,274,580,5776
1644174665.894302,-0.011841,0.007996,-0.992126,0.175053,0.447634,-0.14626,48,276,583,5712
1644174665.942695,-0.008911,0.01001,-0.992676,0.236122,0.447634,-0.100458,59,265,572,5776
1644174665.99108,-0.006592,0.010742,-0.990723,0.129252,0.371298,-0.039389,48,279,564,5760
1644174666.039465,-0.012146,0.009216,-0.992554,0.266656,0.447634,0.006412,51,281,564,5760
1644174666.087914,-0.010132,0.009888,-0.993896,0.205588,0.356031,-0.161527,38,275,582,5760
1644174666.136243,-0.012329,0.00824,-0.991516,0.312458,0.432366,-0.054656,48,279,562,5760
1644174666.184689,-0.010681,0.005615,-0.99115,0.46513,0.386565,-0.161527,41,286,566,5728
1644174666.23301,-0.010132,0.008728,-0.995361,0.190321,0.401832,-0.054656,42,277,579,5760
1644174666.281387,-0.010071,0.011108,-0.992371,0.113985,0.294962,0.052214,47,282,577,5712
1644174666.329772,-0.010193,0.010864,-0.99408,0.220855,0.386565,-0.115725,47,275,579,5728
1644174666.378145,-0.009216,0.010803,-0.990479,0.35826,0.432366,-0.176794,58,281,576,5728
1644174666.426909,-0.010925,0.014343,-0.993042,0.281924,0.386565,-0.192061,57,277,584,5728
1644174666.475317,-0.010925,0.009277,-0.992798,0.327725,0.462901,-0.085191,52,282,579,5760
1644174666.524654,-0.010437,0.008118,-0.99231,0.312458,0.356031,-0.268397,53,274,578,5696
1644174666.574966,-0.008911,0.007935,-0.992676,0.159786,0.447634,-0.115725,45,270,570,5696
1644174666.625186,-0.010681,0.008667,-0.99231,0.190321,0.386565,-0.008855,49,275,584,5696
1644174666.71692,-0.01239,0.009216,-0.992126,0.144519,0.356031,-0.100458,48,274,578,5808
1644174666.765371,-0.010498,0.007263,-0.993347,0.251389,0.523969,-0.054656,54,263,577,5664
1644174666.813675,-0.010132,0.010437,-0.991089,0.327725,0.417099,-0.268397,52,280,568,5664
1644174666.862081,-0.011169,0.008789,-0.988647,0.312458,0.447634,-0.085191,36,281,571,5728
1644174666.910494,-0.009216,0.008301,-0.993042,0.190321,0.508702,-0.054656,48,266,569,5760
1644174666.9589,-0.010498,0.007996,-0.992676,0.251389,0.554504,-0.100458,43,279,571,5808
1644174667.007291,-0.010864,0.008179,-0.992798,0.190321,0.386565,-0.069924,39,274,576,5776
1644174667.069615,-0.008179,0.009399,-0.990295,0.220855,0.356031,0.265954,46,283,564,5776
1644174667.10415,-0.009644,0.009644,-0.992676,0.220855,0.432366,-0.161527,43,269,583,5696
1644174667.152474,-0.010254,0.01178,-0.990601,0.297191,0.371298,-0.100458,53,283,571,5728
1644174667.200809,-0.012695,0.006165,-0.993164,0.236122,0.386565,-0.176794,40,277,579,5760
1644174667.249193,-0.011536,0.007507,-0.992432,0.327725,0.356031,-0.115725,48,279,580,5776
