epoch,acc_x,acc_y,acc_z,rot_x,rot_y,rot_z,mag_x,mag_y,mag_z,temp
1644183300.03964,-0.007263,0.008301,-0.992371,0.022382,0.432366,-0.069924,41,271,578,6224
1644183300.088072,-0.008667,0.005737,-0.990784,0.159786,0.325496,-0.161527,48,279,592,6240
1644183300.136371,-0.009521,0.00885,-0.992676,0.190321,0.478168,-0.115725,55,269,569,6224
1644183300.184796,-0.011414,0.010315,-0.991028,0.35826,0.294962,-0.054656,47,277,572,6176
1644183300.233185,-0.007202,0.008118,-0.990234,0.236122,0.371298,-0.008855,49,268,582,6176
1644183300.281542,-0.006348,0.008972,-0.991943,0.08345,0.432366,-0.115725,39,276,583,6256
1644183300.32997,-0.010376,0.008606,-0.99054,0.327725,0.310229,-0.115725,49,287,579,6160
1644183300.378342,-0.007629,0.010803,-0.989929,0.190321,0.462901,0.174351,48,276,576,6240
1644183300.42674,-0.007202,0.01001,-0.994324,0.281924,0.294962,-0.176794,52,270,584,6176
1644183300.475279,-0.008667,0.01062,-0.991211,0.129252,0.386565,-0.207328,47,285,579,6176
1644183300.523545,-0.008728,0.010986,-0.990051,0.220855,0.432366,-0.329466,52,270,584,6224
1644183300.571924,-0.009583,0.009827,-0.989807,0.251389,0.264427,-0.069924,49,280,586,6176
1644183300.620306,-0.00592,0.010986,-0.990784,0.037649,0.325496,-0.085191,57,282,591,6224
1644183300.668702,-0.007385,0.008484,-0.993713,0.129252,0.356031,0.006412,47,275,579,6192
1644183300.717104,-0.008301,0.011169,-0.993408,0.159786,0.401832,-0.054656,40,275,589,6224
1644183300.765492,-0.007324,0.010315,-0.990723,0.281924,0.417099,-0.192061,41,271,587,6192
1644183300.813938,-0.006592,0.012451,-0.99115,0.236122,0.386565,-0.176794,49,263,579,6224
1644183300.862663,-0.00824,0.010803,-0.989624,0.236122,0.401832,-0.085191,51,264,583,6128
1644183300.91073,-0.008301,0.007202,-0.990295,0.220855,0.294962,0.021679,41,262,576,6176
1644183300.960688,-0.008362,0.01123,-0.992432,0.373527,0.325496,-0.069924,42,280,584,6192
1644183301.064913,-0.008118,0.010986,-0.990662,0.312458,0.386565,-0.130992,58,283,585,6128
1644183301.106954,-0.008118,0.010437,-0.991516,0.327725,0.417099,-0.054656,52,280,593,6160
1644183301.152639,-0.008484,0.006958,-0.992798,0.327725,0.539237,-0.024122,43,259,576,6256
1644183301.201036,-0.008972,0.01123,-0.991577,-0.008153,0.371298,-0.100458,46,276,580,6224
1644183301.249401,-0.009033,0.010071,-0.991821,0.098718,0.462901,-0.008855,47,275,586,6176
1644183301.297825,-0.007751,0.006592,-0.993652,0.297191,0.462901,-0.100458,53,281,585,6128
1644183301.346206,-0.008484,0.008606,-0.99231,0.342992,0.432366,0.021679,42,277,591,6176
1644183301.394702,-0.008789,0.010437,-0.992188,0.205588,0.493435,-0.008855,49,280,593,6160
1644183301.443013,-0.009766,0.009399,-0.991455,0.220855,0.462901,-0.14626,58,266,576,6224
1644183301.491774,-0.007202,0.00824,-0.991211,0.08345,0.447634,-0.161527,55,274,592,6224
1644183301.539774,-0.006592,0.010925,-0.990295,0.175053,0.340763,-0.115725,42,277,584,6128
1644183301.58816,-0.01001,0.010742,-0.99231,0.220855,0.310229,-0.222595,54,268,591,6160
1644183301.636554,-0.010986,0.008789,-0.993652,0.068183,0.462901,-0.085191,53,274,587,6304
1644183301.684996,-0.007568,0.009766,-0.992493,0.205588,0.279695,-0.207328,47,275,579,6256
1644183301.733514,-0.011475,0.01001,-0.991394,0.068183,0.447634,-0.115725,52,287,582,6160
1644183301.782851,-0.008118,0.009644,-0.992493,0.312458,0.432366,-0.192061,51,276,576,6176
1644183301.835649,-0.005249,0.012207,-0.992432,0.113985,0.417099,-0.024122,47,268,575,6160
1644183301.878582,-0.006287,0.01123,-0.989197,0.113985,0.508702,-0.100458,51,291,580,6240
1644183301.975483,-0.007446,0.013123,-0.991394,0.098718,0.325496,0.082748,52,273,577,6160
1644183302.023776,-0.005188,0.009399,-0.987,0.144519,0.340763,-0.008855,58,276,587,6224
1644183302.072268,-0.007019,0.008301,-0.989868,0.220855,0.417099,-0.115725,47,265,591,6160
1644183302.120513,-0.008972,0.011047,-0.990784,0.266656,0.386565,-0.115725,55,281,580,6224
1644183302.168861,-0.007935,0.008728,-0.988892,0.144519,0.264427,-0.130992,46,276,576,6224
1644183302.217273,-0.010986,0.011108,-0.990356,0.236122,0.417099,-0.100458,47,280,575,6192
1644183302.265668,-0.008789,0.010376,-0.989868,0.144519,0.508702,-0.069924,48,274,585,6080
1644183302.314048,-0.010071,0.007996,-0.991577,0.175053,0.294962,-0.207328,54,280,586,6176
1644183302.362471,-0.009766,0.010803,-0.992371,0.251389,0.478168,-0.100458,46,279,583,6176
1644183302.410856,-0.005798,0.011475,-0.990601,0.144519,0.279695,-0.115725,57,273,577,6192
1644183302.459246,-0.007629,0.00885,-0.988708,0.251389,0.417099,-0.207328,58,266,583,6176
1644183302.507613,-0.008667,0.009399,-0.992188,0.312458,0.478168,-0.130992,53,274,578,6176
1644183302.556019,-0.004944,0.013184,-0.990356,0.098718,0.325496,-0.14626,51,274,583,6176
1644183302.604436,-0.006836,0.010071,-0.992188,0.266656,0.432366,-0.085191,52,280,584,6224
1644183302.652818,-0.010376,0.008545,-0.993347,0.190321,0.386565,-0.176794,41,271,587,6176
1644183302.701209,-0.007874,0.011536,-0.991211,0.159786,0.432366,-0.130992,55,283,594,6112
1644183302.749575,-0.007874,0.010376,-0.991638,0.220855,0.386565,-0.130992,53,271,583,6176
1644183302.797985,-0.009277,0.010315,-0.990845,0.312458,0.340763,-0.14626,40,280,579,6176
1644183302.846649,-0.006836,0.010376,-0.994507,0.190321,0.447634,-0.039389,47,275,589,6240
1644183302.896288,-0.007996,0.012146,-0.991638,0.251389,0.462901,-0.085191,48,279,583,6224
1644183302.946196,-0.007141,0.009399,-0.99353,0.08345,0.340763,-0.085191,42,292,589,6128
1644183302.997012,-0.007263,0.011475,-0.990601,0.220855,0.356031,0.082748,49,270,586,6224
1644183303.04092,-0.009033,0.012146,-0.991821,0.08345,0.401832,-0.069924,55,274,585,6224
1644183303.136769,-0.010498,0.009155,-0.991272,0.327725,0.371298,0.006412,47,277,579,6192
1644183303.185179,-0.007263,0.012573,-0.991333,0.175053,0.218626,0.036947,53,269,580,6192
1644183303.233533,-0.00531,0.011902,-0.991028,-0.008153,0.462901,-0.024122,51,274,580,6224
1644183303.281917,-0.007019,0.009155,-0.99115,0.144519,0.325496,-0.115725,52,277,582,6192
1644183303.330312,-0.009399,0.00946,-0.991089,0.129252,0.417099,-0.115725,52,275,577,6192
1644183303.378696,-0.008667,0.008667,-0.990479,0.327725,0.432366,-0.100458,43,276,573,6192
1644183303.427104,-0.008057,0.008118,-0.992493,0.251389,0.417099,-0.100458,45,275,582,6224
1644183303.475482,-0.008545,0.007874,-0.990295,0.007115,0.279695,0.052214,49,277,579,6224
1644183303.523892,-0.007446,0.010986,-0.99115,0.159786,0.432366,-0.100458,45,275,577,6160
1644183303.572246,-0.006958,0.010803,-0.991577,0.236122,0.401832,0.036947,45,280,584,6128
1644183303.620681,-0.006958,0.01123,-0.991577,0.236122,0.417099,0.036947,46,274,592,6240
1644183303.669065,-0.006287,0.012817,-0.991882,0.220855,0.371298,-0.100458,49,270,582,6176
1644183303.717463,-0.008362,0.009949,-0.991028,0.220855,0.401832,-0.100458,48,271,587,6160
1644183303.765854,-0.00946,0.007812,-0.993286,0.144519,0.493435,-0.222595,52,270,579,6128
1644183303.814251,-0.005859,0.010559,-0.992859,0.190321,0.310229,-0.115725,59,275,582,6224
1644183303.8627,-0.010864,0.011108,-0.989746,0.220855,0.417099,-0.176794,53,271,580,6224
1644183303.911041,-0.004761,0.007751,-0.990051,0.159786,0.417099,-0.085191,45,285,589,6192
1644183303.959456,-0.00769,0.010254,-0.992371,0.190321,0.325496,-0.039389,42,273,593,6192
1644183304.058127,-0.008972,0.012756,-0.989502,0.159786,0.325496,-0.039389,45,270,591,6224
1644183304.104712,-0.006836,0.007874,-0.99176,0.205588,0.340763,-0.100458,51,281,590,6192
1644183304.153046,-0.010254,0.00946,-0.990479,0.129252,0.340763,-0.207328,43,281,573,6160
1644183304.201358,-0.007874,0.007507,-0.990662,0.205588,0.325496,-0.222595,47,270,575,6176
1644183304.249757,-0.006714,0.010742,-0.990845,0.373527,0.356031,-0.085191,45,275,582,6224
1644183304.298166,-0.006165,0.009521,-0.991394,0.129252,0.24916,-0.069924,46,269,576,6224
1644183304.346564,-0.008179,0.008545,-0.990112,0.113985,0.508702,0.036947,45,285,582,6224
1644183304.395072,-0.007874,0.009277,-0.991455,-0.02342,0.325496,-0.25313,59,285,582,6192
1644183304.443373,-0.008789,0.009155,-0.990662,0.297191,0.432366,-0.130992,40,275,586,6176
1644183304.492228,-0.006897,0.009766,-0.990051,0.068183,0.447634,-0.008855,46,288,580,6160
1644183304.540127,-0.007874,0.009583,-0.993958,0.35826,0.325496,-0.115725,61,273,582,6224
1644183304.588528,-0.00708,0.007019,-0.989929,0.190321,0.478168,-0.130992,54,277,579,6192
1644183304.636928,-0.008728,0.009644,-0.98999,0.220855,0.371298,0.067481,55,276,580,6128
1644183304.685313,-0.008484,0.011108,-0.990662,0.098718,0.432366,-0.085191,54,280,589,6224
1644183304.733701,-0.006897,0.011658,-0.989075,0.327725,0.371298,-0.054656,45,282,584,6192
1644183304.782151,-0.007202,0.010071,-0.990845,0.190321,0.417099,-0.115725,55,262,578,6160
1644183304.830817,-0.010559,0.006531,-0.99054,0.236122,0.432366,0.036947,57,270,584,6192
1644183304.880965,-0.00885,0.011108,-0.994324,0.266656,0.417099,-0.207328,43,276,585,6240
1644183304.930723,-0.008972,0.009094,-0.990906,0.159786,0.447634,-0.161527,47,277,591,6240
1644183304.981076,-0.008789,0.00946,-0.990479,0.236122,0.310229,-0.100458,47,275,596,6192
1644183305.073328,-0.00769,0.010132,-0.990723,0.175053,0.356031,-0.054656,46,283,580,6160
1644183305.120874,-0.009399,0.01062,-0.987061,0.266656,0.462901,-0.069924,45,263,572,6240
1644183305.169272,-0.008057,0.010925,-0.991577,0.144519,0.279695,-0.130992,54,277,582,6224
1644183305.217684,-0.007629,0.011292,-0.99176,0.205588,0.401832,-0.192061,52,273,586,6192
1644183305.266054,-0.009827,0.011963,-0.98938,0.144519,0.401832,-0.085191,42,282,589,6192
1644183305.314462,-0.011597,0.011536,-0.990479,0.236122,0.417099,-0.085191,43,266,566,6160
1644183305.362864,-0.004822,0.008911,-0.992981,0.129252,0.340763,-0.192061,49,273,577,6256
1644183305.411249,-0.007385,0.01001,-0.991699,0.205588,0.356031,-0.024122,42,282,584,6224
1644183305.459627,-0.010193,0.011169,-0.990234,0.113985,0.386565,-0.100458,47,270,579,6224
1644183305.508029,-0.008606,0.01062,-0.992981,0.113985,0.401832,-0.069924,52,275,584,6224
1644183305.556425,-0.008606,0.012024,-0.993347,0.312458,0.417099,-0.161527,59,265,586,6192
1644183305.60481,-0.005615,0.010681,-0.990234,0.404061,0.615573,-0.100458,52,270,582,6160
1644183305.65322,-0.008484,0.01178,-0.993835,0.281924,0.508702,-0.176794,47,273,572,6192
1644183305.701596,-0.005676,0.007324,-0.991272,0.205588,0.447634,-0.085191,47,268,584,6160
1644183305.749981,-0.009277,0.008484,-0.988831,0.266656,0.310229,-0.237863,49,290,584,6128
1644183305.798383,-0.007446,0.011047,-0.992065,0.281924,0.493435,-0.024122,46,269,585,6176
1644183305.846778,-0.008179,0.010193,-0.992126,0.113985,0.325496,-0.054656,53,281,604,6192
1644183305.895258,-0.007935,0.008423,-0.98877,0.144519,0.310229,-0.192061,57,277,589,6176
1644183305.94379,-0.005798,0.007812,-0.99054,0.190321,0.310229,-0.069924,47,285,593,6256
1644183305.994879,-0.008667,0.008728,-0.990356,0.266656,0.417099,-0.024122,45,275,589,6224
1644183306.044461,-0.010986,0.01001,-0.990723,0.388794,0.493435,0.006412,48,266,583,6176
1644183306.093898,-0.008118,0.011719,-0.98877,0.266656,0.417099,-0.069924,51,283,590,6160
1644183306.18549,-0.008179,0.010559,-0.991211,0.052916,0.523969,-0.054656,48,283,583,6176
1644183306.233903,-0.008606,0.011108,-0.990295,0.190321,0.478168,-0.039389,49,277,584,6192
1644183306.282398,-0.005798,0.007812,-0.990295,0.312458,0.356031,-0.115725,49,280,589,6160
1644183306.33067,-0.008179,0.012512,-0.990051,0.205588,0.554504,-0.069924,52,282,579,6176
1644183306.379058,-0.007019,0.010803,-0.99292,0.251389,0.386565,-0.069924,51,271,578,6128
1644183306.427447,-0.004395,0.009277,-0.989868,0.144519,0.24916,-0.222595,49,282,572,6240
1644183306.475829,-0.007874,0.010681,-0.991455,0.037649,0.401832,-0.268397,49,270,575,6176
1644183306.524238,-0.007629,0.011841,-0.990845,0.236122,0.401832,-0.054656,48,276,576,6224
1644183306.572656,-0.007446,0.011047,-0.990173,0.190321,0.294962,0.052214,41,276,576,6160
1644183306.621064,-0.010376,0.009216,-0.989868,0.068183,0.401832,-0.085191,41,279,583,6160
1644183306.669428,-0.009399,0.010315,-0.993225,0.129252,0.310229,-0.192061,53,274,576,6192
1644183306.717808,-0.007263,0.012146,-0.988464,0.08345,0.310229,-0.085191,41,274,576,6192
1644183306.766205,-0.00946,0.008423,-0.988953,0.297191,0.432366,-0.069924,54,277,584,6176
1644183306.814681,-0.007935,0.013123,-0.989868,0.266656,0.523969,-0.192061,51,281,594,6160
1644183306.863049,-0.008301,0.006226,-0.991333,0.113985,0.386565,-0.069924,42,275,579,6192
1644183306.911414,-0.008118,0.011658,-0.991272,0.175053,0.325496,-0.054656,46,279,590,6224
1644183306.95981,-0.008972,0.009033,-0.992065,0.297191,0.508702,-0.085191,49,280,591,6128
1644183307.00853,-0.008118,0.011841,-0.992126,0.327725,0.386565,-0.100458,51,271,576,6224
1644183307.070443,-0.004944,0.011108,-0.992981,0.297191,0.523969,-0.222595,55,281,597,6176
1644183307.111092,-0.009583,0.012146,-0.990173,0.144519,0.417099,-0.024122,57,277,575,6240
1644183307.156294,-0.008118,0.011902,-0.99054,0.297191,0.417099,-0.100458,58,276,585,6176
1644183307.206562,-0.011047,0.009888,-0.991089,0.327725,0.447634,-0.207328,53,274,594,6192
1644183307.251107,-0.005737,0.007446,-0.992126,0.175053,0.417099,-0.054656,45,275,584,6192
1644183307.346894,-0.009521,0.012512,-0.987671,0.159786,0.371298,0.052214,51,279,590,6224
1644183307.395408,-0.010376,0.010193,-0.990601,0.312458,0.417099,0.021679,47,273,575,6256
1644183307.443707,-0.013184,0.009949,-0.991089,0.159786,0.310229,-0.085191,42,277,584,6240
1644183307.492387,-0.007141,0.008423,-0.99054,0.236122,0.401832,-0.161527,49,280,582,6224
1644183307.540494,-0.00769,0.012085,-0.991394,0.251389,0.401832,0.067481,43,286,583,6160
1644183307.588882,-0.005249,0.008911,-0.990295,0.342992,0.371298,-0.054656,52,280,589,6224
1644183307.637263,-0.006958,0.009216,-0.989136,0.281924,0.356031,-0.069924,46,281,573,6128
1644183307.685669,-0.006775,0.009705,-0.99176,0.08345,0.508702,-0.130992,49,277,577,6240
1644183307.734083,-0.006653,0.010559,-0.99176,0.35826,0.600305,0.006412,51,264,587,6224
1644183307.782475,-0.007019,0.011963,-0.994385,0.190321,0.401832,-0.069924,39,283,585,6160
1644183307.830881,-0.006531,0.013367,-0.990967,0.129252,0.539237,-0.161527,54,270,586,6192
1644183307.879266,-0.006042,0.006958,-0.98999,0.175053,0.340763,-0.100458,55,283,580,6192
1644183307.927661,-0.007751,0.008606,-0.988831,0.159786,0.310229,-0.024122,51,279,580,6160
1644183307.976029,-0.006592,0.007385,-0.990234,0.205588,0.401832,-0.069924,60,271,578,6192
1644183308.024472,-0.010559,0.007568,-0.991943,0.281924,0.447634,0.021679,55,269,587,6192
1644183308.091198,-0.009827,0.010498,-0.992249,0.220855,0.493435,-0.069924,46,281,587,6256
1644183308.12467,-0.009949,0.01062,-0.991272,0.113985,0.417099,-0.054656,47,285,582,6192
1644183308.174518,-0.006958,0.011963,-0.989502,0.129252,0.417099,-0.024122,51,274,580,6176
1644183308.266411,-0.006653,0.009766,-0.992676,0.129252,0.371298,-0.069924,51,276,578,6160
1644183308.314871,-0.006714,0.012207,-0.988464,0.190321,0.401832,-0.130992,43,281,578,6224
1644183308.363179,-0.007935,0.007507,-0.991821,0.297191,0.371298,-0.176794,45,280,579,6160
1644183308.411545,-0.008057,0.012024,-0.992676,0.205588,0.386565,-0.008855,49,265,582,6288
1644183308.459945,-0.00769,0.013,-0.991028,0.312458,0.462901,-0.069924,39,281,583,6176
1644183308.508322,-0.006042,0.009583,-0.991272,0.251389,0.493435,-0.14626,39,276,580,6176
1644183308.556741,-0.00708,0.010742,-0.993835,0.281924,0.432366,-0.008855,53,281,583,6160
1644183308.605223,-0.007324,0.01123,-0.99115,0.220855,0.401832,-0.14626,48,269,585,6176
1644183308.653512,-0.009583,0.010376,-0.988953,0.281924,0.371298,-0.207328,60,279,573,6224
1644183308.701921,-0.007507,0.010986,-0.991455,0.404061,0.356031,-0.176794,57,277,582,6192
1644183308.750297,-0.008789,0.010254,-0.993042,0.266656,0.371298,-0.130992,54,275,586,6160
1644183308.798706,-0.007751,0.011475,-0.990417,0.205588,0.417099,0.052214,47,277,591,6128
1644183308.847143,-0.009949,0.008667,-0.989075,0.129252,0.386565,-0.085191,54,285,589,6176
1644183308.895519,-0.006714,0.007141,-0.993286,0.098718,0.371298,-0.115725,45,270,579,6240
1644183308.94392,-0.007751,0.009949,-0.992371,0.205588,0.386565,-0.039389,51,279,576,6128
1644183308.992331,-0.005798,0.008484,-0.992554,0.144519,0.356031,-0.115725,46,276,578,6192
1644183309.040699,-0.007324,0.011047,-0.990784,0.144519,0.417099,-0.085191,47,275,589,6128
1644183309.089132,-0.007263,0.013062,-0.990356,0.297191,0.417099,-0.039389,47,273,575,6128
1644183309.138027,-0.008179,0.007996,-0.991821,0.327725,0.356031,-0.130992,53,276,578,6224
1644183309.187166,-0.010132,0.010132,-0.991455,0.327725,0.478168,-0.069924,51,271,590,6160
1644183309.23762,-0.00946,0.010193,-0.99231,0.098718,0.432366,-0.100458,46,281,587,6176
1644183309.287672,-0.006287,0.012146,-0.990173,0.129252,0.432366,-0.130992,51,276,583,6160
1644183309.379397,-0.006958,0.012207,-0.988464,0.175053,0.340763,0.052214,45,280,577,6224
1644183309.427788,-0.007935,0.010864,-0.991821,0.190321,0.478168,-0.130992,45,282,582,6240
1644183309.476188,-0.006592,0.007751,-0.991638,0.190321,0.508702,-0.14626,45,277,577,6224
1644183309.524832,-0.005798,0.012451,-0.989746,0.190321,0.356031,-0.039389,54,280,582,6224
1644183309.573005,-0.007324,0.01062,-0.993469,0.388794,0.432366,-0.039389,53,281,583,6240
1644183309.62138,-0.006958,0.009155,-0.988892,0.205588,0.203359,-0.25313,54,277,572,6240
1644183309.669747,-0.010254,0.008423,-0.990234,0.236122,0.264427,-0.115725,55,276,580,6160
1644183309.718168,-0.008972,0.011658,-0.992065,0.129252,0.417099,-0.176794,52,265,579,6128
1644183309.766567,-0.009338,0.012512,-0.99231,0.144519,0.340763,-0.14626,52,273,589,6176
1644183309.815094,-0.00415,0.011475,-0.992065,0.190321,0.417099,-0.14626,52,282,584,6192
1644183309.863409,-0.009277,0.008728,-0.993591,0.129252,0.310229,-0.192061,51,271,583,6176
1644183309.911774,-0.006836,0.012329,-0.990356,0.098718,0.340763,-0.130992,51,264,580,6192
1644183309.960189,-0.008423,0.009094,-0.990601,0.007115,0.432366,-0.054656,48,279,583,6160
1644183310.008544,-0.006042,0.012146,-0.990662,0.220855,0.432366,0.021679,39,281,585,6176
1644183310.068127,-0.009705,0.008545,-0.989441,0.266656,0.218626,-0.039389,46,279,580,6160
1644183310.106479,-0.009644,0.010742,-0.990051,0.388794,0.523969,-0.069924,51,283,578,6192
1644183310.153697,-0.004883,0.011902,-0.99231,0.220855,0.340763,0.067481,53,276,585,6224
1644183310.202158,-0.00592,0.010437,-0.991577,0.251389,0.356031,-0.024122,54,265,572,6160
1644183310.250461,-0.007751,0.010193,-0.990723,0.236122,0.447634,-0.008855,52,265,584,6128
1644183310.299113,-0.009949,0.010071,-0.990112,0.220855,0.539237,-0.161527,42,270,582,6176
1644183310.34949,-0.010071,0.01001,-0.991821,0.266656,0.310229,-0.039389,55,279,578,6192
1644183310.400331,-0.009827,0.00946,-0.988098,0.281924,0.325496,-0.161527,45,268,586,6160
1644183310.444865,-0.008118,0.010986,-0.990601,0.205588,0.493435,-0.115725,52,290,570,6192
1644183310.540843,-0.006714,0.011414,-0.990295,0.281924,0.340763,-0.161527,48,279,585,6160
1644183310.589245,-0.006409,0.012939,-0.990601,0.129252,0.447634,-0.054656,45,275,584,6224
1644183310.637624,-0.008301,0.008484,-0.987976,0.373527,0.508702,-0.085191,54,277,570,6192
1644183310.686034,-0.008789,0.010986,-0.990112,0.236122,0.310229,-0.039389,52,270,577,6256
1644183310.734424,-0.007935,0.013733,-0.993408,0.251389,0.478168,0.067481,48,274,585,6224
1644183310.782835,-0.007996,0.011108,-0.99353,0.220855,0.340763,0.052214,46,276,587,6240
1644183310.831181,-0.008057,0.00824,-0.987549,0.159786,0.310229,-0.176794,61,290,582,6224
1644183310.879636,-0.00769,0.009705,-0.988342,0.312458,0.356031,-0.008855,49,275,572,6240
1644183310.92803,-0.005554,0.005859,-0.99176,0.266656,0.371298,-0.100458,52,270,584,6224
1644183310.976435,-0.00769,0.01239,-0.989685,0.144519,0.371298,-0.192061,43,269,580,6128
1644183311.024812,-0.009583,0.01001,-0.992859,0.281924,0.325496,-0.222595,59,277,584,6224
1644183311.095419,-0.008179,0.011169,-0.993164,0.113985,0.432366,-0.069924,52,273,579,6224
1644183311.121597,-0.009827,0.01123,-0.990417,0.266656,0.325496,-0.085191,47,273,589,6176
1644183311.169966,-0.006653,0.013611,-0.989319,0.144519,0.325496,-0.207328,52,270,582,6224
1644183311.218354,-0.008118,0.009094,-0.993225,0.144519,0.294962,-0.054656,53,288,587,6176
1644183311.266748,-0.008606,0.011047,-0.994202,0.373527,0.356031,-0.176794,57,280,591,6192
1644183311.315168,-0.007751,0.008972,-0.992981,0.220855,0.523969,-0.25313,47,285,584,6224
1644183311.363563,-0.009277,0.011414,-0.993469,0.098718,0.325496,-0.161527,52,277,579,6160
1644183311.412252,-0.011169,0.010559,-0.991028,0.434595,0.554504,-0.085191,59,270,584,6224
1644183311.461132,-0.008606,0.011414,-0.99176,0.037649,0.386565,-0.161527,47,275,584,6176
1644183311.511747,-0.009094,0.011353,-0.991028,0.068183,0.294962,-0.14626,52,263,586,6160
1644183311.561833,-0.006287,0.012634,-0.992493,0.205588,0.401832,-0.237863,41,271,576,6176
1644183311.606852,-0.008789,0.009644,-0.993835,0.281924,0.356031,-0.085191,46,276,590,6160
1644183311.702394,-0.008179,0.012451,-0.991882,0.236122,0.432366,-0.100458,47,263,591,6224
1644183311.750665,-0.007568,0.007507,-0.990784,0.236122,0.371298,-0.024122,45,282,579,6224
1644183311.799044,-0.005554,0.009399,-0.992249,0.037649,0.401832,-0.130992,53,279,580,6240
1644183311.84743,-0.01001,0.010193,-0.98938,0.190321,0.447634,-0.100458,52,273,582,6176
1644183311.895883,-0.006165,0.010864,-0.991028,0.327725,0.432366,-0.283664,57,282,575,6224
1644183311.94428,-0.01001,0.012329,-0.991455,0.297191,0.340763,-0.192061,46,283,587,6192
1644183311.992694,-0.00592,0.009033,-0.99176,0.312458,0.432366,-0.161527,54,265,584,6224
1644183312.041075,-0.010864,0.008057,-0.987061,0.175053,0.478168,-0.085191,59,280,572,6112
1644183312.09668,-0.007385,0.009766,-0.994934,0.022382,0.371298,0.113282,52,275,579,6224
1644183312.137857,-0.008484,0.010742,-0.990417,0.159786,0.401832,-0.069924,55,274,587,6176
1644183312.186212,-0.010315,0.009216,-0.993652,0.175053,0.264427,-0.130992,47,280,589,6128
1644183312.234836,-0.009094,0.011902,-0.990601,0.144519,0.371298,-0.25313,52,285,579,6192
1644183312.282978,-0.008911,0.009399,-0.992371,0.190321,0.447634,-0.085191,55,274,587,6160
1644183312.331374,-0.010864,0.010559,-0.99115,0.266656,0.401832,-0.069924,40,273,586,6192
1644183312.379747,-0.009033,0.009766,-0.990662,0.281924,0.371298,-0.130992,53,269,580,6128
1644183312.428178,-0.008911,0.008362,-0.992371,0.175053,0.508702,0.021679,48,286,580,6112
1644183312.4766,-0.007446,0.008545,-0.991028,0.236122,0.386565,-0.039389,53,291,583,6256
1644183312.526775,-0.008362,0.01062,-0.989502,0.281924,0.462901,-0.069924,45,287,589,6192
1644183312.57728,-0.010986,0.009521,-0.990295,0.220855,0.386565,-0.054656,54,270,584,6160
1644183312.622148,-0.007324,0.009033,-0.992188,0.175053,0.447634,-0.054656,42,273,577,6160
1644183312.718512,-0.008179,0.009888,-0.991272,0.175053,0.417099,-0.222595,62,276,580,6128
1644183312.766896,-0.005676,0.01123,-0.990112,0.144519,0.386565,-0.176794,40,273,586,6256
1644183312.815374,-0.00708,0.013611,-0.991516,0.144519,0.462901,-0.054656,52,287,577,6128
1644183312.863705,-0.008606,0.010071,-0.992371,0.251389,0.340763,0.006412,41,281,585,6240
1644183312.912196,-0.011353,0.009277,-0.991028,0.205588,0.523969,-0.039389,45,280,586,6176
1644183312.960526,-0.011047,0.009583,-0.991028,0.373527,0.554504,-0.085191,53,274,583,6192
1644183313.008912,-0.007324,0.010864,-0.991699,0.175053,0.447634,-0.283664,42,275,582,6160
1644183313.067234,-0.007874,0.009705,-0.991455,0.190321,0.386565,-0.192061,51,281,580,6176
1644183313.105627,-0.007874,0.009644,-0.990479,0.205588,0.417099,-0.069924,48,281,590,6176
1644183313.154066,-0.008972,0.009521,-0.989624,0.220855,0.356031,-0.100458,51,266,573,6128
1644183313.202463,-0.006836,0.009583,-0.98877,0.175053,0.539237,-0.130992,52,277,577,6224
1644183313.25081,-0.00769,0.008728,-0.993286,0.098718,0.462901,-0.039389,45,285,586,6176
1644183313.299228,-0.007874,0.012634,-0.99054,0.175053,0.371298,-0.069924,53,279,576,6176
1644183313.347636,-0.007874,0.012024,-0.99054,0.159786,0.432366,-0.161527,55,276,590,6224
1644183313.396026,-0.006592,0.009888,-0.992126,0.342992,0.371298,-0.176794,46,274,590,6240
1644183313.444417,-0.006287,0.007507,-0.989685,0.35826,0.478168,-0.207328,58,274,583,6176
1644183313.492843,-0.009583,0.009827,-0.989807,0.022382,0.432366,-0.130992,58,286,580,6176
1644183313.541206,-0.009033,0.010498,-0.990173,0.205588,0.447634,0.052214,60,279,594,6128
1644183313.5896,-0.010803,0.010559,-0.993164,0.022382,0.493435,-0.100458,47,282,589,6160
1644183313.638299,-0.009277,0.012146,-0.989807,0.220855,0.371298,-0.008855,49,290,579,6240
1644183313.68892,-0.00354,0.013062,-0.992004,0.266656,0.478168,0.082748,58,276,587,6176
1644183313.738894,-0.009338,0.007935,-0.992737,0.251389,0.340763,-0.069924,53,281,585,6112
1644183313.78405,-0.006714,0.013245,-0.988525,0.297191,0.356031,-0.115725,47,273,575,6160
1644183313.879995,-0.007996,0.009583,-0.989441,0.220855,0.386565,-0.008855,41,271,583,6160
1644183313.928385,-0.007996,0.009338,-0.991211,0.175053,0.401832,-0.176794,47,273,584,6224
1644183313.976786,-0.01001,0.009277,-0.989624,0.312458,0.508702,-0.161527,57,263,584,6160
1644183314.025205,-0.005737,0.011353,-0.992371,0.08345,0.432366,-0.207328,46,274,583,6224
1644183314.073593,-0.006592,0.010315,-0.991333,0.236122,0.401832,-0.100458,54,270,591,6192
1644183314.121927,-0.009338,0.008545,-0.990417,0.144519,0.356031,-0.130992,57,265,586,6256
1644183314.170321,-0.006287,0.011169,-0.99054,0.144519,0.539237,-0.039389,47,282,584,6192
1644183314.218697,-0.007629,0.010254,-0.990845,0.251389,0.310229,-0.069924,54,268,584,6192
1644183314.267072,-0.009155,0.007385,-0.990845,0.159786,0.417099,0.036947,52,280,584,6192
1644183314.315494,-0.007874,0.010498,-0.991394,0.113985,0.447634,-0.085191,51,269,585,6240
1644183314.363893,-0.007263,0.010986,-0.99054,0.175053,0.386565,-0.14626,59,280,579,6224
1644183314.412276,-0.009094,0.010986,-0.990479,0.281924,0.386565,-0.069924,46,281,578,6176
1644183314.460672,-0.007324,0.010925,-0.989685,0.251389,0.417099,-0.024122,43,283,578,6128
1644183314.509044,-0.007141,0.011414,-0.988525,0.159786,0.294962,-0.024122,49,282,586,6176
1644183314.557441,-0.006836,0.010864,-0.990662,0.281924,0.417099,-0.130992,40,273,596,6224
1644183314.605846,-0.008606,0.012207,-0.994507,0.08345,0.569771,0.036947,41,281,585,6176
1644183314.65424,-0.00885,0.010132,-0.989319,0.220855,0.432366,-0.008855,49,277,584,6176
1644183314.702646,-0.009399,0.013489,-0.989136,0.220855,0.417099,-0.222595,53,271,587,6256
1644183314.751007,-0.008301,0.010193,-0.99292,0.327725,0.478168,-0.069924,54,277,582,6160
1644183314.800333,-0.009094,0.008667,-0.990417,0.190321,0.356031,-0.115725,46,274,594,6192
1644183314.851205,-0.010437,0.009216,-0.991943,0.037649,0.325496,-0.14626,48,276,587,6240
1644183314.901441,-0.00946,0.009583,-0.991516,0.236122,0.386565,-0.130992,51,276,585,6224
1644183314.946033,-0.007874,0.00824,-0.991638,0.190321,0.447634,0.052214,59,273,579,6192
1644183315.041436,-0.007507,0.011108,-0.990479,0.113985,0.356031,-0.161527,43,279,578,6224
1644183315.09038,-0.008667,0.008911,-0.992554,0.236122,0.417099,-0.100458,48,276,585,6160
1644183315.138173,-0.008362,0.013,-0.993835,0.113985,0.386565,-0.054656,46,281,580,6240
1644183315.186558,-0.008057,0.008545,-0.991455,0.266656,0.340763,-0.176794,54,282,572,6224
1644183315.234992,-0.005676,0.009766,-0.992554,0.190321,0.310229,-0.14626,46,266,583,6160
1644183315.283328,-0.00885,0.012024,-0.993652,0.281924,0.325496,-0.14626,41,274,576,6176
1644183315.331737,-0.00824,0.009705,-0.992371,0.144519,0.325496,-0.14626,48,274,578,6128
1644183315.380136,-0.009216,0.007751,-0.99231,0.251389,0.401832,-0.14626,49,282,586,6224
1644183315.428511,-0.005859,0.009766,-0.989685,0.113985,0.371298,0.006412,47,285,572,6176
1644183315.476921,-0.007874,0.011963,-0.993164,0.129252,0.447634,0.067481,51,269,585,6288
1644183315.525282,-0.009155,0.00946,-0.992798,0.037649,0.264427,-0.161527,55,279,573,6224
1644183315.57372,-0.011353,0.012451,-0.989868,0.144519,0.569771,-0.085191,41,266,585,6240
1644183315.622204,-0.007874,0.010376,-0.99176,0.159786,0.462901,0.082748,43,279,587,6128
1644183315.670486,-0.007202,0.00885,-0.992676,0.129252,0.340763,-0.008855,57,280,591,6128
1644183315.718879,-0.010315,0.011536,-0.989624,0.236122,0.447634,-0.176794,51,279,580,6128
1644183315.767271,-0.008606,0.009766,-0.991882,0.236122,0.447634,-0.069924,52,277,591,6224
1644183315.815716,-0.008606,0.00824,-0.990906,0.297191,0.432366,-0.085191,42,282,577,6192
1644183315.864466,-0.009216,0.012573,-0.989502,0.113985,0.432366,-0.024122,57,282,579,6224
1644183315.912782,-0.005859,0.008484,-0.990662,0.342992,0.417099,-0.054656,53,276,590,6224
1644183315.963197,-0.009277,0.009766,-0.990906,0.220855,0.478168,-0.115725,47,282,589,6224
1644183316.069452,-0.010254,0.010864,-0.98999,0.312458,0.462901,-0.085191,55,283,583,6224
1644183316.107479,-0.007629,0.009094,-0.991394,0.266656,0.432366,0.036947,45,273,586,6160
1644183316.15442,-0.008423,0.010193,-0.98999,0.175053,0.401832,-0.024122,57,280,584,6224
1644183316.202824,-0.008057,0.008362,-0.990906,0.190321,0.371298,-0.115725,45,277,579,6176
1644183316.251173,-0.009155,0.007751,-0.991089,0.251389,0.539237,0.067481,46,276,580,6256
1644183316.299599,-0.006042,0.009155,-0.989441,0.266656,0.478168,-0.100458,45,275,584,6176
1644183316.34802,-0.009521,0.009338,-0.98938,0.08345,0.417099,-0.008855,46,271,578,6176
1644183316.396356,-0.009888,0.008362,-0.99231,0.251389,0.478168,-0.130992,52,287,582,6192
1644183316.444767,-0.006042,0.011169,-0.990906,0.205588,0.279695,-0.039389,49,275,589,6176
1644183316.493191,-0.008118,0.005859,-0.990417,0.022382,0.554504,-0.100458,54,280,579,6224
1644183316.54156,-0.006165,0.014221,-0.99054,0.220855,0.401832,0.006412,51,269,587,6176
1644183316.589955,-0.008911,0.011475,-0.990417,0.236122,0.432366,-0.161527,49,273,589,6176
1644183316.638341,-0.007507,0.009399,-0.992981,0.129252,0.478168,-0.176794,45,268,584,6160
1644183316.686926,-0.006226,0.009216,-0.989136,0.205588,0.508702,-0.100458,49,277,593,6240
1644183316.737645,-0.007141,0.010925,-0.990784,0.220855,0.310229,-0.008855,51,266,585,6160
1644183316.787844,-0.006775,0.011414,-0.992676,0.205588,0.462901,-0.054656,46,274,585,6128
1644183316.833119,-0.007751,0.010925,-0.989807,0.312458,0.493435,-0.085191,52,282,584,6192
1644183316.928719,-0.00708,0.008423,-0.991943,0.129252,0.325496,-0.14626,40,285,575,6176
1644183316.977127,-0.006348,0.013123,-0.990784,0.205588,0.386565,-0.039389,46,279,594,6240
1644183317.0255,-0.00769,0.010559,-0.991699,0.297191,0.310229,-0.222595,51,269,592,6224
1644183317.073959,-0.010437,0.013489,-0.989868,0.190321,0.417099,-0.008855,47,280,582,6256
1644183317.122466,-0.008362,0.012329,-0.989807,0.236122,0.371298,-0.192061,52,285,584,6240
1644183317.170656,-0.008484,0.010254,-0.991699,0.144519,0.447634,-0.100458,41,264,585,6224
1644183317.219057,-0.006897,0.013306,-0.99231,0.251389,0.600305,-0.161527,47,287,582,6192
1644183317.267462,-0.011169,0.007019,-0.992432,0.175053,0.508702,-0.14626,51,283,576,6160
1644183317.315829,-0.006348,0.008362,-0.990845,0.022382,0.24916,-0.100458,47,277,579,6160
1644183317.364249,-0.011108,0.010681,-0.991821,0.159786,0.401832,-0.100458,49,282,579,6192
1644183317.412649,-0.009338,0.009155,-0.992493,0.144519,0.417099,-0.024122,45,275,579,6224
1644183317.461029,-0.005981,0.009277,-0.992554,0.175053,0.417099,-0.130992,57,265,591,6224
1644183317.509406,-0.009338,0.006287,-0.988159,0.159786,0.340763,-0.25313,43,276,578,6192
1644183317.557814,-0.009766,0.012817,-0.991211,0.175053,0.432366,0.006412,47,268,586,6224
1644183317.606213,-0.010132,0.012451,-0.989502,0.113985,0.401832,-0.115725,51,274,578,6176
1644183317.654646,-0.01001,0.007812,-0.990051,0.327725,0.371298,-0.085191,47,275,584,6080
1644183317.703007,-0.007507,0.01239,-0.990845,0.205588,0.417099,-0.222595,61,270,589,6192
1644183317.75135,-0.010803,0.007568,-0.992615,0.220855,0.554504,-0.115725,51,266,576,6176
1644183317.799767,-0.007874,0.011353,-0.99054,0.342992,0.340763,-0.100458,48,279,578,6224
1644183317.849671,-0.008179,0.008667,-0.989014,0.098718,0.478168,-0.115725,48,281,583,6192
1644183317.899537,-0.008118,0.009521,-0.989075,0.098718,0.279695,-0.085191,46,281,580,6176
1644183317.950446,-0.006775,0.012634,-0.993835,0.129252,0.356031,-0.024122,45,270,579,6128
1644183317.994428,-0.010437,0.010254,-0.990906,0.251389,0.493435,-0.054656,51,269,578,6160
1644183318.090303,-0.007141,0.011047,-0.99054,0.190321,0.325496,-0.130992,48,276,580,6176
1644183318.138621,-0.008362,0.008423,-0.994141,0.129252,0.279695,-0.069924,39,281,583,6224
1644183318.186899,-0.007568,0.010254,-0.99292,0.175053,0.417099,-0.161527,48,283,578,6176
1644183318.235305,-0.00946,0.010193,-0.992798,0.251389,0.585038,-0.115725,49,277,598,6224
1644183318.283708,-0.007507,0.009216,-0.991455,0.113985,0.218626,-0.100458,48,269,583,6176
1644183318.332151,-0.010132,0.009949,-0.990234,0.098718,0.401832,-0.237863,49,273,589,6192
1644183318.3805,-0.007446,0.009338,-0.990662,0.129252,0.462901,-0.207328,58,276,587,6128
1644183318.428891,-0.007874,0.013,-0.992004,0.236122,0.325496,-0.176794,49,282,582,6160
1644183318.477255,-0.005615,0.010193,-0.990356,0.281924,0.401832,-0.100458,54,282,577,6176
1644183318.525679,-0.00824,0.00824,-0.991821,0.205588,0.432366,-0.192061,47,270,572,6240
1644183318.57408,-0.006897,0.010132,-0.990479,0.266656,0.233893,-0.008855,60,288,583,6224
1644183318.622474,-0.011658,0.009094,-0.99115,0.251389,0.340763,-0.115725,45,280,589,6224
1644183318.670841,-0.009583,0.012573,-0.992004,0.312458,0.432366,-0.115725,48,288,583,6224
1644183318.719254,-0.007019,0.01178,-0.991577,0.312458,0.447634,0.036947,41,281,587,6192
1644183318.767634,-0.008057,0.010803,-0.99353,0.220855,0.401832,-0.069924,51,271,594,6176
1644183318.816041,-0.007812,0.011963,-0.990112,0.205588,0.371298,-0.207328,49,273,593,6240
1644183318.864466,-0.006836,0.009338,-0.990356,0.175053,0.417099,-0.100458,53,279,597,6224
1644183318.91316,-0.008545,0.009766,-0.992249,0.175053,0.447634,-0.039389,52,277,575,6240
1644183318.961565,-0.009705,0.009155,-0.991516,0.052916,0.340763,0.098015,51,274,583,6176
1644183319.010716,-0.005798,0.009338,-0.990784,0.281924,0.371298,-0.039389,43,274,576,6240
1644183319.106356,-0.009155,0.010559,-0.991272,0.342992,0.325496,-0.054656,48,271,594,6192
1644183319.154964,-0.009705,0.009338,-0.992493,0.236122,0.264427,-0.100458,45,265,584,6240
1644183319.20318,-0.007507,0.009583,-0.990051,0.388794,0.554504,0.006412,52,268,575,6160
1644183319.252188,-0.006775,0.008179,-0.992432,0.098718,0.447634,-0.115725,45,277,579,6160
1644183319.299961,-0.009644,0.009949,-0.990845,0.205588,0.493435,-0.100458,47,273,579,6176
1644183319.348348,-0.006836,0.009949,-0.991943,0.175053,0.432366,-0.100458,51,276,592,6176
1644183319.396745,-0.011475,0.008545,-0.992004,0.297191,0.432366,-0.100458,41,274,576,6176
1644183319.445238,-0.009216,0.008667,-0.991638,0.205588,0.325496,-0.100458,48,276,578,6192
1644183319.493512,-0.009644,0.007874,-0.991089,0.129252,0.340763,-0.207328,43,283,580,6256
1644183319.541923,-0.007812,0.012024,-0.991028,0.251389,0.401832,-0.069924,43,276,592,6176
1644183319.5903,-0.007324,0.008362,-0.990051,0.342992,0.340763,-0.085191,58,276,580,6176
1644183319.638699,-0.009338,0.009033,-0.991455,0.236122,0.447634,-0.069924,41,271,585,6192
1644183319.687093,-0.007874,0.008301,-0.992737,0.266656,0.432366,-0.008855,40,280,584,6160
1644183319.735455,-0.006653,0.006531,-0.99176,0.236122,0.279695,-0.100458,53,279,583,6176
1644183319.783882,-0.01001,0.009094,-0.990906,0.205588,0.417099,-0.054656,46,283,590,6176
1644183319.832481,-0.01001,0.00769,-0.989746,0.175053,0.356031,0.036947,53,286,576,6224
1644183319.883556,-0.00531,0.008728,-0.991516,0.129252,0.447634,-0.085191,38,275,591,6192
1644183319.933587,-0.007935,0.01062,-0.991455,0.236122,0.356031,-0.222595,51,291,578,6176
1644183319.97804,-0.005737,0.012085,-0.989197,0.281924,0.371298,-0.024122,49,270,577,6192
1644183320.074325,-0.008118,0.007263,-0.989563,0.220855,0.310229,0.006412,53,269,583,6224
1644183320.122665,-0.006042,0.008545,-0.989563,0.068183,0.279695,-0.008855,51,276,571,6224
1644183320.171055,-0.006531,0.009766,-0.990723,0.144519,0.401832,-0.161527,55,274,578,6240
1644183320.219427,-0.008179,0.010315,-0.991577,0.159786,0.340763,-0.039389,40,280,570,6176
1644183320.267804,-0.010315,0.009521,-0.988892,0.35826,0.447634,-0.14626,46,279,580,6240
1644183320.316194,-0.012207,0.010071,-0.989807,0.297191,0.523969,0.052214,43,271,580,6192
1644183320.36473,-0.007874,0.009949,-0.990112,0.190321,0.554504,-0.115725,43,274,578,6176
1644183320.413005,-0.005615,0.010803,-0.991333,0.08345,0.371298,-0.14626,54,280,577,6192
1644183320.461381,-0.006958,0.00885,-0.990479,0.297191,0.264427,-0.069924,43,281,587,6240
1644183320.509787,-0.008728,0.010315,-0.992859,0.404061,0.447634,-0.100458,45,275,582,6192
1644183320.558156,-0.008606,0.009827,-0.990173,0.129252,0.447634,-0.115725,49,273,579,6112
1644183320.60656,-0.009766,0.009888,-0.989319,0.510931,0.462901,-0.161527,42,275,591,6224
1644183320.655091,-0.007385,0.009705,-0.990295,0.190321,0.386565,-0.085191,46,281,569,6176
1644183320.703345,-0.00824,0.01001,-0.989197,0.35826,0.508702,-0.115725,49,282,586,6128
1644183320.751742,-0.009644,0.011108,-0.988403,0.266656,0.279695,-0.085191,49,270,589,6224
1644183320.800125,-0.008911,0.010986,-0.991577,0.144519,0.371298,-0.100458,43,281,583,6240
1644183320.848525,-0.00824,0.009583,-0.993958,0.175053,0.401832,-0.054656,61,263,584,6160
1644183320.897029,-0.010437,0.010376,-0.99054,0.175053,0.401832,-0.054656,35,280,579,6224
1644183320.945373,-0.005371,0.009888,-0.990967,0.251389,0.340763,-0.222595,36,276,578,6160
1644183320.995049,-0.010315,0.009155,-0.990173,0.281924,0.432366,-0.115725,49,277,591,6240
1644183321.045798,-0.009216,0.008972,-0.989685,0.190321,0.386565,-0.192061,52,275,579,6224
1644183321.102908,-0.00885,0.008362,-0.993958,0.190321,0.325496,-0.054656,58,274,587,6192
1644183321.139876,-0.010742,0.011353,-0.993103,0.022382,0.279695,-0.100458,46,274,590,6224
1644183321.235657,-0.010864,0.010376,-0.992859,0.205588,0.203359,-0.008855,60,281,583,6176
1644183321.284076,-0.007446,0.013672,-0.991272,0.08345,0.340763,-0.054656,51,279,592,6176
1644183321.332474,-0.008423,0.008545,-0.992737,0.251389,0.325496,-0.100458,51,286,580,6256
1644183321.380841,-0.009277,0.009949,-0.991516,0.266656,0.539237,0.036947,46,281,580,6224
1644183321.429238,-0.005737,0.01123,-0.987366,0.205588,0.325496,-0.115725,48,274,583,6160
1644183321.477631,-0.008606,0.011108,-0.989746,0.205588,0.325496,-0.176794,48,281,580,6176
1644183321.526026,-0.007507,0.012878,-0.994812,0.388794,0.462901,-0.069924,47,273,584,6224
1644183321.574416,-0.007996,0.01178,-0.989685,0.190321,0.371298,-0.069924,48,283,583,6192
1644183321.6228,-0.00769,0.012329,-0.989014,0.266656,0.264427,-0.085191,43,276,580,6256
1644183321.6712,-0.009521,0.009399,-0.992554,0.35826,0.569771,-0.024122,40,285,593,6192
1644183321.719597,-0.007263,0.008972,-0.992859,0.251389,0.417099,-0.039389,45,275,582,6192
1644183321.767992,-0.008606,0.011414,-0.991699,0.373527,0.371298,-0.054656,48,266,585,6128
1644183321.816415,-0.005005,0.012573,-0.991089,0.35826,0.279695,-0.130992,53,269,583,6224
1644183321.864826,-0.007385,0.009338,-0.99176,0.205588,0.401832,-0.207328,45,273,586,6240
1644183321.913187,-0.006775,0.012695,-0.992188,0.297191,0.386565,-0.069924,46,281,585,6176
1644183321.961596,-0.007385,0.009277,-0.991333,0.175053,0.478168,-0.100458,42,282,593,6240
1644183322.009943,-0.00708,0.009766,-0.992493,0.297191,0.417099,-0.207328,48,279,590,6080
1644183322.076107,-0.009827,0.007874,-0.991577,0.129252,0.386565,-0.283664,53,274,592,6240
1644183322.110204,-0.007324,0.012634,-0.989136,0.098718,0.356031,-0.161527,55,286,580,6128
1644183322.157246,-0.007507,0.01062,-0.990173,0.159786,0.233893,-0.14626,46,271,580,6192
1644183322.207617,-0.006348,0.011108,-0.988098,0.205588,0.417099,-0.054656,45,260,577,6240
1644183322.252421,-0.006836,0.010864,-0.989563,0.190321,0.356031,-0.14626,47,265,586,6176
1644183322.348684,-0.00824,0.007874,-0.991455,0.068183,0.340763,-0.054656,48,274,583,6224
1644183322.397082,-0.005127,0.012146,-0.989258,0.35826,0.523969,-0.024122,52,277,577,6192
1644183322.445478,-0.006104,0.007385,-0.988953,0.266656,0.325496,-0.085191,51,276,583,6176
1644183322.493861,-0.010498,0.011108,-0.991943,0.144519,0.417099,-0.207328,58,274,580,6304
1644183322.542386,-0.008728,0.009033,-0.990784,0.190321,0.356031,0.113282,39,276,576,6240
1644183322.590661,-0.009338,0.010559,-0.989136,0.205588,0.371298,-0.161527,58,271,576,6224
1644183322.639044,-0.007385,0.012756,-0.990845,0.281924,0.493435,0.067481,47,277,586,6176
1644183322.687443,-0.008362,0.010864,-0.991882,0.098718,0.554504,0.021679,43,281,583,6192
1644183322.735857,-0.010437,0.010498,-0.990662,0.220855,0.432366,-0.100458,43,279,580,6192
1644183322.784239,-0.00946,0.011353,-0.990479,0.190321,0.356031,-0.192061,53,269,580,6176
1644183322.832696,-0.006104,0.008362,-0.990173,0.159786,0.523969,-0.176794,45,285,593,6160
1644183322.881054,-0.009094,0.009827,-0.991089,0.236122,0.462901,-0.161527,48,281,590,6112
1644183322.929457,-0.005615,0.009033,-0.992371,0.388794,0.447634,-0.115725,52,277,582,6160
1644183322.97784,-0.008057,0.010315,-0.992554,0.236122,0.325496,-0.024122,47,268,582,6128
1644183323.026246,-0.009827,0.011841,-0.991699,0.175053,0.417099,0.067481,49,277,589,6112
1644183323.085872,-0.007751,0.009827,-0.991028,0.236122,0.401832,-0.024122,46,276,597,6224
1644183323.123021,-0.005432,0.010925,-0.989502,0.266656,0.63084,-0.100458,57,273,575,6160
1644183323.171565,-0.010437,0.00885,-0.988037,0.068183,0.325496,-0.130992,47,287,577,6128
1644183323.220878,-0.006714,0.010681,-0.987549,0.266656,0.417099,-0.039389,52,277,577,6256
1644183323.271432,-0.009827,0.010925,-0.990662,0.08345,0.386565,-0.069924,46,271,590,6192
1644183323.321529,-0.008972,0.010864,-0.990295,0.098718,0.325496,0.036947,41,271,583,6192
1644183323.413391,-0.008179,0.009766,-0.99231,0.175053,0.310229,-0.085191,41,279,576,6192
1644183323.461732,-0.008057,0.013123,-0.989868,0.236122,0.523969,-0.069924,60,274,580,6160
1644183323.5101,-0.009033,0.012817,-0.990784,-0.053954,0.340763,-0.207328,55,281,578,6176
1644183323.558513,-0.007751,0.013062,-0.986389,0.175053,0.401832,-0.192061,49,277,579,6176
1644183323.606916,-0.006714,0.007996,-0.992615,0.052916,0.432366,-0.054656,43,271,587,6192
1644183323.655314,-0.010071,0.012085,-0.989563,0.266656,0.340763,-0.115725,57,273,591,6160
1644183323.703705,-0.007996,0.009399,-0.988708,0.159786,0.462901,-0.054656,49,277,582,6160
1644183323.752082,-0.007324,0.009949,-0.992065,0.236122,0.386565,-0.085191,41,269,578,6176
1644183323.800495,-0.007629,0.012024,-0.990173,0.159786,0.371298,-0.115725,51,276,580,6224
1644183323.848936,-0.00769,0.009216,-0.992432,0.205588,0.569771,-0.161527,47,273,586,6176
1644183323.897321,-0.008301,0.008118,-0.989868,0.129252,0.493435,-0.100458,41,276,583,6176
1644183323.94568,-0.007446,0.01062,-0.98999,0.144519,0.386565,-0.054656,43,279,580,6176
1644183323.994115,-0.007629,0.009521,-0.992493,0.327725,0.294962,-0.069924,42,273,586,6224
1644183324.042479,-0.009277,0.01178,-0.990967,0.342992,0.279695,-0.054656,58,271,587,6176
1644183324.094505,-0.007141,0.008728,-0.989502,0.175053,0.310229,-0.069924,53,274,592,6112
1644183324.139259,-0.008179,0.009766,-0.990906,0.144519,0.310229,-0.054656,51,286,585,6176
1644183324.187638,-0.007263,0.010742,-0.993713,0.281924,0.371298,-0.14626,49,275,589,6160
1644183324.236026,-0.006897,0.010193,-0.992065,0.144519,0.356031,-0.14626,49,275,586,6176
1644183324.284424,-0.007751,0.010559,-0.988892,0.404061,0.310229,-0.115725,45,275,579,6176
1644183324.333092,-0.005493,0.010681,-0.991882,0.175053,0.279695,-0.283664,52,275,577,6176
1644183324.383575,-0.006958,0.010193,-0.990112,0.129252,0.310229,-0.207328,52,270,582,6224
1644183324.433803,-0.007568,0.010864,-0.989929,0.236122,0.386565,-0.069924,55,279,585,6192
1644183324.478746,-0.008972,0.010559,-0.987793,0.007115,0.325496,-0.14626,45,285,586,6224
1644183324.574877,-0.00708,0.012939,-0.992981,0.281924,0.401832,-0.039389,49,275,591,6176
1644183324.62318,-0.006348,0.009766,-0.990906,0.159786,0.417099,0.006412,54,287,586,6192
1644183324.671555,-0.007935,0.007202,-0.990784,0.159786,0.432366,0.113282,47,273,575,6256
1644183324.719922,-0.009521,0.011841,-0.992676,0.251389,0.417099,-0.207328,47,270,582,6176
1644183324.768348,-0.009949,0.006897,-0.992493,0.46513,0.340763,-0.008855,41,283,576,6192
1644183324.816733,-0.009033,0.011902,-0.99176,0.220855,0.356031,-0.268397,52,285,579,6224
1644183324.865203,-0.007141,0.011169,-0.991516,-0.008153,0.447634,-0.115725,42,275,577,6192
1644183324.913573,-0.007507,0.008179,-0.989685,0.022382,0.325496,-0.100458,48,283,583,6176
1644183324.961958,-0.007202,0.010376,-0.99176,0.205588,0.356031,-0.130992,40,277,579,6224
1644183325.010342,-0.008789,0.01178,-0.990662,0.068183,0.417099,-0.222595,59,273,589,6192
1644183325.066085,-0.010864,0.014038,-0.989014,0.297191,0.478168,-0.222595,40,285,591,6192
1644183325.107221,-0.010071,0.009827,-0.990784,0.404061,0.386565,-0.192061,46,281,580,6240
1644183325.155505,-0.007324,0.009521,-0.990845,0.190321,0.462901,-0.054656,49,282,582,6160
1644183325.203892,-0.011658,0.008789,-0.992188,0.144519,0.371298,-0.054656,42,280,575,6192
1644183325.252295,-0.005676,0.009338,-0.990967,0.220855,0.386565,-0.207328,53,286,583,6176
1644183325.300676,-0.005615,0.010803,-0.990112,0.312458,0.432366,-0.14626,60,291,578,6192
1644183325.349064,-0.008911,0.00885,-0.992432,0.159786,0.462901,-0.100458,57,280,582,6160
1644183325.397455,-0.010681,0.011292,-0.993164,0.236122,0.417099,-0.115725,62,281,571,6224
1644183325.445838,-0.008118,0.011597,-0.99353,0.190321,0.294962,-0.039389,51,274,583,6192
1644183325.49468,-0.008667,0.010315,-0.989502,0.312458,0.386565,-0.207328,52,275,584,6240
1644183325.544398,-0.007874,0.010315,-0.992126,0.098718,0.462901,-0.085191,49,277,577,6224
1644183325.594744,-0.007996,0.006287,-0.991577,0.205588,0.24916,-0.130992,42,277,589,6224
1644183325.639873,-0.012512,0.011719,-0.991516,0.144519,0.294962,-0.161527,54,285,582,6240
1644183325.736192,-0.007019,0.009155,-0.992004,0.205588,0.340763,-0.085191,54,273,589,6160
1644183325.784867,-0.004944,0.01123,-0.992737,0.297191,0.478168,-0.176794,42,275,591,6160
1644183325.832995,-0.006958,0.012695,-0.991333,0.312458,0.310229,-0.039389,36,281,585,6160
1644183325.88142,-0.007507,0.012512,-0.990967,0.251389,0.310229,-0.222595,47,277,582,6224
1644183325.929797,-0.005493,0.010437,-0.988892,0.175053,0.386565,-0.100458,51,281,583,6176
1644183325.978192,-0.008057,0.011963,-0.993958,-0.008153,0.417099,-0.222595,49,277,584,6128
1644183326.026596,-0.007629,0.008667,-0.990845,0.35826,0.493435,0.006412,47,280,579,6176
1644183326.075669,-0.008728,0.009277,-0.991882,0.113985,0.356031,-0.039389,51,276,590,6160
1644183326.123384,-0.006165,0.010254,-0.989929,0.205588,0.356031,-0.130992,57,280,586,6240
1644183326.171746,-0.00647,0.00885,-0.990234,0.205588,0.356031,-0.008855,45,277,577,6224
1644183326.220137,-0.010132,0.010254,-0.993408,0.068183,0.462901,-0.039389,48,274,580,6224
1644183326.268538,-0.007202,0.012329,-0.990723,0.281924,0.279695,-0.054656,41,276,580,6176
1644183326.316901,-0.009338,0.007812,-0.992554,0.236122,0.310229,-0.069924,51,266,583,6240
1644183326.365314,-0.006409,0.01062,-0.989441,0.281924,0.218626,-0.176794,51,274,578,6224
1644183326.413697,-0.008118,0.012756,-0.99115,0.251389,0.386565,-0.192061,51,279,585,6192
1644183326.462154,-0.005066,0.007629,-0.991089,0.159786,0.294962,-0.008855,47,282,582,6224
1644183326.5105,-0.006226,0.009277,-0.988708,0.251389,0.478168,-0.039389,46,281,587,6128
1644183326.558881,-0.008118,0.012634,-0.990173,0.190321,0.386565,0.067481,53,279,587,6192
1644183326.607274,-0.007874,0.007263,-0.990784,0.342992,0.493435,0.021679,46,286,580,6256
1644183326.655689,-0.009338,0.010376,-0.986877,0.144519,0.493435,-0.008855,49,273,579,6160
1644183326.706008,-0.007935,0.01123,-0.993591,0.342992,0.356031,-0.14626,49,277,579,6176
1644183326.756326,-0.007141,0.00885,-0.988281,0.113985,0.386565,0.006412,49,280,591,6128
1644183326.801354,-0.008789,0.011658,-0.994568,0.159786,0.310229,-0.192061,40,277,589,6160
1644183326.897656,-0.010193,0.012085,-0.989807,0.327725,0.417099,-0.100458,51,276,590,6240
1644183326.94605,-0.010193,0.010132,-0.993469,0.236122,0.539237,-0.192061,54,275,582,6160
1644183326.994465,-0.007751,0.010132,-0.989685,0.297191,0.493435,-0.25313,45,282,570,6176
1644183327.042864,-0.005737,0.012146,-0.988892,0.144519,0.462901,-0.054656,41,274,578,6176
1644183327.092433,-0.007019,0.011169,-0.992981,0.190321,0.432366,-0.008855,48,286,594,6176
1644183327.13963,-0.00647,0.010925,-0.993896,0.35826,0.386565,-0.222595,57,273,582,6192
1644183327.187997,-0.010864,0.013428,-0.991577,0.068183,0.447634,-0.100458,39,271,594,6224
1644183327.23686,-0.008606,0.012695,-0.991699,0.266656,0.203359,-0.192061,46,279,585,6176
1644183327.284796,-0.007629,0.010559,-0.991821,0.205588,0.493435,-0.192061,51,276,601,6240
1644183327.333184,-0.007751,0.009216,-0.991882,0.205588,0.478168,-0.024122,54,287,582,6224
1644183327.381556,-0.007935,0.009888,-0.992371,0.35826,0.310229,-0.115725,53,276,573,6240
1644183327.429943,-0.007996,0.011169,-0.990784,0.297191,0.371298,-0.069924,47,280,589,6192
1644183327.478351,-0.006958,0.013672,-0.989563,0.144519,0.417099,-0.039389,45,285,582,6224
1644183327.526715,-0.008972,0.008789,-0.991089,0.251389,0.356031,-0.054656,48,279,590,6176
1644183327.575178,-0.00708,0.011108,-0.991699,0.098718,0.523969,-0.039389,49,280,579,6160
1644183327.623523,-0.009949,0.008484,-0.992004,0.251389,0.401832,-0.054656,47,273,582,6176
1644183327.672246,-0.008179,0.008911,-0.993347,0.159786,0.294962,-0.085191,41,274,578,6176
1644183327.721658,-0.009033,0.008911,-0.991333,0.190321,0.401832,-0.100458,54,270,584,6224
1644183327.771839,-0.009521,0.010864,-0.992249,0.113985,0.325496,-0.039389,52,280,586,6192
1644183327.822397,-0.008667,0.013306,-0.989929,0.236122,0.493435,-0.115725,54,282,582,6176
1644183327.913913,-0.007812,0.010559,-0.993652,0.266656,0.462901,0.113282,54,290,589,6224
1644183327.962417,-0.010864,0.011414,-0.993042,0.113985,0.386565,-0.069924,59,275,582,6160
1644183328.010682,-0.010315,0.010742,-0.990356,0.159786,0.325496,-0.100458,51,274,578,6192
1644183328.066545,-0.008179,0.011536,-0.992249,0.098718,0.493435,-0.008855,47,275,586,6224
1644183328.107867,-0.009338,0.009583,-0.991394,0.098718,0.371298,-0.100458,55,276,590,6176
1644183328.155872,-0.009155,0.01178,-0.991333,0.266656,0.294962,-0.039389,46,281,576,6224
1644183328.204251,-0.007019,0.009888,-0.992004,0.113985,0.386565,-0.024122,49,273,593,6224
1644183328.252619,-0.007812,0.00708,-0.991577,0.144519,0.447634,0.067481,39,274,578,6192
1644183328.301039,-0.006836,0.01001,-0.991577,0.220855,0.340763,-0.054656,52,277,579,6224
1644183328.349407,-0.009644,0.009949,-0.991455,0.205588,0.356031,-0.008855,43,288,571,6224
1644183328.397809,-0.007751,0.009399,-0.98999,0.190321,0.356031,-0.054656,53,279,580,6224
1644183328.446206,-0.010193,0.007935,-0.992676,0.08345,0.340763,-0.25313,48,279,578,6240
1644183328.494685,-0.006165,0.00885,-0.99231,0.251389,0.340763,-0.115725,51,276,576,6256
1644183328.543003,-0.004883,0.011169,-0.991821,0.281924,0.325496,-0.085191,57,277,584,6160
1644183328.591382,-0.008301,0.010559,-0.990967,0.297191,0.340763,-0.25313,49,270,572,6224
1644183328.639762,-0.010925,0.009644,-0.993408,0.159786,0.447634,-0.192061,54,270,577,6192
1644183328.688148,-0.009583,0.011047,-0.991455,0.297191,0.417099,-0.237863,48,276,583,6192
1644183328.736562,-0.006104,0.011414,-0.991516,0.251389,0.264427,-0.069924,59,273,589,6192
1644183328.785331,-0.008179,0.00885,-0.990601,0.098718,0.432366,-0.115725,49,275,584,6224
1644183328.834478,-0.008423,0.010193,-0.992126,0.373527,0.356031,-0.069924,42,280,589,6176
1644183328.88526,-0.006409,0.008667,-0.989868,0.129252,0.356031,-0.130992,53,262,592,6240
1644183328.930217,-0.007812,0.010254,-0.988586,0.266656,0.371298,-0.192061,59,275,577,6192
1644183329.026949,-0.008423,0.011658,-0.991394,0.266656,0.432366,-0.222595,52,275,584,6128
1644183329.075403,-0.007385,0.009644,-0.993958,0.35826,0.310229,-0.222595,40,294,589,6224
1644183329.123709,-0.009094,0.011108,-0.991699,0.129252,0.417099,-0.054656,52,277,584,6176
1644183329.172158,-0.009644,0.010498,-0.993408,0.419328,0.24916,-0.192061,47,280,579,6176
1644183329.220477,-0.008484,0.011658,-0.990417,0.220855,0.447634,-0.024122,49,290,582,6176
1644183329.268873,-0.009094,0.008179,-0.991821,0.312458,0.325496,-0.069924,55,271,587,6240
1644183329.31725,-0.006958,0.01001,-0.988098,0.236122,0.340763,-0.100458,57,280,579,6224
1644183329.365648,-0.005127,0.010925,-0.990784,0.373527,0.432366,-0.069924,46,274,585,6128
1644183329.414061,-0.006897,0.009949,-0.989502,0.037649,0.294962,-0.115725,51,279,583,6192
1644183329.462471,-0.006226,0.011475,-0.989868,0.35826,0.401832,-0.085191,58,283,583,6224
1644183329.510854,-0.006775,0.010986,-0.991211,0.312458,0.432366,-0.008855,54,282,577,6160
1644183329.559222,-0.007996,0.008667,-0.988342,0.251389,0.401832,-0.176794,42,273,579,6160
1644183329.607625,-0.009216,0.008301,-0.992249,0.205588,0.432366,0.021679,51,276,590,6192
1644183329.656044,-0.009521,0.009094,-0.989685,0.312458,0.371298,-0.085191,46,281,576,6176
1644183329.7044,-0.007751,0.012634,-0.991516,0.205588,0.371298,0.082748,46,274,590,6224
1644183329.752794,-0.007874,0.005432,-0.991394,0.113985,0.401832,0.006412,53,283,585,6176
1644183329.801234,-0.007874,0.011108,-0.991455,0.35826,0.203359,-0.069924,42,287,591,6224
1644183329.849628,-0.007996,0.008118,-0.991272,0.342992,0.356031,-0.069924,47,273,582,6160
1644183329.898045,-0.007629,0.01001,-0.988281,0.113985,0.264427,0.006412,51,271,583,6192
1644183329.947478,-0.00708,0.009399,-0.991333,0.205588,0.325496,-0.237863,47,275,582,6224
1644183329.997573,-0.006409,0.008972,-0.990479,0.266656,0.478168,-0.207328,51,276,583,6240
1644183330.067374,-0.009583,0.011108,-0.992065,0.220855,0.508702,-0.25313,59,275,589,6192
1644183330.097289,-0.009583,0.010132,-0.989807,0.113985,0.386565,-0.130992,45,292,586,6224
1644183330.188336,-0.008118,0.009521,-0.99054,0.129252,0.310229,-0.14626,48,271,578,6240
1644183330.236721,-0.008057,0.008972,-0.990295,0.373527,0.432366,-0.024122,53,283,583,6192
1644183330.285341,-0.006348,0.009583,-0.988953,0.251389,0.386565,-0.039389,48,279,590,6224
1644183330.333514,-0.010437,0.00885,-0.98877,0.144519,0.554504,-0.207328,45,290,579,6160
1644183330.381907,-0.008972,0.007141,-0.992554,0.266656,0.478168,-0.222595,43,296,580,6240
1644183330.430301,-0.003296,0.009583,-0.989319,0.220855,0.478168,0.006412,48,266,583,6192
1644183330.4787,-0.006775,0.01239,-0.993591,0.007115,0.371298,-0.008855,54,282,593,6192
1644183330.527093,-0.004028,0.009766,-0.992188,0.312458,0.417099,-0.207328,51,274,576,6224
1644183330.57549,-0.009949,0.011169,-0.990723,0.251389,0.386565,-0.130992,51,274,585,6240
1644183330.623884,-0.008789,0.010132,-0.991577,0.144519,0.310229,-0.100458,46,274,585,6240
1644183330.672281,-0.007874,0.011902,-0.989685,0.205588,0.585038,-0.176794,52,280,589,6224
1644183330.720664,-0.009277,0.010376,-0.991211,0.236122,0.340763,-0.176794,45,285,579,6176
1644183330.769061,-0.005188,0.01062,-0.991699,0.175053,0.325496,-0.14626,53,271,587,6224
1644183330.817497,-0.007874,0.01001,-0.988281,0.205588,0.493435,-0.069924,46,288,580,6176
1644183330.865843,-0.009033,0.010925,-0.990234,0.281924,0.386565,-0.161527,51,281,590,6224
1644183330.914278,-0.009399,0.010193,-0.991943,0.098718,0.386565,-0.054656,49,285,579,6224
1644183330.962691,-0.01001,0.008423,-0.990417,0.159786,0.417099,-0.085191,41,271,587,6240
1644183331.068177,-0.009399,0.010742,-0.989807,0.266656,0.386565,-0.054656,45,270,586,6224
1644183331.107762,-0.009521,0.01178,-0.987854,0.190321,0.386565,0.036947,48,276,583,6224
1644183331.156197,-0.008606,0.009521,-0.990479,0.068183,0.432366,-0.25313,61,280,579,6176
1644183331.204643,-0.004639,0.008911,-0.990601,0.297191,0.264427,-0.130992,43,266,576,6240
1644183331.252981,-0.009949,0.010559,-0.988892,0.495664,0.417099,-0.024122,46,286,585,6192
1644183331.301374,-0.005981,0.01123,-0.98999,0.312458,0.371298,-0.176794,40,282,593,6176
1644183331.349767,-0.008179,0.012085,-0.989563,0.129252,0.401832,0.006412,45,275,582,6192
1644183331.398177,-0.00885,0.010986,-0.993225,0.297191,0.462901,-0.085191,38,285,582,6192
1644183331.446564,-0.006165,0.008484,-0.990112,0.144519,0.310229,-0.008855,49,277,589,6240
1644183331.495113,-0.007812,0.009644,-0.990295,0.266656,0.294962,-0.115725,49,270,582,6176
1644183331.543348,-0.00769,0.009888,-0.991394,0.159786,0.432366,-0.085191,48,281,585,6224
1644183331.59174,-0.007629,0.009888,-0.990356,0.007115,0.371298,-0.100458,40,277,591,6160
1644183331.640132,-0.009949,0.010376,-0.991394,0.175053,0.340763,-0.14626,39,286,587,6192
1644183331.688521,-0.006226,0.010132,-0.991638,0.266656,0.539237,-0.115725,41,279,573,6224
1644183331.737095,-0.010071,0.008545,-0.990234,0.175053,0.462901,-0.176794,52,282,577,6128
1644183331.785923,-0.008423,0.011108,-0.991211,0.113985,0.233893,-0.024122,38,273,582,6192
1644183331.837277,-0.009766,0.010376,-0.988525,0.159786,0.310229,0.174351,40,275,584,6240
1644183331.887401,-0.008118,0.010498,-0.991577,0.281924,0.325496,-0.085191,40,270,584,6224
1644183331.932161,-0.009583,0.009644,-0.991333,0.08345,0.401832,-0.085191,53,274,587,6224
1644183332.027287,-0.007812,0.010864,-0.992126,0.159786,0.401832,-0.115725,55,276,580,6160
1644183332.075785,-0.009827,0.009338,-0.991821,0.129252,0.401832,0.021679,54,277,582,6240
1644183332.124054,-0.006226,0.010071,-0.992981,0.144519,0.279695,0.052214,58,293,587,6224
1644183332.172463,-0.009949,0.011353,-0.989807,0.220855,0.386565,-0.039389,43,281,583,6160
1644183332.220845,-0.009033,0.010254,-0.990295,0.144519,0.432366,-0.100458,58,288,585,6160
1644183332.269222,-0.007812,0.009521,-0.988953,0.251389,0.310229,0.006412,52,280,579,6240
1644183332.317612,-0.007812,0.008789,-0.991089,0.236122,0.478168,-0.176794,52,270,589,6160
1644183332.366022,-0.00885,0.006958,-0.990173,0.220855,0.356031,-0.14626,57,287,582,6176
1644183332.414429,-0.006531,0.010437,-0.991882,0.205588,0.462901,-0.115725,42,282,584,6192
1644183332.462826,-0.009155,0.007935,-0.992065,0.220855,0.417099,-0.130992,52,277,579,6192
1644183332.511211,-0.008423,0.009338,-0.992371,0.205588,0.508702,-0.176794,48,281,585,6224
1644183332.559599,-0.010498,0.009094,-0.99176,0.220855,0.447634,-0.207328,58,274,578,6176
1644183332.608006,-0.006165,0.010498,-0.990906,0.190321,0.447634,0.006412,47,263,582,6176
1644183332.656388,-0.010376,0.010986,-0.991333,0.342992,0.447634,0.036947,52,280,591,6224
1644183332.704801,-0.00769,0.00946,-0.989502,0.190321,0.386565,-0.085191,48,281,580,6192
1644183332.753144,-0.007996,0.011292,-0.992859,0.342992,0.508702,-0.069924,58,286,585,6256
1644183332.801549,-0.007385,0.009399,-0.989563,0.266656,0.432366,-0.161527,46,271,583,6240
1644183332.849992,-0.006409,0.012939,-0.992126,0.281924,0.218626,-0.161527,52,275,582,6160
1644183332.898778,-0.006958,0.01178,-0.993042,0.068183,0.432366,0.006412,45,282,579,6224
1644183332.948478,-0.004944,0.012756,-0.990051,0.266656,0.371298,0.036947,45,280,586,6176
1644183332.998691,-0.005127,0.011658,-0.991516,0.342992,0.417099,-0.192061,43,286,576,6224
1644183333.066212,-0.006531,0.011536,-0.991333,0.251389,0.310229,-0.268397,58,271,578,6160
1644183333.140329,-0.008911,0.013367,-0.991638,0.297191,0.508702,-0.192061,45,277,591,6256
1644183333.188699,-0.00885,0.011719,-0.990173,0.297191,0.310229,-0.130992,46,286,580,6192
1644183333.237072,-0.007996,0.010498,-0.98999,0.205588,0.356031,-0.115725,47,265,577,6192
1644183333.285478,-0.003113,0.011597,-0.991882,0.113985,0.325496,-0.085191,43,266,583,6224
1644183333.333898,-0.00824,0.010681,-0.990234,0.129252,0.371298,-0.237863,49,275,577,6128
1644183333.382283,-0.006836,0.00824,-0.992615,0.220855,0.371298,0.036947,45,275,584,6160
1644183333.430673,-0.009216,0.011902,-0.99176,0.220855,0.447634,-0.054656,57,277,586,6160
1644183333.47906,-0.009583,0.009827,-0.990295,0.098718,0.340763,-0.130992,40,280,582,6192
1644183333.527463,-0.007874,0.01062,-0.993042,0.251389,0.203359,-0.024122,49,273,582,6160
1644183333.57585,-0.009033,0.010437,-0.992615,0.129252,0.371298,0.067481,42,277,593,6192
1644183333.624275,-0.007935,0.011292,-0.992554,0.297191,0.340763,-0.268397,49,268,575,6160
1644183333.672652,-0.010498,0.010742,-0.990356,0.236122,0.233893,-0.024122,51,274,580,6192
1644183333.721032,-0.007629,0.011414,-0.991272,0.098718,0.264427,-0.024122,51,283,590,6192
1644183333.769415,-0.010376,0.009949,-0.988098,0.205588,0.462901,-0.085191,48,279,580,6240
1644183333.817814,-0.005554,0.012024,-0.987549,0.236122,0.310229,-0.176794,52,282,575,6160
1644183333.866249,-0.007629,0.010803,-0.989258,0.159786,0.356031,-0.25313,57,277,596,6160
1644183333.914656,-0.007629,0.010864,-0.990662,0.205588,0.340763,-0.085191,46,269,590,6192
1644183333.963053,-0.008362,0.012634,-0.989624,0.113985,0.417099,-0.039389,58,281,585,6240
1644183334.062197,-0.009094,0.010986,-0.989502,0.251389,0.447634,-0.100458,54,277,591,6192
1644183334.108163,-0.005981,0.012939,-0.989441,0.190321,0.325496,-0.298931,67,276,583,6192
1644183334.15657,-0.009155,0.011353,-0.993225,0.327725,0.401832,-0.161527,53,283,578,6192
1644183334.204984,-0.007996,0.01178,-0.993286,0.190321,0.508702,-0.14626,46,276,585,6176
1644183334.253322,-0.007751,0.009216,-0.991638,0.342992,0.432366,-0.069924,54,290,582,6224
1644183334.301741,-0.005432,0.010925,-0.991089,0.098718,0.432366,-0.14626,53,276,583,6160
1644183334.350129,-0.009155,0.011475,-0.99054,0.495664,0.493435,-0.161527,62,276,587,6240
1644183334.398529,-0.010376,0.010498,-0.99292,0.312458,0.417099,-0.085191,52,268,584,6176
1644183334.446916,-0.007935,0.010193,-0.990662,0.159786,0.432366,-0.161527,52,277,572,6192
1644183334.495286,-0.009827,0.010986,-0.990723,0.098718,0.340763,-0.085191,46,264,590,6128
1644183334.543716,-0.007202,0.011414,-0.988892,0.159786,0.371298,-0.130992,35,275,586,6224
1644183334.592204,-0.009705,0.013916,-0.990784,0.175053,0.264427,-0.085191,55,279,578,6224
1644183334.640494,-0.007507,0.010376,-0.989136,0.327725,0.264427,-0.130992,51,281,585,6160
1644183334.688873,-0.006531,0.011658,-0.992371,0.373527,0.310229,-0.237863,47,265,584,6112
1644183334.737268,-0.007385,0.011902,-0.990295,0.236122,0.493435,0.052214,49,277,589,6224
1644183334.785661,-0.006958,0.008057,-0.987549,0.144519,0.325496,-0.024122,49,277,586,6192
1644183334.834053,-0.005188,0.011414,-0.989868,0.190321,0.294962,-0.085191,57,270,589,6240
1644183334.882528,-0.006226,0.008484,-0.991394,0.236122,0.386565,0.021679,40,273,572,6192
1644183334.932436,-0.009338,0.011047,-0.991577,0.159786,0.371298,-0.115725,52,282,582,6160
1644183334.98278,-0.011353,0.009949,-0.990234,0.159786,0.371298,-0.207328,51,276,590,6224
1644183335.033239,-0.007141,0.009888,-0.990601,0.144519,0.279695,-0.069924,54,275,584,6160
1644183335.087414,-0.007751,0.012573,-0.992065,0.251389,0.386565,-0.054656,52,270,579,6224
1644183335.17287,-0.009399,0.012695,-0.989929,0.297191,0.508702,-0.130992,51,276,580,6160
1644183335.221232,-0.009277,0.011047,-0.991333,0.266656,0.432366,-0.115725,51,279,580,6080
1644183335.26962,-0.006653,0.008118,-0.992737,0.236122,0.340763,0.006412,48,274,580,6192
1644183335.318008,-0.011292,0.011536,-0.992065,0.175053,0.432366,0.082748,46,291,587,6128
1644183335.366427,-0.007507,0.010254,-0.991943,0.113985,0.508702,-0.100458,53,276,569,6128
1644183335.414827,-0.008606,0.01062,-0.989929,0.236122,0.310229,-0.054656,45,282,586,6160
1644183335.463216,-0.006531,0.008545,-0.990051,0.312458,0.417099,-0.130992,49,280,575,6128
1644183335.511603,-0.008057,0.009521,-0.991821,0.190321,0.447634,-0.069924,46,276,573,6224
1644183335.559997,-0.008118,0.011536,-0.990967,0.281924,0.310229,-0.085191,41,279,583,6160
1644183335.60841,-0.010925,0.010376,-0.99231,0.098718,0.462901,-0.008855,52,275,577,6128
1644183335.656775,-0.010864,0.010437,-0.991089,0.236122,0.356031,-0.115725,53,276,583,6192
1644183335.705249,-0.007263,0.008545,-0.992188,0.190321,0.462901,-0.054656,40,280,591,6112
1644183335.753582,-0.005676,0.01001,-0.989685,0.342992,0.325496,-0.100458,43,276,578,6176
1644183335.801963,-0.007812,0.010437,-0.992126,0.205588,0.432366,-0.161527,40,270,575,6160
1644183335.850351,-0.008057,0.01001,-0.98877,0.129252,0.371298,-0.100458,48,274,583,6112
1644183335.898721,-0.00769,0.00824,-0.988831,0.190321,0.386565,-0.085191,42,270,586,6224
1644183335.947133,-0.00708,0.010803,-0.992737,0.175053,0.554504,0.052214,48,276,576,6224
1644183335.995595,-0.006775,0.008667,-0.994263,0.08345,0.340763,-0.161527,48,281,592,6192
1644183336.055141,-0.006226,0.010437,-0.992371,0.113985,0.432366,-0.054656,46,283,583,6240
1644183336.100574,-0.00824,0.010803,-0.989746,0.205588,0.386565,-0.054656,52,273,579,6224
1644183336.144248,-0.006165,0.01239,-0.991943,0.251389,0.493435,-0.008855,51,276,583,6192
1644183336.18959,-0.010315,0.009277,-0.991577,0.159786,0.447634,-0.130992,47,280,584,6192
1644183336.285835,-0.008728,0.009888,-0.989807,0.068183,0.447634,-0.039389,47,285,584,6224
1644183336.334233,-0.008545,0.009949,-0.990234,0.220855,0.24916,-0.069924,40,273,575,6160
1644183336.382644,-0.008728,0.012573,-0.991455,0.190321,0.401832,-0.024122,39,283,583,6192
1644183336.431024,-0.008423,0.014648,-0.991333,0.251389,0.294962,-0.069924,53,279,583,6192
1644183336.47941,-0.007385,0.012634,-0.989868,0.159786,0.493435,0.006412,53,286,583,6240
1644183336.527811,-0.008911,0.011536,-0.990173,0.144519,0.325496,-0.024122,47,275,582,6176
1644183336.576207,-0.006348,0.009949,-0.990356,0.236122,0.371298,-0.100458,46,276,583,6160
1644183336.624629,-0.008301,0.006042,-0.989136,0.129252,0.447634,-0.130992,47,265,579,6256
1644183336.673001,-0.007568,0.009644,-0.989319,0.251389,0.417099,-0.054656,51,288,578,6176
1644183336.721381,-0.007935,0.009521,-0.99231,0.175053,0.417099,-0.14626,52,275,582,6176
1644183336.769777,-0.006714,0.013062,-0.989868,0.205588,0.371298,-0.283664,46,274,576,6224
1644183336.818201,-0.007751,0.009399,-0.98938,0.052916,0.462901,-0.298931,53,281,585,6160
1644183336.866594,-0.00824,0.010864,-0.989502,0.022382,0.356031,-0.069924,48,274,580,6224
1644183336.915035,-0.005066,0.010071,-0.991821,0.159786,0.294962,0.006412,48,279,578,6176
1644183336.963389,-0.007935,0.010986,-0.993652,0.205588,0.386565,-0.069924,40,282,589,6224
1644183337.011781,-0.008179,0.012695,-0.991089,0.236122,0.371298,-0.085191,41,271,583,6240
1644183337.070547,-0.009888,0.011353,-0.99292,0.266656,0.386565,-0.192061,39,279,590,6224
1644183337.114979,-0.006592,0.007507,-0.991089,0.266656,0.401832,-0.069924,40,277,591,6128
1644183337.157207,-0.009338,0.009827,-0.990173,0.175053,0.340763,-0.069924,51,276,578,6224
1644183337.206743,-0.008606,0.00885,-0.992004,0.159786,0.462901,-0.085191,48,281,580,6160
1644183337.257004,-0.009827,0.010376,-0.99292,0.098718,0.447634,-0.130992,49,270,586,6192
1644183337.307065,-0.008057,0.013733,-0.989624,0.281924,0.401832,-0.100458,48,281,576,6112
1644183337.398856,-0.009521,0.011841,-0.994568,0.281924,0.294962,-0.024122,52,277,579,6224
1644183337.447261,-0.009216,0.012695,-0.992493,0.220855,0.493435,-0.14626,51,279,585,6224
1644183337.495646,-0.009766,0.011658,-0.991211,0.159786,0.432366,-0.192061,49,270,586,6192
1644183337.544056,-0.006897,0.01178,-0.99054,0.205588,0.478168,-0.283664,52,277,584,6192
1644183337.59244,-0.007751,0.012756,-0.990295,0.113985,0.386565,-0.25313,54,273,586,6192
1644183337.640842,-0.00592,0.007568,-0.992737,0.266656,0.356031,-0.298931,42,273,577,6224
1644183337.68922,-0.008789,0.009888,-0.993164,0.236122,0.417099,-0.008855,47,277,589,6112
1644183337.73764,-0.009399,0.007751,-0.991089,0.08345,0.417099,-0.054656,47,270,586,6160
1644183337.786003,-0.007019,0.007324,-0.991394,0.281924,0.310229,-0.100458,43,291,580,6128
1644183337.834469,-0.007568,0.010376,-0.989624,0.113985,0.432366,-0.192061,40,282,575,6176
1644183337.882873,-0.007751,0.008545,-0.99176,0.175053,0.325496,-0.130992,41,279,576,6176
1644183337.931238,-0.009705,0.009888,-0.992065,0.220855,0.24916,-0.176794,42,277,579,6224
1644183337.979631,-0.009521,0.009277,-0.987122,0.236122,0.325496,-0.054656,49,275,584,6240
1644183338.028023,-0.006592,0.010437,-0.990234,0.098718,0.294962,-0.054656,39,286,583,6224
1644183338.079397,-0.008057,0.007141,-0.988953,0.052916,0.340763,-0.222595,53,271,578,6224
1644183338.124799,-0.01001,0.009888,-0.991333,0.297191,0.462901,-0.100458,43,281,583,6128
1644183338.173475,-0.007385,0.01123,-0.992004,0.327725,0.417099,-0.069924,46,279,585,6224
1644183338.222544,-0.008972,0.008545,-0.991455,0.08345,0.340763,-0.085191,39,274,573,6192
1644183338.272967,-0.00592,0.010071,-0.993347,0.144519,0.294962,-0.14626,55,276,576,6128
1644183338.32322,-0.006897,0.008057,-0.993774,0.388794,0.462901,0.036947,59,280,582,6224
1644183338.368347,-0.009583,0.011047,-0.991211,0.281924,0.493435,-0.085191,60,279,585,6240
1644183338.46354,-0.00946,0.010437,-0.990601,0.159786,0.371298,0.052214,45,277,577,6240
1644183338.511901,-0.009644,0.013184,-0.991272,0.098718,0.386565,-0.085191,53,283,576,6192
1644183338.560311,-0.009155,0.010132,-0.988525,-0.02342,0.294962,-0.008855,53,279,583,6176
1644183338.608696,-0.008911,0.008911,-0.989319,0.068183,0.325496,-0.161527,51,274,585,6176
1644183338.657086,-0.00946,0.007812,-0.992676,0.129252,0.493435,-0.039389,52,275,593,6224
1644183338.705481,-0.007751,0.013123,-0.989624,0.281924,0.478168,-0.25313,54,280,589,6224
1644183338.753876,-0.008057,0.011658,-0.993164,0.220855,0.356031,-0.237863,43,279,580,6224
1644183338.802294,-0.011719,0.011475,-0.992371,0.342992,0.386565,-0.237863,48,274,585,6160
1644183338.850711,-0.009094,0.009033,-0.991699,0.159786,0.447634,-0.25313,48,286,590,6160
1644183338.899092,-0.009644,0.007751,-0.989685,0.113985,0.447634,0.098015,43,281,587,6080
1644183338.947505,-0.009399,0.007629,-0.99292,0.236122,0.386565,-0.069924,47,270,586,6128
1644183338.99587,-0.008423,0.011292,-0.988525,0.236122,0.493435,-0.085191,60,276,585,6160
1644183339.044258,-0.010071,0.009155,-0.992004,0.35826,0.417099,-0.237863,51,279,580,6192
1644183339.097858,-0.008728,0.007629,-0.991943,0.251389,0.294962,-0.192061,55,288,578,6192
1644183339.141029,-0.008606,0.00946,-0.990662,0.175053,0.401832,-0.329466,39,279,580,6128
1644183339.189412,-0.009644,0.008972,-0.992432,0.175053,0.233893,-0.115725,55,276,580,6224
1644183339.237825,-0.008728,0.011719,-0.99231,0.312458,0.340763,-0.100458,42,277,582,6192
1644183339.286204,-0.008301,0.008606,-0.988525,0.159786,0.371298,-0.100458,47,287,586,6224
1644183339.334644,-0.010254,0.007263,-0.990417,0.144519,0.493435,-0.14626,46,269,578,6224
1644183339.383216,-0.009155,0.008911,-0.993469,0.327725,0.493435,-0.024122,49,275,591,6128
1644183339.43378,-0.010559,0.010498,-0.992554,0.159786,0.401832,-0.054656,52,287,591,6224
1644183339.483957,-0.008545,0.008057,-0.992981,0.266656,0.325496,-0.176794,47,268,586,6192
1644183339.529165,-0.009338,0.009888,-0.991699,0.266656,0.340763,-0.100458,48,279,573,6224
1644183339.62519,-0.006958,0.009399,-0.993591,0.175053,0.386565,-0.130992,48,281,592,6224
1644183339.673361,-0.007263,0.011353,-0.990417,0.312458,0.401832,-0.130992,46,279,573,6128
1644183339.721731,-0.012024,0.011475,-0.991455,0.220855,0.462901,-0.069924,47,273,572,6224
1644183339.770124,-0.010376,0.008362,-0.988403,0.266656,0.371298,-0.115725,52,268,582,6176
1644183339.818523,-0.006165,0.010742,-0.992188,0.220855,0.371298,0.006412,52,273,582,6256
1644183339.866956,-0.005981,0.011353,-0.991272,0.251389,0.493435,-0.14626,51,276,583,6160
1644183339.915345,-0.009827,0.006897,-0.992554,0.312458,0.325496,-0.069924,51,286,576,6176
1644183339.963762,-0.004211,0.010254,-0.989075,0.159786,0.417099,-0.130992,47,280,582,6112
1644183340.012186,-0.009399,0.011414,-0.990906,0.205588,0.325496,0.021679,43,274,585,6160
1644183340.064545,-0.008545,0.010071,-0.991699,0.144519,0.462901,-0.039389,45,280,586,6192
1644183340.109055,-0.007996,0.010315,-0.990906,0.175053,0.493435,-0.207328,53,271,592,6160
1644183340.157284,-0.008301,0.008301,-0.991394,0.236122,0.493435,-0.054656,53,286,578,6192
1644183340.205666,-0.009094,0.010864,-0.991943,0.205588,0.264427,-0.14626,54,268,579,6240
1644183340.254081,-0.009155,0.011047,-0.991638,0.129252,0.356031,-0.069924,48,276,585,6240
1644183340.302459,-0.01001,0.010559,-0.990906,0.266656,0.356031,0.082748,55,269,578,6128
1644183340.350849,-0.005859,0.013184,-0.992737,0.144519,0.432366,0.021679,46,283,578,6192
1644183340.399237,-0.008301,0.010193,-0.99176,0.098718,0.371298,-0.115725,57,275,598,6240
1644183340.447628,-0.008362,0.010681,-0.991882,0.098718,0.554504,-0.298931,49,277,575,6176
1644183340.49604,-0.009888,0.009827,-0.989624,0.159786,0.401832,-0.069924,47,273,584,6240
1644183340.544441,-0.007568,0.007874,-0.992188,0.297191,0.310229,-0.054656,55,271,585,6160
1644183340.594863,-0.009033,0.010315,-0.992371,0.220855,0.447634,-0.161527,48,279,573,6176
1644183340.64516,-0.00708,0.010864,-0.99231,0.098718,0.340763,-0.054656,47,275,582,6192
1644183340.690248,-0.010376,0.00885,-0.991333,0.190321,0.356031,-0.008855,48,276,583,6128
1644183340.786367,-0.008728,0.009888,-0.99176,0.175053,0.386565,-0.039389,49,280,579,6224
1644183340.834859,-0.007568,0.011414,-0.990784,0.129252,0.371298,-0.024122,54,273,572,6224
1644183340.883219,-0.007324,0.011047,-0.991943,0.205588,0.356031,-0.207328,42,280,577,6224
1644183340.931579,-0.007751,0.007751,-0.993958,0.144519,0.478168,-0.024122,52,285,582,6080
1644183340.979991,-0.008362,0.013062,-0.992004,0.281924,0.371298,-0.054656,40,273,582,6240
1644183341.028373,-0.008911,0.008667,-0.992188,0.251389,0.188092,-0.115725,55,264,590,6224
1644183341.077275,-0.01123,0.009583,-0.991089,0.35826,0.279695,-0.039389,53,276,590,6256
1644183341.125221,-0.007629,0.01001,-0.992126,0.266656,0.356031,-0.115725,46,279,578,6224
1644183341.173524,-0.007812,0.009094,-0.992676,0.220855,0.417099,-0.085191,45,277,568,6176
1644183341.221921,-0.01062,0.010193,-0.992615,0.052916,0.417099,0.006412,51,281,576,6192
1644183341.270321,-0.008301,0.009216,-0.99231,0.159786,0.325496,0.006412,48,281,573,6224
1644183341.318683,-0.007629,0.010498,-0.990662,0.251389,0.523969,-0.085191,54,273,577,6224
1644183341.367065,-0.009583,0.013184,-0.991638,0.281924,0.356031,-0.222595,48,281,583,6192
1644183341.415481,-0.009033,0.005737,-0.990601,0.236122,0.447634,-0.024122,55,276,585,6256
1644183341.463892,-0.008423,0.008789,-0.990601,0.159786,0.371298,-0.039389,60,283,590,6224
1644183341.512285,-0.010742,0.012329,-0.992859,0.113985,0.478168,-0.115725,52,280,582,6192
1644183341.560672,-0.006653,0.012146,-0.990662,0.373527,0.493435,-0.115725,51,281,580,6128
1644183341.609053,-0.006897,0.011353,-0.993408,0.236122,0.523969,-0.161527,40,275,591,6176
1644183341.657447,-0.009583,0.010559,-0.993286,0.159786,0.493435,-0.054656,38,277,577,6192
1644183341.706314,-0.00824,0.011169,-0.991699,0.159786,0.432366,-0.207328,51,286,590,6192
1644183341.756917,-0.007385,0.008667,-0.993042,0.297191,0.386565,-0.161527,48,279,585,6240
1644183341.807059,-0.009766,0.010559,-0.989868,0.327725,0.340763,-0.115725,61,273,593,6192
1644183341.851927,-0.010864,0.006226,-0.989197,0.190321,0.569771,0.113282,45,270,582,6224
1644183341.947863,-0.005737,0.008179,-0.990723,0.08345,0.585038,-0.054656,53,288,580,6176
1644183341.996204,-0.008911,0.009705,-0.991577,0.190321,0.371298,-0.25313,52,275,593,6176
1644183342.044862,-0.008057,0.011169,-0.990967,0.190321,0.539237,-0.192061,48,281,573,6160
1644183342.093073,-0.010376,0.006287,-0.993347,0.068183,0.325496,-0.085191,52,273,584,6224
1644183342.141417,-0.002441,0.011169,-0.991272,0.113985,0.371298,0.006412,54,277,589,6080
1644183342.18978,-0.008911,0.011353,-0.995422,0.251389,0.279695,-0.192061,45,277,579,6192
1644183342.238169,-0.008545,0.008057,-0.987976,0.190321,0.508702,-0.115725,45,277,584,6192
1644183342.286564,-0.008667,0.010803,-0.98999,0.129252,0.447634,-0.161527,49,277,577,6224
1644183342.335074,-0.007629,0.010498,-0.992126,0.220855,0.325496,-0.14626,41,274,590,6240
1644183342.383353,-0.009216,0.010132,-0.992737,0.037649,0.371298,-0.14626,48,281,578,6240
1644183342.431738,-0.008606,0.009644,-0.990723,0.205588,0.356031,-0.039389,59,282,579,6224
1644183342.480117,-0.008484,0.007874,-0.991089,0.373527,0.417099,-0.100458,48,283,587,6176
1644183342.528519,-0.007141,0.008911,-0.989868,0.190321,0.432366,-0.054656,55,271,580,6176
1644183342.576908,-0.007996,0.01123,-0.991028,0.175053,0.386565,-0.268397,61,285,589,6160
1644183342.625613,-0.007751,0.010437,-0.990906,0.327725,0.478168,-0.008855,53,271,583,6160
1644183342.676059,-0.007751,0.007141,-0.990601,0.113985,0.279695,-0.069924,57,280,579,6192
1644183342.726142,-0.007202,0.009277,-0.993103,0.251389,0.386565,-0.039389,41,276,590,6192
1644183342.771187,-0.005615,0.00946,-0.993225,0.312458,0.432366,-0.176794,46,279,578,6176
1644183342.867255,-0.006653,0.009766,-0.990967,0.113985,0.218626,-0.024122,52,273,572,6224
1644183342.91569,-0.007019,0.013367,-0.989441,0.098718,0.340763,-0.115725,52,277,584,6160
1644183342.964094,-0.008423,0.007996,-0.991516,0.205588,0.523969,-0.207328,51,274,585,6192
1644183343.012475,-0.007019,0.009583,-0.993896,0.251389,0.340763,0.036947,45,277,579,6224
1644183343.064985,-0.008911,0.010559,-0.993042,0.068183,0.386565,-0.115725,51,271,585,6128
1644183343.10925,-0.010864,0.009644,-0.990601,0.068183,0.310229,-0.008855,49,273,582,6128
1644183343.15766,-0.009277,0.00885,-0.99231,0.098718,0.264427,-0.176794,53,286,578,6192
1644183343.206065,-0.008911,0.009277,-0.993835,0.266656,0.417099,-0.192061,39,274,580,6176
1644183343.25444,-0.009766,0.00769,-0.991699,0.281924,0.340763,-0.115725,43,281,576,6160
1644183343.302866,-0.008545,0.011963,-0.990967,0.190321,0.371298,-0.130992,46,276,585,6240
1644183343.351237,-0.006287,0.009399,-0.99115,0.190321,0.279695,-0.130992,45,280,565,6176
1644183343.399619,-0.008728,0.01062,-0.991089,0.327725,0.401832,-0.161527,39,276,587,6192
1644183343.448018,-0.007751,0.010071,-0.992371,0.236122,0.340763,-0.024122,52,275,586,6224
1644183343.496425,-0.007324,0.009033,-0.993225,0.190321,0.340763,0.006412,55,281,573,6192
1644183343.544821,-0.008484,0.007507,-0.990967,0.297191,0.432366,-0.176794,59,280,572,6224
1644183343.593209,-0.009155,0.009583,-0.991089,0.205588,0.325496,-0.085191,46,279,587,6240
1644183343.641598,-0.009827,0.006653,-0.99115,0.236122,0.386565,-0.054656,42,273,582,6160
1644183343.690271,-0.007324,0.008362,-0.991089,0.129252,0.340763,-0.207328,46,281,590,6224
1644183343.738419,-0.008667,0.00946,-0.989319,0.251389,0.294962,0.036947,48,271,576,6224
1644183343.787966,-0.008728,0.010803,-0.992798,0.144519,0.310229,-0.268397,41,274,587,6224
1644183343.838517,-0.009888,0.010498,-0.990356,0.327725,0.325496,-0.100458,48,271,594,6192
1644183343.888822,-0.009644,0.011597,-0.993164,0.190321,0.356031,-0.008855,51,274,590,6112
1644183343.9332,-0.010681,0.010132,-0.989624,0.266656,0.218626,-0.14626,51,269,571,6192
1644183344.028734,-0.009033,0.008606,-0.990234,0.236122,0.340763,-0.008855,54,275,582,6240
1644183344.0772,-0.006714,0.009827,-0.992859,0.220855,0.371298,-0.039389,41,283,580,6160
1644183344.125462,-0.00824,0.010376,-0.992737,0.098718,0.310229,-0.069924,52,273,579,6192
1644183344.17388,-0.00769,0.009766,-0.992249,0.190321,0.417099,-0.054656,40,280,579,6192
1644183344.222384,-0.008484,0.009644,-0.992859,0.236122,0.523969,-0.161527,52,277,572,6160
1644183344.270668,-0.011902,0.010681,-0.991943,0.098718,0.417099,-0.085191,48,279,573,6160
1644183344.319034,-0.009949,0.011475,-0.992493,0.052916,0.585038,-0.14626,46,276,578,6240
1644183344.367453,-0.005737,0.009155,-0.98938,0.205588,0.24916,-0.085191,42,282,586,6176
1644183344.415842,-0.009399,0.010071,-0.99292,0.129252,0.310229,-0.008855,51,269,587,6192
1644183344.464235,-0.010315,0.008362,-0.992432,0.236122,0.417099,-0.222595,52,273,582,6176
1644183344.512626,-0.007263,0.011169,-0.993591,0.190321,0.371298,-0.115725,43,271,578,6128
1644183344.561019,-0.00946,0.009277,-0.990845,0.236122,0.386565,-0.115725,43,266,585,6160
1644183344.609423,-0.007874,0.008484,-0.991882,0.220855,0.447634,-0.161527,49,292,577,6224
1644183344.657809,-0.009705,0.008057,-0.990723,0.404061,0.356031,-0.207328,54,275,591,6160
1644183344.7062,-0.006714,0.009094,-0.987549,0.129252,0.462901,-0.161527,51,274,585,6224
1644183344.754646,-0.008118,0.010437,-0.988281,0.144519,0.569771,0.067481,47,277,577,6160
1644183344.803051,-0.01001,0.008606,-0.992249,0.281924,0.432366,-0.069924,51,274,590,6160
1644183344.851413,-0.011169,0.009705,-0.99176,0.251389,0.417099,-0.069924,58,266,580,6256
1644183344.899836,-0.010864,0.009949,-0.992249,0.129252,0.356031,-0.207328,43,276,580,6288
1644183344.949163,-0.006409,0.012085,-0.992126,0.205588,0.417099,0.036947,49,273,586,6224
1644183344.99935,-0.009277,0.006897,-0.992126,0.266656,0.523969,0.021679,46,274,578,6176
1644183345.065437,-0.005493,0.010559,-0.990845,0.113985,0.432366,-0.237863,43,279,587,6160
1644183345.101146,-0.008667,0.00946,-0.989929,0.312458,0.447634,-0.024122,45,275,579,6192
1644183345.19014,-0.008606,0.010437,-0.992249,0.037649,0.371298,-0.069924,45,277,579,6224
1644183345.238504,-0.005981,0.011169,-0.989624,0.205588,0.417099,-0.192061,54,275,572,6176
1644183345.286918,-0.010376,0.011169,-0.991089,0.175053,0.386565,-0.008855,43,271,592,6192
1644183345.335307,-0.00708,0.009033,-0.992615,0.312458,0.279695,-0.100458,43,269,573,6240
1644183345.383706,-0.008789,0.009216,-0.991882,0.236122,0.279695,-0.237863,53,276,578,6176
1644183345.432137,-0.009766,0.012207,-0.993164,0.159786,0.188092,-0.130992,46,276,578,6112
1644183345.480475,-0.008972,0.009827,-0.990479,0.205588,0.493435,-0.25313,55,276,583,6224
1644183345.528886,-0.007385,0.011169,-0.991089,0.175053,0.279695,-0.25313,54,280,579,6160
1644183345.577271,-0.010376,0.009888,-0.989441,0.113985,0.417099,-0.085191,41,274,578,6160
1644183345.62567,-0.010376,0.009277,-0.99353,0.113985,0.356031,-0.024122,41,276,583,6160
1644183345.674085,-0.006714,0.009094,-0.992188,0.205588,0.325496,-0.085191,51,281,590,6224
1644183345.722469,-0.007751,0.008301,-0.989563,-0.038687,0.386565,0.021679,43,281,578,6224
1644183345.770846,-0.007874,0.00824,-0.992249,0.297191,0.493435,-0.222595,52,277,586,6128
1644183345.81929,-0.009277,0.010803,-0.993103,0.297191,0.386565,-0.192061,48,274,583,6192
1644183345.86768,-0.008545,0.00647,-0.992798,0.35826,0.508702,-0.085191,54,280,586,6160
1644183345.916044,-0.009827,0.008972,-0.992126,0.113985,0.356031,-0.130992,53,288,587,6176
1644183345.964451,-0.006592,0.011108,-0.990845,0.159786,0.569771,0.006412,43,271,585,6224
1644183346.062891,-0.010254,0.011047,-0.989746,0.022382,0.462901,0.021679,45,273,589,6224
1644183346.109543,-0.006836,0.009155,-0.991272,0.220855,0.493435,-0.161527,48,279,580,6224
1644183346.157963,-0.007874,0.011047,-0.991699,0.297191,0.340763,-0.069924,51,291,576,6176
1644183346.206374,-0.007385,0.011353,-0.990112,0.175053,0.523969,-0.115725,52,280,577,6240
1644183346.254758,-0.006775,0.011353,-0.991577,0.190321,0.356031,-0.069924,53,274,576,6192
1644183346.303186,-0.010559,0.005798,-0.994446,0.251389,0.417099,-0.100458,46,283,578,6176
1644183346.351562,-0.008545,0.008118,-0.991821,0.205588,0.386565,-0.100458,43,281,564,6224
1644183346.399931,-0.008972,0.011292,-0.991699,0.175053,0.401832,-0.008855,45,282,584,6160
1644183346.448337,-0.00647,0.010132,-0.990662,0.236122,0.432366,-0.161527,55,266,580,6192
1644183346.496724,-0.009583,0.008301,-0.993103,0.251389,0.478168,-0.069924,46,279,583,6224
1644183346.545192,-0.008972,0.010376,-0.99353,0.251389,0.356031,-0.161527,53,274,578,6160
1644183346.593541,-0.007385,0.011475,-0.993591,0.251389,0.386565,0.021679,46,271,587,6192
1644183346.641913,-0.013062,0.009705,-0.99054,0.236122,0.417099,-0.14626,45,290,591,6240
1644183346.690325,-0.008545,0.009277,-0.992065,0.35826,0.508702,-0.115725,53,279,585,6256
1644183346.738703,-0.008362,0.010681,-0.992798,0.175053,0.294962,-0.14626,47,270,586,6192
1644183346.787098,-0.008423,0.010193,-0.989319,0.205588,0.417099,-0.176794,59,277,575,6224
1644183346.835554,-0.009949,0.008118,-0.993469,0.205588,0.386565,-0.36,48,276,592,6160
1644183346.883937,-0.008118,0.011414,-0.989624,0.190321,0.462901,-0.069924,45,277,591,6240
1644183346.933403,-0.011047,0.011597,-0.991821,0.205588,0.325496,-0.130992,47,268,582,6160
1644183346.983344,-0.010376,0.009888,-0.99054,0.098718,0.401832,-0.054656,46,269,578,6176
1644183347.033809,-0.008728,0.009888,-0.991821,0.220855,0.279695,-0.222595,49,275,589,6160
1644183347.079322,-0.007446,0.008057,-0.989014,0.297191,0.371298,-0.130992,54,282,584,6256
1644183347.174249,-0.009583,0.011658,-0.991943,0.159786,0.356031,-0.161527,59,277,575,6192
1644183347.222646,-0.011719,0.01001,-0.990295,0.175053,0.432366,-0.14626,42,280,577,6192
1644183347.271017,-0.009277,0.008057,-0.99115,0.205588,0.386565,-0.085191,45,287,586,6160
1644183347.319399,-0.009521,0.009338,-0.993896,0.068183,0.325496,-0.115725,49,275,575,6176
1644183347.367797,-0.008484,0.007874,-0.99054,0.113985,0.462901,-0.100458,49,292,591,6240
1644183347.416182,-0.008118,0.009521,-0.990173,0.220855,0.356031,-0.130992,51,279,590,6192
1644183347.464627,-0.008423,0.011597,-0.991577,0.266656,0.508702,-0.054656,52,277,572,6240
1644183347.516089,-0.007019,0.011536,-0.990112,0.175053,0.386565,-0.161527,41,283,587,6160
1644183347.561383,-0.008301,0.010681,-0.993835,0.129252,0.401832,-0.085191,45,285,575,6160
1644183347.609786,-0.008789,0.010132,-0.992859,0.190321,0.417099,0.036947,52,273,584,6192
1644183347.658149,-0.008728,0.012207,-0.991455,0.159786,0.325496,-0.069924,51,281,571,6176
1644183347.70658,-0.007629,0.011719,-0.992371,0.159786,0.279695,-0.207328,41,271,578,6128
1644183347.755097,-0.00824,0.01123,-0.992249,0.388794,0.356031,-0.085191,46,269,585,6224
1644183347.80337,-0.006714,0.012634,-0.990601,0.08345,0.417099,-0.008855,52,277,568,6224
1644183347.851773,-0.010559,0.011292,-0.991089,0.251389,0.417099,-0.039389,58,274,583,6224
1644183347.900161,-0.007385,0.01001,-0.98938,0.190321,0.417099,-0.25313,46,271,585,6224
1644183347.948565,-0.008545,0.007446,-0.991882,0.342992,0.24916,-0.115725,48,271,583,6224
1644183347.997002,-0.010437,0.00885,-0.992126,0.175053,0.310229,-0.298931,54,280,586,6176
1644183348.058579,-0.007385,0.011292,-0.992432,0.266656,0.478168,-0.130992,55,276,592,6224
1644183348.097198,-0.008545,0.009705,-0.990906,0.266656,0.264427,-0.161527,54,275,584,6192
1644183348.145033,-0.007568,0.01416,-0.98938,0.175053,0.356031,-0.329466,54,280,593,6224
1644183348.194245,-0.010254,0.01062,-0.990356,0.190321,0.493435,-0.222595,47,275,586,6112
1644183348.239392,-0.007019,0.011169,-0.992188,0.098718,0.447634,-0.069924,54,270,577,6192
1644183348.335652,-0.007812,0.010254,-0.994629,0.312458,0.417099,-0.024122,42,273,591,6224
1644183348.384063,-0.011414,0.007568,-0.991516,0.175053,0.371298,-0.268397,38,273,584,6224
1644183348.43247,-0.010437,0.010437,-0.990112,0.144519,0.294962,-0.237863,43,274,580,6128
1644183348.480834,-0.009644,0.011047,-0.993286,0.236122,0.340763,-0.054656,58,279,583,6224
1644183348.529237,-0.009949,0.008972,-0.993103,0.251389,0.356031,-0.176794,49,280,575,6128
1644183348.577608,-0.010071,0.01178,-0.991394,0.266656,0.417099,-0.161527,45,280,591,6160
1644183348.626026,-0.007751,0.013489,-0.989563,0.190321,0.417099,-0.069924,46,266,585,6224
1644183348.674422,-0.007874,0.010193,-0.991028,0.327725,0.462901,-0.069924,45,273,579,6160
1644183348.722832,-0.008545,0.01178,-0.990417,0.159786,0.417099,-0.14626,52,287,579,6176
1644183348.771207,-0.006592,0.009521,-0.990601,0.205588,0.523969,-0.161527,41,271,578,6192
1644183348.819603,-0.011597,0.010376,-0.990112,0.205588,0.310229,-0.008855,47,280,589,6192
1644183348.868021,-0.008179,0.010498,-0.991333,0.404061,0.478168,-0.115725,51,269,590,6192
1644183348.916426,-0.008545,0.010254,-0.995728,0.236122,0.401832,-0.054656,48,279,573,6224
1644183348.964822,-0.005066,0.011475,-0.993835,0.052916,0.432366,-0.130992,48,276,576,6224
1644183349.013223,-0.008667,0.011658,-0.991333,0.175053,0.294962,-0.024122,59,275,589,6224
1644183349.06696,-0.006531,0.009521,-0.988831,0.08345,0.462901,-0.115725,49,277,582,6128
1644183349.113328,-0.010559,0.010925,-0.994385,0.312458,0.325496,-0.085191,51,281,576,6176
1644183349.158345,-0.009521,0.010071,-0.990601,0.251389,0.417099,-0.039389,48,279,594,6176
1644183349.206728,-0.009155,0.010986,-0.989319,0.144519,0.401832,-0.100458,48,281,585,6160
1644183349.255764,-0.01062,0.010254,-0.990662,0.129252,0.447634,-0.100458,47,280,584,6160
1644183349.306246,-0.008728,0.011108,-0.990601,0.175053,0.417099,0.052214,45,273,584,6224
1644183349.356242,-0.010925,0.009216,-0.992371,0.129252,0.371298,-0.039389,48,286,580,6128
1644183349.401364,-0.007812,0.010742,-0.993164,0.113985,0.432366,-0.008855,48,276,576,6160
1644183349.497082,-0.009521,0.010254,-0.990173,0.297191,0.356031,-0.008855,42,282,584,6192
1644183349.54548,-0.009644,0.010559,-0.993408,0.297191,0.325496,-0.115725,60,279,585,6192
1644183349.593888,-0.008484,0.006531,-0.991699,0.08345,0.264427,-0.008855,51,281,580,6224
1644183349.642389,-0.007141,0.009644,-0.991882,0.175053,0.615573,-0.008855,43,279,580,6192
1644183349.690661,-0.010437,0.007446,-0.99292,0.175053,0.447634,-0.25313,54,270,582,6128
1644183349.739065,-0.00946,0.008606,-0.991699,0.068183,0.386565,-0.100458,55,283,585,6176
1644183349.787436,-0.008972,0.012573,-0.990601,0.236122,0.386565,-0.054656,51,276,580,6128
1644183349.835834,-0.011414,0.008057,-0.99115,0.098718,0.356031,-0.192061,40,287,596,6224
1644183349.884284,-0.00885,0.010681,-0.992249,0.220855,0.386565,-0.069924,43,276,585,6192
1644183349.932699,-0.008423,0.010681,-0.992249,0.007115,0.294962,-0.14626,53,283,583,6160
1644183349.981025,-0.010376,0.008911,-0.991943,0.098718,0.356031,-0.024122,46,276,569,6192
1644183350.029463,-0.007751,0.010315,-0.99353,0.052916,0.386565,-0.024122,47,280,582,6240
1644183350.091083,-0.009644,0.009827,-0.992798,0.236122,0.356031,-0.115725,58,276,583,6240
1644183350.126261,-0.008728,0.010437,-0.992737,0.129252,0.172824,-0.039389,51,281,580,6192
1644183350.174752,-0.007812,0.010193,-0.99469,0.113985,0.417099,-0.192061,47,276,585,6240
1644183350.224241,-0.008728,0.009216,-0.991455,0.007115,0.447634,-0.085191,40,285,579,6192
1644183350.274974,-0.010681,0.012085,-0.991882,0.281924,0.294962,-0.024122,45,285,582,6192
1644183350.324726,-0.006042,0.012268,-0.990051,0.205588,0.462901,-0.100458,48,271,583,6240
1644183350.416553,-0.006836,0.010315,-0.992798,0.190321,0.386565,-0.14626,48,283,576,6176
1644183350.465208,-0.008484,0.010925,-0.993164,0.113985,0.447634,-0.237863,40,282,579,6128
1644183350.513332,-0.008545,0.009949,-0.993835,0.144519,0.585038,-0.100458,48,274,578,6224
1644183350.561734,-0.008362,0.007996,-0.992493,0.281924,0.310229,-0.115725,43,276,580,6160
1644183350.610101,-0.008911,0.008118,-0.992126,0.08345,0.233893,-0.176794,47,273,577,6128
1644183350.658527,-0.008484,0.00946,-0.991211,0.251389,0.417099,-0.222595,55,276,583,6176
1644183350.706908,-0.009888,0.007568,-0.993225,0.159786,0.401832,-0.207328,40,275,579,6176
1644183350.75529,-0.005066,0.009644,-0.991821,0.373527,0.386565,-0.115725,48,279,583,6160
1644183350.803697,-0.007263,0.012146,-0.991333,0.159786,0.493435,-0.069924,54,285,586,6224
1644183350.852087,-0.009888,0.012695,-0.989929,0.312458,0.600305,0.067481,48,279,576,6192
1644183350.900529,-0.007751,0.011841,-0.988953,0.220855,0.264427,-0.054656,53,281,592,6176
1644183350.948915,-0.009399,0.007019,-0.993225,0.220855,0.432366,-0.069924,55,274,580,6192
1644183350.997305,-0.008728,0.009216,-0.98938,0.144519,0.432366,-0.176794,42,277,579,6224
1644183351.045706,-0.007324,0.007629,-0.992126,0.007115,0.371298,0.082748,48,276,578,6192
1644183351.095215,-0.006958,0.010681,-0.991821,0.144519,0.523969,-0.115725,45,282,596,6176
1644183351.142451,-0.010498,0.009155,-0.990845,0.052916,0.356031,-0.054656,52,285,584,6240
1644183351.190842,-0.010559,0.010071,-0.991028,0.175053,0.371298,-0.176794,38,282,572,6192
1644183351.239218,-0.005737,0.00946,-0.989258,0.220855,0.356031,-0.100458,41,276,594,6176
1644183351.287618,-0.009216,0.007874,-0.991089,0.190321,0.325496,-0.039389,45,282,584,6224
1644183351.336392,-0.009521,0.010681,-0.992065,0.175053,0.478168,0.036947,46,283,587,6128
1644183351.38688,-0.010437,0.008362,-0.992065,0.129252,0.508702,-0.176794,57,285,591,6176
1644183351.43694,-0.011536,0.012085,-0.99292,0.144519,0.539237,0.036947,57,282,577,6240
1644183351.482018,-0.010986,0.007202,-0.991943,0.236122,0.401832,-0.161527,47,275,570,6224
1644183351.577974,-0.00708,0.010559,-0.99231,0.159786,0.478168,0.036947,38,282,589,6240
1644183351.626358,-0.009216,0.010681,-0.992676,0.08345,0.340763,0.021679,57,277,582,6240
1644183351.674859,-0.01001,0.007935,-0.992798,0.144519,0.371298,-0.069924,45,275,589,6192
1644183351.723166,-0.007141,0.011536,-0.993408,0.068183,0.539237,0.021679,45,280,584,6224
1644183351.771544,-0.009827,0.006897,-0.990112,-0.008153,0.523969,-0.085191,53,271,583,6224
1644183351.819981,-0.008667,0.010193,-0.989685,0.205588,0.447634,-0.008855,48,276,580,6224
1644183351.868376,-0.010071,0.010376,-0.990601,0.159786,0.371298,-0.176794,49,277,589,6192
1644183351.916781,-0.007507,0.007996,-0.990662,0.205588,0.386565,-0.039389,45,273,584,6160
1644183351.96528,-0.008179,0.009888,-0.991455,0.144519,0.585038,0.006412,52,280,575,6176
1644183352.013545,-0.009399,0.009583,-0.992981,0.220855,0.340763,0.006412,48,279,573,6224
1644183352.064603,-0.008057,0.012634,-0.992065,0.297191,0.279695,0.006412,40,273,572,6160
1644183352.110333,-0.009399,0.007935,-0.994385,0.175053,0.371298,-0.14626,57,280,589,6224
1644183352.158713,-0.010559,0.012085,-0.993164,0.113985,0.447634,-0.054656,49,273,584,6192
1644183352.207098,-0.010132,0.008667,-0.993103,0.175053,0.356031,-0.115725,51,279,583,6192
1644183352.255463,-0.010437,0.007446,-0.99292,0.190321,0.478168,0.006412,45,268,589,6160
1644183352.303876,-0.01062,0.010986,-0.99353,0.190321,0.371298,-0.176794,55,269,580,6224
1644183352.352285,-0.008423,0.010498,-0.992981,0.266656,0.401832,-0.115725,51,269,585,6256
1644183352.400659,-0.007507,0.010315,-0.990295,0.159786,0.417099,-0.14626,55,271,583,6192
1644183352.44922,-0.009033,0.010864,-0.992554,0.236122,0.356031,-0.100458,55,274,580,6224
1644183352.499966,-0.009277,0.011414,-0.992859,0.312458,0.508702,-0.054656,49,277,586,6176
1644183352.549639,-0.007507,0.009766,-0.992371,0.281924,0.310229,-0.085191,45,280,575,6192
1644183352.594512,-0.00824,0.005554,-0.994263,0.113985,0.279695,-0.100458,51,274,585,6160
1644183352.69102,-0.008423,0.008911,-0.992188,0.175053,0.325496,-0.207328,47,277,591,6160
1644183352.73941,-0.004578,0.00946,-0.99176,0.251389,0.340763,0.021679,45,280,584,6240
1644183352.787793,-0.009155,0.010498,-0.992493,0.373527,0.539237,-0.039389,47,275,575,6128
1644183352.836246,-0.006897,0.007324,-0.991028,0.297191,0.325496,-0.192061,42,277,582,6128
1644183352.884674,-0.009521,0.009827,-0.990417,0.281924,0.508702,-0.100458,54,280,584,6256
1644183352.933044,-0.01123,0.009949,-0.993896,0.281924,0.493435,-0.176794,47,280,591,6224
1644183352.981421,-0.007202,0.00885,-0.992371,0.236122,0.264427,-0.207328,40,280,582,6176
1644183353.029825,-0.008423,0.010498,-0.991943,0.297191,0.401832,0.006412,47,282,570,6224
1644183353.090302,-0.010437,0.009705,-0.992065,0.251389,0.401832,-0.176794,51,281,580,6128
1644183353.126535,-0.008423,0.00824,-0.996399,0.113985,0.340763,-0.207328,46,274,585,6160
1644183353.175066,-0.010071,0.010803,-0.989807,0.144519,0.432366,-0.130992,48,279,580,6192
1644183353.223351,-0.010132,0.009155,-0.990967,0.236122,0.447634,-0.054656,47,280,584,6192
1644183353.271751,-0.009216,0.008911,-0.992676,0.220855,0.356031,-0.008855,57,285,584,6192
1644183353.320128,-0.008728,0.011353,-0.993652,0.373527,0.478168,-0.130992,39,281,578,6160
1644183353.368521,-0.00531,0.01001,-0.992371,0.190321,0.417099,-0.085191,52,277,579,6224
1644183353.416913,-0.006958,0.010803,-0.992798,0.175053,0.417099,-0.130992,48,276,583,6192
1644183353.465315,-0.008667,0.008423,-0.992432,0.098718,0.462901,-0.130992,57,282,591,6240
1644183353.513786,-0.007812,0.009583,-0.991821,0.205588,0.264427,-0.085191,49,275,572,6224
1644183353.562606,-0.007263,0.008972,-0.989075,0.312458,0.493435,-0.115725,49,270,591,6240
1644183353.613207,-0.009888,0.009705,-0.992737,0.205588,0.356031,-0.069924,52,285,579,6224
1644183353.663706,-0.006165,0.009094,-0.990417,0.190321,0.401832,-0.14626,43,274,587,6176
1644183353.708459,-0.008728,0.010925,-0.990479,0.175053,0.417099,-0.115725,45,280,586,6224
1644183353.804096,-0.008423,0.009216,-0.990051,0.190321,0.264427,-0.039389,57,280,577,6160
1644183353.852508,-0.008667,0.007507,-0.989136,0.190321,0.478168,0.174351,46,266,578,6224
1644183353.900874,-0.006958,0.008606,-0.991455,0.159786,0.188092,-0.100458,52,280,577,6224
1644183353.949277,-0.007874,0.010437,-0.990356,0.220855,0.386565,-0.207328,46,288,576,6192
1644183353.997665,-0.006348,0.01062,-0.990295,0.236122,0.447634,-0.024122,52,270,582,6192
1644183354.06099,-0.006897,0.011353,-0.992188,0.190321,0.157557,-0.130992,47,280,582,6224
1644183354.096335,-0.008606,0.009949,-0.991943,0.251389,0.417099,-0.130992,45,277,586,6176
1644183354.142841,-0.008301,0.010132,-0.992615,0.251389,0.356031,-0.008855,58,279,583,6192
1644183354.191172,-0.008789,0.011719,-0.993469,-0.02342,0.462901,0.052214,59,273,589,6256
1644183354.239582,-0.007141,0.010803,-0.991211,0.007115,0.417099,-0.100458,49,275,584,6192
1644183354.287994,-0.005432,0.008606,-0.989929,0.08345,0.401832,-0.039389,52,277,589,6224
1644183354.336377,-0.008362,0.009644,-0.990662,0.190321,0.447634,-0.039389,46,271,583,6192
1644183354.385242,-0.007324,0.010071,-0.988953,0.144519,0.523969,-0.085191,55,271,590,6176
1644183354.434089,-0.006653,0.009521,-0.993652,0.251389,0.462901,0.036947,55,274,583,6304
1644183354.484648,-0.01123,0.010559,-0.991821,0.251389,0.310229,-0.161527,53,281,571,6192
1644183354.534784,-0.008362,0.008972,-0.991699,0.312458,0.401832,-0.024122,51,271,576,6176
1644183354.626747,-0.010437,0.007263,-0.988953,0.388794,0.447634,-0.176794,53,279,585,6192
1644183354.675333,-0.007874,0.011292,-0.989929,0.144519,0.401832,-0.222595,42,268,582,6160
1644183354.723513,-0.007507,0.009766,-0.992554,0.281924,0.432366,-0.085191,47,275,586,6080
1644183354.771919,-0.008301,0.00885,-0.99231,0.113985,0.493435,-0.054656,46,264,580,6224
1644183354.820296,-0.008057,0.008972,-0.99469,0.129252,0.417099,-0.14626,54,277,577,6176
1644183354.868743,-0.010193,0.00946,-0.994812,0.068183,0.356031,-0.100458,51,274,585,6160
1644183354.917136,-0.006897,0.007446,-0.991821,0.251389,0.447634,-0.14626,47,285,582,6224
1644183354.965531,-0.007019,0.009949,-0.993408,0.266656,0.493435,-0.100458,59,275,591,6160
1644183355.013921,-0.011292,0.009216,-0.990967,0.205588,0.417099,-0.054656,49,273,586,6176
1644183355.066941,-0.008667,0.009766,-0.990479,0.236122,0.493435,-0.14626,49,282,582,6128
1644183355.11069,-0.010803,0.009827,-0.988708,0.236122,0.447634,-0.024122,46,271,580,6128
1644183355.159056,-0.009216,0.012634,-0.993042,0.037649,0.386565,0.021679,52,282,579,6256
1644183355.207447,-0.008911,0.008301,-0.990234,0.297191,0.340763,-0.176794,52,282,577,6240
1644183355.255845,-0.013977,0.00885,-0.990356,0.175053,0.432366,-0.054656,58,276,583,6224
1644183355.304248,-0.008484,0.00946,-0.993591,0.144519,0.401832,-0.192061,43,274,583,6256
1644183355.35265,-0.008423,0.010315,-0.989624,0.236122,0.462901,-0.161527,41,276,580,6160
1644183355.40102,-0.009705,0.011169,-0.992737,0.068183,0.24916,-0.039389,45,273,586,6256
1644183355.449412,-0.00708,0.010315,-0.993713,0.373527,0.294962,0.082748,43,281,580,6224
1644183355.498082,-0.009216,0.010376,-0.990112,0.175053,0.462901,-0.069924,48,274,585,6224
1644183355.546572,-0.005798,0.006226,-0.994141,0.175053,0.462901,-0.176794,43,276,587,6192
1644183355.597137,-0.010132,0.008972,-0.993835,0.205588,0.356031,-0.085191,54,280,586,6192
1644183355.647503,-0.00946,0.006836,-0.994873,0.220855,0.24916,-0.14626,40,277,584,6224
1644183355.692291,-0.00824,0.008667,-0.992798,0.129252,0.478168,-0.192061,55,279,578,6160
1644183355.788158,-0.007263,0.009583,-0.991516,0.08345,0.386565,-0.039389,53,271,583,6224
1644183355.836542,-0.010681,0.009644,-0.989136,0.190321,0.523969,-0.054656,43,269,580,6112
1644183355.885027,-0.008606,0.011414,-0.993896,0.266656,0.325496,-0.161527,52,273,577,6176
1644183355.933382,-0.006775,0.008667,-0.992981,0.190321,0.386565,-0.054656,57,280,579,6240
1644183355.981783,-0.007935,0.010925,-0.991211,0.113985,0.447634,-0.069924,46,283,578,6224
1644183356.030179,-0.007874,0.007812,-0.990845,0.08345,0.279695,-0.14626,46,279,576,6192
1644183356.081274,-0.007935,0.006409,-0.99054,0.281924,0.386565,-0.222595,45,280,586,6160
1644183356.126954,-0.007263,0.007263,-0.99054,0.266656,0.356031,-0.283664,60,276,590,6176
1644183356.175301,-0.011292,0.010986,-0.989746,0.098718,0.493435,0.006412,52,285,584,6176
1644183356.223712,-0.008484,0.011475,-0.993103,0.281924,0.432366,-0.192061,46,279,580,6176
1644183356.272274,-0.011108,0.009766,-0.993042,0.35826,0.432366,-0.222595,48,274,587,6224
1644183356.320487,-0.010132,0.010681,-0.990601,0.205588,0.340763,-0.176794,48,281,592,6224
1644183356.368889,-0.009399,0.010315,-0.992126,0.220855,0.523969,-0.085191,53,274,590,6240
1644183356.417284,-0.008301,0.01178,-0.992188,0.281924,0.310229,-0.176794,55,279,580,6256
1644183356.465679,-0.00708,0.010498,-0.990662,0.388794,0.600305,-0.192061,60,279,580,6192
1644183356.514068,-0.007568,0.009399,-0.991394,0.144519,0.371298,-0.024122,43,281,585,6192
1644183356.562476,-0.007568,0.01178,-0.991089,0.251389,0.325496,-0.268397,36,271,590,6160
1644183356.610838,-0.006226,0.007568,-0.989685,0.190321,0.462901,-0.207328,39,283,583,6128
1644183356.659415,-0.009338,0.009827,-0.992615,0.236122,0.401832,-0.024122,45,275,582,6176
1644183356.708236,-0.009277,0.009094,-0.991394,0.08345,0.325496,-0.054656,54,275,577,6240
1644183356.758816,-0.006897,0.008667,-0.990356,0.205588,0.279695,-0.008855,54,270,586,6240
1644183356.809381,-0.011475,0.008728,-0.990845,0.404061,0.417099,-0.024122,47,282,584,6224
1644183356.853865,-0.00824,0.010681,-0.989868,0.297191,0.462901,-0.100458,53,281,578,6176
1644183356.949634,-0.008545,0.008362,-0.993774,0.205588,0.386565,-0.069924,55,281,585,6192
1644183356.998026,-0.00885,0.011658,-0.992615,0.098718,0.371298,-0.085191,42,275,584,6176
1644183357.058893,-0.008606,0.005249,-0.99115,0.129252,0.386565,0.036947,53,271,564,6192
1644183357.100708,-0.006653,0.009033,-0.989807,0.251389,0.356031,-0.115725,43,266,583,6176
1644183357.143206,-0.007996,0.00946,-0.99231,0.220855,0.462901,-0.14626,47,282,579,6080
1644183357.191556,-0.007751,0.010986,-0.992737,0.281924,0.340763,-0.14626,51,286,585,6192
1644183357.240406,-0.009521,0.008423,-0.990845,0.098718,0.325496,-0.192061,52,275,586,6192
1644183357.288341,-0.007874,0.012085,-0.991394,0.068183,0.447634,0.098015,51,286,580,6192
1644183357.33674,-0.009399,0.009888,-0.995605,0.266656,0.432366,-0.008855,53,274,590,6176
1644183357.385174,-0.005493,0.013184,-0.991699,0.327725,0.554504,-0.085191,51,276,576,6224
1644183357.433543,-0.009277,0.008972,-0.990173,0.144519,0.264427,-0.115725,51,283,583,6160
1644183357.481913,-0.007263,0.007446,-0.991211,0.312458,0.401832,-0.115725,47,265,589,6256
1644183357.530285,-0.010742,0.009949,-0.990967,0.190321,0.417099,-0.161527,48,286,580,6224
1644183357.578728,-0.010071,0.008911,-0.990723,0.190321,0.24916,-0.130992,49,275,586,6192
1644183357.627996,-0.006287,0.009277,-0.991272,0.342992,0.340763,0.021679,53,279,587,6192
1644183357.678555,-0.007568,0.01355,-0.991272,0.281924,0.478168,-0.130992,53,279,580,6192
1644183357.728577,-0.00708,0.010193,-0.993408,0.297191,0.462901,-0.008855,45,285,591,6192
1644183357.82069,-0.009094,0.012573,-0.994263,0.35826,0.478168,-0.085191,36,271,585,6224
1644183357.869032,-0.010498,0.010498,-0.990479,0.129252,0.386565,0.067481,47,280,582,6240
1644183357.917475,-0.008118,0.009583,-0.990173,0.251389,0.478168,-0.130992,49,285,582,6224
1644183357.965875,-0.005798,0.009583,-0.99292,0.08345,0.432366,-0.039389,55,281,585,6192
1644183358.014278,-0.004883,0.005676,-0.991943,0.236122,0.24916,-0.115725,53,274,587,6128
1644183358.069622,-0.007385,0.009399,-0.991516,0.068183,0.478168,0.021679,49,280,582,6240
1644183358.111011,-0.005249,0.010376,-0.990967,0.281924,0.386565,-0.024122,46,288,578,6192
1644183358.159425,-0.003967,0.01062,-0.991028,0.388794,0.447634,-0.008855,43,274,583,6240
1644183358.207854,-0.006897,0.013306,-0.990479,0.342992,0.432366,-0.069924,59,280,579,6176
1644183358.256214,-0.006409,0.008362,-0.991272,0.113985,0.233893,-0.054656,41,271,580,6192
1644183358.304725,-0.007507,0.008606,-0.990601,0.205588,0.493435,-0.069924,39,276,578,6160
1644183358.353057,-0.007935,0.011475,-0.99231,0.175053,0.478168,0.098015,42,287,575,6224
1644183358.401422,-0.010559,0.011108,-0.989136,0.297191,0.325496,-0.100458,58,266,585,6192
1644183358.449814,-0.006897,0.009399,-0.990356,0.159786,0.371298,0.052214,41,279,583,6192
1644183358.498225,-0.007568,0.011841,-0.993713,0.129252,0.264427,-0.100458,49,277,579,6160
1644183358.546598,-0.009277,0.012573,-0.991028,0.251389,0.462901,-0.161527,45,265,584,6176
1644183358.595026,-0.006287,0.010376,-0.990173,0.175053,0.386565,-0.054656,52,277,582,6224
1644183358.643376,-0.010437,0.008667,-0.991089,0.144519,0.340763,-0.130992,52,277,572,6240
1644183358.691797,-0.007507,0.011353,-0.990356,0.251389,0.279695,-0.024122,52,282,586,6192
1644183358.741629,-0.008606,0.009216,-0.989624,0.175053,0.310229,0.006412,53,276,576,6224
1644183358.791935,-0.009521,0.009338,-0.990906,0.129252,0.24916,-0.130992,52,277,589,6224
1644183358.842159,-0.006897,0.008667,-0.990051,0.098718,0.218626,-0.100458,47,270,591,6192
1644183358.886622,-0.007019,0.010315,-0.991394,0.068183,0.401832,-0.14626,45,277,584,6128
1644183358.982467,-0.009888,0.008362,-0.993042,0.144519,0.340763,-0.25313,48,276,585,6224
1644183359.03052,-0.008484,0.01239,-0.990723,0.144519,0.264427,-0.100458,52,280,582,6128
1644183359.078959,-0.007935,0.009949,-0.994446,0.144519,0.478168,-0.100458,67,276,594,6176
1644183359.127255,-0.009766,0.007385,-0.990967,0.007115,0.356031,-0.14626,43,271,585,6192
1644183359.175658,-0.009827,0.008545,-0.990662,0.251389,0.462901,-0.176794,41,266,573,6160
1644183359.224056,-0.007874,0.011292,-0.990356,0.144519,0.401832,-0.069924,55,276,585,6224
1644183359.272437,-0.010742,0.010376,-0.993347,0.190321,0.356031,0.021679,48,281,583,6192
1644183359.320852,-0.006409,0.012085,-0.99176,0.175053,0.462901,-0.130992,52,270,586,6176
1644183359.369245,-0.008179,0.01178,-0.991943,0.327725,0.340763,-0.069924,53,269,576,6192
1644183359.417612,-0.007751,0.010925,-0.989685,0.08345,0.462901,-0.161527,45,275,575,6224
1644183359.466025,-0.009766,0.008362,-0.993164,0.144519,0.417099,-0.054656,53,271,590,6176
1644183359.514409,-0.008301,0.013794,-0.990479,0.236122,0.340763,-0.115725,51,269,583,6224
1644183359.562821,-0.009338,0.008789,-0.989014,0.159786,0.356031,-0.130992,45,277,584,6192
1644183359.611208,-0.007996,0.01239,-0.990356,0.297191,0.554504,-0.207328,42,273,589,6240
1644183359.659566,-0.009644,0.011536,-0.993103,0.220855,0.356031,-0.283664,51,286,580,6224
1644183359.707985,-0.007568,0.01062,-0.992676,0.175053,0.371298,-0.085191,48,286,585,6224
1644183359.756358,-0.00647,0.010315,-0.994202,0.175053,0.188092,-0.207328,42,280,596,6288
1644183359.804857,-0.009766,0.00885,-0.992981,0.297191,0.386565,-0.069924,39,279,592,6240
1644183359.853244,-0.009277,0.00885,-0.993469,0.251389,0.462901,-0.14626,52,275,584,6160
1644183359.903321,-0.008301,0.010803,-0.99176,0.236122,0.508702,-0.054656,39,283,578,6080
1644183359.953362,-0.010071,0.008362,-0.993225,0.190321,0.386565,-0.283664,54,273,579,6288
1644183360.003856,-0.009583,0.008057,-0.990967,0.281924,0.310229,-0.039389,46,266,580,6128
1644183360.063257,-0.006775,0.010193,-0.991333,0.236122,0.569771,-0.161527,59,277,584,6128
1644183360.143527,-0.012207,0.009277,-0.989868,0.113985,0.325496,-0.069924,48,274,583,6128
1644183360.191926,-0.009521,0.00647,-0.992004,0.190321,0.340763,-0.130992,52,280,586,6224
1644183360.240302,-0.00592,0.00946,-0.993347,0.037649,0.417099,-0.130992,41,269,587,6160
1644183360.288699,-0.006775,0.009399,-0.990906,0.236122,0.478168,-0.085191,57,280,579,6224
1644183360.337088,-0.009583,0.009216,-0.992371,0.327725,0.462901,-0.161527,47,280,584,6160
1644183360.385484,-0.008545,0.010315,-0.993652,0.068183,0.310229,-0.069924,36,286,578,6192
1644183360.433883,-0.013184,0.011963,-0.989685,0.159786,0.432366,-0.14626,51,274,573,6224
1644183360.482283,-0.010803,0.009888,-0.992432,0.144519,0.447634,-0.130992,51,274,580,6160
1644183360.530662,-0.004761,0.010376,-0.991211,0.297191,0.523969,0.006412,54,275,591,6224
1644183360.579055,-0.008118,0.009399,-0.988586,0.098718,0.432366,-0.085191,49,268,577,6240
1644183360.627451,-0.008301,0.006775,-0.992432,0.052916,0.386565,-0.100458,41,283,580,6224
1644183360.675825,-0.007996,0.006348,-0.991699,0.205588,0.447634,-0.039389,47,268,577,6192
1644183360.724247,-0.007263,0.011597,-0.990845,0.175053,0.371298,-0.130992,53,281,590,6176
1644183360.772656,-0.00885,0.008118,-0.992249,0.236122,0.401832,-0.14626,48,276,590,6224
1644183360.821033,-0.00946,0.01001,-0.991089,0.159786,0.523969,-0.25313,40,282,591,6224
1644183360.869436,-0.008545,0.01062,-0.99054,0.113985,0.386565,-0.130992,51,293,587,6224
1644183360.917847,-0.010498,0.010193,-0.991882,0.129252,0.325496,-0.024122,33,275,582,6192
1644183360.966455,-0.008728,0.010376,-0.991516,0.281924,0.310229,-0.085191,57,277,584,6192
1644183361.06585,-0.010315,0.00946,-0.991272,0.266656,0.356031,-0.115725,49,280,586,6192
1644183361.111332,-0.00824,0.009338,-0.990784,0.281924,0.356031,-0.008855,46,281,583,6240
1644183361.15977,-0.007202,0.009033,-0.993103,0.236122,0.417099,-0.008855,41,286,576,6240
1644183361.20817,-0.010193,0.010071,-0.989685,0.113985,0.279695,-0.039389,41,276,583,6176
1644183361.256536,-0.010132,0.012512,-0.991333,0.342992,0.325496,-0.024122,49,280,570,6224
1644183361.305005,-0.012146,0.00647,-0.994934,0.266656,0.462901,-0.069924,47,280,582,6192
1644183361.353349,-0.008667,0.008301,-0.989929,0.236122,0.386565,-0.100458,48,269,578,6192
1644183361.401759,-0.006348,0.007629,-0.99292,0.388794,0.340763,-0.237863,52,275,582,6256
1644183361.45014,-0.007446,0.007507,-0.990967,0.342992,0.523969,-0.085191,48,274,580,6176
1644183361.498504,-0.007629,0.009827,-0.989746,0.144519,0.417099,-0.14626,49,280,591,6224
1644183361.546908,-0.007019,0.007874,-0.989685,0.236122,0.356031,-0.085191,42,273,586,6192
1644183361.595304,-0.004578,0.012024,-0.991516,-0.069221,0.371298,-0.222595,51,271,573,6224
1644183361.643717,-0.009338,0.008728,-0.991699,0.251389,0.493435,0.006412,64,285,584,6224
1644183361.692237,-0.009949,0.012451,-0.992554,0.205588,0.279695,-0.192061,41,276,573,6128
1644183361.740455,-0.009216,0.009766,-0.989319,0.175053,0.493435,-0.176794,49,268,579,6176
1644183361.788871,-0.008362,0.013306,-0.99176,0.373527,0.523969,-0.069924,59,285,591,6176
1644183361.837585,-0.008362,0.007019,-0.989502,0.327725,0.493435,-0.100458,48,283,583,6160
1644183361.885955,-0.010498,0.006836,-0.993347,0.251389,0.508702,-0.054656,42,277,586,6288
1644183361.936507,-0.009521,0.011047,-0.990845,0.404061,0.462901,-0.130992,49,285,579,6240
1644183361.986837,-0.01001,0.009277,-0.993408,0.266656,0.401832,-0.237863,41,271,587,6192
1644183362.030907,-0.010925,0.008301,-0.992615,0.297191,0.523969,-0.069924,49,282,577,6192
1644183362.127649,-0.009277,0.00946,-0.991577,0.297191,0.462901,-0.298931,49,275,577,6224
1644183362.176,-0.006409,0.008911,-0.993103,0.068183,0.340763,-0.176794,48,281,585,6192
1644183362.224424,-0.00824,0.00824,-0.99176,0.236122,0.417099,-0.024122,49,275,579,6160
1644183362.272813,-0.00885,0.01239,-0.992859,0.144519,0.386565,-0.207328,43,269,578,6176
1644183362.321188,-0.009216,0.01239,-0.992004,0.068183,0.340763,-0.100458,51,274,583,6240
1644183362.369567,-0.007385,0.009949,-0.99176,0.373527,0.340763,-0.115725,57,275,591,6192
1644183362.41799,-0.007935,0.008911,-0.993408,0.113985,0.188092,-0.14626,46,274,587,6224
1644183362.466368,-0.006653,0.00647,-0.992493,0.266656,0.371298,-0.085191,57,270,577,6192
1644183362.514778,-0.009094,0.008789,-0.992371,0.113985,0.294962,-0.039389,53,269,585,6176
1644183362.563181,-0.007812,0.009338,-0.992004,0.220855,0.417099,-0.25313,46,279,576,6224
1644183362.611573,-0.009644,0.009827,-0.991882,0.297191,0.371298,-0.25313,40,273,586,6160
1644183362.659951,-0.007629,0.009216,-0.989441,0.113985,0.401832,-0.14626,41,283,580,6160
1644183362.708353,-0.009277,0.012085,-0.992859,0.175053,0.401832,-0.024122,47,270,568,6224
1644183362.756719,-0.010315,0.010498,-0.992554,0.175053,0.340763,-0.024122,52,280,582,6192
1644183362.805174,-0.009155,0.008057,-0.992126,0.266656,0.554504,-0.130992,49,265,579,6128
1644183362.853555,-0.010864,0.009094,-0.990967,0.205588,0.356031,-0.176794,52,270,579,6160
1644183362.90195,-0.009094,0.008606,-0.991272,0.129252,0.294962,-0.14626,51,276,583,6224
1644183362.950336,-0.009094,0.009521,-0.994568,0.373527,0.310229,-0.115725,51,269,587,6240
1644183362.998733,-0.008911,0.008606,-0.990356,0.297191,0.371298,0.006412,55,274,583,6240
1644183363.067966,-0.009705,0.010376,-0.992737,0.236122,0.188092,-0.268397,59,277,586,6160
1644183363.103905,-0.006897,0.008118,-0.993042,0.297191,0.462901,0.021679,53,286,583,6224
1644183363.148974,-0.01062,0.008179,-0.996704,0.281924,0.539237,-0.176794,53,269,585,6224
1644183363.192694,-0.008118,0.009033,-0.992737,0.312458,0.310229,-0.130992,57,275,584,6224
1644183363.289037,-0.013733,0.008057,-0.990479,0.08345,0.371298,-0.161527,51,274,580,6192
1644183363.337441,-0.007507,0.009827,-0.99176,0.236122,0.340763,-0.161527,46,271,587,6256
1644183363.385821,-0.007751,0.010071,-0.990723,0.312458,0.294962,0.052214,45,268,579,6240
1644183363.434232,-0.008423,0.011658,-0.990662,0.327725,0.386565,-0.085191,49,273,575,6160
1644183363.482632,-0.01123,0.009094,-0.989136,0.098718,0.417099,-0.054656,46,269,580,6240
1644183363.531021,-0.009888,0.009949,-0.989807,0.297191,0.63084,0.021679,51,276,573,6160
1644183363.579417,-0.007935,0.009033,-0.98938,0.144519,0.539237,-0.421069,52,287,572,6192
1644183363.627813,-0.009216,0.009583,-0.99054,0.251389,0.401832,-0.008855,45,282,579,6192
1644183363.676208,-0.008972,0.008972,-0.99292,0.190321,0.401832,-0.14626,49,273,575,6256
1644183363.724691,-0.008667,0.011841,-0.991455,0.113985,0.554504,-0.161527,51,274,587,6176
1644183363.773004,-0.009827,0.010559,-0.990051,0.205588,0.432366,-0.161527,49,263,577,6176
1644183363.82139,-0.007812,0.011902,-0.993713,0.129252,0.401832,-0.008855,46,274,583,6160
1644183363.869829,-0.009827,0.008911,-0.990479,0.159786,0.478168,-0.14626,42,275,579,6256
1644183363.918212,-0.010864,0.010498,-0.993164,0.08345,0.340763,-0.069924,47,282,591,6240
1644183363.966594,-0.007446,0.011353,-0.990479,0.159786,0.340763,-0.222595,48,266,587,6192
1644183364.015044,-0.007996,0.007385,-0.99292,0.281924,0.493435,-0.161527,49,270,593,6160
1644183364.081101,-0.007141,0.011353,-0.992737,0.098718,0.417099,-0.207328,42,282,593,6128
1644183364.11893,-0.008545,0.010925,-0.988281,0.342992,0.417099,-0.283664,45,280,582,6160
1644183364.162505,-0.011902,0.008606,-0.991516,0.175053,0.447634,0.006412,58,279,592,6224
1644183364.210646,-0.007629,0.007324,-0.992188,0.388794,0.401832,-0.237863,49,268,589,6192
1644183364.261077,-0.006042,0.008362,-0.993042,0.297191,0.371298,-0.115725,58,286,590,6192
1644183364.30598,-0.00592,0.008118,-0.99292,0.236122,0.447634,-0.161527,42,270,582,6080
1644183364.402088,-0.008301,0.009094,-0.989685,0.08345,0.325496,-0.14626,42,275,572,6240
1644183364.450483,-0.006409,0.012024,-0.99292,0.175053,0.539237,-0.085191,47,270,586,6224
1644183364.49888,-0.009705,0.007812,-0.989868,0.251389,0.218626,-0.039389,43,276,592,6224
1644183364.547271,-0.011597,0.00885,-0.991394,0.236122,0.523969,-0.054656,58,276,585,6224
1644183364.595665,-0.009155,0.010071,-0.993835,0.144519,0.462901,-0.039389,52,280,586,6160
1644183364.64407,-0.007812,0.010803,-0.993225,0.236122,0.356031,-0.192061,42,275,584,6192
1644183364.692469,-0.009644,0.011353,-0.990234,0.236122,0.386565,-0.085191,48,279,585,6160
1644183364.740848,-0.007751,0.012207,-0.988953,0.220855,0.401832,-0.100458,55,283,578,6192
1644183364.789248,-0.007141,0.008789,-0.990906,0.205588,0.523969,-0.085191,55,281,585,6288
1644183364.837636,-0.010315,0.010559,-0.991516,0.251389,0.462901,0.006412,57,273,579,6160
1644183364.886043,-0.009216,0.010559,-0.99115,0.220855,0.218626,-0.054656,58,264,585,6128
1644183364.934477,-0.004395,0.008728,-0.99115,0.297191,0.432366,-0.130992,53,281,585,6128
1644183364.982851,-0.009399,0.008728,-0.990662,0.35826,0.691908,-0.100458,38,287,589,6224
1644183365.031237,-0.011108,0.010742,-0.99176,0.068183,0.462901,0.098015,52,285,582,6224
1644183365.085606,-0.009583,0.007812,-0.99353,0.205588,0.417099,-0.115725,47,270,584,6160
1644183365.128004,-0.00824,0.010315,-0.988892,0.251389,0.508702,-0.100458,48,279,587,6176
1644183365.176626,-0.007996,0.009094,-0.993591,0.205588,0.386565,0.082748,47,277,584,6176
1644183365.225094,-0.006775,0.012512,-0.992554,0.052916,0.325496,-0.024122,51,274,583,6192
1644183365.275651,-0.011353,0.00946,-0.990784,0.144519,0.294962,-0.268397,47,273,579,6240
1644183365.325953,-0.005859,0.009705,-0.99231,0.297191,0.432366,-0.222595,45,277,586,6128
1644183365.370841,-0.006104,0.008362,-0.992615,0.113985,0.432366,0.082748,57,280,584,6224
1644183365.466711,-0.009277,0.009827,-0.990906,0.190321,0.218626,-0.024122,45,282,579,6160
1644183365.515432,-0.010803,0.008057,-0.993286,0.068183,0.310229,0.082748,48,281,580,6224
1644183365.563522,-0.009155,0.010681,-0.991516,0.236122,0.340763,-0.130992,45,270,572,6192
1644183365.611907,-0.009521,0.009094,-0.992371,0.297191,0.325496,-0.115725,51,274,590,6160
1644183365.660303,-0.010986,0.008362,-0.990234,0.205588,0.340763,-0.085191,46,279,578,6160
1644183365.708688,-0.007751,0.008057,-0.992249,0.281924,0.310229,-0.222595,47,282,582,6192
1644183365.757083,-0.009094,0.008972,-0.99231,0.251389,0.462901,-0.054656,55,264,580,6240
1644183365.805481,-0.010193,0.012817,-0.993103,0.236122,0.478168,-0.130992,45,270,589,6192
1644183365.853889,-0.009827,0.008423,-0.993103,0.037649,0.340763,-0.176794,43,266,587,6160
1644183365.902304,-0.007324,0.008972,-0.990723,0.281924,0.310229,-0.14626,58,269,580,6224
1644183365.950691,-0.00946,0.009644,-0.992554,0.266656,0.340763,-0.024122,53,279,585,6240
1644183365.999094,-0.008728,0.007385,-0.993896,0.266656,0.386565,-0.14626,40,270,584,6160
1644183366.061678,-0.009155,0.009644,-0.993469,0.236122,0.371298,-0.130992,51,276,597,6176
1644183366.097504,-0.006042,0.008606,-0.990479,0.190321,0.264427,-0.207328,53,274,587,6240
1644183366.144271,-0.012268,0.009644,-0.992798,0.297191,0.554504,-0.039389,36,262,590,6224
1644183366.192686,-0.010864,0.010681,-0.98999,0.220855,0.615573,-0.115725,49,270,586,6240
1644183366.24106,-0.006592,0.010071,-0.993469,0.175053,0.371298,-0.130992,53,279,578,6160
1644183366.289818,-0.009766,0.008301,-0.991699,0.129252,0.310229,-0.161527,54,277,584,6224
1644183366.337869,-0.01123,0.007507,-0.989807,0.220855,0.508702,-0.237863,58,271,573,6128
1644183366.38748,-0.007263,0.01178,-0.990417,0.251389,0.523969,-0.115725,54,282,586,6240
1644183366.437943,-0.009277,0.010315,-0.990967,0.190321,0.447634,-0.039389,51,274,592,6224
1644183366.488019,-0.008911,0.009277,-0.992188,0.068183,0.371298,-0.069924,49,277,579,6224
1644183366.532689,-0.007202,0.013123,-0.992432,0.007115,0.493435,-0.115725,48,276,580,6256
1644183366.6282,-0.010925,0.010498,-0.993774,0.159786,0.569771,0.021679,51,281,590,6160
1644183366.676597,-0.010803,0.009338,-0.990479,0.068183,0.356031,-0.039389,51,269,580,6192
1644183366.725036,-0.009888,0.006592,-0.992249,0.281924,0.523969,-0.237863,42,273,582,6176
1644183366.773378,-0.010559,0.010437,-0.992493,0.205588,0.401832,-0.085191,53,279,578,6224
1644183366.821776,-0.007996,0.008972,-0.993103,0.08345,0.447634,-0.008855,43,283,576,6192
1644183366.870164,-0.007935,0.010498,-0.990906,0.144519,0.310229,-0.176794,46,276,585,6128
1644183366.918561,-0.008301,0.007568,-0.994019,0.175053,0.340763,-0.100458,42,285,582,6160
1644183366.966959,-0.00531,0.011353,-0.993835,0.205588,0.325496,0.006412,42,282,579,6224
1644183367.015349,-0.008301,0.00946,-0.989136,0.220855,0.478168,0.021679,58,274,587,6224
1644183367.072712,-0.008728,0.010498,-0.992493,0.144519,0.447634,-0.100458,47,273,598,6128
1644183367.112053,-0.008362,0.010071,-0.990845,0.190321,0.325496,-0.14626,46,276,583,6160
1644183367.160497,-0.00708,0.009888,-0.99231,0.205588,0.447634,-0.14626,48,279,587,6192
1644183367.208886,-0.005737,0.011414,-0.990967,0.037649,0.340763,-0.069924,45,277,579,6176
