epoch,acc_x,acc_y,acc_z,rot_x,rot_y,rot_z,mag_x,mag_y,mag_z,temp
1644153600.031434,-0.013062,0.007019,-0.989319,0.251389,0.447634,-0.161527,42,265,568,4368
1644153600.082324,-0.012817,0.00592,-0.991028,0.236122,0.325496,-0.14626,47,275,563,4416
1644153600.128337,-0.011169,0.008545,-0.989807,0.404061,0.554504,-0.192061,52,270,575,4432
1644153600.177842,-0.007446,0.008728,-0.989563,0.404061,0.386565,0.067481,53,276,571,4352
1644153600.225487,-0.013184,0.008057,-0.991272,0.35826,0.600305,-0.069924,45,265,570,4304
1644153600.321694,-0.013,0.008972,-0.992615,0.35826,0.447634,-0.100458,45,273,570,4320
1644153600.370106,-0.01239,0.008911,-0.992432,0.220855,0.554504,-0.039389,55,264,569,4368
1644153600.418553,-0.015564,0.006836,-0.990234,0.281924,0.371298,-0.161527,40,270,577,4400
1644153600.46691,-0.012329,0.008728,-0.992371,0.342992,0.508702,-0.085191,45,273,579,4320
1644153600.515221,-0.010742,0.006714,-0.989746,0.266656,0.386565,-0.283664,53,269,569,4352
1644153600.563616,-0.014038,0.00946,-0.990967,0.266656,0.432366,-0.207328,52,265,575,4368
1644153600.61198,-0.012329,0.00769,-0.988586,0.342992,0.432366,-0.024122,46,274,566,4368
1644153600.660421,-0.010864,0.007019,-0.993896,0.281924,0.523969,-0.176794,51,276,571,4368
1644153600.708765,-0.011658,0.008911,-0.992554,0.297191,0.447634,-0.085191,42,277,575,4320
1644153600.75717,-0.011108,0.008423,-0.990845,0.205588,0.508702,-0.283664,47,270,577,4352
1644153600.805569,-0.014282,0.009216,-0.990173,0.373527,0.493435,-0.298931,54,270,575,4400
1644153600.853991,-0.01001,0.006348,-0.992004,0.312458,0.585038,-0.100458,61,265,565,4432
1644153600.902393,-0.012573,0.009277,-0.991333,0.236122,0.340763,-0.115725,46,259,573,4368
1644153600.950732,-0.013855,0.009155,-0.993408,0.327725,0.447634,-0.14626,52,268,565,4352
1644153600.99914,-0.016602,0.009033,-0.994202,0.144519,0.325496,-0.039389,51,276,566,4432
1644153601.061107,-0.010864,0.009766,-0.991028,0.327725,0.310229,-0.130992,47,273,579,4368
1644153601.09593,-0.011353,0.007568,-0.992676,0.236122,0.356031,-0.024122,54,285,572,4432
1644153601.144292,-0.010742,0.009033,-0.992371,0.190321,0.432366,-0.161527,51,271,576,4368
1644153601.19268,-0.012695,0.008606,-0.993225,0.434595,0.432366,0.006412,49,273,568,4352
1644153601.241035,-0.013489,0.010132,-0.994263,0.297191,0.325496,-0.298931,53,271,573,4352
1644153601.290665,-0.013611,0.005798,-0.992737,0.08345,0.493435,-0.237863,48,266,573,4480
1644153601.338165,-0.01239,0.00885,-0.992371,0.144519,0.432366,-0.054656,48,271,573,4400
1644153601.434747,-0.013733,0.010803,-0.991882,0.35826,0.478168,-0.085191,46,264,569,4368
1644153601.482981,-0.009338,0.00769,-0.991455,0.327725,0.523969,-0.008855,55,274,569,4432
1644153601.531352,-0.012451,0.005737,-0.994507,0.266656,0.294962,-0.161527,55,269,569,4400
1644153601.579763,-0.012512,0.009949,-0.99176,0.144519,0.462901,-0.069924,52,273,563,4368
1644153601.628086,-0.012695,0.010376,-0.991394,0.312458,0.24916,-0.039389,52,275,568,4368
1644153601.676499,-0.009827,0.009888,-0.990112,0.373527,0.401832,-0.054656,58,276,571,4416
1644153601.724906,-0.012573,0.008362,-0.991699,0.159786,0.508702,-0.222595,46,266,566,4352
1644153601.773299,-0.011475,0.007568,-0.99231,0.297191,0.417099,-0.130992,49,273,568,4368
1644153601.821695,-0.011108,0.007141,-0.99408,0.220855,0.63084,-0.130992,43,271,562,4368
1644153601.870025,-0.012756,0.009949,-0.991455,0.251389,0.386565,-0.130992,48,274,571,4368
1644153601.918475,-0.010254,0.009521,-0.992554,0.404061,0.386565,-0.176794,57,277,575,4320
1644153601.966866,-0.013367,0.009583,-0.992065,0.312458,0.447634,-0.222595,51,279,571,4416
1644153602.015437,-0.013916,0.006165,-0.990784,0.35826,0.310229,-0.14626,46,269,576,4368
1644153602.07547,-0.012573,0.009277,-0.992126,0.312458,0.325496,-0.085191,59,277,584,4304
1644153602.111927,-0.010925,0.010376,-0.987976,0.220855,0.478168,-0.298931,46,274,580,4400
1644153602.160351,-0.011902,0.010681,-0.992615,0.342992,0.600305,-0.008855,40,280,579,4416
1644153602.208735,-0.009766,0.006226,-0.991882,0.159786,0.447634,-0.100458,51,271,573,4400
1644153602.257096,-0.013672,0.006653,-0.992676,0.312458,0.523969,-0.207328,47,282,575,4352
1644153602.305476,-0.013306,0.012207,-0.994812,0.312458,0.371298,-0.192061,49,282,575,4368
1644153602.353932,-0.01239,0.011414,-0.993408,0.312458,0.447634,-0.14626,58,283,571,4368
1644153602.403486,-0.013977,0.009827,-0.992249,0.190321,0.508702,-0.176794,57,275,565,4320
1644153602.451154,-0.010681,0.00769,-0.993286,0.190321,0.447634,-0.100458,47,275,565,4400
1644153602.547389,-0.01123,0.009094,-0.991943,0.35826,0.508702,-0.100458,45,270,575,4400
1644153602.595797,-0.013306,0.011414,-0.988403,0.159786,0.478168,-0.024122,48,266,571,4416
1644153602.644132,-0.010437,0.009399,-0.992126,0.297191,0.447634,-0.14626,47,265,570,4432
1644153602.692602,-0.011108,0.00885,-0.990479,0.297191,0.417099,-0.283664,43,269,571,4352
1644153602.74094,-0.013184,0.007263,-0.991516,0.312458,0.386565,-0.054656,45,270,563,4368
1644153602.789408,-0.012817,0.007324,-0.991089,0.342992,0.401832,-0.207328,46,274,569,4368
1644153602.837791,-0.009949,0.006958,-0.990356,0.373527,0.554504,-0.008855,51,266,573,4368
1644153602.886147,-0.010254,0.009827,-0.991394,0.266656,0.462901,0.006412,54,265,565,4304
1644153602.934515,-0.008911,0.007385,-0.993713,0.266656,0.340763,-0.054656,47,258,575,4352
1644153602.982956,-0.010742,0.007874,-0.992737,0.190321,0.493435,-0.115725,54,263,572,4320
1644153603.031335,-0.013367,0.007568,-0.991516,0.281924,0.462901,-0.161527,42,280,570,4368
1644153603.080914,-0.012939,0.010925,-0.993347,0.388794,0.417099,-0.024122,40,275,572,4368
1644153603.12806,-0.01239,0.00708,-0.993347,0.342992,0.523969,-0.14626,55,266,587,4368
1644153603.176466,-0.012207,0.009766,-0.993103,0.220855,0.294962,0.006412,43,269,571,4400
1644153603.22487,-0.010742,0.00824,-0.991699,0.205588,0.386565,-0.024122,43,279,562,4320
1644153603.273216,-0.01239,0.00708,-0.992065,0.373527,0.401832,-0.069924,59,277,565,4320
1644153603.321618,-0.011658,0.009399,-0.98999,0.404061,0.371298,-0.085191,41,274,571,4368
1644153603.371275,-0.011963,0.008301,-0.994751,0.281924,0.371298,-0.176794,46,281,571,4320
1644153603.418409,-0.011597,0.007996,-0.992676,0.251389,0.417099,-0.085191,46,271,571,4320
1644153603.515204,-0.00946,0.008728,-0.993591,0.205588,0.356031,0.098015,45,265,572,4320
1644153603.567275,-0.012695,0.007996,-0.99115,0.236122,0.417099,-0.024122,40,275,570,4352
1644153603.611972,-0.011902,0.009338,-0.992065,0.312458,0.371298,-0.008855,48,279,578,4304
1644153603.660281,-0.011475,0.010498,-0.993469,0.251389,0.432366,-0.176794,42,268,572,4320
1644153603.708655,-0.012939,0.008179,-0.991028,0.480397,0.310229,-0.176794,49,270,568,4368
1644153603.757022,-0.011658,0.006775,-0.992371,0.312458,0.447634,-0.130992,52,273,570,4368
1644153603.805448,-0.014465,0.009766,-0.993042,0.205588,0.447634,-0.176794,38,273,572,4304
1644153603.853837,-0.012634,0.007446,-0.992981,0.144519,0.554504,-0.069924,48,266,571,4400
1644153603.902198,-0.013367,0.011169,-0.992065,0.08345,0.462901,-0.069924,46,271,569,4368
1644153603.950554,-0.012207,0.008423,-0.99469,0.281924,0.432366,-0.100458,49,277,565,4368
1644153603.998924,-0.011719,0.011353,-0.992432,0.266656,0.508702,-0.039389,49,265,577,4368
1644153604.058877,-0.013428,0.007324,-0.991089,0.205588,0.539237,-0.161527,60,269,576,4368
1644153604.095755,-0.012085,0.009277,-0.990784,0.190321,0.310229,-0.024122,45,273,575,4320
1644153604.144154,-0.013,0.01178,-0.989075,0.190321,0.493435,0.021679,51,269,580,4368
1644153604.192495,-0.007141,0.008423,-0.991821,0.251389,0.447634,-0.176794,54,265,561,4368
1644153604.240909,-0.013916,0.00824,-0.992065,0.220855,0.203359,0.006412,39,271,573,4352
1644153604.289239,-0.012451,0.007629,-0.993774,0.404061,0.279695,-0.14626,45,258,572,4352
1644153604.337677,-0.013184,0.007202,-0.993164,0.175053,0.325496,-0.222595,54,273,568,4352
1644153604.386076,-0.009277,0.009155,-0.992249,0.251389,0.432366,-0.115725,53,269,580,4400
1644153604.434754,-0.012207,0.008545,-0.992493,0.342992,0.508702,-0.207328,45,277,575,4400
1644153604.485162,-0.012634,0.008667,-0.989014,0.281924,0.508702,-0.115725,47,265,584,4416
1644153604.532636,-0.009705,0.009888,-0.992615,0.205588,0.447634,0.021679,48,266,573,4464
1644153604.628018,-0.013672,0.008606,-0.99176,0.312458,0.356031,-0.115725,53,279,569,4352
1644153604.676427,-0.013855,0.009094,-0.994324,0.220855,0.478168,-0.024122,54,275,570,4352
1644153604.724763,-0.012146,0.00885,-0.990723,0.175053,0.325496,-0.100458,53,269,576,4352
1644153604.773179,-0.013306,0.009399,-0.990112,0.312458,0.432366,-0.115725,49,268,577,4400
1644153604.821525,-0.011841,0.006165,-0.989807,0.297191,0.478168,-0.192061,41,266,571,4368
1644153604.869976,-0.014404,0.010193,-0.99292,0.312458,0.356031,-0.192061,52,273,570,4432
1644153604.918325,-0.011963,0.007324,-0.991394,0.266656,0.401832,-0.14626,52,270,572,4400
1644153604.966728,-0.014038,0.007935,-0.992126,0.373527,0.356031,0.006412,43,271,569,4400
1644153605.015108,-0.009583,0.009949,-0.99292,0.297191,0.493435,-0.024122,54,275,563,4352
1644153605.065629,-0.012878,0.008728,-0.992798,0.236122,0.447634,-0.14626,57,282,579,4320
1644153605.111825,-0.012695,0.010254,-0.99115,0.297191,0.325496,-0.085191,43,269,569,4352
1644153605.160266,-0.012878,0.009766,-0.991638,0.297191,0.386565,-0.176794,47,270,579,4368
1644153605.20862,-0.011353,0.006958,-0.992188,0.312458,0.371298,-0.039389,53,279,578,4432
1644153605.25696,-0.011292,0.009155,-0.992676,0.266656,0.447634,-0.329466,45,270,570,4368
1644153605.305362,-0.010498,0.007446,-0.99469,0.236122,0.432366,-0.100458,57,277,572,4352
1644153605.353767,-0.011292,0.009521,-0.991882,0.281924,0.462901,-0.207328,40,265,575,4416
1644153605.402162,-0.014221,0.00885,-0.992432,0.190321,0.432366,-0.115725,52,270,575,4304
1644153605.450461,-0.010071,0.007629,-0.992981,0.342992,0.523969,-0.283664,55,274,573,4400
1644153605.498858,-0.014893,0.008179,-0.992371,0.35826,0.447634,-0.069924,52,270,565,4432
1644153605.547262,-0.013123,0.009644,-0.992004,0.312458,0.432366,-0.176794,47,275,577,4320
1644153605.596022,-0.014099,0.008606,-0.992737,0.08345,0.585038,-0.069924,51,276,578,4400
1644153605.646093,-0.013306,0.011536,-0.992249,0.205588,0.340763,-0.176794,58,276,557,4400
1644153605.693676,-0.01178,0.006104,-0.994812,0.190321,0.371298,-0.161527,58,271,573,4368
1644153605.7892,-0.012207,0.008972,-0.991516,0.190321,0.401832,-0.176794,54,277,575,4368
1644153605.838228,-0.013428,0.004944,-0.990173,0.129252,0.401832,-0.100458,51,274,578,4400
1644153605.88601,-0.014221,0.006592,-0.993958,0.144519,0.554504,-0.039389,48,274,562,4432
1644153605.934445,-0.011719,0.007141,-0.994263,0.205588,0.478168,-0.115725,51,264,576,4432
1644153605.982811,-0.011963,0.011169,-0.9953,0.236122,0.523969,-0.115725,53,279,566,4352
1644153606.031171,-0.012634,0.008484,-0.992676,0.159786,0.401832,-0.115725,43,274,566,4352
1644153606.084132,-0.013672,0.007935,-0.991394,0.281924,0.356031,-0.130992,54,270,568,4368
1644153606.127908,-0.013306,0.006104,-0.992188,0.35826,0.218626,-0.14626,49,275,568,4400
1644153606.17632,-0.013184,0.008667,-0.993042,0.312458,0.508702,-0.100458,57,268,572,4320
1644153606.224678,-0.011963,0.010681,-0.993347,0.342992,0.371298,-0.024122,49,275,558,4352
1644153606.273052,-0.010559,0.009827,-0.988342,0.220855,0.432366,-0.176794,53,274,564,4352
1644153606.321471,-0.016235,0.008728,-0.99353,0.098718,0.294962,-0.161527,51,269,576,4400
1644153606.369858,-0.00946,0.00885,-0.994507,0.281924,0.340763,-0.161527,49,265,572,4400
1644153606.418242,-0.013062,0.007202,-0.994507,0.35826,0.294962,-0.14626,53,276,562,4400
1644153606.466614,-0.013123,0.007385,-0.992615,0.113985,0.24916,-0.237863,48,283,580,4368
1644153606.515016,-0.011169,0.010559,-0.993835,0.159786,0.356031,-0.161527,48,271,580,4400
1644153606.563389,-0.011108,0.007141,-0.992859,0.205588,0.417099,-0.100458,55,279,566,4368
1644153606.611748,-0.009644,0.010376,-0.990234,0.236122,0.432366,-0.069924,52,277,575,4400
1644153606.660141,-0.01062,0.008972,-0.992798,0.327725,0.371298,-0.069924,49,268,563,4368
1644153606.708518,-0.010559,0.007812,-0.992065,0.327725,0.432366,-0.069924,42,277,570,4400
1644153606.805482,-0.009888,0.007874,-0.990601,0.220855,0.493435,-0.192061,36,276,571,4368
1644153606.853718,-0.011658,0.008911,-0.990662,0.251389,0.417099,-0.008855,48,269,578,4368
1644153606.902258,-0.01416,0.00708,-0.994751,0.297191,0.508702,-0.161527,53,262,562,4352
1644153606.950492,-0.010559,0.009766,-0.993042,0.342992,0.371298,0.021679,62,269,564,4416
1644153606.998891,-0.011536,0.007019,-0.992432,0.190321,0.432366,0.067481,47,277,570,4352
1644153607.060245,-0.012146,0.006653,-0.990051,0.434595,0.340763,-0.100458,46,269,576,4352
1644153607.095627,-0.01532,0.008179,-0.99408,0.144519,0.523969,-0.14626,48,276,564,4400
1644153607.144,-0.01178,0.009155,-0.993774,0.449863,0.218626,-0.024122,46,271,573,4368
1644153607.192426,-0.009277,0.005859,-0.993225,0.404061,0.371298,-0.039389,52,270,565,4368
1644153607.240749,-0.014709,0.009216,-0.993774,0.35826,0.371298,-0.085191,47,275,565,4368
1644153607.28916,-0.013611,0.005798,-0.992615,0.35826,0.371298,-0.100458,49,268,572,4464
1644153607.337481,-0.010803,0.007019,-0.993042,0.113985,0.432366,-0.024122,55,283,569,4368
1644153607.385944,-0.011963,0.009277,-0.992188,0.35826,0.508702,-0.314198,52,273,577,4320
1644153607.434315,-0.011414,0.009216,-0.989929,0.281924,0.493435,-0.161527,51,269,571,4432
1644153607.482692,-0.010376,0.007812,-0.992065,0.281924,0.600305,-0.161527,53,271,578,4368
1644153607.531085,-0.012146,0.009033,-0.992798,0.281924,0.264427,-0.192061,53,257,569,4352
1644153607.579469,-0.013367,0.008179,-0.994324,0.312458,0.539237,-0.085191,45,273,570,4400
1644153607.627862,-0.012878,0.007751,-0.99353,0.220855,0.417099,-0.008855,52,275,575,4368
1644153607.676244,-0.015198,0.008789,-0.992798,0.190321,0.478168,-0.192061,53,274,569,4432
1644153607.725227,-0.013,0.008301,-0.991028,0.175053,0.340763,-0.14626,52,273,572,4368
1644153607.77556,-0.012451,0.007507,-0.990234,0.175053,0.508702,-0.069924,54,273,575,4320
1644153607.869822,-0.014221,0.005676,-0.991821,0.190321,0.462901,-0.130992,49,273,570,4304
1644153607.918192,-0.009216,0.009705,-0.994568,0.312458,0.478168,-0.039389,48,271,564,4400
1644153607.966518,-0.010193,0.009338,-0.992065,0.220855,0.310229,-0.024122,46,271,566,4368
1644153608.015018,-0.011658,0.008362,-0.990784,0.327725,0.432366,-0.085191,49,268,570,4368
1644153608.063927,-0.013916,0.013123,-0.992432,0.220855,0.523969,0.021679,49,275,575,4416
1644153608.111716,-0.012268,0.005615,-0.98938,0.190321,0.462901,-0.115725,47,268,570,4368
1644153608.160081,-0.012756,0.006897,-0.994385,0.342992,0.356031,-0.222595,49,265,572,4400
1644153608.208498,-0.01355,0.009766,-0.992859,0.281924,0.462901,-0.130992,53,264,569,4320
1644153608.256829,-0.010925,0.010742,-0.992798,0.297191,0.325496,-0.130992,48,274,573,4320
1644153608.305304,-0.014648,0.010559,-0.988403,0.342992,0.340763,-0.176794,46,271,569,4368
1644153608.353719,-0.015381,0.006897,-0.995911,0.404061,0.478168,0.006412,51,274,578,4368
1644153608.402262,-0.013428,0.005554,-0.992065,0.129252,0.432366,-0.085191,53,271,569,4368
1644153608.450364,-0.014709,0.007874,-0.992981,0.251389,0.493435,-0.192061,45,277,582,4352
1644153608.49876,-0.013855,0.011292,-0.993164,0.159786,0.386565,-0.024122,58,279,573,4400
1644153608.547186,-0.010803,0.008057,-0.990356,0.251389,0.401832,-0.176794,53,274,569,4400
1644153608.595531,-0.010315,0.006287,-0.992981,0.327725,0.478168,-0.161527,43,271,573,4352
1644153608.643931,-0.014893,0.007385,-0.993347,0.297191,0.493435,-0.161527,52,265,563,4368
1644153608.69233,-0.011719,0.011658,-0.992065,0.220855,0.310229,-0.14626,51,262,564,4352
1644153608.740695,-0.014404,0.007202,-0.994446,0.144519,0.447634,-0.268397,55,271,569,4320
1644153608.789839,-0.012756,0.007812,-0.991211,0.236122,0.447634,-0.115725,55,279,566,4416
1644153608.838468,-0.014038,0.007446,-0.99292,0.08345,0.432366,-0.069924,48,281,576,4368
1644153608.934323,-0.011658,0.009155,-0.994568,0.342992,0.447634,-0.14626,48,269,569,4352
1644153608.982682,-0.012878,0.006104,-0.993469,0.373527,0.539237,-0.130992,51,269,562,4416
1644153609.031018,-0.012634,0.004761,-0.990417,0.251389,0.386565,-0.069924,40,268,570,4320
1644153609.079378,-0.013123,0.008911,-0.992188,0.251389,0.294962,-0.054656,48,271,569,4352
1644153609.127839,-0.009338,0.007568,-0.993652,0.342992,0.386565,-0.161527,40,268,565,4368
1644153609.176208,-0.013794,0.009583,-0.99231,0.281924,0.478168,-0.069924,48,271,576,4320
1644153609.224766,-0.012451,0.007568,-0.994629,0.113985,0.356031,-0.192061,48,276,564,4416
1644153609.272972,-0.013794,0.008301,-0.991394,0.297191,0.462901,-0.176794,52,270,570,4368
1644153609.321394,-0.009949,0.008972,-0.992065,0.266656,0.462901,-0.008855,51,271,571,4352
1644153609.369758,-0.01355,0.007935,-0.992981,0.175053,0.432366,-0.115725,46,281,566,4352
1644153609.418152,-0.012512,0.007996,-0.990173,0.220855,0.325496,-0.085191,52,268,570,4432
1644153609.466532,-0.012207,0.006531,-0.992798,0.220855,0.371298,-0.192061,48,276,573,4352
1644153609.514903,-0.014221,0.009949,-0.989502,0.35826,0.523969,-0.115725,48,271,576,4368
1644153609.563297,-0.011902,0.007324,-0.994324,0.46513,0.432366,-0.161527,57,270,568,4400
1644153609.611702,-0.011292,0.009827,-0.992493,0.251389,0.417099,-0.024122,49,270,570,4320
1644153609.660073,-0.013123,0.010925,-0.993774,0.251389,0.279695,-0.069924,48,274,571,4304
1644153609.70847,-0.012451,0.008667,-0.991272,0.312458,0.386565,-0.115725,55,276,566,4368
1644153609.75682,-0.011047,0.009277,-0.992493,0.175053,0.447634,-0.039389,52,263,572,4352
1644153609.805243,-0.011475,0.008545,-0.990784,0.190321,0.462901,-0.115725,51,271,571,4352
1644153609.853566,-0.011108,0.008606,-0.993835,0.327725,0.478168,-0.100458,53,269,566,4320
1644153609.902399,-0.011047,0.006897,-0.994995,0.342992,0.294962,-0.222595,47,280,565,4432
1644153609.955817,-0.012878,0.00885,-0.993042,0.373527,0.340763,0.021679,57,277,561,4368
1644153609.999817,-0.011536,0.009644,-0.993408,0.266656,0.401832,-0.14626,53,262,576,4368
1644153610.095462,-0.010254,0.011414,-0.990479,0.190321,0.554504,0.006412,36,279,573,4256
1644153610.143883,-0.012207,0.009399,-0.992188,0.281924,0.569771,-0.054656,53,266,569,4368
1644153610.192259,-0.013855,0.009888,-0.99408,0.129252,0.478168,-0.024122,57,275,568,4400
1644153610.240634,-0.010925,0.007385,-0.99292,0.266656,0.539237,-0.176794,40,270,570,4368
1644153610.28905,-0.014404,0.010315,-0.991638,0.251389,0.447634,-0.207328,53,276,571,4432
1644153610.337408,-0.013367,0.008728,-0.994141,0.266656,0.447634,-0.085191,60,271,562,4368
1644153610.385786,-0.013794,0.00769,-0.990784,0.266656,0.478168,-0.039389,47,273,570,4400
1644153610.434179,-0.013,0.01178,-0.995117,0.35826,0.447634,-0.008855,48,269,569,4368
1644153610.482569,-0.013184,0.009827,-0.991821,0.113985,0.432366,-0.008855,42,273,570,4432
1644153610.53097,-0.013672,0.006348,-0.99115,0.175053,0.523969,-0.008855,52,260,563,4400
1644153610.579311,-0.011353,0.00885,-0.99176,0.175053,0.401832,-0.130992,42,263,568,4320
1644153610.627743,-0.01178,0.007568,-0.991699,0.251389,0.554504,-0.161527,43,279,569,4368
1644153610.676148,-0.011108,0.008545,-0.993713,0.312458,0.417099,-0.161527,57,268,568,4304
1644153610.724555,-0.015137,0.006775,-0.992249,0.113985,0.493435,-0.130992,53,274,569,4416
1644153610.772936,-0.012024,0.008057,-0.992554,0.35826,0.310229,-0.008855,45,277,565,4368
1644153610.82131,-0.012451,0.010193,-0.992004,0.312458,0.493435,-0.054656,46,274,564,4368
1644153610.869693,-0.013062,0.008301,-0.993286,0.404061,0.493435,-0.039389,55,279,580,4352
1644153610.918061,-0.012695,0.008545,-0.993896,0.205588,0.600305,-0.100458,62,271,569,4400
1644153610.966421,-0.012695,0.012512,-0.991699,0.434595,0.554504,-0.222595,57,277,575,4304
1644153611.014861,-0.012329,0.011475,-0.989563,0.373527,0.401832,-0.069924,57,265,565,4400
1644153611.112256,-0.013977,0.004517,-0.990173,0.35826,0.371298,-0.192061,47,270,565,4352
1644153611.159971,-0.011963,0.009094,-0.992065,0.220855,0.340763,-0.069924,53,274,564,4320
1644153611.208336,-0.013916,0.010376,-0.992615,0.342992,0.432366,0.006412,52,273,575,4352
1644153611.256701,-0.012207,0.009094,-0.993042,0.281924,0.508702,-0.161527,46,274,562,4400
1644153611.305123,-0.013,0.006897,-0.992004,0.342992,0.447634,-0.14626,53,274,573,4320
1644153611.353475,-0.011536,0.008789,-0.990112,0.327725,0.386565,-0.024122,53,269,571,4368
1644153611.4019,-0.014282,0.010559,-0.991455,0.251389,0.508702,0.021679,55,271,566,4368
1644153611.450269,-0.01062,0.007874,-0.992859,0.373527,0.356031,-0.024122,47,268,575,4352
1644153611.498717,-0.013428,0.010742,-0.987305,0.297191,0.569771,-0.085191,52,282,565,4352
1644153611.547229,-0.011719,0.007446,-0.991333,0.297191,0.447634,-0.207328,52,268,568,4400
1644153611.595416,-0.011963,0.009705,-0.992004,0.175053,0.325496,-0.085191,53,269,566,4368
1644153611.643827,-0.013428,0.007629,-0.991882,0.266656,0.356031,-0.069924,49,275,570,4368
1644153611.692221,-0.00946,0.008606,-0.994141,0.35826,0.386565,-0.130992,46,279,576,4304
1644153611.740575,-0.011047,0.00592,-0.991638,0.312458,0.523969,-0.054656,45,287,568,4400
1644153611.788955,-0.01239,0.010864,-0.993286,0.373527,0.386565,-0.039389,48,266,578,4368
1644153611.837348,-0.013794,0.008545,-0.992371,0.251389,0.401832,-0.085191,48,276,566,4368
1644153611.885757,-0.014465,0.008972,-0.9953,0.281924,0.478168,-0.130992,46,271,585,4320
1644153611.934142,-0.012573,0.009094,-0.992004,0.190321,0.432366,-0.100458,49,275,572,4368
1644153611.982552,-0.011292,0.009766,-0.993164,0.327725,0.325496,0.021679,49,273,568,4320
1644153612.030926,-0.014893,0.00592,-0.995789,0.297191,0.417099,-0.039389,52,275,570,4368
1644153612.088728,-0.01416,0.009277,-0.991699,0.205588,0.417099,-0.069924,51,276,576,4352
1644153612.130594,-0.012939,0.0047,-0.992676,0.251389,0.493435,-0.024122,40,273,582,4368
1644153612.224522,-0.012329,0.007385,-0.99469,0.266656,0.478168,-0.161527,52,277,568,4368
1644153612.272846,-0.013428,0.008423,-0.99115,0.220855,0.462901,-0.085191,54,265,568,4400
1644153612.321218,-0.012573,0.007935,-0.990967,0.35826,0.523969,-0.024122,51,269,569,4400
1644153612.369617,-0.010742,0.006653,-0.993347,0.113985,0.386565,-0.085191,57,270,563,4352
1644153612.418008,-0.014771,0.006897,-0.992859,0.342992,0.554504,-0.207328,49,270,568,4400
1644153612.466374,-0.01355,0.007812,-0.99115,0.342992,0.432366,-0.176794,47,280,572,4400
1644153612.514811,-0.01062,0.010437,-0.990662,0.297191,0.310229,-0.069924,42,270,582,4432
1644153612.563194,-0.011047,0.008057,-0.991089,0.373527,0.386565,0.036947,54,268,568,4416
1644153612.611552,-0.01062,0.006409,-0.991943,0.098718,0.432366,-0.14626,53,274,571,4368
1644153612.65995,-0.013794,0.005859,-0.990784,0.159786,0.325496,-0.085191,53,274,571,4320
1644153612.708336,-0.011475,0.007568,-0.99292,0.266656,0.432366,0.12855,46,281,571,4368
1644153612.756687,-0.014954,0.004211,-0.993286,0.35826,0.432366,-0.039389,48,262,566,4400
1644153612.805098,-0.012634,0.007812,-0.991516,0.266656,0.340763,-0.039389,53,274,573,4416
1644153612.853459,-0.014282,0.008423,-0.994202,0.297191,0.508702,-0.039389,54,270,568,4368
1644153612.90187,-0.011169,0.008362,-0.990967,0.144519,0.600305,-0.161527,54,273,568,4368
1644153612.950243,-0.01355,0.008301,-0.995544,0.068183,0.478168,-0.130992,52,265,577,4368
1644153612.998624,-0.012695,0.008789,-0.991882,0.373527,0.478168,-0.237863,47,270,568,4368
1644153613.061679,-0.012634,0.006897,-0.992493,0.266656,0.371298,0.082748,47,263,570,4416
1644153613.099047,-0.014282,0.007629,-0.992249,0.236122,0.401832,-0.130992,55,274,576,4400
1644153613.143973,-0.013855,0.009216,-0.991211,0.35826,0.325496,-0.222595,47,277,572,4320
1644153613.192256,-0.014343,0.007507,-0.992188,0.297191,0.523969,-0.161527,57,275,572,4400
1644153613.242503,-0.009949,0.010193,-0.992737,0.281924,0.478168,-0.207328,46,276,562,4352
1644153613.33725,-0.011353,0.008484,-0.992493,0.342992,0.478168,0.052214,60,276,571,4400
1644153613.38565,-0.012268,0.008484,-0.990234,0.449863,0.478168,-0.069924,49,277,570,4432
1644153613.434034,-0.013062,0.007751,-0.991333,0.144519,0.386565,-0.100458,51,271,573,4352
1644153613.482441,-0.012024,0.008057,-0.991272,0.266656,0.386565,-0.069924,45,273,570,4320
1644153613.530828,-0.009521,0.008423,-0.989014,0.220855,0.447634,-0.161527,51,264,566,4400
1644153613.579213,-0.013672,0.009827,-0.991882,0.205588,0.447634,-0.176794,59,273,577,4352
1644153613.627583,-0.012329,0.008545,-0.991577,0.251389,0.371298,-0.237863,51,269,580,4368
1644153613.676796,-0.012329,0.00885,-0.991455,0.159786,0.478168,-0.130992,54,277,565,4288
1644153613.724377,-0.010254,0.006592,-0.992432,0.251389,0.386565,-0.14626,53,262,566,4352
1644153613.772739,-0.012573,0.010864,-0.991943,0.159786,0.508702,-0.085191,57,270,568,4368
1644153613.82119,-0.010681,0.009949,-0.992065,0.327725,0.447634,-0.069924,48,271,571,4368
1644153613.869542,-0.010986,0.007263,-0.99353,0.236122,0.585038,-0.14626,46,274,576,4368
1644153613.917919,-0.013245,0.006775,-0.993713,0.404061,0.447634,-0.054656,51,271,564,4400
1644153613.966336,-0.015503,0.008118,-0.990173,0.159786,0.493435,-0.054656,58,274,564,4432
1644153614.014704,-0.013,0.00824,-0.991211,0.419328,0.356031,-0.054656,42,285,568,4320
1644153614.076805,-0.013062,0.009644,-0.989197,0.266656,0.340763,-0.085191,49,275,577,4464
1644153614.111422,-0.010681,0.009766,-0.990845,0.266656,0.462901,-0.14626,48,266,571,4368
1644153614.159849,-0.010132,0.007812,-0.99176,0.373527,0.371298,-0.085191,54,282,577,4352
1644153614.20822,-0.010559,0.006348,-0.992432,0.251389,0.478168,-0.008855,51,266,571,4400
1644153614.256557,-0.00946,0.011414,-0.990906,0.220855,0.325496,-0.14626,54,268,572,4352
1644153614.305054,-0.012939,0.007263,-0.989624,0.220855,0.554504,-0.069924,52,253,582,4320
1644153614.354543,-0.012756,0.009583,-0.992676,0.205588,0.447634,-0.039389,53,266,569,4400
1644153614.402204,-0.015686,0.011841,-0.993347,0.175053,0.447634,-0.024122,51,271,564,4320
1644153614.498505,-0.012878,0.008362,-0.992188,0.08345,0.417099,-0.130992,58,274,562,4368
1644153614.546912,-0.011292,0.007324,-0.990051,0.220855,0.401832,-0.268397,51,279,571,4320
1644153614.595301,-0.012573,0.009094,-0.99054,0.190321,0.447634,-0.008855,47,268,570,4368
1644153614.644181,-0.013245,0.009033,-0.991333,0.297191,0.569771,0.021679,53,269,566,4432
1644153614.692166,-0.015503,0.005432,-0.992249,0.312458,0.401832,-0.115725,51,266,566,4368
1644153614.740471,-0.013367,0.007996,-0.992065,0.312458,0.310229,-0.100458,59,265,577,4368
1644153614.788822,-0.012756,0.006775,-0.992615,0.190321,0.401832,-0.039389,55,279,576,4368
1644153614.83726,-0.014404,0.008423,-0.993713,0.297191,0.417099,-0.008855,53,276,564,4352
1644153614.885602,-0.012695,0.00769,-0.993042,0.220855,0.462901,-0.314198,51,279,569,4320
1644153614.934006,-0.014099,0.007202,-0.991272,0.144519,0.493435,-0.069924,58,271,564,4400
1644153614.982424,-0.013611,0.009338,-0.991394,0.220855,0.356031,-0.024122,48,266,573,4432
1644153615.030776,-0.011902,0.009216,-0.989502,0.098718,0.310229,0.006412,48,271,566,4320
1644153615.086026,-0.010193,0.00824,-0.989075,0.266656,0.585038,-0.085191,54,273,568,4320
1644153615.127542,-0.01178,0.008118,-0.993835,0.419328,0.325496,-0.207328,52,277,568,4368
1644153615.175923,-0.014954,0.010193,-0.992981,0.312458,0.371298,-0.024122,47,280,579,4400
1644153615.224301,-0.009216,0.00708,-0.992493,0.251389,0.401832,-0.14626,46,271,569,4368
1644153615.272661,-0.013733,0.007751,-0.99292,0.190321,0.356031,-0.008855,41,271,564,4368
1644153615.321058,-0.010132,0.008728,-0.991882,0.113985,0.462901,-0.069924,43,266,571,4368
1644153615.370131,-0.014893,0.006836,-0.993103,0.281924,0.386565,-0.039389,54,275,565,4400
1644153615.420183,-0.011963,0.009888,-0.992371,0.190321,0.478168,-0.069924,57,277,575,4368
1644153615.514653,-0.011169,0.009827,-0.991089,0.190321,0.447634,-0.14626,47,268,565,4400
1644153615.562978,-0.013245,0.007935,-0.990967,0.205588,0.356031,-0.100458,46,279,569,4400
1644153615.611381,-0.013611,0.00769,-0.991882,0.342992,0.447634,-0.100458,41,271,566,4368
1644153615.659766,-0.01123,0.004883,-0.991333,0.419328,0.539237,0.036947,52,263,568,4320
1644153615.708146,-0.013123,0.010498,-0.991638,0.373527,0.462901,-0.100458,55,279,564,4400
1644153615.756496,-0.010742,0.010437,-0.993469,0.266656,0.554504,-0.115725,51,264,571,4368
1644153615.80492,-0.012024,0.00769,-0.993225,0.220855,0.264427,-0.100458,43,279,569,4368
1644153615.853371,-0.010681,0.010254,-0.994873,0.312458,0.340763,-0.25313,52,277,558,4352
1644153615.901689,-0.014404,0.011658,-0.992126,0.297191,0.569771,-0.130992,47,275,570,4432
1644153615.95009,-0.011292,0.007263,-0.991272,0.342992,0.432366,-0.069924,48,276,573,4400
1644153615.998508,-0.013672,0.007935,-0.992004,0.297191,0.493435,-0.100458,48,269,566,4352
1644153616.059148,-0.012939,0.005859,-0.992981,0.342992,0.493435,-0.085191,55,274,571,4400
1644153616.095253,-0.012878,0.007019,-0.993164,0.342992,0.401832,-0.008855,52,275,579,4320
1644153616.143636,-0.012451,0.008057,-0.9953,0.220855,0.508702,0.006412,49,270,572,4320
1644153616.19201,-0.010498,0.008972,-0.994629,0.297191,0.264427,-0.130992,47,277,572,4320
1644153616.240391,-0.013123,0.007874,-0.992554,0.373527,0.478168,-0.192061,48,276,576,4368
1644153616.28886,-0.01178,0.009399,-0.992249,0.327725,0.386565,-0.130992,48,269,576,4368
1644153616.341014,-0.01239,0.010498,-0.993713,0.312458,0.508702,-0.130992,54,280,577,4400
1644153616.385523,-0.010071,0.009521,-0.991699,0.46513,0.294962,-0.14626,47,270,572,4400
1644153616.433953,-0.00946,0.009705,-0.992737,0.236122,0.432366,-0.069924,53,266,578,4320
1644153616.482456,-0.010925,0.009521,-0.992126,0.312458,0.661374,-0.192061,53,276,578,4368
1644153616.532797,-0.012329,0.00824,-0.98877,0.327725,0.493435,-0.130992,54,268,570,4400
1644153616.62749,-0.013489,0.006104,-0.991516,0.266656,0.401832,-0.130992,47,285,572,4400
1644153616.675848,-0.01239,0.009521,-0.991455,0.312458,0.386565,0.12855,46,279,569,4432
1644153616.724237,-0.012817,0.008179,-0.992554,0.220855,0.356031,-0.008855,52,282,570,4416
1644153616.772629,-0.010498,0.009155,-0.99054,0.35826,0.310229,0.067481,51,281,566,4320
1644153616.820999,-0.01355,0.008728,-0.992371,0.510931,0.478168,-0.069924,60,264,566,4368
1644153616.869463,-0.007935,0.008118,-0.990601,0.129252,0.325496,-0.222595,59,270,575,4352
1644153616.917829,-0.014221,0.007935,-0.992554,0.342992,0.447634,-0.039389,46,271,566,4368
1644153616.966193,-0.013428,0.010681,-0.993286,0.35826,0.462901,-0.069924,47,270,577,4400
1644153617.014624,-0.010254,0.010254,-0.991821,0.159786,0.310229,0.006412,46,269,576,4368
1644153617.065799,-0.009399,0.009583,-0.991882,0.373527,0.569771,-0.130992,60,276,564,4352
1644153617.111383,-0.012878,0.008057,-0.993835,0.46513,0.585038,0.006412,53,274,564,4400
1644153617.159701,-0.01355,0.01001,-0.994995,0.205588,0.462901,-0.008855,39,276,573,4320
1644153617.208051,-0.011963,0.008789,-0.991089,0.236122,0.432366,-0.054656,47,273,568,4320
1644153617.256478,-0.011719,0.008179,-0.989746,0.251389,0.462901,-0.115725,41,269,576,4368
1644153617.304862,-0.009338,0.012695,-0.993469,0.190321,0.462901,-0.008855,54,270,568,4352
1644153617.353271,-0.009521,0.010803,-0.990356,0.175053,0.554504,-0.024122,47,273,565,4432
1644153617.401644,-0.010498,0.008911,-0.991821,0.220855,0.386565,-0.25313,54,282,572,4464
1644153617.450026,-0.014465,0.006348,-0.991821,0.205588,0.371298,-0.207328,58,276,566,4368
1644153617.4984,-0.01123,0.010315,-0.992249,0.251389,0.462901,-0.130992,53,283,576,4416
1644153617.546772,-0.010437,0.008911,-0.991455,0.35826,0.585038,-0.115725,53,266,571,4400
1644153617.595179,-0.011719,0.010925,-0.990845,0.281924,0.432366,0.12855,41,264,571,4320
1644153617.644664,-0.011719,0.010742,-0.993591,0.266656,0.310229,-0.008855,59,280,570,4352
1644153617.692263,-0.012024,0.010803,-0.990051,0.236122,0.417099,-0.14626,54,273,572,4368
1644153617.788715,-0.013184,0.008118,-0.993713,0.373527,0.279695,0.006412,52,285,570,4416
1644153617.837051,-0.012878,0.009094,-0.992188,0.205588,0.310229,-0.130992,48,274,564,4352
1644153617.88578,-0.010986,0.008545,-0.991821,0.327725,0.447634,-0.008855,53,279,576,4304
1644153617.934126,-0.012817,0.008789,-0.989014,0.327725,0.508702,-0.207328,55,271,576,4400
1644153617.982394,-0.013,0.008118,-0.992249,0.297191,0.401832,-0.161527,45,275,568,4368
1644153618.03063,-0.007568,0.009705,-0.992126,0.251389,0.386565,0.036947,55,274,569,4320
1644153618.079087,-0.011719,0.007874,-0.991516,0.205588,0.462901,0.006412,45,273,577,4400
1644153618.12742,-0.00647,0.007751,-0.994324,0.312458,0.478168,0.067481,54,275,575,4400
1644153618.175788,-0.012512,0.008667,-0.992188,0.281924,0.401832,-0.054656,54,263,577,4432
1644153618.224205,-0.011047,0.007385,-0.992493,0.297191,0.356031,-0.085191,52,275,577,4320
1644153618.272548,-0.012817,0.008789,-0.993103,0.342992,0.462901,-0.14626,45,285,568,4320
1644153618.320946,-0.013794,0.008789,-0.992371,0.388794,0.417099,0.006412,45,273,568,4352
1644153618.369348,-0.009521,0.012451,-0.991211,0.281924,0.417099,-0.161527,49,282,575,4416
1644153618.41774,-0.010437,0.008667,-0.990967,0.205588,0.172824,-0.024122,51,286,566,4368
1644153618.466073,-0.013611,0.010193,-0.992676,0.205588,0.523969,-0.039389,54,265,577,4400
1644153618.514479,-0.010498,0.007629,-0.991272,0.190321,0.264427,-0.100458,49,273,565,4368
1644153618.562859,-0.012451,0.009827,-0.992676,0.129252,0.417099,0.006412,58,276,573,4432
1644153618.611243,-0.012878,0.011597,-0.991394,0.297191,0.462901,-0.024122,47,265,572,4320
1644153618.659652,-0.012024,0.008545,-0.993591,0.388794,0.340763,-0.14626,47,282,572,4400
1644153618.708028,-0.013245,0.01001,-0.99353,0.037649,0.523969,-0.115725,47,277,570,4320
1644153618.756712,-0.009399,0.009399,-0.992065,0.419328,0.417099,-0.100458,46,279,571,4352
1644153618.806981,-0.012878,0.008057,-0.990723,0.297191,0.493435,-0.024122,51,281,566,4400
1644153618.854425,-0.01532,0.008301,-0.990662,0.113985,0.432366,0.006412,46,276,571,4400
1644153618.950025,-0.013367,0.011047,-0.99054,0.434595,0.386565,-0.024122,52,263,570,4352
1644153618.998352,-0.014221,0.010559,-0.991211,0.373527,0.417099,0.006412,42,270,572,4352
1644153619.059086,-0.012268,0.00769,-0.993896,0.373527,0.478168,0.082748,49,277,561,4368
1644153619.095193,-0.011108,0.008179,-0.992249,0.449863,0.478168,-0.207328,49,268,572,4368
1644153619.143535,-0.012451,0.010193,-0.993774,0.251389,0.356031,0.052214,48,264,562,4368
1644153619.191897,-0.013184,0.007629,-0.99353,0.159786,0.386565,-0.100458,46,271,564,4368
1644153619.240326,-0.011597,0.007874,-0.990173,0.281924,0.462901,-0.14626,52,268,568,4368
1644153619.288677,-0.01239,0.007385,-0.991028,0.175053,0.417099,-0.100458,55,274,571,4368
1644153619.337095,-0.013062,0.011963,-0.991272,0.327725,0.569771,-0.100458,42,270,568,4368
1644153619.385439,-0.010864,0.009766,-0.992798,0.388794,0.356031,0.143817,54,270,575,4400
1644153619.43386,-0.014038,0.007385,-0.991821,0.190321,0.417099,-0.054656,43,271,576,4352
1644153619.482554,-0.01416,0.007751,-0.992981,0.205588,0.569771,-0.085191,49,263,575,4368
1644153619.533812,-0.008362,0.009033,-0.991882,0.312458,0.447634,-0.115725,51,262,578,4352
1644153619.578906,-0.012268,0.009949,-0.992371,0.129252,0.432366,-0.14626,48,274,580,4368
1644153619.627323,-0.013184,0.009705,-0.992432,0.251389,0.447634,-0.024122,48,276,569,4320
1644153619.676121,-0.011108,0.011658,-0.989868,0.220855,0.462901,-0.100458,49,270,565,4368
1644153619.726434,-0.01355,0.009338,-0.993896,0.327725,0.417099,-0.069924,46,274,573,4432
1644153619.820921,-0.011108,0.009277,-0.993225,0.327725,0.523969,-0.069924,53,274,571,4368
1644153619.870016,-0.012207,0.007019,-0.99353,0.205588,0.462901,-0.207328,46,266,573,4368
1644153619.917633,-0.011963,0.009583,-0.993286,0.236122,0.63084,-0.069924,55,271,571,4320
1644153619.966,-0.012756,0.009949,-0.990662,0.281924,0.325496,-0.008855,38,275,570,4352
1644153620.014416,-0.012268,0.008301,-0.993835,0.281924,0.371298,-0.14626,55,281,569,4352
1644153620.065093,-0.008484,0.010071,-0.991943,0.342992,0.401832,-0.115725,48,271,571,4352
1644153620.111179,-0.011047,0.012024,-0.990906,0.175053,0.569771,-0.008855,43,274,569,4368
1644153620.15956,-0.010986,0.005188,-0.991333,0.342992,0.371298,-0.054656,46,271,555,4352
1644153620.207976,-0.014648,0.008301,-0.992432,0.327725,0.386565,-0.008855,53,279,562,4320
1644153620.256341,-0.013,0.009338,-0.992615,0.312458,0.371298,-0.024122,55,279,571,4432
1644153620.30477,-0.013672,0.009705,-0.991333,0.220855,0.447634,-0.069924,41,271,569,4432
1644153620.353173,-0.012268,0.010498,-0.990601,0.312458,0.417099,-0.069924,53,274,566,4320
1644153620.401536,-0.012512,0.008179,-0.993774,0.266656,0.478168,0.036947,54,270,565,4432
1644153620.449948,-0.012939,0.01062,-0.992737,0.312458,0.417099,-0.161527,42,273,570,4368
1644153620.498276,-0.010681,0.009399,-0.992676,0.297191,0.401832,-0.039389,49,260,568,4368
1644153620.546708,-0.011963,0.008911,-0.992554,0.251389,0.462901,-0.085191,52,270,575,4416
1644153620.595119,-0.011658,0.008606,-0.990601,0.251389,0.493435,-0.069924,49,273,565,4400
1644153620.643464,-0.010376,0.010864,-0.993652,0.220855,0.478168,-0.115725,57,268,570,4400
1644153620.691841,-0.013672,0.00885,-0.991699,0.068183,0.523969,-0.176794,41,269,580,4352
1644153620.740233,-0.013489,0.011536,-0.993591,0.098718,0.401832,0.006412,42,282,568,4352
1644153620.790129,-0.008362,0.009338,-0.991638,0.113985,0.600305,-0.039389,47,265,570,4352
1644153620.837031,-0.01239,0.00708,-0.991455,0.373527,0.340763,0.067481,46,271,569,4432
1644153620.93378,-0.009521,0.006653,-0.989807,0.281924,0.539237,-0.069924,53,266,576,4288
1644153620.982316,-0.011169,0.00946,-0.989868,0.327725,0.523969,-0.085191,45,275,575,4400
1644153621.030519,-0.012695,0.00946,-0.991028,0.220855,0.401832,-0.069924,47,263,579,4320
1644153621.079094,-0.009155,0.008789,-0.990967,0.35826,0.523969,-0.176794,54,268,577,4320
1644153621.127379,-0.010132,0.010376,-0.990356,0.342992,0.417099,-0.100458,57,273,575,4400
1644153621.175693,-0.011841,0.007751,-0.990967,0.35826,0.432366,-0.085191,48,274,576,4400
1644153621.224025,-0.013855,0.010498,-0.992126,0.297191,0.356031,-0.130992,51,269,569,4352
1644153621.272446,-0.010437,0.009338,-0.990479,0.327725,0.294962,-0.100458,49,270,565,4400
1644153621.320812,-0.010071,0.009949,-0.99408,0.327725,0.340763,-0.069924,40,280,565,4432
1644153621.369184,-0.016724,0.007996,-0.989319,0.236122,0.264427,-0.14626,46,271,573,4352
1644153621.417563,-0.011597,0.007812,-0.991516,0.205588,0.462901,-0.039389,51,276,573,4432
1644153621.46599,-0.010925,0.00946,-0.991211,0.205588,0.432366,-0.207328,54,277,575,4320
1644153621.51433,-0.008545,0.009583,-0.992737,0.327725,0.508702,0.052214,47,268,570,4368
1644153621.562756,-0.014221,0.011658,-0.991699,0.388794,0.294962,-0.161527,41,276,562,4352
1644153621.611127,-0.009705,0.006531,-0.99231,0.281924,0.539237,0.006412,48,274,564,4432
1644153621.659523,-0.014221,0.003845,-0.991394,0.404061,0.356031,-0.085191,46,266,576,4320
1644153621.70791,-0.01355,0.00708,-0.991577,0.480397,0.539237,0.006412,49,273,579,4400
1644153621.756275,-0.009705,0.008362,-0.990906,0.190321,0.233893,-0.085191,49,280,570,4368
1644153621.804727,-0.013489,0.011475,-0.992249,0.220855,0.417099,-0.085191,57,270,577,4320
1644153621.853089,-0.013062,0.007935,-0.991516,0.281924,0.493435,-0.115725,52,275,570,4400
1644153621.901935,-0.009888,0.007385,-0.992859,0.480397,0.371298,-0.115725,57,270,568,4352
1644153621.9522,-0.011597,0.005615,-0.993103,0.129252,0.386565,-0.130992,49,282,563,4432
1644153621.999656,-0.010193,0.008057,-0.991516,0.297191,0.447634,-0.100458,58,274,578,4400
1644153622.095051,-0.014648,0.013489,-0.989929,0.480397,0.401832,0.021679,54,275,575,4400
1644153622.143359,-0.011963,0.009705,-0.992554,0.281924,0.508702,-0.115725,48,269,569,4432
1644153622.191773,-0.010315,0.011475,-0.993103,0.342992,0.386565,0.021679,49,265,584,4400
1644153622.24014,-0.01001,0.008667,-0.991577,0.205588,0.356031,-0.176794,58,279,571,4368
1644153622.288516,-0.010193,0.009399,-0.990417,0.373527,0.523969,0.006412,52,277,568,4416
1644153622.336896,-0.010071,0.010925,-0.990356,0.175053,0.478168,-0.039389,52,268,572,4352
1644153622.385301,-0.009277,0.00592,-0.989136,0.266656,0.508702,0.021679,49,270,570,4400
1644153622.433704,-0.007996,0.009033,-0.992859,0.342992,0.478168,-0.115725,48,269,571,4368
1644153622.482067,-0.009338,0.008057,-0.991577,0.266656,0.417099,-0.192061,59,265,572,4368
1644153622.530441,-0.010986,0.011597,-0.994202,0.159786,0.447634,-0.069924,40,270,572,4432
1644153622.578826,-0.013184,0.008118,-0.991272,0.236122,0.356031,-0.237863,46,271,576,4320
1644153622.627237,-0.011658,0.010315,-0.991272,0.175053,0.539237,-0.100458,51,269,573,4368
1644153622.67557,-0.010437,0.007324,-0.99115,0.419328,0.523969,-0.192061,49,277,568,4368
1644153622.72403,-0.011475,0.008057,-0.989136,0.251389,0.340763,-0.069924,52,265,584,4400
1644153622.772374,-0.012695,0.011108,-0.992554,0.388794,0.432366,-0.115725,57,282,582,4368
1644153622.820814,-0.012512,0.008667,-0.992004,0.175053,0.432366,-0.085191,48,271,573,4352
1644153622.869181,-0.010437,0.00708,-0.992432,0.190321,0.508702,-0.085191,47,265,570,4400
1644153622.917583,-0.010437,0.007751,-0.992737,0.236122,0.462901,-0.115725,52,265,575,4368
1644153622.965894,-0.014465,0.006592,-0.992004,0.373527,0.356031,0.021679,54,277,565,4368
1644153623.014308,-0.013489,0.010132,-0.992188,0.266656,0.508702,-0.14626,55,274,573,4256
1644153623.111127,-0.014099,0.009155,-0.994751,0.281924,0.523969,-0.14626,48,276,562,4320
1644153623.159473,-0.012329,0.003784,-0.993774,0.297191,0.340763,-0.069924,48,281,573,4400
1644153623.207894,-0.01178,0.006958,-0.990417,0.251389,0.554504,-0.008855,54,275,577,4400
1644153623.256245,-0.011902,0.007996,-0.993225,0.327725,0.417099,-0.054656,47,270,575,4352
1644153623.304676,-0.010864,0.00885,-0.993774,0.35826,0.585038,0.067481,48,283,573,4368
1644153623.353023,-0.009644,0.009949,-0.992981,0.236122,0.462901,-0.085191,42,280,568,4400
1644153623.401453,-0.012817,0.011108,-0.989563,0.281924,0.310229,-0.100458,43,269,564,4416
1644153623.449779,-0.01062,0.012878,-0.992737,0.281924,0.417099,-0.039389,52,275,572,4368
1644153623.498176,-0.012756,0.010803,-0.992615,0.068183,0.432366,-0.130992,64,273,575,4304
1644153623.546569,-0.01178,0.010925,-0.993225,0.35826,0.356031,-0.085191,51,274,573,4416
1644153623.595113,-0.013184,0.006104,-0.994934,0.205588,0.447634,0.021679,48,264,576,4368
1644153623.643363,-0.012634,0.007324,-0.992981,0.480397,0.462901,-0.283664,46,276,564,4352
1644153623.691745,-0.011475,0.007629,-0.988708,0.251389,0.310229,-0.085191,47,270,575,4400
1644153623.740116,-0.011841,0.00946,-0.992615,0.281924,0.325496,-0.054656,51,271,571,4432
1644153623.788515,-0.012268,0.009155,-0.990906,0.251389,0.523969,0.006412,52,268,565,4432
1644153623.836902,-0.013672,0.010803,-0.990723,0.266656,0.432366,-0.237863,45,273,577,4352
1644153623.885277,-0.009827,0.008972,-0.990723,0.052916,0.356031,0.006412,47,273,584,4320
1644153623.933643,-0.016235,0.009766,-0.993469,0.312458,0.386565,-0.161527,45,275,568,4368
1644153623.982035,-0.012329,0.008728,-0.994873,0.220855,0.401832,-0.115725,58,266,583,4352
1644153624.030413,-0.01416,0.009399,-0.992126,0.281924,0.371298,-0.069924,41,271,569,4368
1644153624.080765,-0.015198,0.006531,-0.993042,0.251389,0.447634,0.006412,49,268,579,4368
1644153624.127481,-0.013123,0.009094,-0.991272,0.236122,0.386565,-0.024122,51,274,564,4400
1644153624.176885,-0.010681,0.009949,-0.990601,0.495664,0.432366,-0.115725,45,273,577,4368
1644153624.272339,-0.010193,0.009644,-0.993164,0.342992,0.401832,-0.054656,53,271,562,4320
1644153624.320829,-0.013123,0.008362,-0.99353,0.190321,0.432366,-0.222595,46,274,576,4400
1644153624.369081,-0.013489,0.009827,-0.992676,0.236122,0.371298,-0.039389,51,271,571,4416
1644153624.41745,-0.013245,0.008484,-0.992188,0.08345,0.356031,-0.054656,43,279,576,4304
1644153624.465842,-0.011414,0.009888,-0.991333,0.312458,0.523969,-0.024122,51,279,571,4368
1644153624.514248,-0.013306,0.010132,-0.993896,0.327725,0.356031,-0.207328,51,269,562,4320
1644153624.562586,-0.01123,0.008606,-0.992676,0.434595,0.447634,-0.100458,42,268,572,4320
1644153624.611031,-0.012329,0.007263,-0.993286,0.312458,0.462901,0.036947,53,271,566,4352
1644153624.659407,-0.01178,0.010681,-0.99292,0.327725,0.371298,-0.14626,45,273,579,4368
1644153624.707803,-0.010254,0.011597,-0.990906,0.373527,0.432366,-0.024122,46,269,573,4368
1644153624.75614,-0.011414,0.008179,-0.991821,0.46513,0.523969,-0.192061,54,265,579,4320
1644153624.804609,-0.014221,0.007874,-0.991455,0.297191,0.462901,-0.069924,53,271,576,4368
1644153624.852979,-0.011536,0.010864,-0.990479,0.236122,0.447634,0.052214,51,271,578,4432
1644153624.901359,-0.012207,0.007996,-0.992493,0.251389,0.371298,-0.024122,54,270,570,4368
1644153624.949751,-0.01355,0.007996,-0.993408,0.373527,0.310229,-0.14626,49,282,568,4400
1644153624.998125,-0.012024,0.008911,-0.991821,0.159786,0.478168,-0.130992,45,270,570,4464
1644153625.057994,-0.011963,0.007812,-0.993652,0.297191,0.447634,-0.161527,52,277,579,4320
1644153625.0949,-0.009888,0.008789,-0.991211,0.312458,0.401832,-0.085191,40,280,570,4400
1644153625.143282,-0.011963,0.008484,-0.991577,0.327725,0.340763,-0.039389,43,271,571,4400
1644153625.191633,-0.011108,0.009949,-0.990967,0.190321,0.462901,-0.161527,52,258,570,4416
1644153625.240868,-0.011841,0.011169,-0.988708,0.35826,0.325496,-0.176794,53,259,566,4400
1644153625.291086,-0.011841,0.008545,-0.992371,0.373527,0.508702,-0.069924,58,274,569,4320
1644153625.385266,-0.012512,0.008301,-0.992126,0.175053,0.432366,-0.039389,47,270,563,4432
1644153625.433607,-0.01355,0.008301,-0.990845,0.175053,0.462901,-0.207328,42,265,570,4368
1644153625.481979,-0.014587,0.009216,-0.994629,0.312458,0.447634,-0.054656,49,273,568,4416
1644153625.530346,-0.012451,0.00885,-0.992676,0.327725,0.523969,-0.14626,47,273,572,4400
1644153625.578725,-0.013733,0.009766,-0.991272,0.281924,0.432366,-0.207328,46,283,571,4368
1644153625.627106,-0.013306,0.007751,-0.992615,0.312458,0.493435,0.036947,45,260,570,4368
1644153625.675526,-0.014465,0.00824,-0.99292,0.35826,0.432366,-0.069924,55,264,566,4416
1644153625.723908,-0.012146,0.008972,-0.993958,0.236122,0.371298,-0.14626,46,276,569,4400
1644153625.772304,-0.011047,0.007751,-0.992432,0.342992,0.478168,0.098015,54,273,572,4368
1644153625.820646,-0.01239,0.009033,-0.992493,0.159786,0.432366,-0.14626,55,266,569,4368
1644153625.869086,-0.010376,0.009399,-0.99176,0.35826,0.447634,-0.222595,57,280,575,4368
1644153625.917531,-0.009949,0.008728,-0.992737,0.236122,0.447634,-0.100458,51,274,580,4400
1644153625.965767,-0.011475,0.007751,-0.992004,0.419328,0.401832,-0.14626,45,273,568,4400
1644153626.014639,-0.013489,0.01001,-0.993408,0.251389,0.294962,-0.130992,48,271,578,4400
1644153626.064923,-0.013489,0.008789,-0.993164,0.251389,0.340763,0.021679,46,269,578,4400
1644153626.110928,-0.012756,0.010559,-0.990295,0.297191,0.386565,-0.024122,45,280,572,4368
1644153626.159318,-0.013245,0.008118,-0.992676,0.251389,0.340763,-0.008855,53,276,571,4320
1644153626.207716,-0.013,0.007202,-0.989868,0.251389,0.310229,-0.008855,54,270,582,4432
1644153626.256085,-0.010803,0.008911,-0.994202,0.266656,0.63084,0.036947,48,274,571,4400
1644153626.304479,-0.009338,0.009338,-0.993286,0.312458,0.325496,-0.222595,45,273,561,4368
1644153626.352879,-0.011353,0.009216,-0.991333,0.342992,0.462901,-0.085191,48,279,569,4400
1644153626.402799,-0.01178,0.009521,-0.991882,0.159786,0.356031,-0.039389,47,270,570,4368
1644153626.450558,-0.014526,0.009583,-0.989441,0.159786,0.493435,-0.115725,54,268,575,4400
1644153626.546394,-0.011963,0.00769,-0.990662,0.205588,0.325496,-0.100458,49,273,570,4400
1644153626.594791,-0.015015,0.008057,-0.99292,0.388794,0.401832,-0.100458,51,264,566,4368
1644153626.643176,-0.013184,0.010315,-0.991089,0.404061,0.371298,-0.161527,51,271,569,4368
1644153626.691586,-0.012146,0.007141,-0.991943,0.342992,0.462901,-0.054656,54,265,575,4400
1644153626.740001,-0.011169,0.008911,-0.991943,0.205588,0.340763,-0.14626,53,279,569,4416
1644153626.788393,-0.009705,0.010193,-0.992493,0.266656,0.447634,-0.008855,47,277,572,4320
1644153626.836779,-0.009583,0.008301,-0.993164,0.205588,0.340763,-0.192061,51,281,564,4368
1644153626.88515,-0.012573,0.010559,-0.992493,0.251389,0.371298,-0.130992,43,276,576,4352
1644153626.933534,-0.010925,0.009888,-0.993286,0.404061,0.478168,-0.192061,41,271,569,4352
1644153626.981933,-0.010681,0.008667,-0.995117,0.297191,0.493435,-0.176794,52,270,570,4368
1644153627.030327,-0.012756,0.009644,-0.994446,0.342992,0.539237,-0.024122,51,259,569,4432
1644153627.084171,-0.011658,0.007446,-0.993408,0.098718,0.447634,-0.176794,46,276,566,4320
1644153627.12705,-0.012634,0.007263,-0.99231,0.159786,0.478168,-0.192061,49,263,579,4400
1644153627.175468,-0.012817,0.009644,-0.990601,0.251389,0.371298,0.006412,46,274,571,4432
1644153627.223848,-0.012939,0.009338,-0.990967,0.35826,0.386565,-0.085191,49,273,570,4320
1644153627.272275,-0.011963,0.009644,-0.991882,0.175053,0.417099,-0.130992,51,274,566,4400
1644153627.322581,-0.013306,0.008911,-0.992493,0.312458,0.569771,-0.130992,48,279,571,4432
1644153627.370011,-0.011963,0.008667,-0.990723,0.312458,0.371298,-0.100458,48,283,576,4432
1644153627.465832,-0.015198,0.00946,-0.991455,0.388794,0.508702,-0.161527,49,268,582,4368
1644153627.514219,-0.012756,0.008545,-0.99231,0.205588,0.523969,-0.100458,52,275,584,4400
1644153627.562471,-0.013428,0.009216,-0.994263,0.205588,0.325496,0.113282,48,274,576,4352
1644153627.610844,-0.012451,0.008423,-0.993408,0.266656,0.432366,-0.039389,45,270,575,4352
1644153627.65924,-0.01123,0.007202,-0.994263,0.404061,0.447634,-0.100458,45,280,575,4368
1644153627.707618,-0.012939,0.010437,-0.993713,0.281924,0.447634,-0.115725,48,274,564,4416
1644153627.756029,-0.013184,0.008118,-0.992615,0.205588,0.371298,-0.085191,59,270,570,4352
1644153627.804428,-0.010803,0.010742,-0.992554,0.220855,0.462901,-0.085191,48,276,578,4432
1644153627.852948,-0.012085,0.009399,-0.991211,0.236122,0.493435,-0.008855,45,263,570,4368
1644153627.901168,-0.013062,0.009155,-0.99054,0.297191,0.462901,-0.222595,52,275,579,4416
1644153627.949594,-0.014587,0.012878,-0.99176,0.404061,0.462901,-0.207328,46,276,573,4400
1644153627.997964,-0.012451,0.010742,-0.990845,0.175053,0.447634,-0.054656,48,276,566,4368
1644153628.05888,-0.011536,0.006409,-0.992615,0.190321,0.600305,-0.222595,49,265,572,4400
1644153628.094747,-0.013489,0.011536,-0.992371,0.281924,0.462901,-0.161527,60,271,571,4400
1644153628.14313,-0.013367,0.009216,-0.990234,0.388794,0.340763,-0.069924,51,281,576,4400
1644153628.191524,-0.014526,0.008118,-0.992188,0.190321,0.493435,-0.130992,51,271,571,4320
1644153628.23995,-0.01123,0.008667,-0.993286,0.342992,0.401832,-0.069924,59,270,572,4352
1644153628.288266,-0.01123,0.006836,-0.994202,0.312458,0.539237,-0.054656,58,281,578,4368
1644153628.336713,-0.010803,0.008972,-0.992249,0.526198,0.569771,-0.14626,43,283,569,4352
1644153628.385196,-0.011414,0.006958,-0.991455,0.342992,0.417099,-0.085191,51,271,564,4352
1644153628.433738,-0.014587,0.006897,-0.992859,0.312458,0.356031,-0.192061,58,276,571,4352
1644153628.483998,-0.012329,0.007935,-0.990051,0.037649,0.386565,-0.115725,49,280,568,4320
1644153628.531481,-0.012817,0.012085,-0.99292,0.373527,0.493435,-0.192061,48,269,571,4352
1644153628.627007,-0.010376,0.006897,-0.992371,0.373527,0.371298,-0.130992,49,273,575,4368
1644153628.675362,-0.016174,0.007141,-0.992981,0.373527,0.386565,-0.161527,49,275,584,4400
1644153628.723773,-0.012695,0.009949,-0.994019,0.236122,0.401832,-0.130992,49,270,568,4432
1644153628.772174,-0.011292,0.00885,-0.988281,0.220855,0.417099,-0.14626,43,274,562,4432
1644153628.820532,-0.014282,0.007751,-0.991333,0.342992,0.478168,-0.161527,49,270,565,4368
1644153628.868931,-0.010254,0.008118,-0.994568,0.35826,0.493435,-0.069924,40,273,572,4368
1644153628.917336,-0.011047,0.007629,-0.991455,0.342992,0.478168,-0.039389,51,269,576,4320
1644153628.965668,-0.013245,0.008728,-0.992981,0.159786,0.508702,-0.161527,54,268,565,4400
1644153629.014079,-0.012573,0.005493,-0.992493,0.220855,0.508702,0.036947,46,274,564,4368
1644153629.064019,-0.012756,0.009644,-0.993042,0.327725,0.462901,-0.115725,53,269,571,4368
1644153629.110858,-0.011108,0.009705,-0.991577,0.434595,0.310229,-0.25313,58,276,576,4368
1644153629.159195,-0.014648,0.008423,-0.995361,0.297191,0.447634,-0.039389,43,269,580,4352
1644153629.207587,-0.01355,0.007874,-0.990662,0.251389,0.447634,-0.115725,51,276,569,4400
1644153629.255958,-0.012024,0.009705,-0.992126,0.190321,0.386565,-0.039389,52,280,577,4416
1644153629.304366,-0.012634,0.008728,-0.99408,0.297191,0.676641,0.021679,51,266,569,4352
1644153629.352753,-0.012207,0.012451,-0.993042,0.251389,0.356031,-0.085191,45,268,575,4352
1644153629.401145,-0.013794,0.009216,-0.992371,0.297191,0.493435,-0.069924,53,262,580,4352
1644153629.449526,-0.00885,0.009888,-0.991272,0.419328,0.478168,-0.115725,45,275,582,4352
1644153629.4979,-0.010132,0.009155,-0.991882,0.480397,0.462901,-0.192061,53,271,571,4320
1644153629.546293,-0.010071,0.008667,-0.989563,0.251389,0.417099,-0.085191,58,279,566,4368
1644153629.594775,-0.013,0.009033,-0.992737,0.129252,0.325496,-0.039389,49,260,570,4368
1644153629.644604,-0.012329,0.009583,-0.99054,0.205588,0.417099,-0.100458,52,265,577,4352
1644153629.692269,-0.012085,0.008301,-0.990417,0.312458,0.508702,-0.085191,53,276,571,4352
1644153629.788179,-0.011597,0.00946,-0.992065,0.220855,0.432366,-0.008855,40,277,568,4400
1644153629.836601,-0.015869,0.006531,-0.989258,0.220855,0.508702,0.021679,47,275,565,4352
1644153629.885058,-0.012512,0.006653,-0.991577,0.266656,0.401832,0.006412,54,273,572,4368
1644153629.933383,-0.012024,0.010681,-0.995178,0.190321,0.447634,-0.115725,48,274,571,4432
1644153629.981819,-0.010193,0.009155,-0.99469,0.35826,0.325496,-0.115725,43,276,573,4368
1644153630.03017,-0.011169,0.009766,-0.993469,0.236122,0.386565,-0.115725,57,273,572,4416
1644153630.079035,-0.011475,0.007568,-0.99292,0.190321,0.386565,-0.008855,43,279,578,4400
1644153630.126934,-0.011108,0.009277,-0.990112,0.236122,0.279695,-0.161527,38,270,572,4368
1644153630.175293,-0.013123,0.007629,-0.991821,0.236122,0.462901,-0.100458,53,274,564,4400
1644153630.223686,-0.011658,0.010498,-0.991882,0.327725,0.325496,-0.100458,51,274,576,4416
1644153630.272038,-0.014587,0.008362,-0.99353,0.251389,0.417099,-0.176794,45,275,572,4368
1644153630.320464,-0.011597,0.006348,-0.989929,0.205588,0.432366,-0.115725,52,268,579,4416
1644153630.368848,-0.011475,0.010132,-0.989197,0.037649,0.371298,-0.14626,49,275,561,4368
1644153630.417232,-0.013,0.006653,-0.991882,0.281924,0.340763,-0.100458,53,274,578,4464
1644153630.465621,-0.011963,0.01123,-0.993286,0.236122,0.478168,-0.024122,51,266,573,4368
1644153630.513981,-0.012573,0.00824,-0.994324,0.251389,0.386565,-0.100458,55,271,566,4400
1644153630.562387,-0.010803,0.006104,-0.992737,0.175053,0.432366,-0.039389,55,271,580,4400
1644153630.610767,-0.013977,0.009094,-0.991699,0.419328,0.493435,-0.314198,53,259,580,4400
1644153630.662392,-0.01062,0.00708,-0.991821,0.052916,0.478168,-0.100458,51,266,571,4368
1644153630.707798,-0.013306,0.008545,-0.990417,0.312458,0.462901,-0.161527,53,262,580,4400
1644153630.755891,-0.013916,0.009216,-0.995239,0.129252,0.493435,-0.024122,45,277,572,4400
1644153630.805916,-0.014221,0.007202,-0.995544,0.159786,0.569771,-0.115725,46,264,566,4368
1644153630.853674,-0.014343,0.006409,-0.991638,0.312458,0.356031,-0.039389,57,275,558,4432
1644153630.949507,-0.010498,0.006409,-0.99469,0.266656,0.417099,-0.008855,45,277,563,4368
1644153630.997879,-0.011414,0.007019,-0.994507,0.297191,0.371298,-0.054656,53,269,564,4368
1644153631.058924,-0.014282,0.007935,-0.993164,0.266656,0.523969,-0.069924,51,274,566,4432
1644153631.094672,-0.012207,0.007874,-0.990601,0.205588,0.661374,-0.100458,52,268,582,4320
1644153631.143056,-0.011597,0.009949,-0.992371,0.144519,0.417099,-0.085191,42,277,579,4320
1644153631.191425,-0.014343,0.009094,-0.992737,0.404061,0.493435,-0.039389,53,274,564,4432
1644153631.239811,-0.015015,0.006226,-0.992493,0.342992,0.569771,-0.176794,58,269,569,4400
1644153631.288177,-0.010803,0.010254,-0.995667,0.281924,0.417099,0.098015,58,276,573,4320
1644153631.336545,-0.012024,0.004944,-0.993164,0.434595,0.493435,0.006412,55,283,571,4400
1644153631.385028,-0.010925,0.008972,-0.991882,0.113985,0.401832,-0.100458,52,275,568,4320
1644153631.433306,-0.014099,0.007812,-0.992554,0.342992,0.493435,-0.314198,47,273,568,4368
1644153631.481725,-0.013184,0.011292,-0.992676,0.281924,0.508702,-0.222595,54,282,572,4368
1644153631.530078,-0.011597,0.00769,-0.991394,0.327725,0.478168,-0.14626,54,270,568,4400
1644153631.578516,-0.014832,0.008362,-0.993774,0.388794,0.508702,-0.069924,57,265,579,4464
1644153631.626851,-0.011597,0.007507,-0.993713,0.373527,0.401832,-0.085191,53,279,578,4416
1644153631.675273,-0.011475,0.010376,-0.991333,0.236122,0.554504,-0.039389,45,273,570,4368
1644153631.724548,-0.011475,0.007568,-0.994202,0.175053,0.432366,-0.039389,52,263,572,4368
1644153631.774762,-0.013123,0.008118,-0.993408,0.449863,0.554504,-0.085191,52,265,579,4400
1644153631.8688,-0.011658,0.005127,-0.992004,0.236122,0.417099,0.006412,48,271,569,4368
1644153631.917188,-0.013306,0.007935,-0.991211,0.312458,0.310229,-0.054656,48,271,571,4368
1644153631.965595,-0.012817,0.007446,-0.991577,0.175053,0.493435,-0.054656,41,271,573,4400
1644153632.013947,-0.013977,0.007996,-0.994995,0.297191,0.432366,-0.14626,49,270,575,4432
1644153632.064563,-0.01123,0.009583,-0.992859,0.129252,0.447634,-0.100458,45,265,577,4416
1644153632.110705,-0.009827,0.008606,-0.993835,0.220855,0.371298,-0.024122,51,269,569,4416
1644153632.15908,-0.012268,0.008606,-0.993103,0.312458,0.447634,0.021679,54,273,572,4400
1644153632.207473,-0.011963,0.007751,-0.994324,0.175053,0.462901,-0.115725,52,268,577,4352
1644153632.255893,-0.013672,0.009216,-0.992676,0.281924,0.325496,-0.283664,55,271,569,4400
1644153632.304411,-0.015747,0.005981,-0.992798,0.205588,0.523969,-0.039389,47,277,579,4368
1644153632.352623,-0.014282,0.007874,-0.992004,0.144519,0.569771,-0.176794,61,275,577,4368
1644153632.401024,-0.01239,0.008484,-0.994324,0.220855,0.447634,-0.024122,41,271,571,4320
1644153632.449401,-0.011719,0.009949,-0.991699,0.251389,0.478168,-0.100458,55,279,573,4304
1644153632.497748,-0.011353,0.009949,-0.99176,0.266656,0.432366,-0.008855,48,283,559,4416
1644153632.546134,-0.012329,0.007751,-0.992859,0.205588,0.310229,-0.054656,55,276,569,4304
1644153632.594604,-0.013611,0.01001,-0.991882,0.251389,0.539237,-0.115725,49,280,570,4400
1644153632.64294,-0.013062,0.00769,-0.993652,0.251389,0.294962,0.021679,49,282,579,4432
1644153632.691293,-0.011536,0.01001,-0.992981,0.388794,0.310229,-0.115725,59,280,579,4400
1644153632.739661,-0.012207,0.01001,-0.99353,0.297191,0.325496,-0.100458,46,276,578,4416
1644153632.788048,-0.013367,0.009583,-0.991577,0.327725,0.432366,0.098015,45,273,577,4368
1644153632.837039,-0.013672,0.008606,-0.991272,0.312458,0.447634,-0.130992,48,279,576,4400
1644153632.888244,-0.015686,0.009033,-0.991943,0.251389,0.356031,-0.069924,52,263,577,4368
1644153632.98167,-0.012329,0.009888,-0.991211,0.419328,0.386565,0.067481,46,266,569,4400
1644153633.030035,-0.012817,0.006531,-0.991943,0.205588,0.493435,-0.130992,54,270,572,4368
1644153633.080482,-0.012573,0.010376,-0.99231,0.35826,0.508702,-0.039389,61,273,577,4400
1644153633.126784,-0.015381,0.008362,-0.992859,0.35826,0.279695,-0.192061,54,273,568,4432
1644153633.175159,-0.014099,0.009216,-0.994446,0.312458,0.508702,-0.054656,58,271,578,4320
1644153633.223553,-0.011902,0.006836,-0.992432,0.312458,0.386565,-0.115725,53,269,566,4400
1644153633.271917,-0.009705,0.006897,-0.98999,0.373527,0.447634,-0.14626,41,269,569,4416
1644153633.32032,-0.012817,0.007629,-0.993347,0.404061,0.340763,-0.115725,58,262,571,4416
1644153633.3687,-0.012878,0.008972,-0.990479,0.419328,0.462901,-0.069924,48,262,583,4432
1644153633.417097,-0.011047,0.006042,-0.992126,0.281924,0.432366,0.082748,49,265,575,4368
1644153633.465483,-0.012146,0.01001,-0.992981,0.266656,0.478168,-0.054656,54,270,565,4368
1644153633.513854,-0.010925,0.006531,-0.991394,0.342992,0.508702,-0.161527,48,269,576,4432
1644153633.562282,-0.011475,0.009644,-0.992065,0.159786,0.447634,-0.115725,58,264,573,4320
1644153633.610649,-0.010925,0.007141,-0.990784,0.342992,0.493435,-0.176794,46,276,559,4400
1644153633.659019,-0.010254,0.009338,-0.992249,0.236122,0.203359,-0.14626,58,274,576,4368
1644153633.70741,-0.013062,0.01001,-0.994507,0.327725,0.417099,0.006412,54,273,575,4432
1644153633.755763,-0.015686,0.005676,-0.99176,0.449863,0.340763,-0.130992,55,271,571,4368
1644153633.815688,-0.014771,0.008484,-0.992554,0.281924,0.356031,-0.176794,62,262,569,4304
1644153633.853401,-0.013245,0.008301,-0.993347,0.281924,0.371298,-0.069924,53,276,580,4400
1644153633.901032,-0.012695,0.006653,-0.993225,0.312458,0.523969,-0.085191,60,274,569,4432
1644153633.949974,-0.012878,0.006531,-0.993713,0.342992,0.447634,-0.039389,43,266,569,4352
1644153633.999694,-0.014465,0.007629,-0.991699,0.113985,0.386565,-0.069924,58,281,573,4432
1644153634.063189,-0.013123,0.007141,-0.993164,0.190321,0.371298,-0.024122,48,271,571,4352
1644153634.142867,-0.01178,0.008667,-0.993103,0.404061,0.432366,-0.100458,42,273,563,4400
1644153634.191256,-0.013733,0.008484,-0.993286,0.419328,0.462901,-0.039389,55,266,571,4416
1644153634.239606,-0.011963,0.008057,-0.994202,0.266656,0.417099,-0.069924,59,268,577,4368
1644153634.287999,-0.010071,0.009705,-0.99231,0.404061,0.340763,-0.176794,42,277,575,4368
1644153634.336407,-0.013611,0.008972,-0.993774,0.312458,0.600305,0.006412,42,280,577,4400
1644153634.3848,-0.010986,0.00824,-0.991272,0.236122,0.63084,-0.054656,48,279,571,4400
1644153634.433159,-0.011902,0.007507,-0.992065,0.388794,0.386565,-0.130992,53,271,576,4368
1644153634.481602,-0.01239,0.007935,-0.992004,0.342992,0.294962,-0.054656,54,275,563,4400
1644153634.529964,-0.00946,0.009949,-0.98938,0.419328,0.508702,-0.085191,51,279,573,4400
1644153634.578315,-0.014587,0.008728,-0.99408,0.251389,0.371298,-0.024122,48,271,578,4432
1644153634.626708,-0.012695,0.01001,-0.99292,0.342992,0.493435,-0.024122,42,270,575,4400
1644153634.675183,-0.012024,0.007263,-0.99353,0.129252,0.340763,-0.115725,49,275,568,4400
1644153634.723552,-0.012207,0.008362,-0.991089,0.342992,0.447634,0.021679,54,270,570,4368
1644153634.771932,-0.012817,0.010071,-0.992188,0.297191,0.386565,-0.115725,51,271,566,4352
1644153634.820349,-0.011108,0.009705,-0.990662,0.373527,0.508702,-0.054656,46,281,576,4464
1644153634.868665,-0.014343,0.008423,-0.993713,0.220855,0.523969,-0.008855,46,274,573,4368
1644153634.917087,-0.012451,0.005005,-0.992859,0.327725,0.554504,-0.100458,42,270,575,4320
1644153634.965471,-0.013733,0.010254,-0.994446,0.281924,0.401832,-0.207328,52,270,582,4368
1644153635.06356,-0.010498,0.007446,-0.991638,0.251389,0.356031,-0.069924,58,266,571,4400
1644153635.110627,-0.013,0.006348,-0.992004,0.281924,0.539237,-0.008855,45,270,570,4400
1644153635.158976,-0.011292,0.006836,-0.993713,0.297191,0.508702,-0.14626,48,274,564,4368
1644153635.207376,-0.009644,0.006653,-0.992249,0.220855,0.493435,-0.115725,52,273,572,4432
1644153635.255744,-0.01062,0.008057,-0.99353,0.327725,0.539237,-0.085191,42,268,568,4368
1644153635.304135,-0.013428,0.007324,-0.994019,0.190321,0.432366,-0.024122,52,275,575,4432
1644153635.352569,-0.013428,0.009216,-0.991943,0.312458,0.432366,-0.069924,54,273,570,4368
1644153635.400957,-0.012878,0.00769,-0.992615,0.434595,0.462901,-0.161527,55,271,566,4368
1644153635.449417,-0.011902,0.009827,-0.991577,0.205588,0.432366,-0.115725,47,280,568,4352
1644153635.497604,-0.014771,0.006287,-0.993713,0.281924,0.325496,-0.222595,59,273,570,4432
1644153635.546049,-0.01001,0.009521,-0.994812,0.175053,0.508702,-0.130992,54,275,575,4400
1644153635.594421,-0.011597,0.007019,-0.993713,0.388794,0.585038,-0.100458,48,279,576,4320
1644153635.642808,-0.014343,0.009277,-0.991943,0.236122,0.462901,-0.130992,46,276,576,4368
1644153635.691127,-0.011658,0.008057,-0.99292,0.236122,0.310229,0.021679,43,276,571,4368
1644153635.739588,-0.012817,0.007996,-0.992126,0.251389,0.417099,-0.207328,48,271,571,4368
1644153635.787959,-0.01355,0.007507,-0.990051,0.175053,0.569771,-0.14626,49,268,582,4432
1644153635.836354,-0.013367,0.010986,-0.991882,0.236122,0.554504,-0.054656,51,271,562,4368
1644153635.884873,-0.011108,0.007874,-0.992798,0.266656,0.432366,-0.130992,49,273,572,4416
1644153635.93313,-0.010559,0.009277,-0.994263,0.297191,0.432366,0.036947,49,270,565,4368
1644153635.981497,-0.013245,0.012146,-0.992126,0.327725,0.478168,-0.14626,45,270,584,4400
1644153636.031055,-0.013489,0.007874,-0.991089,0.266656,0.447634,-0.024122,48,276,571,4400
1644153636.079739,-0.01178,0.005432,-0.991821,0.297191,0.401832,-0.176794,55,276,573,4416
1644153636.175098,-0.013794,0.00946,-0.992371,0.236122,0.554504,-0.207328,43,274,571,4368
1644153636.223463,-0.012024,0.007019,-0.992493,0.404061,0.325496,-0.222595,52,268,575,4368
1644153636.271839,-0.014465,0.007874,-0.993286,0.251389,0.356031,-0.115725,53,269,564,4416
1644153636.320185,-0.012695,0.005005,-0.992493,0.404061,0.462901,-0.161527,51,276,578,4352
1644153636.368629,-0.013794,0.008362,-0.993835,0.159786,0.386565,-0.25313,54,273,575,4368
1644153636.416982,-0.012329,0.007935,-0.993286,0.129252,0.462901,-0.14626,55,276,573,4352
1644153636.465413,-0.014526,0.007141,-0.993408,0.419328,0.417099,-0.192061,60,271,566,4400
1644153636.513765,-0.016235,0.006775,-0.991455,0.281924,0.325496,-0.161527,52,277,568,4352
1644153636.562182,-0.011475,0.007751,-0.993286,0.327725,0.432366,0.021679,48,269,576,4368
1644153636.61056,-0.012024,0.007141,-0.991699,0.251389,0.585038,-0.176794,51,276,571,4320
1644153636.65892,-0.013,0.007141,-0.993286,0.35826,0.340763,-0.176794,49,280,565,4400
1644153636.707332,-0.013,0.008911,-0.990784,0.35826,0.371298,-0.069924,48,269,571,4400
1644153636.755691,-0.01355,0.009277,-0.991028,0.251389,0.508702,-0.054656,42,280,575,4432
1644153636.804107,-0.010559,0.008301,-0.992737,0.190321,0.523969,-0.176794,51,276,569,4368
1644153636.852486,-0.01123,0.009155,-0.993591,0.342992,0.356031,0.021679,57,282,575,4400
1644153636.900875,-0.010559,0.007507,-0.993042,0.159786,0.432366,-0.024122,48,279,569,4368
1644153636.949184,-0.013245,0.01123,-0.991516,0.404061,0.340763,-0.161527,47,273,575,4368
1644153636.998577,-0.012634,0.007751,-0.992737,0.251389,0.523969,-0.115725,55,276,583,4400
1644153637.068837,-0.011414,0.007202,-0.99292,0.373527,0.523969,0.036947,54,273,572,4368
1644153637.112777,-0.010986,0.007202,-0.989136,0.327725,0.172824,0.021679,46,269,571,4368
1644153637.143166,-0.011475,0.006958,-0.991699,0.190321,0.325496,-0.115725,54,273,575,4400
1644153637.193468,-0.01178,0.01062,-0.99408,0.297191,0.310229,-0.085191,55,276,576,4400
1644153637.287925,-0.012085,0.009766,-0.992615,0.236122,0.386565,-0.024122,51,281,571,4432
1644153637.336253,-0.013123,0.009521,-0.991394,0.327725,0.325496,-0.085191,62,271,578,4368
1644153637.384647,-0.013184,0.00946,-0.993835,0.159786,0.386565,-0.115725,49,275,577,4400
1644153637.43304,-0.011169,0.010498,-0.994019,0.190321,0.356031,-0.115725,58,274,569,4368
1644153637.481452,-0.01355,0.006836,-0.993469,0.220855,0.417099,-0.25313,53,279,571,4400
1644153637.529814,-0.012146,0.009338,-0.992249,0.46513,0.447634,-0.222595,52,273,570,4416
1644153637.578189,-0.012512,0.008667,-0.991577,0.281924,0.325496,0.067481,45,270,568,4368
1644153637.626611,-0.010864,0.008606,-0.993835,0.297191,0.508702,0.021679,46,266,564,4320
1644153637.675055,-0.012695,0.009338,-0.993774,0.251389,0.523969,-0.085191,47,273,572,4400
1644153637.723382,-0.012939,0.010681,-0.99231,0.220855,0.371298,-0.039389,51,271,576,4352
1644153637.771743,-0.014038,0.00885,-0.992615,0.236122,0.386565,-0.039389,42,268,572,4400
1644153637.820173,-0.014282,0.007629,-0.992859,0.113985,0.371298,0.082748,39,269,569,4352
1644153637.868581,-0.01178,0.008301,-0.991089,0.220855,0.417099,-0.024122,42,275,575,4416
1644153637.916906,-0.011719,0.010193,-0.996094,0.220855,0.478168,-0.176794,48,274,576,4320
1644153637.965349,-0.012634,0.008667,-0.990295,0.266656,0.447634,-0.130992,51,269,569,4400
1644153638.013679,-0.012695,0.009216,-0.993347,0.022382,0.585038,0.021679,55,269,576,4368
1644153638.110508,-0.012817,0.012939,-0.993713,0.373527,0.523969,-0.161527,58,279,576,4368
1644153638.158872,-0.009888,0.006897,-0.990906,0.190321,0.371298,0.082748,60,271,569,4368
1644153638.207207,-0.013489,0.007019,-0.992004,0.266656,0.569771,-0.085191,45,270,565,4368
1644153638.255618,-0.011963,0.010925,-0.993286,0.190321,0.356031,-0.100458,52,275,563,4368
1644153638.304022,-0.014099,0.007568,-0.992859,0.312458,0.539237,-0.130992,49,277,572,4368
1644153638.352394,-0.012024,0.010376,-0.994202,0.281924,0.508702,-0.100458,47,277,570,4400
1644153638.400824,-0.013062,0.010193,-0.991882,0.205588,0.401832,0.006412,49,273,572,4352
1644153638.449161,-0.011902,0.009583,-0.9953,0.251389,0.371298,-0.115725,43,269,564,4320
1644153638.497553,-0.013611,0.008301,-0.994629,0.327725,0.432366,-0.054656,47,273,568,4368
1644153638.545926,-0.015137,0.008057,-0.991272,0.251389,0.508702,-0.115725,47,270,570,4416
1644153638.594339,-0.015198,0.006348,-0.993042,0.205588,0.493435,0.098015,58,274,569,4400
1644153638.64276,-0.01123,0.007812,-0.991882,0.220855,0.401832,-0.161527,54,280,575,4352
1644153638.691075,-0.014526,0.009827,-0.992004,0.220855,0.386565,-0.115725,52,270,579,4368
1644153638.739455,-0.010742,0.007019,-0.993164,0.251389,0.386565,-0.222595,62,281,573,4400
1644153638.787849,-0.011353,0.008911,-0.992859,0.281924,0.462901,-0.115725,54,265,579,4352
1644153638.836194,-0.011047,0.00769,-0.993408,0.190321,0.493435,-0.130992,53,279,587,4368
1644153638.884803,-0.014771,0.007751,-0.992004,0.220855,0.478168,0.052214,52,277,579,4368
1644153638.933001,-0.015686,0.009094,-0.991516,0.312458,0.508702,0.006412,54,280,572,4368
1644153638.98136,-0.015198,0.005005,-0.990906,0.098718,0.432366,-0.024122,48,266,583,4432
1644153639.029716,-0.012268,0.008057,-0.992554,0.144519,0.478168,-0.039389,49,273,575,4368
1644153639.081532,-0.012878,0.01001,-0.990234,0.175053,0.478168,-0.039389,51,271,578,4352
1644153639.128354,-0.012756,0.008911,-0.992737,0.312458,0.386565,-0.054656,57,277,563,4416
1644153639.176035,-0.012207,0.009277,-0.992371,0.220855,0.523969,-0.115725,43,274,576,4496
1644153639.271653,-0.011475,0.011292,-0.992249,0.281924,0.508702,-0.115725,42,268,582,4368
1644153639.32006,-0.013367,0.01062,-0.993835,0.327725,0.325496,-0.176794,49,273,572,4352
1644153639.368417,-0.012756,0.009033,-0.994202,0.35826,0.569771,-0.14626,55,264,573,4352
1644153639.416854,-0.011963,0.00885,-0.992554,0.159786,0.356031,-0.085191,57,275,568,4352
1644153639.46533,-0.01239,0.01178,-0.993042,0.281924,0.417099,-0.069924,48,269,578,4400
1644153639.513647,-0.009949,0.006714,-0.992859,0.419328,0.554504,0.052214,42,270,575,4400
1644153639.562013,-0.012939,0.009583,-0.993286,0.312458,0.600305,-0.176794,59,273,579,4416
1644153639.610437,-0.013306,0.008667,-0.992004,0.434595,0.523969,-0.161527,47,265,561,4368
1644153639.65881,-0.012573,0.006836,-0.992981,0.388794,0.386565,-0.085191,54,265,575,4368
1644153639.707218,-0.012512,0.009949,-0.99469,0.159786,0.371298,-0.100458,48,269,569,4304
1644153639.755571,-0.011414,0.007751,-0.989319,0.251389,0.478168,-0.100458,55,266,569,4368
1644153639.803998,-0.014343,0.008911,-0.99231,0.266656,0.432366,-0.14626,45,273,568,4432
1644153639.852362,-0.012756,0.009216,-0.994324,0.327725,0.600305,-0.085191,48,276,578,4352
1644153639.900742,-0.012634,0.007507,-0.992981,0.449863,0.417099,-0.069924,62,283,569,4400
1644153639.94913,-0.014343,0.00769,-0.992004,0.449863,0.462901,-0.14626,59,270,572,4352
1644153639.99749,-0.014038,0.007812,-0.989685,0.205588,0.432366,-0.115725,55,274,573,4400
1644153640.060455,-0.014099,0.010803,-0.991577,0.251389,0.493435,-0.161527,47,273,577,4400
1644153640.09425,-0.010681,0.009949,-0.991272,0.373527,0.478168,-0.069924,59,277,568,4368
1644153640.19135,-0.011169,0.009888,-0.992615,0.297191,0.508702,-0.085191,57,265,575,4400
1644153640.240246,-0.012451,0.008789,-0.99054,0.251389,0.371298,-0.008855,46,271,576,4416
1644153640.287777,-0.014771,0.009521,-0.992126,0.236122,0.478168,0.082748,57,280,579,4304
1644153640.33613,-0.012451,0.009827,-0.992676,0.175053,0.63084,-0.100458,60,269,566,4400
1644153640.384529,-0.013123,0.009399,-0.993103,0.266656,0.432366,-0.130992,45,270,572,4400
1644153640.432956,-0.013489,0.006348,-0.991882,0.281924,0.569771,-0.069924,49,287,577,4368
1644153640.481319,-0.012329,0.008545,-0.992126,0.220855,0.417099,-0.054656,48,264,569,4320
1644153640.529687,-0.012451,0.009521,-0.991638,0.327725,0.417099,-0.115725,52,280,565,4368
1644153640.578083,-0.008972,0.009155,-0.993591,0.46513,0.432366,-0.130992,52,273,575,4352
1644153640.626477,-0.010864,0.009705,-0.991699,0.205588,0.493435,0.006412,48,271,566,4400
1644153640.674868,-0.009644,0.00708,-0.991638,0.281924,0.325496,-0.100458,51,279,571,4400
1644153640.723267,-0.010315,0.010132,-0.989929,0.312458,0.340763,-0.161527,52,263,570,4432
1644153640.771635,-0.014587,0.009338,-0.992126,0.327725,0.493435,-0.14626,54,277,570,4368
1644153640.820036,-0.012695,0.006348,-0.992065,0.205588,0.294962,-0.069924,49,273,582,4432
1644153640.868416,-0.013794,0.008179,-0.993713,0.281924,0.356031,-0.161527,57,268,570,4304
1644153640.916793,-0.010376,0.007812,-0.992615,0.251389,0.447634,-0.161527,49,273,570,4400
1644153640.965225,-0.010559,0.007202,-0.993835,0.297191,0.371298,-0.085191,55,279,576,4352
1644153641.063555,-0.01062,0.00708,-0.994507,0.129252,0.493435,-0.008855,53,269,578,4368
1644153641.110314,-0.012512,0.009644,-0.99176,0.404061,0.432366,0.021679,48,274,564,4464
1644153641.158704,-0.013,0.00769,-0.992126,0.281924,0.432366,-0.039389,58,266,573,4400
1644153641.207125,-0.010681,0.010376,-0.991516,0.098718,0.371298,-0.039389,53,274,580,4352
1644153641.255496,-0.011475,0.007507,-0.992676,0.342992,0.539237,-0.176794,46,264,566,4368
1644153641.303908,-0.012573,0.011963,-0.994629,0.220855,0.569771,-0.085191,46,269,569,4368
1644153641.352463,-0.014465,0.007385,-0.993042,0.098718,0.325496,-0.130992,55,271,576,4368
1644153641.400639,-0.013,0.010437,-0.993896,0.35826,0.462901,-0.207328,53,266,566,4352
1644153641.449069,-0.01593,0.009399,-0.989136,0.373527,0.661374,-0.161527,60,271,566,4352
1644153641.497416,-0.013611,0.008545,-0.992981,0.159786,0.523969,-0.130992,45,275,570,4432
1644153641.545843,-0.012085,0.010193,-0.992676,0.35826,0.508702,-0.039389,53,274,566,4368
1644153641.594217,-0.012756,0.008057,-0.992188,0.220855,0.432366,-0.115725,43,269,576,4368
1644153641.642619,-0.012939,0.008118,-0.993591,0.251389,0.493435,-0.039389,49,277,568,4416
1644153641.690996,-0.012573,0.00769,-0.992554,0.220855,0.539237,-0.14626,51,271,571,4400
1644153641.739383,-0.010803,0.008179,-0.991882,0.220855,0.264427,-0.192061,51,279,566,4352
1644153641.788532,-0.014282,0.009216,-0.991699,0.098718,0.401832,-0.192061,41,276,571,4368
1644153641.836443,-0.015564,0.006775,-0.991272,0.266656,0.447634,-0.069924,38,275,579,4320
1644153641.885797,-0.014832,0.005859,-0.992065,0.113985,0.432366,-0.176794,47,275,572,4352
1644153641.932871,-0.010437,0.009521,-0.990601,0.297191,0.401832,-0.008855,49,268,577,4464
1644153641.981212,-0.013123,0.011169,-0.994141,0.220855,0.447634,-0.207328,48,274,564,4400
1644153642.031147,-0.010925,0.007996,-0.992432,0.312458,0.554504,0.021679,55,264,571,4368
1644153642.080498,-0.012207,0.006531,-0.993042,0.312458,0.462901,-0.14626,51,279,566,4400
1644153642.174786,-0.015015,0.007874,-0.991699,0.281924,0.310229,-0.222595,46,266,571,4416
1644153642.223167,-0.011902,0.009155,-0.991089,0.281924,0.401832,-0.161527,49,273,568,4368
1644153642.271544,-0.014038,0.004028,-0.994507,0.190321,0.432366,-0.161527,54,273,561,4368
1644153642.319907,-0.011963,0.008118,-0.994873,0.419328,0.356031,-0.039389,49,277,570,4352
1644153642.368328,-0.012146,0.00824,-0.992371,0.342992,0.325496,-0.008855,54,277,568,4368
1644153642.416671,-0.010925,0.009644,-0.990662,0.220855,0.417099,0.052214,59,270,575,4432
1644153642.465141,-0.011841,0.008789,-0.991394,0.144519,0.340763,-0.054656,49,280,565,4400
1644153642.513475,-0.011963,0.012024,-0.99115,0.236122,0.569771,-0.100458,54,265,570,4400
1644153642.561872,-0.012512,0.007996,-0.991638,0.327725,0.386565,-0.192061,55,264,578,4400
1644153642.610302,-0.013977,0.005798,-0.99585,0.281924,0.264427,-0.024122,55,262,564,4368
1644153642.658705,-0.013611,0.007446,-0.991577,0.266656,0.401832,-0.039389,47,273,568,4432
1644153642.70709,-0.010986,0.008972,-0.992615,0.35826,0.493435,-0.024122,52,275,568,4320
1644153642.755446,-0.010742,0.009155,-0.991821,0.35826,0.386565,0.098015,53,266,573,4432
1644153642.803834,-0.012939,0.00946,-0.992737,0.159786,0.401832,-0.130992,47,265,572,4368
1644153642.852232,-0.010864,0.004883,-0.991638,0.236122,0.401832,0.006412,45,265,570,4368
1644153642.900609,-0.012146,0.010681,-0.995178,0.327725,0.539237,-0.069924,52,265,570,4416
1644153642.949001,-0.012329,0.007446,-0.992371,0.205588,0.478168,-0.039389,51,262,571,4400
1644153642.997378,-0.01123,0.007507,-0.990723,0.205588,0.325496,0.021679,46,276,566,4304
1644153643.060434,-0.011353,0.008972,-0.991638,0.220855,0.523969,-0.024122,49,275,579,4432
1644153643.094277,-0.010986,0.011414,-0.992554,0.220855,0.493435,-0.085191,51,274,571,4352
1644153643.143346,-0.00946,0.007568,-0.988708,0.220855,0.462901,-0.054656,54,268,577,4320
1644153643.193537,-0.011475,0.007629,-0.990356,0.312458,0.356031,-0.069924,57,275,577,4464
1644153643.287616,-0.009644,0.007629,-0.991272,0.113985,0.508702,-0.130992,46,266,564,4416
1644153643.336023,-0.011841,0.010071,-0.991333,0.327725,0.554504,-0.100458,55,271,578,4416
1644153643.393066,-0.01593,0.010498,-0.990601,0.236122,0.447634,-0.176794,41,269,573,4368
1644153643.433349,-0.010986,0.011536,-0.993652,0.205588,0.462901,-0.039389,54,287,575,4352
1644153643.48117,-0.012451,0.011475,-0.991699,0.327725,0.356031,-0.085191,54,273,563,4368
1644153643.529582,-0.008667,0.012085,-0.992249,0.297191,0.569771,-0.192061,48,264,580,4416
1644153643.577958,-0.013855,0.009277,-0.990967,0.251389,0.63084,-0.100458,52,273,570,4432
1644153643.626368,-0.012817,0.010681,-0.993652,0.312458,0.585038,-0.14626,65,276,569,4368
1644153643.674769,-0.012939,0.009094,-0.992981,0.297191,0.279695,-0.115725,59,273,579,4368
1644153643.723132,-0.013428,0.007263,-0.991821,0.251389,0.508702,-0.100458,51,274,564,4368
1644153643.77151,-0.010559,0.00708,-0.992493,0.449863,0.493435,-0.024122,52,277,565,4400
1644153643.819916,-0.012512,0.008362,-0.994934,0.08345,0.432366,-0.085191,45,273,568,4368
1644153643.868288,-0.013428,0.007507,-0.990662,0.327725,0.432366,-0.008855,42,270,582,4368
1644153643.916672,-0.01355,0.008972,-0.993958,0.175053,0.493435,-0.008855,52,280,572,4352
1644153643.965141,-0.012512,0.010193,-0.992798,0.281924,0.462901,-0.054656,40,270,579,4464
1644153644.064495,-0.01593,0.006653,-0.990906,0.251389,0.462901,-0.039389,48,266,571,4432
1644153644.110195,-0.013489,0.008972,-0.991943,0.281924,0.386565,-0.100458,41,276,564,4368
1644153644.15859,-0.012878,0.005005,-0.994568,0.251389,0.462901,-0.130992,47,268,568,4320
1644153644.206973,-0.013306,0.009888,-0.993164,0.129252,0.523969,-0.161527,49,265,575,4400
1644153644.25532,-0.013306,0.007629,-0.991821,0.266656,0.340763,-0.085191,48,274,571,4416
1644153644.303732,-0.01416,0.010437,-0.992859,0.388794,0.432366,-0.115725,47,268,572,4400
1644153644.352165,-0.010559,0.011475,-0.992554,0.46513,0.401832,-0.100458,51,259,576,4416
1644153644.400491,-0.011108,0.009888,-0.991516,0.236122,0.585038,0.067481,55,266,573,4368
1644153644.448921,-0.014282,0.008179,-0.994141,0.144519,0.600305,-0.207328,52,280,561,4320
1644153644.497262,-0.011597,0.00769,-0.993103,0.236122,0.401832,-0.008855,49,273,577,4368
1644153644.545692,-0.013184,0.010071,-0.99408,0.266656,0.401832,-0.024122,45,273,572,4352
1644153644.594036,-0.013123,0.009705,-0.990967,0.281924,0.478168,0.006412,49,273,582,4400
1644153644.64246,-0.012024,0.009033,-0.99353,0.175053,0.462901,-0.100458,57,273,579,4416
1644153644.690826,-0.012329,0.011536,-0.993896,0.342992,0.462901,-0.207328,49,273,572,4416
1644153644.739225,-0.010132,0.01001,-0.993286,0.312458,0.508702,-0.25313,49,285,582,4320
1644153644.787589,-0.007141,0.008545,-0.992188,0.236122,0.386565,-0.085191,42,270,572,4368
1644153644.836054,-0.012939,0.010681,-0.992554,0.190321,0.264427,0.006412,46,279,585,4432
1644153644.884425,-0.010803,0.00885,-0.992676,0.113985,0.478168,0.006412,51,266,573,4352
1644153644.932774,-0.014832,0.010437,-0.991882,0.388794,0.417099,-0.176794,45,263,570,4416
1644153644.98485,-0.013977,0.009521,-0.992981,0.129252,0.264427,-0.008855,54,273,570,4368
1644153645.038328,-0.01062,0.010376,-0.992554,0.281924,0.493435,0.021679,57,282,570,4400
1644153645.126272,-0.008911,0.007996,-0.993225,0.129252,0.462901,-0.130992,51,279,578,4400
1644153645.174678,-0.010559,0.009705,-0.990295,0.281924,0.493435,-0.100458,60,271,564,4416
1644153645.223065,-0.014587,0.010559,-0.99115,0.175053,0.508702,-0.069924,51,274,569,4368
1644153645.271418,-0.012451,0.004578,-0.993469,0.220855,0.539237,0.006412,47,273,568,4368
1644153645.319811,-0.014038,0.00708,-0.991272,0.312458,0.371298,0.036947,51,269,573,4368
1644153645.368205,-0.009766,0.008545,-0.99054,0.480397,0.401832,-0.222595,41,269,573,4432
1644153645.416589,-0.012512,0.01062,-0.993896,0.342992,0.401832,-0.085191,46,269,583,4320
1644153645.465049,-0.014404,0.010437,-0.992065,0.251389,0.401832,-0.039389,51,276,578,4304
1644153645.513366,-0.011963,0.010559,-0.991882,0.312458,0.432366,-0.100458,49,273,570,4400
1644153645.561769,-0.012268,0.009094,-0.992432,0.205588,0.493435,-0.069924,48,262,573,4432
1644153645.610125,-0.013,0.007935,-0.990601,0.266656,0.447634,-0.207328,47,263,577,4368
1644153645.658545,-0.013367,0.007263,-0.993469,0.251389,0.462901,-0.008855,46,276,573,4416
1644153645.70692,-0.012512,0.010254,-0.992188,0.312458,0.401832,-0.207328,62,274,578,4368
1644153645.75532,-0.011597,0.008301,-0.989197,0.175053,0.539237,-0.054656,42,282,568,4320
1644153645.803724,-0.013428,0.008057,-0.990906,0.327725,0.447634,-0.14626,52,268,568,4400
1644153645.852075,-0.010132,0.009583,-0.989685,0.281924,0.371298,0.052214,46,269,569,4432
1644153645.900465,-0.010681,0.008972,-0.993042,0.342992,0.508702,-0.115725,51,269,576,4400
1644153645.948839,-0.010986,0.005127,-0.992065,0.281924,0.447634,-0.024122,48,271,576,4432
1644153645.997213,-0.015442,0.006592,-0.991272,0.342992,0.386565,-0.054656,53,266,564,4416
1644153646.059196,-0.01416,0.008118,-0.991089,0.327725,0.356031,-0.069924,59,268,570,4304
1644153646.094027,-0.012756,0.010193,-0.992432,0.495664,0.325496,0.036947,45,275,563,4416
1644153646.144261,-0.010986,0.008301,-0.991455,0.190321,0.539237,-0.039389,48,271,571,4368
1644153646.191289,-0.010742,0.00946,-0.991577,0.205588,0.432366,-0.054656,48,274,571,4368
1644153646.287511,-0.014099,0.010071,-0.993347,0.449863,0.493435,-0.176794,64,270,565,4368
1644153646.33588,-0.010315,0.009033,-0.991821,0.46513,0.294962,-0.14626,64,277,570,4416
1644153646.384315,-0.013428,0.005859,-0.991638,0.434595,0.508702,-0.069924,51,269,576,4368
1644153646.432667,-0.014526,0.007446,-0.993164,0.266656,0.340763,-0.008855,53,269,571,4432
1644153646.481083,-0.011047,0.00592,-0.994263,0.205588,0.310229,-0.115725,49,273,577,4352
1644153646.529449,-0.013855,0.007629,-0.991821,0.266656,0.356031,-0.008855,47,265,572,4400
1644153646.577898,-0.010437,0.008667,-0.991577,0.342992,0.447634,-0.024122,55,281,576,4400
1644153646.626216,-0.01123,0.010315,-0.98999,0.220855,0.310229,0.021679,49,270,572,4320
1644153646.674632,-0.011597,0.005798,-0.993042,0.281924,0.401832,-0.039389,46,271,576,4432
1644153646.72301,-0.014648,0.010925,-0.99408,0.113985,0.432366,0.006412,57,282,575,4352
1644153646.771365,-0.013,0.00769,-0.990784,0.297191,0.554504,-0.161527,52,263,568,4432
1644153646.819764,-0.013855,0.010315,-0.991089,0.175053,0.462901,0.036947,47,270,572,4400
1644153646.868187,-0.010498,0.009583,-0.992554,0.297191,0.310229,-0.222595,48,269,566,4368
1644153646.916587,-0.010071,0.009399,-0.993713,0.220855,0.523969,-0.024122,66,270,586,4352
1644153646.964927,-0.01001,0.010254,-0.992126,0.113985,0.508702,-0.100458,48,283,569,4432
1644153647.013314,-0.012512,0.008667,-0.990906,0.373527,0.401832,-0.085191,61,280,570,4432
1644153647.078784,-0.010986,0.008362,-0.991333,0.35826,0.371298,-0.069924,43,271,571,4320
1644153647.110133,-0.01178,0.009216,-0.993408,0.35826,0.539237,-0.115725,47,273,575,4368
1644153647.158438,-0.013855,0.008911,-0.99054,0.572,0.478168,-0.100458,51,276,569,4464
1644153647.206844,-0.011475,0.011414,-0.991333,0.159786,0.371298,-0.100458,48,276,566,4464
1644153647.25529,-0.014648,0.008484,-0.994507,0.327725,0.432366,-0.069924,48,271,578,4368
1644153647.304943,-0.011902,0.010437,-0.993042,0.236122,0.539237,-0.024122,54,263,570,4368
1644153647.352681,-0.010193,0.006714,-0.996338,0.342992,0.554504,-0.039389,43,281,569,4432
1644153647.448746,-0.012207,0.007629,-0.992432,0.373527,0.539237,-0.14626,41,271,569,4432
1644153647.497128,-0.014587,0.011353,-0.992615,0.251389,0.310229,-0.176794,48,291,566,4400
1644153647.545513,-0.010681,0.006226,-0.988464,0.266656,0.432366,-0.069924,54,282,570,4320
1644153647.593912,-0.015564,0.007141,-0.990417,0.342992,0.447634,-0.176794,52,280,568,4400
1644153647.642311,-0.013184,0.005676,-0.993225,0.236122,0.432366,-0.161527,45,270,568,4304
1644153647.690669,-0.012024,0.008545,-0.993469,0.205588,0.432366,-0.237863,58,266,571,4352
1644153647.739089,-0.009888,0.009155,-0.992676,0.220855,0.462901,-0.008855,55,276,569,4368
1644153647.787487,-0.011353,0.007507,-0.994934,0.190321,0.600305,-0.100458,54,273,572,4400
1644153647.835817,-0.011963,0.00769,-0.991028,0.08345,0.218626,-0.130992,47,260,575,4464
1644153647.884258,-0.010986,0.006897,-0.990051,0.312458,0.508702,-0.069924,58,271,571,4352
1644153647.932676,-0.011719,0.007446,-0.991516,0.327725,0.340763,0.189618,47,263,565,4400
1644153647.981026,-0.010864,0.008484,-0.994812,0.251389,0.554504,-0.039389,52,275,572,4368
1644153648.029437,-0.010681,0.009277,-0.989502,0.281924,0.523969,-0.222595,55,274,576,4352
1644153648.085231,-0.012817,0.008057,-0.99408,0.327725,0.462901,-0.054656,60,274,576,4400
1644153648.126358,-0.013184,0.010376,-0.993591,0.220855,0.462901,-0.085191,46,274,578,4432
1644153648.177022,-0.011047,0.009155,-0.991516,0.236122,0.340763,0.021679,41,269,569,4368
1644153648.222947,-0.010681,0.009399,-0.992371,0.220855,0.325496,-0.085191,58,271,571,4368
1644153648.273158,-0.014832,0.010437,-0.991455,0.205588,0.462901,-0.100458,48,271,571,4352
1644153648.320868,-0.013306,0.009949,-0.991882,0.388794,0.310229,0.021679,55,269,578,4368
1644153648.416435,-0.009766,0.007812,-0.99115,0.342992,0.386565,-0.115725,43,274,571,4400
1644153648.464876,-0.013,0.010254,-0.992737,0.281924,0.310229,-0.130992,48,274,562,4352
1644153648.513197,-0.012146,0.009521,-0.990906,0.236122,0.356031,-0.161527,46,274,571,4368
1644153648.561603,-0.01062,0.005249,-0.989441,0.251389,0.478168,-0.054656,52,263,568,4368
1644153648.610005,-0.012512,0.006165,-0.994934,0.266656,0.539237,-0.054656,48,266,564,4352
1644153648.658377,-0.012085,0.008423,-0.992859,0.312458,0.371298,-0.054656,65,262,580,4368
1644153648.706757,-0.011658,0.00708,-0.99585,0.175053,0.493435,-0.008855,49,268,577,4368
1644153648.755222,-0.01355,0.006042,-0.992126,0.236122,0.432366,-0.14626,51,269,571,4432
1644153648.803566,-0.013306,0.007141,-0.994324,0.236122,0.417099,-0.268397,45,275,565,4416
1644153648.851955,-0.011902,0.010376,-0.992493,0.281924,0.340763,-0.085191,45,282,577,4256
1644153648.900388,-0.013489,0.011719,-0.98877,0.297191,0.615573,0.006412,52,277,572,4432
1644153648.948727,-0.012024,0.007507,-0.992004,0.419328,0.447634,-0.054656,55,262,566,4368
1644153648.997137,-0.014465,0.00647,-0.991638,0.113985,0.325496,-0.14626,43,281,564,4464
1644153649.062522,-0.012695,0.011047,-0.993042,0.312458,0.386565,-0.161527,59,273,582,4368
1644153649.093872,-0.010376,0.007507,-0.994507,0.220855,0.310229,-0.283664,48,276,573,4368
1644153649.142264,-0.011414,0.011658,-0.994019,0.312458,0.523969,-0.115725,59,268,568,4432
1644153649.190598,-0.012512,0.008667,-0.992737,0.175053,0.386565,-0.161527,53,274,573,4416
1644153649.239073,-0.01178,0.008606,-0.992432,0.220855,0.478168,-0.039389,49,275,572,4368
1644153649.287406,-0.010071,0.010132,-0.993164,0.251389,0.386565,-0.14626,61,277,570,4400
1644153649.335822,-0.01123,0.009094,-0.992126,0.205588,0.356031,-0.100458,51,269,578,4432
1644153649.38421,-0.013367,0.008362,-0.993225,0.220855,0.371298,-0.130992,45,275,568,4304
1644153649.434467,-0.010986,0.008118,-0.994141,0.159786,0.462901,-0.054656,41,276,580,4352
1644153649.482007,-0.015381,0.008606,-0.992065,0.266656,0.432366,-0.130992,38,260,577,4368
1644153649.577754,-0.013306,0.008667,-0.991577,0.327725,0.432366,-0.024122,49,268,568,4400
1644153649.626123,-0.011475,0.00824,-0.989929,0.236122,0.401832,-0.115725,47,268,565,4432
1644153649.674538,-0.01123,0.005981,-0.993713,0.236122,0.432366,0.067481,55,274,573,4432
1644153649.723001,-0.009399,0.008911,-0.993774,0.190321,0.447634,-0.085191,59,280,570,4432
1644153649.771796,-0.013977,0.010681,-0.992676,0.266656,0.523969,0.006412,49,280,579,4432
1644153649.819629,-0.011047,0.007812,-0.993469,0.266656,0.462901,-0.085191,49,275,572,4352
1644153649.868043,-0.013184,0.007568,-0.991638,0.342992,0.401832,-0.161527,55,271,566,4400
1644153649.916399,-0.014587,0.007996,-0.989685,0.404061,0.447634,-0.207328,45,273,575,4400
1644153649.964809,-0.011475,0.010254,-0.990723,0.144519,0.264427,0.052214,45,265,568,4368
1644153650.013162,-0.013123,0.007629,-0.99054,0.236122,0.294962,0.036947,57,277,568,4416
1644153650.062985,-0.01355,0.009705,-0.992371,0.068183,0.447634,-0.161527,48,279,576,4400
1644153650.109941,-0.013672,0.007141,-0.993286,0.297191,0.401832,-0.069924,46,271,576,4368
1644153650.158342,-0.013611,0.009399,-0.992249,0.205588,0.401832,-0.130992,49,270,568,4400
1644153650.206734,-0.012512,0.006897,-0.996216,0.312458,0.585038,-0.192061,48,264,576,4464
1644153650.255184,-0.013367,0.009094,-0.992676,0.327725,0.340763,-0.085191,59,268,568,4368
1644153650.303485,-0.014954,0.007202,-0.995239,0.175053,0.417099,-0.085191,53,274,576,4368
1644153650.35194,-0.013123,0.006165,-0.991272,0.327725,0.462901,0.021679,47,268,570,4368
1644153650.40023,-0.011597,0.006287,-0.994446,0.480397,0.462901,-0.085191,46,276,564,4416
1644153650.448657,-0.013123,0.008728,-0.993164,0.205588,0.478168,-0.100458,55,271,583,4400
1644153650.497024,-0.015259,0.008179,-0.99408,0.175053,0.554504,-0.192061,51,274,580,4400
1644153650.545464,-0.012634,0.007568,-0.992004,0.312458,0.478168,-0.085191,47,273,570,4432
1644153650.596095,-0.013611,0.008179,-0.99469,0.266656,0.462901,-0.100458,47,275,575,4400
1644153650.64329,-0.011658,0.006531,-0.991516,0.144519,0.432366,-0.039389,54,270,582,4400
1644153650.738975,-0.013367,0.007751,-0.991638,0.404061,0.24916,-0.14626,52,263,563,4400
1644153650.787375,-0.011658,0.008423,-0.994202,0.220855,0.325496,-0.237863,41,262,578,4352
1644153650.835728,-0.013977,0.008728,-0.991516,0.342992,0.493435,-0.192061,51,276,566,4400
1644153650.88416,-0.012024,0.008484,-0.992981,0.404061,0.478168,-0.25313,43,274,569,4432
1644153650.932557,-0.013367,0.008545,-0.992554,0.281924,0.462901,-0.130992,51,271,571,4368
1644153650.980953,-0.014771,0.008179,-0.99292,0.297191,0.371298,-0.222595,51,276,564,4432
1644153651.029276,-0.013733,0.006958,-0.994751,0.144519,0.432366,-0.115725,47,277,572,4400
1644153651.078425,-0.009216,0.009277,-0.993591,0.251389,0.340763,-0.054656,34,281,578,4368
1644153651.126025,-0.012634,0.007935,-0.993347,0.190321,0.478168,-0.115725,49,275,572,4368
1644153651.174442,-0.015381,0.00647,-0.993835,0.342992,0.462901,-0.176794,45,275,570,4400
1644153651.222807,-0.011841,0.009277,-0.992676,0.236122,0.478168,-0.024122,42,275,584,4464
1644153651.271171,-0.013611,0.005798,-0.994507,0.251389,0.569771,-0.054656,48,274,571,4352
1644153651.319617,-0.011963,0.007385,-0.994202,0.205588,0.401832,0.021679,58,279,571,4432
1644153651.368534,-0.010803,0.008667,-0.991638,0.449863,0.371298,-0.054656,60,279,576,4400
1644153651.416321,-0.012695,0.007507,-0.991699,0.098718,0.371298,-0.161527,51,269,576,4400
1644153651.46475,-0.014587,0.008606,-0.992065,0.144519,0.356031,-0.024122,47,277,572,4416
1644153651.51311,-0.014587,0.011047,-0.995178,0.35826,0.462901,-0.130992,47,273,568,4432
1644153651.561482,-0.010498,0.008789,-0.992371,0.404061,0.539237,-0.130992,54,270,570,4400
1644153651.609877,-0.011475,0.005432,-0.992615,0.220855,0.462901,-0.115725,48,274,569,4352
1644153651.658261,-0.013123,0.007385,-0.991821,0.388794,0.432366,-0.054656,54,265,565,4432
1644153651.706624,-0.012512,0.009521,-0.992065,0.297191,0.447634,-0.14626,52,270,565,4320
1644153651.756415,-0.011292,0.008972,-0.990601,0.205588,0.447634,-0.161527,57,268,568,4368
1644153651.804074,-0.013123,0.00708,-0.995117,0.297191,0.371298,0.006412,60,269,573,4368
1644153651.90022,-0.009705,0.008789,-0.993347,0.35826,0.401832,-0.054656,48,269,564,4400
1644153651.948591,-0.011597,0.00708,-0.992371,0.35826,0.432366,0.067481,58,266,566,4368
1644153651.997023,-0.012512,0.007874,-0.994568,0.281924,0.462901,-0.115725,55,262,571,4368
1644153652.059811,-0.010132,0.007507,-0.993652,0.35826,0.447634,-0.176794,52,263,572,4416
1644153652.093739,-0.01178,0.007874,-0.99353,0.404061,0.569771,-0.039389,49,263,572,4400
1644153652.14219,-0.009216,0.008606,-0.993408,0.404061,0.462901,-0.115725,58,276,573,4400
1644153652.190575,-0.012451,0.009216,-0.993713,0.297191,0.417099,0.082748,47,275,572,4368
1644153652.238909,-0.013,0.009155,-0.992493,0.388794,0.401832,-0.100458,45,268,572,4400
1644153652.287302,-0.012329,0.006958,-0.997009,0.220855,0.569771,-0.192061,42,275,572,4368
1644153652.335682,-0.012451,0.010498,-0.990662,0.175053,0.325496,-0.176794,61,270,577,4368
1644153652.384116,-0.012573,0.008301,-0.993347,0.281924,0.432366,-0.008855,41,269,576,4400
1644153652.432465,-0.013794,0.00647,-0.991638,0.266656,0.417099,-0.14626,47,273,570,4432
1644153652.480871,-0.013367,0.007629,-0.995361,0.251389,0.386565,-0.100458,52,265,570,4464
1644153652.529214,-0.011292,0.007385,-0.990601,0.144519,0.417099,-0.085191,53,276,566,4352
1644153652.577631,-0.007446,0.00769,-0.992615,0.312458,0.417099,0.006412,52,282,572,4400
1644153652.625991,-0.007874,0.008362,-0.993469,0.35826,0.417099,-0.14626,51,266,571,4368
1644153652.675674,-0.013306,0.007385,-0.993164,0.327725,0.401832,-0.024122,51,279,569,4352
1644153652.722801,-0.01178,0.01001,-0.994385,0.190321,0.279695,-0.14626,53,271,573,4352
1644153652.819585,-0.014221,0.010437,-0.991272,0.144519,0.279695,-0.176794,55,262,576,4432
1644153652.867949,-0.013428,0.008667,-0.991699,0.129252,0.447634,-0.14626,43,269,566,4400
1644153652.916362,-0.012207,0.008606,-0.991699,0.266656,0.417099,-0.069924,48,283,571,4400
1644153652.964822,-0.012451,0.007629,-0.989319,0.404061,0.356031,-0.130992,48,276,576,4400
1644153653.013059,-0.012451,0.00885,-0.991882,0.342992,0.432366,-0.100458,51,274,569,4432
1644153653.063758,-0.011902,0.00769,-0.989868,0.220855,0.447634,-0.008855,54,263,577,4400
1644153653.109863,-0.015442,0.007507,-0.990967,0.281924,0.432366,-0.100458,46,264,578,4352
1644153653.158204,-0.010437,0.006897,-0.991882,0.144519,0.508702,-0.115725,48,279,573,4368
1644153653.206602,-0.013367,0.008057,-0.992004,0.297191,0.462901,-0.207328,52,270,575,4432
1644153653.255045,-0.013,0.007019,-0.996643,0.404061,0.585038,-0.054656,51,266,576,4352
1644153653.303377,-0.012817,0.009033,-0.995117,0.220855,0.401832,-0.130992,58,266,573,4368
1644153653.351732,-0.013245,0.006897,-0.991516,0.220855,0.401832,-0.085191,54,273,563,4352
1644153653.400162,-0.012817,0.008423,-0.992249,0.236122,0.279695,-0.085191,46,269,569,4352
1644153653.448547,-0.017395,0.009338,-0.993225,0.190321,0.356031,0.082748,60,266,571,4320
1644153653.496899,-0.01355,0.00531,-0.993652,0.373527,0.325496,-0.024122,53,269,578,4368
1644153653.545298,-0.011353,0.007935,-0.991089,0.281924,0.508702,-0.130992,45,275,579,4432
1644153653.593663,-0.013306,0.006836,-0.992126,0.35826,0.600305,0.067481,52,277,575,4368
1644153653.642047,-0.013306,0.008484,-0.993103,0.35826,0.478168,-0.14626,53,264,573,4352
1644153653.690482,-0.014099,0.008057,-0.990173,0.281924,0.462901,-0.115725,43,269,569,4400
1644153653.738865,-0.014343,0.00647,-0.993774,0.419328,0.539237,-0.069924,46,271,566,4352
1644153653.787874,-0.011414,0.007141,-0.992554,0.35826,0.386565,-0.115725,49,273,570,4368
1644153653.838753,-0.011902,0.009277,-0.990112,0.236122,0.462901,-0.161527,49,277,577,4368
1644153653.88576,-0.014954,0.005615,-0.994385,0.251389,0.432366,-0.069924,49,258,575,4432
1644153653.98075,-0.011169,0.006653,-0.992188,0.251389,0.340763,0.006412,57,268,575,4400
1644153654.02916,-0.012634,0.005676,-0.994141,0.220855,0.417099,-0.039389,42,270,579,4320
1644153654.078662,-0.010925,0.008972,-0.990784,0.35826,0.478168,0.006412,54,263,575,4368
1644153654.125966,-0.012817,0.008972,-0.99292,0.113985,0.417099,-0.25313,55,274,569,4416
1644153654.174287,-0.011902,0.010742,-0.992004,0.236122,0.340763,-0.054656,53,276,571,4320
1644153654.222711,-0.014465,0.006714,-0.991516,0.159786,0.325496,-0.14626,47,275,572,4464
1644153654.271044,-0.013,0.007996,-0.993713,0.35826,0.462901,-0.192061,47,265,563,4320
1644153654.319468,-0.012756,0.013245,-0.993713,0.205588,0.432366,-0.024122,58,269,566,4400
1644153654.367862,-0.013428,0.007019,-0.994324,0.266656,0.432366,-0.100458,47,282,561,4368
1644153654.416265,-0.013306,0.008545,-0.993103,0.190321,0.478168,-0.039389,53,276,569,4368
1644153654.46464,-0.011963,0.00824,-0.996277,0.266656,0.371298,-0.024122,47,280,570,4400
1644153654.513037,-0.013306,0.007507,-0.9953,0.236122,0.508702,-0.14626,52,265,577,4400
1644153654.561368,-0.010864,0.008484,-0.992371,0.297191,0.310229,-0.115725,54,268,572,4432
1644153654.609779,-0.011658,0.008789,-0.989868,0.113985,0.279695,-0.100458,57,285,579,4432
1644153654.658155,-0.012695,0.00531,-0.991394,0.312458,0.493435,-0.054656,57,280,568,4304
1644153654.706537,-0.013,0.006714,-0.993286,0.190321,0.417099,0.021679,45,282,575,4416
1644153654.754914,-0.017395,0.00592,-0.993835,0.144519,0.340763,-0.039389,57,275,575,4464
1644153654.803299,-0.014221,0.008362,-0.991882,0.220855,0.386565,-0.054656,40,270,579,4352
1644153654.851712,-0.014893,0.008484,-0.990234,0.281924,0.462901,-0.14626,54,275,572,4400
1644153654.900109,-0.015625,0.008728,-0.991516,0.113985,0.340763,-0.100458,48,274,569,4352
1644153654.949225,-0.014465,0.006775,-0.991333,0.327725,0.401832,0.098015,53,271,571,4416
1644153654.999389,-0.012451,0.006042,-0.994934,0.220855,0.417099,0.021679,52,285,577,4416
1644153655.093668,-0.01178,0.008057,-0.993774,0.251389,0.371298,-0.069924,59,268,575,4416
1644153655.142063,-0.010986,0.010742,-0.992126,0.205588,0.508702,-0.222595,51,271,576,4368
1644153655.190361,-0.012756,0.007629,-0.993896,0.388794,0.478168,-0.039389,55,279,562,4368
1644153655.238742,-0.012024,0.008362,-0.992065,0.129252,0.478168,-0.192061,46,279,571,4320
1644153655.287129,-0.013123,0.007568,-0.993408,0.297191,0.417099,-0.161527,52,270,570,4352
1644153655.335555,-0.014404,0.009644,-0.990723,0.388794,0.310229,-0.130992,46,279,569,4352
1644153655.38395,-0.012756,0.006714,-0.992798,0.342992,0.386565,-0.100458,54,282,572,4352
1644153655.432328,-0.012329,0.009766,-0.989746,0.251389,0.188092,-0.069924,47,268,565,4368
1644153655.480685,-0.014221,0.010559,-0.991516,0.220855,0.371298,-0.161527,43,266,573,4400
1644153655.529068,-0.012878,0.010193,-0.992981,0.281924,0.356031,-0.268397,60,281,566,4368
1644153655.577488,-0.012817,0.008911,-0.99353,0.129252,0.356031,-0.085191,42,282,565,4368
1644153655.625878,-0.011108,0.01062,-0.991394,0.236122,0.569771,0.082748,45,273,556,4432
1644153655.674254,-0.011719,0.008911,-0.99408,0.144519,0.371298,-0.054656,53,274,571,4368
1644153655.72265,-0.009399,0.008057,-0.992859,0.251389,0.386565,-0.176794,61,275,575,4368
1644153655.771024,-0.011414,0.008179,-0.990784,0.129252,0.493435,-0.024122,48,271,571,4368
1644153655.819418,-0.012573,0.010925,-0.990234,0.098718,0.432366,-0.100458,51,271,573,4400
1644153655.867869,-0.010925,0.009827,-0.992981,0.266656,0.294962,-0.054656,48,271,571,4432
1644153655.916207,-0.012024,0.010559,-0.992981,0.236122,0.432366,-0.024122,48,271,571,4432
1644153655.964629,-0.012878,0.008423,-0.994263,0.052916,0.279695,-0.085191,52,277,572,4368
1644153656.012993,-0.011841,0.011047,-0.990051,0.205588,0.523969,-0.069924,46,271,569,4416
1644153656.110314,-0.010254,0.006836,-0.993103,0.129252,0.585038,-0.069924,53,266,573,4480
1644153656.158194,-0.015808,0.00885,-0.99353,0.297191,0.264427,-0.115725,49,263,577,4416
1644153656.206443,-0.01239,0.00885,-0.994751,0.08345,0.340763,-0.14626,54,285,582,4352
1644153656.254866,-0.013,0.009216,-0.992798,0.129252,0.508702,-0.085191,52,280,572,4432
1644153656.303263,-0.012939,0.007812,-0.991455,0.297191,0.508702,-0.024122,52,277,568,4368
1644153656.351629,-0.011475,0.010498,-0.993347,0.281924,0.569771,-0.100458,52,273,563,4368
1644153656.400023,-0.012451,0.007019,-0.989197,0.297191,0.371298,-0.115725,49,277,577,4400
1644153656.448405,-0.013977,0.008179,-0.992798,0.297191,0.417099,-0.237863,54,277,570,4304
1644153656.496751,-0.011169,0.011963,-0.994751,0.113985,0.462901,-0.024122,47,263,572,4432
1644153656.545179,-0.011047,0.008423,-0.989746,0.297191,0.371298,-0.192061,40,273,565,4368
1644153656.593547,-0.011902,0.011414,-0.990295,0.251389,0.432366,0.021679,47,268,565,4432
1644153656.641929,-0.012756,0.009583,-0.992371,0.251389,0.508702,-0.008855,62,271,573,4320
1644153656.6903,-0.008972,0.007019,-0.991821,0.327725,0.356031,-0.069924,43,281,569,4368
1644153656.738697,-0.010742,0.00946,-0.990845,0.297191,0.539237,0.067481,60,274,566,4400
1644153656.788051,-0.013,0.007935,-0.993591,0.236122,0.447634,-0.14626,42,275,572,4368
1644153656.835677,-0.010376,0.009888,-0.993042,0.251389,0.447634,-0.100458,55,274,564,4368
1644153656.932276,-0.010925,0.009705,-0.9953,0.342992,0.401832,-0.069924,49,263,568,4368
1644153656.980666,-0.012939,0.011292,-0.990906,0.190321,0.401832,0.021679,61,277,575,4400
1644153657.029061,-0.01239,0.009705,-0.989868,0.46513,0.264427,-0.054656,49,280,575,4368
1644153657.077389,-0.013611,0.009338,-0.991699,0.281924,0.340763,-0.115725,51,266,576,4464
1644153657.125812,-0.015747,0.010376,-0.993042,0.236122,0.371298,-0.14626,59,275,570,4400
1644153657.174228,-0.01123,0.010132,-0.990662,0.144519,0.508702,-0.115725,49,273,570,4432
1644153657.222614,-0.010864,0.010742,-0.991516,0.205588,0.600305,-0.024122,51,264,569,4368
1644153657.270963,-0.013916,0.008179,-0.992615,0.342992,0.417099,-0.069924,57,270,579,4432
1644153657.319375,-0.011536,0.006714,-0.99292,0.205588,0.447634,0.067481,53,283,569,4432
1644153657.367772,-0.01532,0.010132,-0.990112,0.220855,0.417099,-0.14626,49,280,577,4416
1644153657.416154,-0.013428,0.009583,-0.993225,0.35826,0.432366,-0.100458,58,281,573,4368
1644153657.464535,-0.011353,0.010193,-0.992004,0.281924,0.340763,-0.115725,47,277,577,4352
1644153657.51294,-0.008301,0.008118,-0.990906,0.205588,0.386565,-0.115725,53,276,573,4368
1644153657.561343,-0.01355,0.009277,-0.992004,0.297191,0.264427,-0.054656,53,279,576,4432
1644153657.609686,-0.01062,0.007324,-0.992371,0.175053,0.310229,-0.085191,49,273,579,4368
1644153657.658078,-0.013794,0.011597,-0.992188,0.236122,0.417099,-0.14626,53,274,562,4368
1644153657.706629,-0.012329,0.01062,-0.99176,0.251389,0.539237,-0.100458,55,271,566,4432
1644153657.755194,-0.010254,0.009094,-0.991821,0.144519,0.325496,-0.115725,53,271,573,4320
1644153657.803168,-0.012634,0.006836,-0.994568,0.159786,0.432366,0.006412,46,274,573,4320
1644153657.851552,-0.014526,0.004272,-0.991699,0.35826,0.432366,-0.161527,49,273,579,4400
1644153657.900026,-0.011597,0.008667,-0.992065,0.297191,0.371298,-0.14626,52,273,577,4368
1644153657.950087,-0.012207,0.009644,-0.992004,0.281924,0.386565,-0.115725,59,275,563,4400
1644153657.997782,-0.011719,0.008606,-0.992493,0.251389,0.447634,0.006412,46,262,564,4416
1644153658.093457,-0.011841,0.009521,-0.991821,0.495664,0.386565,-0.14626,46,266,576,4368
1644153658.141892,-0.011658,0.007629,-0.992981,0.342992,0.310229,-0.054656,48,271,573,4368
1644153658.190227,-0.009888,0.01062,-0.99054,0.159786,0.417099,-0.100458,47,263,568,4400
1644153658.238608,-0.009216,0.006958,-0.993469,0.312458,0.386565,-0.161527,45,273,572,4400
1644153658.28702,-0.011536,0.008789,-0.991699,0.113985,0.340763,-0.207328,48,279,566,4368
1644153658.335424,-0.012207,0.011353,-0.992188,0.297191,0.264427,-0.115725,48,274,562,4368
1644153658.383768,-0.010742,0.011108,-0.991943,0.266656,0.523969,-0.069924,49,277,565,4368
1644153658.432202,-0.012085,0.00708,-0.991333,0.220855,0.508702,-0.024122,47,273,572,4400
1644153658.480589,-0.010803,0.010986,-0.992065,0.266656,0.478168,-0.130992,51,266,564,4368
1644153658.529022,-0.013184,0.007568,-0.990051,0.373527,0.417099,-0.069924,51,269,564,4304
1644153658.577393,-0.012939,0.00769,-0.99176,0.266656,0.401832,-0.207328,60,269,566,4256
1644153658.625824,-0.013,0.006836,-0.993103,0.312458,0.447634,0.036947,43,266,573,4400
1644153658.674172,-0.011597,0.009094,-0.992981,0.388794,0.493435,-0.130992,54,273,575,4432
1644153658.72257,-0.01355,0.00946,-0.992249,0.205588,0.462901,-0.085191,41,274,576,4464
1644153658.770938,-0.014404,0.007996,-0.988281,0.236122,0.432366,-0.176794,54,268,565,4464
1644153658.819317,-0.013794,0.008118,-0.990967,0.281924,0.523969,-0.130992,48,276,576,4368
1644153658.867698,-0.012268,0.011841,-0.993347,0.281924,0.417099,-0.054656,58,276,564,4432
1644153658.916081,-0.010742,0.008606,-0.990723,0.281924,0.432366,-0.192061,52,277,565,4368
1644153658.96446,-0.009094,0.010376,-0.992432,0.190321,0.478168,-0.161527,57,263,565,4368
1644153659.061955,-0.009949,0.008362,-0.991882,0.159786,0.386565,-0.192061,47,265,565,4432
1644153659.109636,-0.011536,0.007751,-0.992493,0.404061,0.447634,-0.130992,46,262,569,4368
1644153659.157978,-0.012207,0.007263,-0.992737,0.266656,0.417099,-0.008855,46,259,578,4368
1644153659.206341,-0.013733,0.010254,-0.994141,0.251389,0.523969,-0.039389,47,270,572,4368
1644153659.254749,-0.01239,0.011047,-0.994568,0.342992,0.493435,-0.130992,51,266,578,4400
1644153659.30321,-0.009399,0.008545,-0.989868,0.35826,0.432366,0.006412,52,273,563,4432
1644153659.351554,-0.011841,0.00708,-0.990417,0.297191,0.523969,-0.207328,47,277,584,4400
1644153659.399857,-0.011658,0.010681,-0.993835,0.159786,0.294962,-0.192061,53,286,566,4400
1644153659.448285,-0.010742,0.00885,-0.992065,0.205588,0.401832,-0.100458,46,269,569,4368
1644153659.496639,-0.013489,0.011169,-0.993164,0.144519,0.447634,-0.268397,49,260,568,4368
1644153659.545116,-0.012939,0.012634,-0.990295,0.327725,0.432366,-0.054656,43,276,557,4416
1644153659.593423,-0.012329,0.011108,-0.987366,0.342992,0.508702,-0.130992,41,274,576,4368
1644153659.641806,-0.012207,0.012146,-0.993225,0.510931,0.493435,-0.115725,41,283,569,4416
1644153659.690219,-0.011963,0.007507,-0.991028,0.159786,0.386565,-0.039389,40,265,570,4400
1644153659.738606,-0.011963,0.009949,-0.993103,0.037649,0.401832,-0.039389,49,270,568,4400
1644153659.786987,-0.010437,0.009766,-0.993591,0.46513,0.371298,-0.283664,53,266,576,4416
1644153659.835596,-0.013,0.009949,-0.990845,0.251389,0.371298,-0.024122,49,280,577,4416
1644153659.883767,-0.012146,0.008301,-0.990784,0.08345,0.478168,0.036947,49,277,575,4352
1644153659.93218,-0.014832,0.007751,-0.99054,0.251389,0.417099,-0.024122,52,268,568,4368
1644153659.980547,-0.013306,0.00708,-0.992615,0.327725,0.386565,-0.054656,48,271,573,4352
1644153660.030129,-0.011658,0.012634,-0.993591,0.297191,0.478168,-0.176794,55,266,571,4368
1644153660.085195,-0.012573,0.00531,-0.987976,0.266656,0.340763,-0.176794,53,274,573,4400
1644153660.174075,-0.012939,0.007446,-0.990051,0.266656,0.432366,-0.008855,45,277,570,4368
1644153660.22244,-0.011841,0.009277,-0.990723,0.404061,0.310229,-0.14626,43,266,578,4432
1644153660.270776,-0.01178,0.009277,-0.991333,0.236122,0.401832,-0.161527,45,273,568,4352
1644153660.319187,-0.012573,0.008911,-0.99115,0.297191,0.462901,-0.039389,43,279,569,4432
1644153660.367584,-0.009766,0.011292,-0.992554,0.281924,0.554504,-0.192061,55,259,571,4432
1644153660.415978,-0.012329,0.011597,-0.991028,0.251389,0.386565,-0.115725,52,280,568,4368
1644153660.464446,-0.012817,0.009949,-0.991699,0.159786,0.401832,-0.207328,53,264,571,4368
1644153660.512752,-0.013062,0.010986,-0.994751,0.327725,0.310229,-0.039389,52,268,570,4432
1644153660.561162,-0.012146,0.008606,-0.989624,0.404061,0.493435,-0.100458,51,279,578,4400
1644153660.609507,-0.012512,0.007324,-0.992065,0.205588,0.401832,-0.130992,48,274,569,4400
1644153660.657932,-0.011108,0.010925,-0.993103,0.220855,0.340763,-0.14626,42,273,568,4368
1644153660.706311,-0.012512,0.009399,-0.992188,0.388794,0.447634,-0.115725,47,277,568,4432
1644153660.754696,-0.013672,0.007874,-0.99231,0.266656,0.386565,-0.085191,53,269,571,4368
1644153660.803069,-0.012146,0.006592,-0.992126,0.266656,0.478168,-0.069924,54,275,572,4432
1644153660.851471,-0.013428,0.007812,-0.989746,0.312458,0.371298,0.006412,57,268,572,4320
1644153660.899938,-0.012024,0.01001,-0.995422,0.251389,0.661374,-0.024122,46,274,571,4352
1644153660.948204,-0.011658,0.007812,-0.993347,0.266656,0.371298,0.067481,43,279,585,4368
1644153660.996599,-0.012451,0.007202,-0.993164,0.281924,0.417099,-0.237863,46,264,573,4416
1644153661.058326,-0.007385,0.006836,-0.99231,0.159786,0.462901,-0.085191,46,271,576,4432
1644153661.093372,-0.01001,0.012024,-0.990417,0.266656,0.508702,-0.085191,52,275,577,4432
1644153661.141757,-0.012756,0.008362,-0.98938,0.159786,0.325496,-0.085191,47,268,570,4400
1644153661.191391,-0.009888,0.009216,-0.990723,0.388794,0.539237,-0.054656,48,266,571,4432
1644153661.239095,-0.010986,0.008118,-0.994019,0.190321,0.310229,-0.039389,55,274,573,4464
1644153661.335266,-0.009277,0.007385,-0.990662,0.373527,0.325496,-0.176794,34,269,580,4400
1644153661.38367,-0.012451,0.010071,-0.993164,0.312458,0.508702,-0.054656,52,265,579,4400
1644153661.432048,-0.014465,0.008362,-0.992554,0.236122,0.371298,-0.207328,52,270,570,4400
1644153661.480464,-0.010193,0.009033,-0.994385,0.251389,0.523969,-0.14626,53,269,566,4400
1644153661.528784,-0.014343,0.009399,-0.996582,0.220855,0.294962,-0.100458,36,281,573,4400
1644153661.577237,-0.012207,0.007996,-0.991516,0.327725,0.294962,-0.222595,49,265,572,4368
1644153661.625592,-0.012939,0.007996,-0.990479,0.281924,0.478168,-0.100458,57,273,565,4320
1644153661.674045,-0.010376,0.00708,-0.991638,0.190321,0.417099,-0.008855,49,265,577,4432
1644153661.722447,-0.012268,0.007202,-0.992554,0.266656,0.447634,-0.161527,53,276,571,4400
1644153661.770799,-0.014954,0.009338,-0.992676,0.220855,0.401832,-0.115725,59,263,577,4432
1644153661.819166,-0.011719,0.00885,-0.994446,0.251389,0.493435,-0.008855,62,276,578,4352
1644153661.867561,-0.011169,0.006897,-0.994019,0.190321,0.478168,-0.100458,51,269,566,4400
1644153661.915938,-0.01123,0.008057,-0.990784,0.175053,0.386565,-0.100458,45,280,572,4368
1644153661.964377,-0.013123,0.007812,-0.992126,0.266656,0.493435,0.113282,49,260,565,4368
1644153662.012734,-0.009094,0.010681,-0.991577,0.159786,0.478168,-0.069924,47,270,582,4400
1644153662.071776,-0.011536,0.009766,-0.992737,0.205588,0.401832,-0.130992,54,282,579,4368
1644153662.109482,-0.011841,0.01001,-0.989319,0.08345,0.478168,-0.085191,42,273,575,4368
1644153662.157831,-0.012085,0.010071,-0.993042,0.327725,0.310229,-0.161527,58,279,576,4400
1644153662.206247,-0.01001,0.00885,-0.993286,0.327725,0.508702,-0.085191,55,274,576,4400
1644153662.254681,-0.011536,0.009338,-0.992798,0.342992,0.585038,-0.008855,51,276,564,4432
1644153662.302968,-0.013733,0.007996,-0.990662,0.266656,0.432366,-0.069924,48,269,576,4368
1644153662.352865,-0.011353,0.00885,-0.994141,0.251389,0.401832,-0.115725,47,277,575,4432
1644153662.455593,-0.010681,0.007507,-0.990479,0.220855,0.340763,-0.069924,45,268,579,4416
1644153662.496736,-0.010193,0.00824,-0.991638,0.113985,0.462901,-0.008855,49,280,577,4352
1644153662.54488,-0.011841,0.010193,-0.99115,0.266656,0.432366,-0.314198,57,268,575,4416
1644153662.593302,-0.013062,0.007446,-0.992126,0.098718,0.432366,-0.085191,43,274,576,4400
1644153662.641687,-0.01355,0.010925,-0.990173,0.312458,0.371298,-0.100458,52,280,572,4368
1644153662.690094,-0.012146,0.00885,-0.990662,0.251389,0.432366,-0.176794,49,273,572,4400
1644153662.738477,-0.012329,0.009827,-0.99292,0.205588,0.554504,-0.115725,47,270,570,4432
1644153662.78682,-0.014038,0.00824,-0.99231,0.480397,0.554504,-0.176794,49,280,575,4432
1644153662.835226,-0.011719,0.009888,-0.990479,0.251389,0.462901,-0.085191,45,270,572,4432
1644153662.883687,-0.009644,0.00946,-0.993774,0.175053,0.462901,-0.222595,52,270,565,4432
1644153662.932045,-0.012878,0.00708,-0.98938,0.373527,0.493435,-0.039389,46,274,573,4400
1644153662.980396,-0.014038,0.008118,-0.992737,0.159786,0.462901,0.067481,51,281,569,4400
1644153663.02881,-0.012207,0.006775,-0.991577,0.251389,0.294962,-0.115725,47,273,565,4400
1644153663.080346,-0.012146,0.010986,-0.991211,0.205588,0.462901,-0.008855,54,273,582,4400
1644153663.125575,-0.013855,0.009888,-0.993225,0.159786,0.417099,-0.054656,49,270,577,4368
1644153663.175255,-0.012817,0.00769,-0.989868,-0.02342,0.600305,-0.176794,62,274,566,4432
1644153663.222387,-0.011108,0.010742,-0.991577,0.205588,0.417099,-0.161527,48,269,580,4400
1644153663.319139,-0.014282,0.009521,-0.992554,0.342992,0.340763,-0.222595,52,275,565,4416
1644153663.367522,-0.011353,0.00647,-0.988281,0.113985,0.554504,-0.008855,58,283,571,4368
1644153663.415845,-0.011902,0.010315,-0.99176,0.266656,0.523969,-0.115725,38,270,577,4432
1644153663.464291,-0.010681,0.005676,-0.989685,0.175053,0.462901,-0.008855,40,277,563,4368
1644153663.512731,-0.013123,0.009094,-0.991455,0.08345,0.508702,-0.14626,57,263,565,4368
1644153663.561062,-0.011353,0.009888,-0.99353,0.388794,0.493435,-0.115725,46,274,569,4400
1644153663.609664,-0.014954,0.010193,-0.991638,0.205588,0.554504,-0.115725,49,268,565,4368
1644153663.657848,-0.012756,0.011047,-0.992004,0.35826,0.432366,-0.176794,45,268,572,4320
1644153663.706199,-0.008667,0.006897,-0.993164,0.327725,0.432366,-0.085191,49,277,577,4288
1644153663.754646,-0.010742,0.009827,-0.993103,0.434595,0.447634,-0.024122,38,275,565,4432
1644153663.803,-0.012146,0.008606,-0.990479,0.327725,0.493435,-0.008855,49,285,575,4432
1644153663.851342,-0.010742,0.00769,-0.988708,0.068183,0.356031,-0.25313,49,275,568,4432
1644153663.899734,-0.013672,0.007385,-0.993896,0.220855,0.401832,-0.069924,48,271,569,4368
1644153663.948214,-0.013245,0.007874,-0.99292,0.129252,0.401832,-0.085191,42,268,575,4400
1644153663.996466,-0.013184,0.010925,-0.995789,0.266656,0.371298,0.082748,62,279,576,4400
1644153664.057579,-0.010254,0.008362,-0.993164,0.342992,0.371298,0.006412,51,266,576,4368
1644153664.093288,-0.015808,0.00885,-0.991516,0.327725,0.432366,-0.069924,43,276,576,4400
1644153664.141672,-0.010437,0.011108,-0.992126,0.251389,0.478168,-0.085191,46,274,576,4416
1644153664.19005,-0.012878,0.008789,-0.991943,0.175053,0.401832,-0.130992,48,276,578,4416
1644153664.238425,-0.009094,0.009277,-0.989746,0.037649,0.417099,0.036947,43,274,564,4416
1644153664.287841,-0.012634,0.00885,-0.991577,0.35826,0.325496,-0.192061,57,270,565,4432
1644153664.337928,-0.012207,0.00885,-0.995667,0.373527,0.417099,-0.115725,51,269,564,4432
1644153664.432046,-0.012756,0.008118,-0.99231,0.251389,0.432366,-0.207328,51,269,573,4352
1644153664.480349,-0.010864,0.007629,-0.99292,0.312458,0.340763,-0.100458,45,280,575,4304
1644153664.52874,-0.011475,0.006714,-0.991943,0.205588,0.615573,-0.024122,47,270,575,4400
1644153664.577138,-0.011169,0.00946,-0.992432,0.327725,0.432366,-0.14626,53,276,569,4400
1644153664.625496,-0.010254,0.008179,-0.990662,0.220855,0.432366,0.006412,53,279,559,4368
1644153664.673921,-0.010437,0.009277,-0.991455,0.205588,0.325496,-0.130992,54,273,565,4368
1644153664.722296,-0.013794,0.009155,-0.990601,0.312458,0.432366,-0.054656,53,269,564,4400
1644153664.770692,-0.011108,0.008972,-0.991699,0.312458,0.218626,-0.14626,53,274,564,4352
1644153664.819409,-0.01178,0.007874,-0.991028,0.251389,0.523969,-0.25313,45,273,575,4432
1644153664.86741,-0.009094,0.009155,-0.992798,0.175053,0.462901,-0.222595,52,268,570,4400
1644153664.915851,-0.011475,0.009216,-0.994019,0.449863,0.218626,-0.085191,43,274,573,4432
1644153664.964216,-0.012268,0.010376,-0.99176,0.327725,0.340763,-0.069924,51,279,571,4304
1644153665.012614,-0.010498,0.010193,-0.991455,0.190321,0.417099,-0.115725,57,270,575,4352
1644153665.061686,-0.015076,0.010925,-0.992432,0.35826,0.508702,-0.130992,48,281,573,4400
1644153665.109334,-0.014038,0.009094,-0.992371,0.480397,0.356031,0.052214,48,274,573,4368
1644153665.157724,-0.013306,0.007019,-0.991089,0.266656,0.63084,-0.161527,45,275,570,4368
1644153665.206093,-0.013672,0.008301,-0.992798,0.205588,0.508702,-0.14626,52,277,572,4352
1644153665.254474,-0.012329,0.009521,-0.990051,0.35826,0.417099,-0.115725,55,264,573,4432
1644153665.302863,-0.014465,0.009888,-0.99231,0.236122,0.356031,0.006412,54,270,570,4432
1644153665.35126,-0.009521,0.008179,-0.99115,0.312458,0.432366,0.021679,59,270,575,4368
1644153665.399799,-0.013062,0.010437,-0.99115,0.205588,0.356031,-0.14626,45,270,565,4400
1644153665.450085,-0.013245,0.00708,-0.993469,0.35826,0.386565,-0.085191,48,269,576,4368
1644153665.497936,-0.012329,0.011658,-0.992615,0.175053,0.371298,-0.161527,46,274,585,4368
1644153665.593188,-0.010254,0.006165,-0.991577,0.342992,0.554504,0.098015,39,279,573,4432
1644153665.64155,-0.01416,0.010376,-0.993347,0.175053,0.462901,-0.115725,49,275,572,4432
1644153665.689964,-0.015015,0.009155,-0.99115,0.068183,0.432366,-0.085191,49,260,570,4400
1644153665.738316,-0.009949,0.008789,-0.992065,0.266656,0.401832,-0.085191,58,266,569,4368
1644153665.786721,-0.010498,0.010986,-0.99176,0.419328,0.432366,-0.130992,54,280,561,4352
1644153665.835184,-0.009033,0.008484,-0.991211,0.312458,0.401832,-0.039389,49,260,565,4400
1644153665.88354,-0.01123,0.006775,-0.994324,0.098718,0.478168,-0.085191,48,271,576,4320
1644153665.931925,-0.013123,0.008789,-0.994263,0.281924,0.340763,-0.192061,52,277,558,4368
1644153665.980327,-0.009766,0.009827,-0.989014,0.236122,0.432366,-0.192061,60,276,569,4320
1644153666.028718,-0.015625,0.00647,-0.991394,0.159786,0.401832,-0.207328,45,277,568,4432
1644153666.07901,-0.013245,0.008484,-0.991882,0.236122,0.432366,0.021679,51,264,583,4368
1644153666.125463,-0.012634,0.007324,-0.992371,0.236122,0.417099,-0.069924,48,271,576,4368
1644153666.173977,-0.013306,0.009216,-0.990234,0.281924,0.417099,-0.130992,57,270,577,4400
1644153666.225714,-0.011475,0.008667,-0.99292,0.327725,0.417099,-0.207328,52,270,582,4368
1644153666.271932,-0.012512,0.008911,-0.991638,0.175053,0.508702,-0.039389,58,276,571,4368
1644153666.319637,-0.010742,0.007324,-0.993286,0.327725,0.371298,-0.085191,57,270,579,4400
1644153666.415709,-0.010071,0.009216,-0.992004,0.404061,0.478168,-0.024122,48,271,564,4432
1644153666.464138,-0.013123,0.008423,-0.992615,0.220855,0.24916,-0.237863,48,281,571,4400
1644153666.512495,-0.011963,0.011658,-0.992615,0.342992,0.508702,-0.14626,46,266,573,4432
1644153666.560853,-0.012634,0.007996,-0.991089,0.297191,0.417099,-0.085191,48,271,566,4464
1644153666.609285,-0.01178,0.009888,-0.993225,0.312458,0.401832,-0.14626,57,273,570,4368
1644153666.657654,-0.011169,0.00647,-0.991882,0.266656,0.508702,-0.192061,39,276,566,4432
1644153666.706044,-0.010803,0.00708,-0.992432,0.175053,0.417099,-0.130992,57,270,570,4400
1644153666.754428,-0.011658,0.00946,-0.992737,0.175053,0.447634,-0.14626,55,262,569,4400
1644153666.802845,-0.011475,0.007935,-0.99054,0.220855,0.478168,-0.161527,51,274,562,4352
1644153666.851219,-0.010864,0.009155,-0.989319,0.129252,0.401832,-0.130992,46,269,576,4352
1644153666.899599,-0.012024,0.010864,-0.990784,0.297191,0.310229,-0.161527,53,269,578,4400
1644153666.948044,-0.014709,0.00769,-0.994446,0.144519,0.294962,-0.024122,36,269,578,4400
1644153666.996358,-0.011475,0.006836,-0.991943,0.35826,0.508702,-0.207328,59,273,577,4304
1644153667.044801,-0.011597,0.011841,-0.990112,0.159786,0.508702,0.006412,53,276,576,4432
1644153667.093183,-0.010193,0.010559,-0.992554,0.281924,0.371298,-0.176794,53,266,576,4400
1644153667.141557,-0.014038,0.007019,-0.993225,0.35826,0.432366,-0.115725,45,268,572,4400
1644153667.189898,-0.011353,0.010925,-0.994019,0.190321,0.478168,-0.039389,47,273,577,4416
1644153667.238297,-0.01178,0.00824,-0.99176,0.281924,0.432366,-0.100458,41,271,576,4288
1644153667.286673,-0.013611,0.005981,-0.98999,0.266656,0.218626,-0.314198,53,271,576,4320
