epoch,acc_x,acc_y,acc_z,rot_x,rot_y,rot_z,mag_x,mag_y,mag_z,temp
1644161100.075003,-0.012207,0.007629,-0.994202,0.175053,0.523969,-0.14626,54,270,584,5488
1644161100.123247,-0.010864,0.006775,-0.991394,0.205588,0.447634,-0.192061,48,283,580,5472
1644161100.171633,-0.010071,0.010193,-0.992126,0.08345,0.478168,-0.14626,53,274,578,5536
1644161100.220013,-0.008606,0.00824,-0.994629,0.327725,0.386565,0.006412,46,269,580,5584
1644161100.268383,-0.013794,0.008423,-0.994263,0.129252,0.417099,-0.039389,45,273,572,5584
1644161100.316783,-0.010803,0.009216,-0.99231,0.236122,0.401832,0.006412,45,280,586,5488
1644161100.365184,-0.011597,0.009094,-0.991882,0.251389,0.432366,0.052214,54,275,579,5472
1644161100.413577,-0.010803,0.011047,-0.992554,0.342992,0.462901,-0.115725,55,276,583,5536
1644161100.461969,-0.011536,0.008118,-0.993103,0.236122,0.462901,-0.100458,53,271,576,5552
1644161100.510362,-0.011597,0.010315,-0.992981,0.144519,0.462901,-0.085191,51,269,576,5488
1644161100.558754,-0.010925,0.010193,-0.993652,0.205588,0.356031,-0.085191,52,275,582,5472
1644161100.607131,-0.010376,0.010498,-0.995178,0.266656,0.401832,-0.222595,49,282,570,5584
1644161100.655526,-0.009888,0.007263,-0.991516,0.266656,0.356031,-0.14626,47,268,570,5472
1644161100.703906,-0.010437,0.011108,-0.99231,0.220855,0.432366,-0.054656,49,270,577,5520
1644161100.752319,-0.008911,0.009399,-0.992554,0.266656,0.340763,-0.14626,59,280,584,5520
1644161100.800682,-0.01178,0.007629,-0.99115,0.251389,0.294962,-0.176794,55,266,578,5488
1644161100.849122,-0.015137,0.011902,-0.992432,0.342992,0.401832,-0.085191,51,269,576,5488
1644161100.897844,-0.011353,0.007812,-0.991943,0.236122,0.24916,-0.176794,55,281,566,5472
1644161100.945909,-0.011963,0.011292,-0.991516,0.281924,0.356031,-0.100458,40,275,589,5520
1644161100.995708,-0.010559,0.009155,-0.993591,0.129252,0.356031,-0.100458,57,277,572,5520
1644161101.069613,-0.010803,0.006042,-0.994751,0.251389,0.462901,-0.085191,40,277,579,5472
1644161101.097932,-0.013611,0.009827,-0.991394,0.281924,0.188092,-0.024122,53,271,578,5536
1644161101.187832,-0.007874,0.00885,-0.992188,0.220855,0.478168,-0.161527,53,276,571,5536
1644161101.23617,-0.011414,0.006409,-0.993103,0.236122,0.417099,-0.237863,57,275,572,5488
1644161101.284826,-0.010315,0.010498,-0.991577,0.098718,0.401832,-0.161527,55,276,580,5488
1644161101.332977,-0.008911,0.009277,-0.990051,0.236122,0.447634,-0.100458,59,275,577,5520
1644161101.381369,-0.010437,0.008118,-0.993958,0.297191,0.462901,-0.14626,54,265,586,5520
1644161101.429751,-0.01178,0.007263,-0.991577,0.342992,0.462901,0.021679,47,275,577,5552
1644161101.478146,-0.011169,0.005676,-0.993958,0.098718,0.432366,-0.161527,49,270,572,5552
1644161101.526535,-0.011292,0.007996,-0.992676,0.159786,0.371298,-0.14626,55,271,580,5536
1644161101.574939,-0.013733,0.009216,-0.993408,0.297191,0.386565,-0.161527,49,265,577,5520
1644161101.623322,-0.01123,0.009888,-0.993774,0.175053,0.356031,-0.069924,53,274,566,5488
1644161101.671722,-0.01178,0.006348,-0.99469,0.281924,0.447634,-0.115725,52,277,577,5488
1644161101.720081,-0.013672,0.009949,-0.991211,0.068183,0.493435,-0.085191,49,287,582,5488
1644161101.768484,-0.012634,0.008057,-0.995239,0.312458,0.401832,-0.085191,57,282,584,5552
1644161101.816922,-0.009766,0.009705,-0.994995,0.175053,0.554504,-0.192061,51,274,573,5520
1644161101.865356,-0.010315,0.008911,-0.99707,0.205588,0.432366,-0.100458,55,271,573,5520
1644161101.913709,-0.009705,0.009521,-0.991821,0.342992,0.233893,-0.100458,51,271,578,5520
1644161101.962084,-0.010803,0.010864,-0.992188,0.220855,0.493435,-0.161527,59,277,577,5424
1644161102.010473,-0.007263,0.008484,-0.994873,0.052916,0.371298,-0.192061,45,270,586,5424
1644161102.075094,-0.009338,0.008911,-0.993958,0.327725,0.401832,-0.024122,49,280,575,5536
1644161102.109186,-0.010986,0.007385,-0.991272,0.159786,0.417099,-0.130992,55,276,578,5520
1644161102.157957,-0.011719,0.008484,-0.991516,0.190321,0.417099,-0.115725,47,273,582,5536
1644161102.208086,-0.012634,0.009888,-0.992126,0.144519,0.432366,-0.14626,45,273,582,5472
1644161102.253163,-0.010254,0.00946,-0.99292,0.190321,0.371298,-0.207328,45,273,579,5488
1644161102.34915,-0.008728,0.007202,-0.99292,0.205588,0.356031,-0.100458,53,288,576,5472
1644161102.397541,-0.012146,0.008423,-0.992188,0.159786,0.340763,-0.008855,57,275,572,5472
1644161102.445934,-0.009583,0.011169,-0.993652,0.052916,0.523969,-0.039389,51,266,569,5520
1644161102.494326,-0.008789,0.008606,-0.99231,0.236122,0.493435,-0.268397,55,283,576,5456
1644161102.54273,-0.012146,0.011658,-0.993835,0.266656,0.310229,-0.100458,59,273,572,5472
1644161102.591122,-0.012512,0.007935,-0.992676,0.281924,0.356031,-0.024122,61,282,582,5520
1644161102.639499,-0.011719,0.009644,-0.990601,0.236122,0.508702,-0.069924,49,275,584,5520
1644161102.687891,-0.009521,0.009949,-0.992432,0.220855,0.432366,-0.100458,58,271,580,5520
1644161102.736285,-0.010254,0.009705,-0.993713,0.113985,0.356031,-0.039389,49,277,572,5520
1644161102.784715,-0.011658,0.009216,-0.991211,0.388794,0.356031,-0.115725,46,281,571,5472
1644161102.833094,-0.010315,0.00946,-0.992004,0.373527,0.432366,-0.14626,49,277,579,5536
1644161102.88146,-0.012451,0.008911,-0.989929,0.113985,0.432366,-0.039389,53,269,580,5456
1644161102.929885,-0.011292,0.010376,-0.992798,0.312458,0.417099,0.036947,47,282,577,5520
1644161102.978279,-0.010681,0.009827,-0.991028,0.052916,0.432366,-0.192061,45,282,579,5536
1644161103.026665,-0.009888,0.009705,-0.992859,0.312458,0.432366,-0.085191,58,266,578,5472
1644161103.081396,-0.010925,0.010559,-0.992615,0.175053,0.294962,-0.085191,51,271,587,5488
1644161103.123387,-0.011108,0.007629,-0.991211,0.236122,0.325496,0.021679,51,274,583,5520
1644161103.17179,-0.012085,0.007874,-0.994873,0.08345,0.386565,-0.130992,48,274,578,5456
1644161103.22018,-0.013184,0.008057,-0.991943,0.327725,0.447634,-0.237863,52,275,572,5488
1644161103.268955,-0.011597,0.010315,-0.995605,0.098718,0.356031,-0.054656,55,276,569,5472
1644161103.319121,-0.013428,0.009949,-0.993713,0.342992,0.340763,-0.069924,48,271,576,5536
1644161103.369356,-0.012024,0.009399,-0.99054,0.373527,0.447634,-0.085191,52,265,577,5536
1644161103.414324,-0.011719,0.007385,-0.990356,0.098718,0.340763,-0.161527,54,273,584,5488
1644161103.510509,-0.011841,0.008911,-0.992249,0.175053,0.462901,-0.115725,51,279,576,5552
1644161103.558887,-0.011169,0.008362,-0.989746,0.312458,0.478168,-0.069924,53,283,573,5520
1644161103.607287,-0.009705,0.010315,-0.993103,0.281924,0.523969,-0.14626,51,271,578,5536
1644161103.655679,-0.007751,0.010193,-0.993591,0.266656,0.523969,-0.14626,41,274,578,5520
1644161103.704077,-0.008972,0.010742,-0.991699,0.175053,0.417099,-0.115725,49,268,586,5488
1644161103.752456,-0.011353,0.006531,-0.990967,0.281924,0.462901,-0.100458,55,266,576,5552
1644161103.800862,-0.010254,0.008545,-0.993347,0.297191,0.340763,-0.176794,48,281,573,5536
1644161103.849303,-0.012634,0.009521,-0.992737,0.297191,0.294962,-0.130992,49,268,579,5536
1644161103.897685,-0.010986,0.009033,-0.990295,0.144519,0.432366,-0.115725,62,269,573,5472
1644161103.946073,-0.010742,0.008606,-0.99115,0.236122,0.24916,-0.222595,49,277,584,5552
1644161103.994463,-0.011963,0.009155,-0.989014,0.312458,0.371298,-0.024122,48,271,573,5520
1644161104.054332,-0.011353,0.010559,-0.990173,0.297191,0.447634,-0.161527,43,276,580,5472
1644161104.093279,-0.009033,0.008606,-0.990845,0.297191,0.386565,-0.14626,55,279,583,5584
1644161104.139604,-0.011169,0.007751,-0.994873,0.159786,0.310229,-0.008855,43,271,569,5456
1644161104.187979,-0.011536,0.00824,-0.992126,0.297191,0.371298,-0.085191,55,271,590,5456
1644161104.236364,-0.015686,0.009644,-0.994385,0.373527,0.539237,-0.115725,47,280,584,5488
1644161104.284767,-0.008728,0.006897,-0.992798,0.236122,0.294962,-0.024122,48,276,571,5472
1644161104.333163,-0.010193,0.011108,-0.993591,0.251389,0.325496,-0.085191,60,276,578,5536
1644161104.381837,-0.012268,0.008301,-0.993713,0.281924,0.478168,-0.161527,47,273,586,5536
1644161104.430294,-0.011169,0.008484,-0.994019,0.281924,0.432366,-0.085191,53,276,576,5488
1644161104.480937,-0.013367,0.008362,-0.994751,0.251389,0.432366,-0.176794,53,269,571,5600
1644161104.530677,-0.011963,0.010742,-0.991211,0.220855,0.401832,-0.024122,48,269,578,5520
1644161104.575708,-0.012207,0.00769,-0.99353,0.281924,0.478168,0.021679,40,270,582,5456
1644161104.672437,-0.009033,0.007263,-0.996155,0.342992,0.478168,-0.054656,46,279,571,5536
1644161104.720236,-0.011414,0.009155,-0.993469,0.098718,0.523969,-0.14626,45,285,579,5536
1644161104.768645,-0.015015,0.010559,-0.991882,0.113985,0.325496,-0.054656,47,275,572,5520
1644161104.81704,-0.013306,0.00708,-0.99231,0.205588,0.401832,-0.283664,59,282,584,5536
1644161104.865464,-0.01123,0.009216,-0.992249,0.312458,0.554504,-0.115725,57,275,575,5520
1644161104.913874,-0.011597,0.008118,-0.990723,0.113985,0.417099,-0.192061,53,279,573,5584
1644161104.962262,-0.012573,0.010254,-0.992188,0.129252,0.356031,-0.069924,51,276,585,5456
1644161105.010623,-0.010071,0.008667,-0.992065,0.251389,0.371298,-0.054656,52,273,575,5536
1644161105.062886,-0.010803,0.008667,-0.993835,0.190321,0.432366,-0.024122,49,282,570,5536
1644161105.107424,-0.013672,0.006653,-0.990967,0.327725,0.447634,-0.14626,42,273,570,5488
1644161105.155774,-0.01001,0.006592,-0.993652,0.35826,0.279695,-0.283664,49,277,577,5424
1644161105.204175,-0.012512,0.00946,-0.995667,0.251389,0.432366,-0.054656,51,271,590,5536
1644161105.252562,-0.010315,0.010498,-0.993225,0.205588,0.386565,-0.192061,51,269,578,5584
1644161105.300949,-0.00946,0.011658,-0.992249,0.098718,0.386565,-0.130992,48,286,571,5488
1644161105.349339,-0.012329,0.009094,-0.996521,0.236122,0.401832,-0.390534,48,269,576,5520
1644161105.397721,-0.012451,0.010803,-0.993408,0.220855,0.462901,-0.039389,41,269,578,5520
1644161105.44612,-0.012329,0.008789,-0.990417,0.35826,0.356031,-0.237863,47,280,572,5488
1644161105.494513,-0.013367,0.013611,-0.993347,0.220855,0.478168,-0.085191,49,277,584,5520
1644161105.542933,-0.010681,0.01178,-0.991882,0.281924,0.24916,-0.054656,40,273,577,5536
1644161105.592145,-0.01001,0.007202,-0.993896,0.190321,0.447634,-0.085191,55,276,576,5488
1644161105.642389,-0.012146,0.008423,-0.993286,0.281924,0.508702,0.067481,45,277,582,5536
1644161105.692343,-0.010071,0.007568,-0.992554,0.266656,0.508702,-0.161527,43,276,576,5536
1644161105.737468,-0.012085,0.008972,-0.99054,0.266656,0.417099,0.021679,52,277,582,5552
1644161105.833245,-0.014404,0.009094,-0.992188,0.098718,0.432366,-0.176794,45,277,584,5472
1644161105.881667,-0.010071,0.010071,-0.989197,0.190321,0.294962,-0.085191,47,277,575,5536
1644161105.930048,-0.010864,0.010315,-0.989075,0.205588,0.417099,-0.14626,49,273,584,5552
1644161105.978431,-0.00824,0.008057,-0.991028,0.297191,0.432366,-0.222595,45,277,575,5488
1644161106.026826,-0.009766,0.006226,-0.99353,0.175053,0.401832,-0.130992,45,287,577,5488
1644161106.077461,-0.012024,0.009338,-0.99353,0.175053,0.539237,-0.100458,61,273,579,5536
1644161106.123634,-0.011414,0.007812,-0.99115,0.220855,0.523969,-0.237863,45,275,575,5472
1644161106.171957,-0.013062,0.008179,-0.992249,0.281924,0.340763,-0.054656,58,276,583,5488
1644161106.22035,-0.007812,0.007263,-0.993591,0.327725,0.493435,-0.14626,51,286,576,5552
1644161106.268721,-0.011536,0.010376,-0.990601,0.281924,0.401832,-0.054656,45,270,575,5520
1644161106.317131,-0.012085,0.011353,-0.994568,0.129252,0.264427,-0.008855,46,286,583,5520
1644161106.365517,-0.014038,0.00885,-0.991272,0.205588,0.447634,-0.100458,48,271,576,5536
1644161106.413911,-0.013184,0.010803,-0.992249,0.205588,0.371298,-0.192061,43,269,590,5488
1644161106.462383,-0.009827,0.010193,-0.992371,0.220855,0.417099,-0.115725,52,280,570,5424
1644161106.5128,-0.00824,0.009766,-0.991394,0.266656,0.462901,-0.085191,54,270,579,5488
1644161106.563118,-0.010803,0.008423,-0.994568,0.098718,0.462901,-0.024122,49,268,572,5488
1644161106.608097,-0.012634,0.006836,-0.992676,0.175053,0.478168,-0.100458,52,270,575,5520
1644161106.704248,-0.010864,0.010132,-0.99408,0.251389,0.340763,0.067481,38,282,570,5488
1644161106.752649,-0.00946,0.010986,-0.990112,0.236122,0.462901,-0.008855,47,263,579,5424
1644161106.801036,-0.011108,0.007385,-0.994812,0.159786,0.279695,-0.069924,52,273,584,5584
1644161106.849413,-0.008972,0.010864,-0.989441,0.266656,0.508702,-0.161527,54,275,577,5472
1644161106.897855,-0.010742,0.010437,-0.992065,0.236122,0.447634,-0.237863,53,281,576,5472
1644161106.946234,-0.010742,0.007385,-0.991943,0.068183,0.508702,-0.130992,46,281,576,5536
1644161106.994647,-0.01062,0.010742,-0.991699,0.251389,0.478168,-0.085191,46,276,573,5552
1644161107.054784,-0.010681,0.009277,-0.992371,0.113985,0.356031,-0.130992,51,283,583,5456
1644161107.091386,-0.013062,0.009583,-0.991699,0.281924,0.493435,-0.039389,46,262,585,5488
1644161107.139787,-0.010071,0.007202,-0.992859,0.327725,0.371298,-0.008855,38,265,579,5536
1644161107.188191,-0.009888,0.009338,-0.992737,0.236122,0.386565,-0.130992,55,279,573,5488
1644161107.236574,-0.010315,0.00708,-0.991455,0.312458,0.386565,-0.115725,52,277,577,5536
1644161107.285098,-0.009277,0.006592,-0.993225,0.266656,0.493435,-0.207328,48,279,573,5520
1644161107.333361,-0.011719,0.010071,-0.989075,0.327725,0.386565,-0.115725,53,271,580,5488
1644161107.38175,-0.008972,0.011108,-0.992981,0.327725,0.264427,-0.054656,53,276,583,5456
1644161107.430138,-0.009705,0.012878,-0.991577,0.098718,0.417099,-0.207328,46,283,578,5472
1644161107.478522,-0.011475,0.007812,-0.991699,0.297191,0.569771,-0.069924,55,279,580,5520
1644161107.527259,-0.010132,0.010864,-0.993103,0.144519,0.447634,0.021679,47,277,570,5536
1644161107.57533,-0.011536,0.010193,-0.994141,0.113985,0.401832,-0.085191,48,274,576,5536
1644161107.625122,-0.010132,0.009583,-0.990112,0.205588,0.417099,-0.069924,60,269,583,5472
1644161107.675444,-0.010559,0.00824,-0.991516,0.205588,0.096489,-0.14626,47,270,577,5536
1644161107.725516,-0.009094,0.010132,-0.991638,0.266656,0.493435,0.098015,47,275,577,5536
1644161107.770158,-0.010742,0.011169,-0.995117,0.236122,0.325496,-0.024122,47,270,582,5472
1644161107.865628,-0.011414,0.010193,-0.991333,0.281924,0.279695,-0.085191,47,277,575,5536
1644161107.91405,-0.011902,0.007751,-0.993469,0.297191,0.279695,-0.176794,48,279,576,5472
1644161107.962423,-0.01178,0.009888,-0.993286,0.175053,0.478168,-0.130992,46,271,580,5520
1644161108.010793,-0.012146,0.008789,-0.993713,0.251389,0.417099,-0.024122,60,279,576,5536
1644161108.059373,-0.012146,0.009399,-0.994507,0.388794,0.325496,-0.024122,53,266,573,5520
1644161108.107556,-0.011658,0.009583,-0.990906,0.297191,0.523969,-0.008855,52,273,582,5488
1644161108.15594,-0.011597,0.01123,-0.992065,-0.053954,0.432366,-0.161527,42,273,577,5536
1644161108.204352,-0.014465,0.008484,-0.994019,0.098718,0.310229,0.006412,51,279,578,5520
1644161108.252712,-0.012512,0.01001,-0.991882,0.312458,0.401832,-0.069924,58,266,587,5536
1644161108.301097,-0.009888,0.011108,-0.99408,0.266656,0.447634,-0.085191,59,282,568,5456
1644161108.349505,-0.012512,0.008545,-0.989807,0.236122,0.432366,-0.25313,61,273,579,5472
1644161108.397897,-0.009399,0.008362,-0.995361,0.236122,0.432366,-0.085191,52,273,575,5536
1644161108.446278,-0.01123,0.010437,-0.993103,0.266656,0.401832,-0.100458,45,270,582,5424
1644161108.494692,-0.007812,0.009949,-0.99469,0.205588,0.325496,-0.039389,53,276,580,5472
1644161108.543071,-0.011108,0.010498,-0.988586,0.236122,0.432366,-0.024122,51,271,578,5488
1644161108.591445,-0.010925,0.010742,-0.99176,0.373527,0.462901,-0.268397,54,277,579,5472
1644161108.639842,-0.009949,0.009888,-0.991638,0.205588,0.432366,-0.130992,49,282,577,5520
1644161108.688231,-0.011414,0.00708,-0.992065,0.220855,0.386565,0.036947,49,277,582,5472
1644161108.736773,-0.012207,0.007446,-0.992249,0.08345,0.417099,-0.192061,51,273,577,5488
1644161108.786652,-0.011536,0.009277,-0.992798,0.220855,0.386565,-0.024122,61,273,577,5536
1644161108.837566,-0.007935,0.008362,-0.98999,0.175053,0.432366,0.021679,53,279,573,5536
1644161108.887586,-0.011841,0.009033,-0.990784,0.251389,0.462901,-0.085191,51,281,571,5424
1644161108.978614,-0.012451,0.007385,-0.992371,0.098718,0.493435,-0.176794,53,286,573,5472
1644161109.02699,-0.010681,0.013672,-0.991943,0.342992,0.493435,-0.115725,52,280,575,5536
1644161109.075559,-0.00769,0.009705,-0.989746,0.327725,0.386565,0.021679,51,281,580,5488
1644161109.123728,-0.011292,0.010132,-0.994202,0.236122,0.371298,-0.115725,48,271,580,5536
1644161109.172366,-0.011963,0.008423,-0.995239,0.312458,0.356031,-0.222595,46,276,580,5536
1644161109.220495,-0.013428,0.007874,-0.993958,0.220855,0.585038,-0.115725,49,273,579,5520
1644161109.268891,-0.009521,0.011108,-0.992493,0.312458,0.371298,-0.069924,47,282,582,5552
1644161109.317312,-0.012268,0.00824,-0.992432,0.159786,0.401832,-0.054656,41,279,569,5472
1644161109.365693,-0.010498,0.012451,-0.993896,0.08345,0.340763,-0.176794,46,271,585,5520
1644161109.414094,-0.012573,0.008301,-0.99231,0.281924,0.462901,-0.054656,47,273,568,5536
1644161109.462466,-0.011475,0.009216,-0.991028,0.205588,0.508702,-0.085191,42,270,579,5584
1644161109.510843,-0.010742,0.009155,-0.991272,0.373527,0.386565,-0.069924,48,276,580,5424
1644161109.559245,-0.01062,0.006409,-0.993286,0.236122,0.478168,-0.130992,55,274,569,5520
1644161109.607632,-0.013306,0.00708,-0.993347,0.236122,0.340763,-0.115725,52,277,577,5520
1644161109.656035,-0.010864,0.008057,-0.990906,0.190321,0.310229,-0.054656,59,277,579,5536
1644161109.704426,-0.011841,0.01001,-0.992615,0.327725,0.386565,-0.008855,59,273,586,5536
1644161109.75279,-0.011292,0.008606,-0.992981,0.052916,0.356031,0.006412,62,269,583,5552
1644161109.801246,-0.012024,0.01001,-0.994568,0.251389,0.356031,-0.039389,55,279,583,5520
1644161109.849651,-0.01001,0.01001,-0.991821,0.08345,0.523969,-0.237863,57,273,572,5536
1644161109.898804,-0.007935,0.009583,-0.993408,0.312458,0.417099,-0.039389,57,275,577,5520
1644161109.949018,-0.014282,0.01001,-0.993835,0.236122,0.264427,-0.192061,57,273,579,5456
1644161110.057436,-0.01239,0.009583,-0.989624,0.220855,0.462901,-0.14626,59,263,575,5472
1644161110.094629,-0.010315,0.008179,-0.992798,0.312458,0.539237,-0.207328,52,280,575,5520
1644161110.139924,-0.00946,0.00824,-0.994995,0.297191,0.340763,-0.14626,57,275,570,5536
1644161110.188316,-0.012756,0.010986,-0.996033,0.159786,0.523969,-0.207328,41,266,580,5536
1644161110.236713,-0.011475,0.009827,-0.99469,0.236122,0.462901,-0.100458,53,279,576,5536
1644161110.285213,-0.013,0.010742,-0.993225,0.190321,0.264427,-0.069924,57,273,577,5536
1644161110.333505,-0.01178,0.007324,-0.992249,0.098718,0.310229,-0.222595,65,271,578,5520
1644161110.38189,-0.011963,0.010681,-0.991821,0.281924,0.279695,-0.161527,66,265,582,5536
1644161110.43027,-0.009949,0.008057,-0.989319,0.266656,0.462901,-0.161527,53,266,578,5536
1644161110.478619,-0.011047,0.008606,-0.989929,0.419328,0.478168,-0.085191,41,279,569,5536
1644161110.527041,-0.009888,0.009766,-0.993164,0.342992,0.417099,-0.161527,54,275,579,5552
1644161110.575756,-0.010864,0.009888,-0.993225,0.159786,0.523969,-0.100458,51,281,587,5488
1644161110.624989,-0.012146,0.007141,-0.995605,0.190321,0.386565,-0.085191,45,273,586,5488
1644161110.675103,-0.008301,0.007874,-0.991821,0.144519,0.417099,-0.14626,43,271,580,5520
1644161110.72544,-0.012207,0.007019,-0.990784,0.297191,0.539237,-0.176794,43,276,580,5488
1644161110.770296,-0.01062,0.010864,-0.992065,0.251389,0.523969,-0.161527,51,271,576,5536
1644161110.865799,-0.011475,0.007202,-0.990784,0.281924,0.401832,0.082748,65,274,583,5520
1644161110.914397,-0.011475,0.005981,-0.993408,0.281924,0.508702,-0.161527,42,273,577,5488
1644161110.96259,-0.010132,0.010925,-0.990356,0.236122,0.371298,-0.085191,55,279,573,5536
1644161111.010945,-0.00885,0.00647,-0.992981,0.236122,0.447634,-0.054656,57,280,584,5520
1644161111.059403,-0.011597,0.006897,-0.989197,0.144519,0.401832,-0.039389,54,268,575,5536
1644161111.107734,-0.010376,0.009033,-0.991028,0.129252,0.325496,-0.268397,53,281,576,5472
1644161111.156114,-0.008789,0.009766,-0.992432,0.236122,0.386565,-0.130992,59,270,582,5488
1644161111.204511,-0.01178,0.009705,-0.993652,0.08345,0.386565,-0.085191,48,262,573,5520
1644161111.25288,-0.008789,0.009521,-0.99176,0.434595,0.478168,-0.039389,35,275,563,5488
1644161111.301259,-0.014709,0.006775,-0.992737,0.342992,0.462901,-0.100458,51,274,578,5536
1644161111.349674,-0.01062,0.00708,-0.994751,0.342992,0.539237,-0.008855,49,275,572,5536
1644161111.398047,-0.014893,0.012268,-0.990723,0.404061,0.493435,-0.085191,55,274,573,5488
1644161111.446444,-0.009705,0.009216,-0.994629,0.159786,0.401832,-0.14626,49,270,579,5584
1644161111.494814,-0.010925,0.007935,-0.993591,0.159786,0.417099,-0.14626,55,274,585,5456
1644161111.543246,-0.01123,0.008057,-0.995667,0.175053,0.417099,0.006412,53,271,585,5472
1644161111.59161,-0.011292,0.007568,-0.994446,0.251389,0.447634,-0.115725,40,277,579,5472
1644161111.640012,-0.011047,0.009583,-0.990723,0.08345,0.417099,-0.054656,49,270,572,5536
1644161111.688403,-0.011292,0.007935,-0.991638,0.281924,0.462901,-0.039389,45,270,572,5472
1644161111.736791,-0.010498,0.008789,-0.993103,0.220855,0.462901,-0.192061,48,286,578,5472
1644161111.785609,-0.012939,0.010132,-0.991943,0.175053,0.508702,0.143817,49,275,572,5520
1644161111.8361,-0.011658,0.009277,-0.992004,0.098718,0.447634,-0.14626,52,285,579,5472
1644161111.887475,-0.015076,0.007629,-0.992065,0.236122,0.325496,-0.039389,54,275,584,5472
1644161111.931526,-0.010925,0.007996,-0.993103,0.052916,0.24916,-0.192061,54,270,579,5488
1644161112.027167,-0.011719,0.007263,-0.992004,0.205588,0.401832,-0.222595,43,274,566,5472
1644161112.075624,-0.010559,0.011169,-0.989075,0.342992,0.340763,-0.14626,42,275,584,5552
1644161112.123922,-0.011597,0.008057,-0.992371,0.113985,0.371298,-0.069924,49,268,575,5552
1644161112.172391,-0.012756,0.00769,-0.994324,0.098718,0.401832,-0.115725,55,274,571,5520
1644161112.220684,-0.013062,0.008423,-0.991272,0.205588,0.523969,-0.207328,52,270,565,5520
1644161112.269074,-0.014099,0.009705,-0.994263,0.220855,0.462901,-0.100458,53,266,587,5456
1644161112.317454,-0.008484,0.008484,-0.992004,0.159786,0.508702,-0.192061,61,268,565,5488
1644161112.365833,-0.011475,0.009888,-0.992126,0.281924,0.386565,-0.14626,51,281,564,5536
1644161112.414259,-0.011963,0.010559,-0.992615,0.205588,0.371298,0.067481,59,277,577,5472
1644161112.462645,-0.010498,0.007446,-0.992249,0.327725,0.478168,-0.192061,45,273,582,5520
1644161112.511003,-0.009766,0.009521,-0.990906,0.327725,0.432366,-0.115725,43,281,566,5536
1644161112.559416,-0.011047,0.00769,-0.991272,0.129252,0.325496,-0.100458,58,276,573,5488
1644161112.607796,-0.011169,0.007996,-0.99231,0.129252,0.401832,-0.085191,48,281,576,5456
1644161112.656198,-0.010376,0.009705,-0.993774,0.205588,0.508702,-0.039389,53,269,578,5488
1644161112.704633,-0.009399,0.005066,-0.994202,0.220855,0.401832,-0.237863,52,275,582,5472
1644161112.753425,-0.010437,0.008728,-0.993286,0.342992,0.401832,-0.207328,59,268,579,5488
1644161112.801368,-0.009888,0.011292,-0.991943,0.175053,0.493435,-0.100458,55,279,587,5472
1644161112.84979,-0.012939,0.005127,-0.992493,0.297191,0.356031,-0.222595,60,276,587,5536
1644161112.898203,-0.010315,0.007263,-0.993042,0.205588,0.462901,-0.100458,49,277,570,5488
1644161112.948049,-0.011047,0.007263,-0.993347,0.159786,0.386565,-0.100458,53,271,576,5584
1644161113.045241,-0.012085,0.008606,-0.99353,0.144519,0.447634,-0.25313,48,274,573,5584
1644161113.091734,-0.008484,0.010132,-0.992249,0.373527,0.371298,-0.237863,51,279,580,5536
1644161113.140141,-0.010742,0.007751,-0.993225,0.113985,0.493435,-0.100458,48,276,573,5488
1644161113.188491,-0.011169,0.007141,-0.991394,0.190321,0.493435,-0.192061,43,279,576,5536
1644161113.236877,-0.012695,0.009888,-0.993408,0.205588,0.356031,-0.024122,57,280,568,5488
1644161113.285254,-0.007446,0.007751,-0.994324,0.342992,0.371298,0.052214,51,269,573,5520
1644161113.333662,-0.010986,0.010132,-0.993225,0.159786,0.523969,-0.283664,48,271,571,5536
1644161113.38205,-0.013245,0.00946,-0.993958,0.190321,0.432366,-0.25313,45,275,582,5520
1644161113.430426,-0.010864,0.008301,-0.992493,0.220855,0.310229,-0.207328,52,277,577,5456
1644161113.478819,-0.011475,0.012695,-0.994446,0.205588,0.523969,-0.222595,60,274,576,5520
1644161113.527215,-0.010376,0.007324,-0.994141,0.297191,0.508702,-0.085191,55,276,573,5488
1644161113.5756,-0.008545,0.011353,-0.992004,0.251389,0.646107,-0.176794,45,280,579,5536
1644161113.623983,-0.013062,0.006531,-0.993042,0.35826,0.432366,-0.115725,42,275,577,5536
1644161113.672396,-0.012268,0.011292,-0.992798,0.236122,0.325496,-0.176794,49,277,579,5488
1644161113.720767,-0.012024,0.00708,-0.995361,0.419328,0.478168,-0.115725,58,281,583,5456
1644161113.76916,-0.010437,0.008606,-0.994873,0.037649,0.386565,-0.100458,48,266,580,5488
1644161113.817683,-0.010742,0.010986,-0.994873,0.220855,0.233893,-0.100458,59,277,565,5472
1644161113.866899,-0.009094,0.00708,-0.993286,0.236122,0.539237,0.036947,48,252,569,5536
1644161113.917901,-0.012634,0.007568,-0.9953,0.297191,0.462901,-0.039389,51,266,573,5488
1644161113.96853,-0.011353,0.009644,-0.993164,0.236122,0.310229,-0.130992,48,262,583,5520
1644161114.012719,-0.010132,0.01123,-0.992493,0.35826,0.371298,-0.176794,53,276,578,5536
1644161114.107897,-0.013123,0.008057,-0.992737,0.312458,0.539237,-0.085191,38,275,575,5536
1644161114.156834,-0.011292,0.009094,-0.994324,0.373527,0.462901,-0.054656,59,268,568,5472
1644161114.204732,-0.012756,0.008606,-0.990845,0.068183,0.401832,0.036947,46,276,566,5536
1644161114.253098,-0.011475,0.007507,-0.994934,0.144519,0.294962,-0.14626,48,276,583,5536
1644161114.301474,-0.010071,0.009277,-0.990234,0.098718,0.432366,-0.085191,53,274,585,5488
1644161114.349893,-0.011353,0.011597,-0.991577,0.312458,0.447634,-0.176794,60,271,566,5488
1644161114.398262,-0.011597,0.007812,-0.994385,0.373527,0.478168,-0.054656,46,271,571,5488
1644161114.446658,-0.011108,0.010193,-0.994263,0.068183,0.310229,-0.14626,51,269,564,5456
1644161114.495156,-0.010925,0.010315,-0.992615,0.068183,0.203359,-0.100458,49,273,579,5488
1644161114.543447,-0.007996,0.008301,-0.99292,0.144519,0.462901,-0.283664,55,281,571,5536
1644161114.591826,-0.013428,0.007507,-0.993042,0.190321,0.340763,-0.283664,47,270,586,5520
1644161114.640227,-0.010254,0.009583,-0.992371,0.159786,0.508702,-0.085191,57,275,572,5488
1644161114.688611,-0.012329,0.009827,-0.988586,0.236122,0.401832,-0.130992,53,274,566,5520
1644161114.737016,-0.010681,0.009521,-0.991882,0.342992,0.523969,-0.100458,48,281,578,5488
1644161114.785393,-0.009827,0.011353,-0.98999,0.205588,0.447634,-0.054656,57,268,584,5536
1644161114.833784,-0.006348,0.01062,-0.991516,0.190321,0.462901,-0.283664,66,273,579,5472
1644161114.882313,-0.012939,0.008423,-0.991455,0.175053,0.417099,-0.14626,52,280,579,5536
1644161114.930566,-0.010925,0.007751,-0.99176,0.236122,0.401832,-0.115725,48,283,583,5520
1644161114.97984,-0.011169,0.007874,-0.992371,0.236122,0.401832,-0.161527,54,280,572,5536
1644161115.029268,-0.010437,0.00824,-0.990662,0.220855,0.493435,-0.069924,46,269,569,5472
1644161115.086314,-0.00946,0.008911,-0.992676,0.236122,0.508702,-0.085191,58,281,585,5520
1644161115.129478,-0.013611,0.006531,-0.995056,0.266656,0.371298,-0.085191,58,276,576,5552
1644161115.220861,-0.013428,0.006104,-0.991211,0.388794,0.340763,0.036947,54,277,570,5488
1644161115.269232,-0.012085,0.009766,-0.993042,0.236122,0.233893,-0.161527,55,271,580,5488
1644161115.317629,-0.011169,0.006531,-0.992615,0.175053,0.386565,-0.176794,57,285,572,5520
1644161115.366033,-0.013611,0.009583,-0.993591,0.190321,0.478168,0.021679,53,279,569,5472
1644161115.414418,-0.010071,0.009277,-0.99292,0.327725,0.432366,-0.192061,47,270,570,5472
1644161115.462834,-0.010315,0.009827,-0.992126,0.266656,0.523969,-0.222595,53,269,571,5536
1644161115.511182,-0.010986,0.008423,-0.993347,0.08345,0.523969,-0.008855,54,282,579,5488
1644161115.559594,-0.01062,0.011536,-0.993835,0.266656,0.432366,-0.024122,59,277,577,5520
1644161115.607989,-0.01062,0.008179,-0.990845,0.297191,0.371298,-0.14626,55,269,573,5552
1644161115.656374,-0.011719,0.009949,-0.990723,0.251389,0.417099,-0.115725,52,270,575,5488
1644161115.704781,-0.01001,0.007324,-0.993774,0.220855,0.523969,-0.024122,55,281,578,5472
1644161115.753178,-0.007507,0.008301,-0.993164,0.007115,0.340763,-0.161527,47,270,582,5472
1644161115.801585,-0.013123,0.008545,-0.990662,0.08345,0.508702,-0.069924,51,279,573,5456
1644161115.849958,-0.011475,0.00885,-0.991821,0.297191,0.478168,0.006412,53,276,583,5520
1644161115.898345,-0.013184,0.010132,-0.992859,0.342992,0.386565,-0.024122,58,279,576,5488
1644161115.946748,-0.009399,0.011597,-0.991638,0.205588,0.432366,-0.222595,57,277,575,5472
1644161115.995244,-0.008118,0.009888,-0.994019,0.480397,0.462901,-0.039389,57,280,579,5472
1644161116.058415,-0.00946,0.010376,-0.992432,0.220855,0.401832,-0.024122,55,274,590,5472
1644161116.098162,-0.010864,0.007874,-0.993774,0.236122,0.462901,0.082748,55,271,583,5552
1644161116.140596,-0.009521,0.010681,-0.99231,0.220855,0.523969,-0.100458,54,270,577,5536
1644161116.191254,-0.00824,0.011292,-0.992615,0.220855,0.371298,-0.14626,55,274,585,5520
1644161116.24135,-0.013123,0.007751,-0.991882,0.297191,0.432366,-0.176794,49,273,577,5536
1644161116.286408,-0.01062,0.009216,-0.991028,0.205588,0.508702,0.052214,49,275,582,5488
1644161116.382399,-0.012207,0.01123,-0.991089,0.205588,0.188092,-0.039389,48,276,573,5456
1644161116.430608,-0.010986,0.007385,-0.993042,0.312458,0.386565,-0.207328,53,269,583,5472
1644161116.478988,-0.009827,0.009033,-0.989868,0.144519,0.264427,0.021679,48,281,578,5536
1644161116.527375,-0.011475,0.008362,-0.991333,0.297191,0.218626,0.052214,49,265,575,5536
1644161116.575774,-0.012695,0.010193,-0.995911,0.281924,0.356031,-0.100458,47,273,572,5536
1644161116.624167,-0.010132,0.007568,-0.989868,0.08345,0.417099,-0.14626,43,269,585,5456
1644161116.672579,-0.009644,0.007324,-0.991516,0.281924,0.386565,-0.14626,54,277,582,5488
1644161116.720953,-0.013062,0.007263,-0.992249,0.129252,0.264427,-0.283664,49,273,582,5456
1644161116.769318,-0.010376,0.00647,-0.993042,0.113985,0.356031,-0.192061,53,274,564,5536
1644161116.817753,-0.009094,0.009216,-0.993103,0.251389,0.401832,-0.069924,58,276,573,5520
1644161116.866151,-0.012939,0.01062,-0.9953,0.266656,0.585038,-0.14626,58,271,571,5552
1644161116.91456,-0.012146,0.00946,-0.992859,0.175053,0.371298,-0.115725,53,276,571,5488
1644161116.962963,-0.011169,0.010071,-0.99115,0.388794,0.386565,-0.161527,57,282,579,5536
1644161117.011298,-0.009033,0.006775,-0.990417,0.251389,0.447634,-0.039389,54,275,591,5472
1644161117.07992,-0.007996,0.010925,-0.994507,0.144519,0.371298,0.036947,48,274,578,5456
1644161117.108048,-0.010071,0.008606,-0.992737,0.266656,0.356031,-0.024122,51,276,583,5520
1644161117.156657,-0.012146,0.008484,-0.993225,0.190321,0.340763,-0.130992,62,283,578,5520
1644161117.207106,-0.010864,0.006897,-0.99054,0.190321,0.478168,-0.024122,53,269,573,5472
1644161117.257888,-0.010986,0.009583,-0.991211,0.46513,0.523969,-0.192061,54,275,586,5488
1644161117.302314,-0.009583,0.011536,-0.990601,0.342992,0.24916,-0.161527,60,269,573,5536
1644161117.398391,-0.010132,0.011597,-0.992737,0.35826,0.356031,-0.222595,53,281,569,5472
1644161117.446765,-0.009583,0.010864,-0.992065,0.251389,0.340763,-0.176794,52,270,582,5488
1644161117.495385,-0.013306,0.006897,-0.992249,0.312458,0.508702,-0.25313,49,282,570,5536
1644161117.543577,-0.012573,0.007874,-0.992249,0.388794,0.356031,-0.039389,57,275,572,5536
1644161117.591965,-0.010742,0.010376,-0.992493,0.205588,0.462901,-0.115725,55,279,576,5520
1644161117.640337,-0.009949,0.008972,-0.991455,0.236122,0.279695,-0.207328,49,275,575,5424
1644161117.688741,-0.008606,0.011169,-0.989441,0.220855,0.462901,-0.192061,43,274,578,5456
1644161117.737124,-0.010986,0.007141,-0.994873,0.266656,0.539237,0.021679,53,279,573,5536
1644161117.785517,-0.009644,0.008423,-0.99115,0.297191,0.478168,-0.237863,53,276,578,5552
1644161117.833925,-0.009766,0.00946,-0.989014,0.266656,0.340763,-0.192061,48,271,573,5536
1644161117.882364,-0.010498,0.01062,-0.991577,0.159786,0.340763,0.006412,54,277,577,5552
1644161117.930724,-0.00885,0.011292,-0.990906,0.297191,0.310229,-0.176794,61,280,582,5520
1644161117.980041,-0.010376,0.009094,-0.991699,0.236122,0.371298,-0.069924,48,274,576,5472
1644161118.027511,-0.008789,0.010803,-0.990784,0.281924,0.401832,-0.008855,51,271,573,5520
1644161118.076391,-0.01001,0.009277,-0.990173,0.342992,0.203359,0.082748,59,275,584,5584
1644161118.12423,-0.007874,0.008179,-0.99408,0.404061,0.417099,0.098015,46,269,580,5536
1644161118.172678,-0.011353,0.009583,-0.992676,0.236122,0.432366,-0.192061,49,273,572,5536
1644161118.221032,-0.008301,0.008484,-0.991943,0.266656,0.569771,-0.237863,53,266,578,5536
1644161118.269427,-0.013245,0.00769,-0.991455,0.266656,0.554504,-0.298931,51,281,580,5536
1644161118.317849,-0.010315,0.01001,-0.991028,0.327725,0.386565,-0.207328,53,269,569,5456
1644161118.368233,-0.011353,0.00885,-0.993164,0.190321,0.417099,-0.085191,43,271,578,5456
1644161118.418397,-0.010864,0.010315,-0.993042,0.373527,0.447634,-0.100458,60,262,578,5552
1644161118.463459,-0.011169,0.010071,-0.993286,0.022382,0.447634,-0.192061,51,271,573,5536
1644161118.559749,-0.011597,0.010681,-0.992371,0.144519,0.401832,-0.039389,52,277,584,5536
1644161118.608134,-0.009644,0.007629,-0.991516,0.052916,0.401832,-0.085191,47,282,572,5472
1644161118.656516,-0.00946,0.008545,-0.99231,0.266656,0.264427,-0.329466,45,277,575,5456
1644161118.705007,-0.010498,0.006897,-0.99469,0.373527,0.523969,-0.054656,48,281,573,5424
1644161118.753314,-0.013794,0.005493,-0.989929,0.281924,0.417099,-0.161527,59,270,579,5600
1644161118.801701,-0.009216,0.008606,-0.991943,0.251389,0.401832,0.021679,53,286,580,5520
1644161118.850138,-0.009521,0.010193,-0.991272,0.312458,0.493435,-0.085191,47,270,584,5552
1644161118.898525,-0.009888,0.008606,-0.995178,0.129252,0.24916,-0.100458,55,276,564,5472
1644161118.946921,-0.012939,0.008911,-0.990906,0.266656,0.417099,-0.085191,47,282,572,5456
1644161118.995331,-0.008789,0.009644,-0.992554,0.236122,0.554504,-0.039389,62,264,580,5600
1644161119.056396,-0.009766,0.010437,-0.994629,0.205588,0.539237,-0.130992,52,282,577,5536
1644161119.094433,-0.009216,0.008911,-0.992432,0.281924,0.356031,-0.085191,54,290,577,5520
1644161119.14044,-0.011353,0.00946,-0.991821,0.327725,0.478168,-0.268397,54,280,579,5472
1644161119.188835,-0.013,0.011108,-0.993042,0.35826,0.462901,-0.161527,55,279,583,5536
1644161119.237201,-0.011108,0.009766,-0.995605,0.251389,0.386565,0.036947,43,276,571,5488
1644161119.285608,-0.008301,0.007874,-0.992859,0.159786,0.294962,-0.375267,52,277,586,5536
1644161119.334,-0.008484,0.008606,-0.993652,0.281924,0.447634,-0.14626,55,271,571,5552
1644161119.3824,-0.011169,0.008911,-0.991699,0.251389,0.585038,-0.161527,55,279,580,5472
1644161119.430771,-0.010437,0.007385,-0.994019,0.129252,0.462901,-0.130992,53,269,569,5536
1644161119.479515,-0.011597,0.008911,-0.992249,0.175053,0.417099,-0.14626,58,279,576,5552
1644161119.52986,-0.00885,0.007019,-0.993347,0.35826,0.340763,-0.069924,52,282,572,5472
1644161119.580151,-0.010864,0.009888,-0.994507,0.220855,0.294962,-0.14626,52,273,577,5472
1644161119.625242,-0.011353,0.01239,-0.993103,0.281924,0.386565,-0.054656,57,280,575,5536
1644161119.721085,-0.010986,0.010803,-0.993774,0.46513,0.371298,-0.130992,59,282,586,5488
1644161119.769498,-0.011047,0.007874,-0.994324,0.220855,0.432366,0.006412,54,268,572,5488
1644161119.817888,-0.009827,0.008545,-0.991943,0.236122,0.447634,-0.100458,47,277,565,5584
1644161119.866311,-0.010132,0.007812,-0.991272,0.159786,0.493435,-0.161527,60,279,578,5472
1644161119.914722,-0.009583,0.009155,-0.993286,0.35826,0.340763,-0.085191,49,275,577,5536
1644161119.963121,-0.01355,0.008911,-0.990723,-0.02342,0.340763,-0.008855,55,269,580,5472
1644161120.011504,-0.008484,0.00946,-0.993286,0.373527,0.401832,-0.161527,59,275,570,5456
1644161120.059947,-0.009521,0.009827,-0.992004,0.388794,0.478168,-0.039389,53,281,583,5488
1644161120.108247,-0.010254,0.008179,-0.993286,0.312458,0.356031,-0.008855,59,273,584,5520
1644161120.156604,-0.010559,0.010254,-0.993103,0.388794,0.371298,-0.024122,41,276,571,5456
1644161120.205126,-0.011963,0.009216,-0.99292,0.236122,0.24916,-0.176794,42,273,572,5472
1644161120.253403,-0.012817,0.008057,-0.99292,0.113985,0.340763,-0.207328,48,276,578,5488
1644161120.301797,-0.011536,0.008484,-0.991455,0.220855,0.340763,-0.085191,53,266,585,5536
1644161120.350146,-0.012512,0.010986,-0.992615,0.052916,0.340763,0.006412,41,279,576,5536
1644161120.398575,-0.010864,0.008484,-0.992798,0.327725,0.554504,-0.069924,57,285,575,5520
1644161120.446958,-0.012573,0.007629,-0.994629,0.281924,0.493435,-0.039389,49,280,579,5488
1644161120.495356,-0.010498,0.009399,-0.992065,0.266656,0.432366,-0.008855,48,269,578,5472
1644161120.543739,-0.011169,0.01062,-0.990845,0.144519,0.356031,-0.054656,57,273,575,5536
1644161120.592478,-0.014709,0.009705,-0.993469,0.190321,0.615573,-0.176794,57,268,575,5456
1644161120.641314,-0.009644,0.007446,-0.992981,0.205588,0.432366,-0.115725,49,268,572,5536
1644161120.691887,-0.012268,0.010254,-0.992615,0.220855,0.356031,-0.207328,52,277,565,5520
1644161120.742068,-0.01001,0.007812,-0.993225,0.266656,0.600305,-0.115725,49,268,577,5584
1644161120.78715,-0.010559,0.007996,-0.992126,0.281924,0.462901,-0.130992,51,274,571,5536
1644161120.88253,-0.014648,0.008423,-0.990112,0.297191,0.417099,-0.039389,52,263,584,5536
1644161120.930892,-0.014648,0.007996,-0.989075,0.327725,0.508702,-0.115725,49,275,572,5536
1644161120.979254,-0.007996,0.011536,-0.992432,0.266656,0.401832,0.021679,52,273,572,5472
1644161121.027678,-0.009705,0.006836,-0.993164,0.190321,0.417099,-0.14626,60,274,583,5536
1644161121.082252,-0.008301,0.009766,-0.993042,0.404061,0.600305,-0.039389,46,271,590,5472
1644161121.124471,-0.010071,0.007996,-0.994568,0.327725,0.371298,-0.054656,45,277,572,5456
1644161121.172819,-0.01178,0.010315,-0.991333,0.159786,0.447634,-0.130992,47,268,579,5552
1644161121.221192,-0.012634,0.009705,-0.992493,0.113985,0.325496,-0.085191,57,277,577,5552
1644161121.269574,-0.011597,0.008606,-0.991699,0.205588,0.340763,-0.054656,60,279,569,5536
1644161121.317976,-0.011108,0.009705,-0.992249,0.281924,0.386565,-0.207328,43,264,576,5520
1644161121.366373,-0.009827,0.009766,-0.992798,0.35826,0.325496,-0.14626,49,268,572,5520
1644161121.414765,-0.012695,0.009949,-0.99292,0.08345,0.447634,-0.207328,46,274,578,5520
1644161121.463166,-0.012207,0.010681,-0.993042,0.373527,0.325496,-0.100458,59,270,584,5536
1644161121.511559,-0.012085,0.010254,-0.991272,0.205588,0.508702,-0.100458,57,270,582,5456
1644161121.561468,-0.008606,0.013184,-0.991455,0.129252,0.371298,-0.207328,40,270,565,5488
1644161121.612219,-0.009766,0.007874,-0.992615,0.129252,0.462901,-0.085191,62,271,571,5488
1644161121.657073,-0.010315,0.011597,-0.992798,0.08345,0.264427,-0.100458,57,260,579,5552
1644161121.753492,-0.011902,0.009155,-0.994141,0.388794,0.493435,-0.176794,45,273,584,5488
1644161121.801883,-0.010986,0.011353,-0.992249,0.144519,0.356031,-0.069924,49,268,579,5472
1644161121.850257,-0.009644,0.006287,-0.991333,0.327725,0.371298,-0.115725,61,280,570,5520
1644161121.8987,-0.011597,0.009827,-0.989868,0.236122,0.432366,-0.207328,57,275,582,5520
1644161121.947077,-0.011047,0.005066,-0.992615,0.236122,0.554504,-0.161527,53,276,573,5536
1644161121.995476,-0.011719,0.007812,-0.992859,0.281924,0.386565,-0.085191,54,277,577,5552
1644161122.049894,-0.011292,0.010437,-0.991333,0.175053,0.325496,-0.085191,51,271,587,5536
1644161122.093459,-0.012573,0.009399,-0.992554,0.144519,0.417099,-0.161527,53,293,587,5536
1644161122.140654,-0.010803,0.010315,-0.991394,0.35826,0.462901,-0.207328,46,274,578,5456
1644161122.188997,-0.012146,0.009338,-0.994812,0.037649,0.371298,-0.130992,48,274,578,5488
1644161122.237376,-0.009155,0.00824,-0.991821,0.266656,0.432366,-0.115725,49,275,579,5520
1644161122.28577,-0.011719,0.009216,-0.991028,0.266656,0.371298,-0.039389,51,276,571,5488
1644161122.33418,-0.010437,0.00769,-0.992615,0.220855,0.447634,0.082748,57,270,568,5488
1644161122.38257,-0.010315,0.009033,-0.991333,0.312458,0.432366,-0.329466,52,275,575,5456
1644161122.430947,-0.012817,0.007874,-0.994385,0.266656,0.447634,-0.222595,55,281,583,5520
1644161122.479305,-0.009277,0.009033,-0.993347,0.007115,0.386565,-0.161527,52,277,575,5536
1644161122.527717,-0.009033,0.008667,-0.994263,0.251389,0.432366,-0.161527,52,275,575,5552
1644161122.576117,-0.011902,0.007385,-0.991699,0.236122,0.310229,-0.375267,54,280,579,5488
1644161122.624477,-0.00885,0.007507,-0.99231,0.205588,0.401832,-0.085191,52,275,572,5536
1644161122.67304,-0.011841,0.008423,-0.991028,0.327725,0.218626,-0.192061,40,270,582,5456
1644161122.723505,-0.010071,0.007874,-0.990906,0.205588,0.523969,-0.207328,54,277,577,5456
1644161122.773859,-0.009888,0.009827,-0.995789,0.190321,0.294962,-0.054656,58,266,571,5520
1644161122.818698,-0.009338,0.00708,-0.991943,0.220855,0.478168,-0.100458,61,277,572,5456
1644161122.91494,-0.01062,0.004883,-0.992126,0.098718,0.600305,-0.054656,57,273,579,5520
1644161122.963285,-0.011108,0.007385,-0.992859,0.190321,0.417099,-0.085191,43,281,573,5472
1644161123.011643,-0.011047,0.008179,-0.9953,0.312458,0.417099,-0.024122,41,274,587,5488
1644161123.060122,-0.01062,0.00824,-0.99469,0.129252,0.371298,-0.069924,54,282,582,5520
1644161123.108414,-0.011169,0.005127,-0.992065,0.373527,0.508702,-0.069924,41,281,571,5488
1644161123.156785,-0.011414,0.010559,-0.992188,0.037649,0.569771,-0.14626,52,268,575,5536
1644161123.205178,-0.009155,0.010315,-0.994873,0.266656,0.401832,-0.115725,48,271,573,5536
1644161123.253551,-0.009094,0.009399,-0.991333,0.419328,0.401832,-0.039389,49,280,575,5424
1644161123.30197,-0.011597,0.01062,-0.993713,0.113985,0.478168,-0.039389,49,270,570,5456
1644161123.350358,-0.012207,0.007751,-0.992615,0.159786,0.371298,-0.069924,47,275,582,5552
1644161123.398749,-0.009705,0.008545,-0.990479,0.35826,0.478168,-0.161527,49,268,577,5536
1644161123.447128,-0.011597,0.008179,-0.990295,0.190321,0.523969,-0.283664,47,277,582,5584
1644161123.49549,-0.010376,0.006775,-0.991943,0.08345,0.371298,0.098015,52,270,582,5536
1644161123.543926,-0.008911,0.009644,-0.994019,0.220855,0.447634,-0.14626,59,277,584,5552
1644161123.592323,-0.013428,0.009705,-0.993286,0.251389,0.493435,-0.161527,48,283,573,5488
1644161123.64066,-0.00824,0.008972,-0.990967,0.159786,0.386565,-0.161527,52,268,572,5488
1644161123.689066,-0.010132,0.009216,-0.994141,0.266656,0.417099,-0.008855,43,276,580,5536
1644161123.737473,-0.009033,0.011292,-0.992676,0.037649,0.493435,0.006412,53,264,569,5488
1644161123.786061,-0.01123,0.010254,-0.992371,0.220855,0.585038,-0.130992,54,277,589,5520
1644161123.836814,-0.014038,0.009705,-0.991821,0.46513,0.386565,-0.130992,51,283,576,5456
1644161123.886979,-0.006409,0.009155,-0.992065,0.190321,0.279695,-0.085191,51,276,571,5536
1644161123.931449,-0.012695,0.009766,-0.992737,0.388794,0.432366,-0.130992,48,271,573,5472
1644161124.027884,-0.009583,0.010925,-0.994202,0.220855,0.356031,-0.176794,49,275,572,5552
1644161124.076324,-0.008789,0.009583,-0.991577,0.190321,0.478168,-0.054656,46,269,583,5552
1644161124.124724,-0.01062,0.009338,-0.993286,0.175053,0.493435,0.006412,55,271,573,5600
1644161124.172977,-0.007568,0.007019,-0.991089,0.205588,0.478168,-0.069924,53,274,578,5488
1644161124.221378,-0.010742,0.010498,-0.992432,0.144519,0.356031,0.036947,53,274,580,5552
1644161124.269758,-0.010986,0.008362,-0.991333,0.35826,0.478168,-0.192061,49,268,577,5456
1644161124.31815,-0.01062,0.009033,-0.992126,0.129252,0.417099,-0.14626,47,277,563,5456
1644161124.366532,-0.010742,0.007507,-0.992126,0.236122,0.417099,-0.039389,40,270,582,5600
1644161124.414923,-0.01239,0.00824,-0.992188,0.052916,0.523969,-0.100458,48,279,573,5536
1644161124.463317,-0.01123,0.008179,-0.994873,0.251389,0.523969,-0.100458,48,269,578,5520
1644161124.511698,-0.012817,0.006775,-0.990173,0.037649,0.432366,-0.069924,51,283,566,5536
1644161124.560094,-0.010376,0.009338,-0.990906,0.190321,0.478168,-0.069924,55,276,573,5584
1644161124.608463,-0.011169,0.008728,-0.991577,0.297191,0.371298,-0.024122,47,270,589,5520
1644161124.656869,-0.009705,0.009949,-0.992432,0.236122,0.401832,-0.207328,58,276,587,5456
1644161124.705273,-0.011902,0.007874,-0.993591,0.35826,0.508702,-0.14626,51,279,580,5520
1644161124.753661,-0.008667,0.004272,-0.992615,0.190321,0.417099,-0.344733,53,269,576,5456
1644161124.802148,-0.010681,0.008728,-0.992493,0.297191,0.508702,-0.222595,57,273,568,5536
1644161124.850821,-0.011169,0.009827,-0.992004,0.205588,0.493435,-0.054656,49,263,575,5536
1644161124.898899,-0.011353,0.009094,-0.991272,0.190321,0.447634,-0.054656,57,275,568,5488
1644161124.948729,-0.009583,0.00946,-0.993713,0.068183,0.508702,-0.024122,54,270,589,5552
1644161125.054812,-0.012146,0.007629,-0.991272,0.327725,0.447634,0.052214,45,270,572,5536
1644161125.092483,-0.01001,0.007019,-0.992859,0.251389,0.371298,-0.039389,47,273,586,5456
1644161125.140779,-0.012512,0.009644,-0.991211,0.220855,0.325496,-0.14626,61,268,577,5520
1644161125.189165,-0.00946,0.010742,-0.992493,0.281924,0.63084,-0.130992,61,268,579,5488
1644161125.237556,-0.009888,0.01239,-0.993103,0.144519,0.447634,-0.207328,48,269,583,5584
1644161125.285953,-0.00885,0.01178,-0.991211,0.205588,0.462901,-0.161527,60,274,576,5536
1644161125.334352,-0.010376,0.009521,-0.991638,0.113985,0.386565,-0.207328,54,273,579,5536
1644161125.382748,-0.010071,0.009521,-0.991577,0.297191,0.478168,-0.14626,51,274,580,5520
1644161125.431118,-0.00824,0.009705,-0.988892,0.190321,0.371298,-0.100458,43,281,578,5456
1644161125.479509,-0.010376,0.00885,-0.991882,0.220855,0.340763,0.021679,48,279,580,5456
1644161125.527895,-0.010437,0.009888,-0.990906,0.35826,0.356031,-0.130992,49,268,589,5456
1644161125.576278,-0.010742,0.011047,-0.989624,0.251389,0.417099,0.036947,49,282,577,5536
1644161125.62467,-0.010559,0.010193,-0.991333,0.144519,0.462901,0.006412,58,271,580,5472
1644161125.673378,-0.010864,0.008057,-0.990417,0.190321,0.386565,-0.176794,54,268,568,5488
1644161125.722782,-0.007935,0.011963,-0.991882,0.129252,0.661374,-0.130992,55,269,583,5536
1644161125.773015,-0.011475,0.00824,-0.992798,0.373527,0.447634,-0.115725,49,277,575,5488
1644161125.819125,-0.011292,0.009277,-0.990967,0.236122,0.462901,-0.14626,54,282,572,5472
1644161125.915413,-0.009766,0.011414,-0.993652,0.098718,0.447634,-0.054656,54,280,575,5536
1644161125.963451,-0.008484,0.009949,-0.990967,0.236122,0.432366,-0.039389,48,274,587,5520
1644161126.011807,-0.00946,0.010132,-0.990356,0.113985,0.386565,-0.207328,49,268,579,5536
1644161126.06039,-0.010254,0.005554,-0.992371,0.266656,0.386565,-0.008855,46,283,585,5456
1644161126.108611,-0.011414,0.01062,-0.995239,0.236122,0.493435,-0.054656,66,280,582,5472
1644161126.156959,-0.011536,0.007446,-0.992859,0.266656,0.401832,-0.024122,61,273,570,5488
1644161126.205348,-0.011169,0.006958,-0.993164,0.190321,0.523969,-0.039389,58,259,571,5536
1644161126.253723,-0.009583,0.010254,-0.991943,0.342992,0.585038,-0.25313,51,276,583,5472
1644161126.302178,-0.012085,0.008606,-0.992004,0.327725,0.462901,0.113282,57,275,577,5520
1644161126.350527,-0.01178,0.010193,-0.994507,0.266656,0.508702,-0.069924,45,285,582,5472
1644161126.398915,-0.010376,0.009644,-0.992371,0.220855,0.554504,-0.14626,59,268,582,5456
1644161126.447298,-0.011597,0.009399,-0.990784,0.190321,0.417099,-0.100458,46,274,578,5488
1644161126.495689,-0.010498,0.00885,-0.99231,0.205588,0.432366,-0.192061,46,276,587,5536
1644161126.54408,-0.012634,0.007812,-0.987915,0.312458,0.493435,-0.100458,52,270,577,5488
1644161126.592481,-0.011597,0.008911,-0.993225,0.236122,0.462901,-0.085191,48,276,578,5472
1644161126.640835,-0.01178,0.009399,-0.994263,0.220855,0.432366,-0.069924,55,279,576,5536
1644161126.689248,-0.011108,0.00647,-0.991028,0.236122,0.493435,-0.115725,54,277,584,5472
1644161126.737623,-0.009094,0.009094,-0.995178,0.175053,0.417099,-0.054656,47,270,575,5472
1644161126.786087,-0.011169,0.00708,-0.993042,0.251389,0.371298,-0.085191,54,277,575,5488
1644161126.836764,-0.007019,0.008728,-0.990784,0.251389,0.508702,-0.130992,57,270,575,5488
1644161126.887715,-0.009583,0.006775,-0.994141,0.236122,0.340763,-0.161527,60,274,583,5488
1644161126.932282,-0.008789,0.006592,-0.994202,0.373527,0.356031,-0.14626,43,271,576,5456
1644161127.028009,-0.009644,0.010742,-0.993408,0.220855,0.279695,-0.008855,47,282,577,5552
1644161127.076473,-0.010986,0.01062,-0.988953,0.236122,0.325496,-0.100458,53,283,573,5536
1644161127.12477,-0.013489,0.010071,-0.990906,0.220855,0.447634,-0.069924,53,279,580,5488
1644161127.173149,-0.012024,0.010559,-0.992798,0.052916,0.462901,-0.054656,49,273,577,5520
1644161127.221526,-0.010925,0.010315,-0.992737,0.251389,0.493435,-0.069924,54,268,586,5488
1644161127.269912,-0.00946,0.006592,-0.991882,0.342992,0.386565,-0.024122,47,270,577,5536
1644161127.3183,-0.010498,0.01123,-0.991821,0.327725,0.24916,-0.314198,57,270,575,5552
1644161127.3667,-0.010803,0.009644,-0.995789,0.404061,0.432366,-0.100458,48,281,571,5456
1644161127.415204,-0.013062,0.011169,-0.99231,0.08345,0.401832,-0.268397,54,277,570,5536
1644161127.463494,-0.011902,0.009399,-0.991028,0.220855,0.523969,-0.100458,62,269,580,5472
1644161127.511848,-0.011047,0.009277,-0.994019,0.312458,0.493435,0.006412,57,275,579,5600
1644161127.560256,-0.010132,0.008362,-0.992065,0.175053,0.371298,-0.054656,55,274,583,5456
1644161127.608656,-0.009949,0.011169,-0.994385,0.190321,0.401832,-0.298931,47,282,577,5536
1644161127.657046,-0.009521,0.006104,-0.987183,0.251389,0.401832,-0.14626,52,270,572,5488
1644161127.705441,-0.008789,0.010864,-0.990967,0.419328,0.371298,-0.130992,60,276,580,5520
1644161127.753807,-0.00885,0.009155,-0.992004,0.251389,0.310229,-0.100458,58,279,580,5520
1644161127.802231,-0.01123,0.007751,-0.993164,0.251389,0.508702,0.098015,51,276,580,5520
1644161127.850651,-0.011536,0.007935,-0.994873,0.266656,0.386565,-0.024122,61,275,586,5520
1644161127.89904,-0.01239,0.008728,-0.991089,0.281924,0.523969,-0.130992,47,282,577,5488
1644161127.948727,-0.012512,0.009888,-0.993896,0.312458,0.493435,-0.237863,58,281,571,5520
1644161128.05511,-0.012512,0.008911,-0.989807,0.220855,0.417099,-0.085191,43,271,578,5536
1644161128.092602,-0.013794,0.006714,-0.992798,0.144519,0.432366,-0.115725,49,277,582,5456
1644161128.140992,-0.006958,0.011047,-0.991211,0.266656,0.417099,-0.176794,47,277,584,5488
1644161128.189342,-0.011658,0.008362,-0.992554,0.266656,0.325496,-0.130992,61,275,572,5536
1644161128.237734,-0.009094,0.010864,-0.990967,0.342992,0.417099,-0.130992,48,279,585,5584
1644161128.286114,-0.012878,0.006775,-0.990967,0.220855,0.493435,-0.192061,49,282,575,5536
1644161128.334489,-0.013062,0.00769,-0.99054,0.159786,0.386565,-0.237863,49,280,565,5488
1644161128.382915,-0.012268,0.011292,-0.99115,0.342992,0.340763,-0.039389,51,274,573,5488
1644161128.431285,-0.011292,0.009277,-0.994934,0.281924,0.447634,0.036947,47,275,586,5536
1644161128.479667,-0.011719,0.009949,-0.989929,0.297191,0.462901,-0.192061,57,280,586,5456
1644161128.528053,-0.009399,0.008362,-0.994324,0.281924,0.554504,-0.039389,43,283,576,5520
1644161128.576448,-0.009033,0.006653,-0.992737,0.297191,0.462901,-0.054656,49,273,575,5456
1644161128.62485,-0.012085,0.006897,-0.994751,0.297191,0.523969,0.052214,53,264,580,5552
1644161128.673248,-0.011292,0.010498,-0.990723,0.312458,0.585038,-0.14626,51,264,569,5408
1644161128.722837,-0.010925,0.006775,-0.993103,0.236122,0.401832,-0.115725,49,277,577,5536
1644161128.773031,-0.010193,0.011169,-0.991394,0.144519,0.386565,-0.069924,58,274,576,5520
1644161128.82327,-0.011719,0.008789,-0.991333,0.251389,0.294962,-0.008855,47,273,572,5488
1644161128.915443,-0.013855,0.00647,-0.992249,0.113985,0.340763,-0.039389,48,276,576,5536
1644161128.963602,-0.011658,0.010437,-0.990906,0.159786,0.356031,-0.207328,59,273,582,5520
1644161129.011969,-0.011414,0.007202,-0.995239,0.373527,0.386565,-0.054656,48,274,573,5472
1644161129.060432,-0.011841,0.007874,-0.99353,0.236122,0.432366,-0.069924,53,269,580,5536
1644161129.108731,-0.010742,0.008972,-0.990295,0.281924,0.462901,-0.039389,49,268,565,5472
1644161129.157124,-0.011536,0.007507,-0.993958,0.098718,0.447634,0.067481,54,268,575,5536
1644161129.205517,-0.009338,0.007812,-0.994141,0.297191,0.417099,-0.161527,43,269,573,5536
1644161129.253894,-0.010498,0.010132,-0.99292,0.220855,0.447634,-0.039389,45,275,582,5456
1644161129.302287,-0.01062,0.009216,-0.994812,0.159786,0.356031,-0.161527,54,277,572,5456
1644161129.350703,-0.011353,0.011414,-0.991272,0.190321,0.569771,0.067481,55,281,576,5536
1644161129.399085,-0.006531,0.00824,-0.992676,0.312458,0.447634,-0.054656,55,276,569,5488
1644161129.447475,-0.008484,0.009399,-0.993286,0.175053,0.447634,-0.100458,48,281,571,5472
1644161129.49583,-0.011597,0.009155,-0.992432,0.251389,0.432366,-0.222595,43,269,571,5536
1644161129.544265,-0.009888,0.008667,-0.993347,0.220855,0.539237,-0.237863,49,265,584,5552
1644161129.592621,-0.01001,0.010254,-0.993225,0.327725,0.371298,-0.130992,42,270,572,5488
1644161129.641037,-0.009766,0.00946,-0.988159,0.175053,0.417099,-0.161527,57,277,575,5552
1644161129.689429,-0.008606,0.008423,-0.991638,0.342992,0.340763,0.006412,48,271,583,5472
1644161129.737813,-0.011963,0.008728,-0.990356,0.327725,0.310229,-0.176794,45,287,577,5520
1644161129.786232,-0.013306,0.008118,-0.993225,0.251389,0.294962,-0.085191,48,276,571,5456
1644161129.835743,-0.01062,0.007996,-0.99115,0.129252,0.371298,-0.024122,43,271,569,5520
1644161129.886246,-0.009827,0.009216,-0.994507,0.388794,0.478168,-0.100458,55,264,571,5520
1644161129.936718,-0.01178,0.00708,-0.991394,0.342992,0.356031,-0.024122,53,276,576,5536
1644161129.980792,-0.011536,0.009705,-0.994629,0.159786,0.356031,-0.130992,42,268,570,5552
1644161130.076633,-0.011902,0.011902,-0.992859,0.327725,0.493435,-0.039389,51,274,576,5536
1644161130.124928,-0.008301,0.006897,-0.992065,0.175053,0.417099,-0.130992,51,266,578,5536
1644161130.173333,-0.011719,0.010559,-0.992676,0.144519,0.417099,-0.115725,58,283,571,5520
1644161130.221683,-0.012939,0.007385,-0.992859,0.144519,0.401832,-0.161527,49,273,584,5536
1644161130.270096,-0.010437,0.00824,-0.991577,0.205588,0.523969,-0.100458,65,271,580,5488
1644161130.318486,-0.012878,0.007629,-0.991516,0.08345,0.371298,-0.130992,57,273,575,5488
1644161130.366862,-0.012756,0.010498,-0.991211,0.312458,0.294962,-0.222595,54,275,575,5472
1644161130.415252,-0.008728,0.009277,-0.993958,0.312458,0.462901,-0.039389,54,275,586,5472
1644161130.463661,-0.009155,0.010437,-0.99231,0.144519,0.447634,0.067481,51,271,578,5536
1644161130.512043,-0.013794,0.009033,-0.992859,0.312458,0.401832,0.098015,55,281,583,5488
1644161130.560446,-0.009094,0.009644,-0.994324,0.327725,0.447634,-0.085191,48,276,583,5536
1644161130.608827,-0.010437,0.010986,-0.990845,0.251389,0.554504,-0.039389,39,279,569,5472
1644161130.657223,-0.009277,0.008423,-0.994812,0.46513,0.432366,-0.085191,55,269,585,5488
1644161130.70561,-0.009766,0.010681,-0.99231,0.419328,0.371298,0.082748,46,269,578,5472
1644161130.753989,-0.012634,0.010437,-0.991699,0.266656,0.462901,-0.085191,55,279,587,5488
1644161130.802459,-0.012451,0.008545,-0.99292,0.159786,0.462901,-0.024122,51,274,580,5488
1644161130.850822,-0.012207,0.008179,-0.992554,0.297191,0.233893,-0.14626,40,270,579,5472
1644161130.899361,-0.010986,0.009644,-0.993774,0.297191,0.462901,-0.130992,60,274,585,5536
1644161130.947579,-0.012268,0.009949,-0.993652,0.220855,0.508702,-0.069924,55,283,580,5488
1644161130.997083,-0.010376,0.009338,-0.994629,0.205588,0.401832,0.021679,55,274,576,5536
1644161131.095155,-0.01123,0.009338,-0.991394,0.373527,0.523969,0.006412,51,274,571,5520
1644161131.141114,-0.010132,0.010559,-0.993164,0.373527,0.386565,-0.161527,39,271,576,5456
1644161131.189485,-0.008972,0.01001,-0.99231,0.342992,0.356031,-0.130992,47,277,575,5488
1644161131.237903,-0.010193,0.006653,-0.990479,0.236122,0.447634,-0.085191,54,270,579,5520
1644161131.286264,-0.008118,0.008911,-0.993774,0.113985,0.447634,-0.176794,52,268,579,5472
1644161131.334713,-0.013184,0.010498,-0.993164,0.404061,0.325496,-0.100458,51,259,583,5456
1644161131.383075,-0.011536,0.009888,-0.991699,0.35826,0.432366,-0.085191,46,281,571,5488
1644161131.431446,-0.008179,0.009399,-0.99353,0.35826,0.386565,-0.130992,53,271,573,5536
1644161131.479805,-0.011108,0.008606,-0.992065,0.205588,0.325496,-0.054656,52,277,568,5536
1644161131.52823,-0.009033,0.005859,-0.991638,0.251389,0.539237,0.036947,54,273,570,5584
1644161131.576617,-0.011108,0.008728,-0.991394,0.342992,0.325496,0.036947,55,286,576,5456
1644161131.625377,-0.011414,0.011353,-0.991577,0.113985,0.401832,-0.176794,48,283,573,5472
1644161131.675005,-0.008972,0.013123,-0.99231,0.220855,0.447634,-0.130992,49,275,572,5536
1644161131.725204,-0.007507,0.01001,-0.99176,0.129252,0.356031,-0.161527,47,273,563,5456
1644161131.775329,-0.009216,0.007507,-0.991821,0.236122,0.417099,-0.222595,61,277,577,5456
1644161131.866998,-0.010132,0.010071,-0.992798,0.373527,0.676641,-0.192061,43,276,583,5488
1644161131.915446,-0.013123,0.01001,-0.992432,0.404061,0.508702,-0.024122,40,277,572,5472
1644161131.963786,-0.010681,0.007812,-0.99292,0.220855,0.356031,-0.054656,54,280,570,5536
1644161132.012415,-0.011047,0.009277,-0.993896,0.190321,0.294962,-0.14626,53,264,578,5472
1644161132.060712,-0.010986,0.008972,-0.991516,0.327725,0.417099,0.036947,49,260,575,5536
1644161132.1089,-0.012207,0.005676,-0.994019,0.373527,0.340763,-0.039389,52,273,572,5536
1644161132.157297,-0.010803,0.009521,-0.993774,0.190321,0.478168,-0.054656,57,280,577,5456
1644161132.205688,-0.010986,0.009583,-0.99408,0.266656,0.523969,-0.25313,48,279,580,5552
1644161132.254064,-0.011597,0.008667,-0.992493,0.175053,0.401832,-0.100458,58,274,578,5488
1644161132.302458,-0.010437,0.010681,-0.991211,0.312458,0.493435,-0.130992,43,281,576,5424
1644161132.350867,-0.009888,0.009888,-0.992188,0.220855,0.310229,-0.14626,53,274,580,5536
1644161132.399238,-0.011169,0.008606,-0.991882,0.220855,0.340763,-0.024122,46,283,578,5456
1644161132.447623,-0.009949,0.005981,-0.99176,0.251389,0.447634,0.021679,57,277,593,5488
1644161132.496031,-0.011108,0.007874,-0.992737,0.297191,0.462901,-0.069924,52,285,577,5488
1644161132.54442,-0.010254,0.00885,-0.99115,0.35826,0.539237,0.052214,55,274,576,5536
1644161132.592837,-0.013794,0.00531,-0.992126,0.068183,0.508702,-0.008855,43,279,580,5456
1644161132.641194,-0.00946,0.006592,-0.994019,0.159786,0.539237,-0.008855,46,281,580,5488
1644161132.689585,-0.012756,0.008789,-0.993042,0.312458,0.417099,-0.069924,57,273,577,5600
1644161132.737962,-0.010376,0.009277,-0.99469,0.159786,0.386565,-0.207328,40,268,575,5520
1644161132.78641,-0.01001,0.00824,-0.990295,0.449863,0.600305,-0.100458,47,275,577,5536
1644161132.836967,-0.010254,0.008911,-0.990967,0.327725,0.447634,-0.115725,39,276,578,5488
1644161132.887964,-0.009399,0.012451,-0.991028,0.297191,0.371298,-0.192061,49,273,577,5536
1644161132.932616,-0.011047,0.009399,-0.994995,0.312458,0.447634,0.098015,60,274,576,5488
1644161133.028361,-0.010925,0.009399,-0.991577,0.373527,0.417099,-0.222595,49,280,582,5472
1644161133.077237,-0.011841,0.009705,-0.992065,0.236122,0.356031,-0.024122,57,273,572,5488
1644161133.125132,-0.009338,0.009216,-0.9953,0.251389,0.523969,-0.054656,53,274,571,5472
1644161133.173498,-0.01001,0.009033,-0.991089,0.266656,0.325496,-0.100458,51,271,583,5536
1644161133.221873,-0.009705,0.012451,-0.991943,0.220855,0.478168,0.021679,42,270,577,5536
1644161133.270273,-0.010071,0.010254,-0.995605,0.113985,0.478168,-0.100458,49,280,572,5456
1644161133.318642,-0.013062,0.008911,-0.991394,0.312458,0.386565,-0.100458,48,279,585,5424
1644161133.367008,-0.009338,0.006714,-0.99408,0.175053,0.417099,-0.192061,46,276,578,5520
1644161133.415408,-0.007446,0.011108,-0.99115,0.327725,0.417099,-0.192061,48,276,578,5520
1644161133.463835,-0.013855,0.007568,-0.991638,0.373527,0.401832,-0.14626,45,277,579,5472
1644161133.512232,-0.015076,0.009033,-0.995178,0.251389,0.432366,-0.069924,54,282,579,5472
1644161133.560613,-0.011047,0.006714,-0.993042,0.175053,0.386565,-0.207328,55,274,587,5536
1644161133.608993,-0.010742,0.007141,-0.99231,0.281924,0.356031,0.021679,60,283,587,5536
1644161133.657394,-0.011047,0.007141,-0.994751,0.144519,0.294962,-0.192061,47,275,575,5488
1644161133.705784,-0.009277,0.00531,-0.990784,0.205588,0.401832,0.006412,42,273,577,5536
1644161133.754147,-0.010437,0.006836,-0.993042,0.175053,0.417099,-0.192061,54,275,579,5472
1644161133.802572,-0.010925,0.009888,-0.992981,0.312458,0.447634,0.036947,52,275,577,5552
1644161133.851042,-0.012939,0.010254,-0.99231,0.190321,0.356031,-0.085191,53,271,578,5520
1644161133.899394,-0.010437,0.008362,-0.994934,0.205588,0.340763,-0.039389,54,280,577,5536
1644161133.94921,-0.012939,0.008911,-0.992676,0.144519,0.462901,-0.069924,52,273,577,5536
1644161134.050765,-0.013245,0.011047,-0.994568,0.297191,0.279695,-0.054656,46,279,580,5536
1644161134.092942,-0.012024,0.009583,-0.991699,0.190321,0.417099,-0.25313,54,265,572,5472
1644161134.141305,-0.009094,0.009277,-0.99115,0.190321,0.386565,0.006412,46,281,576,5552
1644161134.189688,-0.010803,0.007141,-0.992493,0.052916,0.417099,-0.192061,51,271,576,5536
1644161134.238075,-0.008606,0.012817,-0.992432,0.281924,0.493435,-0.039389,47,280,579,5488
1644161134.286463,-0.013611,0.010986,-0.990417,0.144519,0.478168,-0.222595,53,288,583,5552
1644161134.334867,-0.010437,0.008789,-0.993164,0.190321,0.264427,-0.192061,62,276,580,5520
1644161134.383255,-0.008972,0.009094,-0.992371,0.266656,0.279695,0.036947,64,265,575,5472
1644161134.431614,-0.010864,0.009338,-0.994446,0.327725,0.447634,-0.115725,49,287,572,5456
1644161134.480021,-0.011169,0.008118,-0.993164,0.419328,0.478168,-0.085191,61,275,575,5472
1644161134.528402,-0.009521,0.008179,-0.994141,0.266656,0.432366,0.082748,53,276,566,5536
1644161134.576802,-0.009644,0.012512,-0.98999,0.281924,0.417099,-0.176794,49,270,579,5536
1644161134.625265,-0.006897,0.009399,-0.994019,0.098718,0.447634,-0.115725,60,274,569,5472
1644161134.674334,-0.009338,0.008911,-0.993164,0.220855,0.447634,-0.008855,49,268,568,5536
1644161134.723541,-0.01178,0.008911,-0.992981,0.297191,0.462901,-0.161527,52,275,579,5488
1644161134.773875,-0.010376,0.009521,-0.992676,0.175053,0.310229,0.021679,47,270,589,5456
1644161134.818782,-0.010986,0.012817,-0.989319,0.144519,0.188092,-0.192061,54,273,572,5536
1644161134.915545,-0.012329,0.007202,-0.990417,0.175053,0.615573,-0.100458,47,270,568,5456
1644161134.963932,-0.010986,0.009583,-0.99231,0.175053,0.356031,-0.130992,46,281,580,5520
1644161135.012422,-0.008484,0.009827,-0.993164,0.220855,0.615573,0.021679,46,274,573,5472
1644161135.060812,-0.009583,0.010315,-0.989197,0.098718,0.539237,0.006412,54,285,572,5536
1644161135.109069,-0.012268,0.00824,-0.990601,0.205588,0.432366,-0.039389,41,276,569,5552
1644161135.157464,-0.013184,0.010376,-0.991882,0.175053,0.340763,-0.085191,59,273,572,5456
1644161135.205867,-0.011108,0.012451,-0.990906,0.312458,0.386565,-0.085191,55,281,569,5584
1644161135.254244,-0.011353,0.011169,-0.991516,0.113985,0.356031,-0.024122,51,279,569,5488
1644161135.302652,-0.007935,0.009583,-0.993835,0.434595,0.539237,-0.039389,51,274,573,5472
1644161135.351002,-0.01001,0.010254,-0.991028,0.297191,0.493435,-0.176794,54,273,582,5424
1644161135.399431,-0.01123,0.009705,-0.990662,0.373527,0.447634,-0.192061,57,280,570,5536
1644161135.447806,-0.008789,0.012268,-0.992554,0.205588,0.340763,-0.008855,58,266,576,5584
1644161135.496201,-0.009583,0.008484,-0.989929,0.281924,0.447634,-0.176794,54,273,577,5520
1644161135.544632,-0.012024,0.010498,-0.993286,0.404061,0.356031,0.021679,36,276,580,5552
1644161135.593001,-0.009766,0.008972,-0.990356,0.373527,0.508702,0.052214,55,281,583,5552
1644161135.641372,-0.011902,0.009216,-0.993652,0.144519,0.523969,-0.024122,49,273,563,5584
1644161135.689766,-0.00885,0.009949,-0.990845,0.205588,0.478168,0.006412,62,276,580,5536
1644161135.738151,-0.01178,0.009888,-0.991333,0.373527,0.325496,-0.054656,43,276,576,5552
1644161135.787145,-0.008789,0.009155,-0.993408,0.373527,0.340763,-0.192061,47,280,577,5472
1644161135.83779,-0.010742,0.008728,-0.994385,0.113985,0.447634,0.036947,43,281,572,5536
1644161135.888102,-0.009094,0.009583,-0.991638,0.205588,0.386565,0.036947,61,273,575,5536
1644161135.93255,-0.014954,0.010559,-0.992676,0.236122,0.462901,-0.115725,55,264,571,5456
1644161136.028524,-0.011658,0.006958,-0.99353,0.175053,0.600305,-0.069924,58,288,576,5552
1644161136.07705,-0.011292,0.011292,-0.992493,0.297191,0.325496,-0.100458,41,279,580,5536
1644161136.125232,-0.01239,0.011475,-0.992126,0.220855,0.539237,-0.069924,47,277,572,5536
1644161136.173654,-0.012817,0.006409,-0.994263,0.35826,0.401832,-0.008855,51,274,580,5552
1644161136.222043,-0.012512,0.009338,-0.993225,0.144519,0.371298,-0.161527,43,264,580,5472
1644161136.270405,-0.014343,0.007446,-0.992493,0.220855,0.417099,-0.161527,55,276,576,5536
1644161136.318797,-0.010559,0.006348,-0.992065,0.327725,0.310229,-0.14626,51,269,571,5472
1644161136.367209,-0.010742,0.007263,-0.991028,0.220855,0.417099,-0.130992,55,286,569,5424
1644161136.415609,-0.009155,0.010559,-0.994568,0.251389,0.356031,-0.024122,46,271,573,5520
1644161136.464007,-0.010193,0.008606,-0.994751,0.419328,0.340763,-0.25313,43,271,569,5536
1644161136.512388,-0.011292,0.006836,-0.99469,0.266656,0.493435,-0.024122,58,276,569,5552
1644161136.560773,-0.010498,0.006836,-0.991882,0.205588,0.340763,-0.069924,49,280,568,5520
1644161136.609158,-0.013123,0.006897,-0.994019,0.281924,0.447634,-0.115725,49,277,575,5552
1644161136.657554,-0.014099,0.010193,-0.992859,0.159786,0.447634,-0.192061,60,266,576,5520
1644161136.705957,-0.012024,0.009277,-0.992859,0.404061,0.432366,-0.069924,52,268,568,5552
1644161136.754324,-0.009399,0.007568,-0.991516,0.312458,0.478168,0.021679,49,280,579,5536
1644161136.802787,-0.011292,0.008667,-0.993286,0.251389,0.432366,0.021679,52,280,589,5536
1644161136.851161,-0.008911,0.006226,-0.991089,0.236122,0.401832,0.021679,51,271,578,5488
1644161136.899535,-0.012268,0.00885,-0.99353,0.236122,0.478168,-0.039389,52,265,577,5536
1644161136.949189,-0.011719,0.008179,-0.990356,0.312458,0.371298,-0.069924,58,281,578,5472
1644161137.05413,-0.010864,0.007141,-0.994141,0.190321,0.478168,-0.100458,45,285,577,5520
1644161137.093088,-0.011292,0.009399,-0.994629,0.205588,0.371298,-0.039389,52,273,586,5552
1644161137.141428,-0.012207,0.008545,-0.992676,0.144519,0.478168,-0.176794,49,273,575,5488
1644161137.189822,-0.010742,0.005005,-0.991089,0.175053,0.462901,-0.100458,52,275,579,5584
1644161137.238231,-0.01239,0.009277,-0.991028,0.266656,0.371298,-0.024122,52,270,568,5472
1644161137.286618,-0.012512,0.009888,-0.992126,0.159786,0.386565,-0.039389,53,281,576,5536
1644161137.335137,-0.013184,0.008728,-0.993042,0.281924,0.462901,-0.14626,54,285,577,5600
1644161137.383417,-0.00946,0.008545,-0.991699,0.144519,0.462901,-0.161527,48,276,578,5472
1644161137.431792,-0.010254,0.005432,-0.99115,0.266656,0.401832,-0.115725,49,268,575,5472
1644161137.480177,-0.011475,0.005737,-0.991455,0.236122,0.417099,-0.069924,57,277,582,5536
1644161137.528573,-0.010559,0.00592,-0.993896,0.08345,0.478168,-0.100458,54,282,586,5488
1644161137.576962,-0.012512,0.00769,-0.992004,0.236122,0.340763,-0.130992,49,270,584,5520
1644161137.62536,-0.01123,0.009094,-0.992798,0.236122,0.417099,-0.024122,51,286,580,5520
1644161137.673747,-0.00946,0.006958,-0.991211,0.113985,0.386565,-0.100458,59,275,591,5488
1644161137.722202,-0.011536,0.008789,-0.992554,0.342992,0.371298,0.006412,54,273,570,5552
1644161137.77191,-0.01001,0.006714,-0.991516,0.190321,0.447634,-0.176794,49,273,572,5456
1644161137.823668,-0.012024,0.008362,-0.991943,0.297191,0.340763,-0.024122,52,275,570,5536
1644161137.868071,-0.010193,0.007935,-0.995056,0.190321,0.264427,-0.115725,52,268,572,5536
1644161137.964154,-0.011536,0.007874,-0.9953,0.449863,0.325496,-0.039389,45,270,579,5472
1644161138.012511,-0.010864,0.009888,-0.993713,0.342992,0.539237,-0.054656,54,277,584,5488
1644161138.060944,-0.011353,0.008423,-0.992798,0.129252,0.447634,-0.115725,42,273,575,5536
1644161138.109283,-0.010559,0.009399,-0.991333,0.220855,0.356031,-0.298931,52,275,570,5488
1644161138.15764,-0.008118,0.009949,-0.994385,0.220855,0.478168,-0.130992,48,264,573,5472
1644161138.206024,-0.012329,0.010437,-0.993469,0.236122,0.386565,-0.161527,53,271,576,5456
1644161138.254384,-0.009888,0.008911,-0.993286,0.342992,0.508702,-0.039389,46,276,578,5488
1644161138.302832,-0.011292,0.009949,-0.99054,0.404061,0.493435,-0.100458,55,271,576,5536
1644161138.351203,-0.011719,0.007385,-0.991272,0.220855,0.356031,-0.054656,57,273,575,5488
1644161138.399571,-0.009705,0.008667,-0.994873,0.144519,0.432366,-0.039389,51,262,578,5536
1644161138.447984,-0.009583,0.009644,-0.992737,0.205588,0.371298,-0.14626,43,276,576,5488
1644161138.496343,-0.010559,0.009827,-0.99292,0.220855,0.279695,-0.100458,60,279,569,5536
1644161138.544774,-0.013,0.006714,-0.99408,0.220855,0.569771,-0.085191,54,273,577,5536
1644161138.59317,-0.009827,0.009094,-0.992432,0.205588,0.447634,-0.085191,46,274,576,5456
1644161138.641538,-0.008423,0.01001,-0.992676,0.220855,0.417099,-0.192061,57,280,579,5456
1644161138.689927,-0.010864,0.009277,-0.994141,0.205588,0.508702,-0.207328,57,263,582,5520
1644161138.738289,-0.011536,0.01001,-0.989868,0.281924,0.371298,-0.298931,62,279,576,5520
1644161138.786717,-0.011475,0.009094,-0.993652,0.312458,0.401832,-0.054656,52,273,582,5536
1644161138.835736,-0.012146,0.010254,-0.992493,0.098718,0.356031,-0.100458,57,273,577,5536
1644161138.885709,-0.011353,0.007385,-0.991638,0.281924,0.417099,-0.039389,49,268,586,5584
1644161138.936798,-0.008057,0.007568,-0.993774,0.220855,0.356031,-0.100458,58,279,578,5536
1644161138.980354,-0.010498,0.009033,-0.990356,0.404061,0.432366,-0.085191,52,270,575,5520
1644161139.077805,-0.011047,0.00647,-0.990479,0.35826,0.493435,-0.192061,51,281,578,5536
1644161139.125476,-0.011353,0.009888,-0.992981,0.388794,0.340763,-0.130992,51,281,573,5472
1644161139.173826,-0.008545,0.00946,-0.990417,0.205588,0.386565,-0.039389,42,273,582,5488
1644161139.22238,-0.008789,0.010132,-0.991882,0.266656,0.371298,0.021679,55,276,571,5520
1644161139.27058,-0.011169,0.011108,-0.993469,0.175053,0.356031,-0.130992,57,280,572,5456
1644161139.318999,-0.006653,0.007202,-0.991516,0.251389,0.447634,-0.237863,53,264,580,5520
1644161139.367381,-0.009399,0.008423,-0.992065,0.266656,0.523969,0.021679,53,281,576,5456
1644161139.415776,-0.011353,0.008423,-0.991638,0.281924,0.493435,-0.100458,53,271,571,5472
1644161139.464176,-0.011536,0.009155,-0.99176,0.312458,0.447634,-0.100458,52,270,582,5536
1644161139.512557,-0.009399,0.009338,-0.990051,0.327725,0.432366,-0.115725,54,277,575,5520
1644161139.560942,-0.011841,0.009155,-0.993225,0.266656,0.478168,-0.039389,49,277,586,5488
1644161139.60933,-0.013245,0.010437,-0.993835,0.236122,0.462901,-0.130992,45,277,582,5552
1644161139.65772,-0.014282,0.01062,-0.99231,0.297191,0.386565,0.052214,48,276,576,5488
1644161139.706099,-0.011597,0.005737,-0.992737,0.342992,0.508702,-0.054656,55,274,578,5472
1644161139.754474,-0.011047,0.008911,-0.99115,0.251389,0.508702,-0.192061,54,282,577,5536
1644161139.802899,-0.010498,0.008423,-0.991089,0.281924,0.325496,-0.085191,53,281,578,5488
1644161139.851333,-0.011536,0.008789,-0.990173,0.159786,0.462901,0.098015,53,264,583,5536
1644161139.900075,-0.011536,0.008423,-0.995361,0.144519,0.447634,-0.268397,47,270,584,5552
1644161139.948138,-0.010132,0.010071,-0.993591,0.236122,0.478168,0.006412,53,269,585,5536
1644161139.998148,-0.010498,0.010742,-0.993225,0.159786,0.325496,-0.085191,47,268,572,5472
1644161140.093304,-0.010376,0.00946,-0.992188,0.220855,0.386565,-0.14626,53,271,585,5536
1644161140.141657,-0.009766,0.010559,-0.992432,0.251389,0.417099,-0.130992,49,280,575,5424
1644161140.190014,-0.009338,0.009583,-0.992126,0.220855,0.340763,-0.207328,52,270,572,5536
1644161140.238402,-0.012024,0.006653,-0.992798,0.281924,0.356031,-0.039389,49,277,579,5536
1644161140.286771,-0.012085,0.010254,-0.995911,0.327725,0.325496,-0.25313,58,279,576,5488
1644161140.33527,-0.007874,0.01062,-0.992798,0.297191,0.371298,-0.039389,47,285,577,5488
1644161140.383585,-0.01123,0.009949,-0.989624,0.236122,0.462901,-0.14626,47,277,577,5488
1644161140.431967,-0.010803,0.010742,-0.992249,0.113985,0.508702,-0.14626,58,266,571,5520
1644161140.480337,-0.010742,0.009338,-0.993103,0.175053,0.447634,-0.039389,55,271,583,5536
1644161140.528743,-0.009277,0.009949,-0.992554,0.342992,0.417099,-0.115725,54,270,584,5520
1644161140.57713,-0.011047,0.008789,-0.99231,0.388794,0.371298,-0.054656,48,264,566,5456
1644161140.625524,-0.012207,0.007935,-0.990784,0.08345,0.356031,-0.069924,52,290,570,5456
1644161140.673926,-0.011963,0.008789,-0.990723,0.266656,0.417099,-0.069924,48,269,578,5584
1644161140.723905,-0.010437,0.010193,-0.991577,0.190321,0.386565,-0.069924,49,263,575,5472
1644161140.774048,-0.009888,0.011963,-0.992615,0.220855,0.432366,-0.192061,42,270,577,5456
1644161140.824293,-0.009399,0.01123,-0.99176,0.205588,0.523969,-0.192061,59,270,575,5552
1644161140.915884,-0.010254,0.007141,-0.991699,0.251389,0.462901,-0.192061,57,263,582,5536
1644161140.964292,-0.007507,0.009949,-0.992981,0.205588,0.401832,-0.222595,40,277,568,5536
1644161141.012674,-0.013733,0.009399,-0.992126,0.236122,0.386565,0.006412,57,277,565,5472
1644161141.061108,-0.011902,0.012451,-0.989807,0.327725,0.569771,-0.161527,53,271,580,5536
1644161141.109384,-0.011047,0.011536,-0.991943,0.190321,0.478168,-0.024122,58,269,585,5536
1644161141.157797,-0.01001,0.010681,-0.995361,0.175053,0.386565,-0.054656,42,270,582,5472
1644161141.206188,-0.010559,0.008301,-0.990417,0.281924,0.386565,-0.161527,47,277,572,5456
1644161141.254631,-0.010559,0.009277,-0.993408,0.251389,0.310229,-0.115725,47,275,575,5488
1644161141.302958,-0.010559,0.010193,-0.994507,0.220855,0.310229,-0.176794,57,275,593,5456
1644161141.351344,-0.011108,0.007874,-0.994385,0.144519,0.340763,-0.176794,51,281,573,5536
1644161141.399759,-0.008667,0.007812,-0.992737,0.220855,0.417099,-0.039389,43,271,578,5456
1644161141.448151,-0.009949,0.010437,-0.991943,0.236122,0.417099,-0.192061,55,271,578,5472
1644161141.496523,-0.010193,0.007446,-0.99231,0.236122,0.569771,-0.130992,53,266,573,5520
1644161141.545041,-0.012085,0.007812,-0.992737,0.129252,0.356031,-0.054656,54,277,579,5536
1644161141.593317,-0.012573,0.009338,-0.989624,0.266656,0.432366,0.12855,51,276,578,5536
1644161141.641707,-0.011475,0.00946,-0.994507,0.175053,0.615573,-0.130992,51,276,569,5536
1644161141.690089,-0.011597,0.007935,-0.991943,0.266656,0.310229,0.052214,47,277,579,5520
1644161141.738489,-0.007568,0.011353,-0.991699,0.190321,0.340763,-0.085191,53,276,580,5488
1644161141.786918,-0.012512,0.010986,-0.993591,0.144519,0.294962,-0.115725,60,274,578,5472
1644161141.837159,-0.012329,0.010498,-0.991821,-0.008153,0.432366,-0.100458,54,273,579,5536
1644161141.88791,-0.008728,0.010559,-0.99353,0.220855,0.401832,-0.130992,61,270,577,5456
1644161141.938134,-0.012756,0.008118,-0.994263,0.342992,0.386565,-0.008855,48,271,566,5536
1644161142.028888,-0.010559,0.009644,-0.992371,0.281924,0.417099,0.006412,49,282,577,5536
1644161142.079338,-0.008789,0.011353,-0.992004,0.08345,0.371298,0.006412,52,280,572,5536
1644161142.125595,-0.011902,0.010376,-0.992615,0.404061,0.371298,0.067481,61,275,582,5536
1644161142.173986,-0.009338,0.009338,-0.990906,0.251389,0.417099,-0.14626,57,275,572,5536
1644161142.222391,-0.01239,0.009583,-0.994751,0.281924,0.417099,-0.085191,60,269,580,5488
1644161142.270755,-0.012939,0.009155,-0.99408,0.281924,0.24916,-0.130992,57,275,575,5536
1644161142.319164,-0.009827,0.01001,-0.992126,0.113985,0.508702,0.052214,53,279,566,5488
1644161142.367563,-0.009338,0.008179,-0.991943,0.205588,0.432366,-0.14626,51,264,578,5488
1644161142.415949,-0.008667,0.009277,-0.996521,0.037649,0.478168,-0.100458,55,271,571,5488
1644161142.464342,-0.011719,0.011963,-0.990356,0.434595,0.386565,-0.008855,55,274,576,5552
1644161142.512731,-0.010254,0.006836,-0.992249,0.251389,0.462901,-0.176794,52,280,570,5536
1644161142.561117,-0.013,0.010315,-0.991333,0.08345,0.508702,-0.25313,67,276,566,5536
1644161142.609468,-0.013367,0.007874,-0.991516,0.266656,0.356031,-0.008855,55,274,583,5536
1644161142.657884,-0.012878,0.00946,-0.992188,0.266656,0.417099,-0.085191,49,277,572,5424
1644161142.706285,-0.009155,0.008057,-0.993896,0.220855,0.386565,-0.085191,49,270,577,5536
1644161142.754726,-0.009338,0.010437,-0.992126,0.312458,0.523969,-0.14626,60,283,573,5536
1644161142.803073,-0.011963,0.005615,-0.994324,0.205588,0.417099,-0.14626,53,271,583,5536
1644161142.851486,-0.012451,0.007874,-0.992737,0.266656,0.600305,-0.115725,48,269,585,5424
1644161142.899898,-0.009338,0.011414,-0.99353,0.251389,0.447634,-0.100458,49,285,575,5536
1644161142.949352,-0.012146,0.009583,-0.991333,0.205588,0.340763,-0.25313,54,265,586,5472
1644161143.053692,-0.010498,0.009216,-0.992859,0.251389,0.432366,-0.192061,57,280,589,5424
1644161143.093416,-0.012268,0.008118,-0.993469,0.251389,0.554504,-0.024122,53,276,590,5456
1644161143.141792,-0.012512,0.011597,-0.994263,0.236122,0.294962,-0.176794,46,266,576,5552
1644161143.190186,-0.011169,0.007751,-0.991943,0.220855,0.386565,-0.039389,46,276,576,5552
1644161143.238581,-0.011902,0.010925,-0.991272,0.190321,0.417099,-0.161527,59,282,572,5536
1644161143.286971,-0.009583,0.01178,-0.994141,0.144519,0.340763,-0.039389,49,273,570,5520
1644161143.335358,-0.01001,0.009949,-0.99176,0.220855,0.310229,-0.176794,59,275,584,5456
1644161143.383757,-0.013184,0.007629,-0.992615,0.327725,0.24916,-0.115725,51,281,573,5552
1644161143.432387,-0.009644,0.00824,-0.993225,0.236122,0.539237,-0.085191,43,269,569,5488
1644161143.480528,-0.011353,0.007935,-0.993469,0.190321,0.356031,-0.192061,47,268,584,5472
1644161143.528914,-0.010132,0.006714,-0.990723,0.205588,0.294962,-0.222595,55,266,573,5536
1644161143.577296,-0.01355,0.009277,-0.992188,0.144519,0.325496,-0.039389,57,280,572,5584
1644161143.625678,-0.01001,0.007507,-0.99054,0.175053,0.340763,-0.176794,53,274,583,5488
1644161143.674371,-0.010376,0.009277,-0.993591,0.190321,0.325496,-0.085191,40,270,586,5456
1644161143.72367,-0.011719,0.007812,-0.990845,0.113985,0.523969,-0.069924,55,281,580,5488
1644161143.774009,-0.010681,0.007019,-0.99115,0.220855,0.264427,-0.176794,57,275,572,5472
1644161143.825233,-0.014526,0.007812,-0.99408,0.220855,0.340763,0.12855,49,275,579,5520
1644161143.916051,-0.010986,0.008789,-0.99054,0.068183,0.462901,-0.069924,43,269,571,5472
1644161143.964466,-0.008789,0.009888,-0.993469,0.205588,0.340763,-0.222595,51,271,576,5536
1644161144.012835,-0.010193,0.011047,-0.991394,0.312458,0.401832,-0.115725,40,280,568,5536
1644161144.061303,-0.013245,0.008606,-0.991455,0.190321,0.447634,-0.161527,43,269,571,5536
1644161144.109624,-0.010315,0.009644,-0.991821,0.220855,0.539237,-0.192061,46,274,566,5472
1644161144.157977,-0.012878,0.007202,-0.991455,0.236122,0.462901,-0.085191,48,279,571,5584
1644161144.206358,-0.012085,0.008362,-0.991577,0.190321,0.279695,0.067481,53,279,580,5456
1644161144.254751,-0.005981,0.008728,-0.993835,0.052916,0.356031,-0.161527,55,271,578,5520
1644161144.303162,-0.012573,0.006592,-0.993103,0.251389,0.356031,-0.14626,53,279,578,5536
1644161144.351556,-0.013306,0.008606,-0.990723,0.251389,0.417099,-0.130992,48,269,576,5552
1644161144.399969,-0.011902,0.00592,-0.992065,0.251389,0.478168,0.021679,58,269,571,5488
1644161144.448327,-0.011963,0.009094,-0.994263,0.236122,0.523969,0.006412,57,258,577,5552
1644161144.49668,-0.011597,0.010193,-0.991882,0.190321,0.401832,-0.024122,48,271,569,5472
1644161144.545128,-0.01062,0.011292,-0.992859,0.35826,0.356031,-0.024122,48,276,585,5536
1644161144.593486,-0.008362,0.005676,-0.992065,0.266656,0.264427,-0.176794,49,270,582,5456
1644161144.64185,-0.008362,0.009216,-0.993042,0.342992,0.432366,-0.161527,58,281,580,5424
1644161144.690257,-0.011841,0.009033,-0.99353,0.220855,0.356031,-0.039389,53,276,573,5488
1644161144.738659,-0.012024,0.008545,-0.993652,0.190321,0.493435,-0.069924,47,280,575,5536
1644161144.787065,-0.01062,0.009705,-0.990051,0.342992,0.417099,-0.130992,54,268,584,5536
1644161144.837764,-0.010254,0.009949,-0.992737,0.297191,0.432366,-0.161527,52,268,575,5536
1644161144.887775,-0.009827,0.007874,-0.992004,0.205588,0.340763,-0.130992,51,274,587,5456
1644161144.938668,-0.010193,0.008484,-0.99231,0.281924,0.432366,-0.130992,52,270,584,5536
1644161145.029021,-0.01532,0.008301,-0.992371,0.144519,0.340763,-0.192061,52,277,579,5552
1644161145.078032,-0.009277,0.007446,-0.99408,0.327725,0.356031,-0.024122,45,275,572,5472
1644161145.125758,-0.012329,0.00946,-0.992737,0.205588,0.417099,-0.14626,53,271,569,5520
1644161145.174174,-0.009521,0.007202,-0.992554,0.068183,0.432366,-0.192061,43,281,576,5536
1644161145.222583,-0.010498,0.007751,-0.992371,0.190321,0.340763,-0.207328,51,269,576,5552
1644161145.270953,-0.011169,0.008057,-0.994019,0.205588,0.417099,-0.130992,48,279,576,5536
1644161145.319342,-0.010437,0.007812,-0.992126,0.251389,0.432366,-0.024122,53,274,564,5536
1644161145.367736,-0.010315,0.007568,-0.992676,0.159786,0.493435,-0.085191,53,266,576,5488
1644161145.416113,-0.011536,0.010437,-0.991699,0.236122,0.356031,-0.115725,54,275,572,5536
1644161145.46453,-0.011353,0.008545,-0.993713,0.388794,0.340763,0.021679,46,281,578,5536
1644161145.512897,-0.010437,0.009399,-0.992859,0.129252,0.386565,-0.130992,57,275,577,5536
1644161145.561296,-0.008911,0.010071,-0.994751,0.342992,0.340763,-0.054656,59,273,575,5536
1644161145.609684,-0.011475,0.008789,-0.989563,0.312458,0.279695,-0.268397,51,274,564,5536
1644161145.658071,-0.008301,0.007935,-0.990784,0.205588,0.279695,-0.115725,51,274,578,5536
1644161145.706458,-0.011658,0.01062,-0.991028,0.022382,0.340763,-0.039389,55,276,576,5536
1644161145.754916,-0.012817,0.006836,-0.991638,0.052916,0.310229,-0.100458,43,288,566,5488
1644161145.803237,-0.013855,0.008301,-0.992615,0.175053,0.493435,-0.039389,57,282,586,5488
1644161145.85175,-0.012451,0.006836,-0.989502,0.175053,0.447634,-0.024122,52,273,575,5536
1644161145.900077,-0.013306,0.007202,-0.993103,0.190321,0.554504,-0.161527,60,274,578,5552
1644161145.949911,-0.009338,0.006653,-0.991089,0.129252,0.356031,-0.14626,41,271,571,5456
1644161146.054869,-0.010864,0.009338,-0.991943,0.297191,0.386565,-0.100458,59,280,570,5488
1644161146.093604,-0.010193,0.007568,-0.991028,0.129252,0.325496,-0.176794,58,281,576,5520
1644161146.141994,-0.011719,0.008301,-0.994812,0.251389,0.508702,-0.008855,52,270,572,5536
1644161146.190351,-0.008484,0.007019,-0.990601,0.175053,0.371298,-0.161527,52,282,572,5488
1644161146.238751,-0.009399,0.007385,-0.992004,0.220855,0.279695,-0.130992,39,281,578,5488
1644161146.287133,-0.010315,0.011108,-0.992249,0.175053,0.508702,0.021679,52,270,572,5472
1644161146.335527,-0.010315,0.007996,-0.991333,0.129252,0.386565,-0.192061,46,274,566,5456
1644161146.383934,-0.008667,0.012451,-0.991089,0.236122,0.386565,-0.222595,53,283,578,5456
1644161146.432316,-0.012085,0.009094,-0.992004,0.236122,0.478168,-0.192061,54,273,570,5536
1644161146.480686,-0.011414,0.011475,-0.991516,0.220855,0.508702,-0.039389,58,269,573,5536
1644161146.529076,-0.011292,0.011047,-0.991577,0.281924,0.371298,-0.237863,59,270,584,5472
1644161146.577469,-0.009216,0.01123,-0.992676,0.266656,0.386565,-0.115725,49,285,582,5536
1644161146.625852,-0.010193,0.009216,-0.993591,0.327725,0.493435,-0.039389,51,276,580,5520
1644161146.674252,-0.010132,0.00824,-0.993774,0.129252,0.325496,-0.085191,54,277,570,5488
1644161146.723046,-0.012817,0.006409,-0.992004,0.266656,0.401832,0.098015,60,283,583,5552
1644161146.773186,-0.009949,0.008484,-0.992371,0.281924,0.432366,-0.237863,54,273,582,5488
1644161146.823259,-0.011902,0.006348,-0.994263,0.404061,0.462901,-0.14626,55,279,576,5536
1644161146.869334,-0.012573,0.009583,-0.991638,0.388794,0.462901,-0.115725,53,279,578,5520
1644161146.964732,-0.008972,0.00885,-0.991272,0.144519,0.386565,-0.161527,61,275,577,5520
1644161147.013003,-0.010071,0.011169,-0.99231,0.281924,0.371298,-0.024122,49,285,575,5536
1644161147.061466,-0.009277,0.009705,-0.994995,0.297191,0.432366,-0.237863,58,279,580,5536
1644161147.109768,-0.01355,0.009399,-0.994385,0.144519,0.417099,-0.024122,38,270,577,5472
1644161147.15814,-0.010071,0.008972,-0.990112,0.190321,0.523969,-0.176794,40,273,577,5488
1644161147.206528,-0.014038,0.009766,-0.992859,0.236122,0.462901,-0.14626,51,271,578,5600
1644161147.25491,-0.009705,0.006226,-0.992371,0.251389,0.447634,-0.100458,60,281,573,5472
1644161147.303322,-0.011353,0.008057,-0.993958,0.236122,0.310229,-0.176794,54,277,570,5536
1644161147.351715,-0.009766,0.010925,-0.992126,0.342992,0.371298,-0.161527,66,265,579,5584
1644161147.400098,-0.012146,0.00824,-0.990417,0.281924,0.432366,-0.085191,59,280,572,5536
1644161147.448479,-0.011047,0.009583,-0.995544,0.297191,0.386565,-0.130992,48,276,578,5536
1644161147.49685,-0.011963,0.007629,-0.992065,0.190321,0.462901,-0.100458,54,268,570,5536
1644161147.54529,-0.010559,0.007874,-0.991272,0.281924,0.447634,-0.176794,40,285,577,5456
1644161147.593684,-0.01062,0.009583,-0.991028,0.266656,0.356031,-0.115725,53,279,578,5536
1644161147.642052,-0.014221,0.008057,-0.992737,0.327725,0.401832,-0.054656,54,263,577,5456
1644161147.690439,-0.010254,0.009094,-0.991516,0.220855,0.493435,-0.130992,51,274,578,5536
1644161147.738828,-0.013489,0.010071,-0.990112,0.113985,0.508702,-0.008855,57,275,570,5536
1644161147.787604,-0.012207,0.009766,-0.994019,0.113985,0.432366,-0.039389,55,274,583,5536
1644161147.835647,-0.010254,0.011047,-0.99231,0.220855,0.417099,-0.039389,59,273,577,5552
1644161147.885411,-0.011597,0.008667,-0.992859,0.480397,0.523969,-0.222595,52,270,575,5552
1644161147.936316,-0.010986,0.010071,-0.992737,0.190321,0.508702,-0.024122,53,281,583,5536
1644161147.986184,-0.011658,0.008789,-0.993164,0.251389,0.310229,-0.192061,51,276,576,5488
1644161148.077689,-0.010254,0.008545,-0.989075,0.175053,0.478168,0.021679,49,275,586,5472
1644161148.125937,-0.015625,0.010803,-0.992249,0.205588,0.508702,-0.069924,47,280,575,5520
1644161148.174342,-0.009949,0.005981,-0.992126,0.129252,0.432366,-0.039389,52,270,575,5520
1644161148.222719,-0.010986,0.005432,-0.992249,0.281924,0.432366,-0.161527,54,275,575,5536
1644161148.271119,-0.01001,0.009949,-0.990173,0.35826,0.386565,-0.008855,46,276,578,5472
1644161148.319495,-0.011292,0.00885,-0.991882,0.129252,0.462901,-0.115725,51,266,564,5456
1644161148.367887,-0.010437,0.011475,-0.993835,0.312458,0.478168,-0.115725,61,268,577,5584
1644161148.416274,-0.011292,0.00769,-0.994507,0.220855,0.508702,-0.039389,48,283,573,5424
1644161148.464676,-0.012146,0.007263,-0.992737,0.297191,0.371298,-0.176794,58,279,576,5456
1644161148.513081,-0.011047,0.007996,-0.992371,0.342992,0.386565,0.036947,58,274,580,5472
1644161148.561457,-0.012146,0.00824,-0.992676,0.404061,0.310229,-0.054656,55,274,569,5520
1644161148.609836,-0.011658,0.008179,-0.993713,0.220855,0.508702,-0.054656,48,281,578,5536
1644161148.658224,-0.012146,0.009277,-0.991638,0.159786,0.386565,0.006412,42,282,586,5552
1644161148.706629,-0.008362,0.008423,-0.992065,0.251389,0.401832,-0.085191,53,279,583,5472
1644161148.755157,-0.011841,0.006836,-0.994141,0.175053,0.493435,-0.207328,48,274,580,5584
1644161148.803463,-0.009949,0.009216,-0.995056,0.251389,0.493435,-0.069924,49,268,577,5520
1644161148.851824,-0.010071,0.006958,-0.990112,0.281924,0.401832,-0.115725,52,275,586,5536
1644161148.900203,-0.013489,0.00824,-0.99353,0.113985,0.386565,-0.25313,49,273,577,5472
1644161148.948623,-0.011719,0.007874,-0.993896,0.220855,0.371298,-0.054656,46,274,578,5456
1644161148.997972,-0.009644,0.007507,-0.992676,0.236122,0.478168,-0.161527,47,270,577,5488
1644161149.093749,-0.01001,0.00946,-0.994324,0.159786,0.371298,-0.176794,57,270,591,5488
1644161149.142404,-0.009888,0.011169,-0.989746,0.068183,0.478168,-0.024122,47,265,582,5520
1644161149.190525,-0.010376,0.012268,-0.994385,0.220855,0.462901,-0.085191,52,275,584,5600
1644161149.238887,-0.010376,0.008789,-0.992188,0.342992,0.523969,-0.069924,53,279,573,5472
1644161149.287312,-0.008667,0.010193,-0.991943,0.281924,0.264427,-0.130992,48,266,566,5488
1644161149.335688,-0.013916,0.008728,-0.993042,0.129252,0.340763,-0.130992,48,271,583,5536
1644161149.3841,-0.011536,0.008789,-0.992126,0.175053,0.462901,-0.039389,53,269,578,5472
1644161149.432901,-0.012268,0.006531,-0.988403,0.190321,0.340763,-0.100458,47,285,565,5536
1644161149.480864,-0.010681,0.006531,-0.993286,0.251389,0.325496,-0.054656,39,288,566,5520
1644161149.529252,-0.011536,0.008057,-0.99115,0.373527,0.508702,-0.130992,46,276,578,5520
1644161149.577649,-0.011414,0.007202,-0.992981,0.236122,0.279695,-0.039389,55,276,576,5536
1644161149.626028,-0.009888,0.009399,-0.993225,0.251389,0.569771,-0.024122,48,279,571,5488
1644161149.67441,-0.011536,0.008545,-0.99176,0.220855,0.478168,0.098015,51,274,576,5488
1644161149.722829,-0.009827,0.00885,-0.992432,0.449863,0.401832,-0.069924,52,270,582,5520
1644161149.771194,-0.01001,0.006042,-0.994995,0.159786,0.386565,-0.161527,45,263,586,5488
1644161149.819646,-0.010681,0.008545,-0.993591,0.129252,0.447634,-0.115725,51,274,583,5536
1644161149.868815,-0.010681,0.008301,-0.993591,0.297191,0.478168,-0.115725,54,287,572,5488
1644161149.919456,-0.011108,0.010437,-0.994568,0.236122,0.294962,-0.054656,53,274,573,5520
1644161149.969336,-0.012268,0.008545,-0.990906,0.297191,0.356031,-0.237863,62,274,573,5488
1644161150.014017,-0.013855,0.006958,-0.991638,0.35826,0.310229,-0.130992,59,273,582,5552
1644161150.109915,-0.011169,0.007141,-0.994568,0.205588,0.401832,-0.085191,46,274,576,5552
1644161150.158299,-0.012756,0.009766,-0.992371,0.052916,0.356031,-0.115725,60,269,573,5456
1644161150.206691,-0.010681,0.00946,-0.992188,0.327725,0.310229,-0.14626,49,275,577,5488
1644161150.255328,-0.010864,0.008484,-0.99176,0.266656,0.432366,-0.115725,55,274,571,5520
1644161150.303484,-0.00946,0.009888,-0.993164,0.327725,0.356031,-0.161527,51,276,576,5472
1644161150.351875,-0.009766,0.009766,-0.993103,0.312458,0.401832,-0.222595,54,268,577,5472
1644161150.400269,-0.009644,0.007874,-0.992249,0.236122,0.340763,-0.085191,58,279,569,5520
1644161150.448651,-0.012329,0.008301,-0.990723,0.190321,0.462901,-0.115725,48,279,571,5472
1644161150.497028,-0.012634,0.010864,-0.99054,0.098718,0.356031,-0.008855,57,270,582,5488
1644161150.545435,-0.010437,0.010559,-0.993042,0.342992,0.401832,-0.25313,48,279,576,5488
1644161150.593818,-0.012573,0.009155,-0.991882,0.342992,0.523969,-0.207328,42,285,575,5520
1644161150.642245,-0.01239,0.012878,-0.990417,0.236122,0.462901,0.036947,58,276,569,5520
1644161150.690614,-0.011292,0.009583,-0.989746,0.068183,0.371298,-0.085191,60,276,578,5456
1644161150.739002,-0.00946,0.008728,-0.99176,0.220855,0.478168,-0.115725,55,281,573,5488
1644161150.787404,-0.010071,0.008057,-0.991089,0.35826,0.523969,-0.039389,43,271,578,5488
1644161150.835819,-0.010376,0.007629,-0.993469,0.129252,0.447634,-0.14626,53,283,580,5536
1644161150.884202,-0.010254,0.009644,-0.99292,0.35826,0.478168,-0.100458,54,273,579,5456
1644161150.932953,-0.009705,0.007019,-0.993225,0.08345,0.539237,0.021679,45,270,586,5520
1644161150.980994,-0.009155,0.009277,-0.993591,-0.008153,0.386565,-0.100458,59,280,579,5488
1644161151.030744,-0.009521,0.009949,-0.990051,0.297191,0.523969,-0.176794,54,270,572,5552
1644161151.087945,-0.009033,0.009155,-0.990967,0.220855,0.417099,-0.085191,57,282,582,5584
1644161151.128125,-0.011536,0.010864,-0.991394,0.190321,0.554504,-0.085191,52,277,568,5536
1644161151.222889,-0.008301,0.009216,-0.992798,0.129252,0.218626,-0.039389,54,265,577,5456
1644161151.271266,-0.011536,0.011475,-0.992554,0.281924,0.569771,-0.268397,55,274,573,5456
1644161151.319679,-0.010254,0.009949,-0.992371,0.419328,0.539237,0.006412,54,275,582,5472
1644161151.368055,-0.009766,0.010437,-0.992859,0.068183,0.508702,-0.069924,53,279,580,5536
1644161151.416443,-0.010193,0.009705,-0.992981,0.236122,0.432366,-0.024122,49,275,579,5520
1644161151.464851,-0.011169,0.011292,-0.993469,0.052916,0.447634,-0.069924,51,269,578,5488
1644161151.513246,-0.010925,0.009033,-0.991394,0.266656,0.386565,-0.085191,51,269,580,5488
1644161151.561629,-0.010437,0.008972,-0.992493,0.190321,0.493435,-0.115725,54,275,572,5536
1644161151.610027,-0.013,0.009949,-0.992737,0.113985,0.508702,-0.14626,52,268,579,5536
1644161151.658405,-0.011169,0.011414,-0.988708,0.297191,0.325496,-0.207328,55,269,573,5536
1644161151.706811,-0.010559,0.009521,-0.990601,0.220855,0.371298,-0.039389,66,277,584,5488
1644161151.755418,-0.009155,0.010376,-0.992371,0.220855,0.279695,-0.130992,54,275,577,5552
1644161151.803606,-0.011841,0.009033,-0.994141,0.312458,0.371298,0.036947,58,279,580,5536
1644161151.851974,-0.01062,0.009583,-0.991272,0.236122,0.417099,-0.039389,45,275,572,5536
1644161151.900397,-0.010803,0.011414,-0.990845,0.312458,0.600305,-0.14626,47,268,568,5536
1644161151.948782,-0.013184,0.010254,-0.991394,0.175053,0.462901,-0.085191,54,285,579,5520
1644161152.046532,-0.011963,0.006897,-0.98938,0.312458,0.325496,-0.161527,55,281,578,5520
1644161152.093929,-0.011658,0.011658,-0.991211,0.35826,0.356031,-0.14626,48,276,576,5520
1644161152.142717,-0.012085,0.009521,-0.992981,0.373527,0.63084,0.006412,48,274,578,5536
1644161152.190688,-0.009583,0.007385,-0.99353,0.220855,0.417099,-0.130992,45,277,568,5472
1644161152.23908,-0.010742,0.007446,-0.991943,0.342992,0.478168,-0.085191,49,265,570,5488
1644161152.287461,-0.01062,0.010925,-0.992065,0.312458,0.478168,-0.130992,54,268,575,5536
1644161152.335849,-0.009827,0.009521,-0.991699,0.297191,0.508702,-0.192061,52,270,572,5456
1644161152.384245,-0.00885,0.010254,-0.993164,0.190321,0.508702,-0.115725,38,280,572,5536
1644161152.432658,-0.010193,0.008301,-0.991211,0.190321,0.432366,-0.25313,48,264,578,5520
1644161152.481029,-0.010132,0.009949,-0.994141,0.159786,0.539237,-0.161527,55,271,571,5472
1644161152.529423,-0.010925,0.011353,-0.991882,0.205588,0.508702,-0.192061,52,280,579,5424
1644161152.577813,-0.00647,0.010559,-0.993042,0.220855,0.401832,-0.130992,41,269,578,5456
1644161152.6262,-0.012451,0.007324,-0.993225,0.236122,0.539237,-0.039389,43,281,573,5520
1644161152.674681,-0.012878,0.008118,-0.993469,0.205588,0.264427,-0.100458,58,276,578,5456
1644161152.723005,-0.009644,0.005371,-0.990234,0.220855,0.417099,-0.161527,49,273,591,5536
1644161152.77137,-0.012146,0.010864,-0.993103,0.281924,0.325496,-0.237863,48,279,578,5488
1644161152.819765,-0.010315,0.00824,-0.992737,0.220855,0.447634,-0.069924,52,275,577,5536
1644161152.868189,-0.012268,0.011108,-0.992432,0.205588,0.447634,-0.222595,40,275,586,5536
1644161152.916757,-0.009949,0.012695,-0.994324,0.144519,0.432366,-0.115725,51,269,583,5600
1644161152.967099,-0.010925,0.009644,-0.992798,0.342992,0.447634,-0.130992,54,280,570,5536
1644161153.01752,-0.009155,0.009949,-0.992615,0.098718,0.447634,-0.14626,48,274,580,5552
1644161153.070744,-0.008789,0.008911,-0.99115,0.35826,0.386565,-0.130992,51,276,573,5536
1644161153.158508,-0.011597,0.009216,-0.993347,0.35826,0.401832,-0.176794,46,274,576,5536
1644161153.206918,-0.010132,0.008667,-0.993225,0.251389,0.523969,-0.222595,47,277,577,5456
1644161153.255289,-0.011597,0.009155,-0.994385,0.175053,0.386565,-0.161527,58,276,569,5488
1644161153.303676,-0.011719,0.010559,-0.992554,0.342992,0.386565,-0.100458,51,271,569,5520
1644161153.352081,-0.011841,0.010742,-0.992859,0.190321,0.432366,-0.222595,57,270,572,5456
1644161153.400476,-0.012024,0.00824,-0.991882,0.236122,0.508702,-0.085191,53,279,583,5552
1644161153.448873,-0.014099,0.00647,-0.994019,0.312458,0.600305,-0.115725,49,280,565,5472
1644161153.497238,-0.010315,0.007935,-0.99176,0.281924,0.585038,-0.039389,58,266,571,5424
1644161153.545646,-0.008667,0.007568,-0.992493,0.266656,0.356031,-0.237863,47,280,570,5488
1644161153.594052,-0.009644,0.011414,-0.992371,0.175053,0.310229,-0.069924,40,282,570,5536
1644161153.642423,-0.009094,0.009094,-0.990906,0.297191,0.523969,-0.115725,58,279,576,5456
1644161153.690825,-0.009705,0.008057,-0.98999,0.404061,0.539237,-0.008855,51,283,573,5536
1644161153.739179,-0.010376,0.010376,-0.991333,0.129252,0.417099,-0.298931,49,270,575,5536
1644161153.787595,-0.012573,0.009766,-0.989746,0.144519,0.447634,-0.100458,42,282,589,5552
1644161153.835946,-0.010254,0.008423,-0.993225,0.205588,0.508702,0.036947,53,274,580,5536
1644161153.884385,-0.011658,0.007996,-0.993164,0.297191,0.325496,-0.069924,55,276,576,5536
1644161153.93278,-0.008667,0.008423,-0.9953,0.236122,0.554504,-0.100458,47,273,579,5472
1644161153.981671,-0.01123,0.009094,-0.99115,0.129252,0.325496,-0.192061,49,270,572,5536
1644161154.029826,-0.009155,0.010376,-0.989868,0.220855,0.432366,0.067481,58,276,585,5536
1644161154.087779,-0.011292,0.01001,-0.993408,0.236122,0.356031,-0.192061,55,279,583,5472
1644161154.131315,-0.009766,0.009399,-0.990662,0.312458,0.310229,-0.192061,52,277,565,5456
1644161154.174726,-0.008179,0.008423,-0.991516,0.159786,0.493435,-0.115725,47,273,579,5584
1644161154.271441,-0.010315,0.007751,-0.993958,0.35826,0.401832,0.052214,53,279,578,5536
1644161154.319843,-0.008118,0.010803,-0.990417,0.236122,0.432366,-0.085191,51,276,573,5488
1644161154.368206,-0.011047,0.008789,-0.990356,0.327725,0.417099,-0.161527,57,270,575,5536
1644161154.416625,-0.011963,0.009888,-0.993774,0.205588,0.356031,-0.161527,54,275,586,5488
1644161154.465054,-0.009094,0.009338,-0.991028,0.281924,0.462901,0.021679,54,277,577,5536
1644161154.513425,-0.008911,0.008301,-0.992065,0.08345,0.356031,-0.192061,49,265,584,5488
1644161154.561796,-0.01178,0.009766,-0.990356,0.312458,0.401832,-0.100458,61,270,575,5584
1644161154.61019,-0.011963,0.008606,-0.99231,0.190321,0.478168,-0.161527,47,285,582,5488
1644161154.658586,-0.010071,0.007263,-0.992371,0.205588,0.432366,-0.192061,46,274,571,5536
1644161154.706974,-0.011902,0.010132,-0.992737,0.281924,0.539237,0.006412,45,273,575,5536
1644161154.755337,-0.011841,0.01178,-0.990784,0.251389,0.310229,-0.115725,51,276,578,5488
1644161154.803798,-0.01123,0.008179,-0.99231,0.190321,0.523969,0.021679,47,277,577,5472
1644161154.852235,-0.011963,0.009277,-0.990356,0.236122,0.447634,-0.161527,58,276,576,5536
1644161154.900563,-0.012085,0.008728,-0.993958,0.297191,0.371298,-0.054656,67,281,580,5488
1644161154.948958,-0.009216,0.007629,-0.993713,0.236122,0.417099,-0.130992,51,279,576,5584
1644161154.997313,-0.008118,0.007019,-0.990601,0.342992,0.294962,-0.14626,61,275,575,5536
1644161155.063385,-0.011719,0.008179,-0.994446,0.220855,0.356031,-0.008855,48,279,583,5488
1644161155.097817,-0.010559,0.007507,-0.993469,0.144519,0.646107,-0.130992,52,277,572,5536
1644161155.142596,-0.012207,0.008484,-0.991577,0.159786,0.401832,-0.237863,52,280,584,5472
1644161155.192637,-0.012024,0.00885,-0.993652,0.266656,0.340763,-0.176794,65,274,578,5488
1644161155.242936,-0.009705,0.008301,-0.989868,0.342992,0.462901,-0.085191,46,271,576,5472
1644161155.288036,-0.010681,0.00769,-0.99115,0.190321,0.432366,-0.115725,46,279,578,5552
1644161155.384434,-0.007446,0.011108,-0.991211,0.052916,0.417099,-0.25313,52,273,575,5488
1644161155.432835,-0.009766,0.010437,-0.991211,0.175053,0.569771,-0.085191,43,283,580,5456
1644161155.4812,-0.009705,0.008972,-0.991821,0.342992,0.508702,-0.115725,46,279,576,5488
1644161155.529597,-0.009644,0.009644,-0.995544,0.220855,0.371298,-0.298931,54,265,572,5456
1644161155.577973,-0.009094,0.00824,-0.993042,0.312458,0.325496,-0.192061,53,271,576,5536
1644161155.626341,-0.013611,0.009094,-0.992554,0.129252,0.417099,-0.237863,45,270,575,5488
1644161155.674772,-0.012695,0.009155,-0.99176,0.205588,0.371298,-0.100458,52,268,575,5488
1644161155.723174,-0.010071,0.007812,-0.992615,0.251389,0.432366,0.036947,58,281,578,5520
1644161155.771516,-0.00769,0.00769,-0.991699,0.281924,0.371298,-0.054656,57,277,568,5584
1644161155.819981,-0.01239,0.010315,-0.993164,0.266656,0.371298,-0.115725,54,273,582,5488
1644161155.868363,-0.01062,0.009583,-0.992493,0.129252,0.401832,-0.192061,48,274,571,5472
1644161155.91672,-0.011475,0.00885,-0.99176,0.205588,0.478168,-0.192061,48,276,578,5456
1644161155.965174,-0.008789,0.007385,-0.993713,0.159786,0.310229,-0.100458,54,275,572,5456
1644161156.013542,-0.008789,0.009644,-0.99231,0.281924,0.401832,-0.130992,54,273,579,5536
1644161156.080847,-0.009155,0.009583,-0.990601,0.205588,0.432366,-0.14626,46,271,576,5472
1644161156.110801,-0.014771,0.010986,-0.993774,0.251389,0.539237,-0.130992,54,277,589,5456
1644161156.160033,-0.008728,0.011536,-0.990845,0.251389,0.432366,-0.054656,64,265,582,5536
1644161156.210139,-0.009888,0.00946,-0.992676,0.35826,0.523969,-0.069924,59,270,579,5536
1644161156.26024,-0.007629,0.009338,-0.992004,0.297191,0.371298,-0.207328,55,266,580,5472
1644161156.352384,-0.014221,0.009766,-0.990417,0.144519,0.569771,-0.085191,51,274,569,5536
1644161156.4006,-0.010315,0.008423,-0.992859,0.342992,0.447634,-0.130992,55,286,576,5488
1644161156.449003,-0.009705,0.009338,-0.992554,0.281924,0.401832,-0.100458,53,276,573,5520
1644161156.497389,-0.012878,0.008057,-0.992737,0.007115,0.356031,-0.024122,51,276,578,5536
1644161156.545778,-0.013794,0.009888,-0.992004,0.190321,0.447634,0.12855,47,275,582,5456
1644161156.594173,-0.011353,0.010132,-0.993408,0.327725,0.371298,0.021679,46,276,569,5536
1644161156.642588,-0.009155,0.007629,-0.991211,0.190321,0.325496,-0.237863,58,276,580,5488
1644161156.69094,-0.009644,0.006775,-0.990662,0.068183,0.356031,-0.161527,53,271,580,5424
1644161156.739337,-0.010925,0.009216,-0.98938,0.373527,0.600305,-0.054656,48,266,578,5552
1644161156.787699,-0.012207,0.009094,-0.993347,0.342992,0.401832,-0.100458,52,277,572,5536
1644161156.836162,-0.011414,0.011169,-0.991394,0.022382,0.493435,-0.069924,48,266,569,5488
1644161156.884676,-0.009094,0.007751,-0.996033,0.312458,0.310229,-0.085191,49,270,575,5488
1644161156.932964,-0.008667,0.010254,-0.989441,0.068183,0.371298,-0.100458,49,273,572,5520
1644161156.981328,-0.00769,0.011353,-0.990356,0.342992,0.386565,-0.085191,46,274,583,5536
1644161157.029722,-0.012207,0.008301,-0.994873,0.113985,0.310229,-0.14626,57,275,577,5536
1644161157.078203,-0.010681,0.011353,-0.992798,0.220855,0.447634,-0.054656,51,281,578,5488
1644161157.126475,-0.01239,0.005493,-0.994202,0.35826,0.447634,-0.161527,52,270,572,5472
1644161157.174848,-0.008484,0.006897,-0.98938,0.342992,0.432366,-0.192061,45,277,565,5520
1644161157.223224,-0.009155,0.009155,-0.991211,0.175053,0.340763,-0.100458,43,279,576,5488
1644161157.271668,-0.010193,0.007751,-0.992981,0.266656,0.462901,-0.14626,48,266,578,5472
1644161157.322543,-0.009033,0.009888,-0.994141,0.342992,0.340763,-0.207328,48,279,583,5584
1644161157.372571,-0.009644,0.009277,-0.990601,0.251389,0.569771,-0.054656,57,273,575,5536
1644161157.417655,-0.008728,0.009216,-0.99292,0.220855,0.447634,0.006412,51,279,571,5520
1644161157.513585,-0.012939,0.010315,-0.99292,0.266656,0.447634,-0.024122,53,274,576,5536
1644161157.561964,-0.01123,0.00946,-0.995117,0.205588,0.523969,-0.130992,43,281,583,5536
1644161157.610351,-0.011658,0.008972,-0.993103,0.281924,0.447634,-0.130992,47,260,575,5488
1644161157.658744,-0.010559,0.009277,-0.992554,0.236122,0.432366,-0.054656,53,271,571,5488
1644161157.707121,-0.01062,0.007874,-0.993835,0.068183,0.462901,-0.130992,43,262,578,5488
1644161157.755503,-0.010803,0.00708,-0.989197,0.419328,0.462901,0.006412,55,276,583,5520
1644161157.80392,-0.012024,0.011047,-0.990051,0.175053,0.447634,-0.176794,41,274,578,5536
1644161157.852379,-0.00885,0.008667,-0.993042,0.297191,0.279695,-0.130992,59,282,586,5472
1644161157.900707,-0.010437,0.010742,-0.993591,0.266656,0.310229,-0.054656,60,269,585,5536
1644161157.949133,-0.009094,0.008423,-0.990479,0.205588,0.340763,0.052214,53,264,578,5552
1644161157.997487,-0.010132,0.009338,-0.992065,0.236122,0.523969,-0.054656,58,279,571,5536
1644161158.056396,-0.01178,0.007996,-0.991272,0.159786,0.325496,-0.024122,45,270,589,5584
1644161158.094316,-0.006104,0.009094,-0.992737,0.327725,0.294962,-0.130992,49,270,579,5536
1644161158.14267,-0.010986,0.01001,-0.994263,0.159786,0.417099,-0.085191,47,263,570,5488
1644161158.191036,-0.010315,0.007568,-0.993103,0.281924,0.462901,-0.100458,53,279,583,5552
1644161158.239406,-0.011719,0.009766,-0.993835,0.220855,0.401832,-0.039389,52,282,575,5488
1644161158.287805,-0.013184,0.009521,-0.993591,0.327725,0.386565,-0.100458,53,279,583,5584
1644161158.336208,-0.01178,0.007874,-0.993469,0.236122,0.294962,-0.115725,53,276,583,5536
1644161158.384633,-0.006409,0.009155,-0.990906,0.236122,0.356031,-0.237863,52,260,577,5488
1644161158.43336,-0.009521,0.009644,-0.994751,0.312458,0.493435,-0.100458,54,275,584,5520
1644161158.483563,-0.011658,0.009644,-0.994324,0.098718,0.539237,-0.222595,57,277,582,5472
1644161158.534333,-0.01123,0.01062,-0.990295,0.113985,0.401832,-0.100458,51,283,578,5536
1644161158.579055,-0.011597,0.010132,-0.99054,0.312458,0.386565,-0.192061,57,275,577,5488
1644161158.674936,-0.009827,0.011658,-0.993042,0.281924,0.340763,-0.176794,52,268,565,5536
1644161158.723328,-0.010132,0.009033,-0.992432,0.098718,0.432366,-0.115725,43,279,571,5456
1644161158.771702,-0.011902,0.007141,-0.992065,0.205588,0.294962,-0.069924,60,281,580,5488
1644161158.820092,-0.006531,0.010803,-0.990723,0.144519,0.340763,-0.130992,58,271,576,5488
1644161158.868534,-0.008606,0.010132,-0.990601,0.373527,0.371298,-0.100458,57,260,575,5536
1644161158.916905,-0.009766,0.009888,-0.992126,0.205588,0.417099,-0.039389,49,280,565,5536
1644161158.965305,-0.010559,0.006348,-0.992676,0.281924,0.462901,-0.024122,53,281,569,5488
1644161159.013712,-0.010437,0.007629,-0.994019,0.281924,0.356031,-0.085191,62,276,578,5536
1644161159.064896,-0.008484,0.00769,-0.9953,0.297191,0.401832,0.006412,57,268,589,5536
1644161159.110502,-0.010376,0.00946,-0.989563,0.113985,0.279695,-0.054656,48,276,578,5552
1644161159.158829,-0.010315,0.007812,-0.992554,0.266656,0.279695,-0.069924,55,266,576,5488
1644161159.207213,-0.010498,0.00824,-0.992737,0.251389,0.478168,-0.100458,53,279,585,5520
1644161159.255593,-0.010132,0.008118,-0.993164,0.220855,0.401832,-0.085191,55,276,580,5472
1644161159.304006,-0.009033,0.010803,-0.989502,0.342992,0.523969,-0.222595,47,277,579,5520
1644161159.352391,-0.011963,0.009949,-0.989075,0.251389,0.325496,-0.069924,59,280,586,5456
1644161159.400753,-0.010864,0.010681,-0.993347,0.297191,0.371298,-0.176794,55,281,576,5520
1644161159.449181,-0.01239,0.010071,-0.993713,0.266656,0.478168,0.052214,52,270,570,5456
1644161159.497563,-0.010803,0.006104,-0.991333,0.08345,0.386565,-0.039389,55,269,576,5520
1644161159.545923,-0.01062,0.010742,-0.993774,0.236122,0.371298,-0.192061,55,274,578,5536
1644161159.594475,-0.00769,0.008423,-0.994812,0.190321,0.478168,-0.130992,57,275,568,5536
1644161159.644979,-0.010376,0.005249,-0.991943,0.281924,0.356031,-0.039389,53,279,583,5536
1644161159.695136,-0.01062,0.009033,-0.992615,0.327725,0.401832,-0.039389,51,276,580,5472
1644161159.740307,-0.010803,0.010498,-0.992126,0.297191,0.554504,-0.130992,51,271,578,5520
1644161159.836271,-0.008911,0.010437,-0.989075,0.190321,0.417099,-0.054656,57,275,572,5536
1644161159.884906,-0.008545,0.009399,-0.993103,0.342992,0.417099,0.036947,53,274,578,5456
1644161159.933115,-0.008423,0.010559,-0.991211,0.312458,0.264427,-0.115725,54,275,577,5552
1644161159.9815,-0.012024,0.008484,-0.992859,0.312458,0.539237,0.036947,55,271,578,5584
1644161160.029873,-0.011169,0.009094,-0.99231,0.159786,0.478168,-0.130992,53,271,580,5552
1644161160.080583,-0.010864,0.01178,-0.991211,0.297191,0.493435,-0.192061,53,276,580,5536
1644161160.126657,-0.009644,0.010498,-0.994202,0.175053,0.279695,-0.069924,51,274,578,5488
1644161160.17513,-0.010925,0.011841,-0.992188,0.342992,0.462901,-0.192061,45,282,572,5488
1644161160.223414,-0.009338,0.009827,-0.99292,0.205588,0.371298,-0.039389,47,270,575,5520
1644161160.271793,-0.010071,0.011353,-0.990845,0.342992,0.371298,-0.176794,49,277,589,5456
1644161160.320152,-0.010193,0.010071,-0.99353,0.08345,0.447634,-0.14626,53,276,573,5488
1644161160.368553,-0.01001,0.008972,-0.991943,0.342992,0.203359,0.036947,46,274,580,5472
1644161160.416976,-0.008057,0.012207,-0.99353,0.342992,0.478168,-0.054656,49,268,579,5536
1644161160.465352,-0.007812,0.009888,-0.995911,0.297191,0.401832,-0.130992,46,279,578,5536
1644161160.513747,-0.010986,0.008606,-0.991577,0.266656,0.310229,-0.207328,49,277,582,5472
1644161160.562404,-0.013,0.010254,-0.992676,0.342992,0.356031,-0.115725,51,271,585,5472
1644161160.611594,-0.012878,0.00647,-0.994263,0.190321,0.478168,-0.054656,52,275,577,5536
1644161160.661949,-0.011902,0.007324,-0.994995,0.129252,0.447634,-0.130992,49,275,577,5536
1644161160.712248,-0.012268,0.008179,-0.989868,0.144519,0.508702,-0.192061,49,282,582,5536
1644161160.804106,-0.011963,0.008606,-0.993347,0.129252,0.401832,-0.192061,53,271,571,5536
1644161160.852469,-0.010681,0.011292,-0.992126,0.175053,0.356031,-0.207328,46,279,578,5456
1644161160.900888,-0.008667,0.010986,-0.994873,0.220855,0.294962,-0.237863,57,277,582,5536
1644161160.949294,-0.011353,0.010132,-0.993286,0.297191,0.447634,0.159084,54,275,582,5536
1644161160.997674,-0.009766,0.009033,-0.991455,0.144519,0.462901,-0.176794,52,270,577,5488
1644161161.054715,-0.012695,0.008972,-0.993896,0.175053,0.523969,-0.085191,47,280,579,5520
1644161161.094448,-0.012573,0.008057,-0.993713,0.297191,0.294962,-0.115725,54,273,584,5536
1644161161.142852,-0.010376,0.009888,-0.99054,0.266656,0.417099,-0.161527,58,279,573,5488
1644161161.191203,-0.009521,0.007446,-0.990723,0.281924,0.386565,-0.024122,49,273,568,5520
1644161161.239593,-0.009583,0.013123,-0.993347,0.266656,0.386565,-0.100458,52,273,570,5488
1644161161.287958,-0.01178,0.007324,-0.991211,0.434595,0.432366,-0.115725,59,282,575,5488
1644161161.336367,-0.010315,0.011414,-0.990784,0.129252,0.264427,-0.207328,60,269,583,5520
1644161161.384788,-0.007751,0.009094,-0.990723,0.205588,0.478168,-0.069924,52,275,575,5536
1644161161.433174,-0.009155,0.010315,-0.990723,0.327725,0.462901,-0.100458,45,282,579,5488
1644161161.481523,-0.008484,0.007935,-0.989746,0.312458,0.386565,-0.039389,40,275,572,5488
1644161161.529932,-0.01123,0.007812,-0.995239,0.251389,0.371298,-0.115725,53,276,578,5488
1644161161.578321,-0.011902,0.009338,-0.990906,0.144519,0.356031,-0.039389,51,276,587,5552
1644161161.626704,-0.012329,0.012024,-0.994202,0.144519,0.218626,-0.054656,54,273,593,5536
1644161161.675138,-0.011169,0.010254,-0.992615,0.007115,0.371298,-0.008855,52,280,570,5536
1644161161.723834,-0.013123,0.008118,-0.992126,0.175053,0.417099,-0.237863,54,273,579,5584
1644161161.774137,-0.011169,0.009399,-0.991394,0.388794,0.264427,-0.14626,51,269,580,5552
1644161161.824412,-0.010498,0.009827,-0.993164,0.159786,0.508702,-0.161527,49,277,579,5488
1644161161.869385,-0.009888,0.00647,-0.991943,0.190321,0.340763,-0.100458,51,271,573,5536
1644161161.965475,-0.011047,0.008911,-0.993591,0.327725,0.447634,-0.14626,46,281,576,5536
1644161162.013862,-0.010132,0.007141,-0.993347,0.175053,0.615573,-0.161527,51,271,580,5536
1644161162.062301,-0.009705,0.009033,-0.992188,0.312458,0.554504,-0.008855,51,276,576,5488
1644161162.110584,-0.009277,0.010254,-0.99115,0.236122,0.386565,-0.130992,54,265,584,5488
1644161162.15897,-0.009399,0.012085,-0.991028,0.159786,0.462901,-0.039389,54,280,577,5472
1644161162.207397,-0.011597,0.008789,-0.991943,0.35826,0.508702,-0.14626,46,283,576,5472
1644161162.255758,-0.009094,0.008057,-0.99408,0.205588,0.447634,-0.14626,48,266,569,5600
1644161162.304154,-0.013916,0.009155,-0.993958,0.434595,0.294962,-0.054656,48,283,578,5472
1644161162.352571,-0.01355,0.009399,-0.993835,0.419328,0.340763,-0.207328,43,276,566,5456
1644161162.400923,-0.011047,0.00946,-0.99115,0.281924,0.371298,-0.024122,46,274,573,5472
1644161162.449337,-0.010132,0.007874,-0.993958,0.175053,0.417099,-0.130992,53,274,578,5536
1644161162.497705,-0.010559,0.009094,-0.990234,0.342992,0.493435,-0.192061,52,275,582,5488
1644161162.546085,-0.009888,0.01062,-0.99353,0.113985,0.371298,-0.130992,47,275,577,5536
1644161162.594508,-0.010132,0.009155,-0.99353,0.251389,0.264427,-0.024122,48,276,585,5488
1644161162.642913,-0.010925,0.011841,-0.990173,0.190321,0.417099,-0.192061,47,273,568,5472
1644161162.691286,-0.011597,0.01062,-0.990845,0.297191,0.340763,-0.039389,57,287,570,5536
1644161162.739658,-0.01178,0.008606,-0.993347,0.175053,0.478168,0.006412,42,277,582,5536
1644161162.788105,-0.009827,0.009094,-0.992859,0.35826,0.508702,-0.039389,49,273,579,5488
1644161162.836511,-0.010681,0.011475,-0.994812,0.144519,0.508702,-0.130992,47,285,570,5456
1644161162.88762,-0.010742,0.010559,-0.991577,0.35826,0.325496,-0.069924,49,275,575,5424
1644161162.936053,-0.011902,0.010254,-0.992249,0.129252,0.233893,-0.100458,45,265,577,5488
1644161162.98676,-0.012085,0.010498,-0.993774,0.419328,0.554504,-0.054656,41,276,583,5472
1644161163.030994,-0.013672,0.008606,-0.989502,0.113985,0.478168,0.006412,52,270,579,5584
1644161163.126788,-0.010193,0.011353,-0.992065,0.113985,0.386565,-0.008855,49,268,577,5488
1644161163.17538,-0.013672,0.009338,-0.994019,0.113985,0.432366,-0.100458,49,277,563,5536
1644161163.223574,-0.012634,0.011169,-0.992981,0.266656,0.310229,-0.008855,48,276,571,5488
1644161163.271968,-0.009705,0.007568,-0.99353,0.297191,0.523969,-0.008855,49,273,586,5520
1644161163.320349,-0.009949,0.009277,-0.993958,0.266656,0.294962,-0.237863,49,270,575,5472
1644161163.36875,-0.012207,0.007935,-0.993958,0.388794,0.432366,0.052214,49,273,572,5552
1644161163.417116,-0.011353,0.009155,-0.988586,0.281924,0.417099,-0.100458,53,262,576,5536
1644161163.465518,-0.011841,0.009216,-0.990906,0.312458,0.356031,-0.161527,54,270,577,5536
1644161163.513897,-0.009094,0.007751,-0.993347,0.373527,0.401832,-0.054656,46,276,571,5472
1644161163.562312,-0.009216,0.008728,-0.992859,0.220855,0.356031,-0.161527,49,273,579,5536
1644161163.610704,-0.011414,0.008118,-0.990601,0.113985,0.371298,-0.192061,54,280,575,5584
1644161163.659087,-0.00885,0.010559,-0.991394,0.190321,0.386565,-0.039389,64,273,568,5552
1644161163.707479,-0.011475,0.008667,-0.991943,0.266656,0.386565,-0.100458,46,279,580,5536
1644161163.755846,-0.010559,0.010559,-0.991821,0.220855,0.371298,-0.085191,49,268,589,5552
1644161163.804299,-0.009644,0.008484,-0.992188,0.266656,0.340763,-0.054656,54,270,575,5536
1644161163.852701,-0.014465,0.008057,-0.99353,0.129252,0.432366,-0.130992,55,274,580,5536
1644161163.901068,-0.011841,0.009827,-0.992859,0.236122,0.493435,0.006412,48,266,583,5424
1644161163.949459,-0.008301,0.009338,-0.993958,0.144519,0.356031,-0.115725,48,276,587,5472
1644161163.997834,-0.00824,0.011047,-0.99353,0.205588,0.294962,-0.039389,57,277,579,5488
1644161164.094687,-0.009094,0.008728,-0.992065,0.205588,0.386565,-0.100458,49,282,582,5536
1644161164.143001,-0.009338,0.011658,-0.991699,0.327725,0.447634,-0.085191,49,268,579,5600
1644161164.191379,-0.010803,0.009766,-0.98877,0.312458,0.371298,-0.130992,52,273,568,5488
1644161164.239772,-0.012939,0.009949,-0.992493,0.190321,0.493435,-0.069924,46,276,573,5488
1644161164.28816,-0.012329,0.009338,-0.988281,0.251389,0.417099,-0.085191,47,277,582,5536
1644161164.336543,-0.008972,0.008789,-0.991638,0.144519,0.325496,-0.100458,54,270,575,5584
1644161164.385067,-0.009338,0.009521,-0.995667,0.327725,0.478168,-0.085191,46,274,571,5488
1644161164.43333,-0.007812,0.010071,-0.994751,0.281924,0.417099,-0.222595,53,276,576,5536
1644161164.481682,-0.01062,0.008972,-0.99231,0.35826,0.523969,-0.039389,58,276,578,5520
1644161164.530098,-0.00885,0.008484,-0.993469,0.007115,0.508702,-0.024122,49,268,570,5456
1644161164.57849,-0.010986,0.010559,-0.98999,0.373527,0.401832,-0.161527,60,279,583,5520
1644161164.626855,-0.009644,0.009155,-0.991272,0.281924,0.539237,-0.237863,47,273,579,5520
1644161164.67561,-0.010559,0.008728,-0.994324,0.35826,0.539237,-0.069924,52,277,577,5488
1644161164.72449,-0.011047,0.009644,-0.991699,0.281924,0.294962,-0.130992,52,280,582,5488
1644161164.775403,-0.011475,0.007935,-0.992004,-0.053954,0.493435,-0.176794,46,264,583,5488
1644161164.826039,-0.011169,0.008301,-0.992126,0.159786,0.462901,-0.039389,49,275,572,5520
1644161164.917293,-0.01123,0.008606,-0.990479,0.236122,0.356031,-0.25313,46,271,564,5536
1644161164.965616,-0.00946,0.008972,-0.99353,0.251389,0.401832,-0.14626,58,274,583,5520
1644161165.014017,-0.014282,0.006653,-0.99115,0.068183,0.539237,-0.207328,48,271,580,5536
1644161165.062489,-0.009888,0.006409,-0.992737,0.236122,0.539237,-0.008855,49,280,577,5600
1644161165.110801,-0.00946,0.009094,-0.992249,0.098718,0.493435,-0.085191,57,275,570,5536
1644161165.159168,-0.009583,0.008606,-0.989563,0.327725,0.539237,-0.039389,46,271,580,5520
1644161165.207551,-0.010864,0.00946,-0.994202,0.281924,0.478168,-0.115725,54,277,579,5520
1644161165.255929,-0.010376,0.009888,-0.991821,0.159786,0.401832,0.052214,53,274,576,5520
1644161165.304324,-0.008911,0.007202,-0.991882,0.144519,0.432366,-0.14626,59,273,584,5520
1644161165.352742,-0.010132,0.008179,-0.991089,0.297191,0.279695,-0.085191,57,265,572,5536
1644161165.401131,-0.01123,0.009644,-0.993591,0.220855,0.554504,-0.176794,45,280,582,5488
1644161165.449497,-0.00946,0.008728,-0.992188,0.251389,0.447634,-0.085191,45,280,577,5488
1644161165.497867,-0.012024,0.010498,-0.993042,0.297191,0.417099,-0.069924,52,275,577,5536
1644161165.546281,-0.009644,0.011719,-0.99408,0.342992,0.447634,-0.024122,54,280,565,5536
1644161165.594695,-0.010071,0.010071,-0.994141,0.159786,0.386565,-0.054656,58,274,569,5584
1644161165.643078,-0.010864,0.010559,-0.991455,0.08345,0.539237,-0.115725,48,286,571,5520
1644161165.691463,-0.013977,0.008118,-0.995544,0.251389,0.417099,-0.115725,47,268,579,5552
1644161165.739852,-0.014038,0.009094,-0.994568,0.404061,0.340763,-0.100458,45,270,575,5488
1644161165.788242,-0.010071,0.00946,-0.990051,0.495664,0.417099,-0.024122,49,280,568,5536
1644161165.837336,-0.010681,0.006104,-0.992065,0.297191,0.478168,-0.130992,47,280,579,5472
1644161165.888416,-0.009277,0.009583,-0.996338,0.236122,0.356031,-0.085191,41,281,576,5584
1644161165.938264,-0.008972,0.008484,-0.99231,0.312458,0.493435,-0.039389,46,276,573,5536
1644161165.982687,-0.011658,0.007141,-0.993103,0.175053,0.432366,-0.085191,52,268,582,5472
1644161166.08046,-0.010193,0.007019,-0.993164,0.266656,0.478168,0.036947,57,277,584,5536
1644161166.126969,-0.010559,0.01062,-0.992676,0.220855,0.310229,-0.085191,48,266,580,5472
1644161166.175356,-0.011353,0.00708,-0.992859,0.373527,0.646107,-0.085191,53,281,569,5472
1644161166.223745,-0.008423,0.005493,-0.992432,0.236122,0.356031,-0.176794,58,269,583,5424
1644161166.272176,-0.011414,0.011292,-0.989441,0.312458,0.294962,-0.024122,43,274,569,5520
1644161166.32052,-0.008911,0.01123,-0.992798,0.159786,0.356031,0.052214,41,283,573,5488
1644161166.368916,-0.010681,0.008728,-0.993713,0.266656,0.417099,-0.176794,52,268,572,5520
1644161166.417301,-0.009888,0.009949,-0.992126,0.342992,0.356031,-0.25313,47,273,561,5472
1644161166.465694,-0.013428,0.008362,-0.995972,0.297191,0.432366,-0.008855,58,274,576,5472
1644161166.514069,-0.011841,0.008301,-0.993347,0.251389,0.462901,-0.130992,49,273,579,5520
1644161166.562458,-0.009644,0.00885,-0.993652,0.388794,0.462901,-0.161527,52,268,577,5456
1644161166.610867,-0.011475,0.010742,-0.994385,0.404061,0.417099,0.006412,57,277,586,5520
1644161166.659232,-0.011597,0.009888,-0.995117,0.297191,0.340763,-0.115725,57,268,570,5552
1644161166.707646,-0.012573,0.008484,-0.98938,0.327725,0.386565,0.036947,48,281,583,5520
1644161166.756001,-0.011047,0.009094,-0.991943,0.220855,0.523969,-0.115725,48,274,580,5536
1644161166.804431,-0.011536,0.006897,-0.992188,0.144519,0.371298,0.067481,49,277,577,5520
1644161166.852867,-0.009033,0.011047,-0.993408,0.281924,0.447634,-0.069924,57,268,579,5536
1644161166.901245,-0.010193,0.009949,-0.991821,0.342992,0.478168,-0.176794,45,270,582,5536
1644161166.950728,-0.011536,0.008484,-0.992004,0.129252,0.218626,0.113282,47,273,579,5472
1644161167.04979,-0.013062,0.011169,-0.993469,0.266656,0.371298,-0.008855,53,269,566,5536
1644161167.094799,-0.009399,0.009338,-0.992859,0.144519,0.233893,0.006412,65,274,585,5520
1644161167.14319,-0.011475,0.007935,-0.993164,0.312458,0.233893,-0.115725,43,269,573,5456
1644161167.191533,-0.011536,0.00885,-0.993652,0.342992,0.432366,-0.100458,54,277,577,5488
1644161167.239938,-0.014221,0.009827,-0.990601,0.052916,0.493435,-0.329466,43,274,571,5520
1644161167.288303,-0.012512,0.009277,-0.993408,0.159786,0.340763,-0.100458,39,264,578,5536
1644161167.336715,-0.009827,0.00769,-0.989441,0.373527,0.371298,-0.039389,58,276,580,5520
