epoch,acc_x,acc_y,acc_z,rot_x,rot_y,rot_z,mag_x,mag_y,mag_z,temp
1644162000.046665,-0.009277,0.009277,-0.992126,0.327725,0.386565,-0.085191,53,276,578,5536
1644162000.085082,-0.012146,0.009644,-0.989502,0.098718,0.447634,-0.14626,52,273,584,5600
1644162000.175405,-0.008301,0.009338,-0.992126,0.266656,0.356031,0.067481,43,276,576,5584
1644162000.223741,-0.010132,0.00946,-0.991394,0.342992,0.264427,0.006412,49,265,572,5632
1644162000.272355,-0.010681,0.006531,-0.991089,0.342992,0.447634,-0.100458,40,273,568,5552
1644162000.320503,-0.010315,0.008911,-0.992432,0.159786,0.310229,-0.115725,49,277,572,5584
1644162000.36889,-0.010986,0.007874,-0.990662,0.251389,0.508702,-0.039389,60,279,571,5584
1644162000.41728,-0.015076,0.012268,-0.989563,0.159786,0.432366,-0.039389,43,271,580,5488
1644162000.46567,-0.010315,0.011108,-0.991943,0.266656,0.356031,-0.039389,45,280,575,5536
1644162000.514079,-0.011963,0.008362,-0.989746,0.281924,0.478168,0.052214,49,282,582,5632
1644162000.562473,-0.012207,0.010132,-0.990906,0.266656,0.417099,-0.25313,58,274,585,5584
1644162000.610864,-0.011841,0.008972,-0.991333,0.327725,0.523969,0.006412,55,276,571,5552
1644162000.659215,-0.009705,0.010864,-0.990784,0.266656,0.401832,-0.085191,43,276,583,5488
1644162000.707628,-0.011353,0.008789,-0.98999,0.205588,0.386565,-0.069924,39,271,576,5584
1644162000.756015,-0.014282,0.008606,-0.994324,0.144519,0.447634,0.067481,49,270,579,5488
1644162000.804458,-0.010132,0.007507,-0.993896,0.159786,0.371298,-0.024122,52,282,570,5536
1644162000.852855,-0.009277,0.009888,-0.991699,0.297191,0.432366,-0.024122,58,269,578,5520
1644162000.901218,-0.012451,0.011597,-0.992798,0.205588,0.493435,-0.085191,49,273,586,5536
1644162000.949616,-0.01239,0.009949,-0.991333,0.144519,0.462901,-0.130992,49,282,577,5488
1644162000.997978,-0.011414,0.010315,-0.990112,0.251389,0.340763,-0.008855,54,280,572,5536
1644162001.060063,-0.00708,0.011292,-0.99054,0.35826,0.340763,-0.085191,48,271,590,5536
1644162001.102553,-0.009094,0.008362,-0.991577,0.205588,0.356031,-0.176794,45,275,575,5536
1644162001.145319,-0.010986,0.009521,-0.989136,0.175053,0.432366,-0.115725,49,280,579,5536
1644162001.195649,-0.008667,0.006897,-0.99231,0.251389,0.386565,-0.100458,51,279,571,5520
1644162001.24066,-0.007141,0.010559,-0.990295,0.251389,0.493435,0.006412,42,287,572,5536
1644162001.336681,-0.007202,0.008911,-0.992737,0.190321,0.493435,-0.115725,40,270,570,5472
1644162001.385315,-0.010193,0.010864,-0.994141,0.251389,0.539237,0.006412,51,266,559,5584
1644162001.433487,-0.009399,0.009216,-0.99292,0.113985,0.478168,-0.314198,47,277,579,5488
1644162001.481863,-0.007935,0.010254,-0.990234,0.144519,0.340763,-0.192061,42,280,570,5584
1644162001.530256,-0.008423,0.007202,-0.991455,0.342992,0.432366,-0.161527,52,277,586,5552
1644162001.578635,-0.012756,0.00885,-0.993408,0.297191,0.371298,-0.054656,41,276,569,5536
1644162001.627043,-0.011353,0.010437,-0.990723,0.327725,0.462901,-0.024122,55,276,583,5584
1644162001.675409,-0.012756,0.009155,-0.994202,0.236122,0.478168,-0.054656,45,273,582,5648
1644162001.723814,-0.011169,0.010986,-0.991089,0.281924,0.447634,-0.100458,49,273,579,5488
1644162001.772227,-0.00946,0.011536,-0.992004,0.236122,0.325496,-0.039389,46,271,571,5584
1644162001.820643,-0.008789,0.009583,-0.992249,0.388794,0.356031,-0.039389,48,279,578,5520
1644162001.868997,-0.013672,0.008057,-0.992004,0.251389,0.462901,-0.130992,55,274,571,5584
1644162001.917416,-0.009766,0.008972,-0.991821,0.266656,0.310229,-0.14626,46,279,580,5584
1644162001.965803,-0.009521,0.008545,-0.992126,0.251389,0.340763,-0.054656,45,282,582,5584
1644162002.014205,-0.010559,0.006104,-0.993958,0.159786,0.462901,-0.085191,52,275,577,5584
1644162002.068867,-0.007446,0.009033,-0.990967,0.266656,0.340763,-0.192061,53,276,580,5488
1644162002.111289,-0.008179,0.007568,-0.992493,0.129252,0.356031,-0.237863,55,274,585,5600
1644162002.159897,-0.011536,0.010559,-0.990356,0.236122,0.325496,-0.14626,52,263,565,5536
1644162002.210144,-0.010193,0.008362,-0.990112,0.251389,0.478168,-0.130992,51,276,569,5584
1644162002.260629,-0.005737,0.01178,-0.992249,0.327725,0.493435,-0.100458,55,269,573,5536
1644162002.305741,-0.011841,0.007141,-0.991211,0.281924,0.325496,0.006412,55,276,578,5536
1644162002.401279,-0.010315,0.01001,-0.991638,0.35826,0.340763,-0.115725,54,280,577,5536
1644162002.449666,-0.011658,0.006409,-0.993713,0.35826,0.462901,-0.085191,45,270,577,5536
1644162002.498052,-0.013184,0.010254,-0.989441,0.281924,0.371298,-0.024122,54,275,570,5520
1644162002.546443,-0.006348,0.009949,-0.987305,0.113985,0.401832,-0.085191,52,273,577,5552
1644162002.594848,-0.008423,0.009705,-0.993408,0.266656,0.447634,-0.14626,47,270,568,5488
1644162002.643275,-0.01062,0.011169,-0.991333,0.236122,0.432366,-0.207328,49,287,575,5584
1644162002.691624,-0.012512,0.01001,-0.991516,0.175053,0.478168,-0.100458,49,280,570,5536
1644162002.740012,-0.013123,0.008545,-0.994019,0.251389,0.386565,0.006412,52,270,577,5488
1644162002.7884,-0.008423,0.005005,-0.98999,0.220855,0.356031,-0.085191,52,275,572,5600
1644162002.836838,-0.010376,0.010437,-0.990662,0.052916,0.478168,0.006412,43,266,578,5536
1644162002.885349,-0.007751,0.011902,-0.994202,0.251389,0.279695,-0.085191,48,271,571,5536
1644162002.933626,-0.011841,0.010925,-0.991699,0.098718,0.432366,-0.085191,55,276,580,5536
1644162002.981964,-0.01001,0.011353,-0.990967,0.388794,0.233893,-0.100458,47,268,568,5520
1644162003.030388,-0.008179,0.011963,-0.990234,0.342992,0.417099,0.204885,58,274,573,5600
1644162003.079203,-0.012085,0.007996,-0.990601,0.266656,0.386565,-0.039389,54,270,586,5552
1644162003.127124,-0.008301,0.011536,-0.990906,0.220855,0.615573,-0.207328,59,287,577,5632
1644162003.175506,-0.010437,0.007141,-0.989258,0.281924,0.386565,-0.054656,51,279,585,5488
1644162003.223917,-0.011169,0.009033,-0.989685,0.144519,0.356031,-0.222595,42,265,584,5632
1644162003.272461,-0.009399,0.010498,-0.990662,0.327725,0.417099,-0.115725,49,280,577,5552
1644162003.321353,-0.009827,0.009094,-0.993774,0.205588,0.417099,-0.14626,62,279,571,5536
1644162003.371876,-0.009766,0.012024,-0.991394,0.251389,0.386565,0.006412,48,269,580,5536
1644162003.421974,-0.009766,0.008789,-0.994019,0.144519,0.417099,0.082748,58,279,569,5584
1644162003.467019,-0.009094,0.009644,-0.990356,0.297191,0.371298,-0.039389,52,273,575,5536
1644162003.562654,-0.01239,0.009399,-0.990723,0.220855,0.294962,-0.176794,47,265,572,5536
1644162003.610987,-0.008606,0.010132,-0.99115,0.205588,0.386565,0.052214,55,281,569,5520
1644162003.659405,-0.010071,0.008545,-0.991028,0.449863,0.401832,0.12855,47,275,582,5552
1644162003.707804,-0.01001,0.013123,-0.991699,0.236122,0.493435,-0.176794,48,283,573,5520
1644162003.75618,-0.014343,0.009583,-0.990234,0.236122,0.401832,-0.268397,46,274,576,5536
1644162003.804624,-0.009338,0.007263,-0.993469,0.113985,0.478168,-0.024122,53,274,580,5584
1644162003.853035,-0.011169,0.009094,-0.990662,0.236122,0.264427,-0.130992,53,286,578,5536
1644162003.901378,-0.009338,0.010559,-0.991577,0.190321,0.462901,-0.25313,41,279,571,5472
1644162003.949801,-0.006165,0.010132,-0.993652,0.159786,0.401832,-0.069924,57,270,577,5584
1644162003.998159,-0.011353,0.009399,-0.992004,0.281924,0.401832,-0.115725,57,273,577,5600
1644162004.05326,-0.011292,0.007568,-0.990479,0.220855,0.523969,-0.024122,47,265,577,5552
1644162004.095013,-0.011841,0.008972,-0.989197,0.266656,0.600305,-0.069924,48,291,580,5584
1644162004.143317,-0.009338,0.01001,-0.991943,0.297191,0.417099,-0.054656,49,277,584,5584
1644162004.191701,-0.008972,0.010803,-0.995911,0.129252,0.478168,0.021679,42,268,582,5536
1644162004.240062,-0.010315,0.011658,-0.989075,0.144519,0.447634,-0.161527,61,273,579,5520
1644162004.288477,-0.012024,0.007812,-0.990906,0.175053,0.279695,-0.115725,55,274,580,5536
1644162004.336871,-0.008179,0.012878,-0.994385,0.281924,0.386565,-0.008855,52,265,577,5536
1644162004.385258,-0.007507,0.010864,-0.991516,0.175053,0.401832,-0.298931,64,270,575,5536
1644162004.433667,-0.007507,0.009521,-0.991089,0.068183,0.356031,-0.207328,47,275,586,5536
1644162004.482254,-0.010925,0.008057,-0.993286,0.251389,0.371298,-0.100458,49,277,577,5536
1644162004.533157,-0.011047,0.007751,-0.994568,0.220855,0.356031,-0.054656,52,275,591,5600
1644162004.583114,-0.007751,0.01239,-0.993958,0.220855,0.340763,-0.314198,54,268,577,5584
1644162004.628,-0.012451,0.008118,-0.991943,0.129252,0.325496,-0.176794,53,274,571,5520
1644162004.724005,-0.009766,0.009583,-0.990784,0.175053,0.310229,-0.054656,55,279,573,5584
1644162004.772391,-0.010193,0.008911,-0.989563,0.281924,0.371298,-0.115725,49,273,577,5536
1644162004.820764,-0.009277,0.012207,-0.99176,0.068183,0.371298,0.021679,58,266,576,5584
1644162004.869171,-0.01062,0.008057,-0.991699,0.175053,0.462901,-0.161527,41,271,571,5536
1644162004.917588,-0.00946,0.01239,-0.990479,0.175053,0.478168,-0.14626,51,271,576,5520
1644162004.965978,-0.009155,0.010742,-0.99054,0.236122,0.325496,-0.085191,60,274,580,5520
1644162005.01436,-0.010315,0.010498,-0.991028,0.220855,0.462901,-0.069924,45,273,582,5536
1644162005.062857,-0.010559,0.010132,-0.991882,0.236122,0.447634,-0.069924,54,275,575,5488
1644162005.111175,-0.010742,0.011597,-0.989746,0.236122,0.417099,-0.069924,58,276,571,5552
1644162005.159503,-0.011353,0.009094,-0.99054,0.251389,0.417099,-0.069924,47,273,575,5552
1644162005.207899,-0.010132,0.01001,-0.992554,0.251389,0.325496,-0.176794,54,263,579,5584
1644162005.256281,-0.009277,0.010437,-0.993713,0.312458,0.508702,-0.008855,49,270,577,5472
1644162005.304715,-0.009216,0.009399,-0.992798,0.220855,0.371298,-0.237863,60,271,571,5600
1644162005.353081,-0.009521,0.011536,-0.990723,0.419328,0.432366,-0.115725,55,276,583,5552
1644162005.40145,-0.010254,0.011597,-0.991699,0.35826,0.264427,-0.069924,47,275,575,5584
1644162005.449842,-0.010132,0.012695,-0.992554,0.236122,0.371298,0.021679,47,265,582,5536
1644162005.498199,-0.008911,0.007385,-0.992065,0.236122,0.462901,-0.054656,41,271,583,5520
1644162005.546629,-0.010254,0.011047,-0.991638,0.098718,0.462901,-0.237863,51,281,585,5584
1644162005.595692,-0.008789,0.009644,-0.99469,0.190321,0.325496,-0.069924,59,270,577,5536
1644162005.643676,-0.009949,0.011902,-0.991333,0.327725,0.508702,-0.115725,47,280,572,5472
1644162005.694266,-0.007385,0.009033,-0.993896,0.251389,0.462901,-0.115725,53,276,578,5552
1644162005.74397,-0.012085,0.01123,-0.990723,0.327725,0.371298,-0.161527,48,279,585,5584
1644162005.789036,-0.008667,0.007996,-0.990479,0.113985,0.294962,-0.008855,45,277,582,5488
1644162005.885472,-0.008118,0.007996,-0.991272,0.297191,0.371298,-0.161527,53,271,573,5584
1644162005.933783,-0.00824,0.009521,-0.990417,0.281924,0.432366,-0.176794,55,271,587,5472
1644162005.982411,-0.010132,0.012329,-0.991638,0.312458,0.447634,0.021679,47,265,579,5552
1644162006.03055,-0.010681,0.010559,-0.993286,0.175053,0.462901,-0.100458,60,276,571,5552
1644162006.081499,-0.007996,0.011047,-0.993225,0.281924,0.386565,-0.085191,46,271,580,5536
1644162006.127324,-0.00885,0.011658,-0.991455,0.175053,0.356031,-0.024122,57,270,577,5584
1644162006.175689,-0.010132,0.008911,-0.991089,0.388794,0.371298,-0.054656,59,270,575,5552
1644162006.224094,-0.010376,0.009521,-0.989685,0.342992,0.417099,-0.14626,55,274,576,5536
1644162006.272479,-0.011047,0.009216,-0.992737,0.144519,0.493435,-0.161527,49,280,582,5584
1644162006.32086,-0.010315,0.007324,-0.991272,0.129252,0.478168,0.021679,46,276,585,5488
1644162006.369253,-0.011963,0.009277,-0.993042,0.007115,0.478168,-0.192061,47,282,572,5472
1644162006.417641,-0.010681,0.010132,-0.99176,0.098718,0.340763,-0.192061,42,280,572,5536
1644162006.466034,-0.011292,0.008423,-0.990784,0.388794,0.432366,-0.176794,60,266,573,5584
1644162006.514441,-0.011719,0.007996,-0.992981,0.175053,0.493435,-0.14626,49,277,584,5600
1644162006.563688,-0.008362,0.008423,-0.993042,0.266656,0.462901,-0.085191,47,280,577,5536
1644162006.61436,-0.008606,0.007568,-0.99054,0.297191,0.310229,-0.039389,49,275,579,5536
1644162006.66435,-0.009705,0.009094,-0.990479,0.236122,0.432366,-0.161527,52,280,575,5472
1644162006.756387,-0.010559,0.010498,-0.992859,0.236122,0.447634,-0.130992,53,274,569,5584
1644162006.804867,-0.010254,0.009705,-0.992493,0.236122,0.401832,-0.039389,45,280,577,5552
1644162006.853193,-0.011658,0.009827,-0.990723,0.220855,0.386565,-0.192061,48,274,585,5520
1644162006.901579,-0.01001,0.009827,-0.994507,0.419328,0.432366,-0.222595,53,271,573,5536
1644162006.949976,-0.008728,0.010803,-0.991272,0.312458,0.356031,-0.25313,49,273,575,5584
1644162006.998345,-0.008728,0.008667,-0.988464,0.327725,0.417099,-0.192061,51,281,578,5520
1644162007.052321,-0.008118,0.012451,-0.991333,0.175053,0.539237,-0.14626,59,280,577,5584
1644162007.095172,-0.009155,0.010925,-0.989807,0.205588,0.417099,-0.115725,55,276,585,5536
1644162007.143524,-0.006653,0.009033,-0.993347,0.175053,0.478168,0.021679,41,276,580,5536
1644162007.191886,-0.009521,0.009644,-0.992493,0.175053,0.462901,-0.100458,51,279,576,5536
1644162007.240274,-0.008545,0.011047,-0.987732,0.251389,0.325496,-0.024122,54,268,570,5520
1644162007.288634,-0.010803,0.009644,-0.990784,0.404061,0.462901,-0.115725,51,279,573,5552
1644162007.337051,-0.00769,0.009644,-0.993103,0.266656,0.401832,-0.176794,53,279,578,5536
1644162007.385411,-0.010193,0.010315,-0.98938,0.220855,0.493435,-0.161527,43,276,573,5648
1644162007.433853,-0.007874,0.008301,-0.99115,0.175053,0.432366,-0.192061,43,271,573,5584
1644162007.482238,-0.013,0.009766,-0.992615,0.129252,0.417099,-0.039389,54,275,589,5552
1644162007.530619,-0.009644,0.01062,-0.991211,0.281924,0.554504,-0.054656,48,281,571,5536
1644162007.579859,-0.009644,0.010986,-0.991455,0.190321,0.417099,-0.115725,43,276,566,5584
1644162007.629985,-0.007751,0.007935,-0.990234,0.098718,0.417099,-0.085191,42,270,572,5488
1644162007.680424,-0.006409,0.009277,-0.990601,0.144519,0.386565,-0.161527,48,276,576,5552
1644162007.725417,-0.007996,0.012329,-0.990601,0.312458,0.340763,-0.069924,51,274,576,5536
1644162007.820947,-0.010437,0.013733,-0.994263,0.205588,0.447634,-0.130992,54,273,563,5552
1644162007.869344,-0.009338,0.008057,-0.991943,0.281924,0.462901,-0.039389,55,276,573,5536
1644162007.917764,-0.010864,0.009521,-0.989319,0.220855,0.508702,0.067481,45,270,579,5552
1644162007.96616,-0.011169,0.009949,-0.99115,0.190321,0.371298,-0.054656,47,277,570,5488
1644162008.014529,-0.012939,0.009827,-0.992065,0.159786,0.447634,-0.054656,53,279,569,5536
1644162008.063338,-0.009888,0.007324,-0.991272,0.205588,0.417099,-0.039389,55,274,578,5648
1644162008.111287,-0.008911,0.00885,-0.99231,0.205588,0.356031,-0.161527,58,281,566,5536
1644162008.159697,-0.01178,0.007751,-0.991516,0.190321,0.356031,-0.161527,59,275,579,5536
1644162008.208076,-0.010803,0.009094,-0.99176,0.312458,0.310229,-0.161527,55,279,576,5488
1644162008.256469,-0.012085,0.007202,-0.990417,0.190321,0.24916,-0.069924,48,276,583,5536
1644162008.304871,-0.009521,0.00769,-0.993713,0.220855,0.432366,-0.176794,52,273,584,5536
1644162008.353254,-0.011719,0.008484,-0.991638,0.281924,0.493435,-0.207328,53,264,585,5552
1644162008.401639,-0.010315,0.009644,-0.993591,0.327725,0.386565,0.006412,51,283,580,5584
1644162008.450034,-0.011963,0.009094,-0.990967,0.327725,0.508702,0.082748,52,273,561,5536
1644162008.498383,-0.010925,0.00769,-0.987488,0.342992,0.585038,-0.14626,55,274,583,5584
1644162008.546789,-0.008789,0.008667,-0.99176,0.281924,0.371298,-0.008855,46,276,580,5488
1644162008.595186,-0.009521,0.010986,-0.993042,0.281924,0.478168,-0.115725,57,268,575,5536
1644162008.643557,-0.013489,0.007629,-0.993774,0.205588,0.218626,-0.008855,52,280,589,5584
1644162008.691975,-0.012817,0.008606,-0.98822,0.297191,0.417099,-0.130992,52,273,586,5552
1644162008.740398,-0.008179,0.011414,-0.99115,0.342992,0.493435,-0.115725,47,287,584,5584
1644162008.792423,-0.012512,0.00946,-0.99176,0.205588,0.279695,-0.130992,48,269,578,5600
1644162008.841883,-0.008545,0.012817,-0.992065,0.373527,0.447634,-0.130992,53,286,580,5584
1644162008.886674,-0.010132,0.007507,-0.992737,0.281924,0.325496,-0.039389,46,276,571,5536
1644162008.982479,-0.011108,0.007629,-0.991638,0.205588,0.63084,-0.008855,52,280,570,5472
1644162009.030728,-0.010559,0.009644,-0.99353,0.190321,0.401832,-0.100458,46,279,576,5536
1644162009.08352,-0.009216,0.010925,-0.992493,0.251389,0.432366,-0.130992,48,274,576,5536
1644162009.127466,-0.009521,0.011658,-0.992676,0.342992,0.523969,-0.100458,46,271,573,5472
1644162009.175872,-0.007202,0.009827,-0.992126,0.419328,0.294962,-0.024122,61,268,586,5584
1644162009.224265,-0.008484,0.010742,-0.989502,0.373527,0.554504,-0.054656,54,275,570,5600
1644162009.272645,-0.012817,0.00885,-0.992676,0.159786,0.478168,-0.069924,57,268,577,5536
1644162009.321041,-0.008118,0.008911,-0.992065,0.281924,0.401832,-0.024122,49,285,577,5488
1644162009.369441,-0.008789,0.009216,-0.990417,0.098718,0.447634,-0.039389,59,275,572,5536
1644162009.417821,-0.013062,0.006958,-0.992554,0.220855,0.569771,-0.069924,48,274,576,5584
1644162009.466218,-0.010986,0.011108,-0.989563,0.373527,0.386565,0.098015,57,282,572,5536
1644162009.514727,-0.009399,0.00885,-0.991943,0.236122,0.401832,-0.085191,41,286,576,5536
1644162009.562991,-0.008789,0.008118,-0.994019,0.190321,0.615573,-0.054656,42,277,572,5520
1644162009.611354,-0.011353,0.011047,-0.991333,0.220855,0.325496,-0.298931,46,269,573,5552
1644162009.659778,-0.011841,0.011719,-0.98999,0.098718,0.340763,0.006412,54,290,577,5536
1644162009.708175,-0.009277,0.007385,-0.987122,0.144519,0.493435,-0.069924,55,276,571,5536
1644162009.756526,-0.009399,0.010437,-0.98999,0.281924,0.462901,-0.192061,52,277,572,5584
1644162009.805377,-0.010071,0.010071,-0.993042,0.327725,0.401832,-0.100458,57,280,568,5536
1644162009.853402,-0.008728,0.008972,-0.990417,0.113985,0.401832,-0.222595,48,274,569,5536
1644162009.903657,-0.010376,0.01062,-0.993591,0.35826,0.340763,-0.161527,52,275,579,5488
1644162009.953699,-0.011597,0.010132,-0.993103,0.312458,0.462901,-0.115725,48,266,576,5584
1644162010.003946,-0.009521,0.010071,-0.992981,0.236122,0.294962,-0.222595,48,276,578,5536
1644162010.095304,-0.008911,0.009521,-0.992676,0.297191,0.539237,0.021679,47,273,579,5536
1644162010.143667,-0.010742,0.009338,-0.990601,0.220855,0.356031,-0.176794,49,282,579,5536
1644162010.19207,-0.012268,0.008789,-0.990784,0.08345,0.432366,-0.115725,52,265,572,5536
1644162010.240426,-0.012085,0.008484,-0.990173,0.220855,0.340763,-0.054656,52,273,577,5600
1644162010.288818,-0.008972,0.009705,-0.98938,0.266656,0.447634,-0.176794,51,269,573,5632
1644162010.337218,-0.010742,0.009338,-0.992432,0.205588,0.462901,-0.069924,42,270,577,5584
1644162010.385612,-0.011658,0.00946,-0.991089,0.236122,0.462901,0.021679,53,276,576,5584
1644162010.434006,-0.014282,0.006165,-0.990906,0.144519,0.401832,0.036947,51,283,562,5536
1644162010.482414,-0.007996,0.010986,-0.993835,0.281924,0.310229,-0.161527,53,266,566,5488
1644162010.530766,-0.010315,0.010071,-0.991455,0.312458,0.432366,-0.115725,49,273,582,5520
1644162010.579225,-0.013916,0.011108,-0.99054,0.220855,0.356031,-0.161527,54,275,575,5552
1644162010.627565,-0.009277,0.012024,-0.991882,0.144519,0.371298,-0.085191,43,274,571,5536
1644162010.675977,-0.009705,0.010254,-0.991455,0.281924,0.294962,-0.130992,43,276,573,5584
1644162010.724363,-0.009155,0.01178,-0.992615,0.144519,0.523969,-0.130992,49,277,577,5536
1644162010.772766,-0.012451,0.009949,-0.991516,0.251389,0.432366,-0.14626,51,274,580,5488
1644162010.821168,-0.013062,0.009583,-0.989868,0.159786,0.569771,-0.176794,53,274,573,5488
1644162010.869553,-0.008789,0.008118,-0.992798,0.236122,0.447634,-0.085191,55,281,573,5552
1644162010.917973,-0.012512,0.007996,-0.992676,0.327725,0.401832,-0.085191,52,265,565,5584
1644162010.966356,-0.012817,0.011841,-0.989685,0.281924,0.447634,-0.115725,51,276,585,5536
1644162011.016231,-0.009399,0.00946,-0.990784,0.129252,0.417099,-0.207328,51,279,576,5552
1644162011.078682,-0.011475,0.007324,-0.987488,0.327725,0.508702,-0.085191,46,271,576,5536
1644162011.112534,-0.011963,0.009338,-0.991211,0.205588,0.478168,-0.085191,39,274,580,5584
1644162011.208236,-0.010254,0.008606,-0.99353,0.220855,0.279695,-0.085191,54,273,584,5536
1644162011.256618,-0.011597,0.011902,-0.991638,0.312458,0.294962,-0.405802,48,271,569,5600
1644162011.305278,-0.011414,0.010254,-0.990356,0.068183,0.401832,-0.14626,52,273,572,5536
1644162011.353417,-0.010315,0.008484,-0.992554,0.419328,0.417099,-0.069924,43,283,569,5536
1644162011.401797,-0.010193,0.010315,-0.991943,0.297191,0.432366,-0.176794,47,270,568,5584
1644162011.450191,-0.010132,0.00824,-0.990479,0.098718,0.264427,-0.115725,49,265,572,5520
1644162011.498595,-0.008484,0.009155,-0.989441,0.281924,0.432366,-0.069924,58,283,576,5584
1644162011.54698,-0.009644,0.010742,-0.992981,0.266656,0.478168,-0.024122,57,275,582,5536
1644162011.595361,-0.007507,0.00885,-0.989868,0.35826,0.401832,-0.161527,47,277,579,5536
1644162011.643742,-0.00769,0.009216,-0.990356,0.251389,0.432366,-0.085191,47,280,575,5584
1644162011.692233,-0.008362,0.007629,-0.990295,0.190321,0.233893,-0.192061,48,276,587,5536
1644162011.740539,-0.006165,0.007996,-0.990906,0.068183,0.386565,-0.283664,46,276,587,5584
1644162011.78894,-0.009949,0.009827,-0.993896,0.236122,0.508702,-0.130992,55,279,571,5536
1644162011.837326,-0.007141,0.008057,-0.990356,0.175053,0.371298,-0.100458,51,276,576,5552
1644162011.885759,-0.011475,0.010559,-0.993286,0.175053,0.371298,-0.069924,55,269,578,5552
1644162011.934136,-0.012268,0.011353,-0.994141,0.312458,0.523969,-0.054656,49,270,579,5584
1644162011.982553,-0.010437,0.009583,-0.991638,0.205588,0.493435,-0.069924,51,281,583,5552
1644162012.030912,-0.009277,0.010193,-0.989563,0.281924,0.340763,-0.100458,45,275,577,5536
1644162012.088629,-0.009705,0.009399,-0.989807,0.175053,0.264427,-0.176794,55,266,571,5536
1644162012.128902,-0.00769,0.009033,-0.991516,0.159786,0.356031,0.021679,41,271,578,5584
1644162012.177784,-0.008606,0.011414,-0.98938,0.220855,0.356031,-0.100458,51,276,576,5536
1644162012.228144,-0.00946,0.009644,-0.993896,0.312458,0.417099,0.006412,53,276,571,5648
1644162012.27312,-0.00946,0.007629,-0.99176,0.312458,0.371298,-0.085191,48,269,571,5520
1644162012.369583,-0.008057,0.010559,-0.99176,0.251389,0.356031,-0.207328,60,259,580,5584
1644162012.417976,-0.008667,0.010498,-0.988037,0.205588,0.447634,-0.207328,54,273,577,5536
1644162012.466373,-0.010864,0.009216,-0.990784,0.175053,0.432366,-0.024122,41,266,587,5584
1644162012.514865,-0.008362,0.009094,-0.991943,0.220855,0.432366,-0.054656,58,286,578,5536
1644162012.563185,-0.009583,0.010132,-0.991028,0.159786,0.340763,-0.069924,47,280,572,5536
1644162012.611565,-0.011963,0.011047,-0.987549,0.220855,0.356031,-0.024122,51,271,583,5584
1644162012.659919,-0.010864,0.008057,-0.991943,0.190321,0.340763,-0.25313,54,273,575,5600
1644162012.70832,-0.010742,0.009277,-0.993774,0.388794,0.386565,-0.207328,39,286,580,5584
1644162012.756732,-0.012268,0.007874,-0.989014,0.281924,0.294962,-0.207328,48,271,576,5536
1644162012.805236,-0.008728,0.009521,-0.991882,0.251389,0.462901,0.036947,57,273,575,5552
1644162012.853511,-0.008057,0.010437,-0.993042,0.190321,0.340763,-0.130992,64,273,582,5584
1644162012.901932,-0.008484,0.009705,-0.992859,0.129252,0.523969,-0.054656,48,274,578,5456
1644162012.950325,-0.008911,0.009338,-0.993408,0.236122,0.356031,-0.237863,49,268,575,5536
1644162012.998722,-0.01123,0.008484,-0.993469,0.434595,0.401832,-0.25313,51,276,576,5488
1644162013.055959,-0.012573,0.009216,-0.991394,0.251389,0.356031,-0.14626,51,274,578,5520
1644162013.097178,-0.011169,0.009277,-0.991028,0.205588,0.356031,-0.039389,47,277,565,5584
1644162013.147756,-0.010742,0.009521,-0.992065,0.175053,0.294962,-0.161527,51,288,583,5536
1644162013.196185,-0.010071,0.008423,-0.992859,0.052916,0.447634,-0.161527,59,273,577,5536
1644162013.241201,-0.010986,0.007202,-0.99176,0.236122,0.401832,-0.039389,57,275,582,5488
1644162013.337392,-0.012329,0.008484,-0.993347,0.449863,0.310229,-0.100458,40,270,572,5536
1644162013.385765,-0.009583,0.012268,-0.991516,0.08345,0.478168,-0.115725,55,283,569,5536
1644162013.434187,-0.007751,0.010803,-0.99292,0.236122,0.508702,-0.14626,48,274,585,5584
1644162013.482558,-0.011658,0.010681,-0.992554,0.281924,0.508702,-0.008855,47,277,575,5600
1644162013.53097,-0.011475,0.007935,-0.990417,0.098718,0.401832,-0.222595,48,283,573,5552
1644162013.57935,-0.008728,0.010132,-0.993164,0.281924,0.233893,-0.161527,38,270,577,5536
1644162013.627742,-0.010132,0.009644,-0.990112,0.175053,0.432366,-0.054656,61,285,572,5536
1644162013.676137,-0.011963,0.008789,-0.990479,0.281924,0.417099,-0.115725,53,281,590,5552
1644162013.724527,-0.009949,0.009338,-0.991089,0.159786,0.371298,0.113282,42,270,579,5552
1644162013.772931,-0.009216,0.009705,-0.990723,0.190321,0.386565,-0.085191,57,275,572,5536
1644162013.821309,-0.012085,0.010437,-0.989136,0.190321,0.340763,-0.115725,51,274,569,5520
1644162013.869725,-0.010193,0.010315,-0.991516,0.373527,0.417099,-0.161527,53,281,573,5584
1644162013.918095,-0.009094,0.009277,-0.993286,0.190321,0.569771,-0.222595,46,271,576,5552
1644162013.966521,-0.012085,0.01178,-0.992432,0.251389,0.447634,-0.176794,45,273,572,5552
1644162014.0149,-0.007324,0.009521,-0.990723,0.190321,0.24916,-0.130992,46,279,578,5584
1644162014.078456,-0.007385,0.009155,-0.98999,0.113985,0.417099,-0.14626,46,279,583,5584
1644162014.111816,-0.009644,0.009583,-0.990601,0.205588,0.493435,0.006412,54,273,584,5536
1644162014.161834,-0.011902,0.007568,-0.988525,0.144519,0.447634,0.006412,42,270,584,5536
1644162014.211547,-0.008911,0.00824,-0.991089,0.220855,0.585038,-0.14626,48,281,580,5536
1644162014.26159,-0.012573,0.008789,-0.991455,0.190321,0.539237,-0.176794,52,273,584,5600
1644162014.353622,-0.013611,0.01062,-0.990356,0.113985,0.325496,0.067481,48,271,573,5536
1644162014.401988,-0.009155,0.010925,-0.992737,0.434595,0.600305,-0.115725,53,269,573,5584
1644162014.450372,-0.009583,0.008972,-0.990784,0.144519,0.356031,-0.176794,57,275,568,5552
1644162014.498777,-0.009949,0.010376,-0.987976,0.388794,0.493435,-0.039389,46,266,566,5600
1644162014.54718,-0.010864,0.012329,-0.991455,0.297191,0.325496,-0.115725,52,280,579,5488
1644162014.59553,-0.010925,0.009888,-0.99408,0.129252,0.371298,-0.100458,41,271,578,5536
1644162014.643941,-0.01062,0.007568,-0.993713,0.251389,0.386565,-0.14626,49,273,570,5600
1644162014.692343,-0.006592,0.01178,-0.993835,0.251389,0.310229,-0.115725,53,279,578,5536
1644162014.740712,-0.012451,0.010071,-0.991821,0.327725,0.462901,-0.115725,53,279,578,5584
1644162014.789098,-0.010376,0.012451,-0.993469,0.08345,0.447634,0.113282,57,277,579,5552
1644162014.837492,-0.009521,0.010864,-0.991272,0.205588,0.432366,-0.14626,39,276,571,5472
1644162014.88592,-0.007996,0.010254,-0.991821,0.281924,0.432366,-0.176794,45,282,570,5552
1644162014.934311,-0.009583,0.009949,-0.991638,0.068183,0.432366,0.006412,61,270,577,5488
1644162014.982725,-0.010559,0.007874,-0.992737,0.236122,0.371298,-0.130992,49,260,577,5584
1644162015.031095,-0.010498,0.007996,-0.993042,0.281924,0.417099,-0.161527,59,270,584,5536
1644162015.079556,-0.010742,0.010193,-0.990845,0.236122,0.401832,-0.008855,62,271,585,5552
1644162015.127838,-0.010925,0.008606,-0.992188,0.098718,0.401832,-0.130992,39,274,578,5520
1644162015.176352,-0.008362,0.010132,-0.989868,0.35826,0.493435,-0.14626,43,276,576,5584
1644162015.224695,-0.007568,0.012573,-0.990051,0.312458,0.508702,-0.115725,51,279,578,5584
1644162015.274507,-0.010864,0.009888,-0.992676,0.281924,0.340763,-0.100458,45,282,577,5536
1644162015.326309,-0.012268,0.010315,-0.993591,0.312458,0.340763,-0.222595,53,279,569,5632
1644162015.374826,-0.007324,0.006653,-0.993958,0.297191,0.523969,-0.237863,52,268,570,5536
1644162015.419231,-0.009033,0.007812,-0.991638,0.266656,0.417099,-0.161527,41,271,583,5584
1644162015.515289,-0.009644,0.009583,-0.989502,0.266656,0.386565,-0.176794,54,280,570,5552
1644162015.563391,-0.010437,0.010376,-0.989563,0.236122,0.462901,-0.237863,49,273,568,5584
1644162015.611776,-0.012695,0.01001,-0.991516,0.327725,0.401832,-0.054656,61,275,582,5584
1644162015.66016,-0.010803,0.010498,-0.997009,0.297191,0.340763,-0.222595,52,280,579,5552
1644162015.70857,-0.011414,0.010071,-0.991638,0.129252,0.325496,-0.085191,57,265,570,5488
1644162015.756917,-0.012268,0.010132,-0.99292,0.220855,0.386565,-0.115725,46,276,578,5584
1644162015.805314,-0.011475,0.011536,-0.990784,0.190321,0.294962,-0.024122,55,262,585,5536
1644162015.853729,-0.010864,0.012085,-0.990479,0.205588,0.523969,-0.222595,47,275,584,5536
1644162015.902171,-0.008972,0.008789,-0.991699,0.297191,0.539237,-0.14626,45,273,575,5536
1644162015.9505,-0.008972,0.010254,-0.991089,0.220855,0.310229,0.006412,47,280,582,5536
1644162015.998866,-0.010986,0.007385,-0.990479,0.236122,0.462901,-0.115725,42,277,577,5552
1644162016.055541,-0.009583,0.009094,-0.993713,0.236122,0.462901,-0.069924,36,276,585,5584
1644162016.095662,-0.009277,0.009033,-0.990723,0.281924,0.386565,-0.115725,53,288,583,5536
1644162016.14404,-0.011047,0.012085,-0.992371,0.266656,0.386565,-0.008855,57,280,577,5648
1644162016.192424,-0.010071,0.010193,-0.992737,0.266656,0.279695,-0.192061,40,270,575,5600
1644162016.240777,-0.012512,0.008789,-0.993103,0.35826,0.401832,-0.069924,48,269,578,5536
1644162016.289193,-0.009521,0.008179,-0.990906,0.373527,0.417099,-0.054656,46,283,583,5536
1644162016.337582,-0.009827,0.008484,-0.992432,0.113985,0.478168,-0.115725,47,275,577,5552
1644162016.386111,-0.009705,0.010559,-0.992188,0.144519,0.447634,-0.054656,49,270,570,5584
1644162016.435377,-0.009705,0.01123,-0.99054,0.266656,0.417099,0.036947,53,269,573,5536
1644162016.485509,-0.010132,0.006165,-0.991943,0.327725,0.371298,-0.039389,52,275,584,5536
1644162016.536001,-0.00946,0.009277,-0.991943,0.373527,0.401832,-0.069924,57,277,572,5488
1644162016.580622,-0.009827,0.007263,-0.990967,0.251389,0.432366,-0.100458,41,276,578,5552
1644162016.676301,-0.009949,0.008972,-0.990784,0.205588,0.432366,-0.039389,53,276,576,5488
1644162016.724874,-0.009827,0.010986,-0.991699,0.297191,0.294962,-0.069924,48,276,569,5584
1644162016.773096,-0.01001,0.01001,-0.99469,0.236122,0.493435,-0.100458,55,269,580,5552
1644162016.821525,-0.010803,0.009155,-0.992249,0.236122,0.63084,-0.054656,48,271,569,5456
1644162016.869908,-0.008728,0.011597,-0.992065,0.205588,0.508702,-0.039389,48,269,578,5552
1644162016.918306,-0.007996,0.007324,-0.991577,0.35826,0.340763,-0.130992,45,280,568,5552
1644162016.966691,-0.01062,0.011169,-0.99054,0.281924,0.401832,-0.085191,45,280,584,5536
1644162017.015208,-0.008423,0.00885,-0.992249,0.190321,0.447634,-0.176794,55,264,573,5536
1644162017.064834,-0.008789,0.012268,-0.989136,0.205588,0.478168,-0.268397,54,273,586,5536
1644162017.111828,-0.007446,0.010315,-0.989746,0.205588,0.386565,-0.192061,43,279,576,5536
1644162017.160192,-0.010559,0.008057,-0.992126,0.175053,0.371298,-0.054656,46,281,573,5536
1644162017.2086,-0.008972,0.010559,-0.992859,0.190321,0.356031,-0.054656,53,274,585,5552
1644162017.256984,-0.01355,0.010071,-0.990906,0.266656,0.600305,-0.024122,42,275,579,5472
1644162017.30535,-0.010437,0.011963,-0.988892,0.266656,0.417099,-0.069924,48,276,571,5584
1644162017.35376,-0.011047,0.010864,-0.98999,0.159786,0.279695,-0.130992,48,281,578,5536
1644162017.402237,-0.00946,0.008118,-0.992554,0.327725,0.325496,-0.085191,54,273,577,5536
1644162017.450551,-0.010925,0.010437,-0.993103,0.129252,0.417099,-0.008855,52,290,575,5552
1644162017.498917,-0.010559,0.008179,-0.991638,0.312458,0.386565,-0.100458,49,275,582,5536
1644162017.547329,-0.011841,0.010498,-0.993469,0.281924,0.554504,-0.176794,51,264,585,5488
1644162017.596057,-0.008728,0.005493,-0.989807,0.281924,0.401832,-0.085191,43,271,573,5584
1644162017.646645,-0.009521,0.010803,-0.99353,0.312458,0.493435,-0.024122,49,270,575,5552
1644162017.696677,-0.011658,0.009155,-0.988586,0.144519,0.478168,0.036947,40,280,575,5584
1644162017.741797,-0.010803,0.008728,-0.989929,0.281924,0.493435,-0.085191,52,282,582,5536
1644162017.83771,-0.008606,0.010376,-0.989746,0.266656,0.447634,-0.039389,47,277,570,5520
1644162017.886082,-0.010071,0.008972,-0.990356,0.266656,0.432366,-0.207328,52,268,570,5584
1644162017.934504,-0.010437,0.009216,-0.991882,0.404061,0.401832,0.113282,40,273,577,5520
1644162017.982895,-0.011047,0.009705,-0.993958,0.159786,0.310229,-0.192061,46,283,578,5536
1644162018.031274,-0.007324,0.01123,-0.992126,0.312458,0.325496,-0.069924,46,276,576,5472
1644162018.079775,-0.009033,0.009094,-0.99176,0.129252,0.386565,-0.069924,57,277,568,5584
1644162018.128039,-0.01239,0.00946,-0.990112,0.266656,0.478168,-0.130992,48,266,576,5552
1644162018.176383,-0.006958,0.007568,-0.992249,0.220855,0.340763,0.036947,46,274,564,5552
1644162018.224817,-0.009155,0.009949,-0.990112,0.205588,0.371298,-0.100458,47,260,568,5584
1644162018.273188,-0.010925,0.011475,-0.991699,0.175053,0.585038,0.006412,45,270,572,5552
1644162018.321571,-0.007812,0.009094,-0.992981,0.281924,0.493435,-0.008855,40,273,568,5536
1644162018.369964,-0.010315,0.00946,-0.992065,0.236122,0.386565,-0.115725,53,283,580,5536
1644162018.418353,-0.010071,0.011475,-0.990906,0.175053,0.432366,-0.008855,51,276,578,5472
1644162018.466743,-0.010437,0.013367,-0.993774,0.175053,0.539237,-0.069924,51,274,571,5648
1644162018.515268,-0.009644,0.009888,-0.991333,0.297191,0.386565,-0.008855,42,270,586,5536
1644162018.564157,-0.010498,0.006287,-0.992188,0.373527,0.508702,-0.069924,58,276,564,5584
1644162018.612555,-0.00946,0.011169,-0.990417,0.129252,0.401832,-0.207328,53,286,580,5520
1644162018.663154,-0.009094,0.00885,-0.991577,0.098718,0.371298,-0.115725,55,281,585,5584
1644162018.713673,-0.013184,0.008484,-0.992126,0.251389,0.493435,-0.085191,52,270,568,5552
1644162018.805771,-0.01001,0.010986,-0.993042,0.205588,0.478168,0.006412,49,285,582,5584
1644162018.853908,-0.008728,0.009949,-0.990784,0.266656,0.462901,-0.069924,45,275,582,5520
1644162018.902425,-0.010986,0.007324,-0.992798,0.236122,0.478168,-0.085191,54,273,570,5584
1644162018.950676,-0.008118,0.010742,-0.991333,0.113985,0.432366,-0.069924,51,279,578,5456
1644162018.999066,-0.008972,0.009399,-0.99176,0.297191,0.417099,-0.130992,47,280,575,5488
1644162019.054389,-0.010254,0.008911,-0.992188,0.129252,0.356031,-0.008855,49,265,577,5536
1644162019.095839,-0.010681,0.008423,-0.991577,0.175053,0.417099,-0.085191,57,273,579,5584
1644162019.144191,-0.012451,0.006287,-0.993713,0.312458,0.508702,-0.130992,42,275,577,5488
1644162019.192608,-0.010925,0.00824,-0.99231,0.281924,0.356031,-0.085191,52,277,568,5520
1644162019.240985,-0.008728,0.006897,-0.990356,0.175053,0.401832,-0.039389,48,274,585,5584
1644162019.289356,-0.011536,0.008972,-0.988281,0.220855,0.447634,-0.176794,58,269,566,5536
1644162019.337764,-0.009216,0.009949,-0.992065,0.205588,0.279695,-0.069924,54,270,577,5536
1644162019.38615,-0.009399,0.010681,-0.993652,0.08345,0.432366,-0.222595,53,276,585,5552
1644162019.434669,-0.007874,0.004761,-0.99054,0.052916,0.356031,-0.069924,47,275,577,5488
1644162019.482948,-0.010132,0.009644,-0.992065,0.281924,0.432366,-0.039389,46,271,578,5536
1644162019.531302,-0.01123,0.008362,-0.991882,0.190321,0.371298,-0.069924,49,270,570,5632
1644162019.579714,-0.012085,0.009399,-0.991394,0.159786,0.279695,-0.100458,59,273,577,5456
1644162019.628103,-0.009644,0.009094,-0.990479,0.251389,0.447634,-0.14626,48,279,585,5552
1644162019.676486,-0.012268,0.009583,-0.991638,0.251389,0.478168,-0.100458,67,271,576,5536
1644162019.725623,-0.011536,0.009521,-0.989441,0.190321,0.401832,-0.008855,41,269,580,5536
1644162019.776381,-0.012512,0.008789,-0.991089,0.175053,0.508702,-0.008855,57,270,582,5552
1644162019.826969,-0.010315,0.00946,-0.994629,0.236122,0.417099,-0.14626,54,273,579,5536
1644162019.871701,-0.010315,0.006531,-0.990479,0.266656,0.478168,-0.176794,51,264,580,5552
1644162019.966871,-0.010437,0.012878,-0.99115,0.312458,0.432366,-0.039389,49,273,570,5520
1644162020.015435,-0.011475,0.009338,-0.993286,0.175053,0.356031,-0.298931,48,271,573,5600
1644162020.063728,-0.011047,0.009827,-0.992004,0.205588,0.340763,-0.14626,43,274,578,5552
1644162020.112053,-0.00885,0.012268,-0.991577,-0.008153,0.401832,-0.024122,49,275,572,5552
1644162020.16036,-0.010315,0.009827,-0.99115,0.342992,0.386565,-0.130992,49,275,575,5536
1644162020.208762,-0.011719,0.009155,-0.994385,0.342992,0.447634,-0.039389,48,281,566,5520
1644162020.257161,-0.013,0.006409,-0.991943,0.113985,0.432366,-0.176794,57,270,582,5536
1644162020.305545,-0.010071,0.009216,-0.990906,0.266656,0.569771,-0.176794,49,285,563,5584
1644162020.353958,-0.012268,0.010254,-0.99292,0.220855,0.447634,-0.268397,52,265,563,5520
1644162020.402336,-0.009766,0.010437,-0.989746,0.159786,0.478168,0.052214,58,281,576,5584
1644162020.450739,-0.009216,0.007568,-0.991577,0.281924,0.294962,-0.024122,43,283,573,5520
1644162020.499126,-0.010376,0.009705,-0.991089,0.113985,0.432366,-0.115725,49,268,570,5536
1644162020.547519,-0.008484,0.010681,-0.98938,0.236122,0.279695,-0.085191,46,279,576,5584
1644162020.595896,-0.009644,0.007812,-0.99292,0.342992,0.401832,-0.115725,49,280,582,5520
1644162020.644304,-0.011475,0.010437,-0.994019,0.129252,0.523969,-0.039389,52,277,579,5584
1644162020.692698,-0.008362,0.006958,-0.994019,0.251389,0.371298,-0.176794,53,279,583,5520
1644162020.741083,-0.010376,0.009644,-0.992371,0.297191,0.386565,-0.024122,52,268,577,5472
1644162020.789458,-0.010376,0.010315,-0.992859,0.220855,0.356031,-0.130992,45,273,572,5536
1644162020.8379,-0.011047,0.009766,-0.992493,0.129252,0.508702,-0.161527,47,270,570,5472
1644162020.887487,-0.006348,0.007629,-0.994812,0.327725,0.356031,-0.130992,49,270,586,5488
1644162020.937697,-0.010864,0.009338,-0.989197,0.205588,0.478168,-0.14626,45,270,570,5488
1644162020.98787,-0.008789,0.00885,-0.991699,0.480397,0.340763,-0.039389,55,276,569,5552
1644162021.032858,-0.009705,0.010986,-0.992126,0.312458,0.24916,-0.069924,49,275,570,5536
1644162021.128215,-0.007996,0.009155,-0.992188,0.251389,0.478168,-0.085191,54,273,570,5536
1644162021.176557,-0.013245,0.009338,-0.991211,0.205588,0.432366,0.067481,38,270,584,5584
1644162021.225207,-0.010681,0.008911,-0.993408,0.205588,0.417099,-0.085191,58,279,578,5536
1644162021.273365,-0.012756,0.011658,-0.994812,0.35826,0.356031,-0.176794,55,271,580,5632
1644162021.321741,-0.007507,0.010925,-0.993835,0.312458,0.294962,-0.100458,42,282,577,5552
1644162021.370149,-0.010193,0.011536,-0.992371,0.342992,0.417099,-0.008855,52,277,577,5584
1644162021.418515,-0.011169,0.009827,-0.992798,0.297191,0.462901,-0.039389,57,280,568,5536
1644162021.46692,-0.011597,0.008057,-0.990662,0.113985,0.447634,-0.085191,47,273,575,5552
1644162021.515307,-0.009644,0.008301,-0.993103,0.159786,0.417099,-0.024122,57,265,572,5552
1644162021.563718,-0.009766,0.007507,-0.993652,0.342992,0.569771,-0.192061,48,266,576,5552
1644162021.612084,-0.013489,0.01001,-0.991455,0.236122,0.493435,-0.069924,51,271,576,5552
1644162021.66049,-0.012024,0.011414,-0.991333,0.190321,0.340763,-0.100458,53,274,580,5536
1644162021.708882,-0.009521,0.006348,-0.991943,0.281924,0.432366,0.052214,38,285,568,5552
1644162021.757242,-0.009644,0.008179,-0.99353,0.342992,0.432366,-0.237863,39,276,583,5488
1644162021.805651,-0.010742,0.011047,-0.991211,0.404061,0.447634,-0.130992,43,276,578,5552
1644162021.854088,-0.012695,0.010559,-0.993469,0.388794,0.264427,-0.054656,48,276,592,5536
1644162021.902488,-0.008911,0.007751,-0.992493,0.220855,0.203359,-0.192061,48,271,587,5584
1644162021.95102,-0.011047,0.012878,-0.992126,0.266656,0.340763,-0.222595,48,271,580,5536
1644162021.999262,-0.011658,0.010498,-0.990295,0.266656,0.371298,0.006412,47,270,584,5536
1644162022.096054,-0.010803,0.012512,-0.993469,0.35826,0.294962,-0.161527,58,281,569,5536
1644162022.144416,-0.009399,0.009888,-0.99176,0.281924,0.508702,-0.14626,48,271,578,5520
1644162022.192769,-0.010742,0.010437,-0.993347,0.327725,0.294962,-0.115725,47,277,572,5536
1644162022.241133,-0.012817,0.010742,-0.993164,0.190321,0.279695,0.067481,45,273,575,5584
1644162022.289545,-0.009033,0.008545,-0.989807,0.35826,0.417099,-0.207328,46,279,576,5552
1644162022.337934,-0.009399,0.010864,-0.991699,0.312458,0.523969,-0.130992,45,273,572,5536
1644162022.386328,-0.011536,0.009338,-0.991028,0.342992,0.539237,-0.222595,57,280,568,5472
1644162022.434727,-0.010315,0.007507,-0.99176,0.297191,0.310229,-0.130992,58,271,573,5536
1644162022.483167,-0.010925,0.008301,-0.992676,0.312458,0.340763,-0.130992,42,263,575,5536
1644162022.531502,-0.008667,0.006958,-0.991455,0.205588,0.508702,-0.192061,36,274,583,5520
1644162022.579882,-0.008789,0.00824,-0.992676,0.190321,0.462901,-0.176794,55,274,573,5552
1644162022.628268,-0.010864,0.008789,-0.993103,0.175053,0.386565,-0.237863,53,266,576,5536
1644162022.676669,-0.010925,0.009949,-0.99115,0.159786,0.447634,-0.039389,40,275,584,5536
1644162022.725153,-0.011902,0.010315,-0.992249,0.159786,0.432366,-0.130992,55,276,583,5520
1644162022.773463,-0.009216,0.011047,-0.994019,0.236122,0.447634,0.082748,49,268,568,5488
1644162022.821817,-0.009521,0.009644,-0.992737,0.236122,0.417099,-0.14626,48,259,571,5552
1644162022.870282,-0.009277,0.011841,-0.990601,0.373527,0.386565,-0.222595,43,271,583,5536
1644162022.918629,-0.010681,0.008057,-0.994324,0.159786,0.386565,-0.176794,57,273,579,5552
1644162022.967065,-0.009155,0.009216,-0.991394,0.266656,0.432366,-0.100458,57,270,579,5536
1644162023.016276,-0.009827,0.009827,-0.991516,0.373527,0.508702,0.052214,52,275,575,5584
1644162023.07916,-0.01001,0.008667,-0.99231,0.373527,0.462901,-0.100458,48,291,578,5536
1644162023.112775,-0.007324,0.01239,-0.991516,0.220855,0.401832,-0.115725,49,275,582,5584
1644162023.208993,-0.011353,0.00946,-0.990662,0.205588,0.356031,-0.024122,42,275,568,5536
1644162023.25738,-0.01239,0.008667,-0.989929,0.159786,0.417099,-0.054656,46,274,571,5552
1644162023.305753,-0.010437,0.01123,-0.990784,0.266656,0.554504,-0.14626,51,269,576,5520
1644162023.354141,-0.009155,0.01001,-0.989685,0.098718,0.462901,-0.115725,53,279,576,5520
1644162023.402572,-0.012878,0.009705,-0.991272,0.251389,0.294962,-0.207328,51,279,573,5472
1644162023.450957,-0.008789,0.009521,-0.99292,0.144519,0.462901,-0.008855,55,283,569,5584
1644162023.499319,-0.008911,0.010437,-0.988464,0.220855,0.401832,-0.085191,43,271,562,5552
1644162023.547698,-0.009949,0.010681,-0.991211,0.281924,0.401832,-0.054656,54,282,572,5552
1644162023.596117,-0.010681,0.010254,-0.992493,0.342992,0.325496,-0.069924,48,269,578,5584
1644162023.644508,-0.009521,0.010376,-0.992188,0.113985,0.523969,-0.085191,47,273,577,5536
1644162023.692928,-0.008667,0.011169,-0.992004,0.159786,0.478168,-0.115725,49,290,582,5536
1644162023.741293,-0.013123,0.007446,-0.992737,0.373527,0.539237,-0.130992,53,259,580,5536
1644162023.789686,-0.013855,0.007629,-0.992004,0.175053,0.417099,-0.100458,52,282,582,5536
1644162023.838073,-0.013611,0.009216,-0.99231,0.281924,0.386565,-0.130992,55,276,573,5600
1644162023.886434,-0.007996,0.006714,-0.989502,0.342992,0.294962,0.036947,52,275,584,5536
1644162023.934855,-0.010071,0.010498,-0.992859,0.312458,0.417099,-0.024122,48,274,583,5632
1644162023.983241,-0.009338,0.01239,-0.98938,0.342992,0.325496,-0.192061,51,281,569,5552
1644162024.031642,-0.012817,0.009216,-0.991821,0.236122,0.508702,-0.008855,53,274,571,5552
1644162024.086757,-0.010254,0.011292,-0.990723,0.220855,0.569771,-0.069924,52,273,572,5552
1644162024.130436,-0.010376,0.007751,-0.990906,0.220855,0.478168,-0.100458,55,274,571,5600
1644162024.180023,-0.00769,0.00946,-0.990234,0.327725,0.432366,-0.024122,46,271,569,5536
1644162024.230086,-0.011169,0.008911,-0.993286,0.220855,0.432366,-0.069924,53,288,571,5520
1644162024.321919,-0.011414,0.009644,-0.994507,0.419328,0.386565,-0.14626,52,280,565,5552
1644162024.370323,-0.009216,0.013062,-0.991943,0.297191,0.325496,-0.100458,57,280,575,5552
1644162024.418702,-0.012268,0.012085,-0.991699,0.159786,0.493435,-0.192061,52,280,575,5536
1644162024.467108,-0.013245,0.010986,-0.991882,0.236122,0.447634,-0.085191,54,280,570,5536
1644162024.515471,-0.006775,0.011475,-0.993835,0.205588,0.523969,-0.039389,59,275,572,5552
1644162024.563872,-0.00885,0.008667,-0.993958,0.342992,0.569771,-0.024122,49,265,575,5520
1644162024.612277,-0.009033,0.010315,-0.99176,0.327725,0.310229,-0.161527,46,281,569,5600
1644162024.660665,-0.011902,0.009094,-0.991394,0.251389,0.447634,-0.207328,54,275,577,5536
1644162024.709042,-0.007568,0.009888,-0.991699,0.327725,0.401832,-0.130992,51,271,578,5584
1644162024.757449,-0.010681,0.00531,-0.990051,0.297191,0.493435,-0.176794,45,265,572,5552
1644162024.80584,-0.011047,0.010132,-0.988953,0.297191,0.554504,-0.115725,49,273,570,5600
1644162024.854272,-0.011169,0.008911,-0.989685,0.175053,0.356031,-0.085191,54,277,579,5584
1644162024.90266,-0.008179,0.01062,-0.992432,0.251389,0.447634,0.067481,38,277,570,5552
1644162024.951039,-0.00946,0.010681,-0.992615,0.175053,0.356031,-0.161527,53,279,576,5584
1644162024.999426,-0.011414,0.010376,-0.989685,0.190321,0.539237,-0.100458,52,270,582,5552
1644162025.060264,-0.010254,0.006592,-0.991882,0.236122,0.417099,-0.008855,57,270,575,5552
1644162025.097156,-0.011536,0.009766,-0.990356,0.312458,0.310229,-0.115725,54,273,586,5536
1644162025.144605,-0.010681,0.010071,-0.991638,0.113985,0.325496,-0.085191,48,271,583,5488
1644162025.19297,-0.010315,0.009949,-0.990845,0.281924,0.356031,-0.130992,48,283,583,5584
1644162025.241693,-0.011169,0.008484,-0.991516,0.297191,0.371298,-0.115725,53,276,569,5488
1644162025.292007,-0.010864,0.010132,-0.990112,0.312458,0.585038,-0.008855,54,275,572,5600
1644162025.342697,-0.01062,0.010315,-0.992432,0.388794,0.432366,-0.039389,46,276,566,5536
1644162025.387601,-0.010193,0.010559,-0.99292,0.205588,0.310229,0.082748,53,266,585,5648
1644162025.483306,-0.011597,0.008789,-0.991089,0.190321,0.356031,-0.069924,51,276,573,5584
1644162025.531674,-0.007568,0.009399,-0.992371,0.144519,0.493435,0.036947,46,281,576,5472
1644162025.580064,-0.01123,0.008606,-0.992188,0.220855,0.417099,0.006412,46,274,573,5552
1644162025.628455,-0.008667,0.009521,-0.992615,0.35826,0.508702,-0.085191,52,270,561,5600
1644162025.676841,-0.010742,0.008423,-0.992737,0.342992,0.432366,-0.008855,51,271,576,5520
1644162025.72524,-0.01178,0.010498,-0.990234,0.236122,0.417099,-0.085191,57,273,575,5552
1644162025.773639,-0.012695,0.009766,-0.991211,0.266656,0.478168,0.036947,51,279,573,5584
1644162025.822069,-0.009583,0.008911,-0.991394,0.327725,0.478168,-0.024122,47,280,575,5552
1644162025.870447,-0.009399,0.009155,-0.98999,0.144519,0.386565,-0.085191,53,276,573,5584
1644162025.918816,-0.010132,0.008911,-0.993408,0.129252,0.294962,-0.024122,45,277,577,5536
1644162025.967229,-0.010559,0.011292,-0.995056,0.251389,0.417099,-0.054656,52,285,572,5536
1644162026.015618,-0.011169,0.010132,-0.991699,0.373527,0.508702,-0.008855,47,275,575,5600
1644162026.074342,-0.012634,0.009094,-0.990295,0.175053,0.386565,0.006412,43,281,576,5520
1644162026.112387,-0.011047,0.009338,-0.993225,0.190321,0.386565,0.006412,49,275,591,5536
1644162026.160743,-0.010742,0.008484,-0.990601,0.297191,0.294962,0.021679,51,274,573,5584
1644162026.209427,-0.008423,0.011414,-0.992126,0.129252,0.462901,-0.069924,55,279,573,5584
1644162026.259786,-0.00885,0.007019,-0.992798,0.373527,0.447634,-0.054656,51,262,580,5536
1644162026.310053,-0.009033,0.011108,-0.992432,0.190321,0.432366,-0.069924,52,280,570,5536
1644162026.355162,-0.009766,0.008118,-0.994873,0.297191,0.325496,-0.085191,46,281,578,5584
1644162026.451113,-0.00946,0.008972,-0.991272,0.312458,0.447634,-0.176794,51,279,569,5536
1644162026.499448,-0.012146,0.008301,-0.991028,0.175053,0.340763,-0.176794,57,277,570,5472
1644162026.547832,-0.012024,0.012573,-0.991455,0.220855,0.462901,-0.283664,41,269,578,5536
1644162026.596256,-0.007568,0.013794,-0.99231,0.281924,0.371298,-0.283664,51,281,571,5472
1644162026.644653,-0.00708,0.010498,-0.990601,0.144519,0.356031,0.098015,43,266,576,5488
1644162026.693053,-0.010803,0.011047,-0.990417,0.312458,0.417099,-0.085191,59,270,563,5552
1644162026.741439,-0.007141,0.00946,-0.992004,0.251389,0.386565,-0.085191,54,285,570,5520
1644162026.789823,-0.008911,0.01062,-0.990173,0.190321,0.508702,0.098015,43,274,573,5536
1644162026.83826,-0.009583,0.009888,-0.98999,0.312458,0.462901,0.052214,58,276,569,5536
1644162026.886644,-0.01062,0.012512,-0.989685,0.190321,0.417099,-0.039389,49,277,579,5552
1644162026.935147,-0.010864,0.00946,-0.991272,0.342992,0.539237,-0.115725,47,265,565,5536
1644162026.983441,-0.009827,0.009766,-0.991882,0.129252,0.401832,-0.024122,48,279,580,5520
1644162027.0318,-0.012085,0.013672,-0.992188,0.266656,0.371298,-0.085191,53,274,571,5536
1644162027.080493,-0.009216,0.011658,-0.990356,0.175053,0.432366,0.12855,51,271,578,5488
1644162027.128515,-0.009521,0.009644,-0.991211,0.434595,0.218626,-0.069924,49,275,575,5536
1644162027.176938,-0.011719,0.012268,-0.989441,0.190321,0.386565,-0.115725,49,282,589,5584
1644162027.225323,-0.010437,0.009399,-0.989258,0.373527,0.508702,-0.130992,58,279,585,5536
1644162027.273695,-0.007874,0.009399,-0.994324,0.266656,0.447634,-0.039389,46,279,576,5552
1644162027.322173,-0.007568,0.012085,-0.991516,0.175053,0.569771,-0.192061,55,286,573,5600
1644162027.370832,-0.01001,0.007935,-0.992676,0.297191,0.707176,-0.054656,49,273,577,5536
1644162027.421339,-0.011169,0.008728,-0.988403,0.35826,0.356031,-0.085191,54,282,575,5536
1644162027.471423,-0.010437,0.011658,-0.992004,0.236122,0.432366,-0.176794,43,266,576,5488
1644162027.516614,-0.012207,0.008911,-0.990234,0.251389,0.447634,-0.115725,48,271,569,5552
1644162027.612469,-0.009277,0.003967,-0.991394,0.35826,0.401832,-0.207328,51,271,576,5552
1644162027.660828,-0.008728,0.008667,-0.991699,0.266656,0.417099,0.036947,52,275,575,5536
1644162027.709231,-0.007202,0.010864,-0.991333,0.281924,0.417099,-0.130992,53,279,569,5536
1644162027.757585,-0.009583,0.009827,-0.994202,0.113985,0.371298,-0.130992,51,276,573,5488
1644162027.806008,-0.010681,0.01062,-0.990173,0.266656,0.340763,-0.008855,52,277,582,5536
1644162027.854443,-0.011353,0.009766,-0.990601,0.327725,0.554504,-0.14626,49,273,579,5536
1644162027.90285,-0.008118,0.009521,-0.990662,0.251389,0.478168,-0.130992,58,266,573,5472
1644162027.951209,-0.011719,0.009827,-0.991638,0.129252,0.356031,-0.161527,49,270,572,5520
1644162027.999594,-0.008789,0.010437,-0.994446,0.281924,0.478168,-0.054656,52,268,579,5520
1644162028.05223,-0.009521,0.011536,-0.994385,0.281924,0.386565,-0.161527,46,276,578,5536
1644162028.096416,-0.011475,0.009338,-0.990723,0.251389,0.462901,0.021679,54,277,582,5552
1644162028.144759,-0.006226,0.008606,-0.990112,0.251389,0.356031,-0.130992,47,282,572,5536
1644162028.193158,-0.009949,0.011292,-0.99292,0.113985,0.371298,-0.069924,47,275,568,5536
1644162028.241569,-0.012024,0.008423,-0.993958,0.251389,0.340763,-0.14626,54,273,575,5584
1644162028.289888,-0.005493,0.008545,-0.993835,0.205588,0.478168,-0.039389,53,279,576,5488
1644162028.338296,-0.007202,0.007568,-0.992676,0.312458,0.508702,-0.130992,52,265,572,5536
1644162028.386656,-0.010376,0.008911,-0.990356,0.251389,0.401832,-0.024122,49,280,586,5536
1644162028.435105,-0.006287,0.009888,-0.993225,0.175053,0.493435,-0.283664,54,277,582,5584
1644162028.483454,-0.012024,0.008179,-0.993896,0.251389,0.462901,-0.039389,55,276,573,5552
1644162028.532284,-0.011475,0.010925,-0.989929,0.052916,0.478168,-0.14626,61,263,582,5536
1644162028.582982,-0.010742,0.008972,-0.994141,0.281924,0.523969,-0.14626,43,264,580,5584
1644162028.633133,-0.010742,0.00885,-0.992493,0.190321,0.371298,-0.130992,45,280,584,5536
1644162028.677977,-0.012146,0.009094,-0.992126,0.205588,0.462901,-0.039389,43,274,573,5552
1644162028.773819,-0.006531,0.007019,-0.991272,0.327725,0.432366,-0.100458,59,297,577,5552
1644162028.822384,-0.008911,0.007996,-0.989624,0.007115,0.554504,-0.024122,45,270,575,5552
1644162028.870622,-0.01178,0.010742,-0.993286,0.281924,0.539237,-0.192061,52,270,565,5552
1644162028.919015,-0.009644,0.009644,-0.990601,0.159786,0.462901,-0.024122,42,270,570,5536
1644162028.967395,-0.014709,0.009766,-0.993835,0.373527,0.462901,0.082748,46,269,569,5584
1644162029.015775,-0.010498,0.010559,-0.993164,0.205588,0.600305,-0.100458,46,279,571,5536
1644162029.065494,-0.010376,0.008301,-0.99176,0.35826,0.401832,-0.14626,46,276,578,5536
1644162029.112597,-0.014343,0.007263,-0.991943,0.144519,0.523969,-0.115725,49,275,572,5536
1644162029.160929,-0.009766,0.011475,-0.992615,0.159786,0.417099,-0.069924,46,276,571,5536
1644162029.209327,-0.011536,0.010437,-0.992004,0.144519,0.401832,-0.130992,42,277,572,5536
1644162029.257708,-0.00885,0.008606,-0.992004,0.281924,0.539237,-0.237863,54,268,577,5536
1644162029.306111,-0.010742,0.008545,-0.990295,0.205588,0.493435,0.021679,49,265,577,5584
1644162029.354472,-0.011414,0.008057,-0.993103,0.281924,0.493435,-0.100458,43,279,566,5536
1644162029.402907,-0.008728,0.007996,-0.993835,0.297191,0.447634,-0.054656,52,280,570,5584
1644162029.451256,-0.010437,0.010986,-0.991211,0.190321,0.508702,-0.085191,65,279,573,5536
1644162029.499645,-0.010376,0.008057,-0.991089,0.205588,0.310229,0.052214,53,266,576,5536
1644162029.548045,-0.009644,0.009033,-0.99292,0.251389,0.417099,-0.069924,53,281,566,5552
1644162029.596441,-0.010315,0.011353,-0.993408,0.098718,0.462901,-0.039389,49,270,577,5536
1644162029.645295,-0.01062,0.010864,-0.98999,0.190321,0.386565,0.113282,55,264,576,5584
1644162029.694078,-0.010925,0.011719,-0.991394,0.220855,0.401832,-0.069924,48,276,587,5536
1644162029.744647,-0.011597,0.013,-0.991577,0.404061,0.325496,-0.085191,48,264,585,5584
1644162029.794791,-0.01123,0.00708,-0.993103,0.220855,0.401832,-0.115725,51,281,578,5520
1644162029.886814,-0.011902,0.007935,-0.992126,0.266656,0.447634,-0.207328,46,276,578,5536
1644162029.935396,-0.011902,0.01001,-0.988831,0.510931,0.401832,-0.237863,51,266,571,5536
1644162029.983598,-0.011597,0.009033,-0.99231,0.220855,0.401832,-0.039389,60,269,569,5552
1644162030.031984,-0.008545,0.009583,-0.989807,0.327725,0.401832,-0.039389,53,281,576,5488
1644162030.081228,-0.009155,0.011902,-0.992188,0.327725,0.493435,-0.069924,47,273,579,5536
1644162030.128758,-0.010132,0.008423,-0.990417,0.144519,0.417099,-0.100458,52,277,568,5488
1644162030.177128,-0.008057,0.010986,-0.989868,0.388794,0.386565,-0.069924,41,276,578,5536
1644162030.225521,-0.011902,0.010254,-0.99408,0.220855,0.432366,-0.069924,58,276,583,5488
1644162030.273915,-0.008667,0.009033,-0.992554,0.342992,0.310229,-0.161527,47,282,572,5584
1644162030.322307,-0.009888,0.00946,-0.990601,0.297191,0.478168,0.006412,57,270,579,5552
1644162030.370672,-0.01001,0.006531,-0.991028,0.266656,0.371298,-0.085191,52,275,579,5536
1644162030.419085,-0.008362,0.008789,-0.991272,0.297191,0.356031,-0.14626,51,262,571,5648
1644162030.467453,-0.010803,0.009583,-0.99115,0.205588,0.371298,-0.100458,62,271,576,5536
1644162030.515821,-0.009705,0.01123,-0.992004,0.312458,0.340763,0.052214,60,269,576,5584
1644162030.564233,-0.00769,0.01001,-0.991394,0.35826,0.554504,-0.130992,52,273,579,5552
1644162030.612646,-0.008972,0.00708,-0.991272,0.236122,0.493435,-0.130992,55,283,576,5584
1644162030.66101,-0.009766,0.010193,-0.993042,0.297191,0.478168,-0.192061,46,279,571,5520
1644162030.709554,-0.011902,0.011902,-0.993164,0.129252,0.447634,-0.085191,48,268,575,5536
1644162030.758915,-0.008728,0.012573,-0.993591,0.281924,0.523969,-0.008855,43,271,564,5536
1644162030.809489,-0.011414,0.008667,-0.993835,0.190321,0.386565,-0.085191,42,277,563,5584
1644162030.860117,-0.008118,0.007507,-0.990784,0.144519,0.569771,-0.161527,49,277,575,5584
1644162030.951393,-0.010986,0.011841,-0.992493,0.205588,0.310229,0.052214,51,281,573,5600
1644162030.999778,-0.00946,0.011108,-0.989929,0.190321,0.432366,-0.100458,54,275,584,5520
1644162031.054176,-0.008789,0.01062,-0.993347,0.251389,0.371298,-0.115725,58,276,580,5536
1644162031.096519,-0.008301,0.009155,-0.992615,0.266656,0.554504,-0.024122,51,276,580,5552
1644162031.144946,-0.010315,0.010132,-0.993103,0.404061,0.310229,-0.115725,60,271,576,5584
1644162031.193325,-0.010681,0.013367,-0.991516,0.205588,0.462901,-0.008855,45,287,563,5472
1644162031.241698,-0.011841,0.011414,-0.99469,0.266656,0.508702,-0.069924,55,274,571,5552
1644162031.290672,-0.010193,0.009644,-0.991089,0.281924,0.386565,-0.039389,41,276,566,5536
1644162031.33846,-0.010681,0.007385,-0.993042,0.35826,0.356031,-0.100458,55,279,571,5536
1644162031.386856,-0.012756,0.011414,-0.993408,0.205588,0.462901,0.052214,51,288,573,5536
1644162031.435338,-0.010742,0.006287,-0.993164,0.404061,0.478168,0.006412,40,275,570,5552
1644162031.483655,-0.011169,0.012207,-0.990112,0.342992,0.432366,-0.192061,58,274,576,5648
1644162031.532045,-0.010315,0.009949,-0.990601,0.510931,0.432366,-0.192061,51,279,576,5536
1644162031.580425,-0.010498,0.010132,-0.992065,0.297191,0.523969,-0.176794,53,279,580,5536
1644162031.628819,-0.009583,0.008911,-0.987976,0.220855,0.523969,-0.115725,48,274,569,5536
1644162031.677204,-0.011169,0.010498,-0.990234,0.251389,0.523969,-0.115725,60,279,573,5584
1644162031.7256,-0.008911,0.009338,-0.990601,0.205588,0.508702,-0.130992,43,276,571,5520
1644162031.773986,-0.009155,0.01001,-0.991577,0.281924,0.478168,-0.054656,52,280,577,5536
1644162031.82243,-0.010559,0.009216,-0.991638,0.190321,0.401832,-0.069924,45,273,582,5536
1644162031.874296,-0.00824,0.008301,-0.991638,0.297191,0.600305,0.067481,47,275,577,5536
1644162031.924776,-0.010132,0.013306,-0.992371,0.297191,0.356031,-0.14626,57,270,584,5584
1644162031.969041,-0.009338,0.01123,-0.993652,0.159786,0.447634,0.052214,51,283,576,5536
1644162032.064394,-0.010925,0.007019,-0.992188,0.236122,0.432366,-0.069924,54,263,577,5488
1644162032.112738,-0.011169,0.008057,-0.992126,0.098718,0.493435,0.036947,54,273,579,5552
1644162032.161099,-0.008667,0.007935,-0.991516,0.281924,0.508702,-0.115725,47,273,568,5488
1644162032.209538,-0.011292,0.008667,-0.989807,0.068183,0.401832,-0.085191,46,276,564,5536
1644162032.257865,-0.010986,0.008362,-0.992126,0.068183,0.264427,-0.130992,58,281,580,5520
1644162032.306259,-0.010437,0.008972,-0.995178,0.205588,0.371298,-0.100458,54,285,577,5536
1644162032.354667,-0.010071,0.009705,-0.992615,0.236122,0.356031,-0.039389,36,286,571,5520
1644162032.403072,-0.011658,0.012024,-0.992554,0.327725,0.325496,-0.130992,54,268,568,5600
1644162032.451444,-0.009277,0.010254,-0.992432,0.281924,0.310229,-0.100458,49,277,570,5536
1644162032.499811,-0.010132,0.006287,-0.993591,0.205588,0.447634,-0.069924,52,273,575,5536
1644162032.548204,-0.008789,0.008789,-0.991394,0.342992,0.356031,-0.085191,52,268,582,5536
1644162032.596617,-0.008667,0.009583,-0.989807,0.35826,0.340763,-0.176794,52,282,570,5536
1644162032.6453,-0.009521,0.007263,-0.993042,0.35826,0.371298,-0.192061,52,277,570,5488
1644162032.693406,-0.009521,0.009216,-0.991699,0.251389,0.356031,-0.069924,51,286,578,5536
1644162032.741787,-0.009827,0.010254,-0.991577,0.220855,0.386565,0.006412,52,275,568,5536
1644162032.790179,-0.011169,0.007996,-0.991577,0.312458,0.615573,-0.085191,49,277,575,5584
1644162032.838597,-0.012573,0.008484,-0.993713,0.35826,0.447634,-0.176794,57,270,577,5552
1644162032.887174,-0.012085,0.009338,-0.992065,0.46513,0.401832,0.006412,43,274,571,5536
1644162032.935419,-0.011475,0.007263,-0.99115,0.236122,0.386565,-0.207328,47,273,577,5472
1644162032.985293,-0.010864,0.011292,-0.994202,0.266656,0.554504,-0.039389,47,275,579,5648
1644162033.046848,-0.008667,0.011597,-0.992126,0.297191,0.462901,-0.008855,55,264,580,5520
1644162033.0841,-0.009583,0.009949,-0.991028,0.144519,0.401832,-0.039389,46,276,576,5536
1644162033.177285,-0.011719,0.011108,-0.991211,0.175053,0.340763,0.052214,43,271,576,5552
1644162033.22567,-0.010681,0.008606,-0.991028,0.205588,0.447634,-0.100458,48,276,573,5472
1644162033.274064,-0.010376,0.010742,-0.990723,0.175053,0.493435,-0.192061,38,275,565,5536
1644162033.322467,-0.008606,0.010559,-0.992371,0.236122,0.462901,-0.069924,51,276,566,5536
1644162033.370846,-0.011475,0.009094,-0.99353,0.266656,0.447634,0.021679,38,277,577,5536
1644162033.419235,-0.010986,0.010254,-0.993896,0.129252,0.523969,0.052214,47,273,563,5536
1644162033.467625,-0.011108,0.010193,-0.99353,0.266656,0.493435,-0.115725,45,273,579,5536
1644162033.516016,-0.007446,0.009766,-0.991516,0.266656,0.447634,-0.207328,49,273,558,5488
1644162033.564421,-0.009827,0.008301,-0.991028,0.312458,0.371298,-0.237863,35,277,579,5600
1644162033.61282,-0.006287,0.010315,-0.990845,0.220855,0.432366,0.067481,41,266,569,5600
1644162033.661194,-0.010681,0.013,-0.992981,0.312458,0.569771,-0.039389,46,269,566,5600
1644162033.709585,-0.010254,0.010315,-0.994019,0.297191,0.401832,0.036947,49,273,565,5488
1644162033.75795,-0.009888,0.009583,-0.993835,0.236122,0.417099,0.067481,57,275,582,5584
1644162033.806406,-0.009521,0.008118,-0.990356,0.327725,0.294962,-0.192061,53,281,573,5536
1644162033.854794,-0.010132,0.009399,-0.991333,0.266656,0.386565,0.021679,60,274,583,5472
1644162033.903187,-0.009644,0.008545,-0.98999,0.220855,0.401832,-0.054656,59,290,579,5536
1644162033.951568,-0.00946,0.009033,-0.992432,0.297191,0.478168,-0.176794,55,264,573,5552
1644162034.052348,-0.011658,0.009094,-0.99231,0.129252,0.447634,0.082748,54,275,579,5488
1644162034.096654,-0.007751,0.007141,-0.989624,0.312458,0.401832,-0.130992,46,281,578,5552
1644162034.145348,-0.007507,0.011963,-0.992249,0.159786,0.600305,-0.14626,47,275,577,5552
1644162034.193493,-0.008667,0.008606,-0.99054,0.281924,0.401832,-0.283664,59,275,572,5552
1644162034.24188,-0.009033,0.008057,-0.991882,0.297191,0.478168,-0.130992,52,275,577,5520
1644162034.290256,-0.012207,0.008423,-0.990234,0.251389,0.356031,-0.039389,43,271,571,5536
1644162034.338653,-0.01123,0.008789,-0.99469,0.251389,0.493435,-0.069924,46,271,573,5536
1644162034.387082,-0.012024,0.009399,-0.991272,0.35826,0.432366,-0.085191,55,281,576,5584
1644162034.43545,-0.011292,0.011353,-0.992554,0.251389,0.569771,-0.024122,49,268,579,5472
1644162034.483807,-0.008911,0.009094,-0.99353,0.205588,0.279695,-0.14626,45,277,577,5456
1644162034.532243,-0.008301,0.009949,-0.993469,0.281924,0.325496,0.021679,52,273,572,5536
1644162034.580609,-0.012451,0.006897,-0.993774,0.205588,0.417099,0.021679,53,276,569,5600
1644162034.629001,-0.009583,0.009888,-0.992676,0.35826,0.508702,-0.176794,54,275,582,5552
1644162034.677392,-0.009277,0.007568,-0.992065,0.266656,0.401832,-0.069924,52,270,579,5552
1644162034.725778,-0.010559,0.010437,-0.992676,0.144519,0.447634,-0.192061,52,277,570,5520
1644162034.774158,-0.012329,0.009644,-0.98999,0.297191,0.264427,-0.008855,54,263,570,5536
1644162034.822626,-0.012329,0.00946,-0.994141,0.068183,0.600305,-0.054656,55,269,576,5584
1644162034.872041,-0.009399,0.010254,-0.992249,0.281924,0.432366,-0.039389,51,266,571,5632
1644162034.922386,-0.009216,0.005859,-0.993347,0.281924,0.310229,0.036947,46,274,576,5552
1644162034.972489,-0.009033,0.010071,-0.99054,0.236122,0.432366,-0.207328,46,271,569,5552
1644162035.017459,-0.012939,0.007324,-0.990356,0.266656,0.371298,-0.100458,49,280,577,5536
1644162035.112945,-0.010864,0.011963,-0.992065,0.190321,0.462901,-0.14626,52,277,582,5536
1644162035.161264,-0.011475,0.00946,-0.992798,0.190321,0.264427,-0.130992,49,280,579,5552
1644162035.20967,-0.010132,0.01123,-0.991455,0.419328,0.386565,-0.100458,60,274,573,5536
1644162035.258039,-0.011597,0.00769,-0.993713,0.373527,0.417099,-0.069924,51,271,578,5600
1644162035.306441,-0.009949,0.00885,-0.989563,0.175053,0.493435,-0.085191,45,273,584,5584
1644162035.354854,-0.010254,0.008911,-0.992737,0.220855,0.340763,-0.054656,47,287,570,5536
1644162035.40323,-0.010803,0.01062,-0.992554,0.159786,0.401832,-0.237863,48,271,578,5552
1644162035.451634,-0.010986,0.010132,-0.993042,0.205588,0.493435,-0.085191,48,276,576,5472
1644162035.499993,-0.01001,0.009705,-0.991821,0.281924,0.508702,-0.222595,54,275,579,5536
1644162035.548416,-0.006409,0.009766,-0.996155,0.098718,0.325496,-0.115725,46,274,571,5520
1644162035.596794,-0.012512,0.009521,-0.991699,0.297191,0.310229,-0.207328,59,270,568,5536
1644162035.645276,-0.005249,0.008667,-0.995422,0.175053,0.325496,-0.298931,48,279,571,5552
1644162035.693596,-0.012085,0.014404,-0.991699,0.404061,0.493435,-0.008855,57,268,565,5536
1644162035.74194,0.002014,0.003235,-0.991272,0.144519,0.081221,0.082748,39,276,580,5472
1644162035.790345,0.010925,0.003723,-1.001709,0.892611,0.936183,-0.512672,48,279,576,5584
1644162035.838783,-0.012146,0.009277,-0.982544,0.068183,0.325496,-0.344733,60,276,573,5488
1644162035.887146,0.000854,0.004639,-0.993774,0.297191,0.493435,0.021679,60,269,569,5584
1644162035.935832,-0.006897,0.003845,-0.989807,0.205588,0.478168,-0.192061,53,279,578,5584
1644162035.983981,-0.014038,0.015442,-0.988403,0.007115,0.478168,-0.222595,48,269,569,5488
1644162036.043296,-0.007446,0.006409,-0.99408,0.46513,0.539237,-0.039389,48,276,576,5536
1644162036.087152,-0.012756,0.006775,-0.992371,0.175053,0.356031,-0.222595,55,274,573,5632
1644162036.130015,-0.014771,0.011963,-0.99054,0.327725,0.63084,-0.008855,51,276,578,5600
1644162036.225837,-0.011047,0.011902,-0.991089,0.205588,0.340763,-0.283664,48,279,566,5536
1644162036.274255,-0.00946,0.009277,-0.992554,0.159786,0.401832,-0.024122,45,270,563,5488
1644162036.322661,-0.007568,0.009399,-0.995483,0.175053,0.432366,-0.192061,48,276,573,5536
1644162036.371003,-0.012756,0.007874,-0.991821,0.220855,0.447634,-0.069924,55,276,566,5584
1644162036.419428,-0.010925,0.008057,-0.989014,0.266656,0.508702,-0.069924,54,268,582,5536
1644162036.467814,-0.011597,0.009338,-0.990723,0.175053,0.493435,-0.100458,47,270,575,5520
1644162036.516188,-0.010925,0.011169,-0.988708,0.159786,0.371298,-0.115725,51,281,576,5584
1644162036.564649,-0.006714,0.009583,-0.989502,0.190321,0.371298,-0.161527,43,276,566,5536
1644162036.612995,-0.010132,0.010559,-0.988525,0.236122,0.432366,-0.130992,54,268,570,5536
1644162036.661379,-0.009033,0.011658,-0.990051,0.388794,0.401832,-0.161527,54,285,572,5584
1644162036.709757,-0.00824,0.010986,-0.99054,0.404061,0.600305,-0.115725,57,270,572,5472
1644162036.758146,-0.01062,0.011414,-0.989075,0.281924,0.371298,-0.115725,54,270,579,5552
1644162036.80654,-0.007996,0.010986,-0.990906,0.251389,0.493435,-0.069924,52,282,577,5536
1644162036.855024,-0.010193,0.01001,-0.987183,0.129252,0.356031,-0.039389,61,277,584,5536
1644162036.903366,-0.007019,0.014404,-0.993286,0.144519,0.478168,-0.039389,42,282,568,5552
1644162036.951756,-0.008606,0.007446,-0.992249,0.495664,0.661374,0.052214,55,262,580,5552
1644162037.000104,-0.011292,0.011292,-0.992615,0.022382,0.310229,-0.14626,52,268,572,5584
1644162037.070411,-0.012085,0.012817,-0.991943,0.220855,0.371298,0.006412,47,273,579,5648
1644162037.102022,-0.013367,0.00885,-0.99176,0.327725,0.569771,-0.069924,46,269,578,5552
1644162037.147398,-0.008301,0.011902,-0.99176,0.144519,0.325496,-0.329466,49,275,575,5584
1644162037.196063,-0.006165,0.011719,-0.990234,0.449863,0.554504,-0.039389,66,275,586,5584
1644162037.246183,-0.011963,0.007874,-0.991211,0.281924,0.447634,-0.115725,47,273,572,5536
1644162037.291323,-0.007874,0.011719,-0.992676,0.220855,0.310229,-0.176794,45,270,572,5536
1644162037.387208,-0.010071,0.00769,-0.992004,0.220855,0.554504,-0.176794,51,279,576,5536
1644162037.435583,-0.01062,0.010803,-0.992432,0.220855,0.294962,-0.024122,61,275,570,5552
1644162037.484011,-0.010681,0.012207,-0.988525,0.327725,0.539237,-0.115725,46,269,566,5584
1644162037.532401,-0.009216,0.009521,-0.990417,0.175053,0.310229,-0.161527,52,273,577,5600
1644162037.580784,-0.008545,0.010376,-0.991516,0.327725,0.218626,-0.25313,46,283,578,5536
1644162037.629138,-0.011536,0.008362,-0.992859,0.297191,0.340763,0.021679,47,275,568,5536
1644162037.677536,-0.008667,0.010071,-0.991394,0.236122,0.401832,-0.222595,46,271,576,5536
1644162037.72594,-0.009399,0.011902,-0.989014,0.236122,0.401832,-0.100458,57,268,575,5552
1644162037.774355,-0.012085,0.010071,-0.993103,0.297191,0.493435,-0.069924,51,266,583,5536
1644162037.822746,-0.011475,0.009277,-0.994507,0.190321,0.478168,-0.222595,52,275,570,5456
1644162037.871168,-0.01123,0.013672,-0.991455,0.205588,0.325496,-0.008855,55,259,576,5536
1644162037.919547,-0.007751,0.009583,-0.989868,0.251389,0.447634,-0.237863,43,279,580,5536
1644162037.967977,-0.009766,0.012085,-0.990723,0.129252,0.432366,-0.130992,61,280,582,5552
1644162038.016329,-0.010986,0.012207,-0.991089,0.144519,0.417099,-0.192061,51,288,576,5552
1644162038.078002,-0.009583,0.012878,-0.990112,0.144519,0.279695,-0.115725,45,270,568,5536
1644162038.113144,-0.009705,0.013184,-0.99054,0.205588,0.508702,-0.100458,47,275,575,5552
1644162038.161436,-0.011353,0.009705,-0.989197,0.251389,0.478168,-0.14626,53,276,578,5584
1644162038.209847,-0.009094,0.009766,-0.992249,0.236122,0.401832,-0.024122,54,277,575,5584
1644162038.258262,-0.009338,0.010193,-0.988342,0.144519,0.356031,-0.069924,51,266,583,5536
1644162038.307701,-0.007263,0.009766,-0.990723,0.190321,0.401832,-0.085191,45,282,568,5536
1644162038.358332,-0.007385,0.008057,-0.991577,0.205588,0.447634,-0.115725,55,274,571,5536
1644162038.408361,-0.007629,0.012939,-0.989136,0.35826,0.569771,-0.039389,55,279,580,5552
1644162038.500203,-0.008301,0.009033,-0.990967,0.342992,0.279695,-0.130992,57,275,570,5584
1644162038.54856,-0.007629,0.009583,-0.993469,0.297191,0.478168,-0.130992,39,276,566,5488
1644162038.596964,-0.008667,0.008606,-0.992249,0.342992,0.432366,-0.161527,49,280,572,5536
1644162038.645343,-0.011414,0.009644,-0.990967,0.220855,0.340763,-0.024122,51,274,571,5536
1644162038.693746,-0.011292,0.00946,-0.991638,0.312458,0.417099,-0.069924,52,265,563,5552
1644162038.74216,-0.010071,0.008545,-0.991516,0.205588,0.493435,-0.283664,45,268,570,5584
1644162038.790529,-0.008484,0.010254,-0.992737,0.113985,0.310229,-0.100458,51,281,571,5552
1644162038.83892,-0.011292,0.010437,-0.993347,0.281924,0.432366,-0.100458,45,277,577,5600
1644162038.887344,-0.008728,0.009888,-0.994812,0.35826,0.462901,-0.039389,48,274,571,5488
1644162038.935743,-0.009766,0.01062,-0.991394,0.144519,0.508702,-0.069924,42,277,572,5520
1644162038.984151,-0.00885,0.010986,-0.99231,0.281924,0.478168,-0.069924,49,277,570,5552
1644162039.032542,-0.009827,0.009216,-0.990845,0.297191,0.462901,-0.176794,55,269,573,5552
1644162039.081015,-0.011597,0.01001,-0.989563,0.297191,0.386565,-0.115725,55,276,578,5536
1644162039.129299,-0.00946,0.01001,-0.991455,0.281924,0.401832,-0.207328,48,281,569,5552
1644162039.177654,-0.009155,0.009277,-0.991394,0.312458,0.493435,0.006412,45,273,575,5536
1644162039.226386,-0.008667,0.012695,-0.990784,0.312458,0.371298,-0.115725,54,277,575,5584
1644162039.274549,-0.009705,0.01062,-0.99115,0.144519,0.340763,-0.054656,41,276,573,5536
1644162039.324834,-0.011169,0.012573,-0.990295,0.190321,0.401832,-0.024122,59,275,572,5536
1644162039.375036,-0.008057,0.010071,-0.992188,0.281924,0.417099,-0.207328,49,268,572,5552
1644162039.425137,-0.01001,0.009827,-0.991333,0.297191,0.371298,-0.207328,51,274,565,5584
1644162039.516428,-0.008484,0.009399,-0.988708,0.251389,0.279695,-0.130992,51,276,576,5552
1644162039.564886,-0.010315,0.013733,-0.990784,0.297191,0.508702,-0.054656,49,270,577,5488
1644162039.613191,-0.009094,0.012451,-0.987915,0.190321,0.447634,0.006412,49,270,572,5552
1644162039.661575,-0.010132,0.010742,-0.989502,0.175053,0.340763,-0.069924,48,281,573,5584
1644162039.709971,-0.010254,0.010864,-0.990723,0.159786,0.462901,-0.024122,54,285,572,5536
1644162039.75836,-0.010864,0.010559,-0.992737,0.236122,0.371298,-0.100458,47,270,577,5520
1644162039.80676,-0.00885,0.008667,-0.992737,0.281924,0.432366,-0.115725,52,273,570,5520
1644162039.855247,-0.011353,0.01178,-0.991699,0.220855,0.417099,-0.161527,49,275,572,5456
1644162039.903549,-0.013672,0.010803,-0.989563,0.251389,0.417099,-0.115725,49,273,568,5488
1644162039.951922,-0.010254,0.01001,-0.991638,0.236122,0.386565,-0.14626,41,281,576,5584
1644162040.000317,-0.009705,0.005371,-0.991211,0.175053,0.417099,-0.069924,59,270,582,5520
1644162040.055359,-0.006775,0.006653,-0.993103,0.297191,0.523969,-0.237863,48,279,580,5536
1644162040.097053,-0.011292,0.009338,-0.990051,0.312458,0.569771,-0.054656,49,273,563,5520
1644162040.145463,-0.00531,0.007996,-0.992737,0.434595,0.371298,-0.024122,46,283,578,5536
1644162040.193843,-0.009338,0.011169,-0.993042,0.312458,0.417099,-0.115725,51,276,571,5536
1644162040.242239,-0.007751,0.012512,-0.991638,0.220855,0.462901,0.12855,49,285,572,5632
1644162040.29062,-0.012756,0.008789,-0.992126,0.342992,0.386565,-0.069924,43,274,576,5552
1644162040.339006,-0.009644,0.01001,-0.993347,0.175053,0.432366,0.036947,45,268,570,5536
1644162040.387715,-0.009399,0.010498,-0.992371,0.113985,0.539237,-0.222595,43,276,580,5536
1644162040.436654,-0.010925,0.010071,-0.991577,0.342992,0.661374,-0.100458,48,276,569,5488
1644162040.487282,-0.010071,0.00885,-0.992126,0.251389,0.386565,0.006412,53,269,580,5584
1644162040.537666,-0.008057,0.009583,-0.991516,0.144519,0.417099,-0.008855,49,275,565,5584
1644162040.629322,-0.01123,0.009033,-0.991699,0.175053,0.432366,-0.024122,53,286,566,5552
1644162040.677729,-0.010559,0.007751,-0.991638,0.08345,0.325496,-0.100458,46,274,573,5632
1644162040.726102,-0.010803,0.007263,-0.992004,-0.038687,0.478168,-0.069924,48,283,573,5600
1644162040.774533,-0.009888,0.009827,-0.992126,0.205588,0.493435,-0.207328,59,275,568,5520
1644162040.822963,-0.010681,0.012268,-0.990295,0.541466,0.340763,-0.069924,52,273,570,5600
1644162040.871345,-0.011597,0.011536,-0.994446,0.373527,0.447634,-0.130992,47,277,565,5584
1644162040.919733,-0.010376,0.009644,-0.991821,0.388794,0.356031,-0.130992,49,273,575,5536
1644162040.968118,-0.011292,0.009277,-0.989319,0.342992,0.478168,-0.192061,60,271,578,5488
1644162041.016511,-0.010193,0.012573,-0.992126,0.266656,0.508702,-0.024122,46,274,569,5584
1644162041.079184,-0.008728,0.012207,-0.994751,0.327725,0.478168,-0.130992,60,279,569,5552
1644162041.11325,-0.009338,0.009277,-0.992859,0.236122,0.401832,-0.008855,45,285,582,5488
1644162041.161633,-0.008423,0.009827,-0.992371,0.251389,0.386565,-0.161527,57,263,586,5536
1644162041.210204,-0.009949,0.010681,-0.991394,0.342992,0.340763,-0.100458,46,277,572,5536
1644162041.259822,-0.01123,0.011353,-0.991394,0.190321,0.340763,-0.069924,46,269,569,5584
1644162041.30993,-0.008301,0.009705,-0.991943,0.08345,0.493435,-0.039389,43,286,569,5488
1644162041.36028,-0.01062,0.009277,-0.989136,0.220855,0.371298,-0.100458,43,276,569,5472
1644162041.452005,-0.010742,0.010742,-0.991333,0.220855,0.401832,-0.069924,48,274,576,5488
1644162041.500383,-0.008362,0.009033,-0.990845,0.205588,0.371298,-0.024122,40,260,570,5552
1644162041.548768,-0.009827,0.008667,-0.99231,0.205588,0.417099,-0.14626,47,275,575,5536
1644162041.59714,-0.010193,0.011658,-0.990479,0.373527,0.356031,-0.024122,54,282,575,5552
1644162041.645518,-0.011169,0.007324,-0.994324,0.190321,0.356031,-0.024122,45,270,570,5520
1644162041.693942,-0.008911,0.009827,-0.990723,0.236122,0.294962,-0.14626,53,266,573,5600
1644162041.742341,-0.009705,0.010559,-0.993225,0.342992,0.401832,0.067481,48,279,562,5584
1644162041.790702,-0.011169,0.009644,-0.991882,0.220855,0.508702,-0.268397,51,274,578,5488
1644162041.839136,-0.008362,0.009583,-0.990845,0.098718,0.447634,-0.054656,48,276,580,5488
1644162041.887533,-0.009338,0.008423,-0.99115,0.251389,0.493435,-0.039389,57,285,570,5584
1644162041.935966,-0.009583,0.008057,-0.992188,0.266656,0.325496,-0.085191,53,264,562,5536
1644162041.984316,-0.010559,0.012695,-0.992798,0.266656,0.310229,-0.039389,52,273,563,5536
1644162042.032715,-0.009033,0.013184,-0.993958,0.297191,0.401832,-0.25313,45,280,570,5584
1644162042.081176,-0.009705,0.010742,-0.98938,0.205588,0.340763,-0.085191,51,271,578,5600
1644162042.129429,-0.009583,0.012329,-0.991028,0.312458,0.447634,-0.222595,53,274,576,5536
1644162042.177835,-0.010315,0.007996,-0.993164,0.175053,0.554504,-0.14626,61,273,582,5536
1644162042.226221,-0.013123,0.009766,-0.993103,0.129252,0.386565,-0.069924,48,276,573,5472
1644162042.27465,-0.00769,0.008423,-0.992371,0.220855,0.432366,-0.039389,42,273,584,5536
1644162042.323053,-0.010498,0.009155,-0.992493,0.342992,0.294962,-0.054656,54,270,577,5536
1644162042.371868,-0.010193,0.010132,-0.99231,0.281924,0.401832,0.052214,57,280,575,5520
1644162042.422035,-0.008606,0.008301,-0.991943,0.281924,0.356031,-0.207328,61,275,579,5600
1644162042.472223,-0.010559,0.007263,-0.994751,0.098718,0.401832,-0.14626,41,281,583,5584
1644162042.51739,-0.008179,0.008667,-0.992676,0.190321,0.447634,-0.100458,57,285,584,5520
1644162042.613351,-0.011047,0.010376,-0.992188,0.190321,0.432366,-0.100458,46,269,580,5536
1644162042.661713,-0.012451,0.01062,-0.991516,0.205588,0.386565,-0.14626,46,276,576,5536
1644162042.710117,-0.008972,0.008362,-0.990906,0.220855,0.401832,-0.176794,49,273,572,5600
1644162042.758483,-0.011719,0.009644,-0.99115,0.419328,0.447634,-0.130992,58,276,576,5600
1644162042.806891,-0.009033,0.010071,-0.994507,0.327725,0.294962,-0.14626,47,285,579,5552
1644162042.855326,-0.014709,0.011292,-0.992981,0.220855,0.386565,0.021679,53,281,583,5552
1644162042.903728,-0.011658,0.009033,-0.993286,0.312458,0.233893,-0.161527,41,283,571,5552
1644162042.952155,-0.011292,0.007019,-0.990173,0.113985,0.340763,-0.176794,53,281,578,5536
1644162043.000475,-0.011169,0.009399,-0.990967,0.236122,0.462901,-0.069924,52,275,572,5536
1644162043.056929,-0.01001,0.008728,-0.994507,0.297191,0.401832,-0.130992,53,269,583,5584
1644162043.097299,-0.009583,0.008301,-0.990417,0.190321,0.386565,-0.008855,54,275,563,5552
1644162043.145631,-0.011108,0.006653,-0.993835,0.266656,0.447634,-0.176794,47,280,579,5536
1644162043.194039,-0.009949,0.010498,-0.991638,0.236122,0.417099,-0.008855,48,276,576,5600
1644162043.242416,-0.01001,0.01001,-0.991455,0.205588,0.401832,-0.14626,51,269,576,5552
1644162043.290805,-0.007935,0.008667,-0.993042,0.251389,0.417099,-0.237863,43,276,569,5536
1644162043.339186,-0.010864,0.011536,-0.992859,0.159786,0.432366,-0.085191,48,269,573,5552
1644162043.387585,-0.009399,0.008667,-0.993774,0.236122,0.432366,-0.283664,53,283,573,5472
1644162043.435962,-0.00885,0.009888,-0.991821,0.281924,0.371298,-0.176794,47,268,575,5600
1644162043.484641,-0.010986,0.010193,-0.991455,0.175053,0.386565,-0.100458,43,274,571,5552
1644162043.533345,-0.008545,0.007507,-0.994934,0.251389,0.371298,0.082748,47,270,572,5488
1644162043.583856,-0.010437,0.008118,-0.989502,0.266656,0.554504,-0.130992,47,270,575,5584
1644162043.633992,-0.011536,0.011536,-0.990967,0.220855,0.539237,-0.024122,55,279,576,5536
1644162043.679059,-0.009766,0.011475,-0.990112,0.342992,0.294962,0.006412,54,265,572,5552
1644162043.774865,-0.010559,0.010864,-0.988953,0.159786,0.24916,-0.192061,55,279,573,5552
1644162043.823102,-0.010315,0.010132,-0.992859,0.159786,0.340763,-0.207328,45,275,579,5584
1644162043.871515,-0.010071,0.00946,-0.993347,0.205588,0.340763,-0.115725,46,281,571,5648
1644162043.919912,-0.013,0.01062,-0.991516,0.205588,0.386565,-0.008855,47,273,584,5520
1644162043.968287,-0.009155,0.009521,-0.992615,0.327725,0.417099,-0.100458,47,273,572,5552
1644162044.016675,-0.009705,0.010498,-0.993652,0.190321,0.310229,-0.039389,40,275,572,5536
1644162044.065809,-0.011963,0.010071,-0.993225,0.297191,0.203359,-0.130992,40,277,579,5536
1644162044.113496,-0.009155,0.012085,-0.991272,0.175053,0.417099,-0.069924,60,283,571,5488
1644162044.161827,-0.010742,0.009338,-0.991699,0.190321,0.447634,-0.069924,43,276,578,5584
1644162044.210228,-0.007385,0.009705,-0.992981,0.159786,0.478168,0.006412,55,274,576,5584
1644162044.258601,-0.010925,0.009583,-0.991028,0.175053,0.432366,-0.054656,59,273,584,5536
1644162044.306968,-0.009521,0.012451,-0.991943,0.281924,0.401832,-0.222595,51,264,576,5536
1644162044.355377,-0.008545,0.011658,-0.991089,0.220855,0.432366,-0.14626,39,276,569,5536
1644162044.403787,-0.009033,0.009216,-0.991638,0.190321,0.325496,-0.024122,43,271,585,5536
1644162044.452169,-0.010376,0.008728,-0.992859,0.08345,0.478168,-0.085191,58,279,576,5552
1644162044.500524,-0.012146,0.010742,-0.993286,0.342992,0.447634,-0.100458,47,277,579,5536
1644162044.548901,-0.009888,0.006653,-0.992249,0.373527,0.432366,-0.130992,65,274,573,5552
1644162044.597325,-0.01239,0.008118,-0.99646,0.144519,0.401832,-0.024122,52,275,570,5536
1644162044.646028,-0.015076,0.010071,-0.992371,0.35826,0.310229,-0.207328,49,275,570,5536
1644162044.696496,-0.011475,0.006653,-0.99115,0.113985,0.478168,-0.14626,57,280,577,5520
1644162044.747073,-0.009827,0.010864,-0.991333,0.251389,0.386565,-0.008855,42,275,577,5600
1644162044.791665,-0.009399,0.01178,-0.995667,0.08345,0.401832,-0.161527,45,273,575,5552
1644162044.887695,-0.009033,0.007141,-0.992493,0.281924,0.325496,-0.024122,42,277,577,5552
1644162044.936078,-0.009338,0.012695,-0.993835,0.297191,0.417099,-0.237863,46,269,576,5536
1644162044.984466,-0.014343,0.01001,-0.993835,0.312458,0.585038,-0.100458,47,280,577,5584
1644162045.032892,-0.009521,0.009521,-0.992615,0.342992,0.493435,-0.130992,55,281,569,5536
1644162045.081692,-0.012512,0.009827,-0.99054,0.113985,0.356031,-0.130992,52,275,579,5536
1644162045.129645,-0.00946,0.011414,-0.991943,0.404061,0.493435,-0.115725,51,281,576,5536
1644162045.177987,-0.008911,0.009766,-0.989502,0.342992,0.447634,-0.024122,51,283,573,5536
1644162045.226403,-0.00946,0.010925,-0.991882,0.236122,0.401832,0.006412,58,269,576,5536
1644162045.274783,-0.009644,0.010376,-0.991638,0.190321,0.478168,-0.054656,49,273,570,5536
1644162045.323179,-0.011658,0.009277,-0.993774,0.419328,0.508702,-0.192061,58,276,587,5584
1644162045.371569,-0.01178,0.009094,-0.992188,0.205588,0.356031,-0.14626,47,277,577,5520
1644162045.419966,-0.010315,0.010315,-0.990723,0.373527,0.356031,-0.100458,43,279,576,5472
1644162045.468345,-0.012146,0.007751,-0.991943,0.434595,0.340763,-0.085191,54,275,589,5552
1644162045.516729,-0.00946,0.00824,-0.992798,0.312458,0.386565,-0.039389,55,279,578,5600
1644162045.565165,-0.011536,0.00946,-0.992798,0.113985,0.294962,-0.069924,54,280,579,5472
1644162045.613522,-0.009644,0.009338,-0.98877,0.190321,0.432366,-0.008855,45,275,584,5536
1644162045.661912,-0.012634,0.009338,-0.993103,0.281924,0.325496,-0.207328,54,268,584,5536
1644162045.71061,-0.011475,0.00647,-0.996033,0.220855,0.325496,-0.222595,48,276,578,5488
1644162045.759679,-0.010681,0.00592,-0.990906,0.08345,0.340763,-0.115725,45,287,579,5536
1644162045.809848,-0.012695,0.006531,-0.994873,0.281924,0.462901,0.113282,53,266,573,5536
1644162045.860651,-0.009766,0.008667,-0.989075,0.08345,0.432366,0.098015,52,277,586,5536
1644162045.905526,-0.012512,0.010742,-0.993286,0.266656,0.371298,0.006412,52,275,577,5520
1644162046.000659,-0.011536,0.009338,-0.989685,0.098718,0.264427,0.006412,47,280,577,5552
1644162046.054104,-0.010742,0.007812,-0.995483,0.404061,0.340763,-0.176794,43,281,571,5536
1644162046.097422,-0.013611,0.007446,-0.991699,0.220855,0.432366,-0.039389,46,286,571,5536
1644162046.145844,-0.009155,0.009644,-0.995544,0.190321,0.417099,-0.069924,54,275,575,5552
1644162046.194239,-0.012817,0.006531,-0.992432,0.297191,0.203359,0.021679,53,286,564,5552
1644162046.242639,-0.010864,0.006287,-0.989807,0.312458,0.157557,-0.237863,53,266,573,5584
1644162046.291014,-0.007996,0.010559,-0.992615,0.236122,0.340763,0.021679,53,281,571,5536
1644162046.33942,-0.010132,0.010193,-0.99353,0.220855,0.401832,-0.161527,43,274,580,5536
1644162046.387775,-0.011475,0.012878,-0.992126,0.190321,0.356031,-0.207328,60,276,578,5536
1644162046.436157,-0.008301,0.006653,-0.993774,0.190321,0.478168,-0.130992,52,273,579,5520
1644162046.484702,-0.011963,0.009521,-0.992065,0.342992,0.493435,-0.085191,49,273,572,5584
1644162046.532975,-0.010681,0.008972,-0.991577,0.312458,0.417099,-0.25313,52,273,579,5536
1644162046.581352,-0.013184,0.007141,-0.993042,0.373527,0.386565,-0.085191,47,270,572,5536
1644162046.629754,-0.012573,0.007263,-0.989807,0.266656,0.508702,-0.192061,52,263,577,5488
1644162046.678135,-0.009949,0.012146,-0.991516,0.144519,0.478168,-0.100458,51,276,573,5584
1644162046.726527,-0.010803,0.008728,-0.991028,0.236122,0.554504,0.021679,41,274,576,5536
1644162046.774943,-0.009216,0.007019,-0.990784,0.113985,0.356031,-0.176794,55,266,576,5536
1644162046.823903,-0.009888,0.00885,-0.992737,0.220855,0.417099,-0.085191,39,279,569,5536
1644162046.874264,-0.013306,0.006287,-0.993958,0.205588,0.371298,-0.25313,51,269,571,5536
1644162046.924422,-0.009277,0.012207,-0.992981,0.08345,0.310229,-0.085191,55,274,569,5536
1644162046.96917,-0.010803,0.00946,-0.99408,0.220855,0.493435,-0.130992,53,271,569,5584
1644162047.065407,-0.010376,0.008667,-0.990356,0.312458,0.523969,-0.176794,42,275,570,5520
1644162047.113614,-0.008911,0.00592,-0.992371,0.266656,0.508702,-0.085191,58,269,580,5584
1644162047.161987,-0.010254,0.01062,-0.991577,0.251389,0.432366,-0.14626,45,270,575,5536
1644162047.210375,-0.006714,0.011475,-0.991638,0.373527,0.401832,-0.100458,53,266,578,5536
1644162047.258755,-0.01123,0.00769,-0.991882,0.129252,0.325496,-0.207328,54,277,570,5520
1644162047.307138,-0.008423,0.009949,-0.991638,0.037649,0.462901,-0.222595,46,271,580,5488
1644162047.355549,-0.009338,0.009644,-0.992371,0.098718,0.447634,-0.085191,45,270,577,5536
1644162047.403939,-0.007019,0.009521,-0.992554,0.281924,0.386565,-0.176794,59,277,572,5520
1644162047.452347,-0.010803,0.00824,-0.993469,0.419328,0.478168,-0.161527,45,270,582,5536
1644162047.500698,-0.008484,0.009766,-0.991516,0.113985,0.264427,-0.039389,43,279,573,5536
1644162047.54911,-0.009033,0.010071,-0.993958,0.266656,0.371298,0.052214,57,273,586,5552
1644162047.597511,-0.010498,0.009338,-0.99054,0.251389,0.432366,-0.130992,48,279,583,5536
1644162047.645902,-0.009705,0.011292,-0.993896,0.342992,0.340763,-0.100458,43,279,578,5472
1644162047.694293,-0.012085,0.010193,-0.991028,0.297191,0.432366,-0.085191,53,276,576,5536
1644162047.742693,-0.009033,0.010193,-0.989014,0.129252,0.356031,-0.192061,45,273,579,5488
1644162047.791104,-0.008789,0.009338,-0.994202,0.35826,0.493435,-0.176794,53,274,571,5552
1644162047.839498,-0.010498,0.007935,-0.995178,0.281924,0.508702,-0.085191,51,281,576,5584
1644162047.8882,-0.011292,0.009033,-0.992188,0.297191,0.401832,-0.039389,48,286,580,5584
1644162047.936285,-0.009888,0.00946,-0.991211,0.236122,0.508702,-0.268397,43,266,566,5488
1644162047.986771,-0.011475,0.010315,-0.993103,0.037649,0.401832,-0.161527,49,270,577,5472
1644162048.047736,-0.010925,0.00824,-0.994263,0.129252,0.386565,-0.069924,48,283,573,5552
1644162048.084073,-0.005615,0.011536,-0.991821,0.236122,0.356031,-0.14626,58,283,580,5648
1644162048.17817,-0.01239,0.008423,-0.993347,0.312458,0.356031,-0.085191,49,277,575,5536
1644162048.226569,-0.010071,0.007751,-0.992859,0.175053,0.523969,0.067481,52,277,575,5536
1644162048.275263,-0.012146,0.009155,-0.993469,0.251389,0.493435,-0.024122,45,273,570,5472
1644162048.323359,-0.012634,0.010925,-0.993225,0.129252,0.493435,-0.237863,53,279,564,5520
1644162048.371718,-0.011169,0.009644,-0.991577,0.297191,0.478168,-0.130992,40,273,584,5536
1644162048.420119,-0.013916,0.011658,-0.992371,0.220855,0.447634,0.006412,57,277,572,5520
1644162048.468516,-0.009521,0.010803,-0.991943,0.281924,0.447634,-0.039389,48,279,580,5488
1644162048.51691,-0.011719,0.010132,-0.994385,0.388794,0.493435,0.067481,55,274,578,5552
1644162048.565307,-0.009155,0.010986,-0.994751,0.220855,0.340763,-0.192061,51,266,583,5552
1644162048.613706,-0.011597,0.009949,-0.991699,0.312458,0.417099,-0.069924,48,271,569,5552
1644162048.66208,-0.011597,0.007507,-0.991089,0.175053,0.432366,-0.069924,51,283,566,5600
1644162048.710468,-0.008423,0.010071,-0.990662,0.098718,0.356031,-0.054656,57,273,563,5600
1644162048.758831,-0.008667,0.010193,-0.994629,0.159786,0.432366,-0.14626,47,270,572,5536
1644162048.807307,-0.009766,0.010376,-0.994263,0.144519,0.325496,-0.024122,51,271,573,5552
1644162048.855682,-0.007507,0.009521,-0.990601,0.266656,0.569771,-0.054656,51,269,573,5536
1644162048.90407,-0.010315,0.009888,-0.991699,0.236122,0.508702,-0.054656,55,274,573,5520
1644162048.952486,-0.007385,0.007263,-0.990356,0.388794,0.371298,0.021679,53,276,571,5536
1644162049.00113,-0.01178,0.009033,-0.993469,0.251389,0.371298,-0.115725,49,275,584,5600
1644162049.071068,-0.010193,0.008667,-0.992554,0.251389,0.401832,-0.14626,51,269,578,5552
1644162049.09958,-0.013611,0.006836,-0.992126,0.312458,0.417099,-0.024122,51,276,569,5552
1644162049.194378,-0.009705,0.008606,-0.993286,0.35826,0.386565,-0.14626,48,279,583,5536
1644162049.24279,-0.01178,0.009583,-0.994019,0.297191,0.340763,-0.161527,40,280,565,5520
1644162049.291141,-0.011292,0.007568,-0.992432,0.342992,0.508702,-0.039389,49,275,577,5552
1644162049.339537,-0.013306,0.008179,-0.99231,0.251389,0.478168,-0.222595,55,283,573,5536
1644162049.387897,-0.012329,0.009277,-0.991211,0.190321,0.447634,-0.14626,58,279,585,5536
1644162049.436322,-0.005615,0.011658,-0.989807,0.266656,0.447634,-0.069924,54,277,579,5520
1644162049.484724,-0.011169,0.008911,-0.992859,0.251389,0.356031,-0.222595,54,273,577,5520
1644162049.533126,-0.011047,0.010559,-0.99231,0.281924,0.401832,-0.25313,49,275,570,5536
1644162049.581496,-0.01062,0.009888,-0.993164,0.251389,0.417099,-0.039389,48,283,573,5584
1644162049.629893,-0.007996,0.008789,-0.992737,0.281924,0.447634,-0.100458,53,271,573,5488
1644162049.678281,-0.007874,0.009705,-0.993469,0.113985,0.508702,-0.14626,53,274,573,5552
1644162049.726669,-0.005798,0.009399,-0.992676,0.113985,0.417099,-0.085191,55,274,571,5520
1644162049.775183,-0.008667,0.010498,-0.992737,0.144519,0.508702,-0.130992,53,271,583,5552
1644162049.823485,-0.011963,0.011719,-0.990173,0.236122,0.63084,-0.039389,41,279,571,5600
1644162049.871903,-0.009277,0.009155,-0.994812,0.190321,0.264427,-0.115725,49,280,572,5472
1644162049.920255,-0.012512,0.007629,-0.990967,0.205588,0.478168,-0.115725,53,274,578,5536
1644162049.96865,-0.009766,0.011047,-0.992798,0.35826,0.371298,-0.100458,49,273,577,5552
1644162050.017061,-0.010437,0.006531,-0.991699,0.266656,0.417099,-0.207328,51,266,583,5536
1644162050.072044,-0.011597,0.007874,-0.99292,0.129252,0.340763,-0.085191,51,271,573,5536
1644162050.116378,-0.010681,0.00885,-0.989502,0.220855,0.24916,-0.283664,58,279,569,5536
1644162050.165305,-0.008301,0.012451,-0.993896,0.266656,0.233893,-0.192061,53,276,571,5536
1644162050.215571,-0.010132,0.010254,-0.99231,0.159786,0.417099,-0.130992,48,281,580,5584
1644162050.307324,-0.010864,0.011292,-0.989807,0.113985,0.569771,-0.222595,57,282,575,5584
1644162050.35571,-0.010803,0.009888,-0.991638,0.159786,0.386565,0.021679,55,271,576,5536
1644162050.404129,-0.01178,0.010803,-0.993225,0.266656,0.539237,-0.14626,51,279,573,5536
1644162050.452523,-0.009216,0.008179,-0.991028,0.205588,0.294962,-0.008855,52,285,577,5552
1644162050.50091,-0.009827,0.012329,-0.993042,0.052916,0.401832,0.036947,42,273,570,5488
1644162050.549297,-0.014099,0.010986,-0.989075,0.190321,0.417099,-0.222595,53,271,573,5552
1644162050.597672,-0.011353,0.010681,-0.990356,0.281924,0.356031,-0.176794,60,283,573,5552
1644162050.646054,-0.011047,0.010681,-0.990906,0.373527,0.462901,-0.268397,52,275,572,5536
1644162050.694465,-0.009766,0.010681,-0.994263,0.129252,0.310229,-0.008855,55,281,571,5536
1644162050.74289,-0.010437,0.009705,-0.99585,0.098718,0.432366,-0.054656,53,279,576,5584
1644162050.791239,-0.012939,0.010681,-0.992676,0.35826,0.264427,-0.207328,57,270,570,5536
1644162050.839667,-0.010742,0.011658,-0.993103,0.098718,0.432366,-0.100458,57,270,579,5600
1644162050.888059,-0.010132,0.009399,-0.992432,0.190321,0.478168,0.006412,46,281,564,5536
1644162050.936455,-0.011719,0.008118,-0.991943,0.205588,0.432366,-0.14626,55,276,578,5536
1644162050.984856,-0.008911,0.011108,-0.993652,0.175053,0.417099,-0.237863,49,282,589,5584
1644162051.033231,-0.008423,0.007812,-0.990479,0.35826,0.356031,-0.14626,52,265,579,5520
1644162051.081707,-0.011292,0.010437,-0.989807,0.236122,0.356031,-0.115725,53,271,583,5552
1644162051.12994,-0.010803,0.010071,-0.990784,0.205588,0.356031,-0.069924,49,275,586,5520
1644162051.17836,-0.011658,0.008057,-0.992371,0.266656,0.371298,-0.069924,46,269,583,5456
1644162051.226799,-0.013306,0.009644,-0.990784,0.236122,0.432366,-0.222595,55,271,569,5584
1644162051.277316,-0.008972,0.008484,-0.992249,0.190321,0.478168,-0.14626,49,270,582,5552
1644162051.327886,-0.008057,0.009888,-0.993652,0.266656,0.539237,-0.192061,59,280,568,5536
1644162051.372661,-0.009644,0.007996,-0.991699,0.251389,0.401832,-0.192061,47,270,572,5584
1644162051.46869,-0.011169,0.009766,-0.992249,0.098718,0.401832,-0.130992,57,282,577,5488
1644162051.517075,-0.010071,0.007568,-0.989868,0.08345,0.401832,-0.207328,51,269,585,5456
1644162051.565467,-0.011475,0.008484,-0.993896,0.35826,0.493435,-0.130992,49,280,575,5600
1644162051.613891,-0.011353,0.009644,-0.992371,0.266656,0.478168,-0.176794,45,273,575,5536
1644162051.662389,-0.01062,0.007996,-0.991577,0.022382,0.508702,-0.085191,58,274,580,5552
1644162051.710643,-0.012512,0.007996,-0.992615,0.266656,0.462901,-0.039389,47,277,570,5520
1644162051.759026,-0.011414,0.009827,-0.99115,0.175053,0.386565,-0.069924,53,274,571,5552
1644162051.807421,-0.008301,0.011292,-0.994995,0.251389,0.539237,-0.069924,58,276,578,5552
1644162051.855868,-0.010071,0.008484,-0.989929,0.342992,0.356031,-0.237863,54,290,568,5584
1644162051.904274,-0.007202,0.008789,-0.992188,0.373527,0.478168,-0.115725,49,280,582,5456
1644162051.952673,-0.011047,0.007996,-0.992188,0.113985,0.462901,-0.085191,51,274,573,5536
1644162052.001028,-0.010559,0.01178,-0.992493,0.281924,0.447634,-0.024122,43,271,573,5552
1644162052.053956,-0.012756,0.00769,-0.98999,0.327725,0.356031,-0.176794,54,270,582,5584
1644162052.097836,-0.012817,0.009338,-0.989136,0.236122,0.432366,-0.069924,47,275,575,5488
1644162052.146167,-0.010986,0.010498,-0.995361,0.251389,0.417099,-0.024122,52,275,572,5536
1644162052.194543,-0.012451,0.008728,-0.992859,0.220855,0.539237,-0.130992,58,271,578,5584
1644162052.242956,-0.012512,0.006958,-0.991821,0.205588,0.447634,-0.069924,46,262,583,5552
1644162052.291327,-0.011169,0.007812,-0.993652,0.129252,0.279695,-0.024122,47,277,579,5536
1644162052.339715,-0.011475,0.009766,-0.99408,-0.008153,0.401832,-0.161527,53,269,578,5456
1644162052.388464,-0.009644,0.008972,-0.995178,0.312458,0.264427,-0.069924,49,275,579,5536
1644162052.438736,-0.009888,0.009277,-0.990295,0.266656,0.585038,-0.008855,45,277,577,5488
1644162052.48881,-0.010498,0.012634,-0.990845,0.236122,0.401832,-0.069924,46,276,573,5584
1644162052.533861,-0.011719,0.008423,-0.992615,0.190321,0.462901,-0.161527,49,277,575,5536
1644162052.630062,-0.010742,0.008423,-0.992371,0.327725,0.462901,-0.192061,47,277,577,5584
1644162052.67844,-0.007751,0.010254,-0.990479,0.342992,0.294962,0.006412,51,266,580,5584
1644162052.72682,-0.010498,0.01001,-0.993469,0.220855,0.325496,0.036947,52,282,582,5472
1644162052.775408,-0.01239,0.007751,-0.993347,0.373527,0.462901,-0.024122,51,274,576,5536
1644162052.823623,-0.011597,0.00946,-0.993103,0.113985,0.356031,0.006412,47,268,579,5552
1644162052.872066,-0.009583,0.008362,-0.991211,0.266656,0.569771,-0.085191,51,276,580,5584
1644162052.920444,-0.009827,0.008118,-0.993347,0.251389,0.432366,-0.024122,52,277,572,5520
1644162052.968842,-0.012756,0.00946,-0.993164,0.175053,0.386565,0.036947,57,268,575,5536
1644162053.017227,-0.011353,0.008484,-0.993225,0.312458,0.325496,-0.115725,48,274,576,5536
1644162053.07228,-0.013306,0.008972,-0.993408,0.297191,0.340763,-0.14626,55,271,578,5552
1644162053.114033,-0.011414,0.008606,-0.993042,0.190321,0.279695,0.021679,45,273,575,5552
1644162053.162387,-0.009094,0.007019,-0.992432,0.236122,0.432366,0.021679,46,281,576,5552
1644162053.21075,-0.010193,0.010132,-0.99231,0.190321,0.294962,-0.008855,51,281,578,5552
1644162053.25911,-0.010132,0.010559,-0.992004,0.144519,0.371298,-0.100458,55,274,590,5584
1644162053.30792,-0.010925,0.009705,-0.991455,0.205588,0.371298,-0.039389,51,279,573,5536
1644162053.355908,-0.009888,0.009521,-0.992798,0.251389,0.340763,-0.069924,43,271,578,5536
1644162053.404309,-0.012024,0.009705,-0.995422,0.312458,0.356031,0.021679,49,285,582,5584
1644162053.452708,-0.010925,0.008118,-0.990417,0.297191,0.371298,-0.207328,51,274,573,5552
1644162053.501071,-0.010925,0.008301,-0.989624,0.327725,0.371298,-0.192061,51,269,585,5520
1644162053.549506,-0.010071,0.011597,-0.995056,0.297191,0.218626,-0.130992,38,273,584,5552
1644162053.5998,-0.009949,0.011047,-0.99176,0.342992,0.356031,-0.176794,51,283,576,5632
1644162053.650041,-0.010254,0.009644,-0.992981,0.220855,0.508702,-0.115725,45,273,582,5536
1644162053.695096,-0.008423,0.007751,-0.990723,0.205588,0.585038,-0.115725,60,274,578,5488
1644162053.791414,-0.010925,0.008179,-0.991333,0.113985,0.478168,-0.237863,48,269,564,5472
1644162053.839839,-0.011108,0.007263,-0.991821,0.266656,0.432366,-0.14626,51,281,571,5584
1644162053.888221,-0.009827,0.012512,-0.992249,0.190321,0.356031,-0.039389,53,271,576,5488
1644162053.936629,-0.012451,0.011108,-0.993286,0.404061,0.356031,-0.054656,54,275,575,5520
1644162053.985065,-0.011292,0.010681,-0.989441,0.113985,0.310229,-0.008855,47,280,577,5520
1644162054.03343,-0.008301,0.007324,-0.993103,0.205588,0.432366,-0.085191,52,273,575,5536
1644162054.084079,-0.011169,0.010254,-0.992554,-0.02342,0.417099,0.006412,55,279,585,5552
1644162054.130185,-0.010437,0.008545,-0.989868,0.144519,0.294962,0.006412,49,280,577,5536
1644162054.178547,-0.010925,0.009766,-0.995239,0.327725,0.294962,-0.222595,48,281,569,5536
1644162054.226932,-0.011047,0.011047,-0.991577,0.190321,0.279695,-0.237863,52,280,579,5584
1644162054.275334,-0.013,0.013306,-0.989807,0.266656,0.401832,0.006412,48,274,569,5584
1644162054.323726,-0.009949,0.008057,-0.992554,0.434595,0.493435,-0.054656,52,275,584,5600
1644162054.372212,-0.011353,0.007141,-0.991394,0.144519,0.356031,-0.176794,54,277,577,5552
1644162054.420493,-0.006592,0.008606,-0.992065,0.251389,0.386565,-0.115725,49,282,582,5584
1644162054.46889,-0.00946,0.007568,-0.992615,0.266656,0.462901,-0.069924,49,277,575,5536
1644162054.517273,-0.010315,0.008301,-0.990601,0.35826,0.478168,-0.100458,49,265,579,5600
1644162054.565664,-0.014099,0.009888,-0.992004,0.404061,0.539237,-0.130992,47,277,584,5584
1644162054.614125,-0.010681,0.007446,-0.991943,0.022382,0.508702,-0.054656,40,277,570,5552
1644162054.663345,-0.012817,0.010071,-0.990051,0.312458,0.417099,-0.176794,61,282,575,5536
1644162054.71387,-0.012512,0.007446,-0.990479,0.327725,0.340763,-0.054656,47,273,570,5520
1644162054.763879,-0.008606,0.008972,-0.995422,0.419328,0.279695,-0.115725,54,273,577,5552
1644162054.856006,-0.012207,0.005615,-0.990234,0.068183,0.523969,-0.14626,51,279,571,5472
1644162054.904447,-0.010986,0.009277,-0.993469,0.266656,0.417099,-0.115725,51,271,576,5536
1644162054.952829,-0.010071,0.007751,-0.990723,0.266656,0.432366,-0.039389,54,280,570,5536
1644162055.001195,-0.010925,0.007568,-0.991943,0.266656,0.417099,-0.100458,48,276,580,5584
1644162055.05493,-0.009338,0.009094,-0.992004,0.281924,0.279695,-0.130992,52,280,584,5472
1644162055.097979,-0.01178,0.01178,-0.993225,0.35826,0.417099,-0.130992,57,282,584,5536
1644162055.146378,-0.010742,0.008667,-0.994507,0.220855,0.401832,-0.054656,53,281,576,5584
1644162055.19479,-0.011353,0.008911,-0.99115,0.281924,0.508702,-0.161527,41,281,578,5552
1644162055.243155,-0.009155,0.00769,-0.993286,0.236122,0.417099,-0.069924,38,275,579,5584
1644162055.291548,-0.012878,0.011475,-0.989075,0.205588,0.447634,-0.161527,54,282,575,5536
1644162055.339941,-0.013489,0.008301,-0.993347,0.220855,0.493435,-0.268397,52,275,572,5584
1644162055.388329,-0.007751,0.005798,-0.993103,0.205588,0.340763,0.036947,34,276,571,5520
1644162055.436715,-0.011414,0.007507,-0.994141,0.08345,0.340763,-0.024122,58,269,576,5536
1644162055.485148,-0.010559,0.010315,-0.991333,0.327725,0.325496,-0.069924,45,268,575,5584
1644162055.533507,-0.009644,0.006531,-0.991089,0.266656,0.478168,-0.008855,52,270,584,5488
1644162055.581895,-0.008911,0.008484,-0.990417,0.281924,0.523969,-0.024122,51,283,583,5552
1644162055.630281,-0.011658,0.011902,-0.991943,0.281924,0.401832,0.113282,65,283,587,5520
1644162055.678821,-0.008484,0.010254,-0.993408,0.205588,0.386565,-0.207328,49,273,570,5584
1644162055.727065,-0.009033,0.008118,-0.99292,0.480397,0.493435,-0.069924,57,275,584,5584
1644162055.7772,-0.011414,0.010437,-0.992126,0.342992,0.539237,-0.207328,41,269,580,5552
1644162055.827443,-0.008667,0.008423,-0.989746,0.236122,0.493435,-0.054656,54,277,577,5552
1644162055.877762,-0.00946,0.010132,-0.993591,0.281924,0.417099,0.006412,45,280,572,5552
1644162055.922283,-0.010315,0.00708,-0.990112,0.144519,0.508702,-0.069924,57,268,582,5536
1644162056.017386,-0.009583,0.00708,-0.988525,0.312458,0.417099,-0.054656,49,268,575,5456
1644162056.06639,-0.013794,0.009644,-0.991821,0.220855,0.340763,-0.024122,47,277,570,5536
1644162056.114122,-0.012268,0.01062,-0.992615,0.190321,0.325496,-0.237863,48,271,576,5552
1644162056.162533,-0.009338,0.011292,-0.993347,0.08345,0.508702,-0.130992,39,264,573,5536
1644162056.210905,-0.011963,0.012207,-0.995544,0.144519,0.401832,-0.268397,55,274,573,5536
1644162056.259282,-0.012146,0.010803,-0.990601,0.297191,0.401832,-0.054656,45,277,579,5472
1644162056.30769,-0.010742,0.010193,-0.992493,0.220855,0.447634,-0.085191,47,275,575,5520
1644162056.356078,-0.011169,0.008301,-0.991882,0.220855,0.447634,-0.130992,45,273,570,5488
1644162056.404498,-0.011963,0.00885,-0.991333,0.312458,0.401832,-0.237863,49,275,570,5584
1644162056.452889,-0.009644,0.010864,-0.994019,0.373527,0.417099,-0.069924,40,277,577,5584
1644162056.501242,-0.014099,0.011108,-0.992676,0.144519,0.310229,-0.298931,58,281,569,5536
1644162056.549644,-0.010132,0.007568,-0.991211,0.144519,0.356031,0.159084,49,285,579,5520
1644162056.598037,-0.009644,0.007996,-0.989929,0.236122,0.478168,-0.085191,54,277,563,5584
1644162056.646423,-0.009399,0.008911,-0.991821,0.129252,0.523969,-0.085191,55,274,576,5536
1644162056.694814,-0.008606,0.008911,-0.992737,0.373527,0.356031,-0.024122,46,276,573,5536
1644162056.743206,-0.011841,0.009521,-0.989502,0.266656,0.417099,0.021679,55,286,578,5632
1644162056.791618,-0.010803,0.010315,-0.990479,0.205588,0.508702,-0.176794,53,281,580,5552
1644162056.840034,-0.010559,0.009094,-0.991089,0.098718,0.417099,-0.14626,57,273,577,5584
1644162056.888433,-0.01123,0.008911,-0.992493,0.144519,0.447634,-0.192061,53,269,578,5536
1644162056.937587,-0.012146,0.008606,-0.990845,0.266656,0.493435,-0.024122,51,274,578,5552
1644162056.988531,-0.010132,0.008362,-0.992859,0.205588,0.447634,-0.130992,57,280,577,5536
1644162057.056546,-0.013062,0.006714,-0.995239,0.08345,0.356031,-0.039389,57,282,577,5536
1644162057.087883,-0.01062,0.008118,-0.993713,0.144519,0.447634,-0.207328,48,276,578,5552
1644162057.178699,-0.012756,0.008545,-0.992737,0.113985,0.417099,-0.14626,46,271,585,5552
1644162057.227095,-0.011719,0.008179,-0.990234,0.327725,0.478168,-0.222595,43,274,585,5536
1644162057.27548,-0.01355,0.007202,-0.99231,0.236122,0.294962,-0.176794,45,277,584,5536
1644162057.323884,-0.010681,0.007935,-0.991394,0.236122,0.447634,-0.039389,43,276,576,5536
1644162057.372389,-0.010254,0.007874,-0.992004,0.159786,0.493435,0.036947,42,265,572,5584
1644162057.420666,-0.012085,0.009705,-0.990112,0.297191,0.432366,-0.115725,54,280,572,5584
1644162057.469059,-0.011108,0.012329,-0.995422,0.312458,0.417099,-0.237863,30,280,575,5600
1644162057.517449,-0.009521,0.008728,-0.99231,0.419328,0.371298,-0.024122,42,282,577,5472
1644162057.565821,-0.011475,0.009705,-0.991577,0.113985,0.432366,-0.054656,46,281,580,5552
1644162057.614233,-0.011353,0.009827,-0.990479,0.297191,0.294962,0.021679,45,265,579,5552
1644162057.662626,-0.011963,0.008789,-0.994873,0.281924,0.493435,-0.130992,49,275,577,5536
1644162057.711008,-0.008301,0.008789,-0.991211,0.175053,0.371298,-0.024122,46,276,580,5600
1644162057.759379,-0.012329,0.009644,-0.994019,0.342992,0.386565,-0.176794,60,274,566,5424
1644162057.807848,-0.010864,0.009705,-0.992676,0.251389,0.310229,-0.100458,52,277,582,5520
1644162057.856222,-0.01001,0.00885,-0.992432,0.266656,0.432366,0.021679,59,280,570,5536
1644162057.904659,-0.012695,0.00824,-0.98999,0.205588,0.371298,-0.008855,57,282,577,5552
1644162057.95301,-0.008301,0.009094,-0.99292,0.205588,0.417099,-0.054656,45,280,589,5552
1644162058.001355,-0.009033,0.008606,-0.991577,0.281924,0.386565,-0.054656,53,276,566,5536
1644162058.098103,-0.008545,0.011047,-0.993042,0.190321,0.356031,-0.130992,52,273,579,5584
1644162058.146495,-0.01239,0.010498,-0.990356,0.007115,0.401832,-0.100458,54,270,568,5584
1644162058.194921,-0.009583,0.009155,-0.995789,0.281924,0.432366,-0.008855,53,269,576,5488
1644162058.243299,-0.011536,0.007996,-0.99115,0.068183,0.462901,-0.207328,55,279,578,5536
1644162058.291685,-0.01355,0.007874,-0.995239,0.205588,0.417099,-0.115725,60,271,569,5536
1644162058.340078,-0.011169,0.007935,-0.990906,0.404061,0.600305,0.098015,57,268,572,5456
1644162058.388459,-0.008362,0.007507,-0.992554,0.144519,0.401832,-0.161527,46,276,576,5488
1644162058.436848,-0.012207,0.011353,-0.990967,0.175053,0.554504,-0.085191,52,268,572,5584
1644162058.485244,-0.010376,0.007507,-0.991089,0.175053,0.508702,-0.14626,52,270,582,5536
1644162058.533647,-0.010254,0.009949,-0.99231,0.419328,0.508702,-0.024122,49,270,575,5552
1644162058.582016,-0.010193,0.007141,-0.993713,0.144519,0.371298,-0.085191,54,273,577,5584
1644162058.630384,-0.014099,0.010071,-0.993164,0.281924,0.462901,-0.192061,52,273,568,5488
1644162058.678807,-0.010986,0.009338,-0.991882,0.266656,0.539237,-0.115725,52,270,570,5584
1644162058.727197,-0.011414,0.008789,-0.990845,0.129252,0.371298,-0.054656,52,275,577,5536
1644162058.775595,-0.011353,0.009277,-0.990234,0.312458,0.340763,-0.130992,54,285,582,5536
1644162058.824022,-0.010193,0.008118,-0.993774,0.297191,0.462901,-0.14626,52,285,582,5536
1644162058.872393,-0.008362,0.007507,-0.990967,0.281924,0.63084,-0.024122,45,287,584,5536
1644162058.921014,-0.010132,0.009155,-0.992737,0.251389,0.417099,0.021679,53,269,578,5536
1644162058.96921,-0.009033,0.011292,-0.991455,0.373527,0.539237,-0.054656,59,275,584,5552
1644162059.018879,-0.012329,0.007935,-0.992554,0.266656,0.264427,-0.024122,58,281,576,5536
1644162059.075398,-0.012268,0.00885,-0.993469,0.190321,0.386565,-0.25313,42,273,575,5488
1644162059.115661,-0.008972,0.006714,-0.991455,0.266656,0.508702,-0.130992,46,271,569,5520
1644162059.211103,-0.009766,0.008789,-0.990295,0.205588,0.447634,-0.039389,46,279,571,5536
1644162059.25946,-0.006775,0.008362,-0.994568,0.404061,0.340763,-0.085191,45,275,577,5552
1644162059.307862,-0.010254,0.009094,-0.994812,0.159786,0.401832,-0.115725,53,269,578,5552
1644162059.356263,-0.01001,0.010193,-0.990356,0.342992,0.478168,-0.14626,53,266,573,5536
1644162059.404678,-0.009827,0.00769,-0.992432,0.144519,0.417099,-0.100458,45,285,568,5536
1644162059.453068,-0.011536,0.008606,-0.99176,0.236122,0.462901,-0.069924,45,277,577,5536
1644162059.501422,-0.009644,0.010803,-0.992737,0.373527,0.417099,0.159084,52,282,577,5536
1644162059.549823,-0.008057,0.007629,-0.991516,0.068183,0.447634,-0.14626,59,280,565,5584
1644162059.598222,-0.011658,0.009705,-0.991028,0.373527,0.401832,-0.069924,59,270,579,5600
1644162059.646612,-0.009705,0.009521,-0.993896,0.297191,0.340763,-0.085191,42,277,579,5552
1644162059.69512,-0.009033,0.008911,-0.994568,0.281924,0.508702,-0.176794,57,277,575,5536
1644162059.743396,-0.008301,0.008301,-0.991577,0.144519,0.417099,0.036947,46,271,585,5536
1644162059.791781,-0.010254,0.009338,-0.992371,0.297191,0.371298,-0.069924,49,273,568,5536
1644162059.840215,-0.010132,0.00885,-0.993896,0.220855,0.432366,-0.176794,43,274,566,5600
1644162059.888568,-0.008667,0.011292,-0.991211,0.281924,0.462901,-0.085191,51,283,578,5536
1644162059.936989,-0.011841,0.008545,-0.992981,0.236122,0.294962,-0.054656,39,276,573,5536
1644162059.985392,-0.011963,0.008667,-0.993103,0.281924,0.401832,-0.069924,53,274,569,5552
1644162060.033773,-0.010132,0.010254,-0.991943,0.342992,0.386565,-0.192061,46,281,578,5552
1644162060.088545,-0.011536,0.007751,-0.992126,0.220855,0.386565,-0.039389,57,275,577,5456
1644162060.133614,-0.010925,0.008789,-0.991089,0.129252,0.447634,-0.100458,42,275,577,5584
1644162060.182866,-0.008545,0.008606,-0.990784,0.312458,0.386565,0.021679,48,276,571,5536
1644162060.228022,-0.009644,0.010986,-0.992126,0.159786,0.432366,-0.085191,54,273,572,5536
1644162060.324096,-0.009583,0.007935,-0.99292,0.35826,0.417099,-0.237863,49,275,575,5536
1644162060.372472,-0.012024,0.010254,-0.993774,0.098718,0.462901,-0.176794,42,273,577,5584
1644162060.420852,-0.010132,0.010681,-0.99292,0.190321,0.386565,0.021679,59,282,568,5536
1644162060.469228,-0.007629,0.010681,-0.993042,0.159786,0.462901,0.021679,47,282,572,5600
1644162060.517604,-0.008545,0.008545,-0.98938,0.098718,0.340763,-0.161527,49,270,575,5536
1644162060.566004,-0.008362,0.006714,-0.990356,0.312458,0.447634,0.052214,45,277,575,5552
1644162060.614419,-0.014648,0.007202,-0.992859,0.342992,0.478168,-0.069924,54,270,568,5584
1644162060.662814,-0.012085,0.011353,-0.988464,0.266656,0.401832,0.082748,46,269,569,5600
1644162060.711185,-0.010254,0.010742,-0.993958,0.205588,0.279695,-0.054656,52,270,577,5584
1644162060.759593,-0.011658,0.009216,-0.995178,0.342992,0.386565,-0.176794,45,275,570,5600
1644162060.807968,-0.010376,0.007874,-0.990662,0.327725,0.386565,-0.222595,46,271,578,5536
1644162060.856397,-0.008728,0.00824,-0.992859,0.205588,0.340763,-0.207328,53,276,580,5536
1644162060.904804,-0.013367,0.008911,-0.990112,0.175053,0.478168,-0.207328,48,274,573,5552
1644162060.953182,-0.011414,0.008728,-0.989929,0.297191,0.371298,-0.161527,54,275,575,5536
1644162061.001537,-0.010254,0.008728,-0.991699,0.419328,0.462901,-0.115725,51,266,576,5584
1644162061.053891,-0.008667,0.009766,-0.991577,0.388794,0.462901,0.098015,54,268,577,5552
1644162061.098332,-0.01062,0.008606,-0.990112,0.419328,0.386565,-0.130992,47,275,577,5584
1644162061.146737,-0.010681,0.009033,-0.993042,0.388794,0.478168,-0.085191,60,266,578,5600
1644162061.195448,-0.011963,0.01001,-0.993408,0.190321,0.417099,0.006412,42,277,582,5552
1644162061.244993,-0.011536,0.011292,-0.99292,0.220855,0.371298,-0.207328,59,282,579,5536
1644162061.29533,-0.014038,0.00769,-0.991699,0.266656,0.462901,-0.085191,57,275,579,5584
1644162061.34533,-0.012451,0.007812,-0.992493,0.251389,0.478168,-0.130992,51,283,587,5488
1644162061.437057,-0.010864,0.010315,-0.992432,0.266656,0.264427,-0.222595,47,275,579,5552
1644162061.485403,-0.011963,0.01001,-0.991821,0.175053,0.432366,-0.115725,51,274,564,5488
1644162061.533823,-0.011841,0.005981,-0.992493,0.266656,0.432366,-0.130992,57,285,584,5536
1644162061.582373,-0.009277,0.010498,-0.992249,0.312458,0.447634,-0.024122,57,268,570,5584
1644162061.630585,-0.009644,0.008118,-0.992981,0.236122,0.401832,0.036947,52,273,577,5552
1644162061.679075,-0.011963,0.00885,-0.990479,0.220855,0.432366,-0.024122,52,277,570,5536
1644162061.72738,-0.008484,0.007629,-0.993225,0.08345,0.523969,-0.024122,51,281,578,5536
1644162061.775777,-0.01001,0.00708,-0.99292,0.327725,0.569771,-0.039389,48,279,564,5584
1644162061.824177,-0.01001,0.009705,-0.993164,0.251389,0.493435,-0.192061,55,269,569,5488
1644162061.872606,-0.010437,0.006592,-0.991089,0.098718,0.325496,-0.130992,46,279,571,5536
1644162061.920987,-0.010193,0.008606,-0.994141,0.266656,0.356031,-0.14626,46,281,559,5520
1644162061.969357,-0.013672,0.008118,-0.994141,0.190321,0.356031,-0.069924,52,268,577,5520
1644162062.01775,-0.012878,0.009888,-0.990723,0.373527,0.371298,-0.085191,42,270,579,5552
1644162062.073107,-0.010315,0.009338,-0.993835,0.388794,0.432366,-0.054656,54,270,572,5584
1644162062.114547,-0.011597,0.007629,-0.992554,0.251389,0.371298,-0.008855,53,274,571,5536
1644162062.162914,-0.014526,0.009155,-0.991333,0.236122,0.447634,-0.069924,54,268,570,5520
1644162062.211276,-0.010132,0.009033,-0.991943,0.373527,0.325496,-0.069924,51,286,587,5536
1644162062.259666,-0.009827,0.011169,-0.990967,0.113985,0.554504,-0.085191,53,281,578,5552
1644162062.308459,-0.011963,0.010071,-0.989563,0.220855,0.294962,-0.115725,51,271,573,5536
1644162062.358693,-0.01355,0.009033,-0.989746,0.144519,0.24916,-0.100458,49,277,572,5536
1644162062.408831,-0.010376,0.010254,-0.98999,0.205588,0.294962,-0.100458,48,269,576,5552
1644162062.453881,-0.010132,0.010681,-0.989441,0.159786,0.401832,-0.115725,54,280,565,5552
1644162062.549997,-0.008972,0.005981,-0.990784,0.190321,0.279695,-0.115725,51,279,569,5488
1644162062.598381,-0.012268,0.007446,-0.993347,0.297191,0.371298,-0.069924,40,273,575,5600
1644162062.646763,-0.012329,0.009155,-0.988159,0.266656,0.386565,-0.115725,43,276,569,5552
1644162062.695385,-0.01178,0.010742,-0.991821,0.236122,0.523969,-0.222595,59,275,582,5488
1644162062.743576,-0.009949,0.008728,-0.990662,0.251389,0.356031,-0.069924,49,282,575,5520
1644162062.791936,-0.011963,0.011047,-0.990784,0.327725,0.371298,-0.069924,48,274,566,5552
1644162062.84035,-0.010437,0.008606,-0.991638,0.251389,0.401832,-0.268397,51,271,569,5584
1644162062.888783,-0.012695,0.009583,-0.990601,0.312458,0.386565,0.006412,45,273,582,5488
1644162062.937175,-0.011353,0.012573,-0.993408,0.404061,0.356031,-0.085191,43,276,571,5552
1644162062.985556,-0.009827,0.009338,-0.988953,0.266656,0.340763,-0.085191,49,275,572,5520
1644162063.045988,-0.010254,0.008118,-0.992004,0.220855,0.508702,-0.14626,45,273,561,5600
1644162063.08563,-0.009094,0.010925,-0.992371,0.236122,0.447634,-0.054656,57,282,582,5520
1644162063.130746,-0.010559,0.008179,-0.99176,0.205588,0.554504,-0.085191,53,281,580,5552
1644162063.179118,-0.009888,0.009399,-0.993835,0.251389,0.539237,-0.069924,46,276,571,5536
1644162063.227582,-0.009338,0.008972,-0.992249,0.266656,0.447634,0.006412,54,277,575,5600
1644162063.275884,-0.011658,0.010437,-0.990417,0.220855,0.218626,-0.161527,42,277,575,5584
1644162063.325533,-0.012146,0.008057,-0.993835,0.190321,0.523969,-0.192061,48,269,576,5552
1644162063.375757,-0.011169,0.012817,-0.992493,0.144519,0.493435,-0.176794,47,273,572,5536
1644162063.426218,-0.011536,0.009094,-0.989746,0.297191,0.462901,-0.115725,49,275,584,5536
1644162063.470549,-0.010254,0.007568,-0.991699,0.342992,0.462901,-0.161527,47,285,572,5536
1644162063.566219,-0.011108,0.00769,-0.994812,0.175053,0.386565,-0.207328,43,266,576,5552
1644162063.614868,-0.011292,0.007935,-0.993469,0.205588,0.508702,-0.115725,55,274,576,5632
1644162063.663033,-0.01178,0.00592,-0.993774,0.266656,0.462901,-0.039389,57,277,558,5584
1644162063.711399,-0.007141,0.011475,-0.991272,0.373527,0.432366,-0.14626,47,275,589,5536
1644162063.759782,-0.008667,0.010376,-0.991455,0.190321,0.432366,-0.115725,57,280,575,5552
1644162063.808185,-0.010498,0.011108,-0.99408,0.175053,0.371298,-0.024122,54,280,582,5536
1644162063.856571,-0.011658,0.010193,-0.990723,0.297191,0.539237,-0.222595,47,282,575,5536
1644162063.905082,-0.012268,0.010864,-0.992554,0.342992,0.539237,-0.054656,54,282,575,5488
1644162063.953362,-0.009277,0.009399,-0.991394,0.190321,0.417099,-0.100458,45,277,577,5584
1644162064.00173,-0.011841,0.008728,-0.993713,0.342992,0.325496,0.036947,48,286,583,5536
1644162064.055717,-0.004822,0.006348,-0.991394,0.113985,0.508702,-0.024122,49,275,579,5584
1644162064.098515,-0.010925,0.012817,-0.991516,0.281924,0.386565,-0.192061,41,279,566,5584
1644162064.146873,-0.009216,0.006897,-0.992371,0.297191,0.447634,-0.069924,52,273,582,5536
1644162064.195263,-0.011597,0.007935,-0.994446,0.297191,0.401832,-0.25313,57,277,584,5536
1644162064.243665,-0.009705,0.010193,-0.990845,0.312458,0.432366,-0.054656,46,266,573,5552
1644162064.292026,-0.012512,0.009705,-0.99115,0.159786,0.478168,-0.115725,47,277,582,5536
1644162064.340437,-0.010437,0.008728,-0.992188,0.281924,0.325496,-0.069924,47,273,589,5552
1644162064.388825,-0.012024,0.011719,-0.992554,0.159786,0.447634,-0.054656,47,277,579,5536
1644162064.437269,-0.010437,0.009094,-0.991089,0.159786,0.417099,-0.25313,49,270,572,5584
1644162064.48667,-0.013123,0.00946,-0.991882,0.220855,0.371298,-0.161527,59,277,582,5536
1644162064.536959,-0.008667,0.007324,-0.99176,0.175053,0.493435,-0.024122,48,271,583,5552
1644162064.587264,-0.012939,0.008179,-0.991821,0.175053,0.508702,-0.176794,53,274,580,5520
1644162064.679185,-0.009155,0.008179,-0.993042,0.327725,0.462901,-0.039389,42,273,575,5488
1644162064.727534,-0.010254,0.007935,-0.992371,0.236122,0.340763,-0.069924,49,275,577,5552
1644162064.77593,-0.00946,0.009766,-0.993713,0.113985,0.401832,-0.222595,46,281,576,5536
1644162064.824388,-0.013306,0.009338,-0.993835,0.251389,0.417099,-0.14626,51,274,585,5584
1644162064.872761,-0.009949,0.008179,-0.990051,0.373527,0.401832,0.006412,49,270,572,5488
1644162064.921129,-0.011963,0.011902,-0.993042,0.281924,0.523969,-0.039389,47,273,577,5552
1644162064.969544,-0.009338,0.009399,-0.992126,0.236122,0.371298,-0.329466,54,275,575,5536
1644162065.017935,-0.012512,0.009399,-0.993286,0.190321,0.264427,-0.085191,49,275,577,5552
1644162065.074335,-0.011292,0.010376,-0.98938,0.205588,0.478168,-0.130992,59,285,582,5584
1644162065.114856,-0.011475,0.007141,-0.993347,0.08345,0.386565,-0.039389,51,271,580,5552
1644162065.163081,-0.013428,0.009216,-0.993347,0.205588,0.432366,-0.100458,53,266,576,5584
1644162065.211456,-0.008362,0.007751,-0.991211,0.236122,0.401832,-0.115725,52,277,572,5648
1644162065.25983,-0.009766,0.009094,-0.99115,0.068183,0.432366,-0.207328,53,279,583,5552
1644162065.308241,-0.010193,0.008118,-0.99054,0.098718,0.401832,-0.130992,40,270,575,5536
1644162065.356631,-0.005798,0.008911,-0.991821,0.342992,0.523969,-0.024122,46,274,573,5584
1644162065.405055,-0.011902,0.008057,-0.98938,0.373527,0.508702,-0.222595,42,270,577,5472
1644162065.453402,-0.00885,0.008423,-0.993469,0.159786,0.493435,-0.268397,48,271,573,5536
1644162065.501765,-0.010437,0.00946,-0.99176,0.46513,0.447634,-0.054656,45,273,582,5472
1644162065.550158,-0.010559,0.010925,-0.994568,0.281924,0.417099,-0.207328,58,291,573,5536
1644162065.598694,-0.01001,0.011536,-0.995483,0.08345,0.371298,-0.039389,64,280,572,5536
1644162065.649206,-0.01062,0.009399,-0.990967,0.449863,0.462901,-0.130992,45,270,582,5520
1644162065.699306,-0.012268,0.010559,-0.991333,0.373527,0.508702,0.036947,52,275,570,5584
1644162065.744338,-0.008423,0.010132,-0.99054,0.190321,0.417099,-0.024122,49,275,582,5552
1644162065.840565,-0.008972,0.007385,-0.993164,0.266656,0.401832,-0.069924,42,273,572,5584
1644162065.88895,-0.015625,0.00946,-0.99231,0.08345,0.340763,0.082748,60,276,576,5536
1644162065.937322,-0.010559,0.008911,-0.993164,0.144519,0.462901,-0.176794,45,287,579,5472
1644162065.98572,-0.012634,0.010803,-0.990723,0.404061,0.478168,-0.024122,57,270,582,5536
1644162066.034127,-0.008057,0.010986,-0.992432,0.220855,0.401832,-0.192061,54,277,579,5536
1644162066.084589,-0.011658,0.007812,-0.993774,0.022382,0.294962,-0.085191,62,271,583,5536
1644162066.130867,-0.012451,0.009155,-0.992859,0.220855,0.294962,-0.130992,47,275,582,5536
1644162066.179238,-0.009155,0.006531,-0.992737,0.175053,0.356031,-0.069924,42,275,570,5600
1644162066.227646,-0.012024,0.007751,-0.992432,0.236122,0.493435,-0.161527,52,263,586,5552
1644162066.276036,-0.009644,0.010437,-0.992371,0.236122,0.356031,0.006412,43,269,576,5552
1644162066.32444,-0.011047,0.008423,-0.991699,0.190321,0.462901,-0.039389,55,276,578,5600
1644162066.372823,-0.014709,0.007996,-0.992859,0.251389,0.508702,-0.161527,49,282,582,5520
1644162066.421205,-0.01239,0.00946,-0.99176,0.08345,0.432366,-0.130992,51,276,583,5536
1644162066.469595,-0.012024,0.009949,-0.99176,0.220855,0.523969,-0.024122,43,279,583,5552
1644162066.517954,-0.010681,0.010437,-0.991943,0.312458,0.432366,-0.054656,43,271,569,5584
1644162066.566367,-0.012451,0.011108,-0.991882,0.281924,0.371298,0.006412,61,265,579,5536
1644162066.614807,-0.01178,0.008789,-0.993958,0.205588,0.264427,-0.039389,52,275,577,5536
1644162066.664552,-0.010925,0.010803,-0.991394,0.205588,0.386565,-0.024122,49,275,579,5536
1644162066.714844,-0.011292,0.010132,-0.992737,0.220855,0.340763,-0.024122,54,277,572,5536
1644162066.764992,-0.009583,0.01062,-0.992554,0.281924,0.371298,-0.024122,53,276,571,5520
1644162066.856764,-0.009216,0.008423,-0.98999,0.236122,0.523969,-0.039389,46,276,580,5536
1644162066.905374,-0.007751,0.010437,-0.99231,0.266656,0.310229,-0.130992,49,277,584,5536
1644162066.953552,-0.007751,0.007141,-0.991333,0.236122,0.401832,-0.054656,55,279,573,5536
1644162067.001916,-0.011169,0.010742,-0.993042,0.159786,0.462901,-0.069924,43,274,571,5536
1644162067.056669,-0.012329,0.009094,-0.992004,0.220855,0.417099,-0.085191,46,279,578,5536
1644162067.098656,-0.011597,0.013245,-0.994568,0.327725,0.340763,-0.115725,55,269,590,5600
1644162067.147028,-0.010681,0.007812,-0.99054,0.297191,0.371298,-0.100458,52,270,572,5584
1644162067.19542,-0.01178,0.010132,-0.99292,0.342992,0.356031,-0.039389,46,276,571,5520
