epoch,acc_x,acc_y,acc_z,rot_x,rot_y,rot_z,mag_x,mag_y,mag_z,temp
1644174300.0113,-0.00885,0.010681,-0.989929,0.312458,0.325496,-0.161527,57,270,582,5760
1644174300.079329,-0.009277,0.008606,-0.990295,0.144519,0.356031,-0.100458,47,273,577,5728
1644174300.11378,-0.011597,0.009399,-0.991394,0.205588,0.371298,-0.207328,43,281,580,5728
1644174300.205209,-0.011047,0.008484,-0.989868,0.266656,0.325496,-0.161527,62,271,578,5696
1644174300.25296,-0.008118,0.011047,-0.992065,0.236122,0.356031,-0.085191,55,281,587,5712
1644174300.301788,-0.014099,0.009216,-0.991943,0.144519,0.356031,-0.069924,58,274,583,5696
1644174300.349852,-0.011353,0.00824,-0.993835,0.327725,0.386565,-0.207328,52,277,598,5712
1644174300.39814,-0.006653,0.008057,-0.993958,0.205588,0.478168,-0.100458,53,279,590,5696
1644174300.446759,-0.010437,0.01001,-0.991028,0.266656,0.432366,-0.161527,60,286,594,5648
1644174300.495944,-0.007629,0.009338,-0.993469,0.159786,0.325496,-0.14626,60,276,590,5632
1644174300.543639,-0.010254,0.006775,-0.991821,0.236122,0.432366,0.067481,61,277,593,5712
1644174300.591716,-0.012512,0.009583,-0.992554,0.175053,0.462901,0.021679,59,275,575,5664
1644174300.640188,-0.009766,0.00824,-0.991882,0.327725,0.478168,-0.008855,49,263,572,5664
1644174300.688894,-0.010315,0.00769,-0.993286,0.281924,0.417099,-0.024122,59,270,591,5760
1644174300.738175,-0.009827,0.010559,-0.993896,0.236122,0.340763,-0.085191,51,271,583,5696
1644174300.786092,-0.007446,0.010132,-0.991516,0.205588,0.401832,-0.024122,57,275,577,5712
1644174300.836565,-0.01123,0.007629,-0.990784,0.312458,0.462901,-0.054656,51,269,585,5776
1644174300.885005,-0.010071,0.008362,-0.993591,0.205588,0.417099,-0.192061,53,266,580,5728
1644174300.935662,-0.007751,0.008118,-0.99353,0.388794,0.386565,-0.192061,57,282,582,5664
1644174301.027409,-0.012878,0.01239,-0.99231,0.297191,0.493435,-0.085191,51,271,585,5728
1644174301.077342,-0.009644,0.012695,-0.993286,0.190321,0.447634,-0.054656,51,271,580,5760
1644174301.124158,-0.008972,0.009644,-0.988892,0.190321,0.356031,0.052214,49,277,591,5648
1644174301.172629,-0.00946,0.009583,-0.993652,0.144519,0.447634,-0.344733,65,279,594,5712
1644174301.220906,-0.011292,0.013062,-0.991394,0.159786,0.401832,-0.069924,53,283,580,5648
1644174301.270271,-0.00946,0.00769,-0.992371,0.220855,0.523969,-0.069924,52,263,584,5712
1644174301.317625,-0.012146,0.009949,-0.990479,0.312458,0.417099,0.067481,45,277,586,5760
1644174301.366786,-0.012085,0.008545,-0.995361,0.312458,0.417099,-0.100458,54,277,575,5664
1644174301.414555,-0.012756,0.008606,-0.991577,0.113985,0.233893,-0.069924,51,276,578,5728
1644174301.463275,-0.012329,0.008789,-0.993347,0.281924,0.432366,-0.054656,58,271,580,5760
1644174301.511215,-0.010376,0.009155,-0.991394,0.251389,0.401832,-0.130992,53,279,583,5728
1644174301.561162,-0.00946,0.011047,-0.995605,0.159786,0.371298,-0.069924,55,281,571,5696
1644174301.611338,-0.010925,0.007629,-0.992249,0.251389,0.401832,-0.085191,61,270,577,5712
1644174301.663242,-0.011658,0.007141,-0.99292,0.449863,0.447634,-0.100458,54,290,589,5696
1644174301.709884,-0.00885,0.010559,-0.99231,0.08345,0.310229,-0.085191,43,283,578,5728
1644174301.801589,-0.009949,0.008301,-0.994324,0.205588,0.478168,-0.008855,47,280,586,5712
1644174301.850214,-0.009338,0.006104,-0.992249,0.159786,0.340763,-0.085191,47,287,577,5712
1644174301.898323,-0.01062,0.011108,-0.992126,0.297191,0.417099,-0.14626,49,277,602,5664
1644174301.94749,-0.013306,0.007141,-0.995972,0.236122,0.386565,-0.161527,71,285,602,5696
1644174301.995274,-0.009644,0.008301,-0.993286,0.159786,0.356031,-0.100458,52,277,596,5760
1644174302.04424,-0.013184,0.007141,-0.990601,0.312458,0.417099,-0.100458,59,270,605,5648
1644174302.09517,-0.007874,0.009766,-0.993652,0.144519,0.401832,-0.085191,61,263,577,5664
1644174302.146604,-0.011169,0.008667,-0.993835,0.312458,0.386565,-0.192061,60,279,585,5760
1644174302.189264,-0.011475,0.010071,-0.991211,0.175053,0.417099,0.006412,45,287,579,5728
1644174302.238416,-0.011292,0.009949,-0.991943,0.175053,0.294962,-0.130992,51,274,580,5696
1644174302.293902,-0.01062,0.006897,-0.993286,0.251389,0.523969,-0.176794,55,271,585,5696
1644174302.338913,-0.010315,0.009399,-0.992432,0.327725,0.447634,-0.008855,58,269,583,5712
1644174302.391853,-0.010254,0.009827,-0.990723,0.373527,0.371298,0.006412,49,265,584,5760
1644174302.478942,-0.010071,0.007996,-0.990417,0.266656,0.432366,-0.14626,47,275,579,5728
1644174302.527388,-0.01062,0.011047,-0.993042,0.236122,0.508702,-0.176794,47,268,582,5696
1644174302.576349,-0.010071,0.008972,-0.993164,0.190321,0.432366,-0.115725,52,277,586,5696
1644174302.626764,-0.011963,0.008423,-0.992004,0.312458,0.478168,-0.085191,41,271,573,5696
1644174302.674187,-0.009644,0.009583,-0.994202,0.175053,0.233893,-0.069924,52,280,593,5696
1644174302.721048,-0.010559,0.008972,-0.990051,0.205588,0.264427,-0.115725,61,277,584,5712
1644174302.769739,-0.009583,0.00824,-0.991577,0.297191,0.371298,-0.085191,52,268,579,5808
1644174302.818408,-0.012634,0.007446,-0.992676,0.08345,0.478168,-0.008855,54,277,577,5712
1644174302.866339,-0.008789,0.009216,-0.992676,0.236122,0.417099,-0.222595,58,283,590,5760
1644174302.91472,-0.011047,0.007446,-0.992065,0.144519,0.447634,0.082748,52,265,577,5728
1644174302.962955,-0.010864,0.007446,-0.994019,0.190321,0.417099,-0.100458,43,279,580,5760
1644174303.014187,-0.014343,0.008057,-0.991882,0.312458,0.279695,-0.14626,48,266,573,5664
1644174303.108175,-0.009277,0.006287,-0.990845,0.312458,0.523969,0.021679,43,269,583,5648
1644174303.159646,-0.007935,0.01001,-0.993164,0.297191,0.218626,-0.100458,59,277,600,5776
1644174303.20487,-0.010559,0.007141,-0.993164,0.251389,0.356031,-0.085191,53,279,583,5712
1644174303.253801,-0.010986,0.009094,-0.990967,0.190321,0.294962,-0.115725,55,271,590,5696
1644174303.301968,-0.012268,0.006653,-0.993103,0.205588,0.523969,-0.130992,55,281,583,5728
1644174303.350606,-0.008362,0.009521,-0.992615,0.190321,0.371298,-0.192061,58,274,590,5696
1644174303.399048,-0.011353,0.012024,-0.988464,0.113985,0.371298,0.021679,49,270,586,5664
1644174303.446931,-0.011902,0.011292,-0.991699,0.205588,0.447634,-0.207328,57,277,589,5776
1644174303.495629,-0.010254,0.011169,-0.98877,0.113985,0.401832,-0.085191,45,282,589,5664
1644174303.543682,-0.011047,0.007812,-0.993835,0.159786,0.340763,-0.115725,48,276,578,5696
1644174303.594736,-0.009949,0.008728,-0.992432,0.113985,0.340763,-0.161527,43,283,592,5664
1644174303.641984,-0.010437,0.010254,-0.989807,0.297191,0.356031,-0.100458,51,276,585,5728
1644174303.692318,-0.008911,0.010864,-0.99408,0.08345,0.371298,-0.054656,58,279,580,5664
1644174303.748439,-0.01001,0.012512,-0.990845,0.220855,0.523969,-0.14626,55,276,587,5776
1644174303.791097,-0.009399,0.007202,-0.992798,0.35826,0.508702,0.006412,55,283,583,5696
1644174303.843686,-0.009766,0.011047,-0.992249,0.266656,0.417099,-0.054656,43,269,583,5696
1644174303.887648,-0.011169,0.00769,-0.992249,0.236122,0.340763,-0.054656,45,275,579,5776
1644174303.936339,-0.009521,0.009766,-0.991272,0.404061,0.539237,-0.039389,54,285,584,5664
1644174304.02746,-0.008423,0.007263,-0.99115,0.35826,0.417099,-0.039389,58,269,594,5760
1644174304.076289,-0.008728,0.008118,-0.991028,0.159786,0.478168,-0.024122,51,276,590,5728
1644174304.125344,-0.00946,0.010376,-0.992737,0.175053,0.340763,-0.115725,57,285,575,5664
1644174304.173033,-0.010254,0.010559,-0.992371,0.113985,0.478168,0.006412,49,270,584,5712
1644174304.223158,-0.008545,0.008362,-0.990723,0.281924,0.646107,-0.069924,54,270,579,5712
1644174304.269454,-0.00824,0.006653,-0.990112,0.159786,0.523969,-0.130992,60,274,590,5696
1644174304.31785,-0.007263,0.010986,-0.990051,0.404061,0.279695,-0.115725,51,269,590,5728
1644174304.366628,-0.009705,0.011047,-0.990784,0.220855,0.386565,-0.069924,62,274,587,5760
1644174304.414721,-0.011353,0.008545,-0.992188,0.205588,0.279695,-0.192061,58,279,590,5664
1644174304.463036,-0.009766,0.007996,-0.99231,0.175053,0.218626,-0.176794,59,282,584,5696
1644174304.511611,-0.009766,0.007874,-0.99292,0.404061,0.325496,0.006412,43,281,583,5728
1644174304.559767,-0.005981,0.009644,-0.990051,0.281924,0.493435,-0.054656,58,279,590,5696
1644174304.608637,-0.011047,0.004883,-0.991333,0.144519,0.401832,-0.14626,48,276,585,5712
1644174304.656592,-0.008179,0.008972,-0.990662,0.190321,0.356031,-0.069924,47,280,586,5696
1644174304.709242,-0.009766,0.009583,-0.989563,0.342992,0.294962,-0.161527,48,281,594,5712
1644174304.753829,-0.011841,0.009338,-0.992798,0.281924,0.401832,-0.085191,55,279,571,5664
1644174304.809181,-0.009521,0.008728,-0.990601,0.373527,0.401832,-0.054656,52,275,579,5728
1644174304.858543,-0.01062,0.009521,-0.992065,0.236122,0.371298,-0.14626,62,279,576,5728
1644174304.904451,-0.011169,0.008789,-0.993225,0.297191,0.417099,-0.069924,52,270,582,5696
1644174304.99593,-0.011475,0.009583,-0.991394,0.251389,0.432366,-0.100458,55,274,580,5696
1644174305.043676,-0.01001,0.011292,-0.988525,0.08345,0.554504,-0.085191,52,270,579,5760
1644174305.101282,-0.011475,0.008362,-0.992554,0.144519,0.508702,-0.14626,59,277,586,5760
1644174305.154857,-0.010193,0.007324,-0.993896,0.251389,0.325496,0.067481,55,271,576,5696
1644174305.240368,-0.010132,0.007568,-0.991272,0.098718,0.356031,0.082748,62,291,583,5712
1644174305.285637,-0.009827,0.009888,-0.99176,0.266656,0.386565,0.021679,61,277,586,5776
1644174305.334379,-0.008606,0.011108,-0.989746,0.251389,0.462901,-0.054656,49,273,577,5696
1644174305.384135,-0.010193,0.009338,-0.992798,0.175053,0.310229,-0.100458,54,275,591,5760
1644174305.431029,-0.012939,0.009644,-0.992249,0.297191,0.417099,-0.100458,59,275,579,5696
1644174305.479445,-0.011047,0.010254,-0.992065,0.297191,0.432366,-0.115725,46,279,573,5712
1644174305.527575,-0.011841,0.011169,-0.992981,0.190321,0.371298,-0.069924,45,277,586,5696
1644174305.57595,-0.01178,0.010742,-0.992859,0.236122,0.493435,-0.192061,49,285,584,5760
1644174305.624349,-0.009888,0.012146,-0.992004,0.205588,0.493435,-0.130992,65,281,590,5776
1644174305.672848,-0.012085,0.009949,-0.993042,0.266656,0.554504,-0.192061,55,254,578,5760
1644174305.724489,-0.010498,0.009277,-0.990845,0.404061,0.417099,-0.085191,47,277,577,5664
1644174305.77228,-0.008484,0.010254,-0.989929,0.251389,0.310229,-0.192061,41,274,590,5696
1644174305.819276,-0.011047,0.009094,-0.991394,0.297191,0.462901,-0.192061,59,282,593,5776
1644174305.86646,-0.006775,0.009521,-0.993408,0.190321,0.371298,-0.085191,52,270,579,5728
1644174305.915026,-0.010925,0.012329,-0.990723,0.266656,0.462901,-0.039389,53,271,578,5728
1644174305.964753,-0.008179,0.008972,-0.99176,0.175053,0.539237,-0.207328,51,276,564,5696
1644174306.018112,-0.011169,0.010864,-0.99231,0.144519,0.325496,-0.14626,58,276,583,5696
1644174306.11048,-0.009705,0.010315,-0.990051,0.35826,0.172824,-0.054656,46,279,580,5696
1644174306.157053,-0.011536,0.010742,-0.993408,0.236122,0.447634,-0.130992,49,273,577,5760
1644174306.205282,-0.007568,0.009583,-0.991943,0.175053,0.432366,-0.130992,65,276,583,5696
1644174306.253753,-0.009705,0.011658,-0.991394,0.251389,0.325496,-0.14626,49,280,572,5696
1644174306.301822,-0.009338,0.010315,-0.992737,0.220855,0.371298,-0.130992,65,271,587,5664
1644174306.350296,-0.008545,0.010498,-0.99176,0.297191,0.325496,-0.024122,52,282,577,5712
1644174306.398602,-0.009094,0.010132,-0.992249,0.159786,0.310229,-0.054656,51,286,583,5760
1644174306.447123,-0.012207,0.008728,-0.9953,0.266656,0.325496,-0.069924,65,288,576,5728
1644174306.495408,-0.013428,0.008423,-0.989319,0.251389,0.310229,-0.14626,59,275,584,5728
1644174306.54381,-0.009644,0.005981,-0.992188,0.297191,0.432366,-0.024122,51,281,592,5728
1644174306.592197,-0.012085,0.009888,-0.993042,0.144519,0.279695,-0.207328,48,283,585,5712
1644174306.640544,-0.01239,0.008972,-0.990295,0.205588,0.447634,-0.161527,47,282,575,5728
1644174306.69194,-0.010803,0.007446,-0.992004,0.205588,0.493435,-0.085191,59,270,575,5664
1644174306.737356,-0.009033,0.011169,-0.99292,0.236122,0.371298,-0.039389,51,271,583,5712
1644174306.787385,-0.011597,0.013367,-0.993286,0.205588,0.401832,0.067481,58,279,583,5696
1644174306.839376,-0.012146,0.010315,-0.988647,0.251389,0.432366,-0.054656,59,275,577,5776
1644174306.883698,-0.012207,0.011536,-0.990967,0.266656,0.401832,-0.024122,53,274,580,5760
1644174306.979569,-0.011108,0.007446,-0.992065,0.190321,0.371298,-0.054656,48,276,583,5696
1644174307.027925,-0.011597,0.006836,-0.99469,0.312458,0.325496,-0.054656,64,270,582,5760
1644174307.080378,-0.011902,0.008911,-0.993225,0.35826,0.294962,0.006412,48,259,587,5824
1644174307.124533,-0.011902,0.009888,-0.995117,0.190321,0.371298,-0.130992,51,274,587,5760
1644174307.17492,-0.010254,0.006958,-0.994141,0.35826,0.462901,-0.100458,49,280,584,5696
1644174307.221301,-0.007507,0.00824,-0.991516,0.327725,0.432366,0.067481,49,280,575,5728
1644174307.269634,-0.006531,0.009949,-0.98999,0.327725,0.294962,-0.008855,48,276,585,5728
1644174307.318095,-0.009644,0.010681,-0.99292,0.266656,0.325496,-0.115725,57,275,575,5760
1644174307.366476,-0.010376,0.011047,-0.991211,0.266656,0.493435,-0.069924,57,277,572,5776
1644174307.415848,-0.013611,0.01123,-0.994202,0.159786,0.325496,-0.176794,58,288,590,5776
1644174307.463479,-0.010803,0.010803,-0.991882,0.220855,0.356031,0.006412,46,279,585,5696
1644174307.512948,-0.009399,0.007507,-0.992249,0.342992,0.371298,-0.329466,55,274,571,5696
1644174307.560353,-0.011108,0.00885,-0.990234,0.342992,0.417099,-0.207328,59,280,582,5728
1644174307.60838,-0.010681,0.008179,-0.993164,0.251389,0.401832,-0.085191,53,274,585,5728
1644174307.659873,-0.010132,0.009827,-0.991638,0.404061,0.386565,-0.130992,51,269,585,5728
1644174307.706034,-0.012756,0.009521,-0.990051,0.449863,0.508702,-0.008855,46,281,576,5728
1644174307.758581,-0.012024,0.010986,-0.989868,0.373527,0.417099,0.052214,51,269,583,5760
1644174307.850408,-0.010498,0.010742,-0.990662,0.297191,0.401832,-0.039389,58,269,580,5696
1644174307.898762,-0.01239,0.007812,-0.991089,0.190321,0.401832,-0.054656,57,287,577,5696
1644174307.947099,-0.010742,0.009583,-0.99054,0.266656,0.447634,0.174351,53,264,578,5760
1644174307.995489,-0.009888,0.009888,-0.991577,0.144519,0.417099,-0.069924,53,274,573,5696
1644174308.055039,-0.007751,0.008667,-0.991638,0.236122,0.493435,-0.069924,53,257,578,5760
1644174308.092303,-0.00885,0.007996,-0.990479,0.236122,0.432366,-0.069924,51,274,569,5696
1644174308.140675,-0.009888,0.008118,-0.991089,0.190321,0.462901,-0.130992,57,265,572,5648
1644174308.189057,-0.012451,0.008423,-0.99231,0.205588,0.371298,-0.192061,49,275,582,5664
1644174308.237469,-0.008728,0.009583,-0.993835,0.205588,0.340763,-0.085191,52,270,575,5760
1644174308.285862,-0.006775,0.009155,-0.993591,0.281924,0.340763,-0.069924,53,276,571,5728
1644174308.334291,-0.010498,0.010742,-0.989075,0.129252,0.508702,-0.222595,51,276,583,5696
1644174308.382703,-0.010681,0.010193,-0.991089,0.251389,0.340763,-0.115725,49,265,568,5664
1644174308.431071,-0.009155,0.013367,-0.99292,0.266656,0.371298,-0.054656,45,265,577,5696
1644174308.479457,-0.011719,0.009827,-0.991089,0.159786,0.447634,-0.115725,48,271,590,5664
1644174308.528193,-0.011597,0.009644,-0.990479,0.35826,0.356031,-0.024122,47,277,568,5696
1644174308.576466,-0.010437,0.008423,-0.992126,0.266656,0.401832,0.021679,45,270,575,5648
1644174308.626796,-0.009521,0.009338,-0.992432,0.113985,0.447634,-0.024122,43,288,571,5712
1644174308.67696,-0.008911,0.009155,-0.993225,0.08345,0.386565,-0.039389,53,279,578,5728
1644174308.727053,-0.008057,0.01001,-0.991577,0.098718,0.569771,-0.054656,57,273,582,5776
1644174308.818201,-0.00946,0.007935,-0.990295,0.297191,0.432366,-0.054656,57,282,570,5696
1644174308.866576,-0.007812,0.00946,-0.991638,0.175053,0.386565,-0.130992,53,276,578,5712
1644174308.915038,-0.010376,0.009888,-0.991699,0.251389,0.386565,-0.130992,48,271,576,5728
1644174308.963373,-0.010986,0.00769,-0.992188,0.327725,0.294962,-0.024122,53,286,576,5760
1644174309.011751,-0.009277,0.007141,-0.994141,-0.069221,0.569771,0.067481,40,275,577,5696
1644174309.068813,-0.008362,0.011841,-0.991577,0.404061,0.325496,-0.039389,46,271,571,5760
1644174309.108529,-0.007568,0.012329,-0.991882,0.236122,0.432366,-0.054656,43,279,571,5712
1644174309.156885,-0.010559,0.009583,-0.990295,0.175053,0.539237,-0.024122,47,280,570,5648
1644174309.205284,-0.01239,0.00769,-0.990723,0.175053,0.401832,-0.130992,51,271,578,5712
1644174309.25365,-0.011475,0.011902,-0.990601,0.281924,0.356031,-0.207328,45,273,582,5712
1644174309.302073,-0.008545,0.008667,-0.991394,0.205588,0.386565,0.143817,55,269,578,5664
1644174309.350459,-0.010071,0.010254,-0.992432,0.266656,0.432366,-0.085191,58,274,576,5696
1644174309.39886,-0.010437,0.009766,-0.992432,0.281924,0.401832,-0.069924,54,277,579,5760
1644174309.447235,-0.008667,0.010376,-0.991821,0.190321,0.294962,-0.115725,58,269,573,5696
1644174309.49563,-0.011841,0.011169,-0.989563,0.220855,0.569771,-0.054656,54,280,579,5776
1644174309.544018,-0.011963,0.008606,-0.992065,0.08345,0.417099,-0.100458,55,269,576,5760
1644174309.592424,-0.007629,0.01001,-0.992371,0.220855,0.401832,-0.085191,48,274,573,5712
1644174309.640793,-0.010376,0.007385,-0.990051,0.35826,0.371298,0.006412,45,280,582,5664
1644174309.689488,-0.009705,0.008484,-0.990906,0.068183,0.447634,-0.14626,47,273,572,5696
1644174309.738327,-0.009338,0.008057,-0.991028,0.297191,0.325496,-0.069924,49,275,577,5760
1644174309.788864,-0.012085,0.007263,-0.992188,0.205588,0.600305,-0.192061,48,276,580,5696
1644174309.839469,-0.008301,0.009583,-0.992004,0.281924,0.447634,-0.115725,55,271,578,5760
1644174309.884393,-0.012207,0.008484,-0.992188,0.190321,0.508702,-0.115725,52,270,579,5728
1644174309.979567,-0.010376,0.010071,-0.992065,0.281924,0.417099,-0.100458,57,282,577,5712
1644174310.027952,-0.009277,0.00946,-0.990234,0.205588,0.447634,-0.069924,43,274,573,5664
1644174310.08036,-0.00885,0.012573,-0.994446,0.251389,0.401832,-0.192061,48,264,580,5696
1644174310.124763,-0.009155,0.006714,-0.99176,0.236122,0.432366,-0.069924,53,279,569,5712
1644174310.173115,-0.010681,0.010376,-0.991943,0.297191,0.340763,-0.14626,51,271,578,5760
1644174310.221503,-0.008484,0.010315,-0.991516,0.297191,0.493435,-0.054656,59,273,582,5696
1644174310.269883,-0.008545,0.012512,-0.991516,0.342992,0.585038,-0.024122,42,282,584,5712
1644174310.318241,-0.008179,0.009766,-0.99353,0.297191,0.401832,-0.069924,49,277,570,5760
1644174310.366677,-0.008972,0.009644,-0.994141,0.190321,0.325496,-0.069924,53,271,580,5696
1644174310.415192,-0.011353,0.007568,-0.991882,0.205588,0.325496,-0.085191,45,280,575,5712
1644174310.463451,-0.010742,0.008606,-0.98877,0.159786,0.462901,-0.008855,51,271,571,5696
1644174310.511804,-0.011475,0.010803,-0.990601,0.281924,0.401832,-0.069924,36,274,578,5664
1644174310.560218,-0.011047,0.009705,-0.990967,0.220855,0.585038,-0.100458,53,271,580,5712
1644174310.608615,-0.010376,0.007263,-0.991089,0.144519,0.401832,-0.222595,51,266,576,5760
1644174310.657015,-0.010864,0.00946,-0.993713,0.251389,0.462901,-0.100458,49,280,575,5776
1644174310.705401,-0.011658,0.010315,-0.991333,0.236122,0.417099,-0.008855,65,283,576,5760
1644174310.753769,-0.011169,0.010986,-0.990051,0.266656,0.523969,-0.024122,53,271,580,5696
1644174310.80219,-0.010681,0.008301,-0.991821,0.35826,0.417099,0.052214,49,273,577,5696
1644174310.850607,-0.009949,0.010071,-0.993896,0.266656,0.63084,-0.024122,57,270,589,5776
1644174310.900951,-0.009583,0.010315,-0.98877,0.266656,0.523969,-0.192061,47,265,582,5712
1644174310.950773,-0.010986,0.010437,-0.995239,0.312458,0.310229,0.036947,45,270,570,5712
1644174311.001296,-0.008423,0.008972,-0.991638,0.281924,0.356031,-0.14626,53,271,585,5760
1644174311.045852,-0.010071,0.008484,-0.989136,0.113985,0.462901,-0.024122,52,285,575,5760
1644174311.140934,-0.010315,0.009399,-0.993103,0.327725,0.523969,-0.024122,58,271,569,5728
1644174311.189281,-0.008118,0.009399,-0.992371,0.449863,0.325496,-0.054656,39,281,578,5728
1644174311.23768,-0.011292,0.009888,-0.992371,0.419328,0.539237,-0.14626,46,274,578,5696
1644174311.286066,-0.011963,0.008728,-0.992737,0.281924,0.554504,-0.14626,53,279,578,5696
1644174311.334697,-0.009399,0.012329,-0.993408,0.159786,0.264427,-0.024122,55,281,592,5760
1644174311.382893,-0.010986,0.008423,-0.993958,0.08345,0.508702,-0.14626,54,275,582,5728
1644174311.431255,-0.010071,0.011475,-0.992493,0.052916,0.554504,-0.100458,53,269,578,5696
1644174311.47964,-0.010681,0.010559,-0.992004,0.159786,0.386565,-0.14626,45,282,572,5664
1644174311.528049,-0.009155,0.00885,-0.990723,0.205588,0.478168,0.006412,51,281,571,5648
1644174311.576435,-0.008667,0.008972,-0.992432,0.205588,0.325496,-0.054656,53,279,580,5728
1644174311.624856,-0.009155,0.010437,-0.992615,0.266656,0.462901,-0.130992,52,280,577,5600
1644174311.673233,-0.008057,0.007446,-0.990479,0.129252,0.539237,-0.207328,47,285,565,5728
1644174311.721611,-0.006958,0.010071,-0.99054,0.342992,0.417099,0.052214,48,271,580,5760
1644174311.769965,-0.010803,0.009094,-0.993042,0.297191,0.432366,0.021679,55,269,573,5728
1644174311.818398,-0.010254,0.008484,-0.990051,0.312458,0.371298,-0.085191,51,283,578,5696
1644174311.866823,-0.00885,0.011169,-0.991333,0.190321,0.340763,-0.176794,47,275,575,5760
1644174311.915198,-0.01001,0.010498,-0.990601,0.281924,0.294962,-0.008855,48,279,569,5728
1644174311.963797,-0.009705,0.009155,-0.990295,0.236122,0.478168,-0.176794,53,269,573,5776
1644174312.012009,-0.008423,0.01062,-0.989685,0.220855,0.386565,-0.115725,48,271,578,5696
1644174312.108793,-0.008118,0.013306,-0.993408,0.190321,0.447634,-0.14626,48,279,571,5776
1644174312.157125,-0.00708,0.010315,-0.992798,0.190321,0.371298,-0.024122,57,277,575,5696
1644174312.20548,-0.00769,0.009338,-0.98999,0.190321,0.401832,0.021679,58,269,571,5776
1644174312.253908,-0.007629,0.00885,-0.992126,0.281924,0.310229,-0.115725,49,277,575,5696
1644174312.30238,-0.008667,0.010437,-0.992249,0.220855,0.493435,-0.130992,53,266,569,5712
1644174312.350675,-0.008179,0.008423,-0.994629,0.190321,0.493435,-0.008855,51,279,580,5776
1644174312.39903,-0.010132,0.007874,-0.994019,0.327725,0.310229,-0.039389,49,282,577,5728
1644174312.447459,-0.006409,0.010071,-0.989197,0.251389,0.493435,-0.085191,60,281,573,5728
1644174312.49583,-0.008057,0.008301,-0.992371,0.266656,0.523969,-0.069924,47,277,570,5712
1644174312.544264,-0.010193,0.008972,-0.994995,0.190321,0.401832,-0.054656,43,271,569,5664
1644174312.592644,-0.010132,0.012207,-0.992188,0.190321,0.310229,0.021679,45,275,572,5728
1644174312.641034,-0.009827,0.010132,-0.992126,0.342992,0.371298,-0.115725,49,277,575,5728
1644174312.689418,-0.008301,0.009155,-0.990906,0.297191,0.462901,-0.054656,47,275,579,5664
1644174312.737818,-0.008484,0.007385,-0.990601,0.129252,0.401832,-0.25313,52,268,577,5712
1644174312.786201,-0.012207,0.009033,-0.990662,0.190321,0.386565,-0.069924,51,271,573,5760
1644174312.834647,-0.010437,0.00824,-0.99292,0.175053,0.279695,0.021679,61,273,579,5760
1644174312.883036,-0.010193,0.008362,-0.992493,0.266656,0.523969,-0.14626,40,275,582,5712
1644174312.931572,-0.01239,0.010986,-0.992798,0.327725,0.325496,-0.024122,47,268,577,5712
1644174312.97999,-0.008972,0.007996,-0.991516,0.312458,0.356031,-0.054656,48,274,573,5696
1644174313.030439,-0.009888,0.008484,-0.990967,0.052916,0.462901,-0.192061,51,269,576,5696
1644174313.091159,-0.007874,0.00769,-0.991211,0.190321,0.417099,-0.085191,43,269,578,5712
1644174313.125885,-0.01062,0.009766,-0.993713,0.129252,0.294962,-0.130992,52,273,570,5696
1644174313.221756,-0.009705,0.009338,-0.987488,0.251389,0.508702,-0.237863,62,276,573,5696
1644174313.270142,-0.010864,0.010681,-0.990906,0.342992,0.447634,-0.14626,47,282,575,5696
1644174313.318513,-0.009827,0.008484,-0.992432,0.327725,0.417099,-0.161527,48,283,571,5728
1644174313.366917,-0.011963,0.008972,-0.992065,0.327725,0.310229,-0.115725,49,277,570,5664
1644174313.415305,-0.012695,0.009033,-0.993591,0.144519,0.432366,-0.207328,58,269,571,5776
1644174313.463707,-0.009399,0.008057,-0.99469,0.144519,0.203359,-0.054656,46,271,564,5696
1644174313.512076,-0.011719,0.009521,-0.991394,0.08345,0.356031,0.098015,54,268,575,5712
1644174313.560502,-0.010193,0.00708,-0.993225,0.190321,0.447634,-0.054656,55,283,583,5728
1644174313.608883,-0.01123,0.006836,-0.994934,0.281924,0.233893,0.006412,51,281,576,5648
1644174313.657262,-0.011169,0.007996,-0.99176,0.312458,0.478168,-0.054656,49,270,577,5760
1644174313.705668,-0.008301,0.009644,-0.990662,0.312458,0.356031,-0.024122,57,277,577,5664
1644174313.754072,-0.008911,0.010193,-0.993774,0.08345,0.310229,0.006412,45,270,572,5760
1644174313.80247,-0.009583,0.008118,-0.993103,0.327725,0.325496,-0.069924,55,274,576,5696
1644174313.850837,-0.008118,0.008789,-0.993103,0.312458,0.493435,-0.14626,49,282,572,5728
1644174313.899216,-0.012512,0.00885,-0.993835,0.220855,0.325496,-0.054656,54,275,572,5712
1644174313.94761,-0.012146,0.009827,-0.991516,0.251389,0.172824,-0.085191,57,273,579,5776
1644174313.99599,-0.010986,0.009216,-0.992371,0.297191,0.279695,-0.115725,51,271,576,5696
1644174314.04497,-0.010925,0.006104,-0.991516,0.205588,0.386565,-0.024122,49,285,589,5712
1644174314.100953,-0.009094,0.010559,-0.992615,0.251389,0.432366,-0.069924,49,282,575,5776
1644174314.142167,-0.005676,0.01001,-0.993408,0.113985,0.356031,-0.054656,49,270,577,5808
1644174314.192535,-0.011414,0.010864,-0.993469,0.220855,0.310229,0.036947,48,276,587,5664
1644174314.242984,-0.007812,0.011292,-0.992493,0.342992,0.279695,0.036947,46,274,578,5696
1644174314.287708,-0.008423,0.009094,-0.993286,0.175053,0.462901,-0.192061,58,271,576,5696
1644174314.383098,-0.008057,0.007996,-0.991394,0.190321,0.310229,-0.085191,46,276,578,5696
1644174314.431471,-0.009277,0.009338,-0.993347,0.327725,0.462901,-0.039389,53,262,569,5760
1644174314.479876,-0.01062,0.012573,-0.989746,0.098718,0.203359,-0.115725,61,268,577,5664
1644174314.528256,-0.009888,0.009827,-0.990234,0.236122,0.401832,-0.024122,51,269,569,5760
1644174314.576648,-0.008911,0.01062,-0.990723,0.266656,0.310229,-0.115725,54,277,575,5728
1644174314.625075,-0.009094,0.012573,-0.990845,0.175053,0.493435,-0.100458,55,274,583,5696
1644174314.673451,-0.008606,0.007202,-0.995117,0.205588,0.417099,-0.207328,53,271,576,5760
1644174314.721837,-0.006348,0.007568,-0.994812,0.113985,0.386565,-0.268397,46,281,571,5760
1644174314.770223,-0.01062,0.01062,-0.991882,0.190321,0.340763,-0.039389,43,283,569,5728
1644174314.818658,-0.009705,0.011047,-0.990295,0.175053,0.279695,-0.161527,48,276,587,5712
1644174314.867038,-0.009094,0.007446,-0.989075,0.159786,0.432366,-0.008855,47,268,572,5712
1644174314.915414,-0.013,0.008301,-0.991516,0.205588,0.432366,-0.207328,43,274,576,5760
1644174314.963848,-0.008972,0.009888,-0.991028,0.220855,0.417099,-0.298931,51,271,573,5664
1644174315.012255,-0.009033,0.010925,-0.99231,0.190321,0.478168,-0.14626,36,274,571,5728
1644174315.071644,-0.012085,0.007874,-0.992981,0.144519,0.294962,-0.039389,43,269,578,5696
1644174315.10919,-0.011536,0.005737,-0.991821,0.113985,0.24916,-0.100458,54,277,579,5696
1644174315.157354,-0.009583,0.008423,-0.993958,0.266656,0.417099,-0.130992,62,269,576,5760
1644174315.205736,-0.008911,0.007019,-0.995117,0.236122,0.417099,-0.039389,46,281,576,5696
1644174315.254111,-0.009766,0.007507,-0.990662,0.236122,0.462901,-0.176794,47,282,579,5696
1644174315.302861,-0.009277,0.010376,-0.991821,0.205588,0.401832,-0.008855,42,273,575,5696
1644174315.353502,-0.010498,0.007324,-0.992188,0.297191,0.462901,-0.054656,52,275,586,5728
1644174315.403407,-0.008423,0.009644,-0.990234,0.144519,0.356031,-0.039389,54,273,572,5712
1644174315.448773,-0.010132,0.010315,-0.992004,0.129252,0.401832,0.006412,52,273,572,5696
1644174315.544496,-0.006592,0.011108,-0.991577,0.251389,0.294962,-0.100458,61,273,568,5696
1644174315.592875,-0.010193,0.012207,-0.994873,0.08345,0.279695,-0.085191,48,264,578,5728
1644174315.641244,-0.007996,0.01001,-0.993225,0.266656,0.508702,-0.069924,49,275,565,5696
1644174315.689638,-0.012024,0.009583,-0.989014,0.205588,0.386565,-0.069924,52,268,575,5760
1644174315.738037,-0.008911,0.011719,-0.992004,0.297191,0.401832,-0.069924,43,279,573,5696
1644174315.786423,-0.012573,0.009888,-0.992798,0.220855,0.371298,-0.207328,53,279,576,5760
1644174315.834862,-0.010376,0.010864,-0.993225,0.205588,0.447634,-0.054656,49,273,570,5712
1644174315.883255,-0.008545,0.010925,-0.994385,0.037649,0.356031,-0.161527,47,270,575,5728
1644174315.931619,-0.009094,0.012146,-0.990967,0.098718,0.493435,-0.222595,58,276,571,5760
1644174315.98003,-0.012451,0.009827,-0.992371,0.236122,0.371298,-0.176794,49,275,575,5648
1644174316.028429,-0.008545,0.01062,-0.98938,0.159786,0.401832,-0.14626,59,270,572,5696
1644174316.094514,-0.012268,0.012695,-0.990356,0.205588,0.493435,-0.054656,47,268,579,5840
1644174316.125174,-0.01123,0.007935,-0.994568,0.144519,0.279695,-0.085191,53,283,583,5728
1644174316.175032,-0.010559,0.011475,-0.993958,0.205588,0.554504,-0.054656,58,274,578,5824
1644174316.224972,-0.009216,0.007935,-0.991028,0.297191,0.371298,-0.25313,58,274,587,5696
1644174316.275388,-0.010437,0.008972,-0.99408,0.312458,0.371298,-0.115725,48,274,578,5712
1644174316.367097,-0.010376,0.007507,-0.992432,0.220855,0.356031,-0.161527,59,277,565,5712
1644174316.415481,-0.00824,0.008911,-0.990295,0.312458,0.401832,-0.069924,52,268,575,5696
1644174316.463906,-0.008118,0.010071,-0.991577,0.236122,0.417099,-0.176794,47,275,575,5712
1644174316.512393,-0.008545,0.008545,-0.992126,0.327725,0.432366,-0.054656,49,280,577,5712
1644174316.560683,-0.009949,0.009216,-0.993958,0.175053,0.310229,-0.115725,59,265,572,5696
1644174316.609057,-0.011108,0.008362,-0.993958,0.190321,0.279695,-0.115725,55,271,569,5664
1644174316.657464,-0.009766,0.008789,-0.992371,0.098718,0.432366,-0.039389,52,273,579,5728
1644174316.705848,-0.007935,0.008972,-0.991699,0.251389,0.294962,-0.054656,58,274,583,5696
1644174316.754232,-0.011414,0.008362,-0.991821,0.220855,0.478168,-0.085191,48,264,576,5728
1644174316.802619,-0.011169,0.00824,-0.993713,0.175053,0.447634,-0.115725,52,280,584,5664
1644174316.851027,-0.009094,0.007019,-0.99469,0.08345,0.356031,-0.100458,52,273,572,5760
1644174316.899446,-0.006775,0.008911,-0.991516,0.175053,0.371298,-0.069924,60,279,569,5696
1644174316.947839,-0.008972,0.008606,-0.990479,0.220855,0.554504,-0.054656,48,276,583,5728
1644174316.996236,-0.008484,0.00769,-0.991394,0.281924,0.386565,-0.039389,42,277,579,5728
1644174317.044669,-0.010071,0.00946,-0.992249,0.342992,0.523969,-0.054656,57,273,577,5808
1644174317.095583,-0.010254,0.007263,-0.991516,0.190321,0.478168,-0.085191,53,288,578,5696
1644174317.141412,-0.012146,0.01123,-0.992737,0.220855,0.462901,-0.069924,55,279,573,5760
1644174317.189731,-0.011658,0.009583,-0.990601,0.220855,0.417099,0.036947,52,268,577,5664
1644174317.23815,-0.009277,0.008362,-0.991394,0.266656,0.340763,-0.207328,54,270,575,5664
1644174317.286763,-0.013184,0.008362,-0.991638,0.159786,0.462901,-0.14626,51,271,573,5696
1644174317.337099,-0.009766,0.010559,-0.992676,0.251389,0.264427,-0.069924,53,271,569,5696
1644174317.388111,-0.012146,0.00885,-0.989502,0.236122,0.386565,-0.115725,45,273,584,5712
1644174317.432405,-0.010742,0.008972,-0.994385,0.266656,0.554504,-0.130992,46,271,571,5712
1644174317.52848,-0.00885,0.010132,-0.992615,0.144519,0.371298,-0.039389,54,280,563,5696
1644174317.576873,-0.008972,0.011902,-0.990784,0.266656,0.401832,0.021679,48,279,576,5728
1644174317.625395,-0.007874,0.011536,-0.989807,0.236122,0.417099,0.036947,49,270,570,5712
1644174317.673678,-0.011963,0.007812,-0.991577,0.129252,0.356031,-0.192061,49,285,572,5760
1644174317.722057,-0.011108,0.011108,-0.993103,0.190321,0.294962,-0.024122,53,266,576,5808
1644174317.770444,-0.010925,0.009338,-0.990906,0.220855,0.432366,-0.054656,53,276,573,5648
1644174317.81883,-0.007935,0.009094,-0.99469,0.266656,0.310229,-0.100458,53,274,578,5696
1644174317.86728,-0.011353,0.006836,-0.992493,0.159786,0.356031,-0.085191,52,277,575,5808
1644174317.915674,-0.010498,0.00885,-0.991882,0.220855,0.508702,0.052214,54,275,570,5696
1644174317.964068,-0.008423,0.009033,-0.992981,0.205588,0.432366,-0.192061,47,273,575,5696
1644174318.012439,-0.00885,0.011108,-0.994141,0.190321,0.371298,-0.039389,49,280,586,5712
1644174318.068388,-0.01001,0.00946,-0.990723,0.312458,0.462901,-0.024122,51,281,576,5712
1644174318.109175,-0.008545,0.008606,-0.992798,0.266656,0.523969,-0.054656,53,274,580,5760
1644174318.157581,-0.009827,0.009216,-0.991455,0.159786,0.508702,-0.207328,53,279,573,5712
1644174318.20597,-0.010681,0.009399,-0.993286,0.098718,0.432366,-0.085191,51,274,583,5728
1644174318.254321,-0.011108,0.006653,-0.993042,0.342992,0.447634,-0.222595,58,283,587,5696
1644174318.302758,-0.008118,0.008606,-0.991821,0.342992,0.386565,-0.130992,52,273,579,5712
1644174318.351138,-0.010498,0.01001,-0.99231,0.098718,0.401832,-0.176794,51,271,578,5712
1644174318.399607,-0.010376,0.008484,-0.99231,0.236122,0.478168,-0.161527,54,268,577,5664
1644174318.448962,-0.010437,0.006348,-0.99292,0.175053,0.401832,-0.130992,45,275,575,5760
1644174318.499856,-0.01062,0.009033,-0.991455,0.236122,0.417099,-0.069924,52,277,575,5696
1644174318.549703,-0.010193,0.006042,-0.992981,0.236122,0.356031,-0.14626,53,262,573,5696
1644174318.641508,-0.01123,0.007446,-0.990417,0.266656,0.386565,-0.100458,45,265,577,5712
1644174318.68988,-0.009827,0.013,-0.992554,0.113985,0.325496,-0.222595,54,275,582,5712
1644174318.738245,-0.00885,0.008484,-0.993286,0.327725,0.371298,0.006412,52,280,577,5696
1644174318.786647,-0.00946,0.008484,-0.994812,0.35826,0.310229,-0.100458,53,269,580,5712
1644174318.835073,-0.009888,0.00885,-0.993164,0.190321,0.264427,-0.130992,54,273,582,5776
1644174318.883465,-0.008545,0.006226,-0.99469,0.129252,0.340763,-0.14626,51,274,571,5760
1644174318.931882,-0.009033,0.007996,-0.994995,0.190321,0.310229,-0.100458,43,281,571,5712
1644174318.980265,-0.010681,0.009216,-0.994995,0.236122,0.310229,-0.024122,54,263,577,5728
1644174319.028648,-0.009827,0.006714,-0.992737,0.266656,0.432366,-0.008855,60,269,573,5728
1644174319.086315,-0.012268,0.00708,-0.993225,0.312458,0.447634,-0.100458,52,277,575,5728
1644174319.12546,-0.007446,0.006836,-0.990662,0.205588,0.325496,-0.008855,49,275,589,5760
1644174319.173814,-0.012207,0.009399,-0.991699,0.251389,0.340763,-0.085191,48,279,569,5760
1644174319.222235,-0.008606,0.007263,-0.993164,0.281924,0.371298,-0.069924,55,269,578,5712
1644174319.270568,-0.01123,0.008301,-0.992188,0.159786,0.417099,-0.115725,59,280,572,5760
1644174319.318968,-0.010071,0.011597,-0.994934,0.144519,0.417099,-0.085191,48,274,587,5664
1644174319.367345,-0.014221,0.008728,-0.992676,0.236122,0.462901,-0.161527,42,268,586,5728
1644174319.415728,-0.009949,0.00824,-0.992676,0.266656,0.356031,-0.130992,55,271,566,5712
1644174319.464128,-0.012512,0.010559,-0.993164,0.251389,0.417099,-0.039389,48,271,573,5728
1644174319.512553,-0.011169,0.010803,-0.990845,0.098718,0.386565,-0.069924,57,280,579,5696
1644174319.56237,-0.01001,0.008545,-0.990662,0.388794,0.340763,-0.008855,51,276,571,5696
1644174319.612657,-0.011353,0.010315,-0.993896,0.220855,0.401832,-0.069924,43,276,571,5696
1644174319.662702,-0.008118,0.00592,-0.993225,0.205588,0.523969,-0.008855,48,274,573,5712
1644174319.754452,-0.010864,0.009583,-0.992859,0.388794,0.310229,-0.024122,53,276,576,5760
1644174319.802881,-0.010742,0.011902,-0.992004,0.022382,0.356031,-0.069924,46,271,573,5696
1644174319.851245,-0.012695,0.007324,-0.995911,0.35826,0.508702,-0.115725,60,288,573,5664
1644174319.899682,-0.010986,0.007874,-0.989685,0.342992,0.539237,-0.130992,59,277,568,5776
1644174319.948069,-0.010864,0.007507,-0.989563,0.129252,0.493435,-0.115725,45,277,584,5728
1644174319.996466,-0.008667,0.008057,-0.990784,0.327725,0.508702,-0.100458,57,287,577,5712
1644174320.044873,-0.010193,0.01123,-0.992126,0.052916,0.371298,-0.14626,59,275,570,5696
1644174320.093998,-0.012939,0.008789,-0.994568,0.205588,0.478168,-0.192061,52,268,579,5760
1644174320.141634,-0.006714,0.00708,-0.993164,0.129252,0.554504,-0.161527,47,273,582,5664
1644174320.189983,-0.012329,0.008179,-0.99353,0.281924,0.478168,-0.054656,48,271,571,5712
1644174320.238371,-0.008179,0.007874,-0.99176,0.236122,0.432366,-0.054656,48,281,569,5696
1644174320.286773,-0.008728,0.006775,-0.988708,0.205588,0.325496,-0.054656,48,279,580,5664
1644174320.335188,-0.009338,0.007812,-0.989136,0.327725,0.279695,-0.115725,48,281,573,5760
1644174320.383563,-0.010437,0.01001,-0.992249,0.159786,0.585038,-0.115725,51,274,576,5696
1644174320.431943,-0.010742,0.00946,-0.992676,0.251389,0.340763,-0.008855,38,280,570,5760
1644174320.48034,-0.00946,0.009155,-0.993408,0.175053,0.371298,-0.100458,54,270,575,5696
1644174320.52872,-0.009583,0.008911,-0.990845,0.297191,0.401832,-0.069924,52,280,582,5696
1644174320.577114,-0.011353,0.011536,-0.993713,0.205588,0.356031,-0.024122,46,274,571,5728
1644174320.627086,-0.010193,0.010376,-0.992065,0.419328,0.325496,-0.115725,47,275,582,5776
1644174320.677717,-0.00946,0.011169,-0.990234,0.052916,0.401832,-0.054656,47,268,577,5696
1644174320.722335,-0.012329,0.010193,-0.989624,0.342992,0.325496,-0.25313,49,268,577,5760
1644174320.819039,-0.012085,0.009216,-0.991089,0.266656,0.371298,-0.130992,49,285,579,5696
1644174320.86744,-0.010315,0.007141,-0.995117,0.281924,0.417099,-0.130992,51,274,580,5760
1644174320.915891,-0.01062,0.009338,-0.991516,0.205588,0.417099,-0.054656,49,270,575,5712
1644174320.964281,-0.010925,0.006714,-0.991638,0.175053,0.432366,0.006412,49,270,579,5776
1644174321.012681,-0.011414,0.005859,-0.992126,0.113985,0.417099,-0.054656,52,277,572,5712
1644174321.067022,-0.00885,0.006897,-0.991821,0.220855,0.432366,-0.130992,47,277,586,5664
1644174321.109423,-0.012329,0.008606,-0.991638,0.251389,0.386565,-0.115725,53,274,580,5696
1644174321.157789,-0.010254,0.009033,-0.995117,0.144519,0.417099,-0.024122,48,276,578,5760
1644174321.206158,-0.011902,0.008057,-0.991455,0.129252,0.24916,-0.054656,53,279,573,5696
1644174321.2547,-0.011169,0.007202,-0.991577,0.266656,0.432366,-0.283664,48,271,578,5728
1644174321.302981,-0.011719,0.007935,-0.993958,0.236122,0.279695,-0.25313,53,274,583,5728
1644174321.351371,-0.011414,0.010132,-0.994385,0.144519,0.462901,-0.130992,55,266,587,5664
1644174321.399779,-0.013062,0.010925,-0.991028,0.068183,0.401832,-0.161527,54,277,579,5664
1644174321.448159,-0.00885,0.010132,-0.991821,0.220855,0.325496,-0.100458,43,279,583,5712
1644174321.496549,-0.00769,0.01123,-0.991882,0.159786,0.569771,-0.100458,54,273,579,5728
1644174321.544914,-0.011536,0.011597,-0.992371,-0.02342,0.401832,0.021679,54,268,577,5728
1644174321.593335,-0.010681,0.007874,-0.995239,0.312458,0.279695,-0.100458,54,277,577,5696
1644174321.641709,-0.009644,0.011353,-0.992859,0.175053,0.554504,-0.069924,48,283,573,5776
1644174321.690095,-0.010986,0.007996,-0.99292,0.236122,0.386565,-0.008855,62,274,583,5776
1644174321.738726,-0.013245,0.007751,-0.991821,0.251389,0.508702,0.036947,48,286,580,5728
1644174321.789412,-0.013611,0.011047,-0.992249,0.098718,0.279695,-0.130992,49,275,579,5728
1644174321.84035,-0.010071,0.00824,-0.993164,0.297191,0.401832,-0.130992,53,276,571,5696
1644174321.88518,-0.011597,0.008057,-0.993286,0.159786,0.432366,0.021679,42,265,584,5648
1644174321.98048,-0.008667,0.008728,-0.989502,0.144519,0.310229,-0.176794,51,276,578,5728
1644174322.028877,-0.009033,0.010742,-0.991699,0.297191,0.417099,-0.069924,60,266,583,5728
1644174322.07731,-0.011353,0.012695,-0.991882,0.251389,0.508702,-0.054656,54,280,584,5712
1644174322.125611,-0.015442,0.010437,-0.993408,0.266656,0.356031,-0.268397,52,273,563,5696
1644174322.174003,-0.010986,0.010132,-0.992981,0.281924,0.356031,-0.176794,47,275,579,5664
1644174322.222416,-0.011414,0.004761,-0.990784,0.236122,0.539237,-0.14626,60,269,571,5664
1644174322.270793,-0.009888,0.007324,-0.991394,0.251389,0.417099,-0.14626,54,277,575,5664
1644174322.319192,-0.009766,0.009705,-0.99054,0.175053,0.386565,-0.054656,45,275,579,5696
1644174322.367574,-0.010437,0.01123,-0.993652,0.205588,0.432366,-0.085191,52,273,575,5776
1644174322.415962,-0.009338,0.008484,-0.994568,0.205588,0.279695,0.036947,45,277,572,5664
1644174322.46434,-0.011536,0.010376,-0.990051,0.037649,0.203359,-0.039389,46,274,573,5696
1644174322.512744,-0.012329,0.008484,-0.99292,0.190321,0.447634,-0.161527,53,279,585,5712
1644174322.561108,-0.009033,0.008789,-0.993835,0.297191,0.493435,-0.207328,51,274,569,5712
1644174322.609523,-0.009094,0.010498,-0.990112,0.312458,0.356031,-0.085191,47,270,584,5664
1644174322.65791,-0.010742,0.010315,-0.992004,0.419328,0.386565,-0.069924,49,280,575,5760
1644174322.706304,-0.010925,0.009277,-0.990906,0.312458,0.508702,-0.176794,52,280,582,5760
1644174322.754694,-0.011963,0.010376,-0.993774,0.052916,0.554504,-0.14626,52,275,584,5712
1644174322.803169,-0.007263,0.008301,-0.99292,0.159786,0.432366,0.113282,47,275,572,5760
1644174322.851995,-0.012085,0.010437,-0.992859,0.312458,0.386565,-0.024122,51,276,571,5664
1644174322.902658,-0.010925,0.008057,-0.992676,0.251389,0.371298,-0.176794,49,270,572,5712
1644174322.953109,-0.013672,0.00824,-0.991943,0.327725,0.386565,-0.115725,49,273,568,5728
1644174322.997814,-0.007629,0.010315,-0.993469,0.297191,0.462901,-0.069924,51,259,578,5712
1644174323.093529,-0.009277,0.013489,-0.991455,0.281924,0.432366,-0.268397,57,270,582,5760
1644174323.141817,-0.009277,0.00769,-0.992371,0.175053,0.417099,-0.222595,53,271,578,5696
1644174323.190202,-0.011902,0.01123,-0.992371,0.205588,0.462901,-0.161527,54,275,582,5712
1644174323.238606,-0.009644,0.009277,-0.991943,0.281924,0.508702,-0.130992,42,273,570,5728
1644174323.286987,-0.010376,0.008972,-0.993835,0.159786,0.386565,-0.115725,43,264,580,5728
1644174323.335366,-0.009216,0.009277,-0.992798,0.281924,0.371298,-0.054656,59,273,577,5712
1644174323.383785,-0.01239,0.013123,-0.992859,0.236122,0.478168,-0.207328,43,276,573,5696
1644174323.432393,-0.010681,0.008362,-0.99292,0.113985,0.386565,0.052214,43,266,571,5760
1644174323.480563,-0.008545,0.011108,-0.991272,0.113985,0.462901,0.021679,46,281,566,5696
1644174323.52895,-0.009338,0.00769,-0.988159,0.312458,0.340763,-0.176794,49,275,582,5760
1644174323.577313,-0.009521,0.012146,-0.992432,0.266656,0.462901,0.036947,47,270,582,5712
1644174323.625726,-0.010864,0.011108,-0.991028,-0.008153,0.356031,-0.161527,60,269,583,5696
1644174323.674118,-0.008179,0.008728,-0.990234,0.205588,0.371298,-0.130992,51,266,571,5760
1644174323.722519,-0.009338,0.009583,-0.992188,0.007115,0.371298,-0.054656,41,274,587,5696
1644174323.770908,-0.009888,0.011353,-0.992859,0.312458,0.264427,0.006412,49,275,572,5760
1644174323.81933,-0.01001,0.008789,-0.990784,0.159786,0.493435,-0.176794,48,266,578,5712
1644174323.86773,-0.010071,0.007385,-0.989563,0.113985,0.432366,-0.100458,49,270,575,5664
1644174323.916128,-0.008789,0.008789,-0.99231,0.266656,0.478168,-0.008855,52,280,579,5728
1644174323.964858,-0.010437,0.010681,-0.992188,0.297191,0.462901,-0.176794,42,270,572,5776
1644174324.065258,-0.010559,0.007324,-0.991211,0.434595,0.493435,-0.100458,47,273,584,5648
1644174324.110424,-0.013428,0.010986,-0.991089,0.037649,0.493435,-0.115725,55,276,580,5760
1644174324.157987,-0.009277,0.006714,-0.990845,0.281924,0.447634,-0.161527,48,281,580,5760
1644174324.206427,-0.011719,0.010803,-0.992859,0.159786,0.462901,-0.161527,58,276,573,5696
1644174324.254801,-0.010864,0.008911,-0.990173,0.236122,0.462901,-0.14626,40,280,575,5712
1644174324.303213,-0.010864,0.009766,-0.994568,0.266656,0.401832,-0.085191,48,276,583,5760
1644174324.351597,-0.011108,0.009766,-0.992981,0.144519,0.371298,-0.069924,48,274,576,5728
1644174324.399965,-0.010803,0.007568,-0.991699,0.236122,0.417099,-0.115725,46,286,573,5776
1644174324.448386,-0.012085,0.008606,-0.994812,0.327725,0.462901,-0.039389,52,280,584,5760
1644174324.496758,-0.013489,0.00946,-0.991516,0.251389,0.508702,-0.115725,51,279,583,5712
1644174324.545239,-0.011902,0.012512,-0.990784,0.205588,0.462901,-0.069924,65,281,580,5776
1644174324.593545,-0.009033,0.009644,-0.991089,0.113985,0.539237,-0.161527,47,277,582,5664
1644174324.64191,-0.008179,0.010193,-0.995422,0.312458,0.523969,-0.14626,51,274,578,5712
1644174324.690341,-0.01001,0.00708,-0.990417,0.190321,0.203359,-0.237863,46,271,569,5760
1644174324.738722,-0.010437,0.007996,-0.99231,0.205588,0.417099,0.021679,53,279,580,5664
1644174324.787079,-0.010437,0.010986,-0.993103,0.251389,0.401832,-0.130992,48,286,576,5760
1644174324.835838,-0.009705,0.010498,-0.992554,0.113985,0.462901,-0.100458,41,271,571,5712
1644174324.886015,-0.009277,0.009827,-0.99054,0.35826,0.24916,-0.069924,48,283,576,5712
1644174324.936483,-0.010193,0.009583,-0.993652,0.190321,0.401832,-0.085191,52,268,579,5664
1644174324.986621,-0.010071,0.01239,-0.988342,0.190321,0.24916,-0.008855,47,270,584,5664
1644174325.077549,-0.008606,0.009583,-0.991638,0.052916,0.417099,-0.192061,53,274,583,5696
1644174325.125874,-0.008118,0.00946,-0.992554,0.190321,0.279695,-0.100458,46,269,576,5728
1644174325.174242,-0.009949,0.01123,-0.992554,0.449863,0.493435,-0.085191,51,269,576,5664
1644174325.22265,-0.00824,0.007507,-0.993652,0.175053,0.447634,-0.085191,46,271,576,5728
1644174325.271015,-0.009216,0.009216,-0.988159,0.297191,0.325496,-0.054656,40,270,570,5824
1644174325.319394,-0.010742,0.007568,-0.993896,0.236122,0.279695,0.082748,51,276,576,5696
1644174325.3678,-0.007568,0.009521,-0.992798,0.312458,0.569771,-0.008855,55,279,576,5760
1644174325.416171,-0.007324,0.006775,-0.990479,0.175053,0.432366,-0.039389,43,281,580,5728
1644174325.464629,-0.011353,0.008118,-0.99231,0.205588,0.340763,-0.115725,46,269,576,5696
1644174325.512976,-0.011475,0.007996,-0.993774,0.281924,0.371298,-0.192061,42,268,577,5712
1644174325.561355,-0.012268,0.007141,-0.990723,0.312458,0.523969,-0.069924,55,271,576,5808
1644174325.609751,-0.010681,0.005859,-0.993042,0.266656,0.356031,-0.115725,52,282,570,5696
1644174325.658138,-0.011475,0.009338,-0.993713,0.129252,0.447634,0.036947,59,270,575,5808
1644174325.706532,-0.011047,0.012573,-0.993042,0.236122,0.417099,-0.237863,43,271,571,5728
1644174325.754909,-0.006165,0.009216,-0.991455,0.312458,0.386565,-0.054656,52,275,575,5760
1644174325.803323,-0.012207,0.007874,-0.990601,0.297191,0.523969,0.067481,51,283,585,5760
1644174325.851747,-0.011292,0.010742,-0.989136,0.190321,0.371298,0.052214,51,279,585,5776
1644174325.900474,-0.009155,0.011658,-0.991211,0.251389,0.508702,0.021679,45,270,579,5664
1644174325.94855,-0.010742,0.010071,-0.991211,0.236122,0.447634,0.036947,40,275,575,5712
1644174325.998602,-0.009277,0.009521,-0.994324,0.297191,0.386565,-0.176794,58,279,566,5696
1644174326.063496,-0.011169,0.009521,-0.993286,0.266656,0.371298,-0.207328,49,282,577,5664
1644174326.103688,-0.010132,0.010559,-0.993286,0.159786,0.401832,0.021679,62,279,585,5824
1644174326.143717,-0.010803,0.011169,-0.990601,0.419328,0.356031,-0.161527,58,274,564,5808
1644174326.23883,-0.010559,0.006226,-0.992126,0.281924,0.401832,-0.115725,54,275,568,5664
1644174326.287199,-0.009033,0.010498,-0.992737,0.46513,0.523969,-0.085191,48,274,566,5760
1644174326.335596,-0.007507,0.011047,-0.99408,0.327725,0.432366,-0.100458,53,279,569,5648
1644174326.38401,-0.008606,0.011108,-0.991943,0.205588,0.294962,0.052214,48,283,578,5760
1644174326.432416,-0.014404,0.008606,-0.992676,0.220855,0.340763,-0.085191,49,268,575,5760
1644174326.480781,-0.008606,0.009888,-0.991089,0.312458,0.310229,0.021679,42,275,568,5728
1644174326.529176,-0.009827,0.007812,-0.990967,0.251389,0.325496,-0.14626,59,282,582,5696
1644174326.577556,-0.007812,0.009521,-0.99176,0.281924,0.401832,-0.161527,53,274,564,5696
1644174326.625977,-0.008423,0.010071,-0.99292,0.297191,0.310229,-0.115725,49,280,586,5632
1644174326.674366,-0.012451,0.00946,-0.992126,0.297191,0.493435,0.036947,53,271,573,5664
1644174326.722735,-0.011475,0.006897,-0.992981,0.266656,0.356031,-0.130992,57,268,584,5808
1644174326.771131,-0.006348,0.008545,-0.993286,0.175053,0.432366,-0.115725,53,276,573,5648
1644174326.819529,-0.009888,0.007507,-0.992798,0.297191,0.447634,-0.222595,38,270,586,5808
1644174326.867976,-0.012085,0.011475,-0.992004,0.480397,0.371298,-0.130992,54,273,586,5696
1644174326.916594,-0.010559,0.008423,-0.994812,0.098718,0.310229,-0.161527,53,269,583,5664
1644174326.96475,-0.012268,0.009216,-0.991089,0.312458,0.401832,-0.14626,46,274,578,5696
1644174327.013141,-0.010986,0.008484,-0.992737,0.35826,0.417099,0.052214,58,286,573,5728
1644174327.081311,-0.011841,0.006409,-0.994324,0.266656,0.340763,-0.14626,46,266,573,5728
1644174327.118672,-0.011963,0.008301,-0.993103,0.342992,0.447634,0.006412,46,276,578,5776
1644174327.161543,-0.011902,0.009155,-0.992981,0.220855,0.310229,-0.130992,47,275,575,5712
1644174327.210534,-0.011108,0.010498,-0.99054,0.236122,0.279695,0.082748,47,282,565,5696
1644174327.256002,-0.010864,0.010193,-0.992798,0.144519,0.432366,-0.176794,52,270,584,5696
1644174327.351815,-0.010498,0.009033,-0.991028,0.175053,0.539237,-0.222595,55,274,580,5760
1644174327.400215,-0.008728,0.009033,-0.991089,0.327725,0.386565,-0.100458,54,280,570,5808
1644174327.448609,-0.008057,0.011108,-0.992737,0.220855,0.386565,0.021679,49,277,582,5728
1644174327.496986,-0.008545,0.007874,-0.99054,0.220855,0.401832,-0.176794,47,263,579,5712
1644174327.545379,-0.008911,0.01062,-0.991394,0.190321,0.310229,-0.100458,51,279,564,5728
1644174327.593766,-0.01001,0.008484,-0.990234,0.266656,0.478168,-0.161527,57,268,570,5760
1644174327.642193,-0.008118,0.009949,-0.990601,0.251389,0.172824,-0.085191,43,271,576,5728
1644174327.690561,-0.009766,0.010071,-0.991638,0.113985,0.554504,-0.14626,62,279,576,5728
1644174327.73895,-0.010681,0.009521,-0.990601,0.205588,0.279695,0.067481,52,280,579,5648
1644174327.787335,-0.011719,0.007446,-0.992737,0.159786,0.294962,-0.25313,47,275,575,5728
1644174327.835742,-0.009705,0.012451,-0.990295,0.190321,0.432366,-0.024122,53,276,578,5632
1644174327.884181,-0.00946,0.010193,-0.989868,0.251389,0.508702,-0.054656,52,275,579,5760
1644174327.932591,-0.008484,0.01062,-0.988953,0.297191,0.447634,-0.161527,48,271,578,5696
1644174327.98093,-0.009155,0.012085,-0.990967,0.449863,0.340763,-0.115725,52,273,579,5728
1644174328.029331,-0.009216,0.008728,-0.992126,0.175053,0.294962,0.082748,57,265,579,5776
1644174328.090744,-0.009521,0.010803,-0.993042,0.281924,0.478168,0.036947,52,277,579,5696
1644174328.127221,-0.011292,0.00769,-0.992371,0.251389,0.386565,-0.115725,55,276,580,5760
1644174328.177871,-0.007263,0.005981,-0.990967,0.266656,0.508702,-0.085191,46,271,564,5696
1644174328.226764,-0.010437,0.008606,-0.992737,0.113985,0.401832,-0.100458,49,285,579,5664
1644174328.271785,-0.009705,0.013062,-0.99176,0.190321,0.279695,-0.176794,59,265,577,5760
1644174328.368003,-0.011047,0.013,-0.992432,0.404061,0.340763,-0.039389,48,269,580,5808
1644174328.416417,-0.008545,0.009033,-0.990967,0.266656,0.340763,-0.192061,61,273,584,5696
1644174328.464843,-0.00885,0.010132,-0.989868,0.312458,0.325496,-0.100458,55,276,571,5728
1644174328.513184,-0.01178,0.010437,-0.991638,0.251389,0.417099,-0.176794,49,275,579,5648
1644174328.561583,-0.010254,0.006226,-0.990295,0.159786,0.386565,-0.130992,52,282,582,5760
1644174328.609975,-0.010132,0.010498,-0.99115,0.190321,0.478168,-0.085191,43,279,564,5712
1644174328.658368,-0.010132,0.010742,-0.992188,0.144519,0.401832,-0.054656,49,280,575,5648
1644174328.706758,-0.009399,0.010559,-0.992249,0.236122,0.493435,-0.054656,42,273,577,5728
1644174328.755192,-0.011902,0.00946,-0.993774,0.236122,0.447634,-0.085191,47,265,575,5664
1644174328.803545,-0.00946,0.006287,-0.991577,0.327725,0.417099,-0.222595,51,274,578,5664
1644174328.851933,-0.008606,0.01355,-0.990845,0.220855,0.569771,0.098015,49,275,579,5760
1644174328.900374,-0.012695,0.008362,-0.996033,0.205588,0.508702,-0.176794,51,281,571,5760
1644174328.948755,-0.011475,0.009888,-0.992554,0.297191,0.356031,0.052214,48,266,580,5728
1644174328.997144,-0.010498,0.007874,-0.995239,0.373527,0.401832,0.006412,53,266,573,5696
1644174329.045557,-0.007568,0.010376,-0.990479,0.251389,0.508702,-0.100458,54,273,582,5728
1644174329.096453,-0.010254,0.010132,-0.99231,0.190321,0.325496,0.052214,52,277,572,5808
1644174329.142292,-0.007935,0.011108,-0.991516,0.159786,0.417099,0.052214,49,280,591,5728
1644174329.190645,-0.010742,0.007019,-0.990662,0.159786,0.356031,-0.085191,45,275,579,5760
1644174329.239062,-0.009644,0.008667,-0.992065,0.327725,0.432366,-0.039389,55,271,571,5696
1644174329.287494,-0.008728,0.011353,-0.990112,0.236122,0.523969,-0.25313,47,275,575,5760
1644174329.337512,-0.009583,0.007324,-0.990906,0.175053,0.401832,-0.085191,41,271,569,5712
1644174329.387805,-0.008057,0.009277,-0.993835,0.098718,0.371298,-0.176794,45,268,570,5696
1644174329.432881,-0.008057,0.010986,-0.989441,0.297191,0.325496,0.036947,49,273,572,5696
1644174329.529388,-0.008362,0.010559,-0.990784,0.113985,0.508702,-0.115725,57,270,575,5696
1644174329.577783,-0.010132,0.011536,-0.992126,0.190321,0.447634,-0.024122,58,264,573,5712
1644174329.626157,-0.011902,0.010132,-0.990723,0.281924,0.218626,-0.176794,45,273,568,5696
1644174329.674979,-0.006409,0.011536,-0.992188,0.327725,0.401832,-0.039389,40,280,570,5712
1644174329.722977,-0.008362,0.012695,-0.99176,0.236122,0.386565,-0.069924,49,275,577,5728
1644174329.771362,-0.010437,0.009277,-0.989624,0.327725,0.447634,-0.161527,48,276,573,5776
1644174329.819771,-0.015869,0.008301,-0.992493,0.190321,0.386565,-0.100458,58,279,576,5696
1644174329.868184,-0.01062,0.008362,-0.991394,0.327725,0.432366,0.006412,47,273,575,5712
1644174329.916586,-0.010254,0.012024,-0.98938,0.129252,0.386565,-0.176794,59,270,577,5728
1644174329.965104,-0.012573,0.009888,-0.990784,0.220855,0.356031,-0.115725,49,277,579,5696
1644174330.013347,-0.010803,0.009949,-0.989014,0.113985,0.386565,0.021679,55,283,571,5696
1644174330.06339,-0.012878,0.007568,-0.992554,0.35826,0.264427,-0.039389,52,275,582,5696
1644174330.110082,-0.010803,0.007935,-0.995117,0.327725,0.310229,-0.115725,48,288,576,5696
1644174330.158487,-0.011169,0.010315,-0.993896,0.297191,0.340763,-0.130992,40,275,563,5728
1644174330.206877,-0.011597,0.007507,-0.99176,0.098718,0.356031,-0.115725,40,277,577,5728
1644174330.255252,-0.010803,0.008667,-0.991882,0.297191,0.386565,-0.237863,51,271,578,5776
1644174330.303663,-0.009399,0.007935,-0.988281,0.098718,0.356031,-0.069924,53,269,573,5696
1644174330.352048,-0.009338,0.007935,-0.994385,0.190321,0.417099,-0.298931,49,280,579,5824
1644174330.40044,-0.008789,0.008728,-0.988892,0.266656,0.401832,-0.192061,55,274,580,5664
1644174330.449152,-0.013,0.008057,-0.991394,0.175053,0.432366,-0.100458,48,274,573,5760
1644174330.499898,-0.011353,0.011353,-0.992676,0.373527,0.462901,-0.069924,42,270,586,5696
1644174330.549607,-0.007629,0.007141,-0.990906,0.297191,0.371298,-0.100458,48,264,580,5664
1644174330.594691,-0.011902,0.009888,-0.993042,0.190321,0.432366,0.067481,48,271,578,5728
1644174330.690783,-0.010864,0.007812,-0.990356,0.175053,0.294962,-0.100458,42,282,565,5728
1644174330.739167,-0.006348,0.009888,-0.991821,0.037649,0.294962,-0.100458,47,273,572,5696
1644174330.787567,-0.011475,0.013123,-0.992981,0.144519,0.356031,0.006412,55,264,578,5760
1644174330.836004,-0.011597,0.009583,-0.992188,0.113985,0.386565,-0.115725,53,279,580,5728
1644174330.884389,-0.011047,0.011292,-0.992126,0.251389,0.340763,-0.085191,64,268,568,5760
1644174330.932798,-0.009094,0.010864,-0.99292,0.113985,0.340763,-0.008855,48,276,576,5776
1644174330.981163,-0.010254,0.009705,-0.99231,0.327725,0.432366,-0.039389,49,277,584,5696
1644174331.029565,-0.011658,0.009338,-0.991211,0.205588,0.401832,-0.008855,57,270,572,5712
1644174331.079575,-0.009033,0.008789,-0.989136,0.236122,0.523969,-0.176794,49,270,579,5712
1644174331.126319,-0.013794,0.009033,-0.991333,0.35826,0.386565,0.021679,42,275,579,5664
1644174331.174726,-0.008911,0.009277,-0.991089,0.144519,0.478168,0.036947,55,276,569,5664
1644174331.223088,-0.011292,0.007568,-0.992065,0.251389,0.447634,-0.314198,54,277,568,5760
1644174331.27148,-0.009155,0.009583,-0.989868,0.144519,0.493435,0.067481,53,276,573,5696
1644174331.319869,-0.011292,0.011169,-0.989685,0.266656,0.371298,-0.054656,52,273,579,5712
1644174331.368254,-0.008545,0.01001,-0.992981,0.266656,0.401832,0.098015,51,274,573,5760
1644174331.41665,-0.008728,0.008484,-0.994629,0.327725,0.523969,-0.176794,48,266,578,5648
1644174331.465071,-0.010559,0.011047,-0.991089,0.159786,0.447634,-0.130992,42,275,577,5696
1644174331.513432,-0.007385,0.013367,-0.991882,0.175053,0.340763,-0.130992,55,269,578,5728
1644174331.561908,-0.008606,0.009521,-0.988342,0.08345,0.294962,-0.14626,51,276,569,5760
1644174331.610992,-0.011353,0.012878,-0.993225,0.220855,0.432366,-0.14626,54,273,579,5760
1644174331.661317,-0.010559,0.01062,-0.991638,0.175053,0.386565,-0.008855,52,265,586,5664
1644174331.711279,-0.008667,0.00769,-0.990173,0.220855,0.356031,0.021679,45,277,568,5728
1644174331.756621,-0.011108,0.010376,-0.990112,0.342992,0.585038,-0.268397,48,269,566,5696
1644174331.852435,-0.009338,0.006897,-0.992126,0.388794,0.401832,-0.130992,47,275,575,5696
1644174331.900583,-0.010315,0.011719,-0.990662,0.144519,0.462901,-0.100458,53,279,576,5760
1644174331.948971,-0.009155,0.010315,-0.988892,0.266656,0.371298,-0.054656,41,271,571,5728
1644174331.997376,-0.010742,0.006836,-0.991089,0.312458,0.417099,-0.115725,47,275,584,5728
1644174332.057979,-0.013184,0.010742,-0.99054,0.312458,0.340763,-0.207328,46,283,576,5760
1644174332.097712,-0.010864,0.010986,-0.991638,0.251389,0.432366,-0.039389,47,273,577,5696
1644174332.142482,-0.009155,0.009949,-0.991577,0.190321,0.325496,-0.176794,48,274,580,5696
1644174332.190904,-0.010559,0.006714,-0.993835,0.144519,0.401832,-0.069924,46,279,573,5664
1644174332.239297,-0.011597,0.01123,-0.991638,0.205588,0.188092,-0.054656,53,271,578,5808
1644174332.287672,-0.009155,0.010681,-0.993469,0.190321,0.340763,-0.222595,52,273,584,5648
1644174332.336046,-0.008606,0.011536,-0.991028,0.113985,0.493435,-0.161527,46,271,580,5696
1644174332.384471,-0.013184,0.012268,-0.993286,0.236122,0.356031,0.113282,58,276,569,5728
1644174332.432842,-0.007751,0.010681,-0.993469,0.266656,0.508702,-0.192061,52,280,582,5696
1644174332.481219,-0.009827,0.010376,-0.989746,0.159786,0.462901,-0.130992,48,271,571,5712
1644174332.529637,-0.011108,0.006348,-0.991028,0.236122,0.386565,-0.069924,53,276,580,5808
1644174332.578028,-0.00769,0.010498,-0.994751,0.190321,0.432366,-0.069924,51,279,583,5808
1644174332.626423,-0.010681,0.009033,-0.991394,0.175053,0.401832,0.006412,48,283,573,5712
1644174332.675131,-0.010376,0.008789,-0.992493,0.327725,0.294962,0.006412,51,264,573,5760
1644174332.725621,-0.01178,0.00946,-0.990051,0.098718,0.294962,-0.130992,51,276,576,5696
1644174332.775978,-0.010498,0.010315,-0.993164,0.236122,0.554504,-0.115725,52,275,575,5696
1644174332.820831,-0.009827,0.010986,-0.991943,0.281924,0.325496,-0.207328,47,275,572,5696
1644174332.916783,-0.00824,0.008484,-0.993591,0.251389,0.493435,-0.14626,52,273,572,5776
1644174332.965413,-0.008362,0.008606,-0.992432,0.281924,0.508702,-0.192061,52,275,579,5712
1644174333.01358,-0.011597,0.007568,-0.993408,0.236122,0.478168,0.12855,52,285,572,5664
1644174333.068421,-0.008545,0.009766,-0.99292,0.342992,0.447634,-0.115725,48,276,578,5712
1644174333.110324,-0.006714,0.011597,-0.991089,0.266656,0.371298,-0.039389,45,275,575,5696
1644174333.158715,-0.010742,0.010376,-0.990112,0.190321,0.386565,-0.130992,52,275,572,5696
1644174333.207101,-0.014099,0.011475,-0.991516,0.159786,0.386565,-0.176794,55,276,566,5776
1644174333.255482,-0.00946,0.007446,-0.990906,0.175053,0.539237,-0.085191,42,275,575,5728
1644174333.303907,-0.011597,0.011414,-0.994141,0.08345,0.24916,-0.069924,42,280,582,5696
1644174333.352335,-0.011902,0.010376,-0.996094,0.327725,0.356031,-0.161527,46,269,578,5696
1644174333.400665,-0.010864,0.010254,-0.990967,0.251389,0.447634,-0.161527,52,282,582,5728
1644174333.449051,-0.011108,0.007446,-0.990112,0.190321,0.615573,-0.130992,46,279,578,5712
1644174333.498351,-0.009216,0.00824,-0.992432,0.190321,0.386565,-0.176794,45,277,568,5696
1644174333.545842,-0.010254,0.008362,-0.993408,0.144519,0.462901,-0.054656,57,273,575,5760
1644174333.594237,-0.011719,0.01062,-0.99054,0.312458,0.447634,-0.054656,53,274,578,5696
1644174333.642635,-0.009949,0.01062,-0.991516,0.159786,0.310229,-0.115725,57,285,570,5728
1644174333.691011,-0.010254,0.010254,-0.990906,0.281924,0.386565,-0.069924,46,279,585,5664
1644174333.7394,-0.011475,0.011597,-0.991638,0.266656,0.325496,0.006412,45,277,572,5728
1644174333.787815,-0.010437,0.011414,-0.995911,0.190321,0.417099,0.052214,54,277,577,5728
1644174333.837548,-0.009094,0.00946,-0.992615,0.373527,0.569771,-0.100458,51,274,576,5728
1644174333.887882,-0.011475,0.008179,-0.987122,0.266656,0.386565,0.021679,45,268,577,5664
1644174333.938332,-0.009583,0.008301,-0.991821,0.113985,0.447634,-0.176794,51,274,576,5712
1644174333.982804,-0.012024,0.008179,-0.992981,0.037649,0.371298,-0.161527,46,276,578,5776
1644174334.07901,-0.009399,0.010071,-0.992676,0.190321,0.493435,-0.130992,64,275,577,5664
1644174334.126563,-0.009888,0.011475,-0.99115,0.159786,0.447634,-0.14626,52,275,575,5696
1644174334.174933,-0.012939,0.011292,-0.991394,0.373527,0.493435,-0.14626,53,269,569,5696
1644174334.22332,-0.007996,0.007568,-0.992126,0.266656,0.432366,-0.054656,53,271,578,5696
1644174334.271695,-0.009705,0.009583,-0.991516,0.052916,0.539237,-0.100458,43,283,569,5696
1644174334.320091,-0.008301,0.01062,-0.991211,0.297191,0.447634,0.021679,47,268,579,5632
1644174334.368488,-0.012634,0.009888,-0.99176,0.266656,0.417099,-0.161527,46,274,576,5728
1644174334.416883,-0.012695,0.009277,-0.995117,0.175053,0.462901,0.052214,54,277,577,5696
1644174334.465288,-0.011108,0.011108,-0.993408,0.220855,0.386565,-0.054656,52,270,575,5712
1644174334.513656,-0.008606,0.008057,-0.991699,0.327725,0.279695,-0.024122,43,276,580,5760
1644174334.562056,-0.013306,0.008972,-0.991577,0.236122,0.294962,-0.176794,42,268,575,5696
1644174334.610439,-0.011963,0.007935,-0.989563,0.205588,0.325496,-0.069924,54,275,582,5760
1644174334.658801,-0.00885,0.00946,-0.994263,0.08345,0.325496,-0.283664,43,279,583,5760
1644174334.707222,-0.011963,0.008789,-0.990417,0.205588,0.356031,-0.176794,46,281,571,5648
1644174334.755594,-0.009888,0.007812,-0.991882,0.236122,0.569771,-0.008855,41,271,578,5648
1644174334.803982,-0.007507,0.008667,-0.991577,0.312458,0.508702,0.006412,47,287,586,5712
1644174334.852441,-0.009949,0.007874,-0.993469,0.144519,0.508702,-0.085191,61,280,582,5664
1644174334.900834,-0.012817,0.009949,-0.992737,0.312458,0.279695,-0.054656,52,282,575,5696
1644174334.94987,-0.007812,0.008789,-0.990295,0.327725,0.615573,-0.298931,51,276,578,5696
1644174335.000258,-0.009705,0.008057,-0.990479,0.037649,0.188092,-0.14626,49,282,582,5728
1644174335.072348,-0.007507,0.01239,-0.99353,0.220855,0.478168,0.006412,54,287,579,5648
1644174335.100443,-0.00946,0.007874,-0.991943,0.175053,0.386565,-0.085191,42,268,575,5728
1644174335.191139,-0.010742,0.010193,-0.989685,0.205588,0.356031,-0.024122,52,275,579,5696
1644174335.239524,-0.007019,0.008789,-0.990906,0.236122,0.447634,-0.069924,53,274,573,5664
1644174335.287883,-0.010986,0.009766,-0.990906,0.281924,0.340763,-0.069924,53,279,578,5728
1644174335.336281,-0.009277,0.008972,-0.992493,0.327725,0.417099,-0.024122,41,279,583,5760
1644174335.384861,-0.007812,0.008484,-0.994507,0.220855,0.508702,-0.237863,59,268,568,5712
1644174335.433108,-0.011047,0.007324,-0.992432,0.144519,0.493435,-0.237863,52,275,572,5664
1644174335.481483,-0.009644,0.009583,-0.992249,0.327725,0.554504,-0.161527,48,276,571,5728
1644174335.52986,-0.01062,0.008362,-0.991699,0.175053,0.356031,-0.085191,48,279,578,5696
1644174335.578272,-0.007874,0.010437,-0.991699,0.190321,0.264427,-0.176794,49,273,568,5696
1644174335.626643,-0.007812,0.009583,-0.991333,0.205588,0.340763,-0.054656,54,275,577,5712
1644174335.67516,-0.008545,0.009399,-0.992859,0.35826,0.386565,-0.085191,47,273,570,5648
1644174335.72342,-0.01001,0.010071,-0.992676,0.129252,0.432366,0.067481,49,270,582,5728
1644174335.771816,-0.012512,0.007446,-0.993652,0.236122,0.188092,-0.085191,47,280,579,5760
1644174335.820203,-0.009583,0.009399,-0.99176,0.312458,0.447634,-0.115725,45,268,577,5696
1644174335.868648,-0.010986,0.009766,-0.989136,0.220855,0.401832,-0.085191,47,280,563,5696
1644174335.917003,-0.010803,0.008057,-0.992615,0.236122,0.508702,-0.039389,52,270,572,5664
1644174335.965426,-0.008484,0.007874,-0.990112,0.266656,0.478168,-0.161527,42,277,570,5760
1644174336.01387,-0.010986,0.011719,-0.992432,0.327725,0.462901,-0.115725,47,275,586,5728
1644174336.111211,-0.009949,0.007568,-0.989807,0.220855,0.417099,-0.069924,53,271,585,5760
1644174336.158969,-0.010437,0.008057,-0.991333,0.129252,0.432366,0.082748,45,275,570,5696
1644174336.20733,-0.010742,0.010376,-0.990906,0.297191,0.523969,-0.115725,48,266,587,5728
1644174336.255726,-0.007141,0.008667,-0.993469,0.342992,0.401832,-0.115725,51,279,569,5760
1644174336.304121,-0.009949,0.011475,-0.992065,0.205588,0.294962,-0.024122,52,275,579,5696
1644174336.352522,-0.010315,0.009216,-0.990234,0.266656,0.325496,-0.100458,48,281,571,5664
1644174336.400904,-0.011475,0.009521,-0.992249,0.220855,0.539237,-0.192061,51,276,576,5776
1644174336.449299,-0.011902,0.010681,-0.991577,0.175053,0.310229,-0.207328,51,279,578,5648
1644174336.497689,-0.010498,0.005676,-0.991882,0.297191,0.325496,-0.100458,55,274,578,5712
1644174336.54604,-0.009644,0.012634,-0.992065,0.342992,0.386565,-0.039389,46,276,566,5696
1644174336.594484,-0.010193,0.006409,-0.990723,0.144519,0.386565,-0.024122,47,273,577,5776
1644174336.642868,-0.011047,0.008972,-0.991821,0.297191,0.386565,-0.008855,43,264,580,5696
1644174336.691244,-0.008728,0.012817,-0.994202,0.159786,0.356031,-0.100458,65,281,573,5760
1644174336.739848,-0.009705,0.009338,-0.99353,0.373527,0.401832,-0.085191,49,285,575,5712
1644174336.788055,-0.010193,0.008972,-0.992859,0.144519,0.554504,-0.222595,47,268,575,5664
1644174336.837912,-0.011902,0.008118,-0.99292,0.052916,0.401832,-0.207328,61,275,572,5664
1644174336.888909,-0.008606,0.008667,-0.992798,0.159786,0.310229,-0.039389,49,270,582,5760
1644174336.933674,-0.009399,0.007996,-0.992371,0.404061,0.356031,-0.100458,41,281,569,5648
1644174337.030012,-0.012634,0.009766,-0.993164,0.175053,0.264427,-0.024122,47,265,575,5760
1644174337.081355,-0.012207,0.009705,-0.995178,0.190321,0.493435,-0.085191,47,280,582,5760
1644174337.126751,-0.009888,0.011597,-0.993652,0.129252,0.417099,-0.085191,60,286,573,5760
1644174337.175229,-0.013428,0.007385,-0.993958,0.236122,0.386565,-0.085191,53,271,569,5760
1644174337.223536,-0.01178,0.007324,-0.995605,0.312458,0.432366,-0.130992,52,285,572,5712
1644174337.271903,-0.011719,0.009888,-0.99176,0.236122,0.432366,0.036947,54,270,575,5760
1644174337.320327,-0.012756,0.007324,-0.995056,0.175053,0.478168,-0.085191,57,277,579,5696
1644174337.368725,-0.010437,0.008545,-0.991882,0.373527,0.462901,-0.222595,66,268,586,5712
1644174337.417119,-0.010803,0.00885,-0.992126,0.266656,0.386565,-0.222595,51,279,571,5760
1644174337.465497,-0.010376,0.010193,-0.992981,0.190321,0.569771,-0.192061,39,274,578,5712
1644174337.513877,-0.014343,0.010315,-0.993958,0.297191,0.371298,-0.054656,54,270,586,5696
1644174337.562303,-0.01239,0.009644,-0.994202,0.251389,0.264427,-0.14626,55,276,576,5712
1644174337.610694,-0.008301,0.008911,-0.994141,0.404061,0.462901,0.021679,52,260,586,5776
1644174337.65908,-0.008667,0.012024,-0.989624,0.266656,0.386565,-0.115725,48,271,580,5696
1644174337.707431,-0.009216,0.012512,-0.990784,0.297191,0.401832,-0.008855,57,275,582,5728
1644174337.755812,-0.011963,0.007996,-0.993713,0.175053,0.478168,-0.054656,52,277,584,5808
1644174337.804512,-0.00946,0.007996,-0.991516,0.281924,0.401832,-0.314198,58,271,576,5776
1644174337.854553,-0.013245,0.006897,-0.993103,0.373527,0.325496,-0.176794,49,277,572,5760
1644174337.905532,-0.012085,0.008301,-0.989746,0.327725,0.432366,-0.176794,51,274,578,5776
1644174337.954876,-0.009705,0.006653,-0.993408,0.113985,0.432366,-0.115725,58,269,566,5664
1644174337.999503,-0.010071,0.007935,-0.993591,0.190321,0.371298,-0.069924,52,270,575,5696
1644174338.094875,-0.010254,0.009033,-0.991882,0.373527,0.508702,-0.161527,49,275,582,5728
1644174338.142985,-0.007568,0.008118,-0.990417,0.327725,0.325496,-0.054656,49,285,579,5696
1644174338.191342,-0.011353,0.009949,-0.992493,0.281924,0.264427,-0.176794,43,276,564,5712
1644174338.239735,-0.010437,0.008423,-0.991455,0.342992,0.462901,-0.054656,52,277,572,5712
1644174338.288138,-0.006897,0.011963,-0.990295,0.251389,0.371298,-0.115725,54,280,570,5712
1644174338.336541,-0.011047,0.010864,-0.992798,0.251389,0.371298,0.006412,55,279,576,5760
1644174338.384912,-0.010498,0.00769,-0.994324,0.312458,0.356031,-0.192061,47,268,579,5696
1644174338.43332,-0.010986,0.008362,-0.994324,0.159786,0.340763,-0.237863,53,269,573,5776
1644174338.481707,-0.010742,0.008789,-0.99054,0.175053,0.325496,-0.085191,55,283,576,5808
1644174338.530099,-0.010254,0.010376,-0.990479,0.129252,0.432366,-0.024122,51,271,571,5760
1644174338.578504,-0.008606,0.006592,-0.991821,0.175053,0.386565,-0.14626,55,281,580,5808
1644174338.626876,-0.008972,0.010132,-0.994019,0.052916,0.356031,-0.115725,45,270,570,5760
1644174338.675293,-0.010986,0.007019,-0.99292,0.327725,0.264427,-0.115725,54,273,577,5760
1644174338.723662,-0.012024,0.008911,-0.990723,0.190321,0.294962,-0.100458,47,270,579,5712
1644174338.772054,-0.008118,0.011169,-0.990662,0.220855,0.325496,-0.176794,52,280,575,5696
1644174338.82048,-0.010071,0.007629,-0.992554,0.35826,0.417099,0.006412,53,279,583,5728
1644174338.868868,-0.011047,0.008972,-0.990845,0.404061,0.508702,-0.176794,58,271,578,5664
1644174338.917623,-0.009583,0.009216,-0.992737,0.236122,0.401832,-0.115725,52,273,579,5760
1644174338.965688,-0.009583,0.009277,-0.993103,0.205588,0.386565,-0.085191,57,275,577,5760
1644174339.068793,-0.01062,0.009644,-0.991394,0.251389,0.401832,-0.085191,48,274,592,5728
1644174339.110811,-0.010132,0.008667,-0.987976,0.373527,0.294962,-0.192061,51,276,578,5664
1644174339.15916,-0.010925,0.010193,-0.989197,0.113985,0.432366,-0.054656,42,282,577,5728
1644174339.207561,-0.008057,0.010559,-0.989624,0.144519,0.218626,0.036947,47,282,582,5696
1644174339.255925,-0.010193,0.010803,-0.992126,0.266656,0.447634,-0.054656,47,282,579,5648
1644174339.304355,-0.012573,0.011841,-0.993286,0.190321,0.294962,0.021679,47,268,570,5664
1644174339.352751,-0.014038,0.008057,-0.990723,0.144519,0.310229,-0.100458,53,281,578,5664
1644174339.401109,-0.008484,0.008362,-0.991699,0.205588,0.386565,-0.14626,41,279,573,5696
1644174339.449519,-0.010864,0.008667,-0.992554,0.281924,0.325496,0.006412,43,269,569,5728
1644174339.49791,-0.011658,0.010132,-0.989685,0.266656,0.432366,0.036947,40,285,572,5760
1644174339.546303,-0.008301,0.006897,-0.993835,0.281924,0.432366,-0.024122,45,282,568,5712
1644174339.594702,-0.009277,0.008545,-0.993103,0.35826,0.417099,-0.130992,47,275,570,5696
1644174339.64309,-0.010376,0.010437,-0.991577,0.205588,0.325496,-0.069924,49,268,570,5648
1644174339.691438,-0.011475,0.00708,-0.992554,0.113985,0.386565,0.052214,47,277,577,5776
1644174339.739852,-0.010803,0.010437,-0.992126,0.08345,0.24916,0.12855,43,264,573,5696
1644174339.788291,-0.011108,0.00885,-0.99176,0.098718,0.340763,-0.024122,54,265,568,5696
1644174339.837489,-0.009338,0.00824,-0.990479,0.312458,0.462901,-0.237863,45,270,579,5712
1644174339.888463,-0.010071,0.009521,-0.989136,0.266656,0.417099,-0.039389,60,266,571,5728
1644174339.939083,-0.012146,0.008057,-0.995178,0.159786,0.417099,-0.130992,45,275,577,5776
1644174339.983229,-0.010864,0.010864,-0.990723,0.159786,0.523969,0.006412,51,271,573,5664
1644174340.078669,-0.009216,0.009888,-0.993347,0.052916,0.432366,-0.085191,55,271,571,5696
1644174340.127027,-0.010071,0.01062,-0.992249,0.281924,0.356031,-0.024122,49,277,570,5696
1644174340.175388,-0.012756,0.007568,-0.991272,0.175053,0.417099,-0.100458,48,291,578,5712
1644174340.22377,-0.011169,0.006836,-0.992188,0.129252,0.386565,0.021679,49,282,575,5712
1644174340.272374,-0.01123,0.011597,-0.989807,0.297191,0.554504,-0.008855,53,283,580,5728
1644174340.32055,-0.012573,0.008728,-0.991943,0.144519,0.356031,-0.161527,53,271,578,5728
1644174340.368941,-0.009949,0.007935,-0.991028,0.190321,0.539237,-0.039389,53,281,578,5760
1644174340.417347,-0.010437,0.008545,-0.994568,0.297191,0.371298,-0.039389,47,280,572,5664
1644174340.465729,-0.009155,0.012024,-0.992065,0.129252,0.294962,0.036947,45,275,586,5664
1644174340.514112,-0.009827,0.006897,-0.990662,0.266656,0.325496,-0.069924,51,279,583,5760
1644174340.562527,-0.011047,0.007568,-0.992981,0.419328,0.401832,-0.25313,48,276,571,5664
1644174340.6109,-0.009155,0.010986,-0.989685,0.205588,0.401832,-0.100458,47,268,563,5648
1644174340.659284,-0.007019,0.008667,-0.99176,0.190321,0.447634,-0.054656,54,273,575,5696
1644174340.707675,-0.008728,0.008545,-0.990845,0.35826,0.478168,-0.054656,52,277,586,5824
1644174340.756048,-0.009521,0.010742,-0.99292,0.266656,0.233893,0.006412,40,280,575,5696
1644174340.804465,-0.014099,0.006531,-0.992432,0.175053,0.432366,-0.100458,42,280,575,5760
1644174340.852921,-0.009216,0.010986,-0.993042,0.281924,0.478168,-0.054656,46,266,587,5696
1644174340.90128,-0.013428,0.008606,-0.990906,0.327725,0.386565,-0.100458,45,275,579,5696
1644174340.949713,-0.009705,0.008911,-0.992432,0.190321,0.401832,-0.039389,51,276,576,5760
1644174340.999135,-0.009583,0.008118,-0.990723,0.342992,0.386565,-0.069924,51,262,578,5760
1644174341.065788,-0.012329,0.00946,-0.992737,0.388794,0.523969,-0.100458,42,280,582,5760
1644174341.096927,-0.011841,0.009155,-0.992432,0.327725,0.508702,-0.054656,51,283,580,5712
1644174341.191567,-0.01062,0.010315,-0.990845,0.281924,0.462901,-0.054656,46,271,566,5696
1644174341.239978,-0.011353,0.010132,-0.991028,0.251389,0.478168,-0.222595,53,279,573,5776
1644174341.288336,-0.009277,0.008667,-0.991882,0.297191,0.462901,-0.14626,47,265,577,5648
1644174341.336994,-0.009216,0.011658,-0.993774,0.251389,0.401832,-0.130992,51,281,569,5760
1644174341.385173,-0.011475,0.009827,-0.991089,0.251389,0.310229,-0.115725,49,273,570,5712
1644174341.433529,-0.008667,0.00647,-0.99469,0.205588,0.218626,-0.130992,58,276,569,5728
1644174341.481945,-0.009644,0.007874,-0.990417,0.342992,0.386565,-0.14626,64,270,577,5760
1644174341.530333,-0.010559,0.010498,-0.99115,0.08345,0.401832,-0.085191,51,276,569,5808
1644174341.578696,-0.008728,0.011841,-0.994568,0.08345,0.462901,-0.069924,39,276,564,5712
1644174341.62711,-0.008423,0.011047,-0.992371,0.129252,0.462901,-0.100458,57,290,575,5760
1644174341.675491,-0.010193,0.010132,-0.992065,0.342992,0.462901,0.052214,46,271,576,5760
1644174341.723902,-0.011292,0.012451,-0.990784,0.205588,0.539237,0.052214,48,276,578,5712
1644174341.772291,-0.012207,0.007874,-0.992676,0.35826,0.432366,0.006412,53,269,590,5712
1644174341.820681,-0.011536,0.010437,-0.992493,0.190321,0.417099,-0.069924,52,268,577,5712
1644174341.869112,-0.009827,0.00885,-0.992798,0.205588,0.493435,0.021679,54,265,579,5664
1644174341.917499,-0.010132,0.00769,-0.98822,0.113985,0.432366,0.021679,49,273,575,5712
1644174341.965878,-0.00946,0.005127,-0.988647,0.404061,0.325496,-0.069924,55,271,573,5760
1644174342.014674,-0.010498,0.011658,-0.992188,0.266656,0.63084,-0.024122,47,277,584,5728
1644174342.093314,-0.009216,0.010437,-0.988708,0.236122,0.447634,-0.100458,59,263,579,5712
1644174342.161398,-0.009094,0.009094,-0.99231,0.312458,0.478168,-0.039389,57,282,572,5664
1644174342.20777,-0.011414,0.010254,-0.994446,0.205588,0.432366,-0.268397,38,270,579,5664
1644174342.256164,-0.010498,0.01001,-0.992432,0.297191,0.447634,-0.069924,47,285,579,5728
1644174342.304618,-0.011047,0.010193,-0.99115,0.327725,0.569771,0.052214,46,281,569,5664
1644174342.352988,-0.008423,0.00946,-0.991821,0.236122,0.401832,-0.039389,42,275,563,5760
1644174342.401353,-0.012024,0.008789,-0.990173,0.190321,0.356031,0.098015,51,276,580,5712
1644174342.449728,-0.010132,0.008972,-0.993347,0.205588,0.340763,0.006412,49,270,577,5712
1644174342.498118,-0.012939,0.008301,-0.990845,0.190321,0.417099,-0.14626,60,264,578,5808
1644174342.54653,-0.009338,0.011414,-0.992249,0.175053,0.462901,-0.25313,45,277,577,5696
1644174342.594936,-0.008606,0.006958,-0.990967,0.281924,0.340763,0.006412,52,275,579,5696
1644174342.643287,-0.009888,0.011963,-0.992004,0.159786,0.386565,-0.069924,59,277,565,5696
1644174342.69171,-0.010742,0.011353,-0.989563,0.190321,0.356031,-0.14626,45,277,568,5776
1644174342.740144,-0.012146,0.010315,-0.99231,0.281924,0.386565,-0.130992,48,271,578,5696
1644174342.788487,-0.008789,0.008606,-0.993042,0.251389,0.371298,0.006412,58,271,573,5696
1644174342.836878,-0.009949,0.008606,-0.990601,0.220855,0.386565,-0.085191,54,282,575,5728
1644174342.885313,-0.010376,0.009155,-0.990784,0.220855,0.523969,-0.100458,51,279,580,5728
1644174342.934171,-0.014282,0.011353,-0.991821,0.35826,0.356031,-0.069924,51,281,585,5760
1644174342.982156,-0.010559,0.008545,-0.99231,0.297191,0.417099,-0.100458,41,279,578,5728
1644174343.032346,-0.008667,0.009705,-0.993591,0.205588,0.401832,-0.130992,46,283,566,5728
1644174343.094563,-0.009155,0.009521,-0.990967,0.175053,0.432366,-0.161527,48,279,583,5728
1644174343.132902,-0.011536,0.010071,-0.99408,0.266656,0.478168,-0.008855,53,279,573,5776
1644174343.177471,-0.009766,0.009705,-0.99231,0.220855,0.279695,-0.069924,45,275,572,5696
1644174343.272479,-0.009888,0.009888,-0.992004,0.35826,0.462901,-0.25313,54,270,570,5712
1644174343.321267,-0.009827,0.009033,-0.993103,0.266656,0.417099,-0.222595,47,265,584,5648
1644174343.369176,-0.010315,0.010437,-0.989563,0.159786,0.310229,-0.085191,49,268,575,5712
1644174343.417603,-0.010559,0.01001,-0.991455,0.220855,0.401832,-0.100458,41,279,580,5728
1644174343.46599,-0.010071,0.009888,-0.992493,-0.053954,0.401832,-0.25313,59,280,579,5712
1644174343.5144,-0.011841,0.009094,-0.992065,0.08345,0.310229,-0.207328,53,276,578,5728
1644174343.562788,-0.010193,0.008484,-0.991211,0.388794,0.417099,-0.039389,51,274,576,5776
1644174343.611166,-0.007874,0.009155,-0.993408,0.129252,0.417099,0.021679,46,279,578,5696
1644174343.659561,-0.009644,0.010254,-0.993469,0.312458,0.539237,-0.130992,52,265,572,5696
1644174343.707962,-0.009766,0.00885,-0.994263,0.312458,0.310229,-0.115725,53,271,576,5712
1644174343.756345,-0.00824,0.011108,-0.99176,0.281924,0.371298,-0.115725,54,273,575,5696
1644174343.804742,-0.009521,0.009766,-0.992737,0.297191,0.386565,0.052214,47,273,577,5728
1644174343.853143,-0.013489,0.008301,-0.991272,0.266656,0.218626,0.082748,54,270,584,5760
1644174343.901486,-0.008789,0.009094,-0.991394,0.144519,0.356031,-0.008855,53,283,576,5664
1644174343.949902,-0.009521,0.007812,-0.992676,0.281924,0.294962,-0.039389,46,274,578,5808
1644174343.99829,-0.010376,0.006531,-0.99054,0.327725,0.447634,-0.085191,45,277,572,5712
1644174344.065766,-0.009888,0.008484,-0.992188,0.190321,0.432366,0.052214,55,281,578,5664
1644174344.100428,-0.009766,0.009155,-0.990662,0.144519,0.432366,-0.100458,42,273,579,5712
1644174344.144012,-0.008972,0.010193,-0.990417,0.175053,0.401832,0.021679,45,282,575,5712
1644174344.19443,-0.010071,0.011108,-0.993713,0.251389,0.386565,-0.039389,52,280,589,5664
1644174344.244529,-0.008057,0.008545,-0.992004,0.068183,0.371298,-0.222595,60,264,571,5760
1644174344.289572,-0.010986,0.00769,-0.991028,0.251389,0.401832,-0.069924,57,273,579,5712
1644174344.38544,-0.011414,0.010681,-0.990479,0.037649,0.401832,-0.207328,41,276,569,5664
1644174344.43378,-0.009216,0.00824,-0.993774,0.159786,0.493435,-0.14626,49,273,579,5760
1644174344.482382,-0.011353,0.009644,-0.990112,0.205588,0.447634,-0.085191,45,282,570,5712
1644174344.530521,-0.006531,0.008545,-0.991455,0.342992,0.340763,-0.054656,57,282,575,5696
1644174344.578931,-0.011169,0.01123,-0.992065,0.281924,0.462901,0.036947,36,279,573,5696
1644174344.627329,-0.011963,0.007385,-0.990967,0.266656,0.447634,-0.039389,51,271,578,5664
1644174344.675721,-0.010193,0.008972,-0.992126,0.281924,0.478168,-0.329466,45,277,577,5728
1644174344.724125,-0.010925,0.008972,-0.992188,0.327725,0.447634,-0.207328,47,268,582,5728
1644174344.772527,-0.009583,0.013245,-0.987671,0.404061,0.417099,-0.237863,51,276,578,5664
1644174344.820944,-0.01123,0.009399,-0.988831,0.312458,0.432366,-0.130992,47,277,572,5728
1644174344.869322,-0.010681,0.009583,-0.993347,0.159786,0.356031,0.052214,45,275,572,5728
1644174344.917741,-0.009216,0.008789,-0.989624,0.205588,0.386565,-0.024122,60,276,576,5664
1644174344.96611,-0.008972,0.008301,-0.991699,0.205588,0.371298,-0.176794,57,285,579,5712
1644174345.014495,-0.010071,0.00708,-0.993469,0.281924,0.493435,-0.008855,46,281,569,5696
1644174345.070635,-0.013245,0.008301,-0.993408,0.190321,0.401832,-0.054656,46,269,578,5696
1644174345.114944,-0.009888,0.008972,-0.989807,0.266656,0.386565,-0.085191,46,283,576,5696
1644174345.15963,-0.008118,0.012329,-0.99115,0.35826,0.417099,-0.207328,49,277,586,5728
1644174345.208021,-0.011597,0.009338,-0.992676,0.098718,0.462901,-0.085191,52,265,575,5712
1644174345.256418,-0.006409,0.012024,-0.991455,0.266656,0.447634,-0.100458,42,273,579,5728
1644174345.307843,-0.010986,0.007629,-0.991333,0.144519,0.325496,0.006412,46,276,583,5760
1644174345.355512,-0.009583,0.006409,-0.993164,0.342992,0.386565,-0.25313,43,276,573,5696
1644174345.406522,-0.010681,0.008057,-0.99054,0.175053,0.676641,0.036947,42,277,577,5696
1644174345.450707,-0.010986,0.009583,-0.992432,0.266656,0.432366,-0.192061,53,271,580,5728
1644174345.546737,-0.010742,0.010193,-0.99353,0.022382,0.478168,-0.176794,49,275,579,5728
1644174345.595348,-0.011414,0.011963,-0.993469,0.236122,0.401832,0.036947,52,273,584,5696
1644174345.643539,-0.008362,0.010376,-0.993408,0.236122,0.401832,-0.192061,55,276,566,5712
1644174345.691923,-0.008606,0.008972,-0.990662,0.449863,0.447634,-0.100458,57,275,575,5696
1644174345.740316,-0.009277,0.008118,-0.989441,0.190321,0.188092,-0.008855,55,271,578,5728
1644174345.788684,-0.007507,0.009094,-0.991882,0.266656,0.462901,-0.054656,54,275,579,5696
1644174345.837143,-0.012207,0.008789,-0.993469,0.175053,0.478168,-0.130992,41,274,573,5696
1644174345.885537,-0.010437,0.006042,-0.993408,0.068183,0.401832,-0.085191,47,285,568,5760
1644174345.933951,-0.011353,0.009644,-0.991211,0.342992,0.493435,-0.130992,45,273,572,5760
1644174345.982307,-0.009583,0.011108,-0.991333,0.35826,0.218626,-0.237863,45,280,575,5696
1644174346.030671,-0.010071,0.010376,-0.991272,0.266656,0.371298,-0.161527,46,279,564,5760
1644174346.09117,-0.009216,0.010681,-0.989929,0.434595,0.325496,0.036947,54,285,586,5696
1644174346.127461,-0.011719,0.01062,-0.992188,0.113985,0.478168,-0.314198,46,276,562,5712
1644174346.175831,-0.009399,0.012695,-0.991455,0.190321,0.371298,-0.085191,61,268,586,5760
1644174346.224611,-0.011841,0.009338,-0.99231,0.175053,0.478168,0.067481,42,277,584,5696
1644174346.273514,-0.011719,0.011353,-0.990723,0.236122,0.340763,0.082748,48,269,578,5712
1644174346.324156,-0.010071,0.007812,-0.992615,0.327725,0.417099,-0.192061,49,268,582,5728
1644174346.374311,-0.010925,0.008301,-0.990051,0.129252,0.401832,-0.024122,48,283,576,5728
1644174346.466199,-0.010498,0.006775,-0.991699,0.312458,0.554504,-0.069924,51,274,576,5728
1644174346.514819,-0.01062,0.009888,-0.990662,0.281924,0.447634,-0.14626,55,274,576,5664
1644174346.562978,-0.011902,0.008789,-0.991516,0.266656,0.203359,-0.115725,47,270,584,5712
1644174346.611349,-0.011414,0.008606,-0.991821,0.220855,0.447634,0.006412,47,275,577,5728
1644174346.659751,-0.008484,0.010437,-0.989441,0.068183,0.340763,0.006412,55,274,564,5600
1644174346.708184,-0.009644,0.010498,-0.990967,0.190321,0.432366,-0.192061,46,276,576,5776
1644174346.756515,-0.009155,0.011353,-0.993225,0.388794,0.279695,-0.069924,47,273,582,5664
1644174346.804914,-0.011902,0.01001,-0.990906,0.251389,0.340763,0.113282,57,268,575,5712
1644174346.853372,-0.011353,0.009338,-0.991638,0.205588,0.310229,-0.069924,60,274,576,5760
1644174346.901732,-0.010681,0.011719,-0.99292,0.281924,0.493435,0.006412,51,274,571,5712
1644174346.950136,-0.009766,0.008301,-0.989563,0.266656,0.447634,-0.161527,46,269,573,5728
1644174346.99851,-0.011536,0.01239,-0.993225,0.373527,0.340763,-0.192061,53,286,576,5728
1644174347.060665,-0.008118,0.010498,-0.991577,0.327725,0.386565,0.036947,54,273,577,5760
1644174347.096758,-0.012878,0.009033,-0.995117,0.205588,0.371298,-0.069924,54,277,586,5664
1644174347.143638,-0.010193,0.00824,-0.993835,0.190321,0.523969,-0.130992,48,271,585,5728
1644174347.192042,-0.013367,0.010132,-0.992432,0.266656,0.447634,0.006412,55,288,576,5760
1644174347.240435,-0.008118,0.009827,-0.993958,0.297191,0.401832,0.006412,57,275,582,5664
1644174347.289242,-0.009949,0.008545,-0.992432,0.068183,0.432366,-0.161527,45,277,586,5712
1644174347.337196,-0.01123,0.009583,-0.992859,0.129252,0.386565,-0.039389,42,282,577,5760
1644174347.385989,-0.012085,0.009766,-0.99176,0.281924,0.447634,-0.100458,52,277,565,5808
1644174347.436233,-0.006104,0.010559,-0.992615,0.205588,0.462901,-0.024122,48,279,578,5696
1644174347.486454,-0.011475,0.010132,-0.993591,0.281924,0.523969,0.021679,42,280,568,5728
1644174347.531539,-0.010376,0.010193,-0.993225,0.220855,0.523969,-0.298931,51,276,578,5696
1644174347.627552,-0.011536,0.012024,-0.989929,0.342992,0.478168,-0.039389,49,285,565,5760
1644174347.67593,-0.009949,0.007202,-0.993958,0.251389,0.386565,-0.085191,48,281,576,5808
1644174347.724342,-0.010803,0.007202,-0.99176,0.190321,0.340763,0.113282,58,271,571,5760
1644174347.772752,-0.006836,0.008484,-0.993652,0.190321,0.401832,-0.054656,47,285,579,5696
1644174347.821118,-0.00885,0.008362,-0.989319,0.175053,0.371298,0.098015,55,283,564,5664
1644174347.869564,-0.011841,0.006226,-0.993774,0.205588,0.371298,-0.115725,48,271,573,5776
1644174347.91794,-0.009399,0.007996,-0.992188,0.449863,0.294962,-0.130992,60,269,571,5664
1644174347.966337,-0.009766,0.010498,-0.992249,0.281924,0.386565,0.052214,54,280,572,5728
1644174348.014741,-0.007874,0.010803,-0.992981,0.205588,0.386565,0.036947,54,280,570,5728
1644174348.067307,-0.008728,0.01123,-0.989685,0.281924,0.188092,-0.069924,43,274,571,5712
1644174348.111462,-0.006592,0.010498,-0.990845,0.266656,0.356031,0.021679,51,266,587,5696
1644174348.159867,-0.01001,0.008484,-0.991272,0.327725,0.386565,-0.069924,58,264,576,5776
1644174348.208239,-0.010864,0.010071,-0.993164,0.205588,0.508702,0.036947,64,273,579,5728
1644174348.256632,-0.009033,0.012451,-0.992859,0.327725,0.371298,-0.039389,40,277,575,5760
1644174348.305159,-0.010986,0.009277,-0.988342,0.312458,0.432366,-0.024122,51,274,576,5712
1644174348.353423,-0.01123,0.008484,-0.990784,0.35826,0.447634,-0.085191,51,266,571,5696
1644174348.401815,-0.00946,0.011536,-0.995361,0.312458,0.432366,-0.069924,53,288,571,5696
1644174348.450198,-0.012146,0.011414,-0.993286,0.266656,0.386565,-0.069924,59,268,589,5712
1644174348.498585,-0.009827,0.009033,-0.992859,0.175053,0.493435,-0.069924,48,281,571,5664
1644174348.547133,-0.011047,0.009277,-0.990845,0.434595,0.432366,-0.100458,55,279,576,5760
1644174348.597707,-0.010376,0.012451,-0.991943,0.113985,0.432366,-0.100458,48,279,571,5808
1644174348.647892,-0.007812,0.00769,-0.992371,0.266656,0.447634,-0.130992,58,271,566,5760
1644174348.692896,-0.010559,0.006409,-0.993042,0.419328,0.340763,-0.130992,47,282,568,5728
1644174348.788925,-0.008606,0.009277,-0.989258,0.190321,0.447634,0.113282,48,271,576,5664
1644174348.83731,-0.011108,0.008972,-0.991699,0.342992,0.233893,0.021679,53,271,573,5776
1644174348.885756,-0.010681,0.006958,-0.988525,0.190321,0.294962,-0.085191,58,276,578,5696
1644174348.934129,-0.011597,0.009644,-0.992126,0.236122,0.462901,-0.207328,49,285,568,5728
1644174348.982557,-0.009033,0.009155,-0.991272,0.129252,0.294962,-0.085191,52,265,570,5696
1644174349.030938,-0.010681,0.008728,-0.994812,0.327725,0.554504,-0.161527,43,283,576,5712
1644174349.079779,-0.009644,0.009949,-0.993408,0.159786,0.325496,-0.161527,61,277,591,5696
1644174349.127687,-0.012451,0.008118,-0.989624,0.068183,0.493435,-0.130992,53,274,573,5648
1644174349.176078,-0.010864,0.007812,-0.994019,0.175053,0.24916,-0.069924,49,275,568,5760
1644174349.224477,-0.011963,0.008179,-0.992615,0.251389,0.447634,-0.039389,52,282,572,5728
1644174349.272859,-0.010559,0.011658,-0.992126,0.281924,0.508702,-0.085191,55,274,578,5696
1644174349.321217,-0.013062,0.007568,-0.991455,0.297191,0.371298,-0.100458,48,264,569,5664
1644174349.369639,-0.01001,0.00885,-0.990295,0.220855,0.310229,-0.161527,55,271,573,5760
1644174349.418024,-0.009216,0.009583,-0.992004,0.205588,0.371298,-0.054656,52,280,570,5696
1644174349.466407,-0.010132,0.009705,-0.991699,0.220855,0.462901,-0.100458,47,270,568,5712
1644174349.514802,-0.012573,0.008179,-0.992554,0.46513,0.539237,-0.054656,42,280,577,5712
1644174349.563179,-0.009094,0.00946,-0.993713,0.266656,0.371298,-0.222595,60,281,583,5696
1644174349.611581,-0.01062,0.009155,-0.993103,0.022382,0.585038,-0.161527,42,275,582,5728
1644174349.659991,-0.006897,0.010437,-0.993713,0.281924,0.279695,-0.085191,59,285,572,5712
1644174349.708581,-0.011536,0.010315,-0.991089,0.297191,0.523969,-0.115725,54,277,570,5728
1644174349.759097,-0.011169,0.010254,-0.992188,0.281924,0.462901,-0.176794,49,285,577,5728
1644174349.80921,-0.009827,0.008789,-0.991272,0.205588,0.478168,-0.069924,53,274,578,5728
1644174349.854263,-0.009094,0.012085,-0.992737,0.266656,0.356031,-0.085191,51,279,573,5664
1644174349.950354,-0.011047,0.009705,-0.990601,0.190321,0.356031,-0.008855,48,271,569,5712
1644174349.998725,-0.00824,0.008057,-0.994629,0.236122,0.615573,-0.085191,47,287,586,5696
1644174350.061363,-0.006226,0.011292,-0.992249,0.205588,0.188092,-0.100458,51,269,573,5728
1644174350.097815,-0.009766,0.011292,-0.992432,0.159786,0.432366,0.052214,60,266,578,5728
1644174350.143943,-0.008545,0.01001,-0.990173,0.205588,0.417099,-0.161527,48,271,571,5664
1644174350.192316,-0.011414,0.010803,-0.993713,0.190321,0.371298,-0.298931,47,270,584,5760
1644174350.240674,-0.014282,0.009338,-0.99408,0.129252,0.340763,-0.207328,49,270,570,5728
1644174350.289063,-0.010925,0.009338,-0.992249,0.373527,0.417099,0.067481,57,287,575,5696
1644174350.337443,-0.009216,0.008423,-0.992737,0.205588,0.447634,-0.14626,66,277,563,5728
1644174350.385837,-0.01001,0.00946,-0.991943,0.388794,0.340763,-0.085191,45,263,577,5696
1644174350.43422,-0.01001,0.010803,-0.992493,0.159786,0.432366,-0.054656,55,271,576,5664
1644174350.482636,-0.00885,0.011719,-0.992188,0.144519,0.401832,-0.222595,60,266,573,5728
1644174350.531002,-0.010925,0.00824,-0.990906,0.190321,0.508702,-0.100458,59,275,584,5728
1644174350.579441,-0.013245,0.009399,-0.99176,0.175053,0.493435,-0.14626,53,274,571,5696
1644174350.629694,-0.008789,0.011841,-0.988831,0.144519,0.386565,-0.237863,46,271,580,5728
1644174350.680123,-0.008057,0.010193,-0.991028,0.205588,0.493435,-0.054656,47,273,572,5808
1644174350.724862,-0.007996,0.009827,-0.992432,0.190321,0.325496,-0.024122,43,283,573,5712
1644174350.821356,-0.008301,0.011475,-0.990845,0.251389,0.386565,0.006412,43,274,566,5760
1644174350.869734,-0.009705,0.010193,-0.991455,0.190321,0.447634,-0.024122,51,283,571,5712
1644174350.918154,-0.00769,0.01123,-0.990784,0.388794,0.340763,-0.222595,45,280,570,5776
1644174350.966564,-0.008911,0.007751,-0.993347,0.266656,0.493435,-0.039389,58,276,573,5712
1644174351.014935,-0.011902,0.007324,-0.99176,0.251389,0.493435,-0.161527,49,275,579,5712
1644174351.070283,-0.012756,0.011108,-0.992249,0.236122,0.432366,0.021679,49,263,582,5728
1644174351.111694,-0.01001,0.010254,-0.992004,0.144519,0.264427,0.006412,48,274,580,5712
1644174351.160131,-0.010742,0.012451,-0.988098,0.327725,0.325496,-0.085191,46,279,566,5696
1644174351.208531,-0.012024,0.009277,-0.992188,0.327725,0.325496,0.021679,51,281,580,5728
1644174351.256907,-0.011292,0.008484,-0.993286,0.220855,0.493435,-0.085191,54,270,570,5760
1644174351.305325,-0.012756,0.008789,-0.995056,0.159786,0.310229,0.113282,43,276,578,5696
1644174351.353725,-0.010132,0.008728,-0.992859,0.068183,0.401832,-0.008855,48,283,571,5696
1644174351.402089,-0.010986,0.012634,-0.988159,0.205588,0.325496,-0.054656,51,281,576,5872
1644174351.450467,-0.010071,0.01123,-0.989929,0.251389,0.386565,-0.100458,47,287,577,5664
1644174351.498881,-0.011902,0.008972,-0.992554,0.419328,0.340763,-0.085191,40,275,572,5712
1644174351.547264,-0.012268,0.008911,-0.993286,0.312458,0.478168,-0.161527,57,290,593,5776
1644174351.595645,-0.009827,0.008728,-0.990356,0.266656,0.478168,-0.222595,45,275,570,5728
1644174351.644397,-0.011658,0.01062,-0.99353,0.312458,0.279695,-0.054656,59,273,577,5712
1644174351.69276,-0.00592,0.00885,-0.993958,0.404061,0.340763,-0.039389,60,269,576,5760
1644174351.742929,-0.008606,0.010498,-0.989502,0.342992,0.493435,-0.115725,48,274,566,5696
1644174351.793658,-0.006775,0.010376,-0.993042,0.312458,0.462901,-0.161527,53,274,576,5728
1644174351.838039,-0.010925,0.010498,-0.992493,0.159786,0.432366,0.006412,49,265,575,5696
1644174351.934384,-0.009094,0.009644,-0.99353,0.205588,0.523969,-0.130992,51,271,571,5776
1644174351.982773,-0.013367,0.006409,-0.991943,0.220855,0.462901,-0.100458,51,279,571,5760
1644174352.031152,-0.011353,0.010803,-0.992249,0.129252,0.340763,-0.115725,48,279,571,5728
1644174352.07963,-0.010803,0.009888,-0.992981,0.404061,0.447634,-0.14626,52,268,572,5808
1644174352.127888,-0.009399,0.010498,-0.991333,0.312458,0.447634,-0.14626,55,276,569,5712
1644174352.176312,-0.007019,0.010254,-0.990234,0.266656,0.447634,0.036947,38,290,572,5648
1644174352.22469,-0.010254,0.010193,-0.98938,0.327725,0.325496,-0.069924,52,277,568,5712
1644174352.273094,-0.010498,0.012512,-0.991394,0.129252,0.356031,0.006412,43,271,564,5728
1644174352.321469,-0.007996,0.010315,-0.990906,0.205588,0.371298,-0.176794,51,274,573,5696
1644174352.369857,-0.010315,0.010315,-0.992432,0.190321,0.24916,0.067481,54,275,575,5696
1644174352.418249,-0.007446,0.010376,-0.990662,0.297191,0.294962,-0.14626,55,271,564,5760
1644174352.466651,-0.007324,0.011963,-0.993652,0.220855,0.417099,-0.069924,45,273,579,5760
1644174352.515126,-0.009033,0.012512,-0.991882,0.220855,0.356031,-0.14626,61,265,577,5712
1644174352.56341,-0.007812,0.009827,-0.990356,0.159786,0.462901,-0.192061,49,282,577,5712
1644174352.61179,-0.00824,0.010376,-0.992859,0.236122,0.539237,-0.237863,51,281,573,5696
1644174352.660182,-0.010315,0.010498,-0.99054,0.373527,0.447634,-0.176794,57,273,577,5664
1644174352.708598,-0.01001,0.009888,-0.993835,0.297191,0.417099,-0.085191,51,274,585,5728
1644174352.756967,-0.009277,0.01123,-0.990295,0.266656,0.478168,-0.161527,53,283,578,5664
1644174352.805447,-0.008057,0.008972,-0.990784,0.312458,0.462901,-0.039389,58,276,578,5696
1644174352.85539,-0.008057,0.010376,-0.991028,0.190321,0.432366,-0.176794,57,277,568,5808
1644174352.904867,-0.014282,0.008362,-0.992249,0.205588,0.386565,-0.069924,48,269,573,5696
1644174352.955485,-0.007568,0.01062,-0.992493,0.297191,0.478168,-0.100458,54,277,577,5760
1644174353.000059,-0.008484,0.006653,-0.990234,0.266656,0.493435,-0.039389,43,269,573,5664
1644174353.097382,-0.010315,0.008667,-0.991394,0.113985,0.478168,-0.008855,46,276,578,5808
1644174353.144109,-0.010864,0.009827,-0.991638,0.129252,0.386565,-0.161527,52,277,570,5712
1644174353.192513,-0.008789,0.009155,-0.993408,0.297191,0.310229,-0.085191,53,271,573,5664
1644174353.240883,-0.010071,0.005493,-0.991455,0.281924,0.615573,-0.176794,48,274,573,5760
1644174353.289268,-0.010498,0.009949,-0.992615,0.266656,0.447634,-0.100458,51,269,580,5696
1644174353.337656,-0.01239,0.008606,-0.991821,0.312458,0.417099,-0.115725,46,279,578,5712
1644174353.386053,-0.008911,0.010132,-0.990356,0.388794,0.417099,0.052214,58,281,578,5648
1644174353.43447,-0.009644,0.009583,-0.992126,0.312458,0.417099,-0.192061,57,277,575,5776
1644174353.482861,-0.008118,0.010132,-0.991211,0.251389,0.279695,-0.024122,49,285,570,5712
1644174353.53124,-0.010925,0.009644,-0.988647,0.220855,0.401832,-0.100458,54,273,570,5728
1644174353.579625,-0.008484,0.010193,-0.992493,0.144519,0.539237,-0.100458,53,279,585,5776
1644174353.628022,-0.010071,0.008911,-0.993103,0.342992,0.447634,-0.14626,53,279,571,5696
1644174353.676391,-0.006897,0.010742,-0.990967,0.175053,0.417099,-0.100458,41,271,571,5696
1644174353.724808,-0.009094,0.009094,-0.992798,0.327725,0.310229,-0.100458,51,283,578,5808
1644174353.77319,-0.011047,0.009949,-0.994019,0.266656,0.432366,-0.161527,52,277,575,5664
1644174353.821617,-0.009644,0.007202,-0.989563,0.236122,0.294962,0.036947,40,285,577,5776
1644174353.870358,-0.008484,0.011292,-0.99115,0.281924,0.432366,-0.085191,45,280,572,5696
1644174353.918607,-0.009644,0.010986,-0.99292,0.113985,0.523969,-0.024122,51,274,576,5728
1644174353.969515,-0.009766,0.011902,-0.991699,0.327725,0.462901,-0.039389,58,274,576,5728
1644174354.064993,-0.011902,0.009521,-0.992981,0.190321,0.508702,0.021679,52,280,572,5696
1644174354.111917,-0.01062,0.010864,-0.991089,0.373527,0.386565,0.021679,53,276,578,5760
1644174354.160313,-0.011292,0.010803,-0.993164,0.449863,0.356031,-0.054656,58,279,578,5760
1644174354.208706,-0.006958,0.007385,-0.990417,0.266656,0.356031,0.082748,54,277,579,5696
1644174354.257067,-0.007812,0.007507,-0.991028,0.312458,0.401832,-0.130992,46,281,578,5712
1644174354.305496,-0.011841,0.010498,-0.990906,0.266656,0.417099,-0.008855,62,276,576,5776
1644174354.353885,-0.006409,0.011108,-0.991577,0.159786,0.554504,-0.069924,52,285,577,5760
1644174354.402297,-0.008728,0.009094,-0.99408,0.190321,0.462901,-0.085191,48,266,573,5776
1644174354.450663,-0.008972,0.00885,-0.992249,0.205588,0.386565,-0.207328,48,279,580,5808
1644174354.499034,-0.012573,0.012878,-0.992126,0.281924,0.462901,-0.008855,52,277,570,5760
1644174354.547446,-0.009277,0.01001,-0.990173,0.251389,0.386565,-0.176794,49,280,570,5712
1644174354.595815,-0.011597,0.009583,-0.99292,0.220855,0.447634,-0.237863,49,282,565,5664
1644174354.644211,-0.010498,0.009583,-0.992981,0.098718,0.600305,-0.161527,53,271,576,5696
1644174354.692635,-0.007874,0.013428,-0.989075,0.205588,0.294962,-0.115725,51,271,569,5728
1644174354.741006,-0.009338,0.009033,-0.992432,0.251389,0.325496,-0.039389,57,270,582,5728
1644174354.78939,-0.009155,0.01001,-0.990601,0.251389,0.356031,-0.024122,51,269,578,5728
1644174354.837824,-0.009827,0.009766,-0.992371,0.266656,0.462901,-0.115725,45,280,565,5712
1644174354.88623,-0.010132,0.010864,-0.993896,0.190321,0.356031,-0.14626,57,275,572,5760
1644174354.934912,-0.011047,0.008179,-0.992554,0.159786,0.493435,0.021679,49,282,584,5712
1644174354.985385,-0.012756,0.01062,-0.991028,0.098718,0.294962,-0.14626,41,281,576,5760
1644174355.036275,-0.010803,0.008118,-0.991028,0.297191,0.417099,0.052214,51,276,566,5776
1644174355.087596,-0.013672,0.010376,-0.99469,0.297191,0.508702,-0.161527,53,279,571,5728
1644174355.176515,-0.009949,0.010681,-0.99353,0.388794,0.447634,-0.039389,45,277,570,5728
1644174355.224922,-0.007629,0.007874,-0.992126,0.236122,0.432366,-0.024122,52,275,582,5664
1644174355.273299,-0.009033,0.011353,-0.992432,0.251389,0.325496,-0.115725,57,282,579,5664
1644174355.3217,-0.011292,0.007751,-0.990051,0.251389,0.356031,-0.130992,62,276,576,5728
1644174355.370083,-0.009277,0.009399,-0.993164,0.297191,0.401832,-0.130992,52,277,568,5696
1644174355.418489,-0.012573,0.012939,-0.996033,0.35826,0.569771,-0.054656,52,280,568,5760
1644174355.46686,-0.009399,0.008118,-0.990417,0.220855,0.493435,-0.100458,49,275,575,5712
1644174355.515268,-0.010437,0.011108,-0.990112,0.297191,0.279695,-0.161527,49,268,570,5696
1644174355.563654,-0.011719,0.01123,-0.990845,0.342992,0.325496,0.006412,53,279,569,5760
1644174355.612068,-0.01178,0.010437,-0.991089,0.312458,0.493435,-0.192061,53,276,576,5712
1644174355.660427,-0.008423,0.009583,-0.992126,0.281924,0.417099,0.021679,42,270,563,5664
1644174355.708791,-0.010376,0.009033,-0.990601,0.175053,0.432366,-0.25313,47,282,572,5728
1644174355.757204,-0.013489,0.00824,-0.992554,0.144519,0.340763,-0.054656,51,269,571,5712
1644174355.805608,-0.009949,0.007446,-0.993225,0.205588,0.356031,0.021679,57,268,561,5664
1644174355.854045,-0.009399,0.010681,-0.993469,0.113985,0.294962,-0.176794,54,275,570,5728
1644174355.90245,-0.009583,0.010437,-0.992249,0.281924,0.401832,-0.176794,41,276,566,5728
1644174355.950822,-0.007812,0.012024,-0.992615,0.297191,0.432366,-0.069924,55,276,580,5712
1644174355.999177,-0.012329,0.011047,-0.989685,0.510931,0.386565,-0.039389,39,271,578,5728
1644174356.06025,-0.007568,0.008179,-0.991394,0.281924,0.508702,0.006412,49,268,565,5760
1644174356.102741,-0.009949,0.010376,-0.994019,0.220855,0.417099,-0.024122,61,277,579,5648
1644174356.148441,-0.010071,0.012085,-0.993347,0.236122,0.539237,-0.069924,47,273,568,5776
1644174356.196998,-0.010437,0.008789,-0.992554,0.220855,0.493435,-0.008855,48,279,562,5712
1644174356.242149,-0.010071,0.010925,-0.990173,0.159786,0.569771,-0.161527,51,274,576,5696
1644174356.337895,-0.008118,0.013977,-0.991821,0.08345,0.432366,-0.054656,52,270,577,5728
1644174356.386268,-0.009827,0.008728,-0.98938,0.281924,0.417099,-0.192061,48,274,566,5696
1644174356.43486,-0.011353,0.00592,-0.987427,0.480397,0.462901,-0.192061,53,283,573,5696
1644174356.483082,-0.010559,0.008789,-0.993408,0.327725,0.508702,-0.054656,48,274,566,5760
1644174356.531472,-0.011047,0.011353,-0.992126,0.419328,0.310229,-0.14626,58,276,566,5664
1644174356.579855,-0.01001,0.00946,-0.991333,0.327725,0.539237,-0.115725,49,277,570,5696
1644174356.628235,-0.00824,0.009521,-0.990051,0.205588,0.493435,-0.222595,53,269,571,5696
1644174356.676632,-0.009949,0.011353,-0.989685,0.281924,0.539237,-0.130992,55,279,578,5712
1644174356.725063,-0.007446,0.009094,-0.991211,0.266656,0.401832,-0.085191,46,269,573,5712
1644174356.77342,-0.010193,0.012085,-0.990234,0.175053,0.401832,-0.100458,57,275,577,5664
1644174356.821815,-0.006348,0.010254,-0.993958,0.144519,0.371298,-0.100458,54,273,568,5696
1644174356.870239,-0.009888,0.011292,-0.98938,0.434595,0.585038,0.082748,46,266,573,5696
1644174356.918599,-0.010559,0.011108,-0.992859,0.404061,0.478168,-0.008855,45,277,554,5760
1644174356.967024,-0.008972,0.011108,-0.990967,0.159786,0.356031,-0.024122,55,281,578,5760
1644174357.015421,-0.008972,0.009827,-0.990906,0.236122,0.356031,-0.268397,45,285,570,5728
1644174357.073129,-0.009399,0.010193,-0.99231,0.266656,0.294962,-0.069924,48,264,576,5776
1644174357.115438,-0.009827,0.008972,-0.990112,0.297191,0.508702,-0.008855,59,282,582,5712
1644174357.160626,-0.010132,0.011658,-0.992737,0.281924,0.310229,-0.008855,59,265,579,5712
1644174357.208922,-0.011841,0.00824,-0.993286,0.08345,0.432366,-0.069924,51,274,585,5728
1644174357.257619,-0.012573,0.01062,-0.99353,0.312458,0.279695,0.006412,52,273,579,5696
1644174357.309005,-0.011292,0.010315,-0.992249,0.449863,0.356031,-0.085191,53,274,580,5760
1644174357.359407,-0.008362,0.010559,-0.993042,0.205588,0.371298,-0.207328,45,270,577,5696
1644174357.450895,-0.010193,0.010193,-0.990723,0.190321,0.478168,-0.192061,52,275,584,5760
1644174357.499286,-0.009583,0.011292,-0.99115,0.08345,0.417099,0.021679,54,273,579,5760
1644174357.54765,-0.009949,0.008118,-0.991638,0.266656,0.432366,0.006412,54,275,577,5728
1644174357.59607,-0.010193,0.011902,-0.990723,0.327725,0.478168,0.006412,49,275,582,5760
1644174357.644435,-0.012146,0.008606,-0.992676,0.159786,0.508702,-0.069924,51,269,578,5776
1644174357.692858,-0.010254,0.010498,-0.991516,0.297191,0.508702,-0.115725,55,271,576,5696
1644174357.741236,-0.010498,0.005066,-0.991821,0.297191,0.371298,-0.039389,53,271,585,5760
1644174357.789632,-0.010498,0.009277,-0.991272,0.251389,0.294962,-0.008855,54,270,572,5728
1644174357.83803,-0.008911,0.008362,-0.992676,0.236122,0.386565,0.036947,45,273,575,5696
1644174357.886461,-0.01178,0.009705,-0.99469,0.312458,0.401832,-0.085191,61,280,577,5696
1644174357.934871,-0.012085,0.013184,-0.992798,0.236122,0.401832,-0.14626,55,271,583,5696
1644174357.983249,-0.006226,0.009949,-0.99231,0.220855,0.401832,-0.207328,51,274,576,5712
1644174358.031633,-0.008057,0.009094,-0.990173,0.236122,0.356031,-0.039389,43,266,585,5728
1644174358.092345,-0.008789,0.009705,-0.992981,0.052916,0.356031,-0.161527,51,276,583,5696
1644174358.128395,-0.01062,0.007996,-0.992065,0.342992,0.340763,0.021679,47,275,582,5648
1644174358.176746,-0.005493,0.009399,-0.99176,0.129252,0.294962,-0.192061,43,269,573,5696
1644174358.225289,-0.010376,0.010803,-0.99353,0.449863,0.432366,-0.207328,48,269,573,5808
1644174358.275792,-0.010437,0.008911,-0.992004,0.129252,0.279695,-0.176794,34,286,583,5696
1644174358.325995,-0.010742,0.009644,-0.989441,0.434595,0.386565,-0.008855,53,274,580,5760
1644174358.37103,-0.006042,0.010742,-0.990295,0.205588,0.340763,-0.085191,54,260,586,5712
1644174358.467091,-0.010803,0.01123,-0.98938,0.129252,0.371298,0.052214,55,274,587,5712
1644174358.515476,-0.010254,0.008972,-0.989014,0.220855,0.310229,-0.192061,51,274,569,5760
1644174358.563879,-0.010925,0.00885,-0.994263,0.342992,0.478168,-0.039389,58,276,580,5648
1644174358.612393,-0.010315,0.009277,-0.991638,0.312458,0.340763,-0.085191,52,285,584,5712
1644174358.660655,-0.009644,0.009155,-0.99054,0.312458,0.508702,-0.161527,46,274,573,5728
1644174358.709042,-0.010193,0.008301,-0.991333,0.190321,0.417099,0.006412,53,274,571,5696
1644174358.757434,-0.010925,0.010925,-0.990906,0.388794,0.340763,-0.207328,49,277,572,5712
1644174358.805804,-0.008911,0.009766,-0.988953,0.175053,0.356031,-0.161527,57,273,582,5696
1644174358.854232,-0.006897,0.009766,-0.99353,0.190321,0.508702,-0.222595,57,280,584,5664
1644174358.90267,-0.010498,0.007751,-0.990295,0.220855,0.447634,-0.192061,42,275,582,5712
1644174358.951056,-0.009949,0.008118,-0.989929,0.266656,0.264427,-0.054656,52,285,577,5728
1644174358.999431,-0.008606,0.009216,-0.991455,0.037649,0.615573,-0.069924,51,283,566,5712
1644174359.047829,-0.010803,0.011841,-0.991577,-0.053954,0.356031,-0.130992,52,273,563,5648
1644174359.096233,-0.010071,0.009583,-0.99115,0.08345,0.386565,0.052214,52,275,577,5760
1644174359.144676,-0.009216,0.010498,-0.994446,0.297191,0.508702,-0.130992,51,276,580,5696
1644174359.192975,-0.008057,0.008972,-0.990051,0.220855,0.585038,0.021679,41,269,580,5664
1644174359.241361,-0.009766,0.010132,-0.992065,0.236122,0.462901,-0.14626,57,273,579,5712
1644174359.28974,-0.010071,0.010254,-0.990051,0.281924,0.401832,0.021679,45,265,579,5712
1644174359.338634,-0.010132,0.010803,-0.992981,0.159786,0.447634,0.052214,51,271,578,5760
1644174359.386789,-0.010132,0.009766,-0.990417,0.251389,0.310229,-0.115725,54,280,582,5664
1644174359.43757,-0.009888,0.009094,-0.991699,0.251389,0.188092,0.067481,54,275,572,5696
1644174359.487075,-0.009399,0.007874,-0.992371,0.220855,0.478168,-0.176794,54,277,582,5696
1644174359.532234,-0.011841,0.009094,-0.99054,0.144519,0.508702,-0.054656,45,273,570,5776
1644174359.628451,-0.008423,0.009277,-0.992676,0.098718,0.478168,-0.14626,46,274,578,5712
1644174359.628451,-0.008423,0.009277,-0.992676,0.098718,0.478168,-0.14626,46,274,578,5712
1644174359.725352,-0.011414,0.009949,-0.990845,0.266656,0.325496,-0.024122,54,280,577,5696
1644174359.773724,-0.011719,0.012024,-0.990417,0.35826,0.386565,-0.14626,59,270,575,5696
1644174359.822253,-0.009583,0.010254,-0.994751,0.266656,0.523969,-0.054656,51,274,580,5760
1644174359.870455,-0.008789,0.008545,-0.991882,0.144519,0.554504,-0.130992,55,279,573,5696
1644174359.918768,-0.011719,0.011719,-0.990601,0.236122,0.386565,0.006412,55,279,580,5664
1644174359.967251,-0.010132,0.009399,-0.991577,0.297191,0.264427,-0.054656,47,268,586,5664
1644174360.015602,-0.012024,0.008972,-0.991211,0.342992,0.432366,-0.192061,59,277,586,5664
1644174360.085339,-0.008911,0.008423,-0.990479,0.266656,0.279695,-0.237863,58,288,571,5696
1644174360.117296,-0.010437,0.009094,-0.991333,0.190321,0.417099,-0.085191,48,276,590,5760
1644174360.160777,-0.010559,0.009216,-0.991516,0.281924,0.401832,0.006412,66,273,582,5728
1644174360.214322,-0.011719,0.007202,-0.993469,0.388794,0.585038,0.021679,52,275,579,5712
1644174360.305969,-0.01178,0.01062,-0.992676,0.434595,0.325496,-0.192061,49,277,575,5696
1644174360.354357,-0.009949,0.011169,-0.990295,0.312458,0.432366,-0.130992,42,285,584,5808
1644174360.4028,-0.009949,0.009338,-0.991638,0.236122,0.386565,-0.100458,47,265,577,5696
1644174360.451174,-0.009216,0.007629,-0.991821,0.144519,0.417099,-0.039389,54,265,579,5696
1644174360.499583,-0.010437,0.009033,-0.994995,0.327725,0.508702,0.006412,51,269,578,5664
1644174360.547988,-0.010132,0.008545,-0.993408,0.098718,0.371298,-0.069924,41,276,583,5728
1644174360.596398,-0.009277,0.010132,-0.991394,0.205588,0.417099,-0.024122,51,281,580,5696
1644174360.644706,-0.010254,0.009155,-0.993103,0.175053,0.447634,-0.192061,53,274,578,5696
1644174360.69306,-0.00946,0.00946,-0.99408,0.266656,0.371298,-0.130992,48,271,583,5760
1644174360.741915,-0.008118,0.009644,-0.990356,0.297191,0.401832,-0.054656,48,271,583,5712
1644174360.790418,-0.010315,0.008728,-0.99292,0.35826,0.600305,-0.008855,39,276,580,5760
1644174360.838331,-0.009033,0.011475,-0.991821,0.312458,0.554504,-0.100458,53,274,580,5664
1644174360.88692,-0.007263,0.009949,-0.990784,0.159786,0.432366,-0.100458,48,276,571,5776
1644174360.937008,-0.00946,0.009094,-0.990601,0.205588,0.386565,-0.024122,39,274,571,5808
1644174361.006437,-0.010071,0.009766,-0.992615,0.190321,0.432366,-0.14626,45,275,584,5712
1644174361.043032,-0.010559,0.008301,-0.991516,0.373527,0.432366,0.113282,47,280,579,5808
1644174361.131346,-0.009888,0.008728,-0.992188,0.297191,0.508702,-0.14626,51,279,569,5760
1644174361.177043,-0.007324,0.008789,-0.988892,0.281924,0.417099,-0.130992,58,279,583,5760
1644174361.225471,-0.010132,0.008362,-0.992371,0.297191,0.401832,-0.130992,59,270,577,5712
1644174361.273756,-0.011963,0.011597,-0.990051,0.373527,0.310229,-0.25313,52,270,575,5776
1644174361.324046,-0.009094,0.007996,-0.992676,0.220855,0.371298,-0.176794,61,275,577,5760
1644174361.370487,-0.010498,0.00824,-0.994324,0.297191,0.386565,0.036947,48,274,576,5776
1644174361.418952,-0.010742,0.008057,-0.990295,0.190321,0.401832,0.052214,51,276,576,5664
1644174361.467345,-0.01001,0.006714,-0.989929,0.129252,0.432366,-0.085191,48,271,580,5696
1644174361.515687,-0.008484,0.010803,-0.992676,0.220855,0.386565,-0.069924,57,273,575,5760
1644174361.564085,-0.009338,0.010254,-0.993469,0.190321,0.386565,-0.176794,55,281,578,5760
1644174361.612539,-0.008911,0.010071,-0.994629,0.190321,0.585038,-0.130992,52,285,579,5664
1644174361.660899,-0.00885,0.010864,-0.990112,0.35826,0.478168,-0.085191,53,279,573,5696
1644174361.709281,-0.009583,0.007446,-0.992126,0.342992,0.188092,-0.192061,46,274,580,5696
1644174361.757659,-0.012268,0.009644,-0.993713,0.144519,0.386565,-0.237863,52,277,575,5728
1644174361.810946,-0.009827,0.012024,-0.993408,0.129252,0.523969,-0.024122,58,283,578,5712
1644174361.864894,-0.006714,0.009766,-0.990173,0.220855,0.340763,-0.008855,58,271,571,5712
1644174361.906246,-0.009399,0.008545,-0.98877,0.251389,0.356031,-0.161527,54,277,586,5696
1644174361.956645,-0.008728,0.011536,-0.99469,0.08345,0.371298,-0.115725,55,283,564,5712
1644174362.006303,-0.007385,0.009583,-0.994385,0.266656,0.279695,-0.069924,48,276,576,5696
1644174362.063763,-0.011047,0.010559,-0.990051,0.266656,0.340763,-0.14626,42,275,584,5696
1644174362.144927,-0.008972,0.01123,-0.991577,0.281924,0.356031,-0.100458,47,280,582,5696
1644174362.19318,-0.01178,0.014282,-0.992188,0.129252,0.356031,-0.130992,57,280,572,5728
1644174362.241552,-0.01178,0.008423,-0.988159,0.205588,0.356031,-0.14626,39,271,571,5696
1644174362.290061,-0.010132,0.011414,-0.990967,0.236122,0.371298,-0.115725,45,275,584,5760
1644174362.338346,-0.008179,0.009888,-0.993347,0.236122,0.432366,-0.237863,49,282,579,5712
1644174362.386758,-0.008301,0.011841,-0.992493,0.434595,0.493435,-0.100458,57,268,572,5712
1644174362.435169,-0.01001,0.009705,-0.993713,0.175053,0.462901,-0.008855,46,264,573,5760
1644174362.483571,-0.010681,0.009949,-0.991577,0.404061,0.493435,-0.161527,46,262,578,5728
1644174362.533005,-0.009338,0.011963,-0.992981,0.251389,0.539237,-0.14626,54,290,582,5664
1644174362.580853,-0.01062,0.006653,-0.99292,0.220855,0.447634,-0.054656,55,283,580,5696
1644174362.628977,-0.012756,0.011108,-0.990295,0.098718,0.310229,-0.14626,55,281,576,5760
1644174362.677213,-0.009583,0.008911,-0.992615,0.266656,0.24916,-0.176794,55,271,580,5696
1644174362.725704,-0.009399,0.01001,-0.991882,0.266656,0.569771,-0.085191,55,283,580,5728
1644174362.77771,-0.009155,0.009399,-0.990051,0.144519,0.371298,-0.161527,52,280,582,5728
1644174362.825792,-0.009766,0.008911,-0.99353,0.281924,0.585038,-0.085191,62,271,590,5712
1644174362.874622,-0.00946,0.007751,-0.991699,0.190321,0.386565,-0.054656,40,277,584,5712
1644174362.924965,-0.008789,0.00708,-0.990967,0.312458,0.279695,-0.100458,47,280,591,5712
1644174362.976298,-0.009277,0.00946,-0.990479,0.281924,0.462901,-0.039389,55,269,585,5696
1644174363.064261,-0.008545,0.008606,-0.990662,0.251389,0.554504,0.052214,46,274,578,5696
1644174363.11331,-0.008667,0.009888,-0.987427,0.205588,0.432366,0.021679,53,276,585,5760
1644174363.163206,-0.009399,0.012451,-0.993713,0.205588,0.371298,-0.14626,43,281,580,5712
1644174363.210429,-0.00885,0.005737,-0.996094,0.175053,0.264427,-0.100458,57,280,591,5696
1644174363.258861,-0.010254,0.009338,-0.991211,0.281924,0.493435,0.006412,52,260,591,5760
1644174363.306355,-0.010681,0.012329,-0.991272,0.388794,0.401832,-0.100458,42,282,589,5760
1644174363.354804,-0.009705,0.009277,-0.989685,0.205588,0.508702,-0.222595,40,277,577,5664
1644174363.403001,-0.010071,0.009094,-0.990051,0.388794,0.356031,-0.25313,51,266,578,5728
1644174363.451493,-0.009094,0.010193,-0.993713,0.113985,0.478168,-0.176794,49,273,577,5696
1644174363.49997,-0.00946,0.01062,-0.989929,0.205588,0.264427,-0.192061,47,275,586,5696
1644174363.548188,-0.007629,0.010864,-0.990356,0.236122,0.417099,-0.115725,58,279,583,5696
1644174363.596577,-0.009766,0.009399,-0.990906,0.327725,0.386565,-0.130992,55,279,587,5712
1644174363.64643,-0.01001,0.008484,-0.99115,0.190321,0.310229,-0.176794,53,281,587,5712
1644174363.693851,-0.008301,0.009583,-0.990479,0.236122,0.493435,-0.222595,62,291,585,5760
1644174363.743692,-0.009705,0.007812,-0.991821,0.327725,0.432366,-0.14626,49,275,600,5664
1644174363.793507,-0.008911,0.009949,-0.992188,0.342992,0.417099,0.036947,61,280,584,5760
1644174363.84457,-0.011108,0.011658,-0.990784,0.159786,0.508702,-0.237863,55,281,585,5760
1644174363.895332,-0.010437,0.010376,-0.993896,0.144519,0.371298,0.021679,47,282,584,5776
1644174363.942993,-0.008972,0.009033,-0.99353,0.327725,0.432366,-0.054656,51,286,590,5728
1644174363.987899,-0.009888,0.011047,-0.992188,0.541466,0.417099,0.036947,43,288,592,5696
1644174364.080525,-0.009766,0.009155,-0.990601,0.236122,0.417099,0.021679,46,274,587,5696
1644174364.131223,-0.008972,0.009094,-0.992249,0.220855,0.417099,-0.14626,47,275,586,5712
1644174364.177512,-0.007812,0.007996,-0.991272,0.236122,0.493435,-0.054656,53,266,583,5728
1644174364.225638,-0.005859,0.009888,-0.993286,0.281924,0.340763,-0.100458,57,275,586,5728
1644174364.274064,-0.011536,0.005371,-0.992249,0.068183,0.432366,0.006412,49,273,586,5776
1644174364.32248,-0.008362,0.009033,-0.993164,0.159786,0.294962,-0.222595,57,273,591,5760
1644174364.37168,-0.009644,0.007141,-0.991516,0.495664,0.401832,-0.222595,52,277,575,5712
1644174364.419435,-0.012939,0.009827,-0.991333,0.190321,0.310229,-0.14626,60,266,587,5776
1644174364.467944,-0.011841,0.008301,-0.992798,0.373527,0.417099,-0.14626,52,282,584,5728
1644174364.516691,-0.011658,0.007996,-0.990479,0.266656,0.478168,-0.024122,55,286,585,5712
1644174364.565299,-0.010742,0.009705,-0.98999,0.266656,0.462901,-0.085191,62,276,583,5712
1644174364.615403,-0.010742,0.011353,-0.992432,0.205588,0.325496,-0.069924,51,276,587,5712
1644174364.661953,-0.010376,0.007935,-0.993347,0.220855,0.356031,-0.054656,51,279,585,5696
1644174364.715329,-0.007935,0.011719,-0.993103,0.220855,0.539237,-0.14626,57,280,584,5728
1644174364.766036,-0.013184,0.007751,-0.991272,0.327725,0.371298,0.052214,52,270,584,5728
1644174364.813429,-0.010864,0.010559,-0.990112,0.175053,0.386565,-0.085191,54,277,579,5760
1644174364.86528,-0.007202,0.005371,-0.990723,0.251389,0.417099,-0.176794,49,277,586,5760
1644174364.909336,-0.008789,0.008118,-0.992126,0.144519,0.417099,0.006412,49,282,579,5760
1644174365.001813,-0.010925,0.00769,-0.989441,0.129252,0.417099,0.021679,47,280,579,5728
1644174365.053772,-0.013977,0.007935,-0.992371,0.236122,0.371298,-0.008855,60,276,587,5712
1644174365.104977,-0.011169,0.008118,-0.991577,0.373527,0.401832,0.021679,58,271,583,5696
1644174365.14574,-0.011292,0.010803,-0.99176,0.175053,0.523969,-0.069924,55,281,580,5760
1644174365.193488,-0.011353,0.008484,-0.992493,0.175053,0.340763,-0.14626,48,271,590,5776
1644174365.241949,-0.010742,0.009155,-0.99408,0.129252,0.447634,-0.130992,49,277,584,5728
1644174365.29027,-0.010376,0.010193,-0.99292,0.175053,0.371298,-0.039389,57,280,586,5696
1644174365.338654,-0.009399,0.007751,-0.99115,0.220855,0.340763,-0.054656,43,274,580,5760
1644174365.38708,-0.011047,0.01001,-0.993652,0.144519,0.462901,-0.115725,45,277,589,5712
1644174365.438286,-0.010193,0.010681,-0.992065,0.159786,0.356031,-0.054656,48,271,594,5712
1644174365.484125,-0.011719,0.010498,-0.990295,0.251389,0.493435,-0.268397,43,266,590,5696
1644174365.539042,-0.013184,0.012268,-0.992004,0.159786,0.447634,0.006412,52,280,577,5728
1644174365.581999,-0.01062,0.009521,-0.992249,0.220855,0.386565,-0.085191,40,280,586,5760
1644174365.635942,-0.007935,0.011719,-0.989746,0.312458,0.508702,-0.115725,47,287,586,5760
1644174365.686735,-0.010376,0.010925,-0.991577,0.251389,0.432366,-0.054656,60,271,590,5696
1644174365.735542,-0.009033,0.009216,-0.991882,0.190321,0.493435,-0.115725,52,282,577,5760
1644174365.780792,-0.011719,0.005981,-0.99054,0.205588,0.325496,-0.054656,46,283,578,5664
1644174365.871708,-0.007996,0.011047,-0.99176,0.175053,0.462901,-0.100458,38,287,589,5760
1644174365.92002,-0.009644,0.009155,-0.991577,0.236122,0.432366,-0.069924,53,271,580,5696
1644174365.967994,-0.012268,0.008362,-0.991882,0.281924,0.279695,-0.069924,59,280,579,5696
1644174366.01615,-0.011047,0.008606,-0.992004,0.251389,0.523969,-0.237863,55,279,594,5760
1644174366.064525,-0.013,0.006409,-0.993103,0.175053,0.264427,-0.008855,53,274,587,5696
1644174366.113001,-0.00946,0.009583,-0.991394,0.220855,0.325496,-0.115725,49,273,579,5728
1644174366.162312,-0.011902,0.011475,-0.993774,0.251389,0.462901,-0.207328,53,266,597,5728
1644174366.209718,-0.01239,0.012207,-0.99054,0.113985,0.386565,-0.085191,61,263,589,5712
1644174366.258243,-0.008789,0.009949,-0.992249,0.251389,0.371298,0.067481,45,282,579,5728
1644174366.306477,-0.01123,0.008545,-0.991272,0.35826,0.585038,-0.085191,58,286,583,5760
1644174366.355443,-0.009705,0.011963,-0.990601,0.037649,0.340763,-0.069924,46,271,585,5696
1644174366.404486,-0.010925,0.006104,-0.990112,0.342992,0.447634,-0.207328,52,273,572,5664
1644174366.451885,-0.006287,0.008789,-0.991211,0.281924,0.386565,-0.100458,53,283,585,5808
1644174366.502259,-0.010986,0.011475,-0.992126,0.159786,0.371298,-0.100458,52,290,598,5664
1644174366.556055,-0.008545,0.008789,-0.992188,0.144519,0.447634,-0.161527,61,268,579,5712
1644174366.607875,-0.011169,0.006531,-0.993774,0.312458,0.386565,-0.085191,54,275,582,5760
1644174366.64815,-0.011536,0.01062,-0.992371,0.35826,0.554504,0.006412,60,279,583,5776
1644174366.709444,-0.010193,0.008362,-0.989868,0.281924,0.386565,-0.237863,54,277,591,5696
1644174366.749789,-0.011597,0.007935,-0.992798,0.327725,0.493435,-0.039389,47,282,579,5696
1644174366.801643,-0.01123,0.009216,-0.994019,0.236122,0.325496,0.067481,57,275,577,5712
1644174366.888613,-0.009583,0.010315,-0.993164,0.266656,0.63084,-0.25313,54,280,572,5696
1644174366.935802,-0.01062,0.007568,-0.990051,0.404061,0.401832,-0.069924,55,281,583,5760
1644174366.983959,-0.008484,0.007996,-0.990845,-0.008153,0.462901,-0.222595,48,279,587,5664
1644174367.032661,-0.009766,0.007141,-0.992188,0.144519,0.585038,-0.054656,65,286,587,5728
1644174367.08475,-0.012085,0.011353,-0.991516,0.175053,0.417099,-0.237863,61,282,577,5712
1644174367.129664,-0.010986,0.010193,-0.992615,0.297191,0.478168,-0.085191,43,276,578,5712
1644174367.177948,-0.010803,0.007935,-0.991638,0.175053,0.478168,0.006412,47,270,584,5760
1644174367.225912,-0.011047,0.009399,-0.991211,0.297191,0.417099,-0.192061,58,281,580,5760
1644174367.274317,-0.010559,0.009949,-0.993042,0.342992,0.478168,-0.207328,57,275,593,5696
1644174367.324498,-0.012329,0.008606,-0.993347,0.159786,0.340763,-0.008855,58,269,599,5776
1644174367.371089,-0.0047,0.009827,-0.990479,0.297191,0.478168,-0.100458,60,269,585,5664
1644174367.419425,-0.008301,0.008484,-0.99115,0.144519,0.279695,-0.054656,58,281,578,5664
1644174367.467864,-0.009216,0.009216,-0.993042,0.220855,0.356031,0.006412,52,273,586,5728
