epoch,acc_x,acc_y,acc_z,rot_x,rot_y,rot_z,mag_x,mag_y,mag_z,temp
1644185400.060965,-0.004639,0.009216,-0.994324,-0.008153,0.462901,-0.069924,55,271,590,6240
1644185400.100584,-0.006287,0.006775,-0.991089,0.113985,0.478168,-0.207328,49,282,591,6176
1644185400.145781,-0.005676,0.008057,-0.989929,0.113985,0.508702,-0.069924,45,280,584,6160
1644185400.194211,-0.006287,0.007935,-0.989685,0.205588,0.462901,0.006412,53,274,585,6176
1644185400.242593,-0.009094,0.011719,-0.99054,0.190321,0.386565,-0.054656,43,281,580,6288
1644185400.290988,-0.008118,0.01062,-0.99353,0.220855,0.401832,-0.115725,53,271,583,6256
1644185400.339374,-0.006653,0.007446,-0.99292,0.281924,0.447634,-0.192061,53,279,587,6224
1644185400.387765,-0.008301,0.01062,-0.990906,0.236122,0.356031,-0.14626,45,265,579,6128
1644185400.436163,-0.008545,0.007263,-0.992065,0.175053,0.447634,-0.237863,49,282,589,6224
1644185400.48454,-0.009399,0.006653,-0.99176,0.220855,0.462901,-0.115725,41,283,583,6224
1644185400.532958,-0.009521,0.010437,-0.989136,0.251389,0.294962,-0.054656,51,286,590,6176
1644185400.581347,-0.008179,0.009827,-0.99408,0.129252,0.539237,-0.130992,48,283,576,6240
1644185400.629698,-0.008972,0.009583,-0.993408,0.236122,0.340763,-0.130992,52,273,584,6240
1644185400.678562,-0.008606,0.008972,-0.993042,0.175053,0.447634,-0.100458,35,285,586,6224
1644185400.728929,-0.007935,0.008789,-0.993774,0.251389,0.356031,0.006412,58,274,583,6224
1644185400.778969,-0.009644,0.010742,-0.9953,0.281924,0.432366,-0.008855,45,277,591,6224
1644185400.824047,-0.007996,0.011353,-0.99231,0.297191,0.432366,-0.161527,54,277,579,6224
1644185400.920134,-0.009827,0.010132,-0.989929,0.205588,0.523969,-0.100458,45,280,575,6192
1644185400.968515,-0.006165,0.009033,-0.995178,0.281924,0.462901,-0.130992,45,275,584,6224
1644185401.016917,-0.007568,0.00824,-0.98999,0.236122,0.356031,0.006412,47,270,586,6192
1644185401.068714,-0.008057,0.007324,-0.98999,0.159786,0.401832,-0.130992,60,276,580,6192
1644185401.113682,-0.005554,0.009094,-0.992249,0.297191,0.233893,-0.115725,49,275,586,6192
1644185401.162047,-0.007446,0.009949,-0.990967,0.281924,0.417099,-0.115725,42,273,579,6128
1644185401.210446,-0.009644,0.009644,-0.993774,0.236122,0.462901,-0.085191,53,279,590,6160
1644185401.258818,-0.009644,0.009766,-0.993774,0.220855,0.279695,-0.237863,47,275,584,6176
1644185401.307226,-0.008728,0.009338,-0.989319,0.236122,0.462901,-0.14626,54,277,577,6224
1644185401.355633,-0.00946,0.00647,-0.989929,0.08345,0.340763,-0.085191,54,280,586,6176
1644185401.404032,-0.010986,0.009827,-0.992615,0.251389,0.401832,-0.161527,51,266,578,6256
1644185401.452419,-0.008484,0.009888,-0.990906,0.144519,0.447634,-0.176794,52,273,579,6256
1644185401.50081,-0.007202,0.009399,-0.992371,0.266656,0.432366,0.021679,40,282,579,6224
1644185401.549191,-0.007812,0.008484,-0.989197,0.08345,0.447634,-0.008855,53,281,580,6192
1644185401.597579,-0.009338,0.009033,-0.993347,0.113985,0.340763,-0.100458,54,277,589,6224
1644185401.645977,-0.008789,0.010498,-0.993042,0.373527,0.478168,-0.008855,51,276,583,6192
1644185401.694348,-0.011108,0.007751,-0.993591,0.175053,0.279695,0.006412,42,287,589,6224
1644185401.742781,-0.008179,0.010864,-0.992554,0.236122,0.417099,-0.115725,52,280,579,6224
1644185401.791167,-0.009521,0.012207,-0.995422,0.220855,0.615573,-0.100458,46,286,583,6192
1644185401.840844,-0.008362,0.008972,-0.990723,0.159786,0.493435,-0.25313,48,262,576,6192
1644185401.891295,-0.00769,0.006287,-0.992493,0.205588,0.325496,-0.054656,47,282,579,6240
1644185401.941633,-0.007629,0.008484,-0.991577,0.08345,0.447634,-0.25313,53,271,580,6192
1644185401.986188,-0.009338,0.009644,-0.989502,0.266656,0.356031,-0.14626,49,273,589,6192
1644185402.081597,-0.009094,0.009216,-0.991821,0.236122,0.264427,-0.176794,42,268,582,6224
1644185402.12995,-0.00708,0.008423,-0.991638,0.236122,0.401832,-0.085191,59,268,582,6224
1644185402.178306,-0.006042,0.007629,-0.988586,0.113985,0.279695,-0.176794,42,280,579,6240
1644185402.226712,-0.01062,0.01178,-0.991638,0.297191,0.356031,0.067481,43,286,573,6304
1644185402.275215,-0.01178,0.007812,-0.991394,0.297191,0.279695,-0.14626,57,277,579,6224
1644185402.323467,-0.006348,0.010254,-0.990356,0.312458,0.279695,0.006412,57,275,586,6224
1644185402.371879,-0.006836,0.012207,-0.992126,0.312458,0.493435,-0.176794,55,276,583,6224
1644185402.420272,-0.008179,0.00946,-0.994019,0.190321,0.310229,-0.222595,58,271,592,6176
1644185402.468678,-0.007874,0.009583,-0.990295,0.098718,0.310229,-0.024122,40,270,591,6224
1644185402.51705,-0.005981,0.008301,-0.992615,0.175053,0.340763,-0.130992,42,285,593,6256
1644185402.565439,-0.008667,0.009216,-0.992554,0.236122,0.386565,-0.039389,48,274,585,6176
1644185402.613847,-0.009155,0.009033,-0.992676,0.144519,0.508702,-0.069924,54,280,586,6192
1644185402.662252,-0.006714,0.00946,-0.991943,0.236122,0.24916,-0.024122,54,280,589,6176
1644185402.7106,-0.00531,0.010132,-0.990295,0.220855,0.478168,-0.054656,51,286,580,6224
1644185402.759316,-0.009094,0.01001,-0.991638,0.175053,0.279695,-0.039389,41,288,590,6160
1644185402.809585,-0.007751,0.009277,-0.987671,0.388794,0.478168,-0.039389,52,285,589,6224
1644185402.860528,-0.009583,0.010254,-0.99115,0.190321,0.417099,-0.085191,48,274,576,6224
1644185402.905467,-0.010315,0.007568,-0.993408,0.129252,0.325496,-0.207328,43,262,578,6240
1644185403.001011,-0.00946,0.006653,-0.991028,0.373527,0.447634,-0.115725,39,274,580,6192
1644185403.060528,-0.00769,0.007935,-0.991516,0.251389,0.417099,0.036947,55,276,587,6224
1644185403.098185,-0.00769,0.009399,-0.991638,0.281924,0.432366,-0.14626,46,288,583,6192
1644185403.146167,-0.008118,0.008484,-0.99231,0.113985,0.432366,-0.054656,46,276,571,6224
1644185403.194675,-0.007996,0.010803,-0.992554,0.312458,0.447634,0.006412,55,279,580,6176
1644185403.242947,-0.007385,0.01123,-0.989624,0.312458,0.508702,-0.176794,46,276,590,6160
1644185403.291338,-0.006897,0.00885,-0.993347,0.144519,0.432366,-0.024122,45,273,579,6176
1644185403.33974,-0.010132,0.01001,-0.991699,0.205588,0.310229,-0.130992,58,281,585,6176
1644185403.388122,-0.004944,0.011353,-0.994019,0.236122,0.493435,-0.100458,46,279,587,6256
1644185403.436517,-0.010071,0.010315,-0.991211,0.205588,0.478168,-0.100458,47,275,593,6192
1644185403.484897,-0.009338,0.008057,-0.990723,0.297191,0.462901,-0.039389,52,285,591,6256
1644185403.533306,-0.009399,0.011353,-0.990295,0.144519,0.279695,-0.115725,60,276,583,6256
1644185403.581948,-0.007446,0.010437,-0.98999,0.251389,0.371298,-0.14626,54,280,596,6256
1644185403.63245,-0.007751,0.009583,-0.991943,0.419328,0.401832,-0.115725,43,269,583,6256
1644185403.682741,-0.005493,0.010986,-0.992554,0.190321,0.340763,-0.192061,54,277,591,6240
1644185403.727763,-0.009399,0.009766,-0.988464,0.266656,0.356031,-0.024122,48,276,587,6224
1644185403.823667,-0.007568,0.008545,-0.994507,0.175053,0.462901,-0.161527,45,280,579,6240
1644185403.872052,-0.008545,0.012634,-0.989197,0.190321,0.371298,-0.115725,59,275,582,6192
1644185403.920475,-0.008179,0.010986,-0.988037,0.220855,0.401832,0.067481,46,276,580,6224
1644185403.96887,-0.007019,0.010742,-0.990723,0.144519,0.386565,-0.14626,49,268,586,6336
1644185404.017265,-0.009277,0.011414,-0.991272,0.175053,0.432366,-0.115725,57,273,577,6224
1644185404.069715,-0.008728,0.012024,-0.992737,0.037649,0.462901,-0.161527,51,276,585,6224
1644185404.114093,-0.008301,0.009277,-0.991943,0.144519,0.432366,-0.115725,58,276,599,6240
1644185404.162463,-0.009399,0.011475,-0.99054,0.190321,0.417099,-0.069924,54,268,591,6224
1644185404.21084,-0.009216,0.009766,-0.992188,0.251389,0.401832,-0.100458,47,277,582,6224
1644185404.259254,-0.006958,0.008728,-0.993103,0.251389,0.447634,-0.130992,51,288,580,6192
1644185404.307608,-0.008606,0.012085,-0.991211,0.205588,0.401832,-0.207328,61,273,579,6176
1644185404.356021,-0.009277,0.00885,-0.99115,0.251389,0.432366,-0.222595,46,281,583,6192
1644185404.404422,-0.010742,0.010254,-0.990112,0.251389,0.340763,-0.161527,46,269,578,6256
1644185404.452824,-0.009094,0.011108,-0.988403,0.266656,0.417099,-0.115725,33,287,586,6240
1644185404.501165,-0.009521,0.00824,-0.992126,0.312458,0.432366,-0.024122,54,277,584,6224
1644185404.549584,-0.009521,0.010498,-0.990234,0.08345,0.24916,-0.069924,45,275,582,6192
1644185404.597986,-0.01062,0.009766,-0.990784,0.327725,0.325496,-0.314198,53,279,587,6224
1644185404.646779,-0.009216,0.008301,-0.990112,0.312458,0.432366,0.021679,55,276,594,6256
1644185404.694821,-0.012512,0.009033,-0.991211,0.144519,0.401832,0.006412,54,268,591,6176
1644185404.744758,-0.009521,0.011108,-0.990845,0.266656,0.310229,-0.176794,49,270,575,6224
1644185404.795104,-0.007141,0.008667,-0.992432,0.236122,0.462901,-0.069924,49,270,579,6224
1644185404.844929,-0.009338,0.009949,-0.992371,0.175053,0.447634,-0.14626,54,277,600,6240
1644185404.889559,-0.009827,0.008057,-0.992004,0.113985,0.325496,-0.176794,39,274,585,6224
1644185404.98536,-0.007812,0.009888,-0.992798,0.236122,0.432366,0.052214,48,271,583,6176
1644185405.033519,-0.010376,0.009949,-0.991455,0.236122,0.508702,0.021679,55,274,573,6192
1644185405.082596,-0.008362,0.008789,-0.988586,0.175053,0.371298,-0.207328,46,279,585,6224
1644185405.130254,-0.010254,0.011047,-0.992676,0.220855,0.386565,-0.130992,58,279,583,6224
1644185405.17866,-0.008057,0.010925,-0.991028,0.312458,0.325496,-0.085191,48,279,587,6192
1644185405.227046,-0.007324,0.008606,-0.992004,0.205588,0.371298,-0.176794,57,265,575,6256
1644185405.275425,-0.008789,0.012268,-0.989746,0.388794,0.462901,-0.176794,45,280,586,6256
1644185405.323847,-0.006653,0.012085,-0.989197,0.266656,0.340763,-0.207328,51,279,580,6256
1644185405.372252,-0.00708,0.009827,-0.993835,0.251389,0.447634,-0.100458,52,275,586,6224
1644185405.420632,-0.00946,0.011353,-0.989868,0.08345,0.523969,-0.054656,46,266,592,6224
1644185405.46899,-0.012146,0.010315,-0.992188,0.373527,0.371298,-0.069924,52,270,586,6240
1644185405.517403,-0.007324,0.011108,-0.993958,0.236122,0.462901,-0.054656,52,275,584,6224
1644185405.565808,-0.00647,0.011169,-0.99115,0.342992,0.264427,-0.161527,36,274,573,6192
1644185405.614199,-0.008972,0.009521,-0.990601,0.251389,0.462901,-0.115725,43,291,590,6224
1644185405.66261,-0.010254,0.011475,-0.99054,0.190321,0.279695,-0.085191,47,275,589,6240
1644185405.710989,-0.007935,0.007935,-0.989929,0.266656,0.432366,-0.069924,39,264,587,6176
1644185405.759374,-0.005371,0.009766,-0.989502,0.159786,0.386565,-0.176794,52,268,591,6176
1644185405.808074,-0.006409,0.011536,-0.991638,0.297191,0.386565,-0.207328,52,287,579,6288
1644185405.857888,-0.009888,0.009705,-0.990601,0.175053,0.523969,-0.14626,55,281,590,6240
1644185405.908167,-0.009705,0.010132,-0.99176,0.327725,0.386565,-0.069924,42,270,582,6240
1644185405.958493,-0.005615,0.010132,-0.989075,0.373527,0.310229,-0.176794,53,269,580,6224
1644185406.066851,-0.008301,0.012939,-0.992371,0.236122,0.462901,-0.192061,60,271,590,6256
1644185406.099114,-0.00885,0.011414,-0.987671,0.312458,0.340763,-0.039389,53,271,592,6240
1644185406.146535,-0.010376,0.010498,-0.992371,0.205588,0.539237,-0.14626,49,273,582,6256
1644185406.194938,-0.006592,0.006958,-0.988708,0.251389,0.325496,-0.039389,45,273,586,6224
1644185406.243315,-0.00769,0.013,-0.990051,0.312458,0.417099,-0.085191,46,269,580,6176
1644185406.291689,-0.010254,0.010681,-0.992493,0.159786,0.218626,-0.069924,53,286,590,6192
1644185406.340095,-0.009216,0.012085,-0.994385,0.144519,0.478168,-0.008855,60,266,590,6160
1644185406.388484,-0.009644,0.009766,-0.989502,0.175053,0.401832,-0.176794,49,275,584,6240
1644185406.436881,-0.010742,0.010376,-0.992432,0.35826,0.432366,-0.130992,51,266,590,6240
1644185406.485264,-0.006714,0.00946,-0.991333,0.205588,0.508702,-0.008855,49,265,589,6224
1644185406.533722,-0.01178,0.009216,-0.990845,0.236122,0.218626,0.006412,53,276,590,6224
1644185406.583398,-0.006226,0.009888,-0.990845,0.129252,0.233893,-0.054656,54,277,584,6224
1644185406.63383,-0.008484,0.011108,-0.992493,0.342992,0.386565,0.036947,52,273,589,6176
1644185406.683901,-0.007568,0.008606,-0.992188,0.281924,0.447634,-0.054656,52,270,591,6224
1644185406.775636,-0.010742,0.010315,-0.991699,0.404061,0.386565,0.021679,41,276,583,6224
1644185406.824059,-0.009644,0.009338,-0.990112,0.205588,0.294962,-0.039389,58,274,590,6176
1644185406.872726,-0.009216,0.010071,-0.989685,0.236122,0.417099,-0.130992,43,279,583,6240
1644185406.920801,-0.008118,0.009094,-0.99176,0.220855,0.432366,-0.054656,55,266,571,6160
1644185406.969234,-0.009399,0.009094,-0.993469,0.281924,0.386565,-0.14626,45,280,586,6192
1644185407.017609,-0.009888,0.010315,-0.994141,0.281924,0.462901,-0.054656,45,285,589,6224
1644185407.070829,-0.010376,0.009216,-0.992981,0.159786,0.600305,-0.268397,53,281,587,6240
1644185407.114389,-0.00885,0.01062,-0.991211,0.220855,0.356031,-0.100458,53,276,592,6160
1644185407.162808,-0.009705,0.007874,-0.991272,0.113985,0.401832,-0.344733,40,282,582,6256
1644185407.211166,-0.009399,0.010315,-0.995422,0.327725,0.24916,-0.039389,53,266,587,6192
1644185407.259575,-0.007812,0.006775,-0.992126,0.266656,0.310229,-0.100458,43,269,585,6224
1644185407.307932,-0.007629,0.013062,-0.989075,0.266656,0.401832,-0.115725,52,275,586,6128
1644185407.356349,-0.007019,0.010437,-0.990662,0.190321,0.462901,0.067481,47,285,596,6192
1644185407.404715,-0.006775,0.008911,-0.992371,0.022382,0.417099,-0.069924,39,276,587,6256
1644185407.453122,-0.00885,0.012085,-0.991211,0.220855,0.264427,-0.161527,43,283,585,6176
1644185407.501506,-0.008423,0.01001,-0.992126,0.113985,0.294962,-0.100458,48,271,578,6240
1644185407.549913,-0.009399,0.008972,-0.991089,0.312458,0.371298,-0.008855,51,271,583,6224
1644185407.598318,-0.011169,0.010437,-0.991882,0.35826,0.493435,0.067481,45,275,586,6288
1644185407.646702,-0.007812,0.008667,-0.990967,0.052916,0.447634,-0.069924,55,279,580,6240
1644185407.695762,-0.007996,0.011108,-0.990601,0.266656,0.462901,-0.14626,49,275,586,6256
1644185407.746896,-0.01062,0.009216,-0.98999,0.236122,0.294962,-0.115725,51,266,583,6288
1644185407.796624,-0.006592,0.010437,-0.991638,0.113985,0.401832,-0.024122,51,262,592,6192
1644185407.841969,-0.009033,0.010559,-0.990723,0.175053,0.279695,-0.008855,58,271,580,6240
1644185407.937092,-0.011047,0.01001,-0.990173,0.205588,0.508702,-0.054656,49,277,586,6224
1644185407.985543,-0.011719,0.01178,-0.992004,0.129252,0.386565,-0.130992,49,282,584,6224
1644185408.033859,-0.008057,0.011047,-0.993286,0.190321,0.325496,-0.176794,46,279,573,6240
1644185408.082836,-0.008484,0.00824,-0.99115,0.144519,0.294962,-0.085191,47,277,586,6240
1644185408.130655,-0.007812,0.010986,-0.99292,0.220855,0.325496,-0.069924,43,269,576,6176
1644185408.179022,-0.009094,0.010986,-0.989075,0.190321,0.24916,-0.100458,47,265,584,6224
1644185408.227412,-0.00824,0.006775,-0.99408,0.113985,0.371298,-0.008855,53,276,583,6160
1644185408.275809,-0.008179,0.009583,-0.994934,0.068183,0.356031,-0.008855,51,274,580,6176
1644185408.324179,-0.010559,0.007996,-0.992859,0.098718,0.478168,-0.085191,59,273,582,6256
1644185408.372615,-0.00946,0.009827,-0.991028,0.159786,0.447634,-0.14626,49,268,589,6192
1644185408.420977,-0.008423,0.009155,-0.992981,0.175053,0.432366,-0.100458,54,277,591,6192
1644185408.469392,-0.007019,0.009216,-0.990784,0.342992,0.401832,-0.069924,40,273,584,6192
1644185408.51777,-0.009155,0.010498,-0.99054,0.220855,0.386565,0.052214,43,279,585,6192
1644185408.566172,-0.007751,0.011353,-0.989197,0.113985,0.478168,0.021679,60,274,580,6176
1644185408.614737,-0.009033,0.010559,-0.990356,0.144519,0.447634,-0.14626,53,281,590,6288
1644185408.662969,-0.009705,0.010681,-0.993042,0.251389,0.508702,-0.054656,47,280,586,6176
1644185408.711346,-0.006409,0.008728,-0.989197,0.342992,0.340763,-0.039389,48,271,585,6224
1644185408.75974,-0.004028,0.010132,-0.989746,0.388794,0.310229,-0.054656,49,268,579,6224
1644185408.808137,-0.006042,0.011475,-0.99292,0.129252,0.523969,0.006412,48,283,585,6288
1644185408.857631,-0.009277,0.008667,-0.989868,0.144519,0.386565,-0.130992,43,286,590,6176
1644185408.907757,-0.009888,0.010986,-0.98938,0.159786,0.386565,-0.268397,54,285,591,6224
1644185408.958543,-0.008362,0.010925,-0.991089,0.113985,0.508702,-0.100458,48,276,573,6192
1644185409.002719,-0.008789,0.008728,-0.991028,0.129252,0.539237,-0.008855,51,279,587,6224
1644185409.100683,-0.005676,0.00885,-0.992798,0.373527,0.523969,0.082748,41,288,580,6224
1644185409.146915,-0.007751,0.010803,-0.991882,0.190321,0.310229,-0.298931,54,282,582,6240
1644185409.195274,-0.008545,0.013,-0.99176,0.297191,0.310229,-0.207328,39,281,590,6192
1644185409.243659,-0.009949,0.010803,-0.991943,0.129252,0.386565,-0.115725,43,276,578,6160
1644185409.292071,-0.01001,0.008484,-0.995544,0.312458,0.356031,-0.222595,45,280,584,6224
1644185409.340425,-0.009216,0.009399,-0.993347,0.205588,0.401832,-0.085191,39,266,576,6224
1644185409.388838,-0.008545,0.009216,-0.992065,0.190321,0.478168,-0.14626,54,280,572,6224
1644185409.437239,-0.00885,0.007935,-0.993591,0.098718,0.233893,-0.161527,47,285,586,6224
1644185409.485645,-0.004761,0.009216,-0.99115,0.342992,0.417099,-0.14626,52,277,582,6128
1644185409.534043,-0.009827,0.008911,-0.99353,0.281924,0.508702,-0.176794,51,276,587,6192
1644185409.58245,-0.005859,0.007202,-0.991821,0.266656,0.432366,-0.039389,47,275,589,6192
1644185409.630813,-0.008301,0.010559,-0.990234,0.251389,0.356031,-0.024122,53,269,573,6224
1644185409.679217,-0.009033,0.010803,-0.992737,0.220855,0.432366,-0.176794,52,275,596,6240
1644185409.727602,-0.01001,0.00946,-0.989929,0.266656,0.340763,-0.161527,48,274,583,6160
1644185409.775999,-0.009277,0.008362,-0.993713,0.251389,0.294962,-0.069924,46,276,587,6240
1644185409.824378,-0.009583,0.007202,-0.994873,0.205588,0.600305,-0.054656,51,276,580,6160
1644185409.872983,-0.00708,0.010498,-0.991333,0.220855,0.356031,-0.054656,51,288,587,6192
1644185409.921576,-0.006042,0.010437,-0.993896,0.266656,0.401832,0.036947,48,271,583,6256
1644185409.972496,-0.00592,0.010071,-0.992004,0.144519,0.294962,-0.100458,49,273,579,6256
1644185410.02261,-0.008362,0.012146,-0.991638,0.08345,0.508702,-0.100458,46,281,594,6224
1644185410.114773,-0.009338,0.010498,-0.993164,0.236122,0.401832,0.021679,57,277,586,6224
1644185410.163188,-0.006714,0.01001,-0.992493,0.205588,0.401832,-0.14626,54,270,577,6176
1644185410.21156,-0.005493,0.014038,-0.990234,-0.008153,0.493435,-0.008855,48,276,576,6240
1644185410.25994,-0.008667,0.009583,-0.992554,0.144519,0.417099,-0.069924,53,279,585,6160
1644185410.308325,-0.008789,0.010315,-0.991821,0.068183,0.371298,-0.100458,49,275,586,6224
1644185410.356735,-0.010254,0.008179,-0.993042,0.251389,0.310229,-0.130992,46,279,585,6224
1644185410.405212,-0.010132,0.010376,-0.991211,0.327725,0.356031,-0.130992,55,274,580,6192
1644185410.453535,-0.009644,0.009033,-0.991699,0.159786,0.462901,-0.100458,45,280,572,6112
1644185410.501898,-0.006409,0.010559,-0.993896,0.205588,0.539237,-0.115725,49,260,577,6224
1644185410.550327,-0.009949,0.009216,-0.990723,0.251389,0.356031,-0.115725,43,266,583,6224
1644185410.598717,-0.010071,0.009094,-0.994263,0.205588,0.447634,-0.024122,41,276,576,6224
1644185410.647104,-0.006592,0.010315,-0.992737,0.251389,0.371298,-0.14626,41,279,585,6224
1644185410.695495,-0.008789,0.010437,-0.99231,0.373527,0.417099,-0.192061,51,279,590,6224
1644185410.743889,-0.006836,0.006409,-0.991882,0.266656,0.417099,-0.192061,60,283,580,6160
1644185410.792295,-0.008789,0.010315,-0.987915,0.327725,0.417099,-0.176794,51,279,587,6224
1644185410.840663,-0.008362,0.008667,-0.991455,0.113985,0.279695,-0.130992,46,274,583,6160
1644185410.889064,-0.006653,0.009888,-0.990906,0.327725,0.340763,-0.115725,48,276,585,6240
1644185410.937627,-0.007996,0.011963,-0.991455,0.190321,0.371298,-0.039389,52,290,577,6224
1644185410.986119,-0.007324,0.01123,-0.992065,0.129252,0.493435,-0.054656,57,270,586,6224
1644185411.036909,-0.010437,0.008606,-0.989868,-0.008153,0.340763,-0.054656,54,285,586,6176
1644185411.090337,-0.007751,0.010681,-0.992859,0.205588,0.264427,-0.14626,48,281,592,6240
1644185411.136852,-0.008606,0.010132,-0.99408,0.190321,0.386565,0.006412,57,275,586,6224
1644185411.227761,-0.011169,0.010986,-0.992981,0.220855,0.294962,-0.100458,57,285,579,6256
1644185411.276144,-0.007568,0.009644,-0.990723,0.190321,0.432366,-0.268397,48,279,587,6192
1644185411.324548,-0.007385,0.007019,-0.991333,0.175053,0.371298,-0.176794,51,283,580,6224
1644185411.372945,-0.007751,0.009399,-0.990051,0.236122,0.401832,-0.161527,57,282,577,6192
1644185411.421337,-0.010803,0.008362,-0.994568,0.052916,0.371298,-0.130992,51,281,576,6176
1644185411.469748,-0.009827,0.010986,-0.992554,0.312458,0.386565,-0.069924,53,283,583,6176
1644185411.518131,-0.005493,0.011658,-0.990356,0.419328,0.432366,-0.024122,42,280,575,6256
1644185411.566531,-0.010193,0.011475,-0.991455,0.159786,0.432366,-0.115725,49,270,577,6240
1644185411.614908,-0.009277,0.009399,-0.990662,0.129252,0.279695,-0.054656,51,279,583,6240
1644185411.66332,-0.012085,0.007751,-0.994812,0.037649,0.264427,-0.115725,43,276,587,6176
1644185411.711709,-0.008118,0.011536,-0.989685,0.129252,0.386565,-0.069924,52,270,586,6224
1644185411.760085,-0.006958,0.01123,-0.990234,0.220855,0.371298,0.021679,45,277,582,6240
1644185411.808533,-0.009399,0.007568,-0.99231,0.175053,0.417099,-0.100458,51,279,585,6240
1644185411.856912,-0.007812,0.007019,-0.990845,0.144519,0.478168,-0.207328,54,277,584,6224
1644185411.905321,-0.00824,0.00946,-0.989319,0.236122,0.417099,-0.008855,60,266,585,6224
1644185411.953716,-0.009338,0.010925,-0.991821,0.35826,0.340763,-0.054656,49,275,593,6224
1644185412.002079,-0.009399,0.010559,-0.990662,0.113985,0.462901,-0.039389,53,269,583,6176
1644185412.069977,-0.007935,0.00946,-0.990234,0.144519,0.371298,-0.085191,46,281,585,6224
1644185412.101664,-0.008667,0.008362,-0.991028,0.068183,0.432366,-0.115725,55,276,585,6240
1644185412.156579,-0.007996,0.009277,-0.989746,-0.008153,0.447634,0.021679,52,273,577,6176
1644185412.201874,-0.006836,0.010498,-0.990662,0.251389,0.279695,-0.115725,54,270,593,6240
1644185412.255448,-0.008362,0.008728,-0.990234,0.327725,0.218626,-0.298931,49,292,584,6224
1644185412.340832,-0.010315,0.007507,-0.991699,0.190321,0.325496,-0.176794,71,265,584,6176
1644185412.389263,-0.006958,0.009094,-0.993103,0.312458,0.478168,-0.222595,48,279,592,6176
1644185412.437587,-0.007568,0.00885,-0.991333,0.175053,0.523969,-0.024122,47,270,579,6176
1644185412.485976,-0.007751,0.014099,-0.989075,0.068183,0.310229,0.006412,60,283,569,6224
1644185412.534387,-0.008667,0.009705,-0.991211,0.159786,0.432366,-0.069924,43,269,585,6224
1644185412.582805,-0.009766,0.008789,-0.993042,0.129252,0.264427,-0.085191,46,279,583,6192
1644185412.631169,-0.005005,0.009949,-0.990784,0.205588,0.417099,-0.130992,47,280,582,6176
1644185412.679559,-0.009644,0.01062,-0.991577,0.220855,0.340763,-0.14626,51,279,585,6256
1644185412.727966,-0.006958,0.012024,-0.994019,0.281924,0.310229,-0.176794,52,285,584,6160
1644185412.776348,-0.009766,0.009583,-0.98999,0.190321,0.371298,-0.207328,42,268,582,6256
1644185412.824726,-0.010559,0.010681,-0.990417,0.159786,0.386565,-0.115725,55,281,583,6224
1644185412.873153,-0.006958,0.007324,-0.992065,0.175053,0.417099,-0.054656,58,293,583,6160
1644185412.921506,-0.006897,0.009888,-0.992432,0.144519,0.600305,-0.130992,46,286,573,6240
1644185412.969916,-0.008423,0.011353,-0.98938,0.342992,0.325496,-0.130992,45,287,593,6176
1644185413.018315,-0.00647,0.012146,-0.991699,0.327725,0.478168,-0.176794,57,275,586,6224
1644185413.0852,-0.009277,0.009888,-0.99231,0.022382,0.310229,-0.024122,48,269,583,6192
1644185413.116431,-0.009644,0.010925,-0.98999,0.052916,0.401832,-0.192061,51,274,583,6256
1644185413.211888,-0.009216,0.009583,-0.990845,0.236122,0.386565,-0.161527,51,266,585,6176
1644185413.260252,-0.010437,0.010803,-0.990173,0.037649,0.432366,-0.100458,42,275,577,6224
1644185413.308671,-0.007385,0.007996,-0.990417,0.175053,0.401832,-0.130992,54,275,589,6224
1644185413.357643,-0.010559,0.007141,-0.99292,0.052916,0.356031,-0.192061,45,285,584,6240
1644185413.405442,-0.008789,0.009033,-0.992615,0.236122,0.401832,-0.024122,46,276,580,6224
1644185413.453864,-0.009277,0.010132,-0.992065,0.205588,0.478168,-0.085191,39,276,578,6240
1644185413.50248,-0.012207,0.00708,-0.994446,0.08345,0.432366,-0.054656,47,275,586,6176
1644185413.550685,-0.011841,0.007263,-0.993652,0.129252,0.356031,0.006412,45,285,577,6176
1644185413.599077,-0.012207,0.007751,-0.993591,0.144519,0.294962,-0.085191,43,271,576,6224
1644185413.647446,-0.007446,0.006958,-0.990173,0.08345,0.172824,-0.069924,52,273,579,6240
1644185413.695857,-0.004456,0.014099,-0.991028,0.35826,0.447634,-0.130992,46,276,592,6160
1644185413.744246,-0.008972,0.009705,-0.992249,0.327725,0.432366,-0.069924,34,291,583,6176
1644185413.792655,-0.004456,0.009949,-0.991455,0.129252,0.386565,-0.054656,46,269,578,6192
1644185413.841033,-0.008057,0.011047,-0.99176,0.205588,0.340763,-0.054656,53,276,585,6256
1644185413.889433,-0.007202,0.01001,-0.990417,-0.008153,0.24916,-0.161527,49,282,582,6224
1644185413.937796,-0.00824,0.009583,-0.991638,0.220855,0.447634,-0.222595,49,275,589,6256
1644185413.986214,-0.006958,0.011902,-0.990906,0.220855,0.325496,-0.085191,53,276,587,6224
1644185414.034898,-0.009583,0.014038,-0.991882,0.205588,0.447634,0.006412,48,274,583,6288
1644185414.093711,-0.008362,0.01062,-0.990051,0.35826,0.447634,-0.222595,52,268,586,6240
1644185414.132688,-0.007324,0.00946,-0.991638,0.052916,0.508702,-0.176794,40,280,582,6192
1644185414.182272,-0.009949,0.009583,-0.991577,0.327725,0.356031,-0.069924,46,281,580,6288
1644185414.232312,-0.009888,0.009338,-0.993347,0.266656,0.478168,-0.039389,58,269,587,6288
1644185414.277434,-0.01178,0.013367,-0.993469,0.068183,0.417099,-0.344733,48,279,576,6256
1644185414.37333,-0.009277,0.009277,-0.993835,0.251389,0.401832,-0.039389,46,279,576,6256
1644185414.421707,-0.009705,0.008179,-0.99115,0.388794,0.432366,-0.024122,49,280,579,6224
1644185414.470105,-0.007385,0.011902,-0.990723,0.236122,0.325496,-0.161527,52,275,586,6240
1644185414.518498,-0.01001,0.009888,-0.991028,0.236122,0.417099,-0.069924,49,280,577,6176
1644185414.566879,-0.007996,0.010742,-0.992432,0.144519,0.356031,-0.222595,42,275,577,6224
1644185414.615289,-0.009155,0.008118,-0.991455,0.098718,0.493435,-0.192061,51,271,580,6128
1644185414.663686,-0.007446,0.008057,-0.990662,0.35826,0.508702,-0.054656,59,268,584,6240
1644185414.712068,-0.007751,0.009644,-0.991943,0.144519,0.432366,-0.130992,40,280,586,6256
1644185414.760463,-0.008362,0.011475,-0.989868,0.220855,0.432366,-0.176794,45,275,582,6240
1644185414.808865,-0.008118,0.009705,-0.99054,0.159786,0.447634,-0.085191,49,280,584,6160
1644185414.857292,-0.008667,0.006287,-0.990906,0.175053,0.356031,-0.176794,59,270,596,6192
1644185414.905661,-0.009888,0.011292,-0.991455,0.129252,0.310229,-0.100458,46,279,592,6160
1644185414.954091,-0.005981,0.009827,-0.992737,0.068183,0.508702,-0.268397,53,269,583,6240
1644185415.002482,-0.010681,0.008911,-0.993103,0.144519,0.310229,0.006412,49,270,582,6128
1644185415.067078,-0.007629,0.007996,-0.99115,0.175053,0.233893,-0.14626,38,285,579,6240
1644185415.101833,-0.007263,0.00885,-0.991699,0.434595,0.371298,-0.008855,40,280,586,6176
1644185415.147609,-0.009766,0.009766,-0.990417,0.175053,0.340763,-0.039389,49,277,579,6224
1644185415.195957,-0.007935,0.009827,-0.992798,0.159786,0.294962,-0.115725,46,269,583,6160
1644185415.244382,-0.008179,0.009827,-0.98999,0.098718,0.432366,-0.085191,38,268,577,6160
1644185415.293148,-0.008911,0.008057,-0.990417,0.327725,0.401832,0.052214,49,270,579,6224
1644185415.343792,-0.007507,0.009521,-0.990295,0.175053,0.417099,-0.192061,41,276,580,6176
1644185415.393899,-0.009521,0.010071,-0.992004,0.159786,0.371298,-0.207328,47,277,577,6192
1644185415.438777,-0.007935,0.008179,-0.992432,0.205588,0.447634,-0.100458,53,286,597,6288
1644185415.534879,-0.009155,0.007385,-0.989563,0.144519,0.340763,-0.100458,57,280,586,6160
1644185415.583158,-0.008179,0.007874,-0.992065,0.266656,0.340763,-0.344733,52,275,572,6256
1644185415.63154,-0.008667,0.009888,-0.993164,0.159786,0.401832,-0.115725,54,282,572,6176
1644185415.679917,-0.008667,0.01062,-0.991333,0.434595,0.417099,-0.192061,61,277,584,6256
1644185415.728306,-0.00946,0.01001,-0.992676,0.068183,0.523969,-0.130992,53,276,576,6224
1644185415.776702,-0.008545,0.009277,-0.993042,0.297191,0.417099,-0.161527,54,270,586,6240
1644185415.82513,-0.007202,0.011902,-0.994446,0.220855,0.371298,-0.207328,43,283,590,6224
1644185415.873548,-0.007935,0.010315,-0.990051,0.419328,0.508702,-0.222595,53,276,587,6224
1644185415.921942,-0.009766,0.009644,-0.993347,0.190321,0.478168,-0.024122,52,273,589,6192
1644185415.970294,-0.011169,0.009827,-0.992004,0.297191,0.432366,-0.054656,55,279,590,6240
1644185416.018719,-0.008118,0.009766,-0.992065,0.190321,0.554504,-0.268397,58,283,578,6224
1644185416.074385,-0.007996,0.010132,-0.992676,0.266656,0.478168,0.006412,49,280,582,6192
1644185416.115495,-0.007324,0.010803,-0.991211,0.205588,0.539237,0.052214,47,285,582,6160
1644185416.163844,-0.009277,0.008789,-0.991516,0.144519,0.371298,-0.039389,43,269,590,6240
1644185416.212243,-0.006042,0.009155,-0.990967,0.052916,0.371298,-0.192061,48,279,590,6224
1644185416.260615,-0.008972,0.009277,-0.99115,0.220855,0.417099,-0.314198,48,279,590,6176
1644185416.309003,-0.006042,0.009888,-0.989563,0.35826,0.340763,-0.054656,58,276,599,6288
1644185416.357429,-0.009338,0.01001,-0.991211,0.175053,0.417099,-0.100458,47,277,584,6176
1644185416.405816,-0.006714,0.011108,-0.992798,0.251389,0.371298,-0.100458,51,276,590,6256
1644185416.454678,-0.00769,0.008057,-0.98999,0.129252,0.371298,-0.054656,49,282,577,6224
1644185416.505229,-0.008972,0.008911,-0.990417,0.175053,0.356031,-0.008855,47,270,589,6240
1644185416.555554,-0.010498,0.009216,-0.992065,0.342992,0.447634,-0.176794,47,277,579,6224
1644185416.600397,-0.007141,0.009094,-0.992432,0.190321,0.386565,0.006412,48,279,585,6128
1644185416.696159,-0.008606,0.007507,-0.989868,0.236122,0.401832,-0.069924,54,280,593,6192
1644185416.744822,-0.008545,0.012207,-0.988831,0.35826,0.24916,-0.161527,42,275,589,6224
1644185416.792963,-0.008301,0.012207,-0.993225,0.190321,0.386565,-0.176794,49,273,577,6224
1644185416.841353,-0.009155,0.008545,-0.991821,0.022382,0.447634,-0.054656,51,281,576,6224
1644185416.889788,-0.008423,0.008728,-0.993408,0.205588,0.417099,-0.298931,45,270,570,6240
1644185416.938179,-0.010681,0.008972,-0.989441,0.251389,0.554504,0.006412,48,288,583,6176
1644185416.986576,-0.00708,0.008667,-0.989258,0.236122,0.325496,-0.100458,47,280,577,6256
1644185417.03502,-0.011597,0.008911,-0.990906,0.312458,0.523969,-0.207328,46,269,580,6224
1644185417.089055,-0.011108,0.015076,-0.989258,0.220855,0.401832,-0.069924,47,280,591,6240
1644185417.131771,-0.007324,0.00885,-0.990173,0.037649,0.371298,0.006412,62,271,583,6192
1644185417.180101,-0.005798,0.011292,-0.990723,0.35826,0.585038,-0.054656,47,277,591,6160
1644185417.228491,-0.010437,0.010071,-0.992859,0.205588,0.279695,-0.069924,47,282,586,6224
1644185417.276869,-0.012268,0.010742,-0.991333,0.266656,0.294962,-0.207328,57,268,589,6192
1644185417.325464,-0.006714,0.01123,-0.992798,0.205588,0.462901,-0.085191,45,287,586,6224
1644185417.37496,-0.007568,0.011963,-0.990601,0.068183,0.294962,-0.192061,46,283,583,6224
1644185417.425169,-0.011902,0.011536,-0.993103,0.434595,0.447634,-0.161527,52,275,579,6224
1644185417.475391,-0.009399,0.009399,-0.990967,0.205588,0.493435,0.006412,59,282,586,6192
1644185417.567267,-0.010559,0.008972,-0.992798,0.281924,0.386565,0.036947,64,270,589,6224
1644185417.615624,-0.008118,0.00885,-0.991638,0.007115,0.432366,-0.14626,42,280,575,6256
1644185417.664023,-0.007629,0.008606,-0.993286,0.08345,0.401832,-0.14626,45,277,591,6192
1644185417.712432,-0.007874,0.007202,-0.991272,0.281924,0.356031,-0.176794,57,280,589,6240
1644185417.760799,-0.007812,0.010864,-0.991943,0.068183,0.462901,-0.100458,47,273,589,6160
1644185417.809206,-0.008118,0.009705,-0.989868,0.190321,0.417099,-0.268397,45,273,598,6176
1644185417.857585,-0.009216,0.007935,-0.992798,0.266656,0.462901,-0.130992,59,277,579,6240
1644185417.906038,-0.008728,0.009155,-0.990845,0.251389,0.462901,0.036947,62,279,585,6240
1644185417.95444,-0.010864,0.009094,-0.993164,0.251389,0.432366,-0.192061,40,273,575,6112
1644185418.002829,-0.005249,0.00885,-0.991089,0.175053,0.325496,-0.222595,53,276,583,6240
1644185418.065877,-0.008057,0.011169,-0.990479,0.175053,0.356031,-0.161527,58,279,580,6176
1644185418.101321,-0.008911,0.009888,-0.991455,0.220855,0.417099,-0.069924,52,282,584,6224
1644185418.147961,-0.009888,0.010376,-0.990967,0.159786,0.386565,-0.054656,39,276,590,6224
1644185418.196389,-0.008057,0.007019,-0.992493,0.251389,0.264427,-0.054656,46,281,583,6192
1644185418.244804,-0.007874,0.01062,-0.992126,0.205588,0.493435,-0.161527,57,277,582,6224
1644185418.293196,-0.00946,0.008911,-0.991882,0.236122,0.340763,-0.085191,54,273,582,6176
1644185418.341634,-0.007874,0.010498,-0.991272,0.281924,0.340763,-0.069924,52,282,575,6224
1644185418.390742,-0.008423,0.010315,-0.990723,0.220855,0.508702,-0.192061,54,270,584,6176
1644185418.438377,-0.010559,0.008606,-0.991211,0.190321,0.432366,-0.100458,55,274,590,6224
1644185418.487834,-0.007629,0.009216,-0.990723,0.129252,0.356031,-0.25313,46,279,578,6192
1644185418.538225,-0.009705,0.009827,-0.994507,0.236122,0.478168,-0.085191,47,282,582,6224
1644185418.589425,-0.009583,0.012451,-0.991882,0.129252,0.172824,-0.176794,53,274,578,6288
1644185418.680341,-0.010437,0.010193,-0.992676,0.113985,0.371298,-0.069924,43,276,583,6192
1644185418.728704,-0.009705,0.009949,-0.991272,0.220855,0.294962,-0.100458,53,269,587,6176
1644185418.777104,-0.009216,0.008484,-0.990662,0.236122,0.478168,-0.054656,46,271,585,6224
1644185418.825498,-0.00946,0.008118,-0.992859,0.327725,0.539237,0.052214,46,276,580,6192
1644185418.873905,-0.008789,0.010498,-0.98822,0.297191,0.432366,-0.085191,53,279,578,6224
1644185418.922305,-0.008911,0.009094,-0.99115,0.175053,0.356031,-0.176794,54,268,577,6240
1644185418.970681,-0.006653,0.01062,-0.991577,0.236122,0.417099,-0.085191,40,280,591,6192
1644185419.019084,-0.009888,0.010071,-0.991516,0.022382,0.508702,-0.069924,46,274,587,6192
1644185419.069903,-0.008179,0.010803,-0.988403,0.052916,0.386565,-0.207328,48,271,592,6256
1644185419.115781,-0.008606,0.008972,-0.991638,0.052916,0.401832,-0.069924,51,281,576,6192
1644185419.164217,-0.009094,0.009216,-0.992493,0.190321,0.508702,0.006412,59,285,584,6176
1644185419.212623,-0.010132,0.011047,-0.991272,0.129252,0.310229,-0.130992,47,275,577,6192
1644185419.261009,-0.006287,0.01416,-0.989563,0.327725,0.340763,0.021679,58,276,587,6176
1644185419.310173,-0.009399,0.010681,-0.991028,0.175053,0.340763,-0.14626,46,276,594,6176
1644185419.360698,-0.007202,0.00946,-0.991272,0.175053,0.401832,-0.14626,43,271,585,6192
1644185419.4107,-0.009705,0.010071,-0.99292,0.113985,0.279695,-0.176794,46,281,580,6176
1644185419.455759,-0.008972,0.00946,-0.993958,0.175053,0.462901,-0.161527,45,268,591,6224
1644185419.55134,-0.008057,0.010437,-0.991943,0.236122,0.356031,-0.085191,48,291,594,6176
1644185419.59974,-0.008301,0.009583,-0.99585,0.022382,0.386565,-0.161527,46,279,587,6224
1644185419.648141,-0.007385,0.010071,-0.992188,0.236122,0.157557,-0.054656,47,280,589,6240
1644185419.696539,-0.007629,0.012756,-0.990906,0.068183,0.340763,-0.100458,43,269,576,6224
1644185419.744919,-0.011536,0.009216,-0.990173,0.190321,0.478168,-0.115725,41,279,592,6240
1644185419.793448,-0.009644,0.011047,-0.990906,0.159786,0.478168,-0.115725,54,270,584,6256
1644185419.841767,-0.008972,0.008118,-0.991943,0.251389,0.340763,-0.100458,55,283,587,6224
1644185419.890158,-0.007812,0.010803,-0.991516,0.129252,0.523969,-0.008855,45,282,584,6240
1644185419.938551,-0.007568,0.011292,-0.990906,0.190321,0.294962,-0.115725,41,276,578,6224
1644185419.986938,-0.008057,0.010498,-0.992554,0.205588,0.356031,-0.085191,46,281,587,6176
1644185420.035337,-0.009888,0.01123,-0.992554,0.175053,0.462901,-0.069924,43,279,587,6160
1644185420.092652,-0.00769,0.007568,-0.992554,0.251389,0.401832,-0.054656,48,286,590,6128
1644185420.132089,-0.009216,0.00769,-0.989807,0.159786,0.585038,0.036947,53,279,583,6224
1644185420.180467,-0.007751,0.008301,-0.991821,0.129252,0.386565,-0.207328,47,270,582,6224
1644185420.228859,-0.006897,0.010437,-0.99292,0.144519,0.478168,-0.115725,57,277,582,6240
1644185420.277235,-0.005859,0.01001,-0.989563,0.236122,0.371298,-0.069924,43,276,583,6176
1644185420.325649,-0.006348,0.010925,-0.994141,0.281924,0.417099,-0.161527,45,280,584,6256
1644185420.37441,-0.009949,0.01001,-0.990845,0.297191,0.386565,0.006412,45,285,579,6224
1644185420.424623,-0.008118,0.008057,-0.98999,0.144519,0.24916,-0.222595,49,273,577,6224
1644185420.475001,-0.007812,0.00824,-0.991638,0.251389,0.386565,-0.192061,40,277,584,6240
1644185420.520153,-0.008972,0.007385,-0.992859,0.327725,0.203359,-0.314198,51,288,583,6240
1644185420.615985,-0.009827,0.009155,-0.991028,0.113985,0.386565,-0.176794,49,277,582,6192
1644185420.664416,-0.006653,0.009094,-0.992004,0.098718,0.356031,-0.039389,47,287,586,6224
1644185420.712777,-0.007141,0.010742,-0.990662,0.220855,0.279695,-0.115725,48,266,592,6160
1644185420.761167,-0.007568,0.009644,-0.992065,0.190321,0.417099,-0.069924,45,273,586,6224
1644185420.809577,-0.008179,0.01001,-0.990417,0.205588,0.432366,0.021679,54,273,586,6240
1644185420.858016,-0.005737,0.007996,-0.994385,0.098718,0.417099,0.021679,46,269,580,6224
1644185420.906406,-0.006409,0.009644,-0.990662,0.434595,0.585038,-0.222595,49,282,584,6256
1644185420.954948,-0.007019,0.009827,-0.991333,0.251389,0.386565,-0.237863,45,275,589,6192
1644185421.0032,-0.006287,0.013733,-0.991455,0.129252,0.417099,-0.14626,41,276,580,6224
1644185421.065927,-0.010681,0.010559,-0.992249,0.281924,0.478168,-0.039389,49,282,584,6176
1644185421.100709,-0.00769,0.009155,-0.991516,0.281924,0.462901,-0.100458,45,268,589,6224
1644185421.148329,-0.009705,0.010071,-0.990967,0.175053,0.356031,-0.008855,61,280,589,6240
1644185421.19672,-0.009338,0.012573,-0.990112,0.297191,0.294962,-0.085191,42,280,572,6224
1644185421.245198,-0.007935,0.009888,-0.992065,0.205588,0.478168,-0.176794,57,268,586,6224
1644185421.293493,-0.009827,0.008789,-0.990601,0.068183,0.401832,-0.039389,47,282,596,6224
1644185421.341897,-0.007751,0.010925,-0.991516,0.236122,0.340763,-0.100458,54,280,593,6240
1644185421.390296,-0.006042,0.007568,-0.990723,0.205588,0.447634,-0.039389,54,282,596,6256
1644185421.438685,-0.010925,0.009094,-0.991333,0.266656,0.356031,-0.115725,48,271,585,6160
1644185421.487074,-0.01001,0.009399,-0.992798,0.220855,0.356031,-0.14626,53,279,599,6224
1644185421.535678,-0.009338,0.012146,-0.990479,0.251389,0.401832,-0.039389,48,281,580,6224
1644185421.586277,-0.010559,0.011475,-0.989624,0.190321,0.371298,-0.14626,54,277,582,6176
1644185421.636391,-0.012268,0.012512,-0.991516,0.404061,0.432366,-0.207328,51,276,583,6192
1644185421.681434,-0.008606,0.009766,-0.99231,0.266656,0.493435,-0.207328,49,280,579,6240
1644185421.777418,-0.010437,0.012939,-0.991577,0.113985,0.264427,-0.069924,48,266,585,6240
1644185421.825809,-0.009155,0.009583,-0.98999,0.297191,0.264427,-0.085191,53,276,576,6240
1644185421.874266,-0.010376,0.009094,-0.992432,0.236122,0.401832,-0.25313,54,277,596,6192
1644185421.922658,-0.009277,0.010315,-0.990967,0.068183,0.371298,-0.14626,46,276,590,6256
1644185421.971051,-0.009583,0.010193,-0.994019,0.159786,0.478168,-0.192061,57,265,591,6224
1644185422.019436,-0.007874,0.007507,-0.994141,0.205588,0.432366,-0.115725,59,273,579,6224
1644185422.068734,-0.009033,0.009338,-0.99054,0.129252,0.447634,0.036947,51,276,597,6224
1644185422.116189,-0.009155,0.008301,-0.990356,0.159786,0.371298,0.052214,55,283,571,6240
1644185422.164695,-0.009399,0.011047,-0.992798,0.342992,0.310229,-0.054656,41,274,585,6224
1644185422.212986,-0.010803,0.010437,-0.98938,0.205588,0.264427,-0.008855,54,282,584,6176
1644185422.261358,-0.008118,0.012024,-0.992981,0.220855,0.417099,-0.14626,45,277,582,6224
1644185422.309754,-0.007874,0.007202,-0.992065,0.144519,0.401832,0.006412,53,269,578,6224
1644185422.358153,-0.008179,0.00708,-0.993958,0.297191,0.432366,-0.161527,48,271,580,6224
1644185422.406533,-0.006897,0.008118,-0.995605,0.190321,0.310229,-0.161527,51,283,594,6192
1644185422.454921,-0.008911,0.009338,-0.992432,0.08345,0.401832,-0.14626,54,273,586,6240
1644185422.503296,-0.00885,0.011047,-0.995544,0.251389,0.493435,0.036947,48,274,594,6192
1644185422.551712,-0.007446,0.010498,-0.990479,0.312458,0.279695,-0.298931,47,275,586,6240
1644185422.600098,-0.009033,0.011169,-0.990723,0.236122,0.417099,-0.039389,52,282,584,6224
1644185422.648501,-0.006714,0.009888,-0.990967,0.236122,0.371298,-0.161527,48,281,585,6192
1644185422.697103,-0.008362,0.010986,-0.990784,0.098718,0.325496,-0.069924,39,279,587,6224
1644185422.747344,-0.008728,0.009094,-0.990356,0.190321,0.447634,-0.25313,54,269,587,6192
1644185422.797879,-0.007446,0.010437,-0.989746,0.266656,0.432366,-0.115725,46,276,587,6176
1644185422.84258,-0.009705,0.010132,-0.990967,0.205588,0.432366,-0.130992,40,282,593,6176
1644185422.938888,-0.007141,0.00946,-0.99176,0.327725,0.585038,-0.024122,40,268,579,6176
1644185422.987287,-0.009644,0.009705,-0.991821,0.220855,0.493435,0.006412,51,266,578,6224
1644185423.035671,-0.007019,0.008118,-0.990967,0.129252,0.310229,-0.008855,46,291,592,6224
1644185423.091978,-0.007935,0.009338,-0.992554,0.434595,0.371298,-0.115725,52,280,586,6224
1644185423.132513,-0.010315,0.009399,-0.992554,0.190321,0.401832,-0.192061,43,274,594,6176
1644185423.18083,-0.009521,0.010132,-0.993103,0.205588,0.508702,-0.192061,57,273,593,6224
1644185423.229218,-0.010681,0.011414,-0.990967,0.236122,0.478168,-0.100458,53,279,587,6240
1644185423.277597,-0.009766,0.010376,-0.99292,0.266656,0.294962,-0.130992,54,265,586,6192
1644185423.326004,-0.009583,0.008484,-0.992615,0.08345,0.325496,-0.176794,45,275,579,6160
1644185423.374397,-0.008667,0.007996,-0.993713,0.159786,0.371298,-0.130992,45,268,577,6240
1644185423.422805,-0.009888,0.011475,-0.990601,0.175053,0.569771,-0.100458,54,275,584,6224
1644185423.471223,-0.009216,0.01062,-0.991028,0.251389,0.417099,-0.115725,46,281,585,6224
1644185423.522396,-0.00415,0.009827,-0.991028,0.205588,0.356031,-0.069924,57,270,575,6240
1644185423.571886,-0.006836,0.007385,-0.99054,0.144519,0.356031,-0.069924,51,279,583,6192
1644185423.617038,-0.007141,0.009766,-0.99054,0.037649,0.462901,-0.008855,48,279,587,6176
1644185423.713165,-0.00946,0.008667,-0.99115,0.175053,0.371298,-0.161527,58,274,592,6256
1644185423.761514,-0.009399,0.008057,-0.989624,0.205588,0.310229,-0.130992,58,274,578,6256
1644185423.809935,-0.009033,0.011414,-0.991211,0.35826,0.447634,-0.100458,60,276,587,6224
1644185423.858333,-0.009399,0.009216,-0.992737,0.373527,0.371298,-0.130992,48,276,583,6192
1644185423.906762,-0.010315,0.01178,-0.992859,0.220855,0.340763,-0.008855,42,275,586,6176
1644185423.955163,-0.008972,0.00769,-0.991882,0.312458,0.340763,-0.115725,51,276,578,6224
1644185424.003531,-0.008911,0.011475,-0.993774,0.129252,0.447634,-0.069924,48,281,583,6240
1644185424.067754,-0.00708,0.008179,-0.990601,0.068183,0.340763,-0.176794,47,282,591,6160
1644185424.102777,-0.011047,0.009583,-0.988525,0.190321,0.417099,-0.024122,45,280,586,6256
1644185424.148693,-0.007263,0.008911,-0.989075,0.281924,0.340763,-0.25313,36,281,578,6080
1644185424.197115,-0.008728,0.010437,-0.993469,0.297191,0.386565,-0.069924,48,271,580,6176
1644185424.245508,-0.010559,0.007751,-0.989502,0.113985,0.233893,-0.130992,45,277,579,6224
1644185424.293909,-0.00769,0.007935,-0.992004,0.144519,0.432366,-0.039389,39,288,580,6224
1644185424.34232,-0.007385,0.007996,-0.990601,0.159786,0.340763,0.052214,52,277,577,6160
1644185424.390686,-0.008179,0.010132,-0.99115,0.327725,0.401832,-0.039389,42,275,591,6224
1644185424.439074,-0.006897,0.010864,-0.986816,0.175053,0.310229,-0.237863,62,266,583,6256
1644185424.487549,-0.009033,0.011292,-0.992249,0.190321,0.386565,-0.069924,61,273,591,6224
1644185424.536285,-0.008118,0.009827,-0.994507,0.190321,0.539237,-0.25313,55,276,587,6256
1644185424.586816,-0.007874,0.009888,-0.991516,0.205588,0.279695,-0.100458,52,280,591,6224
1644185424.63714,-0.008911,0.011719,-0.991211,0.312458,0.401832,-0.069924,53,286,592,6224
1644185424.687049,-0.007324,0.007812,-0.990417,0.251389,0.401832,-0.100458,49,265,579,6240
1644185424.777819,-0.00946,0.008911,-0.991943,0.205588,0.386565,-0.192061,54,282,584,6224
1644185424.826205,-0.008484,0.010742,-0.990479,0.220855,0.325496,-0.161527,49,260,579,6176
1644185424.874884,-0.011108,0.010254,-0.990112,0.220855,0.417099,-0.176794,39,283,576,6224
1644185424.923027,-0.007202,0.010803,-0.990356,0.175053,0.478168,-0.130992,53,283,587,6160
1644185424.971397,-0.006653,0.009521,-0.991699,0.037649,0.371298,-0.130992,58,274,576,6256
1644185425.019792,-0.008423,0.011353,-0.992554,0.220855,0.371298,-0.085191,46,281,573,6240
1644185425.068971,-0.007751,0.014282,-0.99115,0.281924,0.294962,0.036947,60,266,587,6224
1644185425.116554,-0.008911,0.01062,-0.992371,0.327725,0.508702,-0.161527,35,285,591,6240
1644185425.164934,-0.01178,0.009399,-0.992126,0.175053,0.310229,-0.176794,49,270,572,6224
1644185425.21332,-0.010681,0.010803,-0.994751,0.159786,0.401832,-0.130992,53,281,578,6224
1644185425.261709,-0.011292,0.009949,-0.990417,0.281924,0.371298,-0.115725,45,275,577,6224
1644185425.310106,-0.008484,0.00885,-0.990967,0.281924,0.371298,-0.237863,57,285,579,6288
1644185425.358508,-0.008362,0.010681,-0.992126,0.144519,0.371298,-0.222595,43,276,585,6160
1644185425.406903,-0.008301,0.010559,-0.991028,0.052916,0.356031,0.052214,58,286,580,6256
1644185425.455294,-0.007324,0.009338,-0.991394,0.113985,0.386565,-0.039389,47,277,584,6240
1644185425.503654,-0.008728,0.010925,-0.99231,0.068183,0.279695,-0.039389,48,279,597,6224
1644185425.552081,-0.007935,0.010071,-0.990234,0.068183,0.325496,-0.268397,51,269,585,6176
1644185425.600471,-0.009705,0.011169,-0.992371,-0.069221,0.310229,-0.085191,52,273,579,6112
1644185425.649038,-0.009094,0.009216,-0.989868,0.129252,0.340763,-0.054656,55,276,583,6224
1644185425.6979,-0.009094,0.00885,-0.99292,0.129252,0.417099,-0.008855,43,271,576,6224
1644185425.748381,-0.005188,0.010437,-0.98938,0.159786,0.310229,0.006412,49,270,586,6224
1644185425.799179,-0.007812,0.010681,-0.991028,0.251389,0.310229,-0.054656,48,269,587,6128
1644185425.84387,-0.008179,0.012573,-0.991699,0.281924,0.356031,-0.085191,45,275,575,6240
1644185425.939252,-0.00824,0.012085,-0.995178,0.327725,0.478168,-0.069924,57,277,579,6224
1644185425.987652,-0.010803,0.00946,-0.99353,0.205588,0.401832,-0.024122,47,275,575,6224
1644185426.036043,-0.006775,0.010559,-0.991089,0.281924,0.401832,0.067481,42,270,589,6224
1644185426.084582,-0.008728,0.010864,-0.99054,0.388794,0.432366,-0.039389,48,274,587,6192
1644185426.132812,-0.008606,0.010742,-0.991516,0.175053,0.340763,-0.100458,35,277,582,6176
1644185426.181199,-0.010376,0.010376,-0.991333,0.297191,0.340763,-0.161527,48,274,580,6240
1644185426.229582,-0.007507,0.012146,-0.98938,0.098718,0.264427,0.082748,48,276,580,6176
1644185426.277989,-0.00531,0.009155,-0.990234,0.266656,0.356031,-0.237863,48,271,585,6304
1644185426.326367,-0.010925,0.011047,-0.989563,0.037649,0.356031,0.006412,41,283,580,6192
1644185426.374776,-0.003357,0.008789,-0.990112,0.312458,0.569771,-0.14626,46,279,590,6240
1644185426.423167,-0.007446,0.010803,-0.987671,0.098718,0.493435,-0.207328,51,286,580,6304
1644185426.471507,-0.008301,0.010559,-0.991028,0.220855,0.539237,-0.115725,54,273,582,6224
1644185426.519942,-0.00769,0.011963,-0.993103,0.144519,0.508702,-0.008855,47,290,589,6192
1644185426.568327,-0.01001,0.009949,-0.991882,0.144519,0.294962,-0.100458,49,270,579,6240
1644185426.616725,-0.007629,0.010925,-0.991638,0.175053,0.417099,-0.069924,52,277,584,6240
1644185426.665153,-0.006104,0.010681,-0.992371,0.052916,0.432366,-0.192061,42,282,575,6224
1644185426.713513,-0.004211,0.01178,-0.98999,0.129252,0.417099,-0.039389,46,279,592,6176
1644185426.76191,-0.007874,0.011536,-0.990479,0.144519,0.294962,-0.039389,51,274,594,6224
1644185426.81033,-0.006592,0.009521,-0.990601,0.129252,0.294962,-0.024122,53,269,592,6224
1644185426.859904,-0.007507,0.009705,-0.990417,0.236122,0.401832,-0.008855,41,281,592,6240
1644185426.9102,-0.00647,0.01178,-0.991455,0.144519,0.508702,-0.008855,45,277,577,6176
1644185426.961136,-0.007935,0.010071,-0.992188,0.007115,0.356031,0.052214,58,269,590,6176
1644185427.068944,-0.009155,0.009583,-0.99176,0.205588,0.539237,-0.085191,52,277,582,6224
1644185427.103611,-0.008118,0.010498,-0.991211,0.129252,0.356031,-0.008855,58,271,599,6176
1644185427.149045,-0.006714,0.010986,-0.991333,0.159786,0.233893,-0.039389,54,277,586,6224
1644185427.197456,-0.010315,0.011292,-0.992981,0.159786,0.340763,-0.222595,54,280,584,6304
1644185427.245807,-0.010254,0.010437,-0.988586,0.236122,0.462901,-0.100458,51,274,587,6160
1644185427.294238,-0.00647,0.009277,-0.992859,0.08345,0.417099,-0.130992,53,286,587,6224
1644185427.342634,-0.00708,0.009277,-0.991577,0.327725,0.493435,-0.268397,49,282,589,6240
1644185427.391016,-0.008606,0.007141,-0.991821,0.236122,0.386565,-0.176794,53,274,585,6240
1644185427.439404,-0.00592,0.01001,-0.993774,0.175053,0.462901,-0.176794,54,273,586,6240
1644185427.487791,-0.009888,0.007507,-0.991333,0.113985,0.432366,-0.14626,51,281,580,6176
1644185427.536494,-0.008972,0.009216,-0.990479,0.236122,0.356031,0.098015,57,285,589,6224
1644185427.585524,-0.012634,0.010681,-0.994202,0.266656,0.432366,-0.069924,53,281,573,6192
1644185427.636138,-0.009338,0.010681,-0.993103,0.281924,0.371298,-0.039389,46,279,590,6256
1644185427.686215,-0.007629,0.010254,-0.990784,0.266656,0.294962,0.036947,45,268,591,6240
1644185427.778157,-0.007141,0.009644,-0.99231,0.144519,0.325496,-0.085191,52,275,586,6240
1644185427.826537,-0.006165,0.010193,-0.99115,0.159786,0.325496,-0.115725,49,273,584,6304
1644185427.875007,-0.009216,0.008972,-0.991882,0.022382,0.340763,-0.100458,47,273,589,6176
1644185427.923373,-0.008057,0.010742,-0.991577,0.175053,0.310229,-0.161527,51,271,585,6224
1644185427.971765,-0.00885,0.006836,-0.992126,0.175053,0.386565,-0.100458,57,270,589,6288
1644185428.020162,-0.00647,0.008606,-0.992676,0.373527,0.371298,-0.039389,42,273,582,6176
1644185428.068748,-0.007019,0.010376,-0.99054,0.190321,0.401832,0.082748,52,280,593,6240
1644185428.116948,-0.006653,0.008789,-0.991699,0.236122,0.432366,-0.161527,59,282,582,6128
1644185428.165296,-0.006042,0.009033,-0.990417,0.297191,0.523969,-0.222595,48,279,583,6224
1644185428.213717,-0.006775,0.010803,-0.992981,0.205588,0.386565,-0.069924,43,276,580,6256
1644185428.262067,-0.007385,0.009827,-0.992188,0.236122,0.386565,-0.222595,53,271,590,6160
1644185428.310487,-0.007751,0.007446,-0.990784,0.205588,0.447634,-0.192061,47,270,584,6240
1644185428.358828,-0.011902,0.011108,-0.991394,0.251389,0.356031,-0.039389,53,279,583,6336
1644185428.407274,-0.008484,0.010193,-0.993347,0.220855,0.417099,0.021679,49,290,586,6160
1644185428.455664,-0.007874,0.011108,-0.991333,0.144519,0.462901,-0.069924,49,282,589,6128
1644185428.504026,-0.005005,0.012024,-0.993042,0.129252,0.371298,-0.024122,53,276,583,6224
1644185428.552455,-0.009033,0.010193,-0.991272,0.068183,0.310229,-0.024122,53,279,585,6288
1644185428.600844,-0.009521,0.009216,-0.991028,0.266656,0.371298,-0.25313,45,275,582,6240
1644185428.649245,-0.008789,0.009827,-0.990051,0.236122,0.386565,-0.115725,47,268,584,6240
1644185428.698181,-0.009338,0.008606,-0.991882,0.251389,0.523969,-0.069924,59,290,579,6240
1644185428.748781,-0.009949,0.009949,-0.993042,0.159786,0.539237,-0.14626,58,283,604,6192
1644185428.79886,-0.00824,0.010254,-0.991943,0.113985,0.432366,-0.069924,51,274,580,6224
1644185428.843837,-0.006653,0.011292,-0.993347,0.144519,0.417099,-0.192061,52,268,584,6224
1644185428.939617,-0.008667,0.010742,-0.989563,0.159786,0.462901,-0.069924,52,273,586,6176
1644185428.987985,-0.006348,0.009583,-0.991333,0.205588,0.401832,-0.130992,51,271,585,6224
1644185429.036399,-0.007751,0.009583,-0.992371,0.327725,0.310229,-0.14626,51,274,578,6192
1644185429.088852,-0.008179,0.012268,-0.992432,0.205588,0.447634,-0.008855,46,279,585,6256
1644185429.133201,-0.008911,0.012573,-0.989319,0.281924,0.310229,-0.130992,55,288,583,6192
1644185429.181551,-0.008423,0.010925,-0.990112,0.175053,0.432366,-0.161527,51,271,573,6176
1644185429.229929,-0.008057,0.010559,-0.988403,0.190321,0.493435,-0.100458,60,266,583,6224
1644185429.278322,-0.008728,0.013184,-0.992615,0.098718,0.386565,-0.069924,57,277,582,6224
1644185429.326725,-0.005737,0.011963,-0.991577,0.190321,0.386565,0.006412,38,275,579,6224
1644185429.375224,-0.01178,0.012817,-0.991638,0.281924,0.356031,-0.039389,51,274,578,6176
1644185429.423526,-0.008667,0.00946,-0.992188,0.113985,0.356031,0.021679,49,273,577,6224
1644185429.471914,-0.007019,0.011475,-0.991455,0.220855,0.325496,-0.130992,43,274,594,6160
1644185429.520306,-0.011597,0.007996,-0.991089,0.190321,0.340763,-0.161527,45,282,582,6176
1644185429.568693,-0.00769,0.006226,-0.990173,0.144519,0.447634,-0.039389,54,273,593,6240
1644185429.617055,-0.00946,0.008972,-0.991821,0.236122,0.401832,-0.268397,48,274,590,6224
1644185429.665477,-0.007385,0.009827,-0.993042,0.236122,0.523969,0.021679,53,279,583,6256
1644185429.71387,-0.009338,0.010559,-0.991516,0.281924,0.325496,0.006412,49,275,582,6240
1644185429.762334,-0.010315,0.010803,-0.989746,0.007115,0.356031,-0.115725,52,285,589,6240
1644185429.812255,-0.008057,0.008545,-0.992371,0.312458,0.310229,-0.054656,40,277,584,6224
1644185429.864054,-0.009216,0.007996,-0.992493,0.144519,0.493435,-0.14626,46,271,583,6192
1644185429.908354,-0.008545,0.012695,-0.990356,0.129252,0.478168,-0.054656,42,287,593,6240
1644185430.004286,-0.008118,0.009583,-0.990784,0.159786,0.417099,-0.039389,48,279,583,6224
1644185430.066905,-0.00824,0.009338,-0.993713,0.495664,0.325496,-0.237863,48,271,587,6224
1644185430.102893,-0.008911,0.008728,-0.992981,0.236122,0.325496,-0.14626,47,277,591,6240
1644185430.149442,-0.010254,0.011414,-0.990723,0.190321,0.356031,-0.192061,55,271,580,6176
1644185430.197801,-0.009521,0.01001,-0.99115,0.144519,0.432366,0.052214,58,271,587,6224
1644185430.246172,-0.007324,0.007812,-0.990356,0.297191,0.386565,-0.054656,51,283,592,6176
1644185430.294689,-0.008179,0.007141,-0.993591,0.236122,0.279695,-0.176794,42,285,579,6160
1644185430.34299,-0.008301,0.011719,-0.991699,0.159786,0.371298,-0.085191,55,281,590,6224
1644185430.39137,-0.006836,0.009583,-0.991028,0.190321,0.279695,-0.054656,45,280,591,6224
1644185430.439764,-0.009644,0.007935,-0.992493,0.175053,0.386565,-0.054656,51,279,592,6240
1644185430.488151,-0.005493,0.008911,-0.990967,0.190321,0.447634,-0.14626,53,271,576,6176
1644185430.536546,-0.008667,0.006958,-0.990662,0.175053,0.447634,-0.161527,51,283,576,6224
1644185430.584998,-0.00708,0.008057,-0.991211,0.266656,0.371298,-0.130992,49,280,575,6224
1644185430.634558,-0.007263,0.007874,-0.992554,0.175053,0.462901,-0.069924,55,269,583,6224
1644185430.684377,-0.007629,0.009827,-0.991211,0.098718,0.523969,-0.130992,55,274,583,6176
1644185430.7344,-0.007751,0.014099,-0.993103,0.236122,0.340763,-0.069924,49,277,582,6256
1644185430.7795,-0.008484,0.008972,-0.990112,0.022382,0.188092,-0.039389,45,275,577,6192
1644185430.875447,-0.007263,0.010132,-0.99292,0.205588,0.508702,-0.100458,51,276,585,6256
1644185430.92376,-0.010132,0.009216,-0.991089,0.236122,0.294962,-0.207328,40,280,586,6224
1644185430.972386,-0.008545,0.009644,-0.992004,0.312458,0.386565,-0.085191,47,282,586,6224
1644185431.020528,-0.010315,0.010071,-0.989868,0.190321,0.63084,-0.237863,48,279,587,6224
1644185431.069627,-0.007446,0.008972,-0.991455,0.281924,0.371298,0.036947,53,269,583,6224
1644185431.117248,-0.005859,0.010803,-0.990112,0.022382,0.279695,-0.268397,54,270,586,6128
1644185431.165654,-0.006714,0.009277,-0.989136,0.129252,0.462901,0.052214,52,277,589,6128
1644185431.214056,-0.010559,0.011292,-0.989075,0.297191,0.279695,-0.268397,46,276,576,6224
1644185431.262466,-0.007935,0.010437,-0.994446,0.175053,0.294962,-0.024122,51,274,580,6176
1644185431.310803,-0.008545,0.011475,-0.992859,0.236122,0.462901,-0.237863,53,269,583,6176
1644185431.359221,-0.007751,0.011353,-0.991577,0.129252,0.340763,-0.008855,47,280,572,6160
1644185431.407605,-0.009583,0.009033,-0.98999,0.037649,0.401832,-0.161527,47,270,572,6240
1644185431.456021,-0.007812,0.010681,-0.991882,0.297191,0.386565,-0.100458,58,279,583,6128
1644185431.504434,-0.008057,0.008972,-0.990417,0.251389,0.203359,-0.130992,45,275,582,6224
1644185431.552816,-0.006653,0.010498,-0.995728,0.281924,0.523969,0.006412,47,282,582,6192
1644185431.601196,-0.008728,0.009583,-0.989624,0.113985,0.371298,-0.069924,59,282,598,6176
1644185431.649568,-0.010498,0.007935,-0.990784,0.266656,0.508702,-0.192061,43,279,576,6192
1644185431.697979,-0.005676,0.01062,-0.994568,0.327725,0.432366,-0.130992,52,282,586,6240
1644185431.746343,-0.00885,0.011963,-0.989075,0.251389,0.310229,-0.008855,52,280,584,6240
1644185431.79559,-0.007568,0.009644,-0.990723,0.129252,0.386565,-0.100458,46,281,590,6192
1644185431.846896,-0.007935,0.00824,-0.995911,0.251389,0.279695,-0.085191,43,264,585,6240
1644185431.89727,-0.007629,0.011108,-0.991943,0.175053,0.401832,-0.192061,52,287,586,6224
1644185431.988406,-0.009277,0.011353,-0.990784,0.190321,0.417099,-0.054656,46,271,592,6256
1644185432.036775,-0.007141,0.010132,-0.990845,0.251389,0.401832,-0.054656,46,276,587,6128
1644185432.085281,-0.009827,0.007751,-0.99353,0.251389,0.447634,-0.130992,51,276,585,6160
1644185432.133518,-0.00946,0.00885,-0.99292,0.175053,0.310229,-0.130992,54,277,586,6240
1644185432.181903,-0.01123,0.010376,-0.989319,0.159786,0.24916,-0.237863,45,282,575,6192
1644185432.230306,-0.00885,0.011841,-0.99292,0.113985,0.462901,-0.039389,51,283,587,6256
1644185432.278678,-0.010742,0.010681,-0.990662,0.236122,0.371298,-0.130992,49,265,584,6224
1644185432.3271,-0.008362,0.008667,-0.991394,0.281924,0.401832,-0.054656,55,276,594,6176
1644185432.375487,-0.00946,0.011719,-0.988464,0.159786,0.279695,0.006412,53,276,587,6192
1644185432.423882,-0.007202,0.008179,-0.990723,0.113985,0.462901,-0.054656,55,269,580,6256
1644185432.472285,-0.009888,0.011841,-0.989807,0.220855,0.340763,-0.161527,51,269,587,6176
1644185432.520661,-0.008423,0.009766,-0.994141,0.281924,0.356031,-0.14626,51,274,587,6224
1644185432.569056,-0.008484,0.008667,-0.990906,0.342992,0.523969,-0.024122,54,285,589,6224
1644185432.617447,-0.005432,0.009094,-0.991394,0.08345,0.447634,-0.024122,52,277,577,6192
1644185432.66584,-0.00885,0.009705,-0.992798,0.144519,0.401832,0.067481,53,271,576,6240
1644185432.714238,-0.01062,0.008606,-0.993164,0.175053,0.447634,-0.25313,49,270,586,6176
1644185432.762607,-0.009705,0.007263,-0.990051,0.205588,0.294962,-0.085191,54,277,582,6192
1644185432.811406,-0.006042,0.011108,-0.994141,0.297191,0.371298,-0.054656,55,276,592,6256
1644185432.859468,-0.010071,0.008789,-0.990112,0.251389,0.310229,0.052214,45,275,582,6160
1644185432.909463,-0.008545,0.007385,-0.991577,0.266656,0.386565,-0.192061,46,266,594,6224
1644185432.96032,-0.00769,0.008606,-0.991028,0.220855,0.310229,-0.069924,47,273,586,6224
1644185433.01021,-0.010681,0.009827,-0.991699,0.205588,0.462901,-0.176794,53,274,585,6192
1644185433.105233,-0.012207,0.007202,-0.990784,0.35826,0.401832,-0.100458,54,265,582,6176
1644185433.149785,-0.009155,0.007507,-0.99231,0.190321,0.447634,0.067481,54,270,586,6240
1644185433.198167,-0.006653,0.009521,-0.992004,0.266656,0.432366,-0.054656,45,280,586,6128
1644185433.246532,-0.008362,0.009644,-0.991577,0.266656,0.462901,-0.100458,46,281,585,6192
1644185433.294943,-0.010559,0.008362,-0.991516,0.236122,0.401832,-0.069924,48,281,576,6224
1644185433.34337,-0.006653,0.009399,-0.989075,0.113985,0.279695,-0.024122,40,280,591,6224
1644185433.391738,-0.009277,0.009888,-0.991821,0.175053,0.356031,-0.054656,42,275,586,6240
1644185433.440135,-0.007996,0.008972,-0.992615,0.236122,0.401832,-0.283664,48,276,585,6224
1644185433.488518,-0.007874,0.007751,-0.993835,0.297191,0.340763,-0.054656,47,277,591,6224
1644185433.536919,-0.010437,0.00769,-0.991821,0.297191,0.478168,-0.039389,49,277,593,6224
1644185433.585307,-0.00824,0.011475,-0.991577,0.190321,0.401832,-0.115725,48,271,587,6240
1644185433.633707,-0.010254,0.010864,-0.993225,0.159786,0.401832,-0.054656,42,285,579,6160
1644185433.682245,-0.009277,0.009705,-0.995178,0.327725,0.539237,-0.14626,53,279,576,6192
1644185433.730494,-0.010681,0.010925,-0.991089,0.205588,0.340763,-0.176794,46,276,573,6224
1644185433.780343,-0.010559,0.010437,-0.991577,0.281924,0.371298,-0.100458,52,273,570,6256
1644185433.83209,-0.010193,0.011536,-0.990356,0.129252,0.386565,-0.14626,51,269,573,6304
1644185433.876151,-0.008911,0.011658,-0.991028,0.205588,0.386565,-0.085191,47,280,577,6224
1644185433.972523,-0.010132,0.01062,-0.991516,0.175053,0.401832,-0.085191,46,286,578,6224
1644185434.020882,-0.006409,0.010437,-0.993225,0.236122,0.493435,-0.024122,47,263,582,6224
1644185434.069576,-0.007324,0.011292,-0.992737,0.342992,0.508702,-0.024122,57,280,593,6192
1644185434.117611,-0.008972,0.008789,-0.990479,0.159786,0.478168,0.036947,42,280,579,6240
1644185434.165991,-0.008728,0.012451,-0.987305,0.190321,0.386565,-0.14626,49,277,579,6224
1644185434.214442,-0.008911,0.011047,-0.99054,0.144519,0.417099,-0.039389,41,276,587,6160
1644185434.262819,-0.007385,0.009094,-0.991272,0.312458,0.447634,-0.130992,47,292,575,6256
1644185434.311178,-0.005127,0.011108,-0.992249,0.175053,0.310229,-0.100458,55,274,580,6256
1644185434.359588,-0.007385,0.009033,-0.992432,0.190321,0.478168,0.036947,51,264,587,6240
1644185434.40799,-0.008484,0.010803,-0.990967,0.312458,0.462901,-0.115725,43,279,580,6192
1644185434.45638,-0.012268,0.007019,-0.99353,0.113985,0.386565,-0.100458,52,277,577,6240
1644185434.504795,-0.010071,0.009155,-0.990784,0.373527,0.310229,-0.100458,40,277,584,6224
1644185434.553175,-0.009705,0.006958,-0.993652,0.297191,0.264427,-0.314198,59,273,584,6192
1644185434.601558,-0.008789,0.010376,-0.991821,0.098718,0.386565,-0.039389,52,275,582,6240
1644185434.649948,-0.007812,0.011475,-0.992249,0.205588,0.310229,-0.039389,45,275,586,6240
1644185434.698343,-0.008789,0.010437,-0.989868,0.190321,0.294962,-0.298931,48,279,583,6224
1644185434.74674,-0.008545,0.011292,-0.995483,0.159786,0.356031,-0.115725,52,282,589,6160
1644185434.79516,-0.009644,0.011292,-0.991882,0.236122,0.447634,0.006412,53,279,587,6240
1644185434.843571,-0.008057,0.010864,-0.989563,0.205588,0.356031,-0.039389,52,268,591,6224
1644185434.893372,-0.007385,0.009155,-0.989929,0.220855,0.386565,-0.008855,47,277,579,6192
1644185434.943636,-0.009094,0.010376,-0.989014,0.052916,0.371298,-0.115725,45,277,586,6240
1644185434.993762,-0.009155,0.010681,-0.991455,0.281924,0.310229,-0.085191,45,273,589,6256
1644185435.038376,-0.009277,0.010315,-0.991272,0.327725,0.432366,-0.237863,42,277,577,6240
1644185435.133925,-0.007751,0.010742,-0.989014,0.175053,0.279695,-0.054656,40,285,586,6192
1644185435.182257,-0.010559,0.011108,-0.992126,0.220855,0.325496,-0.130992,47,270,582,6224
1644185435.230652,-0.00708,0.009644,-0.988892,0.08345,0.417099,-0.039389,52,280,589,6176
1644185435.279035,-0.007629,0.010986,-0.992981,0.113985,0.432366,-0.115725,55,276,585,6160
1644185435.327446,-0.006287,0.009888,-0.991333,0.266656,0.356031,-0.008855,47,282,589,6160
1644185435.375846,-0.00824,0.012268,-0.989197,0.205588,0.310229,-0.069924,41,286,585,6176
1644185435.424237,-0.007019,0.008057,-0.992432,0.175053,0.310229,-0.207328,49,280,584,6240
1644185435.472644,-0.010254,0.011536,-0.993286,0.144519,0.386565,-0.054656,49,275,584,6224
1644185435.521029,-0.009277,0.00946,-0.990845,0.281924,0.188092,-0.085191,46,274,580,6224
1644185435.569416,-0.009644,0.009766,-0.990662,0.113985,0.493435,-0.054656,43,269,578,6176
1644185435.617813,-0.009033,0.008728,-0.993713,0.08345,0.417099,-0.130992,45,280,584,6224
1644185435.666191,-0.01123,0.008301,-0.99176,0.236122,0.340763,0.052214,54,275,586,6224
1644185435.714665,-0.007812,0.011353,-0.991516,0.281924,0.447634,-0.085191,41,281,580,6192
1644185435.762978,-0.008484,0.009521,-0.990479,0.205588,0.523969,-0.039389,34,279,580,6240
1644185435.811384,-0.008667,0.008728,-0.995361,0.266656,0.493435,-0.14626,43,283,578,6192
1644185435.859781,-0.00647,0.008667,-0.989868,0.236122,0.325496,0.021679,45,277,586,6224
1644185435.908176,-0.01001,0.007874,-0.992859,0.08345,0.478168,0.052214,48,274,587,6256
1644185435.956938,-0.008484,0.011475,-0.989197,0.327725,0.493435,-0.115725,45,285,582,6176
1644185436.005111,-0.006775,0.010254,-0.990662,0.159786,0.462901,-0.054656,43,276,590,6192
1644185436.070128,-0.007385,0.013672,-0.990906,0.281924,0.340763,-0.14626,40,277,575,6224
1644185436.10896,-0.008972,0.006775,-0.991333,0.08345,0.462901,-0.14626,57,273,586,6160
1644185436.155208,-0.009155,0.008545,-0.991943,0.205588,0.462901,-0.161527,54,273,582,6240
1644185436.19908,-0.005981,0.007507,-0.991394,0.190321,0.447634,-0.176794,49,280,586,6176
1644185436.295412,-0.008789,0.010864,-0.991699,0.144519,0.508702,-0.14626,49,277,586,6224
1644185436.343686,-0.008545,0.009766,-0.99115,0.08345,0.417099,0.036947,59,287,577,6176
1644185436.392174,-0.009033,0.012817,-0.990234,0.327725,0.523969,-0.054656,52,268,586,6224
1644185436.44048,-0.009277,0.00885,-0.991943,0.205588,0.401832,-0.100458,45,277,586,6224
1644185436.488875,-0.008362,0.009949,-0.991882,0.159786,0.432366,-0.237863,53,281,592,6224
1644185436.537268,-0.006409,0.008118,-0.990417,0.113985,0.417099,-0.176794,46,281,576,6192
1644185436.585661,-0.007874,0.009338,-0.992615,0.113985,0.508702,-0.039389,43,269,592,6192
1644185436.634066,-0.008057,0.009399,-0.990784,0.297191,0.417099,-0.207328,51,274,580,6256
1644185436.682461,-0.006592,0.011108,-0.990295,0.297191,0.462901,-0.130992,43,281,583,6176
1644185436.73085,-0.008057,0.009094,-0.990662,0.190321,0.279695,0.006412,46,281,580,6256
1644185436.779243,-0.007507,0.010681,-0.993591,0.144519,0.432366,-0.25313,51,271,576,6160
1644185436.827636,-0.007935,0.009399,-0.990051,0.190321,0.478168,-0.054656,55,269,590,6224
1644185436.87606,-0.009399,0.010254,-0.992615,0.236122,0.386565,-0.069924,47,277,575,6176
1644185436.924462,-0.010498,0.010437,-0.991028,0.220855,0.279695,-0.024122,51,283,576,6240
1644185436.972864,-0.010742,0.010376,-0.992371,0.159786,0.356031,-0.237863,39,281,580,6240
1644185437.021211,-0.005615,0.006592,-0.990662,0.404061,0.447634,-0.039389,55,274,580,6240
1644185437.094751,-0.009705,0.013,-0.993713,0.327725,0.325496,-0.054656,51,281,585,6224
1644185437.11913,-0.008118,0.009705,-0.990051,0.373527,0.447634,0.006412,47,285,591,6160
1644185437.214796,-0.00647,0.009644,-0.993713,0.08345,0.432366,-0.039389,41,276,590,6224
1644185437.263164,-0.005371,0.007935,-0.992981,0.281924,0.386565,-0.115725,52,268,575,6112
1644185437.311553,-0.009949,0.010193,-0.992737,0.236122,0.432366,-0.100458,41,279,590,6176
1644185437.359964,-0.010376,0.009888,-0.991943,0.190321,0.417099,0.021679,57,277,582,6160
1644185437.408343,-0.006958,0.009766,-0.991638,0.342992,0.462901,-0.130992,62,283,585,6160
1644185437.456737,-0.008972,0.009216,-0.992737,0.236122,0.508702,0.021679,49,277,577,6256
1644185437.50517,-0.008728,0.008728,-0.992249,0.297191,0.462901,-0.069924,38,280,591,6176
1644185437.553538,-0.007996,0.012268,-0.98938,0.098718,0.371298,-0.115725,55,283,583,6224
1644185437.601911,-0.008911,0.010681,-0.991516,0.175053,0.386565,-0.25313,52,273,579,6176
1644185437.650312,-0.005859,0.00946,-0.990356,0.175053,0.310229,-0.161527,41,266,580,6240
1644185437.698695,-0.006958,0.010681,-0.991577,0.08345,0.401832,-0.100458,43,274,592,6224
1644185437.747073,-0.007568,0.010376,-0.98938,0.266656,0.417099,-0.100458,49,280,582,6192
1644185437.795464,-0.006531,0.010132,-0.992065,0.251389,0.417099,-0.085191,47,275,586,6176
1644185437.843897,-0.008057,0.013062,-0.990784,0.266656,0.432366,0.036947,54,280,589,6224
1644185437.892331,-0.009338,0.011658,-0.991943,0.220855,0.203359,-0.237863,45,273,579,6192
1644185437.940703,-0.00769,0.009644,-0.993286,0.236122,0.371298,0.067481,61,268,591,6224
1644185437.989094,-0.00769,0.010193,-0.990417,0.175053,0.294962,0.006412,51,279,573,6128
1644185438.037485,-0.008728,0.008484,-0.990906,0.205588,0.325496,-0.100458,48,288,604,6224
1644185438.09565,-0.007324,0.010376,-0.990845,0.35826,0.356031,-0.054656,54,287,584,6240
1644185438.135661,-0.008972,0.011047,-0.991455,0.129252,0.432366,0.067481,47,277,584,6176
1644185438.186332,-0.01123,0.008972,-0.99292,0.113985,0.371298,-0.161527,57,270,591,6224
1644185438.235914,-0.009827,0.009583,-0.989929,0.281924,0.371298,0.006412,57,277,577,6224
1644185438.327799,-0.006348,0.008423,-0.992859,0.297191,0.340763,-0.024122,60,269,580,6224
1644185438.376186,-0.011414,0.009277,-0.99115,0.098718,0.356031,0.143817,51,271,583,6224
1644185438.424846,-0.012146,0.010864,-0.992188,0.281924,0.340763,-0.207328,57,270,589,6224
1644185438.473006,-0.007141,0.012207,-0.989746,0.129252,0.432366,-0.237863,49,275,582,6256
1644185438.521379,-0.008972,0.007141,-0.99176,0.251389,0.447634,-0.130992,35,275,589,6224
1644185438.569777,-0.008545,0.009949,-0.991943,0.190321,0.371298,-0.085191,54,273,577,6256
1644185438.618161,-0.010071,0.011475,-0.990173,0.327725,0.310229,-0.115725,38,275,582,6160
1644185438.66656,-0.005554,0.010376,-0.992615,0.144519,0.340763,-0.100458,48,274,583,6176
1644185438.714998,-0.008484,0.009521,-0.993835,0.312458,0.340763,0.021679,46,262,590,6192
1644185438.76334,-0.00824,0.011841,-0.991638,0.113985,0.508702,-0.222595,47,268,586,6256
1644185438.811792,-0.009949,0.010498,-0.991882,0.220855,0.432366,0.036947,58,271,583,6224
1644185438.860139,-0.00885,0.009155,-0.992188,0.388794,0.462901,-0.130992,52,273,577,6160
1644185438.908566,-0.008545,0.012024,-0.989624,0.266656,0.264427,-0.14626,51,279,583,6224
1644185438.956959,-0.008057,0.012085,-0.990234,0.144519,0.569771,-0.069924,62,281,585,6176
1644185439.00533,-0.00708,0.008972,-0.988464,0.175053,0.447634,-0.130992,51,279,580,6224
1644185439.064968,-0.007446,0.00824,-0.99292,0.007115,0.447634,-0.115725,43,271,580,6160
1644185439.104328,-0.010376,0.011597,-0.992432,0.281924,0.462901,-0.069924,51,269,583,6224
1644185439.15048,-0.006104,0.00769,-0.990234,0.205588,0.478168,-0.085191,49,282,586,6224
1644185439.198908,-0.006958,0.01001,-0.992737,0.159786,0.371298,-0.054656,46,271,594,6224
1644185439.247592,-0.007812,0.009644,-0.993958,0.144519,0.417099,-0.085191,51,276,597,6224
1644185439.298233,-0.005005,0.011292,-0.990906,0.297191,0.310229,-0.344733,48,281,583,6192
1644185439.348269,-0.007141,0.011108,-0.993103,0.251389,0.386565,-0.130992,48,269,578,6176
1644185439.393261,-0.007996,0.010437,-0.992798,0.220855,0.340763,-0.161527,52,280,582,6224
1644185439.489331,-0.007812,0.009949,-0.990112,0.190321,0.386565,-0.130992,51,276,583,6224
1644185439.537615,-0.005554,0.009583,-0.990601,0.159786,0.401832,-0.192061,46,274,578,6304
1644185439.586004,-0.007751,0.013062,-0.993225,0.129252,0.325496,-0.115725,49,285,582,6176
1644185439.634423,-0.008484,0.008362,-0.992493,0.220855,0.401832,-0.069924,52,268,572,6240
1644185439.682831,-0.010559,0.009216,-0.990967,0.129252,0.432366,-0.085191,41,279,583,6192
1644185439.731208,-0.00885,0.009033,-0.98999,0.129252,0.386565,-0.130992,40,282,582,6192
1644185439.779602,-0.010132,0.012268,-0.991455,0.08345,0.447634,-0.130992,60,266,580,6240
1644185439.828033,-0.00708,0.009338,-0.990417,0.251389,0.585038,0.006412,42,275,577,6160
1644185439.876435,-0.006775,0.009033,-0.992554,0.342992,0.386565,-0.008855,42,277,584,6192
1644185439.924842,-0.009644,0.010315,-0.992188,0.220855,0.386565,-0.054656,48,274,585,6224
1644185439.973285,-0.008606,0.009094,-0.991272,0.220855,0.340763,-0.14626,54,277,582,6240
1644185440.021605,-0.00824,0.009216,-0.991455,0.281924,0.432366,-0.176794,55,276,592,6160
1644185440.082324,-0.008545,0.010376,-0.990601,0.144519,0.417099,-0.100458,47,270,591,6192
1644185440.118288,-0.00769,0.009277,-0.991882,0.236122,0.493435,-0.085191,53,274,580,6240
1644185440.166745,-0.007324,0.00708,-0.990112,0.220855,0.279695,-0.069924,52,275,570,6240
1644185440.215169,-0.007996,0.012207,-0.991089,0.052916,0.432366,-0.039389,43,279,583,6176
1644185440.263529,-0.00592,0.009399,-0.990356,0.236122,0.417099,-0.100458,46,274,580,6240
1644185440.31192,-0.009216,0.008545,-0.991699,0.220855,0.233893,-0.008855,38,270,579,6160
1644185440.360314,-0.007385,0.008972,-0.991516,0.266656,0.325496,-0.115725,38,275,579,6176
1644185440.409067,-0.009094,0.009399,-0.988586,0.037649,0.233893,-0.130992,53,276,573,6128
1644185440.459344,-0.007141,0.009888,-0.989929,0.08345,0.371298,-0.115725,43,274,587,6240
1644185440.509522,-0.008606,0.012146,-0.99469,0.068183,0.386565,-0.069924,49,282,589,6160
1644185440.554505,-0.0047,0.009644,-0.99176,0.159786,0.462901,-0.008855,55,283,590,6224
1644185440.650658,-0.004639,0.009644,-0.988464,0.220855,0.432366,-0.100458,49,280,584,6224
1644185440.699049,-0.008057,0.012207,-0.990479,0.159786,0.447634,-0.161527,57,275,582,6240
1644185440.747422,-0.008423,0.012207,-0.988647,0.098718,0.508702,-0.115725,45,277,579,6112
1644185440.795852,-0.005493,0.010193,-0.992798,0.236122,0.371298,-0.069924,53,276,585,6192
1644185440.844294,-0.008362,0.010315,-0.990051,0.327725,0.371298,-0.192061,38,270,582,6240
1644185440.892697,-0.009583,0.011292,-0.991882,0.190321,0.325496,0.021679,52,277,582,6192
1644185440.941074,-0.010071,0.007874,-0.992676,0.251389,0.462901,-0.085191,47,280,582,6192
1644185440.989477,-0.009521,0.010193,-0.991455,0.220855,0.218626,-0.085191,42,282,579,6256
1644185441.037857,-0.008301,0.009949,-0.990906,0.144519,0.356031,-0.054656,47,282,584,6112
1644185441.086286,-0.007263,0.007385,-0.991455,0.266656,0.264427,-0.176794,49,273,596,6224
1644185441.134717,-0.006897,0.006958,-0.990662,0.175053,0.462901,0.006412,59,268,575,6256
1644185441.183004,-0.009521,0.005981,-0.989746,0.129252,0.356031,-0.024122,58,283,587,6240
1644185441.231388,-0.009949,0.008911,-0.990051,0.08345,0.493435,0.082748,49,280,584,6304
1644185441.279784,-0.011841,0.009521,-0.991943,0.175053,0.539237,0.021679,58,274,592,6240
1644185441.328173,-0.007935,0.011292,-0.991882,0.144519,0.417099,-0.069924,40,290,589,6224
1644185441.376537,-0.005737,0.012024,-0.987549,0.327725,0.371298,-0.130992,55,279,583,6192
1644185441.424998,-0.006653,0.013184,-0.992432,0.190321,0.432366,-0.085191,53,276,585,6224
1644185441.473364,-0.007996,0.011902,-0.992615,0.342992,0.63084,-0.14626,53,269,585,6176
1644185441.523603,-0.009155,0.010437,-0.993713,0.190321,0.447634,-0.176794,52,265,579,6256
1644185441.573822,-0.01001,0.009094,-0.992493,0.281924,0.386565,-0.222595,60,286,576,6192
1644185441.619043,-0.009216,0.011597,-0.989929,0.220855,0.340763,-0.115725,57,273,584,6224
1644185441.715417,-0.008606,0.00824,-0.993164,0.251389,0.371298,-0.14626,51,281,580,6256
1644185441.763713,-0.008362,0.010803,-0.995056,0.35826,0.340763,-0.024122,45,275,591,6192
1644185441.812347,-0.010986,0.00885,-0.990845,0.175053,0.417099,-0.283664,36,279,580,6240
1644185441.860527,-0.008606,0.01239,-0.987915,0.190321,0.279695,-0.14626,43,288,587,6160
1644185441.908935,-0.007141,0.011963,-0.99292,0.205588,0.188092,-0.176794,51,266,583,6288
1644185441.957318,-0.008423,0.009583,-0.993286,0.205588,0.493435,-0.039389,39,276,578,6224
1644185442.005679,-0.008057,0.010742,-0.990234,0.251389,0.447634,-0.024122,54,282,579,6240
1644185442.066435,-0.008118,0.010315,-0.992126,0.388794,0.462901,-0.024122,49,275,584,6176
1644185442.102503,-0.007629,0.010315,-0.990112,0.35826,0.371298,-0.054656,57,280,586,6224
1644185442.150853,-0.008911,0.009338,-0.992188,0.175053,0.264427,-0.039389,47,275,586,6240
1644185442.199257,-0.010315,0.00946,-0.990234,0.052916,0.493435,-0.207328,48,274,587,6176
1644185442.247617,-0.006042,0.011841,-0.990295,0.220855,0.432366,-0.054656,40,273,584,6176
1644185442.296041,-0.006836,0.009827,-0.993774,0.236122,0.447634,0.036947,45,275,579,6288
1644185442.344434,-0.01001,0.009827,-0.992004,0.327725,0.462901,-0.024122,47,275,584,6224
1644185442.392851,-0.009277,0.010925,-0.991943,0.251389,0.371298,-0.161527,43,274,587,6256
1644185442.441186,-0.00824,0.004822,-0.992981,0.205588,0.371298,-0.100458,40,277,589,6256
1644185442.489599,-0.00946,0.01062,-0.992126,0.113985,0.432366,-0.039389,39,281,578,6224
1644185442.537994,-0.009155,0.01001,-0.992554,0.205588,0.417099,-0.192061,45,280,586,6240
1644185442.586387,-0.009155,0.008972,-0.988525,0.236122,0.356031,-0.14626,55,283,592,6192
1644185442.635077,-0.006897,0.008667,-0.990601,0.266656,0.493435,-0.237863,45,270,586,6192
1644185442.685281,-0.010315,0.007812,-0.990845,0.388794,0.279695,-0.130992,52,277,584,6240
1644185442.735533,-0.00708,0.009094,-0.991638,0.236122,0.417099,-0.085191,54,275,591,6256
1644185442.780589,-0.007446,0.00946,-0.989319,0.266656,0.493435,-0.192061,48,271,580,6224
1644185442.876771,-0.007019,0.012329,-0.990601,0.236122,0.447634,-0.054656,40,285,582,6256
1644185442.925426,-0.005432,0.013489,-0.991638,0.113985,0.386565,-0.100458,45,287,586,6160
1644185442.973562,-0.003845,0.008423,-0.989746,0.312458,0.462901,-0.069924,47,275,593,6240
1644185443.021965,-0.009033,0.010559,-0.992371,0.129252,0.401832,-0.085191,51,269,590,6240
1644185443.070409,-0.008728,0.011292,-0.992554,0.266656,0.523969,-0.176794,51,276,592,6176
1644185443.118716,-0.00708,0.008606,-0.989685,0.068183,0.401832,-0.054656,54,275,579,6224
1644185443.1671,-0.00531,0.011536,-0.992493,0.236122,0.325496,-0.069924,61,277,577,6240
1644185443.21549,-0.008545,0.008118,-0.98938,0.312458,0.478168,-0.100458,51,276,578,6128
1644185443.263877,-0.005432,0.009521,-0.991699,0.205588,0.340763,-0.14626,52,280,591,6160
1644185443.312279,-0.006897,0.009521,-0.991089,0.297191,0.462901,-0.069924,61,273,591,6240
1644185443.360678,-0.009827,0.010315,-0.990723,0.190321,0.508702,-0.115725,45,275,591,6192
1644185443.40908,-0.01001,0.01001,-0.994202,0.037649,0.417099,0.036947,54,270,579,6240
1644185443.457458,-0.01001,0.010559,-0.992126,0.236122,0.493435,-0.100458,47,280,577,6224
1644185443.505834,-0.010986,0.013123,-0.992615,0.251389,0.478168,-0.054656,45,287,584,6240
1644185443.554251,-0.006836,0.011902,-0.990295,0.342992,0.325496,-0.085191,53,283,583,6224
1644185443.602665,-0.007263,0.008118,-0.992004,0.35826,0.356031,0.067481,48,274,585,6224
1644185443.651006,-0.008423,0.010193,-0.990601,0.266656,0.24916,-0.100458,51,279,576,6240
1644185443.699425,-0.005737,0.010742,-0.991821,0.251389,0.493435,-0.130992,42,277,589,6160
1644185443.747794,-0.006165,0.009949,-0.990601,0.175053,0.417099,-0.192061,45,277,589,6224
1644185443.796269,-0.007874,0.013184,-0.993286,0.159786,0.447634,0.052214,52,285,593,6240
1644185443.846837,-0.009583,0.012024,-0.989929,0.113985,0.325496,-0.115725,60,271,578,6192
1644185443.897978,-0.008118,0.010925,-0.990601,0.007115,0.325496,-0.039389,60,271,585,6224
1644185443.942478,-0.008301,0.01001,-0.98938,0.098718,0.493435,-0.14626,48,271,578,6192
1644185444.038209,-0.008667,0.010071,-0.988892,0.190321,0.340763,-0.100458,53,281,587,6224
1644185444.086664,-0.009949,0.009094,-0.991028,0.129252,0.432366,-0.130992,43,283,578,6192
1644185444.135049,-0.007568,0.00708,-0.990967,0.144519,0.493435,-0.161527,43,266,583,6224
1644185444.183366,-0.008667,0.012512,-0.991821,0.113985,0.401832,0.067481,46,279,576,6224
1644185444.231752,-0.009949,0.007263,-0.989319,0.129252,0.294962,-0.176794,60,271,578,6224
1644185444.280141,-0.008667,0.011597,-0.987976,0.327725,0.294962,0.021679,46,269,587,6240
1644185444.328525,-0.007019,0.008789,-0.991089,0.159786,0.401832,-0.14626,43,279,585,6224
1644185444.376918,-0.008911,0.009949,-0.991394,0.159786,0.401832,0.006412,48,281,578,6192
1644185444.425323,-0.00592,0.01001,-0.991394,0.220855,0.417099,-0.054656,49,277,584,6176
1644185444.473711,-0.007324,0.009399,-0.992798,0.236122,0.386565,-0.085191,47,270,575,6176
1644185444.522283,-0.01001,0.007996,-0.991455,0.205588,0.340763,-0.130992,54,275,586,6288
1644185444.570497,-0.009827,0.009399,-0.99353,0.175053,0.447634,-0.085191,46,271,576,6176
1644185444.618899,-0.009277,0.013306,-0.99115,0.236122,0.356031,-0.008855,45,275,584,6240
1644185444.667285,-0.00824,0.009705,-0.989258,0.190321,0.462901,-0.100458,61,282,593,6224
1644185444.715692,-0.009399,0.008972,-0.99115,0.205588,0.340763,-0.161527,48,288,573,6160
1644185444.764069,-0.011292,0.009216,-0.990784,0.175053,0.478168,-0.207328,46,276,590,6224
1644185444.812488,-0.008667,0.009399,-0.989502,0.159786,0.264427,-0.192061,45,275,593,6192
1644185444.860895,-0.008179,0.010864,-0.98999,0.312458,0.432366,-0.192061,43,281,576,6240
1644185444.909316,-0.009155,0.010803,-0.988281,0.129252,0.310229,-0.054656,52,285,577,6176
1644185444.958531,-0.011963,0.012024,-0.99176,0.266656,0.340763,-0.237863,57,270,586,6224
1644185445.008804,-0.006287,0.009094,-0.990662,0.46513,0.523969,-0.100458,53,269,583,6240
1644185445.07419,-0.009155,0.008423,-0.992798,0.236122,0.294962,-0.115725,39,274,585,6224
1644185445.151254,-0.005127,0.012573,-0.987366,0.281924,0.371298,-0.069924,41,276,580,6176
1644185445.1996,-0.005249,0.009155,-0.98938,0.175053,0.310229,-0.130992,46,271,576,6224
1644185445.248001,-0.004517,0.010925,-0.989197,0.159786,0.523969,0.006412,48,279,590,6240
1644185445.296389,-0.006104,0.011719,-0.98938,0.098718,0.401832,-0.161527,52,282,572,6240
1644185445.344793,-0.008911,0.011108,-0.991089,0.312458,0.478168,-0.176794,53,276,580,6192
1644185445.393185,-0.008362,0.010498,-0.991333,0.281924,0.447634,-0.039389,52,282,575,6224
1644185445.441567,-0.008362,0.008972,-0.989563,0.175053,0.447634,-0.161527,59,280,586,6256
1644185445.489982,-0.00885,0.00946,-0.990479,0.098718,0.417099,-0.130992,52,277,589,6176
1644185445.53836,-0.008484,0.008179,-0.990662,0.236122,0.264427,-0.14626,49,277,591,6224
1644185445.58675,-0.008362,0.011353,-0.991455,0.266656,0.401832,-0.14626,45,285,593,6240
1644185445.635246,-0.008301,0.008179,-0.989441,0.098718,0.325496,-0.161527,54,268,579,6240
1644185445.683539,-0.007935,0.011658,-0.988342,0.144519,0.325496,-0.14626,42,275,584,6160
1644185445.731943,-0.005981,0.011475,-0.991028,0.190321,0.401832,-0.100458,55,283,587,6240
1644185445.780322,-0.008484,0.011169,-0.993652,0.35826,0.478168,-0.054656,51,269,587,6224
1644185445.828722,-0.00708,0.009338,-0.990356,0.159786,0.371298,-0.192061,45,277,602,6176
1644185445.877158,-0.01062,0.007996,-0.99176,0.251389,0.294962,-0.069924,58,281,590,6224
1644185445.925536,-0.007874,0.009277,-0.993286,0.205588,0.264427,-0.100458,51,271,580,6192
1644185445.974165,-0.007629,0.008301,-0.991943,0.113985,0.478168,-0.115725,52,277,584,6160
1644185446.022563,-0.005615,0.008484,-0.989807,0.251389,0.493435,-0.085191,41,274,578,6192
1644185446.082752,-0.009277,0.010986,-0.991516,0.266656,0.493435,-0.14626,53,286,590,6224
1644185446.123709,-0.006897,0.013062,-0.988586,0.205588,0.462901,-0.039389,41,281,599,6224
1644185446.168383,-0.008545,0.009644,-0.992065,0.220855,0.432366,-0.008855,48,279,587,6224
1644185446.264255,-0.010071,0.012451,-0.992432,0.205588,0.325496,-0.054656,40,282,582,6176
1644185446.312662,-0.006042,0.008423,-0.993652,0.068183,0.401832,-0.100458,42,275,586,6176
1644185446.361027,-0.009033,0.008057,-0.990173,0.098718,0.401832,-0.115725,52,273,582,6240
1644185446.409417,-0.005127,0.010376,-0.991333,0.159786,0.371298,-0.069924,49,270,586,6240
1644185446.457805,-0.007629,0.010681,-0.988647,0.205588,0.371298,-0.115725,55,271,583,6224
1644185446.506208,-0.006348,0.007874,-0.989929,0.113985,0.386565,-0.130992,60,269,585,6176
1644185446.554643,-0.010498,0.010498,-0.989685,0.08345,0.462901,0.006412,46,276,576,6224
1644185446.603009,-0.007507,0.012329,-0.989014,0.159786,0.233893,-0.115725,47,280,579,6192
1644185446.651396,-0.011047,0.012817,-0.991333,0.342992,0.417099,0.021679,53,286,590,6176
1644185446.699785,-0.007019,0.008911,-0.988892,0.190321,0.279695,-0.130992,42,280,579,6160
1644185446.748163,-0.008118,0.01123,-0.989014,0.190321,0.493435,-0.039389,54,273,586,6176
1644185446.796568,-0.007874,0.010132,-0.990051,0.190321,0.447634,-0.100458,45,263,598,6256
1644185446.845074,-0.01001,0.010254,-0.991028,0.175053,0.493435,-0.192061,51,281,585,6224
1644185446.8934,-0.008362,0.012329,-0.989502,0.251389,0.417099,-0.069924,45,277,575,6224
1644185446.941786,-0.00824,0.012207,-0.988708,0.373527,0.462901,-0.130992,54,275,579,6256
1644185446.990186,-0.006226,0.008728,-0.988953,0.144519,0.340763,-0.161527,51,279,583,6224
1644185447.038547,-0.007263,0.011353,-0.992798,0.266656,0.401832,-0.115725,47,277,586,6224
1644185447.08705,-0.007324,0.00885,-0.989624,0.35826,0.294962,-0.085191,45,268,598,6192
1644185447.135368,-0.007568,0.010132,-0.990234,0.113985,0.310229,-0.008855,60,264,580,6160
1644185447.185077,-0.007874,0.01062,-0.990479,0.220855,0.371298,-0.207328,51,283,587,6224
1644185447.234865,-0.00824,0.011353,-0.990784,0.266656,0.371298,0.052214,51,283,580,6176
1644185447.285412,-0.009399,0.011597,-0.989319,0.297191,0.401832,0.021679,48,269,585,6176
1644185447.3299,-0.010925,0.005737,-0.991089,0.251389,0.539237,-0.054656,42,282,584,6224
1644185447.425703,-0.007629,0.009949,-0.991211,0.281924,0.340763,-0.039389,47,265,584,6224
1644185447.474104,-0.007629,0.008606,-0.988892,0.236122,0.401832,-0.115725,42,273,593,6256
1644185447.522511,-0.008423,0.010498,-0.992371,0.281924,0.401832,-0.176794,48,274,583,6176
1644185447.570892,-0.009094,0.009888,-0.991882,0.175053,0.432366,-0.130992,48,279,587,6192
1644185447.619293,-0.007141,0.009155,-0.993591,0.419328,0.356031,-0.192061,45,277,577,6176
1644185447.667693,-0.009216,0.010437,-0.987976,0.129252,0.447634,0.006412,47,287,584,6176
1644185447.716072,-0.008606,0.011414,-0.991089,0.098718,0.417099,-0.161527,43,274,578,6240
1644185447.764479,-0.007507,0.010132,-0.991577,0.266656,0.401832,-0.115725,53,286,578,6256
1644185447.812871,-0.008423,0.008911,-0.993347,0.144519,0.401832,-0.085191,49,287,586,6224
1644185447.861245,-0.006287,0.010132,-0.990356,0.297191,0.371298,-0.085191,48,281,580,6224
1644185447.909637,-0.008911,0.011047,-0.99054,0.251389,0.325496,-0.176794,47,285,586,6176
1644185447.958037,-0.00824,0.01062,-0.991394,0.266656,0.493435,0.052214,51,283,578,6224
1644185448.006409,-0.006836,0.012329,-0.991577,0.236122,0.417099,-0.100458,54,277,589,6192
1644185448.064916,-0.009033,0.011414,-0.991211,0.175053,0.432366,-0.039389,42,277,591,6224
1644185448.103149,-0.007019,0.010132,-0.991089,0.342992,0.432366,-0.054656,53,281,580,6224
1644185448.151574,-0.009705,0.008667,-0.991028,0.159786,0.356031,-0.024122,51,271,573,6224
1644185448.199973,-0.010315,0.011047,-0.99231,0.373527,0.340763,0.021679,39,283,599,6192
1644185448.248336,-0.007019,0.01062,-0.991394,0.266656,0.340763,-0.115725,41,279,592,6192
1644185448.297017,-0.007935,0.009766,-0.990845,0.266656,0.508702,0.082748,45,275,584,6192
1644185448.345828,-0.007263,0.014404,-0.991272,0.068183,0.401832,-0.024122,51,274,587,6192
1644185448.396866,-0.008057,0.01062,-0.993347,0.007115,0.356031,-0.130992,51,274,583,6176
1644185448.446581,-0.007751,0.010376,-0.991089,0.159786,0.569771,-0.100458,59,277,577,6192
1644185448.491591,-0.007751,0.01178,-0.993347,0.220855,0.233893,-0.207328,55,276,576,6224
1644185448.587106,-0.006226,0.008423,-0.991089,0.159786,0.417099,-0.085191,46,276,585,6176
1644185448.635488,-0.005737,0.011963,-0.99115,0.312458,0.493435,-0.100458,47,275,589,6176
1644185448.683897,-0.008057,0.009094,-0.990601,0.190321,0.325496,-0.069924,49,268,582,6224
1644185448.732395,-0.00946,0.007751,-0.992249,0.175053,0.310229,-0.14626,42,277,572,6176
1644185448.780673,-0.008179,0.010315,-0.99408,0.281924,0.554504,-0.054656,51,283,583,6224
1644185448.829114,-0.007935,0.008728,-0.993103,0.08345,0.356031,0.006412,45,285,589,6240
1644185448.877498,-0.006042,0.011169,-0.991821,0.266656,0.447634,-0.268397,61,282,584,6224
1644185448.925875,-0.007751,0.007202,-0.989563,0.236122,0.371298,-0.207328,43,271,587,6224
1644185448.974299,-0.006287,0.013855,-0.990723,0.35826,0.386565,-0.314198,59,275,582,6224
1644185449.022702,-0.010925,0.00885,-0.989563,0.113985,0.340763,-0.054656,46,286,583,6112
1644185449.084191,-0.009766,0.008362,-0.993103,0.175053,0.294962,-0.130992,54,277,591,6240
1644185449.119446,-0.007935,0.011536,-0.989258,0.190321,0.401832,-0.161527,43,279,597,6240
1644185449.167824,-0.009521,0.01062,-0.988647,0.113985,0.569771,0.021679,45,273,582,6192
1644185449.21622,-0.007324,0.00769,-0.992126,0.113985,0.523969,-0.054656,48,271,580,6256
1644185449.264668,-0.00946,0.011597,-0.991333,0.205588,0.417099,-0.024122,64,287,582,6192
1644185449.313016,-0.007385,0.011169,-0.990845,0.236122,0.508702,-0.100458,43,281,594,6224
1644185449.361386,-0.008118,0.00824,-0.993408,0.327725,0.371298,-0.039389,47,270,584,6192
1644185449.40979,-0.007324,0.007019,-0.99231,0.373527,0.417099,0.098015,48,276,592,6176
1644185449.458202,-0.010071,0.01001,-0.990723,0.205588,0.417099,0.021679,48,266,583,6192
1644185449.508132,-0.00885,0.009521,-0.993347,0.144519,0.218626,-0.161527,49,280,579,6192
1644185449.558402,-0.008667,0.01178,-0.990356,0.236122,0.508702,0.113282,59,273,584,6240
1644185449.608465,-0.007446,0.009766,-0.99353,0.312458,0.432366,-0.130992,45,277,584,6240
1644185449.700164,-0.007324,0.007324,-0.993896,0.175053,0.401832,-0.222595,45,277,584,6224
1644185449.748527,-0.01062,0.006958,-0.992798,0.159786,0.493435,-0.176794,47,277,584,6192
1644185449.796911,-0.00885,0.01178,-0.98938,0.159786,0.401832,0.021679,60,281,580,6224
1644185449.845362,-0.008728,0.011108,-0.990173,0.251389,0.325496,-0.085191,43,279,576,6192
1644185449.893763,-0.008789,0.009827,-0.990051,0.113985,0.554504,-0.115725,55,281,583,6160
1644185449.942176,-0.010071,0.011169,-0.993835,0.266656,0.523969,-0.100458,49,280,577,6224
1644185449.990541,-0.009033,0.011902,-0.992249,0.251389,0.371298,-0.25313,55,276,585,6240
1644185450.038944,-0.007812,0.008301,-0.989441,0.129252,0.432366,-0.14626,41,281,594,6240
1644185450.093638,-0.009399,0.009277,-0.993164,0.236122,0.462901,-0.176794,47,275,586,6192
1644185450.135657,-0.008972,0.008118,-0.989502,0.205588,0.432366,-0.085191,46,281,590,6240
1644185450.184088,-0.011475,0.008545,-0.993347,0.08345,0.340763,-0.14626,49,282,582,6192
1644185450.232487,-0.009827,0.010315,-0.987427,0.190321,0.325496,-0.024122,41,279,583,6240
1644185450.280831,-0.006836,0.010498,-0.990784,0.113985,0.401832,-0.161527,48,274,580,6240
1644185450.329248,-0.007996,0.013123,-0.992432,0.236122,0.340763,-0.069924,55,276,583,6176
1644185450.377641,-0.009216,0.010376,-0.989807,0.312458,0.325496,-0.161527,55,279,583,6176
1644185450.426454,-0.006836,0.010193,-0.993042,0.205588,0.478168,-0.115725,57,285,589,6192
1644185450.477238,-0.007019,0.009521,-0.99054,0.251389,0.356031,-0.039389,47,280,584,6224
1644185450.527225,-0.00769,0.009949,-0.990601,0.236122,0.417099,-0.024122,54,277,589,6224
1644185450.572185,-0.009033,0.012939,-0.990356,0.251389,0.417099,-0.176794,42,275,584,6224
1644185450.667998,-0.006775,0.010925,-0.992065,0.266656,0.172824,-0.176794,39,279,583,6224
1644185450.716381,-0.006531,0.009888,-0.990723,0.037649,0.462901,-0.100458,40,294,586,6224
1644185450.764864,-0.006836,0.009949,-0.988037,0.281924,0.417099,0.052214,51,279,576,6192
1644185450.813212,-0.008545,0.012207,-0.989136,0.388794,0.371298,-0.161527,53,279,580,6256
1644185450.86163,-0.008911,0.013,-0.99176,0.205588,0.417099,0.006412,54,275,575,6224
1644185450.910004,-0.008789,0.009399,-0.991089,0.251389,0.447634,-0.054656,45,270,582,6192
1644185450.958404,-0.007751,0.009521,-0.992065,0.35826,0.386565,-0.130992,49,280,584,6224
1644185451.006797,-0.008423,0.00824,-0.993835,0.068183,0.432366,-0.008855,51,271,592,6304
1644185451.064351,-0.006531,0.008118,-0.991272,0.007115,0.523969,-0.069924,51,266,590,6192
1644185451.103591,-0.006348,0.00946,-0.991638,0.251389,0.447634,-0.069924,49,275,584,6224
1644185451.151943,-0.007751,0.010437,-0.992615,0.220855,0.478168,-0.161527,54,280,579,6192
1644185451.200325,-0.00824,0.010437,-0.994446,0.129252,0.325496,-0.298931,47,280,579,6256
1644185451.248691,-0.009705,0.007751,-0.995422,0.098718,0.279695,-0.069924,46,286,580,6160
1644185451.297114,-0.007996,0.009521,-0.993164,0.205588,0.325496,0.067481,51,274,585,6256
1644185451.345497,-0.007141,0.012817,-0.993713,0.312458,0.401832,-0.085191,42,280,589,6176
1644185451.393899,-0.009705,0.009827,-0.992798,0.205588,0.554504,-0.130992,47,277,586,6240
1644185451.442308,-0.007446,0.010681,-0.992065,0.266656,0.462901,-0.161527,42,275,589,6128
1644185451.4907,-0.005615,0.009155,-0.992126,0.388794,0.218626,-0.115725,55,281,590,6256
1644185451.539081,-0.008118,0.01178,-0.989441,0.175053,0.462901,-0.039389,45,287,579,6224
1644185451.587728,-0.006348,0.009949,-0.993103,0.327725,0.508702,-0.222595,46,274,587,6224
1644185451.638395,-0.007263,0.010803,-0.992737,0.159786,0.478168,-0.024122,52,273,586,6176
1644185451.688445,-0.005859,0.007812,-0.991211,0.144519,0.356031,-0.130992,53,269,587,6160
1644185451.733454,-0.009583,0.010376,-0.990417,0.175053,0.356031,-0.115725,46,281,573,6304
1644185451.829422,-0.009583,0.009338,-0.990967,0.236122,0.371298,-0.222595,48,271,585,6240
1644185451.877852,-0.007996,0.008728,-0.989136,0.129252,0.356031,-0.176794,58,262,569,6240
1644185451.926261,-0.007385,0.013367,-0.991699,0.220855,0.417099,-0.222595,42,280,586,6256
1644185451.974665,-0.010925,0.009399,-0.994202,0.388794,0.340763,-0.069924,51,276,590,6224
1644185452.023069,-0.00946,0.007019,-0.990662,0.113985,0.371298,-0.130992,52,280,586,6224
1644185452.071477,-0.006165,0.01001,-0.990784,0.404061,0.386565,-0.130992,53,279,590,6192
1644185452.119843,-0.004883,0.006042,-0.989685,0.297191,0.371298,-0.268397,48,279,580,6224
1644185452.1682,-0.006531,0.010071,-0.990051,0.175053,0.340763,-0.176794,60,286,571,6160
1644185452.216581,-0.00531,0.01001,-0.991882,0.388794,0.615573,-0.130992,53,283,587,6224
1644185452.265075,-0.008423,0.010986,-0.991882,0.251389,0.386565,-0.100458,46,279,573,6176
1644185452.313358,-0.00769,0.007324,-0.991943,0.251389,0.447634,-0.237863,54,275,579,6160
1644185452.361764,-0.010071,0.010742,-0.991577,0.159786,0.478168,-0.085191,42,277,589,6240
1644185452.410153,-0.007568,0.011658,-0.991821,0.175053,0.478168,-0.25313,48,279,583,6224
1644185452.458547,-0.012695,0.010315,-0.990906,0.297191,0.447634,-0.192061,58,281,580,6224
1644185452.5069,-0.008362,0.01001,-0.992737,0.236122,0.386565,-0.039389,42,282,584,6192
1644185452.555331,-0.009888,0.010681,-0.990784,0.113985,0.356031,-0.14626,52,280,591,6192
1644185452.603743,-0.009888,0.008179,-0.99231,0.113985,0.386565,-0.115725,45,275,579,6224
1644185452.652167,-0.009094,0.01001,-0.991089,0.220855,0.432366,-0.085191,48,283,585,6128
1644185452.700517,-0.008118,0.009521,-0.991028,0.205588,0.615573,-0.161527,54,277,586,6224
1644185452.749216,-0.008545,0.009399,-0.992676,0.190321,0.539237,-0.039389,49,277,575,6224
1644185452.799561,-0.00824,0.00946,-0.991272,0.220855,0.432366,-0.115725,53,271,585,6256
1644185452.850458,-0.008789,0.011108,-0.991028,0.297191,0.401832,-0.130992,53,276,590,6192
1644185452.895522,-0.005127,0.009766,-0.988586,0.236122,0.340763,-0.054656,41,283,587,6224
1644185452.990905,-0.007996,0.009949,-0.99176,0.220855,0.478168,-0.192061,47,280,579,6224
1644185453.039299,-0.007629,0.009888,-0.991211,0.251389,0.432366,-0.14626,40,268,584,6224
1644185453.087795,-0.007202,0.009399,-0.992065,0.236122,0.386565,-0.222595,40,270,596,6192
1644185453.13605,-0.007141,0.01239,-0.991272,-0.008153,0.233893,-0.039389,48,269,580,6240
1644185453.184455,-0.006104,0.008728,-0.990601,0.327725,0.600305,-0.085191,46,281,594,6224
1644185453.232842,-0.009949,0.00708,-0.990662,0.251389,0.493435,0.052214,53,266,585,6176
1644185453.281199,-0.008423,0.010376,-0.990417,0.190321,0.356031,-0.100458,46,264,590,6240
1644185453.329612,-0.006592,0.011536,-0.98938,0.08345,0.447634,0.021679,54,285,572,6224
1644185453.378016,-0.008362,0.009399,-0.990173,0.205588,0.447634,-0.085191,51,271,583,6256
1644185453.426408,-0.00885,0.010986,-0.991333,0.251389,0.569771,0.021679,47,277,579,6224
1644185453.47482,-0.006775,0.011719,-0.99353,0.175053,0.432366,0.067481,54,268,584,6224
1644185453.523207,-0.01062,0.009338,-0.990479,0.251389,0.325496,0.067481,51,281,583,6256
1644185453.57159,-0.009399,0.009521,-0.990173,0.327725,0.493435,-0.054656,46,283,578,6240
1644185453.619978,-0.005798,0.008484,-0.989258,0.312458,0.371298,-0.069924,47,268,579,6176
1644185453.66838,-0.005981,0.010925,-0.991394,0.098718,0.371298,-0.100458,55,274,590,6240
1644185453.716732,-0.008362,0.01001,-0.989319,0.159786,0.462901,-0.222595,49,280,579,6224
1644185453.765231,-0.012878,0.010376,-0.990723,0.373527,0.340763,0.006412,54,282,584,6224
1644185453.813544,-0.008118,0.009338,-0.99176,0.037649,0.325496,0.021679,45,273,577,6224
1644185453.862261,-0.010132,0.006897,-0.992371,0.35826,0.340763,-0.115725,39,266,583,6176
1644185453.912,-0.007935,0.009094,-0.992615,0.113985,0.478168,0.006412,46,279,578,6192
1644185453.962216,-0.009644,0.011902,-0.989746,0.342992,0.371298,-0.130992,54,277,575,6224
1644185454.064284,-0.007385,0.006287,-0.992065,0.129252,0.340763,0.021679,39,283,583,6240
1644185454.104394,-0.01001,0.00769,-0.989563,0.312458,0.386565,-0.115725,49,285,579,6224
1644185454.152357,-0.007996,0.010376,-0.989441,0.190321,0.264427,-0.25313,58,276,571,6240
1644185454.200678,-0.007446,0.009521,-0.992859,0.190321,0.325496,-0.039389,48,276,585,6224
1644185454.249057,-0.008667,0.00946,-0.991455,0.175053,0.539237,-0.008855,43,286,585,6192
1644185454.297472,-0.009338,0.009399,-0.990234,0.129252,0.356031,0.021679,45,275,591,6224
1644185454.345863,-0.008057,0.00885,-0.990112,0.190321,0.417099,0.098015,51,274,583,6192
1644185454.394282,-0.007568,0.010925,-0.992737,0.236122,0.386565,-0.115725,45,280,586,6192
1644185454.44266,-0.006042,0.00885,-0.992859,0.373527,0.432366,-0.14626,58,271,597,6128
1644185454.491058,-0.007629,0.008728,-0.992126,0.251389,0.523969,-0.100458,52,273,577,6192
1644185454.539415,-0.005554,0.009644,-0.990784,0.190321,0.401832,-0.039389,49,280,593,6224
1644185454.587826,-0.012878,0.011047,-0.992432,0.251389,0.401832,-0.039389,42,287,591,6224
1644185454.636242,-0.009338,0.010803,-0.990173,0.144519,0.356031,-0.115725,49,273,582,6288
1644185454.684667,-0.005676,0.010071,-0.989929,-0.053954,0.432366,-0.024122,53,266,585,6224
1644185454.735041,-0.01062,0.00946,-0.990601,0.08345,0.340763,-0.115725,55,274,583,6256
1644185454.785298,-0.005981,0.007202,-0.99176,0.205588,0.462901,-0.085191,54,275,572,6288
1644185454.830413,-0.009155,0.009888,-0.992004,0.342992,0.371298,0.021679,48,271,578,6256
1644185454.926594,-0.008484,0.01062,-0.990295,0.251389,0.478168,0.082748,47,280,579,6224
1644185454.975296,-0.008728,0.009766,-0.991882,0.205588,0.279695,-0.054656,53,279,576,6192
1644185455.023425,-0.009155,0.008667,-0.989136,0.312458,0.356031,-0.207328,45,273,582,6224
1644185455.071846,-0.007385,0.010498,-0.99115,0.190321,0.63084,-0.085191,49,273,584,6224
1644185455.120161,-0.010376,0.010132,-0.990662,0.266656,0.539237,-0.192061,42,280,577,6240
1644185455.168524,-0.007812,0.009338,-0.990784,0.175053,0.493435,-0.14626,49,292,586,6176
1644185455.216927,-0.009766,0.009644,-0.990723,0.068183,0.523969,-0.008855,41,279,583,6224
1644185455.265331,-0.009705,0.009094,-0.994629,0.220855,0.493435,-0.115725,57,277,575,6160
1644185455.313714,-0.010071,0.012512,-0.992554,0.175053,0.294962,-0.024122,49,287,577,6192
1644185455.362165,-0.010132,0.010254,-0.992676,0.266656,0.417099,-0.008855,52,280,582,6192
1644185455.410516,-0.005737,0.013733,-0.991516,0.08345,0.462901,-0.085191,54,287,586,6176
1644185455.458904,-0.004883,0.012512,-0.991821,0.297191,0.432366,-0.130992,46,281,573,6240
1644185455.5073,-0.007751,0.009155,-0.991516,0.068183,0.371298,-0.176794,54,282,582,6256
1644185455.555688,-0.00824,0.009277,-0.992798,0.281924,0.508702,-0.100458,45,280,586,6240
1644185455.604084,-0.009644,0.010803,-0.989868,0.236122,0.462901,0.006412,51,274,587,6192
1644185455.652685,-0.006348,0.008789,-0.99353,0.098718,0.401832,-0.085191,45,273,589,6256
1644185455.70086,-0.008484,0.011658,-0.991455,0.113985,0.325496,-0.268397,57,280,584,6224
1644185455.749233,-0.009766,0.010803,-0.989014,0.098718,0.462901,-0.024122,52,285,582,6240
1644185455.797696,-0.008911,0.008728,-0.991028,0.373527,0.340763,-0.176794,39,274,578,6256
1644185455.847213,-0.010071,0.010925,-0.990417,0.205588,0.508702,-0.176794,46,281,585,6192
1644185455.897331,-0.009644,0.012756,-0.989685,0.205588,0.371298,-0.069924,52,275,586,6192
1644185455.947634,-0.00946,0.008789,-0.990417,0.144519,0.325496,-0.222595,46,279,580,6224
1644185455.992044,-0.008606,0.011108,-0.993835,0.144519,0.401832,-0.085191,54,275,575,6128
1644185456.088161,-0.008728,0.013306,-0.990601,0.205588,0.508702,-0.069924,51,286,597,6240
1644185456.136402,-0.005615,0.007935,-0.99231,0.220855,0.432366,-0.085191,60,276,580,6224
1644185456.184859,-0.008545,0.011597,-0.990784,0.266656,0.462901,0.021679,52,280,584,6224
1644185456.233201,-0.008606,0.010559,-0.990356,0.297191,0.279695,-0.054656,48,269,583,6240
1644185456.281583,-0.01355,0.01062,-0.990662,0.251389,0.24916,-0.024122,57,273,586,6192
1644185456.329971,-0.006165,0.011841,-0.992737,0.159786,0.386565,-0.130992,60,283,580,6240
1644185456.378364,-0.006104,0.013306,-0.989868,0.159786,0.356031,-0.039389,59,280,593,6192
1644185456.42676,-0.006226,0.01062,-0.991089,0.190321,0.401832,-0.237863,52,273,584,6176
1644185456.475181,-0.008545,0.009277,-0.990967,0.205588,0.371298,-0.176794,41,276,587,6176
1644185456.523554,-0.007324,0.009094,-0.992493,0.159786,0.325496,-0.176794,47,273,584,6240
1644185456.571943,-0.00824,0.010681,-0.989197,0.312458,0.539237,-0.085191,51,274,583,6160
1644185456.620326,-0.006958,0.011536,-0.989441,0.251389,0.417099,-0.192061,46,264,573,6224
1644185456.668728,-0.010864,0.01062,-0.990295,0.220855,0.294962,-0.176794,51,279,587,6224
1644185456.717123,-0.00647,0.008118,-0.99054,0.236122,0.401832,-0.314198,53,274,583,6160
1644185456.765514,-0.007629,0.010742,-0.989258,0.129252,0.356031,-0.039389,52,280,586,6224
1644185456.813931,-0.005798,0.011597,-0.992432,0.236122,0.432366,0.082748,46,279,594,6192
1644185456.862359,-0.009888,0.010803,-0.992493,0.220855,0.447634,-0.161527,42,275,589,6192
1644185456.910906,-0.008301,0.012939,-0.992249,0.175053,0.294962,-0.054656,58,286,587,6176
1644185456.959145,-0.006226,0.010437,-0.991272,0.129252,0.432366,0.006412,58,271,583,6224
1644185457.066816,-0.00824,0.009644,-0.99054,0.281924,0.432366,-0.085191,47,273,582,6224
1644185457.104322,-0.010742,0.009644,-0.99054,0.266656,0.218626,-0.115725,51,279,585,6160
1644185457.152659,-0.007629,0.009888,-0.993164,0.129252,0.325496,-0.222595,45,277,579,6160
1644185457.201046,-0.00885,0.012878,-0.992188,0.052916,0.340763,-0.024122,53,279,583,6224
1644185457.249419,-0.011169,0.012512,-0.99176,0.129252,0.264427,-0.100458,54,277,582,6176
1644185457.297847,-0.008545,0.008484,-0.990601,0.266656,0.417099,-0.222595,46,274,585,6160
1644185457.346228,-0.008545,0.011292,-0.991577,0.052916,0.356031,0.021679,46,281,578,6224
1644185457.394717,-0.00592,0.009827,-0.990417,0.175053,0.356031,0.006412,51,274,587,6128
1644185457.443033,-0.009644,0.010254,-0.990723,0.098718,0.417099,-0.222595,49,273,582,6176
1644185457.49179,-0.007874,0.010559,-0.988831,0.205588,0.203359,-0.314198,49,273,593,6240
1644185457.539803,-0.008667,0.012085,-0.99176,0.236122,0.417099,-0.100458,43,281,583,6224
1644185457.588167,-0.010315,0.011353,-0.990051,0.129252,0.493435,-0.130992,49,277,579,6128
1644185457.636636,-0.005676,0.010681,-0.99115,0.220855,0.462901,-0.115725,54,275,584,6240
1644185457.685337,-0.009399,0.009583,-0.991028,0.190321,0.310229,-0.024122,59,263,579,6240
1644185457.734912,-0.006714,0.009155,-0.992432,0.312458,0.371298,-0.161527,42,287,586,6224
1644185457.784908,-0.007996,0.011047,-0.991028,0.175053,0.447634,-0.130992,59,273,589,6192
1644185457.836414,-0.006287,0.012451,-0.993103,0.144519,0.508702,-0.039389,47,275,591,6224
1644185457.926959,-0.007874,0.011475,-0.989685,0.342992,0.447634,-0.100458,45,273,591,6240
1644185457.975471,-0.006409,0.009705,-0.99115,0.129252,0.325496,-0.008855,51,279,583,6160
1644185458.023755,-0.009216,0.010986,-0.991943,0.220855,0.24916,-0.14626,51,266,592,6240
1644185458.072308,-0.008484,0.009521,-0.989014,0.220855,0.417099,-0.008855,55,279,587,6160
1644185458.120525,-0.008057,0.011475,-0.991089,0.327725,0.493435,-0.222595,45,275,586,6224
1644185458.168903,-0.005981,0.011963,-0.990356,0.205588,0.279695,-0.008855,48,279,587,6240
1644185458.217299,-0.006592,0.010376,-0.991394,0.129252,0.24916,0.006412,55,266,587,6240
1644185458.265682,-0.006775,0.011719,-0.990601,0.236122,0.493435,0.052214,53,276,592,6224
1644185458.314086,-0.010864,0.011169,-0.99176,0.236122,0.523969,-0.222595,47,273,584,6224
1644185458.362492,-0.007507,0.012207,-0.991394,0.404061,0.356031,-0.069924,52,285,584,6288
1644185458.410877,-0.006226,0.009277,-0.992615,0.220855,0.386565,-0.130992,52,280,586,6304
1644185458.459269,-0.009827,0.010132,-0.992065,0.190321,0.478168,-0.039389,48,286,594,6224
1644185458.507645,-0.008057,0.010742,-0.989563,0.236122,0.264427,-0.130992,43,276,587,6160
1644185458.556041,-0.00708,0.010681,-0.989868,0.327725,0.493435,-0.069924,49,268,586,6240
1644185458.604452,-0.007629,0.011719,-0.989624,0.220855,0.432366,-0.176794,51,274,576,6224
1644185458.652833,-0.007385,0.010742,-0.98999,0.297191,0.356031,0.036947,49,277,577,6192
1644185458.701235,-0.008423,0.008301,-0.99231,0.144519,0.340763,-0.176794,49,270,593,6240
1644185458.749601,-0.010742,0.011108,-0.99115,0.281924,0.310229,-0.115725,51,276,597,6160
1644185458.79833,-0.009033,0.009094,-0.993042,0.281924,0.401832,-0.039389,49,277,593,6224
1644185458.848875,-0.004272,0.009949,-0.992859,0.251389,0.356031,-0.283664,57,280,586,6304
1644185458.899858,-0.008301,0.011597,-0.99054,0.113985,0.310229,-0.085191,55,281,585,6240
1644185458.944278,-0.008362,0.010681,-0.991455,0.266656,0.432366,-0.085191,34,274,580,6192
1644185459.040014,-0.007263,0.008789,-0.990112,0.281924,0.371298,-0.192061,48,274,587,6240
1644185459.089086,-0.007812,0.010376,-0.990051,0.159786,0.478168,0.006412,46,279,576,6224
1644185459.136802,-0.011841,0.008606,-0.990967,0.190321,0.386565,-0.130992,41,269,594,6192
1644185459.185184,-0.010681,0.009399,-0.991943,0.236122,0.401832,-0.14626,48,271,580,6240
1644185459.233554,-0.009155,0.011108,-0.991577,0.236122,0.356031,-0.130992,54,270,582,6240
1644185459.281947,-0.009399,0.009094,-0.991638,0.159786,0.279695,-0.161527,57,280,572,6176
1644185459.330345,-0.009766,0.008545,-0.991516,0.312458,0.478168,-0.222595,49,282,584,6080
1644185459.378733,-0.007019,0.010864,-0.991211,0.35826,0.371298,-0.14626,47,277,586,6256
1644185459.427144,-0.007629,0.008179,-0.99176,0.098718,0.447634,-0.130992,52,273,589,6256
1644185459.475514,-0.007812,0.009888,-0.991272,0.236122,0.432366,-0.039389,41,281,590,6176
1644185459.523928,-0.01123,0.010254,-0.989197,0.205588,0.386565,-0.14626,54,282,584,6240
1644185459.57231,-0.006653,0.006775,-0.991028,0.220855,0.356031,-0.14626,55,283,578,6176
1644185459.620692,-0.011963,0.010376,-0.989502,0.098718,0.401832,-0.069924,49,263,579,6192
1644185459.66909,-0.009888,0.009705,-0.992126,0.236122,0.478168,-0.039389,47,285,586,6192
1644185459.71749,-0.00824,0.01062,-0.99176,0.190321,0.325496,-0.14626,57,292,589,6176
1644185459.765878,-0.007019,0.010986,-0.993713,0.08345,0.371298,-0.085191,46,274,578,6192
1644185459.814271,-0.007812,0.008057,-0.990051,0.220855,0.294962,-0.115725,51,269,580,6176
1644185459.862715,-0.006958,0.010193,-0.990234,0.373527,0.356031,0.006412,49,265,582,6192
1644185459.911092,-0.006531,0.008728,-0.992798,0.129252,0.188092,-0.115725,47,275,579,6160
1644185459.960837,-0.00769,0.009277,-0.992004,0.08345,0.356031,-0.115725,53,279,583,6160
1644185460.067947,-0.006042,0.013672,-0.991089,0.251389,0.294962,-0.069924,57,294,579,6256
1644185460.105932,-0.01001,0.008667,-0.989685,0.052916,0.539237,-0.100458,47,277,582,6192
1644185460.153056,-0.006958,0.011902,-0.993225,0.205588,0.493435,-0.130992,53,279,580,6304
1644185460.201413,-0.008362,0.010437,-0.996216,0.08345,0.356031,-0.237863,57,268,575,6224
1644185460.249777,-0.007263,0.009766,-0.992188,0.129252,0.401832,0.021679,48,271,578,6192
1644185460.298203,-0.008911,0.012451,-0.991272,0.220855,0.386565,-0.039389,34,279,583,6192
1644185460.346597,-0.008118,0.009521,-0.991333,0.297191,0.478168,-0.192061,42,280,579,6240
1644185460.395085,-0.006714,0.008911,-0.991333,0.220855,0.447634,0.036947,51,281,580,6160
1644185460.443378,-0.008118,0.010254,-0.99231,0.480397,0.340763,-0.115725,47,280,589,6240
1644185460.492177,-0.007019,0.012573,-0.988342,0.220855,0.417099,-0.069924,53,283,580,6160
1644185460.54016,-0.009399,0.011047,-0.991272,0.205588,0.340763,-0.176794,47,285,589,6192
1644185460.588549,-0.007141,0.009705,-0.992432,0.175053,0.447634,-0.100458,36,281,590,6160
1644185460.636952,-0.008606,0.009949,-0.992554,0.190321,0.294962,-0.161527,41,286,587,6192
1644185460.685877,-0.007751,0.011658,-0.988708,0.236122,0.340763,-0.069924,41,279,583,6128
1644185460.736297,-0.007507,0.01001,-0.989624,0.205588,0.310229,-0.14626,49,280,582,6256
1644185460.786345,-0.009705,0.009949,-0.992371,0.129252,0.310229,-0.237863,49,280,582,6192
1644185460.831403,-0.008667,0.008911,-0.992615,0.08345,0.401832,-0.176794,45,280,577,6240
1644185460.927348,-0.009155,0.009155,-0.991211,0.205588,0.508702,-0.161527,41,281,580,6224
1644185460.975721,-0.010071,0.013306,-0.98822,0.159786,0.508702,-0.054656,51,281,578,6240
1644185461.024137,-0.004211,0.014587,-0.991272,0.449863,0.417099,-0.207328,45,280,582,6240
1644185461.072593,-0.008545,0.011292,-0.992493,0.236122,0.279695,-0.008855,55,286,583,6224
1644185461.120889,-0.007568,0.00885,-0.992493,0.281924,0.325496,-0.283664,48,286,580,6304
1644185461.169268,-0.008362,0.009827,-0.988464,0.205588,0.264427,0.113282,53,274,585,6240
1644185461.217656,-0.01062,0.009949,-0.992432,0.205588,0.294962,0.006412,46,271,583,6176
1644185461.266045,-0.007568,0.008301,-0.992249,0.129252,0.462901,-0.192061,57,275,582,6224
1644185461.314445,-0.008362,0.01178,-0.992188,0.159786,0.478168,-0.192061,43,281,585,6192
1644185461.362827,-0.005066,0.011047,-0.992493,0.297191,0.386565,-0.176794,51,274,583,6192
1644185461.411236,-0.010437,0.00885,-0.991821,0.144519,0.340763,-0.008855,42,275,577,6176
1644185461.459619,-0.007751,0.005676,-0.993103,0.266656,0.310229,-0.130992,40,270,579,6160
1644185461.507996,-0.008301,0.012329,-0.993286,0.251389,0.493435,-0.100458,45,277,577,6224
1644185461.556403,-0.007263,0.008057,-0.993958,0.342992,0.493435,-0.100458,48,266,590,6256
1644185461.604825,-0.00769,0.009338,-0.99231,0.159786,0.401832,0.113282,48,274,578,6240
1644185461.653195,-0.009338,0.00885,-0.994324,0.220855,0.386565,-0.161527,40,282,584,6224
1644185461.701595,-0.012573,0.010376,-0.992126,0.190321,0.447634,-0.039389,46,279,590,6160
1644185461.749957,-0.006409,0.008057,-0.993042,0.175053,0.401832,-0.100458,52,270,586,6128
1644185461.798418,-0.008606,0.011475,-0.989685,0.08345,0.340763,-0.222595,60,276,590,6160
1644185461.848076,-0.008362,0.007996,-0.991638,0.190321,0.218626,-0.024122,46,279,592,6176
1644185461.897905,-0.009888,0.011047,-0.991577,0.220855,0.447634,-0.161527,42,277,591,6176
1644185461.948338,-0.010925,0.011292,-0.991577,0.068183,0.508702,-0.100458,39,266,580,6192
1644185461.992891,-0.010132,0.008911,-0.992126,0.220855,0.554504,-0.130992,53,283,583,6160
1644185462.08884,-0.012085,0.012329,-0.989502,0.08345,0.264427,-0.25313,49,280,582,6224
1644185462.137131,-0.006592,0.010315,-0.989868,0.159786,0.401832,-0.024122,34,281,578,6224
1644185462.185496,-0.007568,0.010437,-0.991272,0.327725,0.24916,-0.268397,57,277,584,6192
1644185462.233924,-0.007507,0.008667,-0.991577,0.236122,0.386565,-0.176794,57,268,579,6176
1644185462.282388,-0.009399,0.013428,-0.991577,0.113985,0.310229,-0.008855,49,282,589,6224
1644185462.330683,-0.010681,0.009949,-0.990723,0.113985,0.294962,0.021679,60,271,587,6240
1644185462.379068,-0.007751,0.01062,-0.991516,0.113985,0.523969,-0.115725,36,279,580,6176
1644185462.427491,-0.010071,0.012268,-0.990295,0.113985,0.432366,-0.054656,51,269,585,6240
1644185462.475871,-0.011475,0.009033,-0.990356,0.144519,0.508702,0.052214,52,275,577,6224
1644185462.524278,-0.007507,0.011169,-0.992432,0.281924,0.432366,-0.039389,53,276,585,6192
1644185462.572686,-0.008484,0.013062,-0.990112,0.190321,0.340763,-0.054656,36,276,587,6256
1644185462.621059,-0.008911,0.008728,-0.993042,0.098718,0.386565,-0.222595,48,281,585,6128
1644185462.669458,-0.009338,0.009583,-0.99176,0.251389,0.279695,0.006412,45,282,593,6224
1644185462.717838,-0.007874,0.011292,-0.991638,0.342992,0.340763,-0.100458,45,280,577,6240
1644185462.766243,-0.009827,0.008789,-0.994751,0.205588,0.417099,-0.115725,53,281,592,6192
1644185462.814678,-0.008423,0.01001,-0.990479,0.220855,0.401832,-0.207328,46,276,578,6240
1644185462.863078,-0.00415,0.012695,-0.988831,0.251389,0.462901,-0.039389,51,269,583,6240
1644185462.911628,-0.009827,0.010498,-0.990723,0.220855,0.493435,-0.054656,45,275,579,6224
1644185462.960198,-0.007629,0.012939,-0.992126,0.159786,0.401832,-0.115725,45,277,577,6192
1644185463.065949,-0.009094,0.012207,-0.990479,0.175053,0.325496,-0.314198,57,280,577,6176
1644185463.106955,-0.007568,0.007996,-0.990234,0.098718,0.386565,0.021679,54,280,591,6240
1644185463.153395,-0.005676,0.007812,-0.99054,0.113985,0.432366,-0.115725,54,282,575,6256
1644185463.201775,-0.006348,0.00708,-0.991821,0.251389,0.340763,-0.14626,51,279,583,6224
1644185463.250148,-0.00946,0.010986,-0.991089,0.098718,0.478168,-0.069924,39,269,583,6240
1644185463.298563,-0.007324,0.011353,-0.992676,0.312458,0.493435,-0.069924,52,277,598,6224
1644185463.346962,-0.007507,0.011047,-0.992004,0.190321,0.340763,-0.222595,42,285,582,6240
1644185463.395327,-0.006531,0.008911,-0.988464,0.144519,0.325496,-0.130992,61,287,582,6192
1644185463.443761,-0.004883,0.007507,-0.992493,0.129252,0.401832,-0.085191,49,277,584,6192
1644185463.492365,-0.008179,0.010376,-0.99115,0.129252,0.401832,-0.115725,48,279,583,6224
1644185463.540533,-0.006592,0.008972,-0.991394,0.129252,0.401832,-0.024122,46,276,587,6256
1644185463.588923,-0.008911,0.009705,-0.995361,0.037649,0.401832,-0.115725,43,262,587,6224
1644185463.637281,-0.005493,0.013977,-0.987,0.266656,0.325496,-0.176794,47,270,582,6240
1644185463.685695,-0.005859,0.010132,-0.989014,0.113985,0.386565,-0.130992,55,279,590,6240
1644185463.734427,-0.008057,0.012756,-0.989929,0.312458,0.447634,-0.222595,48,274,587,6240
1644185463.783818,-0.009766,0.009155,-0.990601,0.327725,0.233893,0.082748,54,287,582,6256
1644185463.835681,-0.009827,0.013,-0.990906,0.08345,0.325496,-0.329466,46,279,590,6224
1644185463.879497,-0.010254,0.009155,-0.992126,0.35826,0.294962,-0.115725,42,277,577,6240
1644185463.976075,-0.008606,0.008728,-0.989929,0.205588,0.447634,-0.25313,52,273,589,6224
1644185464.024497,-0.009949,0.011047,-0.993591,0.236122,0.462901,-0.176794,51,291,583,6192
1644185464.072934,-0.00708,0.01178,-0.988892,0.266656,0.401832,-0.054656,61,275,579,6192
1644185464.121282,-0.010437,0.010925,-0.993225,0.190321,0.386565,-0.085191,43,274,576,6192
1644185464.169626,-0.00885,0.008545,-0.992737,0.205588,0.325496,0.006412,36,269,583,6256
1644185464.218014,-0.009521,0.010437,-0.992554,0.342992,0.493435,0.006412,52,275,584,6240
1644185464.266384,-0.009583,0.011536,-0.989502,0.220855,0.340763,-0.085191,43,269,583,6192
1644185464.314798,-0.00885,0.012085,-0.991821,0.236122,0.401832,-0.024122,42,277,586,6176
1644185464.363209,-0.006775,0.009155,-0.992126,0.312458,0.417099,-0.14626,49,275,586,6240
1644185464.411598,-0.007874,0.011414,-0.989929,0.129252,0.356031,-0.069924,40,268,589,6224
1644185464.459987,-0.007446,0.012146,-0.989746,0.342992,0.432366,-0.024122,45,273,584,6240
1644185464.50838,-0.008545,0.012512,-0.990906,0.190321,0.493435,0.006412,48,276,573,6224
1644185464.556754,-0.005615,0.010315,-0.991821,0.297191,0.294962,-0.100458,49,280,589,6176
1644185464.605249,-0.008728,0.01062,-0.993164,0.175053,0.401832,-0.115725,47,282,582,6240
1644185464.653605,-0.008545,0.009827,-0.991028,0.159786,0.325496,-0.14626,43,281,580,6224
1644185464.701968,-0.006348,0.012146,-0.992126,0.068183,0.386565,-0.176794,39,276,585,6224
1644185464.750322,-0.007751,0.009705,-0.991882,0.281924,0.447634,-0.130992,48,281,583,6240
1644185464.798737,-0.010193,0.009888,-0.99176,0.08345,0.386565,-0.085191,55,276,585,6224
1644185464.847171,-0.009949,0.013855,-0.992676,0.052916,0.340763,-0.054656,47,290,579,6224
1644185464.896388,-0.007568,0.009521,-0.990173,0.251389,0.523969,-0.024122,52,275,584,6160
1644185464.946763,-0.006226,0.011047,-0.990845,0.159786,0.233893,-0.024122,51,271,587,6192
1644185464.996798,-0.008972,0.011169,-0.992432,0.220855,0.447634,-0.054656,55,274,580,6224
1644185465.041384,-0.009827,0.010925,-0.993347,0.281924,0.356031,-0.039389,52,277,579,6192
1644185465.137486,-0.008423,0.009094,-0.99231,0.312458,0.386565,-0.054656,46,274,583,6224
1644185465.185864,-0.00824,0.011292,-0.992004,0.175053,0.508702,-0.25313,52,270,582,6176
1644185465.234272,-0.008118,0.00946,-0.99054,0.022382,0.264427,-0.024122,51,276,578,6224
1644185465.282672,-0.007141,0.009888,-0.992554,0.098718,0.279695,-0.207328,49,273,589,6240
1644185465.331038,-0.007324,0.008301,-0.992371,0.281924,0.447634,0.006412,38,275,582,6224
1644185465.379439,-0.008545,0.011047,-0.990295,0.098718,0.264427,-0.069924,46,271,573,6176
1644185465.427829,-0.006775,0.010315,-0.991394,0.35826,0.508702,-0.222595,49,275,577,6160
1644185465.476227,-0.009399,0.008179,-0.992859,0.205588,0.356031,-0.008855,49,287,584,6192
1644185465.524734,-0.008728,0.011658,-0.989441,0.251389,0.462901,-0.085191,41,281,587,6240
1644185465.573093,-0.00647,0.009277,-0.990295,0.281924,0.371298,-0.024122,45,273,582,6176
1644185465.621413,-0.010071,0.007019,-0.992554,0.266656,0.340763,-0.039389,53,274,585,6240
1644185465.669812,-0.008118,0.00885,-0.989929,0.129252,0.340763,-0.14626,45,282,577,6192
1644185465.718203,-0.010254,0.007263,-0.990723,0.175053,0.417099,-0.085191,53,274,587,6160
1644185465.7666,-0.00769,0.008728,-0.990601,0.236122,0.340763,-0.268397,47,273,582,6176
1644185465.815028,-0.009216,0.011414,-0.992432,0.129252,0.294962,-0.100458,43,276,571,6240
1644185465.863429,-0.011292,0.009399,-0.990112,0.113985,0.401832,-0.192061,54,275,591,6240
1644185465.911804,-0.010071,0.010376,-0.987732,0.281924,0.386565,-0.069924,51,281,590,6224
1644185465.960272,-0.006653,0.011902,-0.990967,0.068183,0.371298,-0.054656,55,276,594,6224
1644185466.008616,-0.009338,0.00885,-0.992004,0.236122,0.432366,-0.054656,39,274,583,6160
1644185466.082755,-0.008179,0.009033,-0.990295,0.251389,0.401832,-0.085191,49,277,589,6192
1644185466.11379,-0.007568,0.012268,-0.990601,0.190321,0.417099,-0.14626,41,286,590,6192
1644185466.202379,-0.00647,0.009705,-0.991821,0.251389,0.356031,-0.024122,48,281,585,6192
1644185466.250523,-0.008911,0.009949,-0.992188,0.220855,0.493435,-0.069924,43,271,580,6192
1644185466.298917,-0.009216,0.009705,-0.990417,0.327725,0.371298,-0.069924,42,282,582,6160
1644185466.347311,-0.007935,0.009216,-0.990845,0.205588,0.371298,-0.085191,51,274,585,6192
1644185466.395692,-0.009888,0.007568,-0.991577,0.220855,0.371298,-0.039389,49,282,577,6256
1644185466.44409,-0.008911,0.009277,-0.993164,0.373527,0.310229,0.021679,54,280,582,6176
1644185466.492518,-0.009644,0.009827,-0.992371,0.190321,0.462901,-0.085191,45,280,579,6112
1644185466.540891,-0.008728,0.01001,-0.990112,0.266656,0.447634,0.036947,43,274,594,6192
1644185466.589275,-0.007202,0.00946,-0.987915,0.144519,0.401832,-0.100458,48,266,594,6240
1644185466.637668,-0.005737,0.008789,-0.989685,0.159786,0.401832,-0.222595,46,281,580,6240
1644185466.686077,-0.01123,0.009705,-0.98999,0.113985,0.325496,-0.207328,51,276,578,6240
1644185466.734458,-0.007812,0.010315,-0.990723,0.236122,0.462901,-0.298931,53,281,583,6224
1644185466.782873,-0.008118,0.011414,-0.991943,0.144519,0.417099,-0.14626,57,280,579,6240
1644185466.831239,-0.008179,0.010376,-0.988586,0.068183,0.523969,-0.054656,51,279,590,6240
1644185466.879675,-0.008484,0.011292,-0.989685,0.098718,0.386565,-0.054656,51,274,592,6192
1644185466.928059,-0.00769,0.011108,-0.990295,0.144519,0.325496,-0.222595,58,286,578,6224
1644185466.976429,-0.010437,0.009399,-0.990906,0.251389,0.356031,-0.176794,43,269,587,6176
1644185467.024856,-0.003723,0.01001,-0.989929,0.129252,0.447634,-0.024122,54,273,584,6192
1644185467.093711,-0.010254,0.008972,-0.991577,0.098718,0.386565,-0.069924,54,270,589,6224
1644185467.123398,-0.009583,0.009949,-0.99176,0.08345,0.24916,-0.069924,57,280,572,6304
1644185467.173116,-0.010681,0.012146,-0.990906,0.144519,0.356031,-0.115725,48,271,571,6192
1644185467.222468,-0.009521,0.007751,-0.992432,0.297191,0.356031,-0.054656,54,275,584,6224
1644185467.267661,-0.00946,0.01123,-0.990234,0.08345,0.447634,-0.085191,43,266,587,6240
1644185467.363581,-0.008789,0.012207,-0.991089,0.35826,0.310229,-0.176794,43,276,587,6192
