epoch,acc_x,acc_y,acc_z,rot_x,rot_y,rot_z,mag_x,mag_y,mag_z,temp
1644153300.0808158,-0.01202392578125,0.00848388671875,-0.9920654296875,0.004183206106870341,0.11416793893129773,0.04372519083969466,48,269,576,4256
1644153300.127043,-0.01239013671875,0.009521484375,-0.99298095703125,-0.10268702290076326,0.2515725190839695,-0.017343511450381682,41,269,562,4320
1644153300.1754575,-0.01275634765625,0.0076904296875,-0.99249267578125,-0.24009160305343502,0.11416793893129773,0.104793893129771,51,279,566,4304
1644153300.2238388,-0.01275634765625,0.00946044921875,-0.992919921875,0.04998473282442756,0.2668396946564886,-0.0020763358778626007,48,279,566,4320
1644153300.2722132,-0.01434326171875,0.00885009765625,-0.9915771484375,-0.13322137404580142,0.15996946564885495,-0.032610687022900764,47,268,563,4320
1644153300.3205824,-0.01708984375,0.0037841796875,-0.9912109375,-0.056885496183205986,0.09890076335877862,-0.10894656488549617,43,266,569,4352
1644153300.3690157,-0.0118408203125,0.00732421875,-0.99237060546875,-0.0721526717557251,0.1905038167938931,0.028458015267175577,49,263,565,4304
1644153300.417421,-0.01025390625,0.0072021484375,-0.9921875,-0.1790229007633587,0.1905038167938931,0.07425954198473284,48,269,569,4320
1644153300.4658005,-0.01055908203125,0.00885009765625,-0.99383544921875,-0.24009160305343502,0.23630534351145038,-0.047877862595419846,54,277,572,4320
1644153300.5141428,-0.0146484375,0.01019287109375,-0.99261474609375,-0.24009160305343502,0.22103816793893127,0.07425954198473284,48,271,576,4320
1644153300.5625489,-0.014892578125,0.00714111328125,-0.99249267578125,-0.10268702290076326,0.23630534351145038,-0.09367938931297709,58,271,576,4288
1644153300.6109452,-0.0140380859375,0.011474609375,-0.991455078125,-0.04161832061068693,0.2973740458015267,-0.032610687022900764,49,275,570,4256
1644153300.6593566,-0.013671875,0.0069580078125,-0.99017333984375,-0.11795419847328237,0.2973740458015267,-0.13948091603053436,48,281,571,4320
1644153300.707722,-0.0135498046875,0.00872802734375,-0.991455078125,-0.14848854961832053,0.38897709923664125,-0.032610687022900764,55,276,571,4304
1644153300.7560894,-0.0120849609375,0.00787353515625,-0.99365234375,-0.026351145038167822,0.37370992366412215,-0.0020763358778626007,49,275,570,4320
1644153300.8044877,-0.01239013671875,0.00732421875,-0.9923095703125,-0.14848854961832053,0.35844274809160304,-0.0020763358778626007,51,274,564,4320
1644153300.852881,-0.0155029296875,0.00732421875,-0.990234375,-0.026351145038167822,0.4500458015267176,-0.017343511450381682,48,281,573,4352
1644153300.9012473,-0.00970458984375,0.0081787109375,-0.99102783203125,0.019450381679389395,0.2668396946564886,0.104793893129771,53,281,557,4368
1644153300.9506645,-0.01031494140625,0.00860595703125,-0.9931640625,-0.04161832061068693,0.2668396946564886,-0.0020763358778626007,55,264,573,4256
1644153301.0007598,-0.01361083984375,0.00921630859375,-0.99176025390625,-0.011083969465648769,0.3126412213740458,-0.017343511450381682,60,279,569,4304
1644153301.0947404,-0.0150146484375,0.00555419921875,-0.9935302734375,0.004183206106870341,0.22103816793893127,0.05899236641221374,53,269,564,4288
1644153301.1430988,-0.0147705078125,0.00738525390625,-0.992919921875,-0.026351145038167822,0.2973740458015267,-0.10894656488549617,57,270,565,4352
1644153301.1914852,-0.0133056640625,0.0096435546875,-0.9912109375,-0.026351145038167822,0.20577099236641216,0.08952671755725192,43,279,573,4288
1644153301.2398505,-0.01348876953125,0.0076904296875,-0.99163818359375,-0.0874198473282442,0.22103816793893127,0.04372519083969466,47,273,570,4320
1644153301.2882488,-0.010498046875,0.00958251953125,-0.98974609375,-0.14848854961832053,0.22103816793893127,0.16586259541984733,49,270,577,4368
1644153301.336628,-0.01129150390625,0.00823974609375,-0.992919921875,0.004183206106870341,0.1447022900763359,0.013190839694656495,49,273,572,4288
1644153301.3850515,-0.01092529296875,0.00750732421875,-0.9913330078125,-0.04161832061068693,0.37370992366412215,0.04372519083969466,42,273,565,4320
1644153301.4334147,-0.0155029296875,0.00567626953125,-0.994140625,-0.19429007633587778,0.32790839694656493,0.028458015267175577,46,274,564,4320
1644153301.481813,-0.01422119140625,0.00567626953125,-0.99365234375,0.004183206106870341,0.22103816793893127,-0.032610687022900764,47,270,563,4320
1644153301.5301642,-0.01373291015625,0.00714111328125,-0.99212646484375,-0.04161832061068693,0.3126412213740458,0.12006106870229008,54,275,568,4288
1644153301.5785406,-0.0135498046875,0.00555419921875,-0.993408203125,-0.13322137404580142,0.1447022900763359,-0.15474809160305342,40,273,572,4368
1644153301.626923,-0.011474609375,0.00762939453125,-0.9930419921875,0.034717557251908504,0.43477862595419847,0.05899236641221374,53,271,573,4368
1644153301.6753602,-0.01171875,0.008056640625,-0.99322509765625,-0.11795419847328237,0.35844274809160304,0.028458015267175577,49,273,565,4288
1644153301.7237425,-0.01220703125,0.01068115234375,-0.99102783203125,-0.20955725190839686,0.3126412213740458,-0.06314503816793893,43,269,569,4352
1644153301.7721617,-0.01422119140625,0.0057373046875,-0.9893798828125,-0.056885496183205986,0.23630534351145038,-0.06314503816793893,53,271,566,4352
1644153301.82058,-0.012939453125,0.00897216796875,-0.99090576171875,-0.19429007633587778,0.41951145038167936,-0.07841221374045801,48,264,566,4320
1644153301.8689647,-0.0125732421875,0.00927734375,-0.99169921875,-0.10268702290076326,0.20577099236641216,-0.09367938931297709,42,273,565,4320
1644153301.9173467,-0.01361083984375,0.00848388671875,-0.9935302734375,-0.10268702290076326,0.3431755725190839,-0.032610687022900764,55,262,569,4288
1644153301.965723,-0.013916015625,0.01019287109375,-0.99365234375,-0.056885496183205986,0.3126412213740458,0.04372519083969466,53,264,569,4304
1644153302.0140836,-0.01324462890625,0.012451171875,-0.99359130859375,-0.026351145038167822,0.20577099236641216,-0.017343511450381682,48,264,578,4352
1644153302.110816,-0.01287841796875,0.00970458984375,-0.99432373046875,-0.0874198473282442,0.32790839694656493,-0.017343511450381682,54,265,568,4288
1644153302.1592283,-0.01092529296875,0.0089111328125,-0.9935302734375,-0.056885496183205986,0.2515725190839695,0.04372519083969466,62,271,564,4288
1644153302.2075627,-0.012939453125,0.00848388671875,-0.99267578125,-0.011083969465648769,0.4500458015267176,0.028458015267175577,41,274,564,4304
1644153302.255989,-0.0123291015625,0.0072021484375,-0.99462890625,0.04998473282442756,0.1447022900763359,-0.07841221374045801,42,265,570,4256
1644153302.3044114,-0.0140380859375,0.0091552734375,-0.99310302734375,-0.1790229007633587,0.40424427480916025,-0.017343511450381682,46,271,559,4352
1644153302.3527627,-0.01190185546875,0.0064697265625,-0.9920654296875,-0.11795419847328237,0.11416793893129773,0.07425954198473284,42,277,558,4304
1644153302.401176,-0.01104736328125,0.0076904296875,-0.989990234375,-0.026351145038167822,0.2515725190839695,-0.09367938931297709,48,266,569,4352
1644153302.4496024,-0.01220703125,0.00970458984375,-0.99310302734375,-0.0721526717557251,0.1905038167938931,-0.017343511450381682,49,263,575,4368
1644153302.4979215,-0.01373291015625,0.00775146484375,-0.99127197265625,-0.10268702290076326,0.2973740458015267,-0.06314503816793893,49,270,577,4416
1644153302.5463948,-0.011474609375,0.0089111328125,-0.98974609375,-0.11795419847328237,0.40424427480916025,-0.10894656488549617,49,282,572,4304
1644153302.5946913,-0.0126953125,0.0081787109375,-0.9925537109375,-0.04161832061068693,0.3126412213740458,0.028458015267175577,52,268,577,4320
1644153302.6430666,-0.01251220703125,0.0069580078125,-0.9918212890625,-0.13322137404580142,0.1905038167938931,0.028458015267175577,54,263,575,4256
1644153302.691487,-0.008056640625,0.00665283203125,-0.99163818359375,-0.011083969465648769,0.12943511450381678,-0.017343511450381682,42,273,570,4400
1644153302.7398682,-0.01409912109375,0.0072021484375,-0.99267578125,-0.026351145038167822,0.2515725190839695,0.05899236641221374,52,280,556,4320
1644153302.7882564,-0.0142822265625,0.009765625,-0.99041748046875,0.034717557251908504,0.2668396946564886,-0.032610687022900764,45,277,570,4320
1644153302.8366659,-0.01422119140625,0.00738525390625,-0.9913330078125,-0.0874198473282442,0.23630534351145038,0.08952671755725192,46,271,566,4288
1644153302.885089,-0.01531982421875,0.0062255859375,-0.99176025390625,-0.04161832061068693,0.2668396946564886,-0.032610687022900764,52,270,561,4368
1644153302.9333966,-0.013427734375,0.00946044921875,-0.99267578125,-0.13322137404580142,0.23630534351145038,-0.032610687022900764,39,271,573,4352
1644153302.9817798,-0.01275634765625,0.01043701171875,-0.99267578125,-0.011083969465648769,0.2821068702290076,-0.017343511450381682,52,270,577,4352
1644153303.030175,-0.013671875,0.008056640625,-0.9930419921875,-0.11795419847328237,0.1905038167938931,-0.09367938931297709,53,266,573,4368
1644153303.0845263,-0.0162353515625,0.010498046875,-0.99151611328125,-0.0874198473282442,0.23630534351145038,0.013190839694656495,46,269,578,4320
1644153303.175318,-0.0126953125,0.00811767578125,-0.993408203125,-0.10268702290076326,0.2973740458015267,-0.047877862595419846,53,269,564,4368
1644153303.2236354,-0.01123046875,0.00616455078125,-0.9921875,-0.026351145038167822,0.3126412213740458,-0.06314503816793893,47,273,570,4288
1644153303.2719867,-0.01153564453125,0.00750732421875,-0.99151611328125,-0.0721526717557251,0.17523664122137406,-0.0020763358778626007,53,266,573,4320
1644153303.3204072,-0.012451171875,0.01019287109375,-0.9903564453125,-0.0874198473282442,0.35844274809160304,0.15059541984732824,47,265,577,4256
1644153303.3687851,-0.01422119140625,0.0072021484375,-0.9927978515625,-0.0721526717557251,0.2821068702290076,-0.18528244274809158,57,277,570,4368
1644153303.4171896,-0.013671875,0.008544921875,-0.99041748046875,-0.0874198473282442,0.23630534351145038,-0.0020763358778626007,51,271,571,4288
1644153303.465514,-0.012451171875,0.0072021484375,-0.99346923828125,0.20265648854961837,0.2821068702290076,-0.0020763358778626007,48,269,559,4400
1644153303.5139623,-0.01422119140625,0.00799560546875,-0.9906005859375,-0.16375572519083959,0.2973740458015267,-0.17001526717557253,57,270,572,4352
1644153303.5623426,-0.01409912109375,0.00830078125,-0.9918212890625,0.004183206106870341,0.1905038167938931,-0.18528244274809158,49,273,570,4320
1644153303.610714,-0.01153564453125,0.00885009765625,-0.98931884765625,-0.16375572519083959,0.23630534351145038,-0.047877862595419846,48,286,571,4352
1644153303.659086,-0.01348876953125,0.0130615234375,-0.9913330078125,0.09578625954198483,0.22103816793893127,0.028458015267175577,48,274,578,4304
1644153303.7077065,-0.01129150390625,0.0081787109375,-0.9913330078125,0.04998473282442756,0.20577099236641216,0.05899236641221374,49,285,570,4320
1644153303.7563448,-0.0145263671875,0.00836181640625,-0.99298095703125,-0.026351145038167822,0.2821068702290076,-0.047877862595419846,51,269,566,4256
1644153303.804743,-0.0125732421875,0.00653076171875,-0.989501953125,-0.14848854961832053,0.40424427480916025,0.12006106870229008,48,271,585,4304
1644153303.8526874,-0.01495361328125,0.01043701171875,-0.99188232421875,-0.011083969465648769,0.2821068702290076,0.028458015267175577,57,263,579,4304
1644153303.901111,-0.01068115234375,0.0084228515625,-0.9915771484375,-0.011083969465648769,0.08363358778625957,-0.06314503816793893,45,270,577,4320
1644153303.949495,-0.0126953125,0.00848388671875,-0.99249267578125,-0.16375572519083959,0.2821068702290076,0.028458015267175577,48,279,576,4352
1644153303.9978755,-0.0140380859375,0.01104736328125,-0.994140625,-0.011083969465648769,0.15996946564885495,-0.017343511450381682,57,268,572,4368
1644153304.0463936,-0.01263427734375,0.01025390625,-0.991455078125,0.12632061068702305,0.2668396946564886,-0.017343511450381682,54,268,572,4320
1644153304.094931,-0.0115966796875,0.00787353515625,-0.9937744140625,0.12632061068702305,0.2973740458015267,0.07425954198473284,51,276,583,4400
1644153304.1431441,-0.0130615234375,0.01019287109375,-0.991455078125,-0.10268702290076326,0.23630534351145038,0.104793893129771,55,274,580,4352
1644153304.1954806,-0.01068115234375,0.00982666015625,-0.99053955078125,-0.22482442748091594,0.37370992366412215,-0.18528244274809158,52,273,579,4320
1644153304.291449,-0.01190185546875,0.00592041015625,-0.9893798828125,-0.026351145038167822,0.2668396946564886,0.1811297709923664,48,276,571,4288
1644153304.3365424,-0.01129150390625,0.0081787109375,-0.9906005859375,-0.056885496183205986,0.35844274809160304,0.013190839694656495,51,279,583,4320
1644153304.3852277,-0.013427734375,0.00909423828125,-0.99102783203125,-0.0874198473282442,0.22103816793893127,0.013190839694656495,43,269,580,4304
1644153304.4334173,-0.01275634765625,0.0107421875,-0.9945068359375,-0.11795419847328237,0.2515725190839695,-0.032610687022900764,59,273,586,4304
1644153304.4816744,-0.01312255859375,0.00927734375,-0.99285888671875,-0.16375572519083959,0.20577099236641216,0.028458015267175577,54,265,575,4320
1644153304.5299888,-0.0098876953125,0.010009765625,-0.99310302734375,0.004183206106870341,0.2821068702290076,-0.10894656488549617,47,270,570,4320
1644153304.578434,-0.013671875,0.0103759765625,-0.992431640625,-0.026351145038167822,0.2973740458015267,0.07425954198473284,45,265,572,4320
1644153304.6268234,-0.01068115234375,0.01031494140625,-0.991943359375,0.004183206106870341,0.23630534351145038,-0.0020763358778626007,48,276,569,4304
1644153304.6752088,-0.01324462890625,0.0089111328125,-0.99127197265625,-0.13322137404580142,0.2515725190839695,-0.017343511450381682,45,273,572,4288
1644153304.723594,-0.0120849609375,0.0086669921875,-0.992431640625,-0.10268702290076326,0.22103816793893127,0.05899236641221374,54,277,575,4320
1644153304.7719424,-0.0135498046875,0.0087890625,-0.99212646484375,-0.11795419847328237,0.17523664122137406,-0.0020763358778626007,52,273,577,4288
1644153304.8203669,-0.0120849609375,0.01019287109375,-0.99151611328125,-0.10268702290076326,0.3431755725190839,0.028458015267175577,52,275,575,4352
1644153304.8687322,-0.01043701171875,0.0078125,-0.9920654296875,-0.0721526717557251,0.2515725190839695,0.07425954198473284,42,260,579,4320
1644153304.9171033,-0.0128173828125,0.0086669921875,-0.99078369140625,-0.0874198473282442,0.2515725190839695,0.12006106870229008,51,266,571,4320
1644153304.9655006,-0.01190185546875,0.00762939453125,-0.989990234375,-0.13322137404580142,0.2515725190839695,-0.0020763358778626007,57,263,584,4288
1644153305.0639174,-0.01446533203125,0.00921630859375,-0.99176025390625,-0.10268702290076326,0.1905038167938931,0.104793893129771,46,276,583,4288
1644153305.1106405,-0.012451171875,0.00860595703125,-0.99365234375,-0.026351145038167822,0.11416793893129773,-0.047877862595419846,53,276,564,4304
1644153305.158998,-0.013671875,0.00982666015625,-0.9901123046875,-0.04161832061068693,0.22103816793893127,0.013190839694656495,59,265,572,4320
1644153305.2073982,-0.010498046875,0.00616455078125,-0.99072265625,-0.011083969465648769,0.17523664122137406,-0.017343511450381682,55,274,564,4304
1644153305.2557755,-0.013427734375,0.0074462890625,-0.990478515625,-0.0721526717557251,0.23630534351145038,-0.032610687022900764,42,275,570,4320
1644153305.30417,-0.011474609375,0.0078125,-0.991455078125,-0.0721526717557251,0.23630534351145038,0.013190839694656495,55,274,576,4256
1644153305.3525712,-0.0137939453125,0.00531005859375,-0.9920654296875,-0.10268702290076326,0.09890076335877862,0.04372519083969466,46,269,576,4400
1644153305.4009364,-0.01385498046875,0.005859375,-0.99267578125,-0.11795419847328237,0.2515725190839695,0.05899236641221374,47,277,575,4352
1644153305.4493527,-0.01141357421875,0.0107421875,-0.9920654296875,-0.011083969465648769,0.2973740458015267,-0.06314503816793893,54,270,579,4352
1644153305.497739,-0.01251220703125,0.01043701171875,-0.99298095703125,-0.0874198473282442,0.2515725190839695,0.104793893129771,46,264,573,4192
1644153305.5461693,-0.01507568359375,0.00970458984375,-0.99267578125,0.019450381679389395,0.2668396946564886,-0.10894656488549617,48,274,564,4368
1644153305.594575,-0.01275634765625,0.0101318359375,-0.9918212890625,-0.04161832061068693,0.22103816793893127,-0.06314503816793893,47,270,572,4304
1644153305.642946,-0.013427734375,0.0087890625,-0.991455078125,-0.11795419847328237,0.3126412213740458,-0.07841221374045801,42,282,572,4368
1644153305.6913145,-0.01068115234375,0.00823974609375,-0.990234375,-0.0874198473282442,0.06836641221374046,0.13532824427480916,55,264,580,4288
1644153305.7397087,-0.01251220703125,0.0078125,-0.992431640625,-0.0874198473282442,0.20577099236641216,-0.09367938931297709,47,270,572,4352
1644153305.788115,-0.01165771484375,0.00958251953125,-0.9951171875,0.019450381679389395,0.2821068702290076,-0.10894656488549617,52,270,568,4352
1644153305.8364823,-0.01422119140625,0.00836181640625,-0.99554443359375,0.034717557251908504,0.20577099236641216,-0.047877862595419846,45,268,568,4256
1644153305.8848708,-0.0142822265625,0.010986328125,-0.99249267578125,-0.10268702290076326,0.2821068702290076,0.04372519083969466,57,265,572,4320
1644153305.9332418,-0.01470947265625,0.0096435546875,-0.99188232421875,0.06525190839694661,0.22103816793893127,0.08952671755725192,45,263,577,4320
1644153305.9815981,-0.01165771484375,0.010986328125,-0.99249267578125,-0.2706259541984732,0.3126412213740458,0.05899236641221374,51,262,578,4352
1644153306.0356333,-0.01324462890625,0.01007080078125,-0.993408203125,0.08051908396946572,0.1905038167938931,-0.0020763358778626007,55,257,576,4304
1644153306.1271741,-0.0140380859375,0.00897216796875,-0.99267578125,-0.13322137404580142,0.22103816793893127,-0.09367938931297709,43,266,573,4352
1644153306.1751056,-0.013427734375,0.00689697265625,-0.9888916015625,-0.0874198473282442,0.37370992366412215,0.04372519083969466,48,269,569,4320
1644153306.223482,-0.0166015625,0.00946044921875,-0.99273681640625,-0.0874198473282442,0.3126412213740458,0.1811297709923664,51,269,576,4288
1644153306.271853,-0.0113525390625,0.00762939453125,-0.9940185546875,-0.04161832061068693,0.2515725190839695,-0.047877862595419846,55,271,576,4304
1644153306.3202386,-0.0157470703125,0.0052490234375,-0.99493408203125,-0.026351145038167822,0.32790839694656493,-0.0020763358778626007,47,273,558,4304
1644153306.3686497,-0.01275634765625,0.01031494140625,-0.99072265625,-0.026351145038167822,0.3126412213740458,0.07425954198473284,43,266,571,4352
1644153306.4170191,-0.01220703125,0.0074462890625,-0.9927978515625,-0.14848854961832053,0.3126412213740458,-0.09367938931297709,46,269,566,4400
1644153306.4654355,-0.0137939453125,0.0074462890625,-0.9945068359375,-0.026351145038167822,0.3126412213740458,-0.0020763358778626007,53,269,576,4320
1644153306.5137897,-0.01214599609375,0.0111083984375,-0.9930419921875,0.019450381679389395,0.22103816793893127,-0.07841221374045801,43,274,576,4320
1644153306.562185,-0.0147705078125,0.00927734375,-0.9932861328125,-0.04161832061068693,0.2668396946564886,-0.032610687022900764,52,280,575,4352
1644153306.6105654,-0.0123291015625,0.0087890625,-0.99200439453125,-0.0874198473282442,0.3431755725190839,0.028458015267175577,36,264,571,4288
1644153306.6589696,-0.0157470703125,0.007080078125,-0.991943359375,-0.11795419847328237,0.1905038167938931,-0.10894656488549617,51,269,580,4304
1644153306.707345,-0.01373291015625,0.007568359375,-0.9932861328125,0.034717557251908504,0.32790839694656493,0.08952671755725192,46,274,571,4368
1644153306.7557085,-0.014892578125,0.0062255859375,-0.99176025390625,-0.026351145038167822,0.17523664122137406,-0.10894656488549617,49,270,572,4352
1644153306.8041337,-0.01116943359375,0.008544921875,-0.99285888671875,-0.056885496183205986,0.20577099236641216,0.028458015267175577,35,277,572,4320
1644153306.852542,-0.01409912109375,0.009033203125,-0.9942626953125,-0.026351145038167822,0.32790839694656493,0.013190839694656495,49,277,577,4368
1644153306.9009233,-0.01275634765625,0.0089111328125,-0.99237060546875,-0.10268702290076326,0.35844274809160304,0.07425954198473284,57,277,570,4320
1644153306.9493177,-0.011962890625,0.0062255859375,-0.994384765625,0.019450381679389395,0.2973740458015267,0.028458015267175577,51,269,571,4304
1644153306.9976408,-0.01171875,0.01129150390625,-0.9912109375,0.004183206106870341,0.2668396946564886,0.028458015267175577,45,277,570,4304
1644153307.0461113,-0.01275634765625,0.0076904296875,-0.9923095703125,-0.1790229007633587,0.2668396946564886,-0.12421374045801525,45,273,572,4320
1644153307.0944595,-0.01312255859375,0.00982666015625,-0.99169921875,-0.0721526717557251,0.2821068702290076,-0.09367938931297709,45,275,568,4368
1644153307.1434116,-0.01177978515625,0.0096435546875,-0.98944091796875,-0.0721526717557251,0.2973740458015267,0.04372519083969466,47,270,565,4400
1644153307.1935983,-0.01177978515625,0.00750732421875,-0.99102783203125,-0.0874198473282442,0.2668396946564886,0.12006106870229008,52,275,579,4256
1644153307.2879267,-0.01190185546875,0.00732421875,-0.990966796875,-0.16375572519083959,0.2973740458015267,0.08952671755725192,46,271,573,4304
1644153307.3363152,-0.01104736328125,0.00762939453125,-0.99200439453125,0.004183206106870341,0.17523664122137406,0.08952671755725192,46,259,573,4304
1644153307.3847215,-0.0135498046875,0.00775146484375,-0.9927978515625,0.17212213740458027,0.23630534351145038,0.12006106870229008,47,282,568,4352
1644153307.433133,-0.01300048828125,0.0101318359375,-0.99420166015625,-0.11795419847328237,0.38897709923664125,-0.09367938931297709,55,274,573,4320
1644153307.4814742,-0.01300048828125,0.0096435546875,-0.99560546875,0.004183206106870341,0.3126412213740458,0.1963969465648855,49,273,577,4320
1644153307.5298824,-0.01043701171875,0.00860595703125,-0.990234375,-0.0721526717557251,0.2668396946564886,0.07425954198473284,43,274,571,4320
1644153307.5782588,-0.012451171875,0.0098876953125,-0.9925537109375,0.14158778625954205,0.2668396946564886,0.013190839694656495,52,280,563,4320
1644153307.626668,-0.01202392578125,0.009033203125,-0.99090576171875,-0.0721526717557251,0.3126412213740458,-0.06314503816793893,52,273,577,4320
1644153307.6755762,-0.01019287109375,0.011962890625,-0.992919921875,-0.16375572519083959,0.22103816793893127,-0.032610687022900764,43,281,583,4256
1644153307.7237136,-0.0150146484375,0.00634765625,-0.9940185546875,-0.10268702290076326,0.2515725190839695,-0.047877862595419846,52,268,577,4288
1644153307.771751,-0.0128173828125,0.0069580078125,-0.99188232421875,0.034717557251908504,0.2515725190839695,-0.07841221374045801,51,269,580,4320
1644153307.8202121,-0.01336669921875,0.010009765625,-0.98883056640625,-0.13322137404580142,0.35844274809160304,-0.0020763358778626007,55,271,569,4304
1644153307.8685756,-0.011962890625,0.00872802734375,-0.99273681640625,-0.011083969465648769,0.3431755725190839,-0.017343511450381682,46,276,566,4320
1644153307.9170136,-0.01104736328125,0.00799560546875,-0.99493408203125,0.11105343511450394,0.20577099236641216,-0.047877862595419846,41,274,576,4304
1644153307.9654062,-0.01507568359375,0.01019287109375,-0.99151611328125,-0.11795419847328237,0.1905038167938931,0.04372519083969466,47,265,565,4320
1644153308.0137415,-0.012939453125,0.0064697265625,-0.991943359375,-0.011083969465648769,0.38897709923664125,0.05899236641221374,49,265,563,4320
1644153308.0676486,-0.01104736328125,0.00970458984375,-0.9923095703125,-0.026351145038167822,0.2668396946564886,0.08952671755725192,51,266,569,4288
1644153308.110466,-0.01214599609375,0.007568359375,-0.99017333984375,-0.10268702290076326,0.37370992366412215,-0.047877862595419846,45,277,582,4320
1644153308.1588883,-0.01324462890625,0.00689697265625,-0.99444580078125,0.004183206106870341,0.1905038167938931,0.07425954198473284,48,279,573,4400
1644153308.2072637,-0.01263427734375,0.00860595703125,-0.9927978515625,-0.19429007633587778,0.20577099236641216,0.08952671755725192,49,275,568,4288
1644153308.255619,-0.01171875,0.007080078125,-0.9910888671875,0.04998473282442756,0.37370992366412215,-0.07841221374045801,45,270,561,4320
1644153308.3044224,-0.01373291015625,0.0074462890625,-0.99298095703125,-0.14848854961832053,0.2668396946564886,0.104793893129771,47,273,572,4368
1644153308.3547387,-0.0145263671875,0.00897216796875,-0.99407958984375,-0.0721526717557251,0.1905038167938931,0.15059541984732824,46,269,576,4304
1644153308.4491904,-0.01025390625,0.007080078125,-0.99334716796875,0.09578625954198483,0.2821068702290076,-0.06314503816793893,43,269,564,4368
1644153308.4975479,-0.0130615234375,0.00726318359375,-0.99261474609375,-0.011083969465648769,0.37370992366412215,0.028458015267175577,61,268,565,4320
1644153308.545953,-0.01513671875,0.01104736328125,-0.99383544921875,-0.0874198473282442,0.2515725190839695,-0.13948091603053436,54,280,572,4304
1644153308.5943513,-0.01397705078125,0.00628662109375,-0.99163818359375,-0.04161832061068693,0.1447022900763359,-0.21581679389312974,53,269,569,4304
1644153308.6427426,-0.013427734375,0.00543212890625,-0.9931640625,-0.056885496183205986,0.20577099236641216,0.08952671755725192,51,279,569,4288
1644153308.6911218,-0.01409912109375,0.00872802734375,-0.99395751953125,-0.011083969465648769,0.32790839694656493,-0.06314503816793893,53,274,569,4288
1644153308.7394884,-0.01446533203125,0.00714111328125,-0.992431640625,-0.04161832061068693,0.41951145038167936,0.028458015267175577,45,275,568,4304
1644153308.7878687,-0.0135498046875,0.00726318359375,-0.9925537109375,-0.011083969465648769,0.2821068702290076,-0.0020763358778626007,43,271,566,4368
1644153308.836336,-0.0123291015625,0.008544921875,-0.99530029296875,0.004183206106870341,0.20577099236641216,-0.17001526717557253,52,275,568,4240
1644153308.8847032,-0.01141357421875,0.00616455078125,-0.99420166015625,-0.10268702290076326,0.2668396946564886,-0.06314503816793893,49,277,572,4352
1644153308.9330714,-0.0166015625,0.0068359375,-0.9915771484375,-0.0874198473282442,0.4653129770992367,-0.0020763358778626007,60,271,569,4352
1644153308.981479,-0.01434326171875,0.00543212890625,-0.9935302734375,-0.011083969465648769,0.2668396946564886,-0.09367938931297709,55,279,569,4352
1644153309.0298471,-0.013671875,0.0078125,-0.99371337890625,-0.13322137404580142,0.43477862595419847,0.05899236641221374,52,275,568,4304
1644153309.0844603,-0.01483154296875,0.00848388671875,-0.99261474609375,-0.11795419847328237,0.17523664122137406,0.028458015267175577,48,283,573,4320
1644153309.126565,-0.013916015625,0.0078125,-0.99481201171875,-0.11795419847328237,0.1447022900763359,0.028458015267175577,51,274,578,4352
1644153309.1750112,-0.01416015625,0.0068359375,-0.9935302734375,-0.056885496183205986,0.12943511450381678,-0.09367938931297709,47,277,575,4304
1644153309.2719917,-0.0137939453125,0.00750732421875,-0.99078369140625,-0.25535877862595413,0.3126412213740458,-0.13948091603053436,47,270,568,4288
1644153309.320235,-0.01239013671875,0.0079345703125,-0.9898681640625,-0.04161832061068693,0.3431755725190839,0.07425954198473284,57,273,577,4304
1644153309.3684583,-0.01318359375,0.00811767578125,-0.992919921875,-0.056885496183205986,0.35844274809160304,-0.10894656488549617,57,273,579,4352
1644153309.4168487,-0.011474609375,0.00848388671875,-0.98895263671875,0.004183206106870341,0.43477862595419847,0.013190839694656495,64,273,572,4368
1644153309.465269,-0.0142822265625,0.0081787109375,-0.99334716796875,-0.026351145038167822,0.2668396946564886,-0.017343511450381682,54,275,575,4304
1644153309.5136313,-0.0152587890625,0.0086669921875,-0.9962158203125,-0.20955725190839686,0.41951145038167936,-0.0020763358778626007,52,277,568,4352
1644153309.5620017,-0.01123046875,0.01043701171875,-0.9937744140625,-0.04161832061068693,0.3431755725190839,0.104793893129771,49,280,570,4288
1644153309.610433,-0.0147705078125,0.0067138671875,-0.99334716796875,-0.13322137404580142,0.23630534351145038,0.028458015267175577,47,265,570,4320
1644153309.6588163,-0.0108642578125,0.00982666015625,-0.9923095703125,0.09578625954198483,0.2973740458015267,0.15059541984732824,52,268,570,4256
1644153309.7071927,-0.01123046875,0.00933837890625,-0.9918212890625,-0.11795419847328237,0.2515725190839695,0.12006106870229008,48,266,569,4320
1644153309.7555196,-0.01068115234375,0.00848388671875,-0.99188232421875,-0.011083969465648769,0.23630534351145038,-0.06314503816793893,47,273,572,4352
1644153309.8039541,-0.015380859375,0.01092529296875,-0.99310302734375,-0.04161832061068693,0.22103816793893127,-0.032610687022900764,41,271,571,4304
1644153309.8523986,-0.01495361328125,0.00689697265625,-0.993896484375,-0.22482442748091594,0.23630534351145038,-0.09367938931297709,46,266,578,4368
1644153309.9007387,-0.0133056640625,0.00921630859375,-0.996337890625,0.019450381679389395,0.2668396946564886,0.04372519083969466,48,276,576,4320
1644153309.9491723,-0.01214599609375,0.0098876953125,-0.9901123046875,-0.22482442748091594,0.17523664122137406,0.07425954198473284,47,277,568,4320
1644153309.9975533,-0.01116943359375,0.0081787109375,-0.99169921875,-0.056885496183205986,0.22103816793893127,-0.09367938931297709,51,276,573,4352
1644153310.0598164,-0.01214599609375,0.00921630859375,-0.98992919921875,-0.1790229007633587,0.2515725190839695,-0.07841221374045801,55,281,573,4288
1644153310.0943322,-0.01348876953125,0.00994873046875,-0.9886474609375,-0.011083969465648769,0.32790839694656493,-0.10894656488549617,59,265,575,4320
1644153310.1426904,-0.0145263671875,0.00750732421875,-0.99090576171875,-0.04161832061068693,0.32790839694656493,-0.032610687022900764,47,273,579,4352
1644153310.1910377,-0.01263427734375,0.0093994140625,-0.990966796875,0.04998473282442756,0.2668396946564886,-0.0020763358778626007,46,262,580,4352
1644153310.241025,-0.01177978515625,0.0076904296875,-0.98956298828125,-0.16375572519083959,0.2515725190839695,0.08952671755725192,54,275,577,4400
1644153310.2906551,-0.0147705078125,0.0107421875,-0.99298095703125,-0.13322137404580142,0.17523664122137406,0.028458015267175577,38,277,568,4304
1644153310.384661,-0.011962890625,0.01104736328125,-0.9951171875,-0.11795419847328237,0.2668396946564886,0.013190839694656495,46,271,569,4304
1644153310.4329753,-0.01171875,0.0101318359375,-0.9915771484375,-0.0721526717557251,0.32790839694656493,-0.10894656488549617,64,275,572,4352
1644153310.4813306,-0.0098876953125,0.0064697265625,-0.989501953125,-0.0721526717557251,0.32790839694656493,-0.047877862595419846,46,281,566,4288
1644153310.5297408,-0.01019287109375,0.01007080078125,-0.9906005859375,-0.10268702290076326,0.22103816793893127,0.1811297709923664,49,273,561,4304
1644153310.5781631,-0.01263427734375,0.00860595703125,-0.99139404296875,-0.04161832061068693,0.2515725190839695,-0.06314503816793893,45,275,568,4368
1644153310.6265285,-0.01318359375,0.00677490234375,-0.99371337890625,-0.2706259541984732,0.3126412213740458,0.028458015267175577,49,277,570,4320
1644153310.6748958,-0.01123046875,0.0074462890625,-0.99346923828125,0.06525190839694661,0.32790839694656493,0.04372519083969466,49,273,577,4352
1644153310.72331,-0.01300048828125,0.008056640625,-0.989990234375,0.11105343511450394,0.2668396946564886,-0.0020763358778626007,39,259,569,4400
1644153310.7717063,-0.00897216796875,0.00762939453125,-0.99176025390625,0.004183206106870341,0.2821068702290076,-0.017343511450381682,52,268,572,4320
1644153310.8200588,-0.01385498046875,0.01019287109375,-0.99285888671875,0.14158778625954205,0.2515725190839695,0.13532824427480916,55,271,566,4320
1644153310.868491,-0.01153564453125,0.0068359375,-0.99261474609375,-0.16375572519083959,0.38897709923664125,-0.017343511450381682,40,282,575,4304
1644153310.9169285,-0.013427734375,0.0098876953125,-0.9930419921875,-0.026351145038167822,0.22103816793893127,0.013190839694656495,52,275,575,4368
1644153310.965196,-0.01239013671875,0.01007080078125,-0.99322509765625,-0.011083969465648769,0.4653129770992367,0.104793893129771,46,283,573,4320
1644153311.013547,-0.0130615234375,0.01171875,-0.99261474609375,0.004183206106870341,0.35844274809160304,-0.09367938931297709,46,276,566,4368
1644153311.0670764,-0.01092529296875,0.00909423828125,-0.991943359375,0.019450381679389395,0.2668396946564886,0.013190839694656495,53,276,580,4304
1644153311.1103437,-0.0096435546875,0.00592041015625,-0.99383544921875,-0.056885496183205986,0.3126412213740458,0.013190839694656495,57,277,572,4368
1644153311.1587021,-0.0113525390625,0.01080322265625,-0.9947509765625,-0.011083969465648769,0.3126412213740458,0.028458015267175577,51,279,564,4304
1644153311.2071083,-0.01409912109375,0.00872802734375,-0.992431640625,0.034717557251908504,0.20577099236641216,-0.10894656488549617,55,276,571,4352
1644153311.2554686,-0.01226806640625,0.009765625,-0.99169921875,-0.04161832061068693,0.3431755725190839,0.013190839694656495,43,271,566,4368
1644153311.3040729,-0.01153564453125,0.00726318359375,-0.98980712890625,-0.026351145038167822,0.3126412213740458,0.013190839694656495,36,276,564,4352
1644153311.3543563,-0.013916015625,0.0076904296875,-0.992431640625,-0.14848854961832053,0.1905038167938931,-0.06314503816793893,45,270,570,4288
1644153311.4489868,-0.013916015625,0.00732421875,-0.9925537109375,-0.10268702290076326,0.2821068702290076,-0.06314503816793893,54,265,572,4320
1644153311.4973972,-0.01080322265625,0.0084228515625,-0.9913330078125,-0.011083969465648769,0.32790839694656493,-0.13948091603053436,48,266,557,4320
1644153311.5457804,-0.01397705078125,0.00927734375,-0.9893798828125,-0.22482442748091594,0.37370992366412215,-0.032610687022900764,60,266,576,4240
1644153311.5941877,-0.0137939453125,0.00592041015625,-0.99420166015625,-0.026351145038167822,0.2821068702290076,0.013190839694656495,51,271,569,4352
1644153311.642901,-0.01123046875,0.008544921875,-0.9915771484375,-0.20955725190839686,0.20577099236641216,0.028458015267175577,48,274,566,4320
1644153311.6909692,-0.01324462890625,0.007080078125,-0.99163818359375,0.004183206106870341,0.1905038167938931,-0.06314503816793893,46,266,569,4320
1644153311.7393918,-0.0137939453125,0.009033203125,-0.991455078125,-0.0721526717557251,0.2973740458015267,-0.017343511450381682,54,275,568,4288
1644153311.787731,-0.012451171875,0.00537109375,-0.992431640625,0.06525190839694661,0.1447022900763359,-0.032610687022900764,55,264,571,4288
1644153311.8361554,-0.01434326171875,0.00897216796875,-0.99285888671875,-0.13322137404580142,0.20577099236641216,-0.09367938931297709,53,264,566,4400
1644153311.8845587,-0.01348876953125,0.00604248046875,-0.99285888671875,-0.11795419847328237,0.32790839694656493,0.12006106870229008,54,270,561,4368
1644153311.93293,-0.01348876953125,0.008056640625,-0.99371337890625,0.004183206106870341,0.3126412213740458,-0.12421374045801525,46,271,566,4368
1644153311.9812875,-0.0145263671875,0.0091552734375,-0.9910888671875,-0.19429007633587778,0.40424427480916025,-0.12421374045801525,49,268,572,4320
1644153312.0297005,-0.0128173828125,0.01055908203125,-0.990234375,-0.16375572519083959,0.17523664122137406,0.08952671755725192,48,266,557,4304
1644153312.0824158,-0.01373291015625,0.0087890625,-0.98968505859375,-0.04161832061068693,0.38897709923664125,0.028458015267175577,54,282,572,4368
1644153312.1264532,-0.01153564453125,0.00921630859375,-0.99200439453125,-0.056885496183205986,0.05309923664122135,0.04372519083969466,52,277,579,4304
1644153312.1748395,-0.0125732421875,0.0120849609375,-0.9908447265625,-0.026351145038167822,0.2668396946564886,-0.047877862595419846,43,274,576,4368
1644153312.2232118,-0.00933837890625,0.0089111328125,-0.990478515625,0.08051908396946572,0.1447022900763359,0.08952671755725192,49,265,561,4320
1644153312.2717552,-0.01434326171875,0.01019287109375,-0.9920654296875,0.06525190839694661,0.23630534351145038,-0.07841221374045801,65,271,562,4352
1644153312.3214755,-0.01251220703125,0.0076904296875,-0.99273681640625,-0.0874198473282442,0.20577099236641216,0.05899236641221374,61,270,570,4304
1644153312.4167433,-0.010986328125,0.005615234375,-0.99505615234375,0.11105343511450394,0.2821068702290076,-0.032610687022900764,49,270,582,4320
1644153312.4654436,-0.0126953125,0.00714111328125,-0.99267578125,-0.14848854961832053,0.3126412213740458,0.104793893129771,45,268,570,4320
1644153312.5135489,-0.01385498046875,0.00775146484375,-0.99432373046875,-0.056885496183205986,0.2668396946564886,0.13532824427480916,51,266,571,4320
1644153312.5618842,-0.01153564453125,0.00787353515625,-0.99334716796875,-0.0874198473282442,0.20577099236641216,-0.017343511450381682,54,273,568,4368
1644153312.6102343,-0.01287841796875,0.00970458984375,-0.9908447265625,-0.24009160305343502,0.22103816793893127,0.2574656488549618,48,271,569,4416
1644153312.658639,-0.013671875,0.00634765625,-0.99560546875,-0.0874198473282442,0.37370992366412215,-0.047877862595419846,57,265,572,4320
1644153312.70699,-0.01263427734375,0.00787353515625,-0.99365234375,-0.10268702290076326,0.17523664122137406,0.028458015267175577,51,262,573,4320
1644153312.7554064,-0.01348876953125,0.00762939453125,-0.9927978515625,-0.13322137404580142,0.15996946564885495,0.22693129770992365,45,273,577,4288
1644153312.8038137,-0.01446533203125,0.00616455078125,-0.99102783203125,-0.011083969465648769,0.37370992366412215,0.07425954198473284,54,273,572,4288
1644153312.852198,-0.013671875,0.00921630859375,-0.99395751953125,-0.0874198473282442,0.2515725190839695,0.07425954198473284,55,281,571,4288
1644153312.9005764,-0.01361083984375,0.0068359375,-0.99420166015625,-0.14848854961832053,0.2973740458015267,0.104793893129771,51,274,573,4320
1644153312.9489317,-0.0142822265625,0.006103515625,-0.99334716796875,-0.11795419847328237,0.20577099236641216,0.013190839694656495,52,275,575,4400
1644153312.99734,-0.01312255859375,0.005615234375,-0.99420166015625,0.019450381679389395,0.3126412213740458,0.028458015267175577,55,274,566,4304
1644153313.059868,-0.014892578125,0.00885009765625,-0.992919921875,-0.04161832061068693,0.2821068702290076,-0.047877862595419846,53,274,573,4352
1644153313.0941114,-0.0140380859375,0.00872802734375,-0.991943359375,-0.0874198473282442,0.2515725190839695,-0.047877862595419846,46,262,564,4320
1644153313.142495,-0.01397705078125,0.0081787109375,-0.98980712890625,-0.14848854961832053,0.20577099236641216,0.028458015267175577,51,271,573,4368
1644153313.190875,-0.012451171875,0.00982666015625,-0.9906005859375,-0.13322137404580142,0.3126412213740458,0.22693129770992365,54,277,568,4400
1644153313.2392676,-0.01043701171875,0.0101318359375,-0.9913330078125,0.17212213740458027,0.1447022900763359,-0.032610687022900764,53,281,566,4304
1644153313.287634,-0.01202392578125,0.010498046875,-0.9920654296875,-0.22482442748091594,0.2973740458015267,-0.017343511450381682,51,271,571,4368
1644153313.336023,-0.01318359375,0.00830078125,-0.99176025390625,0.08051908396946572,0.2973740458015267,0.07425954198473284,45,270,570,4288
1644153313.3844476,-0.0142822265625,0.00897216796875,-0.99114990234375,-0.10268702290076326,0.3431755725190839,-0.12421374045801525,48,271,557,4352
1644153313.4346428,-0.012939453125,0.0084228515625,-0.99249267578125,-0.0874198473282442,0.3431755725190839,-0.07841221374045801,48,279,569,4320
1644153313.5296495,-0.01422119140625,0.00982666015625,-0.99224853515625,0.06525190839694661,0.2515725190839695,0.104793893129771,53,276,566,4368
1644153313.5779738,-0.01513671875,0.00860595703125,-0.99090576171875,-0.16375572519083959,0.2821068702290076,-0.017343511450381682,48,274,571,4352
1644153313.6263602,-0.013427734375,0.00872802734375,-0.99224853515625,-0.14848854961832053,0.3431755725190839,-0.017343511450381682,47,263,568,4304
1644153313.6747684,-0.01312255859375,0.0067138671875,-0.9912109375,0.004183206106870341,0.1905038167938931,-0.06314503816793893,53,271,576,4304
1644153313.7231166,-0.012939453125,0.0072021484375,-0.99359130859375,-0.10268702290076326,0.2821068702290076,0.028458015267175577,52,280,568,4304
1644153313.7715259,-0.010986328125,0.009765625,-0.9942626953125,-0.14848854961832053,0.2515725190839695,-0.07841221374045801,45,268,568,4352
1644153313.8199413,-0.014404296875,0.00836181640625,-0.989013671875,-0.04161832061068693,0.15996946564885495,-0.0020763358778626007,59,275,568,4320
1644153313.8683386,-0.01422119140625,0.0087890625,-0.99285888671875,-0.026351145038167822,0.17523664122137406,-0.15474809160305342,38,273,579,4320
1644153313.916692,-0.0115966796875,0.01116943359375,-0.9925537109375,-0.04161832061068693,0.32790839694656493,0.13532824427480916,43,266,564,4320
1644153313.9652762,-0.01336669921875,0.00836181640625,-0.99346923828125,-0.10268702290076326,0.3431755725190839,-0.0020763358778626007,60,274,564,4352
1644153314.0134478,-0.01373291015625,0.0086669921875,-0.99261474609375,-0.1790229007633587,0.1905038167938931,-0.047877862595419846,45,268,565,4368
1644153314.061908,-0.01123046875,0.01129150390625,-0.99053955078125,0.06525190839694661,0.32790839694656493,-0.0020763358778626007,53,264,569,4400
1644153314.1101902,-0.0106201171875,0.00860595703125,-0.9927978515625,0.019450381679389395,0.1447022900763359,-0.18528244274809158,46,269,573,4304
1644153314.1590354,-0.01226806640625,0.01080322265625,-0.99072265625,-0.10268702290076326,0.35844274809160304,-0.032610687022900764,55,269,578,4320
1644153314.2069106,-0.01300048828125,0.0078125,-0.99212646484375,-0.0874198473282442,0.23630534351145038,0.028458015267175577,48,271,566,4256
1644153314.255318,-0.017578125,0.00543212890625,-0.9931640625,-0.0874198473282442,0.2821068702290076,-0.047877862595419846,55,279,566,4400
1644153314.3037245,-0.01434326171875,0.00567626953125,-0.990234375,-0.1790229007633587,0.3126412213740458,-0.21581679389312974,47,275,568,4320
1644153314.3521366,-0.0126953125,0.00714111328125,-0.9886474609375,-0.13322137404580142,0.2973740458015267,-0.15474809160305342,43,276,576,4288
1644153314.400478,-0.01043701171875,0.00567626953125,-0.99346923828125,-0.0721526717557251,0.2821068702290076,0.07425954198473284,51,269,583,4304
1644153314.4488604,-0.01312255859375,0.0081787109375,-0.9937744140625,0.08051908396946572,0.2821068702290076,-0.017343511450381682,49,273,572,4288
1644153314.4972258,-0.01214599609375,0.0084228515625,-0.98883056640625,-0.11795419847328237,0.2515725190839695,-0.0020763358778626007,52,277,568,4288
1644153314.546474,-0.01446533203125,0.00555419921875,-0.9920654296875,-0.04161832061068693,0.3431755725190839,0.08952671755725192,52,270,577,4352
1644153314.6424198,-0.01226806640625,0.007568359375,-0.9910888671875,0.06525190839694661,0.37370992366412215,0.028458015267175577,52,277,558,4304
1644153314.690804,-0.012939453125,0.0086669921875,-0.9927978515625,-0.026351145038167822,0.3126412213740458,-0.06314503816793893,47,270,572,4352
1644153314.739144,-0.0089111328125,0.01068115234375,-0.99176025390625,-0.11795419847328237,0.2515725190839695,0.07425954198473284,47,273,565,4352
1644153314.7875466,-0.01171875,0.00897216796875,-0.99139404296875,-0.14848854961832053,0.40424427480916025,0.104793893129771,47,273,568,4352
1644153314.835968,-0.0147705078125,0.0098876953125,-0.991943359375,-0.1790229007633587,0.20577099236641216,0.08952671755725192,51,279,566,4256
1644153314.8843832,-0.00897216796875,0.00958251953125,-0.99176025390625,-0.13322137404580142,0.20577099236641216,0.08952671755725192,47,268,570,4320
1644153314.9327905,-0.0142822265625,0.00738525390625,-0.990966796875,-0.026351145038167822,0.2973740458015267,-0.09367938931297709,43,269,573,4304
1644153314.981204,-0.01470947265625,0.00714111328125,-0.99169921875,-0.1790229007633587,0.22103816793893127,0.028458015267175577,52,268,575,4432
1644153315.029488,-0.0103759765625,0.0101318359375,-0.99151611328125,-0.04161832061068693,0.37370992366412215,0.07425954198473284,43,274,580,4304
1644153315.0784504,-0.0140380859375,0.00787353515625,-0.99224853515625,-0.10268702290076326,0.2973740458015267,-0.032610687022900764,53,266,576,4352
1644153315.1262789,-0.0123291015625,0.01019287109375,-0.99310302734375,0.034717557251908504,0.06836641221374046,-0.017343511450381682,52,275,577,4352
1644153315.1746962,-0.0091552734375,0.010498046875,-0.99163818359375,-0.011083969465648769,0.23630534351145038,-0.0020763358778626007,54,275,565,4320
1644153315.2230754,-0.01171875,0.0086669921875,-0.99127197265625,-0.19429007633587778,0.22103816793893127,-0.17001526717557253,55,276,578,4320
1644153315.2714427,-0.01470947265625,0.00872802734375,-0.99041748046875,-0.0721526717557251,0.2821068702290076,-0.032610687022900764,52,277,568,4368
1644153315.320032,-0.0142822265625,0.0103759765625,-0.99334716796875,-0.026351145038167822,0.23630534351145038,0.028458015267175577,54,270,572,4320
1644153315.3702793,-0.01055908203125,0.00933837890625,-0.9908447265625,0.08051908396946572,0.3431755725190839,0.104793893129771,48,269,580,4256
1644153315.465069,-0.01202392578125,0.00970458984375,-0.99249267578125,-0.056885496183205986,0.22103816793893127,-0.047877862595419846,47,275,568,4304
1644153315.5133674,-0.01300048828125,0.007080078125,-0.99066162109375,-0.04161832061068693,0.22103816793893127,-0.047877862595419846,46,276,571,4304
1644153315.5617368,-0.01434326171875,0.010009765625,-0.99078369140625,0.019450381679389395,0.2515725190839695,0.16586259541984733,61,263,568,4320
1644153315.6101298,-0.01239013671875,0.00677490234375,-0.99261474609375,-0.056885496183205986,0.2821068702290076,-0.09367938931297709,54,265,572,4288
1644153315.658503,-0.01422119140625,0.0064697265625,-0.99261474609375,-0.11795419847328237,0.40424427480916025,0.104793893129771,55,266,571,4352
1644153315.7070127,-0.0111083984375,0.0086669921875,-0.9921875,-0.011083969465648769,0.08363358778625957,-0.017343511450381682,52,268,570,4352
1644153315.7555099,-0.01092529296875,0.0087890625,-0.9935302734375,0.12632061068702305,0.12943511450381678,-0.06314503816793893,54,275,570,4304
1644153315.8036182,-0.01141357421875,0.00860595703125,-0.99163818359375,-0.056885496183205986,0.2668396946564886,0.15059541984732824,47,265,575,4256
1644153315.8520284,-0.01055908203125,0.0089111328125,-0.9913330078125,-0.1790229007633587,0.23630534351145038,0.05899236641221374,49,273,570,4400
1644153315.9004009,-0.01373291015625,0.00714111328125,-0.99139404296875,-0.16375572519083959,0.37370992366412215,0.15059541984732824,53,271,578,4320
1644153315.948868,-0.01544189453125,0.00921630859375,-0.99420166015625,-0.25535877862595413,0.23630534351145038,0.16586259541984733,51,279,576,4320
1644153315.9978144,-0.0118408203125,0.01141357421875,-0.99237060546875,-0.0721526717557251,0.2821068702290076,0.05899236641221374,52,277,579,4368
1644153316.0455399,-0.0107421875,0.0089111328125,-0.988037109375,-0.2706259541984732,0.2668396946564886,0.15059541984732824,48,271,576,4288
1644153316.093904,-0.009765625,0.0067138671875,-0.9908447265625,0.034717557251908504,0.20577099236641216,-0.0020763358778626007,45,277,577,4320
1644153316.1423483,-0.01629638671875,0.008544921875,-0.9918212890625,-0.14848854961832053,0.38897709923664125,0.2116641221374046,48,271,576,4320
1644153316.1907198,-0.0126953125,0.010009765625,-0.99163818359375,-0.056885496183205986,0.3126412213740458,0.028458015267175577,51,266,573,4400
1644153316.239099,-0.01373291015625,0.01123046875,-0.99176025390625,-0.16375572519083959,0.2515725190839695,0.04372519083969466,45,275,568,4352
1644153316.2874892,-0.0107421875,0.00982666015625,-0.99053955078125,0.04998473282442756,0.3126412213740458,0.04372519083969466,55,274,576,4352
1644153316.3358755,-0.01287841796875,0.00616455078125,-0.99200439453125,-0.026351145038167822,0.32790839694656493,-0.10894656488549617,52,265,568,4368
1644153316.384249,-0.014404296875,0.0076904296875,-0.99188232421875,0.06525190839694661,0.23630534351145038,0.013190839694656495,47,275,582,4320
1644153316.4326272,-0.01263427734375,0.01141357421875,-0.9925537109375,-0.10268702290076326,0.40424427480916025,0.104793893129771,52,273,577,4320
1644153316.4823244,-0.0107421875,0.00860595703125,-0.992431640625,-0.011083969465648769,0.23630534351145038,0.16586259541984733,48,276,569,4288
1644153316.5778522,-0.01324462890625,0.01031494140625,-0.9931640625,-0.10268702290076326,0.40424427480916025,0.08952671755725192,48,283,564,4320
1644153316.6262765,-0.0128173828125,0.00836181640625,-0.99371337890625,-0.11795419847328237,0.22103816793893127,0.08952671755725192,49,270,558,4368
1644153316.6745498,-0.01324462890625,0.01055908203125,-0.990966796875,-0.04161832061068693,0.32790839694656493,0.08952671755725192,52,275,570,4320
1644153316.7229712,-0.0140380859375,0.00823974609375,-0.9923095703125,-0.0874198473282442,0.2821068702290076,-0.017343511450381682,58,266,573,4352
1644153316.7713673,-0.01300048828125,0.00921630859375,-0.99114990234375,-0.10268702290076326,0.2821068702290076,0.05899236641221374,39,286,562,4400
1644153316.8197088,-0.01312255859375,0.00726318359375,-0.99261474609375,0.004183206106870341,0.35844274809160304,-0.047877862595419846,42,280,584,4320
1644153316.86813,-0.011962890625,0.0076904296875,-0.99267578125,0.004183206106870341,0.3431755725190839,-0.09367938931297709,59,280,565,4288
1644153316.9164884,-0.014404296875,0.00689697265625,-0.99267578125,-0.026351145038167822,0.1447022900763359,-0.017343511450381682,53,276,585,4304
1644153316.9648979,-0.0120849609375,0.0084228515625,-0.9898681640625,0.004183206106870341,0.12943511450381678,0.013190839694656495,46,271,571,4304
1644153317.0132842,-0.01251220703125,0.00982666015625,-0.99249267578125,-0.0721526717557251,0.2973740458015267,-0.10894656488549617,49,275,570,4304
1644153317.0648034,-0.01165771484375,0.0096435546875,-0.9896240234375,0.08051908396946572,0.43477862595419847,0.05899236641221374,38,273,579,4320
1644153317.1099958,-0.014404296875,0.00701904296875,-0.9942626953125,0.004183206106870341,0.23630534351145038,0.028458015267175577,59,270,572,4240
1644153317.159002,-0.0120849609375,0.00946044921875,-0.9915771484375,-0.11795419847328237,0.2821068702290076,-0.047877862595419846,48,279,576,4288
1644153317.2067714,-0.01214599609375,0.01031494140625,-0.99114990234375,-0.22482442748091594,0.2973740458015267,-0.09367938931297709,54,275,572,4304
1644153317.2552416,-0.01318359375,0.0057373046875,-0.98968505859375,0.06525190839694661,0.2821068702290076,0.013190839694656495,51,281,576,4288
1644153317.3037,-0.01123046875,0.01019287109375,-0.99151611328125,-0.14848854961832053,0.2515725190839695,-0.0020763358778626007,52,277,572,4288
1644153317.3518922,-0.0155029296875,0.01214599609375,-0.99420166015625,-0.056885496183205986,0.2821068702290076,-0.06314503816793893,49,285,570,4320
1644153317.4003477,-0.0137939453125,0.00714111328125,-0.99407958984375,0.06525190839694661,0.2973740458015267,-0.017343511450381682,51,274,573,4288
1644153317.44945,-0.01153564453125,0.0054931640625,-0.9918212890625,-0.04161832061068693,0.37370992366412215,0.12006106870229008,46,264,576,4320
1644153317.497085,-0.01239013671875,0.00543212890625,-0.99334716796875,0.08051908396946572,0.20577099236641216,-0.09367938931297709,58,271,573,4368
1644153317.5454457,-0.01153564453125,0.0054931640625,-0.99237060546875,-0.1790229007633587,0.1905038167938931,0.013190839694656495,57,268,568,4256
1644153317.5948067,-0.0133056640625,0.00823974609375,-0.98992919921875,-0.011083969465648769,0.15996946564885495,-0.032610687022900764,51,266,564,4352
1644153317.6481721,-0.0101318359375,0.00946044921875,-0.991455078125,-0.16375572519083959,0.3126412213740458,0.04372519083969466,53,266,580,4304
1644153317.738958,-0.0130615234375,0.00689697265625,-0.98919677734375,-0.026351145038167822,0.3126412213740458,0.013190839694656495,55,276,578,4368
1644153317.787385,-0.0162353515625,0.00640869140625,-0.9937744140625,-0.0874198473282442,0.22103816793893127,0.08952671755725192,45,260,570,4288
1644153317.8357704,-0.01220703125,0.00762939453125,-0.99346923828125,-0.10268702290076326,0.20577099236641216,0.013190839694656495,55,271,573,4304
1644153317.8842368,-0.01263427734375,0.01165771484375,-0.9906005859375,-0.10268702290076326,0.17523664122137406,0.04372519083969466,41,271,576,4320
1644153317.932601,-0.01324462890625,0.0086669921875,-0.99224853515625,-0.19429007633587778,0.2515725190839695,0.013190839694656495,48,271,564,4304
1644153317.9809833,-0.01312255859375,0.00653076171875,-0.99261474609375,-0.10268702290076326,0.2973740458015267,-0.0020763358778626007,43,264,557,4320
1644153318.0293877,-0.014404296875,0.0074462890625,-0.99163818359375,-0.13322137404580142,0.32790839694656493,0.05899236641221374,46,276,573,4304
1644153318.077811,-0.0096435546875,0.0091552734375,-0.990966796875,-0.056885496183205986,0.20577099236641216,0.013190839694656495,49,277,568,4320
1644153318.1261573,-0.01422119140625,0.0081787109375,-0.995849609375,-0.10268702290076326,0.3431755725190839,0.04372519083969466,41,283,571,4288
1644153318.1745048,-0.01123046875,0.0089111328125,-0.9910888671875,0.034717557251908504,0.35844274809160304,0.013190839694656495,51,276,573,4368
1644153318.2229059,-0.0120849609375,0.00897216796875,-0.99267578125,-0.056885496183205986,0.23630534351145038,-0.0020763358778626007,58,279,578,4352
1644153318.2712994,-0.01226806640625,0.0086669921875,-0.99359130859375,-0.026351145038167822,0.4958473282442748,0.028458015267175577,48,262,573,4304
1644153318.3197236,-0.013916015625,0.00482177734375,-0.99273681640625,-0.10268702290076326,0.2973740458015267,-0.032610687022900764,48,274,564,4320
1644153318.368038,-0.01239013671875,0.008056640625,-0.993408203125,0.08051908396946572,0.17523664122137406,0.04372519083969466,52,260,572,4288
1644153318.4164581,-0.01202392578125,0.0079345703125,-0.9954833984375,-0.026351145038167822,0.2821068702290076,-0.047877862595419846,54,277,570,4304
1644153318.4648535,-0.00970458984375,0.00640869140625,-0.99169921875,0.004183206106870341,0.2515725190839695,-0.07841221374045801,55,281,569,4304
1644153318.5132189,-0.01336669921875,0.0068359375,-0.9930419921875,-0.04161832061068693,0.20577099236641216,0.08952671755725192,53,271,566,4320
1644153318.561548,-0.0128173828125,0.00701904296875,-0.99456787109375,-0.16375572519083959,0.12943511450381678,0.104793893129771,52,282,563,4304
1644153318.6099656,-0.012939453125,0.0067138671875,-0.993408203125,-0.13322137404580142,0.40424427480916025,-0.032610687022900764,48,279,576,4288
1644153318.658372,-0.0126953125,0.00762939453125,-0.9927978515625,-0.011083969465648769,0.2668396946564886,-0.047877862595419846,42,275,565,4352
1644153318.706743,-0.01275634765625,0.0098876953125,-0.9927978515625,-0.24009160305343502,0.3431755725190839,-0.23108396946564885,43,269,583,4304
1644153318.7566774,-0.01153564453125,0.00885009765625,-0.99359130859375,-0.13322137404580142,0.22103816793893127,0.05899236641221374,49,280,570,4352
1644153318.8063478,-0.00982666015625,0.0084228515625,-0.994873046875,-0.13322137404580142,0.23630534351145038,0.1811297709923664,52,270,572,4320
1644153318.9003313,-0.01025390625,0.007568359375,-0.99383544921875,-0.16375572519083959,0.11416793893129773,-0.07841221374045801,54,270,565,4320
1644153318.9487076,-0.01397705078125,0.00653076171875,-0.99237060546875,-0.0874198473282442,0.20577099236641216,0.08952671755725192,46,276,576,4320
1644153318.997068,-0.0123291015625,0.01031494140625,-0.99072265625,-0.13322137404580142,0.3431755725190839,0.028458015267175577,58,264,578,4304
1644153319.0454764,-0.013427734375,0.009521484375,-0.99407958984375,-0.04161832061068693,0.2668396946564886,0.05899236641221374,48,264,566,4320
1644153319.0937908,-0.01348876953125,0.01019287109375,-0.99139404296875,0.04998473282442756,0.3431755725190839,0.04372519083969466,58,276,569,4320
1644153319.142236,-0.01318359375,0.0087890625,-0.99169921875,0.11105343511450394,0.2515725190839695,0.013190839694656495,49,275,570,4304
1644153319.1905372,-0.01318359375,0.00860595703125,-0.99029541015625,0.08051908396946572,0.35844274809160304,-0.047877862595419846,42,268,572,4368
1644153319.2390225,-0.01324462890625,0.00946044921875,-0.9927978515625,-0.026351145038167822,0.32790839694656493,0.04372519083969466,48,264,583,4352
1644153319.2890258,-0.011962890625,0.004638671875,-0.99224853515625,-0.20955725190839686,0.22103816793893127,0.05899236641221374,43,269,576,4416
1644153319.335695,-0.01385498046875,0.010986328125,-0.99151611328125,0.019450381679389395,0.2821068702290076,-0.047877862595419846,49,275,568,4288
1644153319.3840866,-0.013427734375,0.00628662109375,-0.995361328125,-0.13322137404580142,0.23630534351145038,-0.047877862595419846,46,271,576,4304
1644153319.4324799,-0.01416015625,0.00762939453125,-0.99200439453125,-0.0874198473282442,0.2973740458015267,0.15059541984732824,43,274,578,4320
1644153319.482017,-0.01416015625,0.00830078125,-0.99249267578125,-0.11795419847328237,0.4958473282442748,-0.047877862595419846,36,259,571,4352
1644153319.5776076,-0.01202392578125,0.0107421875,-0.9923095703125,-0.16375572519083959,0.38897709923664125,-0.047877862595419846,47,277,568,4352
1644153319.627154,-0.0125732421875,0.00726318359375,-0.9935302734375,0.004183206106870341,0.32790839694656493,0.07425954198473284,53,276,573,4400
1644153319.6743665,-0.012939453125,0.0096435546875,-0.99151611328125,-0.056885496183205986,0.2668396946564886,0.22693129770992365,47,268,568,4320
1644153319.7227917,-0.0125732421875,0.00799560546875,-0.99029541015625,-0.04161832061068693,0.15996946564885495,-0.032610687022900764,45,273,561,4352
1644153319.771171,-0.01507568359375,0.0111083984375,-0.9893798828125,-0.10268702290076326,0.20577099236641216,-0.032610687022900764,48,281,571,4320
1644153319.8195894,-0.0128173828125,0.00836181640625,-0.9937744140625,-0.10268702290076326,0.2515725190839695,-0.06314503816793893,51,266,578,4352
1644153319.8679256,-0.0128173828125,0.00689697265625,-0.99285888671875,-0.0874198473282442,0.22103816793893127,-0.09367938931297709,43,276,578,4304
1644153319.916343,-0.013671875,0.0057373046875,-0.99407958984375,-0.011083969465648769,0.22103816793893127,-0.032610687022900764,49,273,575,4352
1644153319.9647222,-0.01507568359375,0.00738525390625,-0.9915771484375,-0.056885496183205986,0.35844274809160304,0.104793893129771,47,270,568,4368
1644153320.0131526,-0.0145263671875,0.00848388671875,-0.99285888671875,-0.026351145038167822,0.3126412213740458,-0.032610687022900764,57,273,563,4320
1644153320.0660918,-0.0146484375,0.00958251953125,-0.99261474609375,-0.011083969465648769,0.2515725190839695,0.013190839694656495,40,265,582,4256
1644153320.109903,-0.01177978515625,0.00787353515625,-0.992431640625,-0.026351145038167822,0.2668396946564886,0.12006106870229008,49,263,565,4320
1644153320.1583114,-0.01446533203125,0.00830078125,-0.99658203125,0.019450381679389395,0.3126412213740458,-0.032610687022900764,52,277,568,4304
1644153320.206651,-0.01336669921875,0.0081787109375,-0.9920654296875,-0.11795419847328237,0.2515725190839695,0.07425954198473284,55,281,566,4288
1644153320.2551112,-0.01220703125,0.0101318359375,-0.992919921875,-0.056885496183205986,0.20577099236641216,0.05899236641221374,49,277,579,4304
1644153320.3034606,-0.00994873046875,0.00848388671875,-0.99188232421875,-0.0721526717557251,0.2821068702290076,0.05899236641221374,49,270,579,4320
1644153320.3518717,-0.01043701171875,0.0078125,-0.9940185546875,-0.04161832061068693,0.2973740458015267,0.04372519083969466,57,275,575,4304
1644153320.400186,-0.01239013671875,0.01031494140625,-0.99591064453125,-0.10268702290076326,0.11416793893129773,-0.07841221374045801,51,264,569,4352
1644153320.4485915,-0.01385498046875,0.00762939453125,-0.994140625,-0.011083969465648769,0.3431755725190839,0.028458015267175577,45,280,572,4288
1644153320.4969578,-0.01153564453125,0.00628662109375,-0.990966796875,0.034717557251908504,0.23630534351145038,-0.10894656488549617,53,276,576,4256
1644153320.545409,-0.01104736328125,0.0096435546875,-0.99200439453125,-0.026351145038167822,0.22103816793893127,-0.0020763358778626007,47,263,579,4320
1644153320.5950544,-0.01190185546875,0.00897216796875,-0.99285888671875,0.12632061068702305,0.2515725190839695,-0.032610687022900764,47,275,570,4400
1644153320.6446977,-0.01300048828125,0.00787353515625,-0.991943359375,-0.14848854961832053,0.2515725190839695,-0.0020763358778626007,55,274,569,4320
1644153320.7389174,-0.01153564453125,0.00592041015625,-0.99078369140625,-0.011083969465648769,0.3126412213740458,0.15059541984732824,49,275,570,4368
1644153320.7873015,-0.01470947265625,0.00860595703125,-0.99151611328125,-0.16375572519083959,0.2515725190839695,-0.032610687022900764,42,275,570,4320
1644153320.835723,-0.01171875,0.007568359375,-0.99066162109375,-0.026351145038167822,0.2821068702290076,-0.10894656488549617,51,281,571,4288
1644153320.8842843,-0.01019287109375,0.0054931640625,-0.99566650390625,-0.011083969465648769,0.38897709923664125,0.013190839694656495,46,274,580,4320
1644153320.9323897,-0.01336669921875,0.006103515625,-0.99322509765625,0.09578625954198483,0.12943511450381678,0.013190839694656495,57,275,575,4352
1644153320.9808,-0.01336669921875,0.00958251953125,-0.99114990234375,-0.0721526717557251,0.3126412213740458,-0.032610687022900764,46,264,569,4368
1644153321.0291822,-0.01629638671875,0.0076904296875,-0.99176025390625,-0.20955725190839686,0.38897709923664125,-0.0020763358778626007,45,280,570,4288
1644153321.0781045,-0.01202392578125,0.00836181640625,-0.99053955078125,0.004183206106870341,0.32790839694656493,-0.15474809160305342,52,265,577,4320
1644153321.1259258,-0.012451171875,0.008544921875,-0.994140625,-0.13322137404580142,0.2973740458015267,-0.017343511450381682,58,271,569,4352
1644153321.1743443,-0.01123046875,0.01092529296875,-0.99267578125,-0.026351145038167822,0.2515725190839695,-0.17001526717557253,47,268,565,4304
1644153321.2226865,-0.010498046875,0.00726318359375,-0.993896484375,-0.0874198473282442,0.2515725190839695,-0.12421374045801525,47,277,565,4320
1644153321.271067,-0.01336669921875,0.00848388671875,-0.99224853515625,0.034717557251908504,0.2668396946564886,-0.017343511450381682,47,270,565,4368
1644153321.319448,-0.0145263671875,0.00946044921875,-0.99407958984375,0.04998473282442756,0.1905038167938931,-0.09367938931297709,48,276,564,4368
1644153321.3678663,-0.01513671875,0.0093994140625,-0.992431640625,-0.026351145038167822,0.2821068702290076,0.04372519083969466,52,270,570,4352
1644153321.4162626,-0.01361083984375,0.00543212890625,-0.99267578125,-0.026351145038167822,0.20577099236641216,0.05899236641221374,45,275,570,4304
1644153321.46464,-0.01336669921875,0.00567626953125,-0.99267578125,-0.10268702290076326,0.32790839694656493,0.07425954198473284,54,277,575,4320
1644153321.5129864,-0.013916015625,0.00933837890625,-0.989501953125,-0.056885496183205986,0.35844274809160304,-0.047877862595419846,39,288,576,4400
1644153321.5614088,-0.01544189453125,0.0087890625,-0.99127197265625,-0.0721526717557251,0.23630534351145038,0.22693129770992365,51,269,573,4304
1644153321.609803,-0.0115966796875,0.0068359375,-0.99298095703125,-0.14848854961832053,0.23630534351145038,0.07425954198473284,48,276,576,4288
1644153321.6581933,-0.01336669921875,0.00830078125,-0.992919921875,0.004183206106870341,0.3431755725190839,0.07425954198473284,52,265,577,4304
1644153321.7065425,-0.012939453125,0.01068115234375,-0.9931640625,0.004183206106870341,0.2668396946564886,-0.017343511450381682,53,281,564,4304
1644153321.755755,-0.011474609375,0.00872802734375,-0.99163818359375,-0.0874198473282442,0.1447022900763359,-0.032610687022900764,41,283,564,4352
1644153321.8064282,-0.014404296875,0.007568359375,-0.99310302734375,-0.011083969465648769,0.3431755725190839,0.013190839694656495,43,283,573,4320
1644153321.900153,-0.0126953125,0.00994873046875,-0.99029541015625,-0.04161832061068693,0.3126412213740458,-0.09367938931297709,48,269,573,4288
1644153321.9484873,-0.01263427734375,0.0079345703125,-0.9915771484375,0.019450381679389395,0.22103816793893127,0.013190839694656495,51,281,566,4368
1644153321.9969344,-0.0111083984375,0.00787353515625,-0.9915771484375,0.04998473282442756,0.1447022900763359,0.028458015267175577,47,270,570,4288
1644153322.0608196,-0.014404296875,0.00885009765625,-0.99444580078125,-0.11795419847328237,0.20577099236641216,0.05899236641221374,43,276,569,4320
1644153322.0937142,-0.01263427734375,0.01007080078125,-0.9932861328125,-0.04161832061068693,0.17523664122137406,0.05899236641221374,55,276,573,4368
1644153322.1419923,-0.013427734375,0.00860595703125,-0.9920654296875,-0.056885496183205986,0.23630534351145038,0.08952671755725192,46,264,571,4320
1644153322.190415,-0.013427734375,0.01055908203125,-0.9898681640625,-0.1790229007633587,0.37370992366412215,-0.10894656488549617,52,275,570,4288
1644153322.238785,-0.01165771484375,0.00799560546875,-0.9908447265625,-0.14848854961832053,0.40424427480916025,0.013190839694656495,46,269,580,4320
1644153322.2871583,-0.012939453125,0.00958251953125,-0.9913330078125,-0.04161832061068693,0.12943511450381678,0.028458015267175577,51,274,559,4320
1644153322.3355508,-0.01202392578125,0.0064697265625,-0.99066162109375,-0.10268702290076326,0.2973740458015267,-0.0020763358778626007,58,274,569,4400
1644153322.3839211,-0.0125732421875,0.00823974609375,-0.990234375,-0.20955725190839686,0.20577099236641216,-0.047877862595419846,54,268,575,4320
1644153322.4323375,-0.01348876953125,0.00811767578125,-0.9935302734375,-0.20955725190839686,0.12943511450381678,0.013190839694656495,52,277,577,4304
1644153322.4806645,-0.01373291015625,0.00628662109375,-0.99139404296875,-0.04161832061068693,0.32790839694656493,0.028458015267175577,51,286,583,4320
1644153322.5290802,-0.014892578125,0.0086669921875,-0.9913330078125,-0.16375572519083959,0.35844274809160304,0.07425954198473284,53,274,566,4320
1644153322.5774603,-0.01214599609375,0.00762939453125,-0.99200439453125,-0.011083969465648769,0.32790839694656493,0.12006106870229008,48,276,576,4320
1644153322.6272078,-0.011474609375,0.00885009765625,-0.993896484375,0.034717557251908504,0.43477862595419847,0.12006106870229008,55,274,566,4304
1644153322.7226074,-0.013671875,0.0068359375,-0.99432373046875,-0.3316946564885495,0.40424427480916025,-0.032610687022900764,40,277,563,4304
1644153322.7709897,-0.0155029296875,0.0096435546875,-0.98956298828125,-0.13322137404580142,0.2515725190839695,-0.0020763358778626007,43,264,571,4352
1644153322.81937,-0.01373291015625,0.005615234375,-0.994140625,-0.11795419847328237,0.2973740458015267,0.013190839694656495,49,275,568,4352
1644153322.8677921,-0.01129150390625,0.00860595703125,-0.99273681640625,-0.026351145038167822,0.23630534351145038,-0.15474809160305342,57,268,570,4320
1644153322.9162114,-0.01324462890625,0.008056640625,-0.990478515625,-0.0721526717557251,0.3126412213740458,-0.07841221374045801,61,270,568,4368
1644153322.9646559,-0.0130615234375,0.00640869140625,-0.99285888671875,-0.026351145038167822,0.23630534351145038,-0.06314503816793893,49,270,572,4320
1644153323.012993,-0.01287841796875,0.00616455078125,-0.99212646484375,0.004183206106870341,0.2821068702290076,-0.06314503816793893,48,266,573,4368
1644153323.0663345,-0.0130615234375,0.0098876953125,-0.9910888671875,0.09578625954198483,0.1905038167938931,-0.0020763358778626007,55,271,569,4320
1644153323.1097877,-0.0106201171875,0.01019287109375,-0.99090576171875,-0.056885496183205986,0.35844274809160304,0.013190839694656495,47,268,568,4256
1644153323.158107,-0.01434326171875,0.0076904296875,-0.99139404296875,0.019450381679389395,0.37370992366412215,0.07425954198473284,46,279,576,4400
1644153323.2064793,-0.0142822265625,0.01025390625,-0.99090576171875,-0.22482442748091594,0.3431755725190839,0.028458015267175577,48,266,566,4288
1644153323.2549257,-0.01373291015625,0.00860595703125,-0.98944091796875,-0.10268702290076326,0.35844274809160304,0.1811297709923664,43,271,573,4352
1644153323.3033159,-0.01080322265625,0.01019287109375,-0.99072265625,-0.11795419847328237,0.37370992366412215,-0.032610687022900764,53,274,569,4288
1644153323.3516304,-0.0140380859375,0.008544921875,-0.9915771484375,-0.0721526717557251,0.22103816793893127,-0.15474809160305342,48,281,569,4304
1644153323.4000666,-0.01416015625,0.0111083984375,-0.9898681640625,-0.0721526717557251,0.15996946564885495,-0.17001526717557253,53,269,566,4320
1644153323.448453,-0.011474609375,0.01007080078125,-0.99395751953125,0.08051908396946572,0.38897709923664125,-0.032610687022900764,55,276,569,4352
1644153323.4968312,-0.01275634765625,0.00897216796875,-0.9925537109375,-0.11795419847328237,0.2973740458015267,-0.017343511450381682,49,268,572,4224
1644153323.5452495,-0.01312255859375,0.00848388671875,-0.9903564453125,-0.25535877862595413,0.35844274809160304,0.028458015267175577,32,269,573,4304
1644153323.5936189,-0.0133056640625,0.008544921875,-0.99139404296875,-0.16375572519083959,0.12943511450381678,0.07425954198473284,60,276,571,4352
1644153323.6419632,-0.0125732421875,0.0103759765625,-0.991455078125,-0.0874198473282442,0.2668396946564886,-0.09367938931297709,40,268,572,4304
1644153323.6903555,-0.0101318359375,0.0091552734375,-0.99169921875,-0.011083969465648769,0.43477862595419847,-0.047877862595419846,52,268,572,4400
1644153323.740871,-0.01275634765625,0.0086669921875,-0.99346923828125,-0.30116030534351135,0.17523664122137406,-0.017343511450381682,54,268,565,4368
1644153323.787326,-0.01251220703125,0.0069580078125,-0.99267578125,-0.13322137404580142,0.23630534351145038,0.04372519083969466,47,273,575,4368
1644153323.883906,-0.01190185546875,0.0069580078125,-0.9908447265625,-0.19429007633587778,0.15996946564885495,-0.0020763358778626007,42,268,575,4304
1644153323.93231,-0.01202392578125,0.0076904296875,-0.992919921875,-0.0721526717557251,0.2668396946564886,-0.07841221374045801,55,266,569,4352
1644153323.9807494,-0.0162353515625,0.00738525390625,-0.99334716796875,-0.1790229007633587,0.4500458015267176,-0.0020763358778626007,45,275,561,4368
1644153324.0298598,-0.0150146484375,0.00732421875,-0.9918212890625,-0.026351145038167822,0.2821068702290076,0.16586259541984733,58,269,573,4352
1644153324.077949,-0.01416015625,0.00640869140625,-0.99273681640625,-0.04161832061068693,0.09890076335877862,-0.17001526717557253,52,273,579,4288
1644153324.1257653,-0.01190185546875,0.00872802734375,-0.99346923828125,-0.0721526717557251,0.32790839694656493,-0.10894656488549617,42,268,577,4432
1644153324.1741679,-0.01123046875,0.00823974609375,-0.9913330078125,-0.16375572519083959,0.15996946564885495,0.12006106870229008,58,271,578,4320
1644153324.222539,-0.0128173828125,0.00946044921875,-0.99224853515625,0.034717557251908504,0.2515725190839695,-0.017343511450381682,46,271,571,4320
1644153324.2708924,-0.0135498046875,0.0089111328125,-0.99267578125,0.019450381679389395,0.2973740458015267,-0.06314503816793893,48,274,571,4400
1644153324.3193085,-0.01239013671875,0.0108642578125,-0.99102783203125,-0.19429007633587778,0.35844274809160304,-0.0020763358778626007,46,274,573,4320
1644153324.36772,-0.01336669921875,0.0103759765625,-0.9920654296875,-0.011083969465648769,0.2668396946564886,-0.0020763358778626007,57,273,570,4288
1644153324.4161053,-0.0115966796875,0.01104736328125,-0.992431640625,-0.04161832061068693,0.41951145038167936,0.013190839694656495,52,285,561,4352
1644153324.4644866,-0.01361083984375,0.0087890625,-0.991455078125,-0.0721526717557251,0.3126412213740458,-0.07841221374045801,54,265,563,4304
1644153324.5128539,-0.01190185546875,0.00787353515625,-0.9921875,-0.04161832061068693,0.32790839694656493,0.05899236641221374,46,266,573,4368
1644153324.5612502,-0.01385498046875,0.007568359375,-0.99041748046875,0.004183206106870341,0.22103816793893127,-0.032610687022900764,40,275,579,4368
1644153324.6096377,-0.011474609375,0.00970458984375,-0.9918212890625,-0.026351145038167822,0.15996946564885495,0.028458015267175577,57,277,568,4288
1644153324.6580238,-0.0115966796875,0.0068359375,-0.99151611328125,-0.22482442748091594,0.2668396946564886,-0.032610687022900764,46,269,569,4352
1644153324.706406,-0.01434326171875,0.0103759765625,-0.9925537109375,-0.24009160305343502,0.2821068702290076,-0.06314503816793893,42,273,584,4288
1644153324.7548044,-0.012939453125,0.00494384765625,-0.9896240234375,-0.04161832061068693,0.23630534351145038,0.013190839694656495,49,273,570,4256
1644153324.8031957,-0.01220703125,0.00836181640625,-0.99114990234375,0.034717557251908504,0.2668396946564886,-0.017343511450381682,57,273,563,4352
1644153324.851556,-0.01397705078125,0.00732421875,-0.9927978515625,-0.0721526717557251,0.17523664122137406,-0.047877862595419846,52,270,577,4368
1644153324.9011195,-0.0125732421875,0.00982666015625,-0.99267578125,-0.11795419847328237,0.23630534351145038,0.013190839694656495,54,270,572,4288
1644153324.996755,-0.0140380859375,0.00750732421875,-0.9913330078125,-0.1790229007633587,0.22103816793893127,0.08952671755725192,52,273,561,4368
1644153325.0453813,-0.010986328125,0.0098876953125,-0.99212646484375,-0.026351145038167822,0.23630534351145038,0.013190839694656495,46,271,569,4304
1644153325.0941906,-0.0108642578125,0.008056640625,-0.99114990234375,-0.11795419847328237,0.2668396946564886,-0.09367938931297709,52,263,579,4256
1644153325.1419399,-0.01324462890625,0.00714111328125,-0.99102783203125,0.019450381679389395,0.2515725190839695,0.08952671755725192,48,274,573,4320
1644153325.190247,-0.01031494140625,0.0093994140625,-0.9925537109375,-0.026351145038167822,0.2821068702290076,-0.10894656488549617,47,268,568,4320
1644153325.2386627,-0.0125732421875,0.0113525390625,-0.99267578125,-0.0721526717557251,0.35844274809160304,-0.07841221374045801,48,283,573,4256
1644153325.2870758,-0.01263427734375,0.0078125,-0.9908447265625,-0.13322137404580142,0.1905038167938931,-0.047877862595419846,43,271,573,4352
1644153325.335494,-0.0137939453125,0.0108642578125,-0.99383544921875,-0.056885496183205986,0.23630534351145038,0.013190839694656495,45,273,563,4304
1644153325.3838027,-0.0126953125,0.0078125,-0.99139404296875,0.004183206106870341,0.41951145038167936,0.15059541984732824,52,273,572,4352
1644153325.4324028,-0.0152587890625,0.00628662109375,-0.9918212890625,0.004183206106870341,0.3431755725190839,0.08952671755725192,47,273,579,4368
1644153325.4805963,-0.0125732421875,0.00732421875,-0.99371337890625,0.08051908396946572,0.23630534351145038,0.104793893129771,49,277,570,4304
1644153325.5290203,-0.01409912109375,0.0067138671875,-0.99359130859375,-0.0874198473282442,0.1447022900763359,0.04372519083969466,57,265,575,4320
1644153325.6257842,-0.01324462890625,0.00848388671875,-0.99322509765625,-0.14848854961832053,0.32790839694656493,-0.032610687022900764,51,271,580,4288
1644153325.6741364,-0.01708984375,0.00787353515625,-0.9927978515625,0.019450381679389395,0.2973740458015267,-0.047877862595419846,55,266,576,4224
1644153325.7224836,-0.0098876953125,0.006103515625,-0.99267578125,-0.0721526717557251,0.35844274809160304,0.05899236641221374,42,277,570,4320
1644153325.7708452,-0.016357421875,0.0123291015625,-0.99078369140625,0.004183206106870341,0.17523664122137406,0.07425954198473284,55,269,569,4400
1644153325.8192184,-0.0133056640625,0.0098876953125,-0.99237060546875,-0.0874198473282442,0.23630534351145038,0.104793893129771,52,270,570,4288
1644153325.8676317,-0.0130615234375,0.00830078125,-0.990478515625,0.04998473282442756,0.3126412213740458,-0.047877862595419846,46,276,573,4400
1644153325.91599,-0.013916015625,0.00750732421875,-0.9921875,-0.31642748091603046,0.32790839694656493,-0.06314503816793893,53,271,576,4304
1644153325.9644244,-0.01275634765625,0.0079345703125,-0.9910888671875,-0.0874198473282442,0.35844274809160304,0.16586259541984733,47,280,570,4352
1644153326.0127935,-0.01239013671875,0.00872802734375,-0.99090576171875,-0.0721526717557251,0.17523664122137406,0.05899236641221374,47,275,570,4352
1644153326.0612328,-0.01214599609375,0.00616455078125,-0.99176025390625,-0.1790229007633587,0.2515725190839695,-0.0020763358778626007,61,275,584,4320
1644153326.1095672,-0.0126953125,0.00921630859375,-0.9942626953125,-0.026351145038167822,0.20577099236641216,0.028458015267175577,59,270,575,4320
1644153326.1579177,-0.0125732421875,0.00885009765625,-0.9913330078125,-0.04161832061068693,0.35844274809160304,0.028458015267175577,55,269,573,4352
1644153326.2063098,-0.01397705078125,0.0067138671875,-0.99493408203125,-0.04161832061068693,0.3126412213740458,-0.06314503816793893,46,279,573,4304
1644153326.254707,-0.01202392578125,0.0087890625,-0.99176025390625,0.019450381679389395,0.1447022900763359,0.028458015267175577,54,275,565,4352
1644153326.3030925,-0.01324462890625,0.00640869140625,-0.99310302734375,0.08051908396946572,0.41951145038167936,0.04372519083969466,48,269,566,4368
1644153326.351476,-0.01434326171875,0.0059814453125,-0.9913330078125,-0.13322137404580142,0.2821068702290076,-0.15474809160305342,45,268,575,4288
1644153326.4004443,-0.01409912109375,0.0115966796875,-0.99273681640625,-0.04161832061068693,0.41951145038167936,0.013190839694656495,59,273,575,4368
1644153326.4483006,-0.01239013671875,0.00726318359375,-0.989990234375,-0.22482442748091594,0.37370992366412215,-0.047877862595419846,51,266,564,4352
1644153326.4966068,-0.0135498046875,0.00982666015625,-0.9925537109375,-0.19429007633587778,0.2821068702290076,-0.032610687022900764,46,269,569,4320
1644153326.54512,-0.01605224609375,0.0106201171875,-0.98974609375,0.034717557251908504,0.2821068702290076,0.05899236641221374,58,266,580,4352
1644153326.5934744,-0.01300048828125,0.0081787109375,-0.9925537109375,-0.026351145038167822,0.2973740458015267,-0.0020763358778626007,51,279,569,4320
1644153326.6427207,-0.010498046875,0.00579833984375,-0.99334716796875,-0.19429007633587778,0.32790839694656493,0.028458015267175577,59,273,570,4400
1644153326.6929631,-0.01324462890625,0.0087890625,-0.99267578125,-0.056885496183205986,0.4958473282442748,-0.06314503816793893,52,268,565,4256
1644153326.7869737,-0.0103759765625,0.0084228515625,-0.99310302734375,-0.11795419847328237,0.20577099236641216,0.07425954198473284,54,275,575,4256
1644153326.8353322,-0.01239013671875,0.00970458984375,-0.99163818359375,-0.22482442748091594,0.41951145038167936,0.013190839694656495,55,266,571,4368
1644153326.8837483,-0.0118408203125,0.0054931640625,-0.99114990234375,-0.14848854961832053,0.23630534351145038,-0.10894656488549617,52,277,575,4304
1644153326.9322166,-0.01348876953125,0.010009765625,-0.9915771484375,-0.026351145038167822,0.22103816793893127,-0.047877862595419846,53,274,573,4304
1644153326.980546,-0.01300048828125,0.00653076171875,-0.991455078125,-0.22482442748091594,0.2973740458015267,-0.032610687022900764,51,274,562,4320
1644153327.0289114,-0.01336669921875,0.0084228515625,-0.99261474609375,-0.10268702290076326,0.41951145038167936,0.013190839694656495,47,265,568,4368
1644153327.0777986,-0.0113525390625,0.00604248046875,-0.99114990234375,-0.10268702290076326,0.2515725190839695,-0.12421374045801525,57,280,575,4288
1644153327.1256227,-0.009521484375,0.0076904296875,-0.99267578125,-0.13322137404580142,0.1447022900763359,0.15059541984732824,42,270,572,4304
1644153327.1740053,-0.01690673828125,0.00933837890625,-0.9918212890625,-0.04161832061068693,0.2973740458015267,-0.07841221374045801,48,262,573,4352
1644153327.2225664,-0.01190185546875,0.007080078125,-0.99261474609375,-0.011083969465648769,0.3126412213740458,-0.032610687022900764,55,262,580,4304
1644153327.2710419,-0.0106201171875,0.00946044921875,-0.99212646484375,-0.11795419847328237,0.37370992366412215,-0.047877862595419846,55,274,578,4368
1644153327.3191473,-0.01519775390625,0.0091552734375,-0.993408203125,-0.0874198473282442,0.2821068702290076,-0.06314503816793893,51,266,571,4288
1644153327.3675673,-0.0098876953125,0.0084228515625,-0.9920654296875,-0.30116030534351135,0.2821068702290076,0.05899236641221374,51,266,578,4352
1644153327.4159257,-0.014892578125,0.0113525390625,-0.99169921875,-0.011083969465648769,0.2668396946564886,0.08952671755725192,45,265,577,4304
1644153327.464332,-0.013427734375,0.00537109375,-0.994873046875,-0.0721526717557251,0.22103816793893127,-0.032610687022900764,54,275,575,4368
1644153327.5126984,-0.0140380859375,0.0096435546875,-0.99212646484375,-0.24009160305343502,0.2973740458015267,-0.07841221374045801,58,274,573,4320
1644153327.5611076,-0.01507568359375,0.00897216796875,-0.99334716796875,-0.026351145038167822,0.2668396946564886,0.07425954198473284,43,271,566,4304
1644153327.609469,-0.01129150390625,0.006591796875,-0.992919921875,-0.0721526717557251,0.20577099236641216,-0.07841221374045801,59,265,563,4352
1644153327.6578324,-0.01287841796875,0.0072021484375,-0.9920654296875,-0.16375572519083959,0.2668396946564886,0.05899236641221374,42,275,577,4400
1644153327.7062435,-0.01318359375,0.00653076171875,-0.9921875,0.019450381679389395,0.37370992366412215,-0.06314503816793893,51,271,569,4352
1644153327.7546859,-0.0135498046875,0.0093994140625,-0.99078369140625,-0.1790229007633587,0.38897709923664125,0.028458015267175577,47,273,572,4304
1644153327.8039043,-0.01385498046875,0.00732421875,-0.99114990234375,-0.16375572519083959,0.2668396946564886,-0.06314503816793893,53,283,564,4320
1644153327.8541937,-0.01263427734375,0.0078125,-0.993896484375,-0.011083969465648769,0.37370992366412215,-0.09367938931297709,45,263,577,4288
1644153327.9482262,-0.009033203125,0.00885009765625,-0.992431640625,0.034717557251908504,0.3126412213740458,-0.0020763358778626007,61,273,572,4368
1644153327.9966147,-0.0150146484375,0.00762939453125,-0.995849609375,-0.10268702290076326,0.2668396946564886,0.028458015267175577,48,281,576,4320
1644153328.044928,-0.0107421875,0.007568359375,-0.99200439453125,-0.10268702290076326,0.40424427480916025,-0.07841221374045801,47,275,575,4320
1644153328.0933433,-0.00738525390625,0.00897216796875,-0.99462890625,-0.14848854961832053,0.32790839694656493,0.08952671755725192,43,266,569,4320
1644153328.1417565,-0.0126953125,0.009765625,-0.99188232421875,-0.14848854961832053,0.20577099236641216,0.028458015267175577,48,274,566,4320
1644153328.1901217,-0.013916015625,0.0068359375,-0.99224853515625,0.019450381679389395,0.2515725190839695,-0.047877862595419846,42,270,575,4352
1644153328.238522,-0.01214599609375,0.009765625,-0.9952392578125,0.019450381679389395,0.11416793893129773,0.04372519083969466,55,269,580,4304
1644153328.2868965,-0.0123291015625,0.0068359375,-0.99462890625,-0.14848854961832053,0.2821068702290076,0.12006106870229008,48,271,569,4352
1644153328.3352716,-0.0115966796875,0.0078125,-0.9945068359375,-0.10268702290076326,0.32790839694656493,-0.23108396946564885,52,263,575,4304
1644153328.3836873,-0.01495361328125,0.00732421875,-0.994873046875,-0.14848854961832053,0.11416793893129773,0.104793893129771,45,263,572,4400
1644153328.4320614,-0.0113525390625,0.0086669921875,-0.99078369140625,-0.11795419847328237,0.20577099236641216,-0.23108396946564885,47,270,572,4320
1644153328.4804807,-0.014404296875,0.00848388671875,-0.99273681640625,0.004183206106870341,0.4805801526717557,0.013190839694656495,49,265,579,4304
1644153328.528803,-0.01495361328125,0.00885009765625,-0.99407958984375,-0.026351145038167822,0.2821068702290076,-0.17001526717557253,46,274,578,4368
1644153328.5772152,-0.013916015625,0.00628662109375,-0.99273681640625,-0.0721526717557251,0.22103816793893127,-0.017343511450381682,45,275,586,4304
1644153328.6255987,-0.01177978515625,0.007080078125,-0.98992919921875,-0.011083969465648769,0.1905038167938931,0.05899236641221374,52,268,577,4368
1644153328.673996,-0.0145263671875,0.0086669921875,-0.99176025390625,-0.14848854961832053,0.2515725190839695,0.013190839694656495,51,264,569,4320
1644153328.7242284,-0.01556396484375,0.0089111328125,-0.991943359375,0.08051908396946572,0.35844274809160304,0.028458015267175577,51,271,578,4368
1644153328.819179,-0.0120849609375,0.0084228515625,-0.99005126953125,-0.14848854961832053,0.2515725190839695,0.08952671755725192,53,266,576,4288
1644153328.8680832,-0.0118408203125,0.0074462890625,-0.99462890625,-0.13322137404580142,0.35844274809160304,0.013190839694656495,43,281,580,4256
1644153328.9158256,-0.0098876953125,0.00836181640625,-0.99237060546875,-0.011083969465648769,0.17523664122137406,0.05899236641221374,48,271,578,4304
1644153328.9642498,-0.01226806640625,0.01129150390625,-0.9937744140625,-0.10268702290076326,0.2821068702290076,-0.06314503816793893,45,268,577,4304
1644153329.012638,-0.0118408203125,0.00665283203125,-0.9937744140625,-0.13322137404580142,0.17523664122137406,0.013190839694656495,47,273,575,4352
1644153329.0650024,-0.01092529296875,0.00738525390625,-0.99407958984375,0.034717557251908504,0.3126412213740458,0.16586259541984733,45,273,579,4368
1644153329.1093569,-0.01361083984375,0.0091552734375,-0.990478515625,0.08051908396946572,0.37370992366412215,0.1811297709923664,47,265,572,4304
1644153329.157793,-0.011962890625,0.00750732421875,-0.99163818359375,-0.056885496183205986,0.23630534351145038,-0.07841221374045801,57,275,572,4400
1644153329.2061594,-0.012451171875,0.00714111328125,-0.99017333984375,0.004183206106870341,0.35844274809160304,-0.06314503816793893,49,270,577,4352
1644153329.2546258,-0.01324462890625,0.0076904296875,-0.992431640625,-0.056885496183205986,0.40424427480916025,-0.017343511450381682,54,273,575,4304
1644153329.302894,-0.0123291015625,0.00567626953125,-0.99285888671875,-0.011083969465648769,0.37370992366412215,0.04372519083969466,43,274,576,4304
1644153329.3513234,-0.0126953125,0.00750732421875,-0.9913330078125,0.09578625954198483,0.3126412213740458,0.028458015267175577,52,268,572,4240
1644153329.3996978,-0.01214599609375,0.00933837890625,-0.99237060546875,0.11105343511450394,0.3126412213740458,-0.06314503816793893,52,273,570,4320
1644153329.4481049,-0.0164794921875,0.00909423828125,-0.99139404296875,-0.056885496183205986,0.23630534351145038,-0.06314503816793893,49,277,565,4352
1644153329.4964454,-0.010009765625,0.0086669921875,-0.9908447265625,0.019450381679389395,0.2973740458015267,0.16586259541984733,45,270,572,4304
1644153329.5449016,-0.01397705078125,0.0098876953125,-0.99151611328125,-0.056885496183205986,0.2515725190839695,-0.13948091603053436,57,275,568,4304
1644153329.593271,-0.00970458984375,0.00787353515625,-0.9921875,-0.10268702290076326,0.15996946564885495,0.013190839694656495,52,270,563,4320
1644153329.6416652,-0.01507568359375,0.00982666015625,-0.99224853515625,-0.20955725190839686,0.037832061068702294,-0.017343511450381682,55,276,578,4304
1644153329.6900716,-0.01055908203125,0.00836181640625,-0.99334716796875,-0.14848854961832053,0.1447022900763359,-0.032610687022900764,58,262,569,4288
1644153329.7384079,-0.0128173828125,0.008544921875,-0.99176025390625,-0.04161832061068693,0.3126412213740458,0.04372519083969466,48,274,573,4304
1644153329.7868261,-0.01409912109375,0.00726318359375,-0.99249267578125,0.019450381679389395,0.43477862595419847,0.104793893129771,40,273,572,4368
1644153329.8374546,-0.0123291015625,0.00787353515625,-0.98870849609375,-0.13322137404580142,0.2821068702290076,-0.10894656488549617,54,270,568,4352
1644153329.9319801,-0.01348876953125,0.0089111328125,-0.99029541015625,-0.14848854961832053,0.17523664122137406,0.013190839694656495,46,266,573,4352
1644153329.9803824,-0.014892578125,0.0059814453125,-0.98858642578125,-0.0721526717557251,0.2973740458015267,0.04372519083969466,43,279,571,4288
1644153330.0287557,-0.0133056640625,0.01025390625,-0.99078369140625,0.004183206106870341,0.23630534351145038,-0.0020763358778626007,55,269,580,4288
1644153330.0778391,-0.0147705078125,0.0087890625,-0.98992919921875,0.06525190839694661,0.22103816793893127,-0.13948091603053436,52,268,572,4320
1644153330.1255045,-0.01361083984375,0.00830078125,-0.98907470703125,0.019450381679389395,0.2515725190839695,-0.047877862595419846,53,259,583,4320
1644153330.1738577,-0.01055908203125,0.00653076171875,-0.989990234375,0.004183206106870341,0.35844274809160304,-0.047877862595419846,58,274,576,4352
1644153330.222255,-0.0107421875,0.01092529296875,-0.992919921875,-0.20955725190839686,0.12943511450381678,0.04372519083969466,45,273,575,4304
1644153330.2706144,-0.0130615234375,0.00732421875,-0.99359130859375,-0.0721526717557251,0.37370992366412215,0.07425954198473284,42,260,568,4352
1644153330.3195016,-0.01055908203125,0.00689697265625,-0.9915771484375,-0.11795419847328237,0.22103816793893127,-0.0020763358778626007,41,269,566,4320
1644153330.3673751,-0.01171875,0.00775146484375,-0.9921875,-0.11795419847328237,0.37370992366412215,-0.047877862595419846,47,270,572,4304
1644153330.4157825,-0.01080322265625,0.00799560546875,-0.993408203125,0.04998473282442756,0.2821068702290076,0.08952671755725192,52,275,584,4288
1644153330.4643686,-0.01348876953125,0.009033203125,-0.99139404296875,-0.011083969465648769,0.32790839694656493,0.028458015267175577,57,270,575,4320
1644153330.5125508,-0.011474609375,0.00701904296875,-0.99078369140625,-0.0721526717557251,0.22103816793893127,-0.017343511450381682,39,271,576,4320
1644153330.5608912,-0.01177978515625,0.0072021484375,-0.98956298828125,-0.11795419847328237,0.037832061068702294,0.028458015267175577,42,270,565,4256
1644153330.6093287,-0.01080322265625,0.00811767578125,-0.9930419921875,-0.0874198473282442,0.12943511450381678,-0.12421374045801525,53,259,571,4352
1644153330.6577108,-0.01165771484375,0.00616455078125,-0.98968505859375,0.019450381679389395,0.41951145038167936,0.08952671755725192,57,268,565,4320
1644153330.706098,-0.01324462890625,0.00885009765625,-0.99249267578125,-0.20955725190839686,0.17523664122137406,-0.12421374045801525,49,265,572,4352
1644153330.7544434,-0.01055908203125,0.0106201171875,-0.99334716796875,0.004183206106870341,0.22103816793893127,0.028458015267175577,47,270,582,4352
1644153330.802834,-0.0135498046875,0.0089111328125,-0.99066162109375,-0.1790229007633587,0.23630534351145038,0.07425954198473284,54,275,572,4320
1644153330.8512702,-0.0137939453125,0.0111083984375,-0.99267578125,0.09578625954198483,0.2973740458015267,-0.12421374045801525,59,265,570,4368
1644153330.8996694,-0.01336669921875,0.0076904296875,-0.99322509765625,-0.10268702290076326,0.37370992366412215,-0.047877862595419846,41,266,564,4352
1644153330.950487,-0.01397705078125,0.00897216796875,-0.9921875,-0.026351145038167822,0.23630534351145038,0.07425954198473284,48,269,576,4416
1644153331.0450604,-0.0125732421875,0.00872802734375,-0.99273681640625,-0.28589312977099224,0.22103816793893127,-0.10894656488549617,47,265,570,4256
1644153331.0931747,-0.01678466796875,0.00799560546875,-0.9913330078125,-0.14848854961832053,0.3431755725190839,0.04372519083969466,49,268,577,4352
1644153331.1415858,-0.0137939453125,0.00885009765625,-0.9937744140625,-0.11795419847328237,0.2515725190839695,-0.06314503816793893,43,266,569,4352
1644153331.1899242,-0.01116943359375,0.0081787109375,-0.99139404296875,-0.13322137404580142,0.22103816793893127,0.013190839694656495,51,271,566,4352
1644153331.2383497,-0.01025390625,0.01092529296875,-0.990234375,-0.14848854961832053,0.2668396946564886,-0.07841221374045801,52,270,570,4320
1644153331.2867248,-0.01495361328125,0.0072021484375,-0.99261474609375,-0.20955725190839686,0.2668396946564886,-0.07841221374045801,59,265,575,4304
1644153331.3351903,-0.01422119140625,0.008544921875,-0.99273681640625,-0.10268702290076326,0.23630534351145038,0.1811297709923664,54,275,568,4368
1644153331.3835316,-0.0133056640625,0.00897216796875,-0.99169921875,-0.0721526717557251,0.11416793893129773,-0.047877862595419846,51,262,573,4320
1644153331.431882,-0.01263427734375,0.00836181640625,-0.99200439453125,0.019450381679389395,0.35844274809160304,-0.06314503816793893,52,265,570,4304
1644153331.480261,-0.011474609375,0.00927734375,-0.99072265625,-0.14848854961832053,0.38897709923664125,0.08952671755725192,58,264,576,4320
1644153331.5286694,-0.01287841796875,0.00946044921875,-0.991455078125,-0.13322137404580142,0.1447022900763359,-0.0020763358778626007,46,276,576,4320
1644153331.5770528,-0.0125732421875,0.00830078125,-0.98907470703125,-0.10268702290076326,0.2821068702290076,-0.2005496183206107,51,274,566,4368
1644153331.6254723,-0.014892578125,0.00701904296875,-0.9931640625,-0.026351145038167822,0.22103816793893127,0.028458015267175577,45,263,568,4304
1644153331.6738713,-0.01141357421875,0.00762939453125,-0.99072265625,0.019450381679389395,0.23630534351145038,0.04372519083969466,48,266,573,4304
1644153331.7238178,-0.0166015625,0.00787353515625,-0.9925537109375,0.14158778625954205,0.17523664122137406,-0.032610687022900764,57,273,563,4304
1644153331.8189554,-0.01336669921875,0.00872802734375,-0.99261474609375,-0.10268702290076326,0.3126412213740458,0.07425954198473284,53,283,571,4352
1644153331.8673866,-0.01422119140625,0.00714111328125,-0.99334716796875,0.04998473282442756,0.35844274809160304,0.013190839694656495,45,280,577,4368
1644153331.915731,-0.01336669921875,0.00775146484375,-0.99200439453125,0.004183206106870341,0.2973740458015267,0.08952671755725192,42,270,579,4352
1644153331.9753761,-0.0125732421875,0.01123046875,-0.9923095703125,-0.056885496183205986,0.2973740458015267,-0.017343511450381682,53,266,573,4368
1644153332.0125067,-0.0145263671875,0.0103759765625,-0.99078369140625,-0.11795419847328237,0.37370992366412215,0.013190839694656495,52,260,575,4352
1644153332.060906,-0.013427734375,0.008056640625,-0.993896484375,-0.026351145038167822,0.23630534351145038,0.028458015267175577,52,277,575,4400
1644153332.1091774,-0.0164794921875,0.00616455078125,-0.99334716796875,-0.011083969465648769,0.32790839694656493,-0.12421374045801525,51,274,573,4368
1644153332.1576266,-0.01361083984375,0.00726318359375,-0.9912109375,-0.04161832061068693,0.2668396946564886,-0.07841221374045801,48,269,566,4320
1644153332.206023,-0.01214599609375,0.00732421875,-0.99371337890625,0.11105343511450394,0.35844274809160304,-0.24635114503816796,48,266,557,4304
1644153332.2543993,-0.01336669921875,0.005615234375,-0.99322509765625,-0.04161832061068693,0.3126412213740458,-0.017343511450381682,49,270,579,4368
1644153332.3027985,-0.01226806640625,0.01031494140625,-0.99053955078125,-0.056885496183205986,0.22103816793893127,-0.0020763358778626007,47,270,575,4320
1644153332.3511748,-0.0133056640625,0.0069580078125,-0.9921875,-0.0721526717557251,0.37370992366412215,0.04372519083969466,45,277,568,4320
1644153332.3995562,-0.0147705078125,0.00775146484375,-0.99090576171875,-0.0721526717557251,0.2821068702290076,-0.06314503816793893,42,273,570,4368
1644153332.4478996,-0.01220703125,0.0084228515625,-0.99261474609375,-0.04161832061068693,0.2515725190839695,-0.0020763358778626007,48,276,578,4288
1644153332.496295,-0.0128173828125,0.0084228515625,-0.99041748046875,-0.0721526717557251,0.20577099236641216,-0.07841221374045801,48,271,580,4352
1644153332.544701,-0.01434326171875,0.0084228515625,-0.9942626953125,0.09578625954198483,0.23630534351145038,0.013190839694656495,43,279,578,4304
1644153332.5930924,-0.01507568359375,0.00811767578125,-0.994140625,-0.056885496183205986,0.2973740458015267,0.08952671755725192,53,271,569,4304
1644153332.6414628,-0.01141357421875,0.00830078125,-0.99102783203125,-0.011083969465648769,0.3431755725190839,0.104793893129771,51,274,571,4368
1644153332.6900332,-0.01019287109375,0.00469970703125,-0.99407958984375,-0.026351145038167822,0.1905038167938931,-0.06314503816793893,47,263,570,4368
1644153332.7403014,-0.0140380859375,0.00860595703125,-0.99072265625,-0.056885496183205986,0.2668396946564886,-0.017343511450381682,48,262,569,4240
1644153332.8351018,-0.01348876953125,0.00933837890625,-0.9888916015625,-0.0874198473282442,0.32790839694656493,0.07425954198473284,52,265,565,4400
1644153332.8834124,-0.014404296875,0.00848388671875,-0.99017333984375,-0.22482442748091594,0.2973740458015267,0.104793893129771,57,275,570,4352
1644153332.9318237,-0.0120849609375,0.0101318359375,-0.9910888671875,-0.14848854961832053,0.3431755725190839,0.04372519083969466,46,266,573,4288
1644153332.980202,-0.01190185546875,0.00836181640625,-0.98992919921875,0.12632061068702305,0.3126412213740458,0.104793893129771,43,271,578,4352
1644153333.0285892,-0.01116943359375,0.0078125,-0.99053955078125,-0.0721526717557251,0.2515725190839695,-0.18528244274809158,51,279,571,4288
1644153333.0770836,-0.01116943359375,0.00885009765625,-0.99127197265625,0.06525190839694661,0.2668396946564886,0.104793893129771,54,287,572,4368
1644153333.1253588,-0.01190185546875,0.00738525390625,-0.993896484375,-0.026351145038167822,0.32790839694656493,0.07425954198473284,52,273,570,4320
1644153333.1737351,-0.01031494140625,0.0098876953125,-0.99267578125,-0.22482442748091594,0.2973740458015267,-0.10894656488549617,43,274,576,4288
1644153333.2221627,-0.0133056640625,0.00982666015625,-0.99237060546875,-0.0721526717557251,0.23630534351145038,-0.06314503816793893,47,268,572,4320
1644153333.270511,-0.01593017578125,0.005126953125,-0.99072265625,-0.16375572519083959,0.2973740458015267,-0.032610687022900764,52,273,570,4368
1644153333.3189332,-0.01171875,0.007568359375,-0.99285888671875,-0.1790229007633587,0.2973740458015267,-0.017343511450381682,55,276,566,4288
1644153333.3672996,-0.01141357421875,0.00836181640625,-0.99359130859375,-0.16375572519083959,0.2515725190839695,-0.0020763358778626007,54,285,568,4320
1644153333.4157116,-0.015380859375,0.00579833984375,-0.9925537109375,-0.14848854961832053,0.22103816793893127,0.16586259541984733,51,266,578,4400
1644153333.464077,-0.01361083984375,0.00775146484375,-0.99334716796875,-0.20955725190839686,0.3126412213740458,-0.047877862595419846,46,269,576,4400
1644153333.5124514,-0.01605224609375,0.009033203125,-0.9923095703125,0.04998473282442756,0.22103816793893127,0.013190839694656495,59,275,575,4320
1644153333.5608287,-0.01007080078125,0.0086669921875,-0.99188232421875,-0.0721526717557251,0.37370992366412215,-0.07841221374045801,38,273,570,4368
1644153333.60923,-0.01141357421875,0.00750732421875,-0.99102783203125,-0.056885496183205986,0.2973740458015267,0.13532824427480916,45,270,577,4320
1644153333.6575954,-0.01275634765625,0.00933837890625,-0.99249267578125,-0.056885496183205986,0.3431755725190839,-0.047877862595419846,51,279,585,4352
1644153333.7066526,-0.01226806640625,0.0074462890625,-0.992919921875,-0.04161832061068693,0.23630534351145038,-0.032610687022900764,54,270,572,4320
1644153333.7542999,-0.0133056640625,0.00799560546875,-0.99114990234375,-0.16375572519083959,0.2821068702290076,0.013190839694656495,48,266,571,4304
1644153333.8027103,-0.01171875,0.00628662109375,-0.99078369140625,-0.10268702290076326,0.23630534351145038,-0.12421374045801525,53,262,578,4304
1644153333.8517907,-0.01495361328125,0.0093994140625,-0.9945068359375,0.09578625954198483,0.43477862595419847,0.07425954198473284,40,268,570,4256
1644153333.901866,-0.0123291015625,0.005859375,-0.99176025390625,-0.1790229007633587,0.2515725190839695,-0.032610687022900764,53,274,580,4288
1644153333.9962146,-0.01422119140625,0.01165771484375,-0.9915771484375,-0.1790229007633587,0.1905038167938931,0.04372519083969466,54,273,572,4368
1644153334.044678,-0.01226806640625,0.00738525390625,-0.99139404296875,-0.04161832061068693,0.1905038167938931,0.07425954198473284,49,268,572,4320
1644153334.092998,-0.01153564453125,0.009033203125,-0.99285888671875,0.034717557251908504,0.2515725190839695,-0.032610687022900764,51,281,576,4368
1644153334.1413727,-0.01507568359375,0.00970458984375,-0.99365234375,-0.04161832061068693,0.2668396946564886,-0.017343511450381682,52,273,568,4320
1644153334.1897988,-0.01446533203125,0.008056640625,-0.992431640625,0.18738931297709938,0.2973740458015267,0.013190839694656495,49,273,577,4368
1644153334.2381592,-0.01123046875,0.00732421875,-0.9925537109375,0.004183206106870341,0.2668396946564886,-0.2921526717557252,38,273,561,4304
1644153334.2865155,-0.01165771484375,0.00830078125,-0.99169921875,-0.0721526717557251,0.2668396946564886,0.013190839694656495,52,282,570,4256
1644153334.33493,-0.0146484375,0.00518798828125,-0.99334716796875,-0.19429007633587778,0.32790839694656493,-0.06314503816793893,48,276,571,4304
1644153334.3833,-0.015380859375,0.00823974609375,-0.9927978515625,-0.011083969465648769,0.4500458015267176,0.04372519083969466,51,274,578,4352
1644153334.4317515,-0.01416015625,0.00897216796875,-0.99176025390625,-0.011083969465648769,0.2668396946564886,0.104793893129771,67,266,580,4320
1644153334.4801178,-0.0147705078125,0.0078125,-0.9910888671875,-0.14848854961832053,0.2973740458015267,0.13532824427480916,46,264,580,4304
1644153334.528543,-0.0133056640625,0.00909423828125,-0.990966796875,-0.11795419847328237,0.3431755725190839,0.04372519083969466,53,271,569,4368
1644153334.5769355,-0.01031494140625,0.00714111328125,-0.99188232421875,-0.14848854961832053,0.15996946564885495,-0.15474809160305342,45,268,568,4320
1644153334.6256616,-0.0133056640625,0.00897216796875,-0.98980712890625,-0.026351145038167822,0.2821068702290076,-0.032610687022900764,42,277,568,4320
1644153334.6736698,-0.012451171875,0.0084228515625,-0.9930419921875,0.019450381679389395,0.06836641221374046,-0.017343511450381682,51,274,571,4432
1644153334.7220113,-0.01239013671875,0.00811767578125,-0.99005126953125,-0.11795419847328237,0.3431755725190839,0.013190839694656495,48,276,569,4368
1644153334.7721567,-0.0086669921875,0.00787353515625,-0.99267578125,0.019450381679389395,0.32790839694656493,-0.09367938931297709,45,275,572,4304
1644153334.8672144,-0.01251220703125,0.00823974609375,-0.9903564453125,-0.056885496183205986,0.2973740458015267,0.104793893129771,54,280,568,4304
1644153334.9155717,-0.01348876953125,0.00927734375,-0.99151611328125,-0.04161832061068693,0.2973740458015267,-0.032610687022900764,51,269,564,4368
1644153334.9640388,-0.01129150390625,0.00927734375,-0.99053955078125,-0.22482442748091594,0.23630534351145038,0.028458015267175577,49,265,570,4304
1644153335.0123932,-0.0125732421875,0.00732421875,-0.99383544921875,0.21792366412213748,0.15996946564885495,-0.017343511450381682,52,273,577,4352
1644153335.0660555,-0.01434326171875,0.00921630859375,-0.9920654296875,-0.19429007633587778,0.20577099236641216,0.04372519083969466,47,270,570,4288
1644153335.109149,-0.01220703125,0.00927734375,-0.99407958984375,-0.16375572519083959,0.4500458015267176,-0.10894656488549617,53,279,569,4352
1644153335.157486,-0.01605224609375,0.0133056640625,-0.9927978515625,-0.19429007633587778,0.2668396946564886,-0.0020763358778626007,45,273,572,4416
1644153335.2058744,-0.01385498046875,0.00701904296875,-0.9915771484375,0.004183206106870341,0.2973740458015267,0.04372519083969466,46,276,562,4288
1644153335.2543457,-0.0128173828125,0.00726318359375,-0.9913330078125,-0.056885496183205986,0.17523664122137406,-0.017343511450381682,49,275,572,4320
1644153335.3026202,-0.0115966796875,0.00933837890625,-0.9910888671875,0.14158778625954205,0.35844274809160304,-0.06314503816793893,55,279,578,4368
1644153335.3509684,-0.0135498046875,0.00634765625,-0.9903564453125,-0.056885496183205986,0.3431755725190839,-0.07841221374045801,40,265,565,4320
1644153335.3993587,-0.01507568359375,0.00836181640625,-0.994384765625,-0.19429007633587778,0.2668396946564886,0.013190839694656495,51,279,571,4320
1644153335.447782,-0.01556396484375,0.0089111328125,-0.99334716796875,-0.16375572519083959,0.40424427480916025,-0.07841221374045801,52,268,577,4320
1644153335.4961314,-0.0107421875,0.00909423828125,-0.99285888671875,-0.056885496183205986,0.3126412213740458,0.15059541984732824,58,276,573,4352
1644153335.5445988,-0.0147705078125,0.010009765625,-0.99273681640625,0.034717557251908504,0.2668396946564886,-0.06314503816793893,58,269,569,4320
1644153335.59294,-0.01556396484375,0.0059814453125,-0.9920654296875,-0.056885496183205986,0.1905038167938931,0.07425954198473284,47,265,577,4400
1644153335.6413252,-0.01220703125,0.006103515625,-0.99200439453125,-0.11795419847328237,0.3126412213740458,0.12006106870229008,55,266,571,4352
1644153335.6897068,-0.01068115234375,0.00823974609375,-0.99114990234375,-0.11795419847328237,0.23630534351145038,0.028458015267175577,47,285,575,4368
1644153335.7380738,-0.0120849609375,0.00677490234375,-0.9932861328125,0.06525190839694661,0.32790839694656493,-0.09367938931297709,53,274,578,4320
1644153335.7864795,-0.014404296875,0.0084228515625,-0.99053955078125,-0.0874198473282442,0.22103816793893127,-0.17001526717557253,41,271,566,4288
1644153335.8351426,-0.01416015625,0.0103759765625,-0.994140625,0.04998473282442756,0.2668396946564886,0.028458015267175577,54,275,572,4352
1644153335.884115,-0.01324462890625,0.00970458984375,-0.9937744140625,0.06525190839694661,0.23630534351145038,-0.10894656488549617,47,268,572,4304
1644153335.9342592,-0.01055908203125,0.00750732421875,-0.99517822265625,-0.1790229007633587,0.2668396946564886,0.08952671755725192,47,268,570,4288
1644153336.028424,-0.00933837890625,0.00592041015625,-0.9903564453125,-0.056885496183205986,0.2821068702290076,0.08952671755725192,42,275,584,4352
1644153336.077743,-0.0111083984375,0.0076904296875,-0.99395751953125,0.004183206106870341,0.35844274809160304,0.04372519083969466,61,270,570,4352
1644153336.1252685,-0.01434326171875,0.00836181640625,-0.9925537109375,-0.011083969465648769,0.3126412213740458,-0.07841221374045801,54,268,577,4368
1644153336.1736088,-0.01312255859375,0.00701904296875,-0.99273681640625,-0.25535877862595413,0.2821068702290076,0.104793893129771,48,274,566,4320
1644153336.2219813,-0.0140380859375,0.00787353515625,-0.99493408203125,0.019450381679389395,0.2821068702290076,-0.032610687022900764,60,276,569,4368
1644153336.2703755,-0.01177978515625,0.00775146484375,-0.99053955078125,0.034717557251908504,0.41951145038167936,0.04372519083969466,55,271,573,4320
1644153336.3187728,-0.013427734375,0.0086669921875,-0.9930419921875,-0.0721526717557251,0.37370992366412215,-0.09367938931297709,53,269,576,4320
1644153336.367109,-0.01226806640625,0.0096435546875,-0.99090576171875,-0.0721526717557251,0.3431755725190839,-0.017343511450381682,45,265,565,4352
1644153336.4154813,-0.01251220703125,0.00567626953125,-0.9925537109375,-0.20955725190839686,0.38897709923664125,0.13532824427480916,47,275,565,4256
1644153336.4639137,-0.01153564453125,0.00726318359375,-0.99273681640625,0.20265648854961837,0.17523664122137406,-0.017343511450381682,53,266,578,4352
1644153336.512321,-0.01470947265625,0.00885009765625,-0.9945068359375,-0.04161832061068693,0.12943511450381678,0.1811297709923664,49,273,572,4352
1644153336.5606532,-0.0135498046875,0.00836181640625,-0.9940185546875,-0.011083969465648769,0.20577099236641216,-0.06314503816793893,47,273,565,4320
1644153336.6090758,-0.0142822265625,0.00848388671875,-0.9910888671875,-0.13322137404580142,0.32790839694656493,-0.0020763358778626007,46,266,569,4320
1644153336.657459,-0.01202392578125,0.00726318359375,-0.993408203125,-0.011083969465648769,0.37370992366412215,-0.0020763358778626007,59,270,579,4352
1644153336.7058733,-0.01416015625,0.00531005859375,-0.99224853515625,0.04998473282442756,0.22103816793893127,0.013190839694656495,52,282,577,4368
1644153336.7542026,-0.012451171875,0.00921630859375,-0.98809814453125,-0.026351145038167822,0.22103816793893127,-0.047877862595419846,46,279,569,4320
1644153336.8126507,-0.01116943359375,0.00537109375,-0.99188232421875,-0.0721526717557251,0.35844274809160304,0.013190839694656495,53,274,578,4352
1644153336.8509762,-0.0130615234375,0.00750732421875,-0.992431640625,-0.10268702290076326,0.3126412213740458,0.13532824427480916,57,270,582,4320
1644153336.8992965,-0.01153564453125,0.00830078125,-0.9949951171875,-0.026351145038167822,0.32790839694656493,-0.13948091603053436,51,274,576,4368
1644153336.9476838,-0.01422119140625,0.0078125,-0.99102783203125,-0.1790229007633587,0.2821068702290076,-0.06314503816793893,57,280,563,4368
1644153336.99637,-0.01239013671875,0.00799560546875,-0.991943359375,-0.011083969465648769,0.3431755725190839,-0.047877862595419846,51,271,573,4304
1644153337.0588512,-0.01263427734375,0.00396728515625,-0.993408203125,0.019450381679389395,0.22103816793893127,-0.06314503816793893,48,279,569,4400
1644153337.1412249,-0.01519775390625,0.00689697265625,-0.99481201171875,-0.056885496183205986,0.32790839694656493,0.07425954198473284,53,266,569,4368
1644153337.1896274,-0.01300048828125,0.00872802734375,-0.99090576171875,-0.10268702290076326,0.2973740458015267,-0.032610687022900764,47,260,572,4368
1644153337.2379687,-0.0079345703125,0.00726318359375,-0.99041748046875,-0.10268702290076326,0.2821068702290076,0.028458015267175577,55,279,564,4288
1644153337.2863538,-0.0133056640625,0.00823974609375,-0.992919921875,0.06525190839694661,0.32790839694656493,-0.0020763358778626007,41,264,569,4320
1644153337.3347883,-0.01214599609375,0.01092529296875,-0.9912109375,0.09578625954198483,0.2515725190839695,-0.032610687022900764,54,275,565,4352
1644153337.3831768,-0.01220703125,0.0067138671875,-0.99249267578125,-0.04161832061068693,0.22103816793893127,-0.12421374045801525,48,269,571,4352
1644153337.43155,-0.01239013671875,0.0101318359375,-0.9912109375,0.019450381679389395,0.2821068702290076,-0.12421374045801525,48,264,569,4352
1644153337.4799283,-0.01312255859375,0.00689697265625,-0.99053955078125,-0.1790229007633587,0.22103816793893127,0.028458015267175577,42,270,568,4288
1644153337.5283246,-0.01275634765625,0.00726318359375,-0.99200439453125,-0.19429007633587778,0.1905038167938931,-0.07841221374045801,53,271,559,4320
1644153337.576737,-0.0128173828125,0.009765625,-0.9923095703125,-0.11795419847328237,0.2821068702290076,-0.12421374045801525,53,271,573,4368
1644153337.6251974,-0.01629638671875,0.00994873046875,-0.9906005859375,-0.0874198473282442,0.1905038167938931,0.028458015267175577,52,275,575,4352
1644153337.6735296,-0.01446533203125,0.0087890625,-0.99237060546875,0.04998473282442756,0.23630534351145038,-0.06314503816793893,49,273,570,4352
1644153337.7219417,-0.01446533203125,0.007080078125,-0.99346923828125,0.004183206106870341,0.41951145038167936,0.04372519083969466,53,274,569,4368
1644153337.7702792,-0.0101318359375,0.0081787109375,-0.99237060546875,-0.04161832061068693,0.1447022900763359,-0.0020763358778626007,54,268,575,4320
1644153337.8186734,-0.0135498046875,0.01031494140625,-0.99169921875,-0.10268702290076326,0.2668396946564886,-0.017343511450381682,43,274,569,4320
1644153337.8670928,-0.01336669921875,0.01025390625,-0.99298095703125,-0.1790229007633587,0.35844274809160304,-0.10894656488549617,43,279,564,4320
1644153337.915501,-0.0133056640625,0.0062255859375,-0.9908447265625,-0.04161832061068693,0.2821068702290076,-0.07841221374045801,43,264,580,4368
1644153337.9637995,-0.01031494140625,0.0076904296875,-0.9918212890625,0.04998473282442756,0.08363358778625957,-0.09367938931297709,47,277,572,4368
1644153338.0658538,-0.0103759765625,0.00921630859375,-0.99176025390625,-0.011083969465648769,0.1905038167938931,0.08952671755725192,55,266,583,4320
1644153338.1089365,-0.01275634765625,0.0068359375,-0.99359130859375,-0.0874198473282442,0.23630534351145038,0.104793893129771,54,265,568,4320
1644153338.1573536,-0.01171875,0.00909423828125,-0.992431640625,-0.11795419847328237,0.2515725190839695,-0.13948091603053436,43,271,573,4352
1644153338.205745,-0.01153564453125,0.01123046875,-0.99114990234375,-0.10268702290076326,0.2515725190839695,0.05899236641221374,53,266,569,4368
1644153338.2541153,-0.01348876953125,0.0086669921875,-0.993896484375,-0.14848854961832053,0.09890076335877862,0.013190839694656495,52,273,577,4368
1644153338.3025217,-0.0135498046875,0.0059814453125,-0.99444580078125,0.019450381679389395,0.2973740458015267,-0.017343511450381682,48,276,569,4368
1644153338.350935,-0.01409912109375,0.00732421875,-0.99224853515625,-0.14848854961832053,0.37370992366412215,0.028458015267175577,51,264,566,4320
1644153338.3993323,-0.01275634765625,0.007080078125,-0.9888916015625,-0.04161832061068693,0.20577099236641216,0.013190839694656495,39,271,559,4320
1644153338.4476957,-0.01409912109375,0.005615234375,-0.99249267578125,0.004183206106870341,0.2668396946564886,-0.06314503816793893,51,269,580,4352
1644153338.495993,-0.01434326171875,0.0103759765625,-0.99139404296875,-0.011083969465648769,0.2821068702290076,-0.10894656488549617,46,266,576,4320
1644153338.5443654,-0.01373291015625,0.0089111328125,-0.993408203125,-0.0721526717557251,0.23630534351145038,0.028458015267175577,42,277,577,4368
1644153338.5927925,-0.014404296875,0.007568359375,-0.9910888671875,0.004183206106870341,0.3431755725190839,-0.15474809160305342,52,268,584,4288
1644153338.6411738,-0.01318359375,0.0081787109375,-0.991943359375,-0.0721526717557251,0.23630534351145038,0.07425954198473284,53,274,580,4320
1644153338.689559,-0.0120849609375,0.00982666015625,-0.9898681640625,-0.10268702290076326,0.2668396946564886,-0.07841221374045801,46,276,576,4400
1644153338.7379274,-0.0140380859375,0.00921630859375,-0.99151611328125,0.09578625954198483,0.22103816793893127,-0.017343511450381682,49,275,568,4320
1644153338.7863226,-0.01153564453125,0.00885009765625,-0.98968505859375,-0.04161832061068693,0.35844274809160304,0.04372519083969466,46,276,564,4304
1644153338.834701,-0.01617431640625,0.00994873046875,-0.9927978515625,-0.1790229007633587,0.2973740458015267,0.16586259541984733,51,264,580,4320
1644153338.8830853,-0.01422119140625,0.0062255859375,-0.99169921875,-0.0721526717557251,0.2821068702290076,0.104793893129771,54,273,568,4368
1644153338.9317067,-0.01220703125,0.00823974609375,-0.99298095703125,-0.056885496183205986,0.15996946564885495,-0.07841221374045801,48,281,573,4368
1644153338.9820192,-0.0140380859375,0.0076904296875,-0.98907470703125,0.034717557251908504,0.2973740458015267,-0.13948091603053436,48,279,573,4304
1644153339.0765827,-0.0108642578125,0.0089111328125,-0.9927978515625,-0.11795419847328237,0.20577099236641216,0.07425954198473284,51,279,569,4320
1644153339.125091,-0.011962890625,0.0098876953125,-0.9923095703125,-0.0721526717557251,0.20577099236641216,-0.017343511450381682,47,268,577,4288
1644153339.1733484,-0.01263427734375,0.00567626953125,-0.99090576171875,-0.16375572519083959,0.20577099236641216,0.013190839694656495,58,274,564,4368
1644153339.2218118,-0.01416015625,0.0106201171875,-0.9912109375,-0.056885496183205986,0.2668396946564886,-0.017343511450381682,43,271,569,4368
1644153339.270174,-0.01165771484375,0.00823974609375,-0.992431640625,0.004183206106870341,0.23630534351145038,-0.017343511450381682,54,275,572,4352
1644153339.3185782,-0.012939453125,0.00579833984375,-0.99237060546875,-0.04161832061068693,0.2515725190839695,0.08952671755725192,48,274,569,4368
1644153339.3669906,-0.01318359375,0.0059814453125,-0.9930419921875,0.004183206106870341,0.23630534351145038,0.08952671755725192,48,283,573,4320
1644153339.415402,-0.0133056640625,0.00714111328125,-0.991943359375,-0.0721526717557251,0.2668396946564886,0.07425954198473284,43,271,566,4320
1644153339.463771,-0.0135498046875,0.008544921875,-0.993408203125,-0.0721526717557251,0.2515725190839695,-0.032610687022900764,54,273,565,4368
1644153339.5123556,-0.01336669921875,0.00701904296875,-0.99371337890625,-0.14848854961832053,0.1905038167938931,-0.07841221374045801,54,273,561,4304
1644153339.5605626,-0.0113525390625,0.006103515625,-0.992431640625,-0.026351145038167822,0.22103816793893127,0.104793893129771,47,273,568,4352
1644153339.608943,-0.01092529296875,0.00689697265625,-0.990234375,0.06525190839694661,0.1905038167938931,0.104793893129771,43,286,571,4320
1644153339.6573246,-0.0120849609375,0.01019287109375,-0.99005126953125,0.019450381679389395,0.2668396946564886,0.05899236641221374,53,276,566,4400
1644153339.7056508,-0.01177978515625,0.0078125,-0.992431640625,-0.13322137404580142,0.17523664122137406,-0.17001526717557253,55,271,573,4368
1644153339.7540553,-0.012939453125,0.008544921875,-0.99365234375,-0.026351145038167822,0.1905038167938931,0.04372519083969466,53,271,578,4320
1644153339.8024175,-0.01190185546875,0.009765625,-0.99249267578125,-0.11795419847328237,0.09890076335877862,0.013190839694656495,47,268,570,4432
1644153339.8508189,-0.01519775390625,0.00897216796875,-0.99267578125,-0.25535877862595413,0.3431755725190839,-0.06314503816793893,48,269,564,4320
1644153339.8992062,-0.00994873046875,0.007080078125,-0.990966796875,-0.0721526717557251,0.2973740458015267,-0.0020763358778626007,58,269,564,4352
1644153339.9966376,-0.01220703125,0.01025390625,-0.99310302734375,-0.056885496183205986,0.15996946564885495,-0.017343511450381682,58,266,578,4368
1644153340.044829,-0.0111083984375,0.0078125,-0.99432373046875,-0.13322137404580142,0.3431755725190839,0.028458015267175577,57,277,577,4368
1644153340.0951693,-0.01318359375,0.00811767578125,-0.99114990234375,-0.20955725190839686,0.1905038167938931,-0.07841221374045801,49,275,579,4400
1644153340.1410995,-0.0120849609375,0.00738525390625,-0.9932861328125,0.019450381679389395,0.3431755725190839,0.07425954198473284,62,276,573,4320
1644153340.1894858,-0.010498046875,0.0091552734375,-0.991455078125,-0.0721526717557251,0.32790839694656493,-0.07841221374045801,46,271,573,4368
1644153340.2378802,-0.013427734375,0.01007080078125,-0.99383544921875,-0.011083969465648769,0.3126412213740458,0.104793893129771,45,270,568,4352
1644153340.2862196,-0.013671875,0.00732421875,-0.9915771484375,-0.011083969465648769,0.20577099236641216,0.08952671755725192,43,262,573,4352
1644153340.3346498,-0.01318359375,0.00933837890625,-0.99298095703125,0.09578625954198483,0.20577099236641216,-0.047877862595419846,51,262,564,4432
1644153340.3830252,-0.0140380859375,0.007568359375,-0.99090576171875,-0.1790229007633587,0.22103816793893127,-0.07841221374045801,46,264,569,4352
1644153340.4313684,-0.013427734375,0.00775146484375,-0.98944091796875,0.019450381679389395,0.22103816793893127,0.05899236641221374,52,277,570,4352
1644153340.4797738,-0.01129150390625,0.010009765625,-0.98944091796875,-0.16375572519083959,0.1905038167938931,0.028458015267175577,53,271,583,4320
1644153340.528181,-0.01019287109375,0.00830078125,-0.99066162109375,-0.0874198473282442,0.38897709923664125,-0.13948091603053436,59,277,570,4304
1644153340.5765555,-0.01483154296875,0.00872802734375,-0.99090576171875,-0.14848854961832053,0.32790839694656493,0.013190839694656495,52,275,572,4288
1644153340.6249108,-0.01397705078125,0.0084228515625,-0.99163818359375,-0.14848854961832053,0.2515725190839695,0.104793893129771,43,274,571,4400
1644153340.6733062,-0.014404296875,0.00933837890625,-0.99359130859375,0.004183206106870341,0.2515725190839695,-0.047877862595419846,51,271,583,4320
1644153340.7216904,-0.01513671875,0.0093994140625,-0.99334716796875,0.004183206106870341,0.2821068702290076,-0.032610687022900764,49,268,565,4304
1644153340.7712266,-0.01348876953125,0.00750732421875,-0.992919921875,-0.10268702290076326,0.1905038167938931,0.05899236641221374,48,266,569,4288
1644153340.8668692,-0.0167236328125,0.00579833984375,-0.99200439453125,-0.011083969465648769,0.23630534351145038,-0.07841221374045801,66,277,582,4320
1644153340.9153407,-0.01531982421875,0.0069580078125,-0.99383544921875,-0.056885496183205986,0.35844274809160304,-0.047877862595419846,45,275,572,4304
1644153340.963691,-0.01513671875,0.0101318359375,-0.994384765625,-0.04161832061068693,0.1905038167938931,0.104793893129771,46,276,573,4320
1644153341.0120542,-0.01263427734375,0.0096435546875,-0.9908447265625,-0.056885496183205986,0.35844274809160304,-0.047877862595419846,53,269,576,4352
1644153341.0653377,-0.0133056640625,0.00665283203125,-0.9959716796875,-0.14848854961832053,0.2515725190839695,-0.13948091603053436,52,273,572,4304
1644153341.108787,-0.01324462890625,0.0067138671875,-0.9913330078125,0.034717557251908504,0.2821068702290076,0.12006106870229008,46,269,576,4368
1644153341.1571832,-0.0130615234375,0.00946044921875,-0.9921875,0.034717557251908504,0.22103816793893127,-0.047877862595419846,57,270,568,4320
1644153341.2055616,-0.0140380859375,0.00799560546875,-0.99298095703125,-0.10268702290076326,0.2515725190839695,-0.032610687022900764,58,271,571,4304
1644153341.2539217,-0.01068115234375,0.00927734375,-0.9915771484375,-0.13322137404580142,0.15996946564885495,0.04372519083969466,51,279,578,4352
1644153341.3023171,-0.0101318359375,0.0101318359375,-0.99176025390625,-0.0721526717557251,0.32790839694656493,0.05899236641221374,45,275,563,4288
1644153341.3507226,-0.009765625,0.00714111328125,-0.99127197265625,-0.026351145038167822,0.1905038167938931,0.028458015267175577,49,275,575,4320
1644153341.3990998,-0.0115966796875,0.00762939453125,-0.99334716796875,0.034717557251908504,0.2821068702290076,0.028458015267175577,49,270,568,4368
1644153341.4474971,-0.0118408203125,0.01025390625,-0.99285888671875,-0.04161832061068693,0.2821068702290076,0.04372519083969466,60,271,571,4352
1644153341.4958234,-0.0130615234375,0.00927734375,-0.99359130859375,-0.0874198473282442,0.2515725190839695,-0.2768854961832061,51,269,580,4416
1644153341.5442579,-0.0140380859375,0.007568359375,-0.994873046875,-0.11795419847328237,0.23630534351145038,-0.047877862595419846,54,270,584,4320
1644153341.592673,-0.0096435546875,0.008056640625,-0.99176025390625,-0.056885496183205986,0.20577099236641216,-0.0020763358778626007,51,274,576,4304
1644153341.6411622,-0.0137939453125,0.008544921875,-0.98992919921875,-0.0874198473282442,0.37370992366412215,-0.0020763358778626007,48,271,578,4352
