epoch,acc_x,acc_y,acc_z,rot_x,rot_y,rot_z,mag_x,mag_y,mag_z,temp
1644154500.066452,-0.013062,0.008118,-0.991394,0.266656,0.478168,-0.039389,46,281,578,4592
1644154500.102089,-0.012207,0.008606,-0.990601,0.35826,0.508702,-0.008855,52,265,577,4672
1644154500.150488,-0.011658,0.010132,-0.992126,0.236122,0.508702,-0.222595,52,270,577,4640
1644154500.198888,-0.01062,0.008423,-0.991089,0.113985,0.386565,-0.008855,45,273,575,4720
1644154500.247208,-0.010193,0.008606,-0.994324,0.266656,0.569771,-0.085191,54,268,558,4640
1644154500.295652,-0.010071,0.009399,-0.994873,0.236122,0.417099,-0.100458,57,263,575,4656
1644154500.344058,-0.01239,0.008728,-0.991455,0.144519,0.340763,-0.024122,40,270,579,4656
1644154500.392406,-0.012817,0.007996,-0.992371,0.175053,0.340763,-0.115725,58,274,578,4592
1644154500.44079,-0.011292,0.010986,-0.994568,0.35826,0.371298,-0.039389,49,268,572,4608
1644154500.489392,-0.012695,0.009216,-0.993774,0.327725,0.447634,0.082748,49,265,582,4592
1644154500.537596,-0.008911,0.009888,-0.991211,0.297191,0.462901,0.098015,55,271,566,4768
1644154500.585978,-0.006958,0.009888,-0.992065,0.312458,0.523969,-0.024122,43,274,569,4656
1644154500.634351,-0.011963,0.009094,-0.993774,0.190321,0.233893,-0.192061,48,259,580,4608
1644154500.682712,-0.011536,0.009949,-0.994446,0.220855,0.493435,0.036947,46,274,564,4656
1644154500.732199,-0.008606,0.006714,-0.993958,0.281924,0.447634,-0.161527,41,269,571,4608
1644154500.779744,-0.010437,0.009277,-0.992981,0.297191,0.386565,-0.222595,47,280,577,4608
1644154500.876274,-0.012634,0.009033,-0.991577,0.190321,0.417099,-0.039389,47,275,568,4656
1644154500.924693,-0.013123,0.00885,-0.991455,0.266656,0.432366,-0.192061,43,264,564,4656
1644154500.973079,-0.009888,0.006226,-0.994202,0.220855,0.386565,-0.14626,58,269,576,4704
1644154501.02144,-0.012329,0.005005,-0.991943,0.129252,0.432366,-0.192061,46,279,566,4656
1644154501.069884,-0.012512,0.008118,-0.990784,0.312458,0.432366,-0.115725,46,279,569,4608
1644154501.11819,-0.009888,0.007141,-0.990784,0.373527,0.356031,-0.039389,45,273,572,4656
1644154501.166601,-0.010925,0.006836,-0.98999,0.312458,0.432366,-0.115725,52,275,565,4608
1644154501.21505,-0.011963,0.008057,-0.993835,0.251389,0.508702,-0.024122,54,273,577,4672
1644154501.263368,-0.009827,0.009338,-0.994263,0.35826,0.401832,-0.100458,35,275,565,4656
1644154501.311733,-0.010559,0.01001,-0.98999,0.297191,0.371298,0.021679,53,269,569,4656
1644154501.360176,-0.00885,0.01062,-0.99054,0.220855,0.508702,-0.14626,52,277,572,4640
1644154501.408504,-0.013184,0.006775,-0.991028,0.419328,0.356031,-0.298931,61,280,572,4672
1644154501.456944,-0.013428,0.01001,-0.991333,0.373527,0.462901,-0.176794,47,277,577,4672
1644154501.505277,-0.013123,0.008118,-0.991516,0.205588,0.447634,-0.100458,46,274,564,4592
1644154501.553712,-0.010071,0.009338,-0.990479,0.190321,0.417099,-0.008855,46,281,566,4592
1644154501.602048,-0.012024,0.00885,-0.992554,0.327725,0.478168,-0.054656,57,270,565,4672
1644154501.650467,-0.013855,0.009155,-0.990845,0.404061,0.523969,0.006412,49,270,577,4656
1644154501.6988,-0.009033,0.010254,-0.993103,0.327725,0.417099,-0.130992,51,271,566,4656
1644154501.747227,-0.009399,0.008118,-0.99176,0.434595,0.371298,0.006412,55,266,573,4656
1644154501.795635,-0.012451,0.007629,-0.992676,0.190321,0.478168,-0.008855,52,273,563,4592
1644154501.845207,-0.010071,0.009094,-0.992554,0.144519,0.417099,0.021679,43,264,566,4672
1644154501.89557,-0.012512,0.009644,-0.993042,0.236122,0.478168,-0.192061,46,271,566,4672
1644154501.989175,-0.010376,0.009521,-0.992188,0.281924,0.585038,-0.024122,47,268,575,4672
1644154502.037535,-0.01123,0.009399,-0.994202,0.281924,0.310229,-0.115725,49,265,570,4656
1644154502.087684,-0.011902,0.007935,-0.992432,0.35826,0.478168,-0.115725,43,264,569,4656
1644154502.134297,-0.011841,0.007385,-0.990173,0.434595,0.478168,-0.222595,57,258,568,4544
1644154502.182715,-0.009888,0.009583,-0.992004,0.037649,0.371298,-0.039389,40,270,568,4656
1644154502.231059,-0.010742,0.00824,-0.992554,0.419328,0.493435,-0.085191,53,269,559,4640
1644154502.27942,-0.013428,0.009033,-0.991028,0.205588,0.493435,-0.085191,46,281,571,4592
1644154502.327836,-0.015076,0.007019,-0.992371,0.419328,0.569771,-0.085191,48,269,564,4592
1644154502.376213,-0.010681,0.009216,-0.991455,0.190321,0.447634,-0.024122,49,273,572,4672
1644154502.424628,-0.01178,0.008606,-0.99054,0.281924,0.356031,0.067481,36,271,569,4592
1644154502.473002,-0.01062,0.011414,-0.991699,0.236122,0.447634,-0.130992,47,270,572,4672
1644154502.521367,-0.010742,0.006348,-0.99115,0.220855,0.462901,-0.069924,57,270,572,4656
1644154502.569738,-0.008606,0.007202,-0.993164,0.236122,0.356031,-0.008855,53,274,571,4656
1644154502.618154,-0.011475,0.008545,-0.990173,0.129252,0.417099,-0.115725,53,271,569,4656
1644154502.666556,-0.011902,0.00769,-0.988953,0.297191,0.462901,-0.085191,48,276,564,4704
1644154502.714933,-0.011292,0.009644,-0.991394,0.220855,0.462901,0.021679,53,283,576,4768
1644154502.763293,-0.010925,0.008606,-0.99231,0.404061,0.401832,-0.161527,48,271,569,4656
1644154502.811712,-0.012268,0.008728,-0.99176,0.266656,0.401832,-0.115725,43,276,571,4704
1644154502.860112,-0.00946,0.011292,-0.992737,0.236122,0.356031,-0.100458,48,262,566,4672
1644154502.908496,-0.010254,0.00946,-0.991943,0.312458,0.356031,-0.25313,49,268,572,4608
1644154502.957439,-0.009094,0.010925,-0.990234,0.281924,0.432366,0.006412,49,268,572,4656
1644154503.064107,-0.012817,0.007507,-0.993591,0.266656,0.462901,-0.069924,49,268,579,4672
1644154503.102012,-0.012512,0.007996,-0.991577,0.35826,0.417099,-0.085191,55,266,569,4656
1644154503.150452,-0.010681,0.008789,-0.992554,0.373527,0.432366,0.036947,48,266,573,4720
1644154503.198827,-0.012573,0.006531,-0.991333,0.388794,0.264427,-0.054656,48,271,564,4640
1644154503.247211,-0.014099,0.008545,-0.994934,0.266656,0.432366,-0.039389,57,270,572,4608
1644154503.295598,-0.01001,0.010681,-0.992371,0.373527,0.462901,0.082748,41,266,571,4592
1644154503.34398,-0.010559,0.006897,-0.99054,0.266656,0.478168,-0.298931,57,273,570,4656
1644154503.392387,-0.010437,0.009399,-0.991089,0.327725,0.523969,-0.14626,46,271,576,4656
1644154503.440772,-0.013428,0.00885,-0.99176,0.236122,0.340763,0.006412,45,268,572,4608
1644154503.489384,-0.012939,0.007996,-0.989502,0.434595,0.310229,-0.176794,47,273,582,4672
1644154503.537539,-0.012024,0.01123,-0.990662,0.236122,0.462901,0.006412,49,268,570,4608
1644154503.585924,-0.011353,0.009644,-0.990723,0.236122,0.417099,-0.100458,57,270,568,4592
1644154503.634287,-0.009766,0.009033,-0.990845,0.236122,0.371298,-0.14626,53,269,566,4672
1644154503.682691,-0.00946,0.008179,-0.993225,0.281924,0.417099,0.098015,49,277,572,4672
1644154503.731065,-0.011169,0.009277,-0.991333,0.159786,0.432366,-0.130992,47,273,572,4672
1644154503.780436,-0.009766,0.00824,-0.992981,0.327725,0.447634,-0.054656,48,274,576,4608
1644154503.830813,-0.012329,0.005371,-0.991333,0.327725,0.417099,-0.085191,38,268,572,4656
1644154503.924773,-0.011719,0.008118,-0.993164,0.35826,0.371298,-0.115725,49,258,565,4608
1644154503.97303,-0.012939,0.008301,-0.991516,0.312458,0.310229,-0.054656,55,274,573,4672
1644154504.021369,-0.013367,0.008423,-0.990662,0.175053,0.493435,0.036947,51,259,566,4672
1644154504.069823,-0.014282,0.010864,-0.989075,0.327725,0.325496,-0.008855,48,276,573,4672
1644154504.118152,-0.009521,0.009277,-0.990723,0.419328,0.554504,-0.237863,46,271,569,4672
1644154504.166494,-0.012756,0.007996,-0.991455,0.068183,0.356031,0.113282,42,273,565,4640
1644154504.214897,-0.008484,0.009644,-0.991028,0.190321,0.539237,0.021679,43,269,566,4592
1644154504.263256,-0.011414,0.009338,-0.992065,0.388794,0.325496,0.052214,53,283,571,4672
1644154504.311638,-0.013245,0.007263,-0.992615,0.113985,0.447634,0.067481,55,269,566,4592
1644154504.360063,-0.011963,0.006287,-0.994202,0.266656,0.310229,-0.161527,51,279,573,4608
1644154504.408417,-0.015808,0.009094,-0.99176,0.480397,0.478168,-0.039389,49,277,570,4592
1644154504.456801,-0.013245,0.01001,-0.994507,0.434595,0.462901,-0.192061,48,274,571,4656
1644154504.505264,-0.012146,0.009338,-0.993469,0.404061,0.371298,-0.039389,52,265,572,4608
1644154504.553608,-0.011658,0.006226,-0.989563,0.373527,0.462901,-0.085191,46,279,573,4592
1644154504.60199,-0.012817,0.008423,-0.989929,0.281924,0.356031,-0.176794,51,271,562,4704
1644154504.650382,-0.012268,0.009521,-0.99054,0.419328,0.401832,0.143817,48,283,576,4656
1644154504.698762,-0.014343,0.008423,-0.992981,0.281924,0.462901,-0.176794,43,271,578,4576
1644154504.747132,-0.014465,0.00824,-0.992432,0.327725,0.432366,-0.100458,52,280,577,4656
1644154504.795536,-0.012024,0.006714,-0.992981,0.236122,0.371298,-0.069924,46,271,564,4608
1644154504.843913,-0.011658,0.010864,-0.991028,0.236122,0.447634,0.098015,52,273,570,4672
1644154504.892506,-0.011353,0.007202,-0.99408,0.419328,0.478168,-0.069924,42,263,565,4656
1644154504.94278,-0.011292,0.009033,-0.992249,0.159786,0.371298,-0.008855,57,270,570,4704
1644154504.990264,-0.011108,0.010986,-0.991272,0.190321,0.417099,-0.054656,54,275,568,4672
1644154505.085818,-0.010315,0.008789,-0.993225,0.022382,0.432366,-0.115725,59,268,561,4656
1644154505.134258,-0.012329,0.011292,-0.991272,0.251389,0.325496,-0.054656,49,263,575,4672
1644154505.182614,-0.010376,0.009155,-0.993652,0.251389,0.478168,-0.100458,43,264,566,4576
1644154505.231011,-0.011169,0.008789,-0.994934,0.220855,0.432366,-0.024122,51,274,573,4672
1644154505.27937,-0.012939,0.007629,-0.99353,0.266656,0.432366,-0.039389,51,274,576,4640
1644154505.327761,-0.009888,0.008728,-0.991577,0.327725,0.417099,-0.054656,52,275,565,4672
1644154505.376182,-0.010681,0.011658,-0.988037,0.373527,0.493435,-0.130992,52,273,575,4608
1644154505.424605,-0.009949,0.009766,-0.990967,0.266656,0.508702,-0.268397,41,269,564,4640
1644154505.47293,-0.013306,0.00946,-0.993713,0.281924,0.371298,-0.039389,48,281,571,4656
1644154505.52128,-0.009888,0.008362,-0.992065,0.175053,0.569771,-0.069924,46,271,573,4656
1644154505.569719,-0.011963,0.00769,-0.992615,0.144519,0.447634,-0.085191,47,280,568,4592
1644154505.618106,-0.013184,0.007263,-0.990845,0.266656,0.447634,-0.176794,46,269,566,4720
1644154505.666497,-0.011353,0.011719,-0.990479,0.220855,0.417099,0.021679,51,276,562,4640
1644154505.714877,-0.010437,0.007324,-0.991821,0.236122,0.569771,-0.161527,53,271,562,4704
1644154505.763235,-0.009216,0.00769,-0.991699,0.144519,0.401832,-0.207328,49,270,570,4672
1644154505.811655,-0.011292,0.008362,-0.992554,0.190321,0.478168,-0.085191,49,275,577,4592
1644154505.860055,-0.013611,0.006714,-0.993042,0.190321,0.401832,-0.069924,40,270,579,4656
1644154505.908471,-0.012451,0.007141,-0.990417,0.159786,0.478168,-0.130992,48,271,573,4640
1644154505.956769,-0.00946,0.007446,-0.994873,0.190321,0.539237,-0.222595,52,280,568,4672
1644154506.005271,-0.011047,0.008057,-0.993347,0.312458,0.340763,-0.039389,57,270,570,4592
1644154506.079227,-0.010864,0.007019,-0.991211,0.388794,0.523969,-0.192061,55,271,578,4704
1644154506.103988,-0.011658,0.007446,-0.994263,0.190321,0.401832,0.021679,42,277,577,4640
1644154506.15157,-0.013,0.010437,-0.992004,0.144519,0.417099,-0.054656,48,274,580,4592
1644154506.247117,-0.013245,0.009827,-0.990662,0.373527,0.478168,-0.069924,36,271,569,4720
1644154506.295492,-0.01178,0.00769,-0.992126,0.312458,0.294962,-0.130992,43,274,573,4656
1644154506.343879,-0.012634,0.006165,-0.992188,0.098718,0.508702,-0.115725,48,269,566,4608
1644154506.392324,-0.011292,0.007019,-0.992798,0.144519,0.371298,-0.176794,48,269,566,4608
1644154506.44067,-0.01178,0.007935,-0.99115,0.327725,0.310229,-0.130992,48,264,571,4672
1644154506.48932,-0.009033,0.008179,-0.991089,0.419328,0.401832,-0.024122,39,266,569,4656
1644154506.537418,-0.011353,0.011414,-0.99353,0.236122,0.401832,-0.054656,46,271,569,4656
1644154506.585804,-0.011902,0.007996,-0.99408,0.373527,0.386565,-0.115725,54,268,572,4608
1644154506.634221,-0.013184,0.009949,-0.990295,0.251389,0.401832,-0.161527,57,265,570,4768
1644154506.682601,-0.01062,0.008972,-0.992004,0.251389,0.310229,-0.161527,43,276,571,4656
1644154506.730993,-0.011719,0.005188,-0.990784,0.342992,0.371298,-0.130992,49,268,565,4576
1644154506.779331,-0.013977,0.008423,-0.992188,0.297191,0.462901,0.052214,51,271,569,4608
1644154506.827765,-0.01062,0.006653,-0.991516,0.175053,0.371298,-0.130992,48,269,559,4592
1644154506.876165,-0.014099,0.007263,-0.992859,0.281924,0.478168,-0.100458,52,270,582,4656
1644154506.924563,-0.010925,0.008789,-0.993225,0.327725,0.417099,-0.207328,51,264,569,4672
1644154506.972918,-0.012024,0.009094,-0.991272,0.113985,0.401832,-0.069924,49,275,570,4608
1644154507.021338,-0.014526,0.010071,-0.993469,0.220855,0.539237,-0.100458,49,268,577,4752
1644154507.075675,-0.008057,0.008911,-0.996643,0.190321,0.447634,-0.25313,58,281,576,4608
1644154507.119039,-0.010925,0.008301,-0.991455,0.266656,0.462901,-0.130992,51,274,573,4576
1644154507.16651,-0.012451,0.010071,-0.99408,0.281924,0.401832,-0.207328,53,269,559,4640
1644154507.263285,-0.012756,0.010193,-0.992126,0.297191,0.401832,-0.039389,53,283,562,4608
1644154507.311637,-0.011475,0.009705,-0.991333,0.220855,0.447634,-0.222595,47,282,565,4704
1644154507.360044,-0.009888,0.010864,-0.990906,0.266656,0.310229,-0.069924,45,268,572,4768
1644154507.40837,-0.012878,0.010254,-0.991638,0.312458,0.401832,-0.130992,48,271,573,4672
1644154507.456769,-0.011292,0.007568,-0.990662,0.175053,0.356031,-0.069924,39,274,569,4608
1644154507.505221,-0.011719,0.008484,-0.99353,0.159786,0.386565,-0.100458,46,271,573,4656
1644154507.553599,-0.01239,0.005981,-0.989014,0.175053,0.417099,-0.14626,49,270,570,4592
1644154507.601988,-0.011292,0.008057,-0.990417,0.312458,0.462901,-0.100458,49,270,568,4608
1644154507.650383,-0.010193,0.009155,-0.991333,0.129252,0.462901,-0.024122,51,274,569,4592
1644154507.698741,-0.009705,0.008484,-0.991394,0.251389,0.340763,-0.14626,55,271,569,4704
1644154507.747125,-0.011353,0.009338,-0.993713,0.342992,0.508702,-0.130992,40,265,577,4784
1644154507.795538,-0.011536,0.00885,-0.992004,0.144519,0.371298,-0.008855,47,265,568,4672
1644154507.843913,-0.012695,0.007568,-0.992432,0.175053,0.371298,-0.100458,47,275,570,4592
1644154507.892297,-0.011902,0.006653,-0.991821,0.251389,0.523969,-0.100458,48,274,569,4656
1644154507.940686,-0.01123,0.008179,-0.992676,0.159786,0.417099,-0.069924,41,266,569,4592
1644154507.989068,-0.012207,0.008972,-0.993103,0.251389,0.462901,-0.039389,48,264,576,4656
1644154508.037404,-0.014221,0.008057,-0.992249,0.159786,0.462901,-0.039389,45,273,575,4608
1644154508.086112,-0.01416,0.008667,-0.989624,0.419328,0.417099,-0.054656,57,270,579,4640
1644154508.134211,-0.012634,0.008362,-0.988403,0.159786,0.462901,-0.085191,52,277,572,4608
1644154508.182614,-0.013855,0.007874,-0.992126,0.129252,0.401832,0.006412,41,283,578,4640
1644154508.231668,-0.01178,0.011658,-0.99408,0.266656,0.432366,0.006412,54,270,568,4672
1644154508.281843,-0.008728,0.008301,-0.989868,0.297191,0.417099,-0.069924,62,274,578,4576
1644154508.329467,-0.011536,0.008179,-0.99231,0.281924,0.63084,-0.207328,47,268,568,4656
1644154508.424494,-0.010315,0.009033,-0.993408,0.220855,0.493435,-0.069924,42,268,572,4576
1644154508.472905,-0.012024,0.008728,-0.992615,0.419328,0.539237,-0.039389,39,279,571,4576
1644154508.521283,-0.012268,0.009094,-0.991028,0.251389,0.294962,-0.161527,49,280,570,4656
1644154508.569693,-0.012146,0.008728,-0.991089,0.419328,0.294962,-0.115725,43,281,571,4656
1644154508.618087,-0.011169,0.007935,-0.991699,0.312458,0.386565,0.006412,42,263,570,4656
1644154508.666408,-0.012512,0.010437,-0.994812,0.052916,0.340763,-0.069924,48,266,569,4672
1644154508.714884,-0.009705,0.008667,-0.991882,0.144519,0.569771,-0.100458,41,274,571,4576
1644154508.763234,-0.01239,0.006226,-0.991882,0.312458,0.417099,0.036947,45,273,558,4576
1644154508.811652,-0.011902,0.00885,-0.991272,0.205588,0.569771,-0.222595,46,269,571,4576
1644154508.86003,-0.012756,0.009705,-0.989136,0.205588,0.340763,-0.115725,48,274,562,4608
1644154508.908401,-0.011108,0.009949,-0.991272,0.281924,0.371298,0.006412,49,265,565,4608
1644154508.956792,-0.011047,0.006897,-0.991821,0.190321,0.447634,-0.14626,48,266,569,4640
1644154509.005244,-0.011963,0.008484,-0.993774,0.129252,0.386565,-0.039389,43,286,562,4656
1644154509.06467,-0.01062,0.010193,-0.993652,0.327725,0.478168,-0.14626,51,276,576,4672
1644154509.101887,-0.009949,0.008362,-0.991882,0.342992,0.493435,-0.207328,51,259,571,4672
1644154509.150297,-0.011536,0.009827,-0.989136,0.236122,0.462901,-0.176794,48,276,573,4576
1644154509.198686,-0.012695,0.008606,-0.993652,0.205588,0.523969,0.006412,48,279,569,4656
1644154509.247059,-0.013367,0.008179,-0.992004,0.35826,0.447634,-0.069924,47,268,570,4672
1644154509.295415,-0.010864,0.007202,-0.993225,0.098718,0.493435,-0.069924,42,273,570,4608
1644154509.343827,-0.010864,0.008728,-0.992493,0.297191,0.661374,-0.069924,47,275,572,4672
1644154509.392226,-0.013489,0.008362,-0.992371,0.449863,0.462901,-0.085191,51,266,564,4656
1644154509.441929,-0.010315,0.009583,-0.992737,0.266656,0.417099,-0.100458,49,268,570,4656
1644154509.489675,-0.010254,0.008423,-0.989319,0.281924,0.371298,-0.161527,43,276,571,4656
1644154509.585726,-0.011047,0.00885,-0.993896,0.266656,0.310229,-0.085191,57,263,570,4656
1644154509.634155,-0.010071,0.008728,-0.991516,0.373527,0.401832,-0.024122,46,269,566,4592
1644154509.682554,-0.01178,0.006287,-0.99408,0.297191,0.462901,-0.130992,49,280,570,4656
1644154509.730891,-0.012878,0.012146,-0.989502,0.266656,0.615573,-0.039389,57,280,575,4576
1644154509.779278,-0.011292,0.009766,-0.993042,0.297191,0.493435,-0.039389,59,270,577,4672
1644154509.827729,-0.009094,0.01062,-0.990417,0.08345,0.447634,-0.039389,52,270,577,4672
1644154509.876119,-0.012207,0.008972,-0.991272,0.144519,0.356031,-0.085191,47,277,572,4608
1644154509.924518,-0.011414,0.006226,-0.990417,0.312458,0.325496,-0.069924,46,274,571,4592
1644154509.972912,-0.014709,0.009583,-0.991638,0.220855,0.432366,-0.14626,46,269,576,4672
1644154510.021279,-0.012817,0.009766,-0.994446,0.251389,0.417099,-0.222595,49,273,575,4656
1644154510.069795,-0.011658,0.008667,-0.990417,0.342992,0.508702,-0.054656,52,277,565,4608
1644154510.118048,-0.010986,0.007996,-0.993286,0.281924,0.493435,-0.161527,39,276,573,4672
1644154510.166414,-0.011108,0.01062,-0.993164,0.251389,0.478168,-0.069924,46,262,573,4656
1644154510.214803,-0.012878,0.010315,-0.99231,0.327725,0.432366,-0.176794,49,275,568,4544
1644154510.26317,-0.012268,0.008057,-0.990723,0.190321,0.539237,-0.161527,52,275,565,4544
1644154510.311546,-0.009338,0.011169,-0.992004,0.342992,0.462901,-0.024122,46,274,573,4656
1644154510.359955,-0.011963,0.009338,-0.994263,0.266656,0.493435,-0.14626,51,279,576,4640
1644154510.408337,-0.010742,0.008057,-0.993469,0.297191,0.447634,-0.14626,47,282,570,4672
1644154510.45669,-0.011292,0.010132,-0.99408,0.281924,0.508702,-0.192061,51,281,576,4576
1644154510.505157,-0.012329,0.009399,-0.990356,0.205588,0.401832,0.006412,39,271,562,4672
1644154510.553476,-0.012329,0.009949,-0.991699,0.205588,0.462901,-0.298931,53,262,564,4656
1644154510.603073,-0.014282,0.006531,-0.992188,0.342992,0.508702,-0.039389,41,271,569,4544
1644154510.650719,-0.01123,0.010742,-0.991272,0.388794,0.447634,0.006412,38,275,575,4640
1644154510.747043,-0.013367,0.008667,-0.993591,0.220855,0.432366,-0.024122,42,273,572,4672
1644154510.795967,-0.012756,0.009766,-0.99054,0.236122,0.340763,-0.192061,53,279,573,4608
1644154510.843829,-0.013489,0.010071,-0.988953,0.266656,0.508702,-0.024122,39,279,573,4608
1644154510.892227,-0.012878,0.007019,-0.993103,0.327725,0.447634,-0.008855,47,270,568,4592
1644154510.940641,-0.014771,0.010254,-0.989624,0.266656,0.600305,-0.176794,42,280,565,4656
1644154510.988987,-0.013855,0.01001,-0.993713,0.251389,0.462901,-0.161527,47,270,568,4672
1644154511.037403,-0.012329,0.009155,-0.992065,0.419328,0.493435,-0.192061,43,276,569,4640
1644154511.086967,-0.010681,0.008301,-0.992371,0.388794,0.569771,-0.085191,47,268,575,4608
1644154511.134184,-0.012634,0.008728,-0.994019,0.266656,0.356031,-0.085191,46,276,576,4704
1644154511.182578,-0.013245,0.009094,-0.993652,0.312458,0.279695,-0.130992,57,285,572,4656
1644154511.230962,-0.011902,0.008057,-0.992798,0.251389,0.432366,-0.054656,48,271,571,4672
1644154511.279315,-0.012146,0.008728,-0.990662,0.266656,0.493435,0.021679,52,282,582,4672
1644154511.327728,-0.010498,0.009827,-0.992126,0.327725,0.447634,-0.024122,46,279,580,4672
1644154511.376098,-0.010559,0.007812,-0.991943,0.236122,0.523969,-0.14626,49,270,568,4608
1644154511.424451,-0.011047,0.009521,-0.992798,0.220855,0.569771,-0.25313,43,271,573,4672
1644154511.472881,-0.011292,0.009338,-0.988281,0.266656,0.401832,-0.176794,49,273,570,4656
1644154511.522667,-0.010742,0.011108,-0.990295,0.281924,0.432366,0.021679,48,266,573,4672
1644154511.570145,-0.013306,0.009949,-0.988708,0.281924,0.539237,0.036947,60,271,571,4656
1644154511.666402,-0.010986,0.00769,-0.992371,0.190321,0.447634,-0.130992,41,262,573,4608
1644154511.71476,-0.013245,0.008667,-0.992737,0.266656,0.401832,-0.054656,52,275,577,4656
1644154511.763162,-0.013489,0.008301,-0.991211,0.388794,0.478168,-0.14626,57,270,572,4672
1644154511.811567,-0.013184,0.007629,-0.992981,0.266656,0.401832,-0.115725,52,270,572,4656
1644154511.859942,-0.010986,0.007141,-0.991394,0.281924,0.478168,-0.085191,57,265,575,4672
1644154511.908361,-0.012268,0.007141,-0.992981,0.007115,0.493435,0.006412,49,277,572,4576
1644154511.95672,-0.012817,0.009644,-0.991272,0.449863,0.432366,-0.008855,51,274,576,4656
1644154512.005209,-0.014526,0.009399,-0.991943,0.190321,0.462901,-0.039389,51,266,569,4656
1644154512.065808,-0.012878,0.008972,-0.989685,0.236122,0.279695,-0.085191,49,277,575,4656
1644154512.101919,-0.01123,0.010254,-0.991455,0.175053,0.493435,-0.115725,51,274,573,4592
1644154512.150254,-0.009094,0.011353,-0.992859,0.236122,0.371298,0.052214,53,269,578,4576
1644154512.198633,-0.013123,0.007935,-0.991333,0.251389,0.340763,0.067481,47,268,579,4608
1644154512.24697,-0.012817,0.009521,-0.991943,0.266656,0.432366,-0.207328,48,274,571,4672
1644154512.295405,-0.01123,0.010681,-0.989441,0.129252,0.401832,-0.054656,59,280,577,4704
1644154512.343783,-0.01123,0.009338,-0.990723,0.297191,0.294962,-0.161527,42,273,570,4656
1644154512.392178,-0.012939,0.008179,-0.988037,0.373527,0.447634,-0.100458,59,273,570,4608
1644154512.440509,-0.013062,0.007263,-0.990601,0.281924,0.447634,-0.100458,49,270,577,4656
1644154512.48926,-0.008911,0.00946,-0.98999,0.342992,0.493435,0.067481,54,265,582,4656
1644154512.537339,-0.011597,0.008911,-0.990051,0.388794,0.371298,-0.192061,55,269,571,4704
1644154512.585933,-0.013123,0.010803,-0.991577,0.220855,0.356031,0.006412,49,287,570,4656
1644154512.634082,-0.012024,0.007812,-0.992676,0.35826,0.310229,-0.085191,57,273,572,4672
1644154512.684097,-0.012756,0.011292,-0.990906,0.342992,0.401832,-0.085191,53,271,573,4576
1644154512.731615,-0.009521,0.011414,-0.993164,0.236122,0.417099,-0.115725,46,279,576,4656
1644154512.827619,-0.014648,0.009155,-0.993774,0.220855,0.386565,0.021679,58,276,571,4704
1644154512.876005,-0.009583,0.008972,-0.990662,0.220855,0.325496,-0.008855,51,271,569,4672
1644154512.924438,-0.011108,0.007019,-0.993164,0.251389,0.462901,-0.085191,49,273,575,4672
1644154512.97286,-0.010925,0.007263,-0.99231,0.327725,0.447634,0.098015,51,269,571,4672
1644154513.021236,-0.011597,0.008911,-0.992004,0.342992,0.432366,-0.100458,55,269,583,4656
1644154513.069647,-0.014282,0.012207,-0.992737,0.449863,0.340763,-0.100458,53,274,583,4640
1644154513.117988,-0.01062,0.009583,-0.993164,0.312458,0.325496,-0.161527,52,273,568,4608
1644154513.166361,-0.010681,0.006348,-0.991821,0.190321,0.371298,-0.054656,47,275,577,4672
1644154513.214735,-0.013123,0.007629,-0.991516,0.236122,0.294962,0.067481,57,280,572,4640
1644154513.263122,-0.012451,0.007874,-0.991577,0.251389,0.569771,-0.024122,42,275,570,4608
1644154513.311493,-0.014587,0.010132,-0.992981,0.236122,0.478168,-0.069924,51,269,564,4608
1644154513.359899,-0.01178,0.007385,-0.994507,0.266656,0.401832,-0.024122,45,270,568,4656
1644154513.408294,-0.012451,0.006104,-0.991577,0.327725,0.447634,-0.039389,64,273,582,4656
1644154513.45666,-0.012817,0.009094,-0.99231,0.327725,0.432366,-0.207328,52,268,572,4672
1644154513.505128,-0.010681,0.00946,-0.992493,0.205588,0.432366,-0.115725,49,260,570,4672
1644154513.553452,-0.010986,0.008972,-0.989807,0.46513,0.371298,0.113282,49,270,565,4576
1644154513.601838,-0.012634,0.009766,-0.992554,0.388794,0.493435,-0.344733,57,280,579,4656
1644154513.650218,-0.013245,0.010498,-0.98999,0.205588,0.432366,-0.115725,47,270,577,4608
1644154513.698583,-0.010071,0.011536,-0.990662,0.190321,0.417099,-0.039389,52,273,568,4656
1644154513.746974,-0.012024,0.008118,-0.992126,0.281924,0.401832,-0.085191,53,269,576,4656
1644154513.795367,-0.013672,0.01001,-0.991272,0.266656,0.417099,-0.024122,39,269,564,4640
1644154513.845002,-0.011658,0.009033,-0.988464,0.35826,0.493435,-0.176794,57,275,572,4608
1644154513.89303,-0.010315,0.007019,-0.991333,0.373527,0.417099,-0.115725,49,275,565,4704
1644154513.988971,-0.011353,0.006836,-0.989441,0.327725,0.493435,-0.192061,49,273,563,4672
1644154514.037337,-0.010925,0.008301,-0.990601,0.175053,0.462901,-0.100458,41,266,573,4608
1644154514.087862,-0.011292,0.010132,-0.991882,0.236122,0.356031,-0.25313,48,266,585,4656
1644154514.134072,-0.010742,0.011719,-0.993103,0.190321,0.523969,-0.100458,46,279,571,4752
1644154514.182476,-0.012695,0.010376,-0.991272,0.419328,0.432366,-0.069924,52,275,577,4592
1644154514.230842,-0.010376,0.008057,-0.99353,0.312458,0.417099,-0.069924,42,275,575,4672
1644154514.279211,-0.012268,0.011963,-0.991333,0.220855,0.508702,-0.115725,61,273,563,4640
1644154514.327587,-0.01239,0.010925,-0.990906,0.297191,0.401832,-0.14626,58,266,559,4672
1644154514.376019,-0.012329,0.007324,-0.996338,0.373527,0.417099,0.006412,47,280,572,4640
1644154514.424406,-0.014221,0.009094,-0.994141,0.251389,0.386565,-0.192061,59,273,577,4672
1644154514.472767,-0.011292,0.009949,-0.992004,0.251389,0.371298,-0.069924,48,269,576,4592
1644154514.521142,-0.011292,0.007385,-0.993042,0.159786,0.386565,-0.024122,48,274,573,4592
1644154514.569553,-0.014771,0.006531,-0.990784,0.342992,0.462901,-0.14626,43,271,573,4672
1644154514.617945,-0.010376,0.008545,-0.994751,0.342992,0.478168,-0.130992,52,273,570,4656
1644154514.666337,-0.01416,0.008362,-0.992065,0.129252,0.386565,-0.069924,51,266,571,4672
1644154514.714838,-0.011963,0.008118,-0.990295,0.373527,0.371298,-0.085191,45,268,582,4592
1644154514.763068,-0.014587,0.011475,-0.990112,0.220855,0.401832,-0.085191,45,277,579,4672
1644154514.811458,-0.011597,0.00824,-0.989929,0.297191,0.310229,-0.207328,54,273,575,4608
1644154514.859881,-0.016113,0.009949,-0.990112,0.312458,0.447634,-0.069924,54,275,572,4752
1644154514.908282,-0.011475,0.009216,-0.991943,0.281924,0.493435,-0.14626,54,277,575,4608
1644154514.957851,-0.012878,0.009216,-0.993225,0.266656,0.508702,-0.115725,46,269,578,4656
1644154515.065265,-0.009216,0.009094,-0.994019,0.297191,0.279695,-0.024122,45,273,575,4608
1644154515.101863,-0.010071,0.00946,-0.98822,0.08345,0.447634,-0.024122,41,279,576,4592
1644154515.150224,-0.010925,0.010864,-0.992676,0.297191,0.417099,-0.085191,47,285,570,4784
1644154515.198625,-0.01123,0.006897,-0.995178,0.281924,0.447634,-0.161527,49,275,579,4672
1644154515.246964,-0.01123,0.005737,-0.994873,0.480397,0.417099,-0.192061,49,270,568,4640
1644154515.295372,-0.01239,0.004761,-0.993164,0.312458,0.417099,-0.054656,41,266,566,4640
1644154515.343783,-0.011963,0.008789,-0.990295,0.251389,0.447634,-0.115725,52,275,572,4672
1644154515.39216,-0.010437,0.008667,-0.993896,0.098718,0.432366,-0.054656,46,276,569,4672
1644154515.440552,-0.009949,0.009033,-0.99292,0.251389,0.462901,-0.115725,39,276,576,4640
1644154515.489353,-0.011047,0.008728,-0.991333,0.342992,0.325496,-0.008855,49,275,577,4640
1644154515.537307,-0.012329,0.009033,-0.990906,0.190321,0.386565,-0.130992,46,274,573,4672
1644154515.585664,-0.011169,0.009216,-0.988403,0.35826,0.386565,-0.130992,45,282,570,4672
1644154515.634085,-0.014221,0.009155,-0.990601,0.251389,0.386565,-0.115725,53,271,573,4672
1644154515.682474,-0.010864,0.010681,-0.993103,0.297191,0.371298,-0.085191,46,266,562,4608
1644154515.731192,-0.013184,0.007385,-0.994202,0.190321,0.432366,0.021679,55,269,566,4672
1644154515.781604,-0.014099,0.010681,-0.991211,0.297191,0.386565,-0.100458,46,271,564,4608
1644154515.828912,-0.013489,0.00769,-0.993774,0.236122,0.493435,-0.130992,47,270,579,4592
1644154515.924416,-0.009644,0.007202,-0.992126,0.449863,0.417099,-0.161527,51,269,569,4640
1644154515.972813,-0.010498,0.009399,-0.990417,0.35826,0.401832,0.036947,55,269,571,4576
1644154516.021114,-0.013123,0.008789,-0.992554,0.190321,0.356031,-0.192061,51,281,566,4656
1644154516.069585,-0.014343,0.008301,-0.992432,0.266656,0.462901,-0.130992,51,274,578,4656
1644154516.117957,-0.013611,0.007751,-0.991211,0.327725,0.417099,-0.085191,47,273,577,4592
1644154516.16632,-0.011475,0.009033,-0.988892,0.190321,0.417099,-0.024122,52,275,577,4672
1644154516.21472,-0.011902,0.006409,-0.99231,0.251389,0.356031,-0.176794,48,269,564,4672
1644154516.263123,-0.012024,0.007385,-0.991638,0.342992,0.462901,-0.039389,54,268,563,4720
1644154516.31151,-0.010803,0.00769,-0.992249,0.144519,0.493435,-0.039389,45,282,565,4672
1644154516.35993,-0.011902,0.007812,-0.991089,0.236122,0.462901,-0.100458,45,270,582,4672
1644154516.408272,-0.013062,0.007874,-0.992676,0.35826,0.447634,-0.115725,45,268,568,4656
1644154516.456666,-0.011719,0.007996,-0.991516,0.205588,0.478168,-0.161527,46,274,569,4656
1644154516.505165,-0.01178,0.008545,-0.992493,0.205588,0.310229,-0.161527,55,269,571,4672
1644154516.553442,-0.011292,0.009949,-0.991028,0.113985,0.539237,-0.192061,51,264,564,4640
1644154516.601823,-0.011658,0.009155,-0.991455,0.35826,0.371298,-0.039389,48,276,573,4576
1644154516.650163,-0.012939,0.009033,-0.993164,0.327725,0.386565,-0.115725,49,273,572,4768
1644154516.698581,-0.013855,0.008911,-0.994385,0.281924,0.569771,-0.085191,55,271,573,4608
1644154516.746948,-0.014343,0.005432,-0.995056,0.312458,0.386565,-0.054656,47,277,589,4672
1644154516.795463,-0.012634,0.009583,-0.99469,0.297191,0.325496,-0.069924,49,270,570,4672
1644154516.843733,-0.012695,0.009521,-0.99115,0.205588,0.478168,-0.344733,39,274,564,4576
1644154516.892652,-0.010376,0.009583,-0.992126,0.342992,0.432366,-0.298931,41,266,562,4704
1644154516.942946,-0.009521,0.009644,-0.989929,0.236122,0.508702,-0.14626,45,270,563,4672
1644154516.99038,-0.010986,0.008972,-0.992371,0.342992,0.523969,-0.207328,51,276,559,4672
1644154517.08563,-0.013977,0.008606,-0.993042,0.297191,0.279695,-0.054656,39,276,576,4608
1644154517.134012,-0.011719,0.00946,-0.990051,0.175053,0.493435,-0.283664,36,271,566,4656
1644154517.182404,-0.008423,0.010376,-0.992737,0.342992,0.432366,-0.100458,49,265,565,4576
1644154517.230778,-0.013123,0.009338,-0.994385,0.312458,0.462901,-0.130992,45,268,575,4656
1644154517.279122,-0.010864,0.005615,-0.992554,0.35826,0.371298,-0.039389,38,268,568,4656
1644154517.327558,-0.010742,0.007629,-0.990784,0.159786,0.508702,-0.054656,46,279,564,4672
1644154517.375968,-0.01532,0.012878,-0.992065,0.373527,0.432366,-0.085191,43,274,564,4592
1644154517.424325,-0.012878,0.011597,-0.991943,0.342992,0.493435,-0.008855,52,273,568,4640
1644154517.47275,-0.011292,0.011108,-0.993652,0.297191,0.386565,-0.085191,54,273,579,4656
1644154517.521094,-0.012634,0.006226,-0.990784,0.205588,0.539237,-0.192061,62,276,564,4704
1644154517.569515,-0.011841,0.008667,-0.993896,0.159786,0.371298,0.006412,45,273,561,4752
1644154517.617892,-0.014771,0.006592,-0.99054,0.220855,0.432366,-0.283664,47,280,561,4640
1644154517.66626,-0.012207,0.008545,-0.989502,0.251389,0.508702,-0.085191,51,264,566,4720
1644154517.71465,-0.00946,0.007202,-0.993835,0.388794,0.325496,-0.054656,49,273,568,4656
1644154517.763038,-0.009949,0.011475,-0.990967,0.159786,0.356031,0.174351,45,275,575,4576
1644154517.811504,-0.012146,0.00592,-0.992249,0.236122,0.462901,-0.14626,48,271,573,4656
1644154517.859895,-0.010193,0.009094,-0.993164,0.266656,0.432366,-0.039389,54,273,570,4656
1644154517.90821,-0.007812,0.00885,-0.989563,0.342992,0.279695,0.036947,53,269,566,4608
1644154517.956638,-0.013489,0.009521,-0.993103,0.144519,0.615573,-0.039389,46,279,566,4656
1644154518.005156,-0.011475,0.010193,-0.992493,0.327725,0.371298,-0.161527,45,275,572,4656
1644154518.073734,-0.012695,0.008606,-0.992676,0.220855,0.523969,0.006412,52,273,572,4672
1644154518.103594,-0.010498,0.007324,-0.991699,0.35826,0.752977,-0.14626,47,275,563,4608
1644154518.150674,-0.010498,0.010986,-0.990295,0.190321,0.340763,-0.054656,45,268,570,4608
1644154518.246897,-0.01239,0.006958,-0.991272,0.220855,0.356031,-0.130992,45,265,570,4656
1644154518.295264,-0.011475,0.009888,-0.994446,0.144519,0.340763,0.006412,51,269,571,4608
1644154518.343648,-0.008606,0.010681,-0.989197,0.266656,0.432366,0.006412,47,280,575,4656
1644154518.39208,-0.013611,0.008057,-0.992188,0.113985,0.478168,-0.130992,45,273,570,4672
1644154518.440433,-0.013062,0.009521,-0.991211,0.281924,0.325496,-0.207328,62,269,578,4672
1644154518.488821,-0.011841,0.006287,-0.992249,0.449863,0.401832,0.052214,43,274,576,4576
1644154518.53718,-0.011902,0.009705,-0.992065,0.098718,0.294962,-0.100458,53,276,569,4608
1644154518.585583,-0.012329,0.007874,-0.992432,0.312458,0.325496,-0.176794,41,276,566,4528
1644154518.633996,-0.012451,0.00592,-0.992615,0.281924,0.417099,-0.130992,47,268,572,4672
1644154518.682397,-0.011475,0.010925,-0.990417,0.312458,0.569771,-0.069924,45,270,572,4592
1644154518.730747,-0.011963,0.007568,-0.992004,0.419328,0.264427,0.006412,55,264,562,4672
1644154518.779162,-0.010315,0.008911,-0.991577,0.281924,0.447634,-0.024122,47,275,570,4672
1644154518.827598,-0.012207,0.010925,-0.990845,0.190321,0.508702,-0.024122,54,263,575,4720
1644154518.875961,-0.010437,0.011169,-0.994995,0.281924,0.508702,-0.054656,54,268,568,4640
1644154518.924332,-0.00946,0.008057,-0.990967,0.190321,0.462901,-0.207328,55,266,573,4672
1644154518.972754,-0.012939,0.010986,-0.991089,0.251389,0.447634,-0.176794,54,270,565,4656
1644154519.021075,-0.008301,0.010315,-0.99231,0.251389,0.478168,-0.222595,47,273,568,4656
1644154519.080208,-0.01123,0.007629,-0.989746,0.205588,0.462901,-0.115725,49,268,568,4592
1644154519.119336,-0.010254,0.01001,-0.990723,0.342992,0.401832,0.036947,48,276,583,4704
1644154519.166539,-0.012512,0.00824,-0.989014,0.281924,0.417099,-0.085191,48,274,566,4656
1644154519.263021,-0.011292,0.009155,-0.993774,0.281924,0.371298,-0.192061,47,260,570,4656
1644154519.311421,-0.013428,0.009094,-0.991272,0.327725,0.371298,0.021679,43,283,571,4576
1644154519.359809,-0.011536,0.009766,-0.990662,0.236122,0.447634,-0.130992,46,279,578,4656
1644154519.408198,-0.01355,0.009216,-0.993164,0.327725,0.478168,-0.161527,53,269,555,4672
1644154519.456583,-0.00708,0.00946,-0.992371,0.251389,0.462901,-0.085191,49,270,565,4656
1644154519.505036,-0.011902,0.009033,-0.990723,0.312458,0.447634,-0.085191,32,279,571,4608
1644154519.553381,-0.013855,0.010986,-0.992493,0.312458,0.371298,-0.039389,48,269,562,4528
1644154519.601741,-0.011658,0.008911,-0.991699,0.342992,0.401832,-0.115725,53,264,562,4576
1644154519.650141,-0.008301,0.009827,-0.991638,0.297191,0.371298,-0.192061,45,273,575,4640
1644154519.698552,-0.010742,0.009766,-0.991882,0.373527,0.386565,-0.176794,61,273,570,4768
1644154519.746885,-0.013,0.009705,-0.992615,0.068183,0.523969,0.052214,57,268,565,4656
1644154519.795398,-0.013794,0.007996,-0.991516,0.190321,0.386565,-0.024122,51,271,573,4608
1644154519.843701,-0.011108,0.007507,-0.990234,0.388794,0.462901,-0.100458,51,269,573,4672
1644154519.892082,-0.012695,0.007568,-0.991882,0.220855,0.462901,-0.161527,43,269,578,4608
1644154519.940469,-0.013184,0.008606,-0.992432,0.281924,0.356031,-0.130992,41,269,573,4656
1644154519.988872,-0.012329,0.010437,-0.992249,0.159786,0.539237,0.006412,47,273,579,4768
1644154520.037251,-0.010803,0.00824,-0.992004,0.404061,0.417099,-0.054656,51,271,573,4656
1644154520.086071,-0.014954,0.007385,-0.992676,0.46513,0.447634,-0.085191,58,279,578,4576
1644154520.133929,-0.012634,0.009766,-0.99353,0.251389,0.508702,0.006412,47,275,570,4672
1644154520.182364,-0.009338,0.008362,-0.99115,0.281924,0.462901,-0.008855,42,270,572,4656
1644154520.231007,-0.010254,0.008545,-0.991882,0.404061,0.508702,-0.115725,47,273,570,4672
1644154520.281205,-0.01123,0.007751,-0.991943,0.281924,0.447634,-0.008855,47,270,570,4608
1644154520.375889,-0.011902,0.01062,-0.9953,0.281924,0.478168,-0.237863,57,282,563,4576
1644154520.424297,-0.010986,0.011963,-0.993652,0.312458,0.417099,-0.115725,55,281,573,4672
1644154520.472679,-0.01239,0.00885,-0.992676,0.190321,0.325496,-0.237863,49,280,565,4704
1644154520.521022,-0.010925,0.011414,-0.993896,0.312458,0.478168,0.006412,34,271,564,4672
1644154520.569425,-0.008972,0.006714,-0.988892,0.175053,0.401832,-0.069924,47,275,577,4656
1644154520.617791,-0.013672,0.009338,-0.992249,0.419328,0.462901,-0.085191,48,274,578,4704
1644154520.666198,-0.013123,0.009399,-0.989258,0.175053,0.493435,-0.085191,48,271,578,4640
1644154520.714652,-0.011475,0.009094,-0.992676,0.220855,0.585038,-0.192061,49,265,565,4608
1644154520.762984,-0.013062,0.008667,-0.991821,0.220855,0.279695,-0.100458,48,269,562,4656
1644154520.811387,-0.012939,0.009949,-0.989319,0.35826,0.63084,-0.085191,54,268,572,4656
1644154520.859783,-0.008728,0.006409,-0.992859,0.205588,0.493435,-0.024122,49,277,563,4576
1644154520.908198,-0.012634,0.010559,-0.988647,0.266656,0.447634,-0.314198,48,274,573,4768
1644154520.956536,-0.010559,0.007874,-0.992004,0.251389,0.478168,-0.008855,51,276,576,4608
1644154521.004952,-0.010193,0.012329,-0.98822,0.220855,0.462901,-0.100458,48,271,573,4672
1644154521.065182,-0.011047,0.008362,-0.992859,0.281924,0.447634,-0.100458,51,281,569,4608
1644154521.101724,-0.014038,0.010437,-0.990234,0.129252,0.493435,-0.100458,47,285,572,4672
1644154521.150025,-0.012451,0.010559,-0.991211,0.327725,0.432366,-0.069924,47,282,575,4640
1644154521.198437,-0.011108,0.008118,-0.993225,0.312458,0.462901,-0.130992,47,273,572,4656
1644154521.246838,-0.011047,0.009216,-0.992188,0.175053,0.493435,-0.054656,48,281,569,4576
1644154521.295287,-0.013184,0.007935,-0.990479,0.297191,0.508702,-0.085191,60,281,571,4720
1644154521.343609,-0.013306,0.009888,-0.990784,0.419328,0.493435,-0.192061,43,276,573,4672
1644154521.393921,-0.008789,0.011414,-0.988647,0.129252,0.371298,-0.115725,51,266,566,4656
1644154521.441528,-0.010559,0.011292,-0.99292,0.327725,0.386565,-0.14626,54,280,568,4608
1644154521.537138,-0.01239,0.00885,-0.993103,0.175053,0.417099,-0.039389,52,270,563,4608
1644154521.58551,-0.011475,0.01001,-0.991821,0.266656,0.462901,-0.100458,53,266,569,4656
1644154521.633943,-0.011719,0.010193,-0.990417,0.266656,0.417099,-0.130992,46,274,564,4640
1644154521.682299,-0.011719,0.009338,-0.991394,0.175053,0.478168,-0.161527,55,266,562,4672
1644154521.730717,-0.01123,0.008972,-0.99408,0.098718,0.432366,-0.054656,47,263,575,4672
1644154521.779083,-0.013489,0.010437,-0.98999,0.220855,0.386565,-0.115725,49,270,570,4672
1644154521.827467,-0.012878,0.008667,-0.99408,0.297191,0.508702,-0.192061,45,275,563,4672
1644154521.875957,-0.009277,0.010376,-0.993958,0.297191,0.432366,-0.115725,54,277,570,4672
1644154521.924344,-0.012024,0.010132,-0.990051,0.205588,0.447634,-0.14626,51,271,569,4608
1644154521.972698,-0.012451,0.008301,-0.991943,0.297191,0.310229,-0.069924,47,270,563,4672
1644154522.021054,-0.011047,0.006348,-0.991699,0.281924,0.523969,-0.115725,45,268,572,4672
1644154522.075583,-0.011597,0.01123,-0.992432,0.342992,0.478168,-0.14626,52,282,572,4608
1644154522.117809,-0.012268,0.008362,-0.992615,0.220855,0.371298,-0.008855,53,266,573,4656
1644154522.166161,-0.009827,0.008179,-0.994019,0.144519,0.340763,-0.25313,55,264,576,4672
1644154522.214619,-0.011719,0.007385,-0.990723,0.373527,0.371298,-0.024122,51,266,571,4672
1644154522.262955,-0.010864,0.008728,-0.990967,0.129252,0.569771,-0.14626,47,265,572,4656
1644154522.311306,-0.012146,0.009277,-0.992493,0.190321,0.447634,0.006412,51,276,571,4672
1644154522.359711,-0.010315,0.005981,-0.993469,0.251389,0.523969,-0.192061,46,279,559,4672
1644154522.408093,-0.01239,0.01178,-0.994141,0.297191,0.447634,-0.039389,49,265,577,4656
1644154522.456463,-0.011047,0.007751,-0.992065,0.342992,0.386565,0.036947,49,265,565,4640
1644154522.50589,-0.008789,0.007751,-0.994324,0.327725,0.401832,-0.192061,52,263,577,4640
1644154522.553292,-0.009705,0.009521,-0.992615,0.205588,0.401832,-0.024122,48,271,569,4656
1644154522.650043,-0.009705,0.011353,-0.989502,0.312458,0.401832,-0.130992,40,275,565,4672
1644154522.698403,-0.009583,0.008972,-0.991638,0.312458,0.462901,-0.14626,41,283,571,4704
1644154522.746783,-0.008484,0.006592,-0.990601,0.220855,0.371298,-0.115725,42,263,570,4672
1644154522.79524,-0.009827,0.009766,-0.992371,0.35826,0.585038,-0.100458,47,268,568,4656
1644154522.843604,-0.013,0.009033,-0.993164,0.35826,0.371298,-0.115725,51,279,566,4592
1644154522.892011,-0.012878,0.008728,-0.991211,0.266656,0.386565,-0.039389,43,271,566,4608
1644154522.940367,-0.013855,0.00946,-0.992065,0.266656,0.340763,-0.039389,53,264,564,4576
1644154522.988761,-0.013794,0.009949,-0.990417,0.236122,0.24916,0.052214,46,276,566,4672
1644154523.037136,-0.007568,0.01123,-0.992188,0.205588,0.371298,-0.222595,47,268,572,4656
1644154523.085567,-0.015625,0.006714,-0.991516,0.220855,0.417099,-0.008855,55,274,580,4592
1644154523.133961,-0.012512,0.009399,-0.988464,0.297191,0.569771,0.052214,46,269,578,4608
1644154523.182339,-0.009949,0.009216,-0.990723,0.220855,0.417099,-0.130992,46,266,580,4608
1644154523.230728,-0.011292,0.007446,-0.991394,0.281924,0.432366,-0.130992,45,277,577,4656
1644154523.279071,-0.012146,0.008728,-0.99292,0.419328,0.356031,0.113282,49,277,565,4656
1644154523.327505,-0.011414,0.007935,-0.992371,0.388794,0.386565,-0.024122,53,262,573,4576
1644154523.375888,-0.014221,0.008545,-0.992004,0.373527,0.325496,0.036947,52,270,570,4672
1644154523.424267,-0.010681,0.007751,-0.992676,0.236122,0.401832,-0.176794,45,277,575,4608
1644154523.472616,-0.013367,0.010986,-0.991455,0.190321,0.386565,-0.024122,43,271,564,4656
1644154523.522563,-0.010254,0.009216,-0.992004,0.342992,0.371298,-0.085191,47,275,561,4704
1644154523.569982,-0.012939,0.009094,-0.992065,0.297191,0.417099,-0.192061,48,271,576,4656
1644154523.666198,-0.013245,0.009888,-0.992615,0.266656,0.432366,-0.130992,57,270,570,4576
1644154523.714556,-0.012207,0.007935,-0.991455,0.113985,0.356031,-0.069924,49,273,565,4672
1644154523.762951,-0.008972,0.010803,-0.990479,0.342992,0.401832,0.021679,49,273,565,4672
1644154523.811377,-0.01178,0.008667,-0.992554,0.297191,0.310229,-0.069924,45,273,575,4608
1644154523.859758,-0.008118,0.009827,-0.990784,0.312458,0.401832,-0.115725,52,280,568,4672
1644154523.908147,-0.011475,0.006531,-0.99115,0.052916,0.325496,-0.115725,53,274,571,4656
1644154523.956499,-0.01178,0.009949,-0.992554,0.144519,0.417099,-0.115725,54,277,565,4672
1644154524.004854,-0.009888,0.006226,-0.990906,0.159786,0.523969,-0.085191,52,280,572,4592
1644154524.064311,-0.010071,0.009583,-0.99353,0.251389,0.585038,-0.054656,52,273,582,4656
1644154524.101696,-0.011597,0.010071,-0.992554,0.281924,0.417099,-0.100458,47,268,570,4640
1644154524.150076,-0.01355,0.010925,-0.990356,0.251389,0.310229,0.067481,55,276,566,4656
1644154524.198494,-0.009644,0.011292,-0.990845,0.266656,0.371298,-0.115725,41,274,562,4672
1644154524.246833,-0.010559,0.009399,-0.991821,0.281924,0.432366,0.021679,49,263,572,4656
1644154524.295204,-0.015442,0.010254,-0.990051,0.159786,0.508702,-0.085191,57,273,570,4640
1644154524.343618,-0.010925,0.009216,-0.993713,0.190321,0.432366,-0.054656,45,265,575,4656
1644154524.391949,-0.013062,0.010559,-0.993958,0.113985,0.310229,-0.176794,53,276,571,4672
1644154524.44039,-0.012939,0.008301,-0.991089,0.419328,0.417099,-0.14626,54,270,572,4672
1644154524.488688,-0.011047,0.008179,-0.993225,0.281924,0.539237,-0.115725,42,280,568,4672
1644154524.537151,-0.011719,0.006836,-0.994873,0.297191,0.310229,-0.176794,53,276,571,4576
1644154524.585482,-0.011169,0.008667,-0.993469,0.190321,0.386565,-0.115725,47,268,565,4608
1644154524.634691,-0.011353,0.00885,-0.992798,0.098718,0.523969,-0.100458,39,276,569,4672
1644154524.685168,-0.011169,0.008179,-0.99353,0.159786,0.417099,0.067481,53,271,569,4592
1644154524.779098,-0.013367,0.009399,-0.992065,0.205588,0.386565,-0.237863,42,270,565,4640
1644154524.827497,-0.013,0.00885,-0.994385,-0.008153,0.356031,-0.115725,46,274,569,4656
1644154524.875877,-0.013428,0.010193,-0.993713,0.068183,0.264427,-0.054656,51,276,566,4672
1644154524.924258,-0.012878,0.009155,-0.992737,0.220855,0.478168,-0.008855,49,273,568,4656
1644154524.972619,-0.014343,0.008911,-0.990051,0.388794,0.371298,-0.283664,45,270,570,4608
1644154525.021007,-0.011841,0.009338,-0.99054,0.251389,0.523969,-0.161527,48,264,569,4704
1644154525.069434,-0.014832,0.011047,-0.992554,0.327725,0.523969,-0.054656,47,270,579,4640
1644154525.117721,-0.009766,0.007874,-0.992065,0.220855,0.447634,-0.130992,47,270,575,4576
1644154525.166149,-0.012268,0.008972,-0.992859,0.251389,0.493435,-0.008855,49,277,577,4672
1644154525.214534,-0.008667,0.010925,-0.993591,0.281924,0.356031,-0.024122,41,276,564,4640
1644154525.262885,-0.009399,0.008728,-0.993958,0.266656,0.401832,0.036947,51,266,566,4576
1644154525.311278,-0.010437,0.010376,-0.992737,0.251389,0.523969,-0.054656,45,270,565,4752
1644154525.359645,-0.011597,0.009705,-0.99115,0.342992,0.371298,-0.100458,53,264,571,4720
1644154525.408066,-0.01123,0.009216,-0.993469,0.266656,0.478168,-0.039389,52,273,575,4672
1644154525.456436,-0.011536,0.00885,-0.990173,0.251389,0.569771,-0.298931,49,260,577,4656
1644154525.504811,-0.011902,0.008362,-0.992188,0.297191,0.447634,-0.192061,53,281,576,4656
1644154525.55321,-0.009094,0.007935,-0.992004,0.052916,0.447634,-0.130992,42,273,563,4656
1644154525.601583,-0.013794,0.007446,-0.991394,0.220855,0.432366,-0.024122,45,270,572,4672
1644154525.649986,-0.010803,0.008179,-0.993652,0.08345,0.462901,-0.008855,45,273,582,4656
1644154525.698374,-0.013123,0.007507,-0.990967,0.251389,0.356031,0.036947,47,277,570,4656
1644154525.746998,-0.011108,0.007568,-0.989441,0.159786,0.432366,-0.100458,47,265,572,4608
1644154525.797658,-0.00946,0.005615,-0.99353,0.35826,0.401832,-0.161527,38,265,568,4608
1644154525.891959,-0.010498,0.010254,-0.992859,0.175053,0.585038,-0.14626,47,275,568,4672
1644154525.940376,-0.010376,0.00592,-0.993103,0.342992,0.462901,-0.130992,52,270,572,4608
1644154525.988772,-0.010986,0.008789,-0.993347,0.251389,0.356031,-0.207328,54,268,577,4704
1644154526.037118,-0.012268,0.009399,-0.989136,0.175053,0.386565,-0.115725,46,266,569,4640
1644154526.086356,-0.01062,0.013062,-0.991272,0.190321,0.340763,-0.054656,52,273,570,4576
1644154526.133861,-0.012268,0.010376,-0.992554,0.419328,0.371298,0.082748,48,271,564,4768
1644154526.182266,-0.011047,0.01178,-0.993225,0.266656,0.371298,0.006412,46,271,566,4608
1644154526.230631,-0.009216,0.00769,-0.988647,0.220855,0.478168,-0.100458,45,275,565,4656
1644154526.278996,-0.009949,0.009583,-0.993225,0.159786,0.401832,-0.207328,47,268,570,4656
1644154526.327413,-0.011902,0.010742,-0.993652,0.312458,0.279695,-0.008855,55,271,566,4592
1644154526.37577,-0.014832,0.009583,-0.99353,0.251389,0.356031,-0.039389,51,271,571,4704
1644154526.424158,-0.010254,0.010376,-0.992493,0.327725,0.325496,-0.237863,51,266,564,4672
1644154526.472537,-0.01178,0.00769,-0.992554,0.312458,0.325496,-0.085191,53,262,571,4656
1644154526.520908,-0.011353,0.008057,-0.993896,0.342992,0.401832,-0.298931,53,271,569,4672
1644154526.56934,-0.009338,0.00708,-0.99231,0.08345,0.523969,-0.192061,57,280,572,4608
1644154526.617731,-0.012268,0.012695,-0.99054,0.144519,0.340763,0.021679,49,268,579,4640
1644154526.666112,-0.011719,0.007935,-0.992676,0.144519,0.325496,-0.085191,40,273,575,4704
1644154526.714479,-0.012817,0.009583,-0.992432,0.129252,0.447634,-0.130992,47,270,570,4608
1644154526.762842,-0.010803,0.009644,-0.990723,0.297191,0.554504,-0.161527,52,270,575,4672
1644154526.811288,-0.009644,0.010803,-0.993408,0.281924,0.493435,-0.130992,49,275,577,4672
1644154526.859922,-0.012634,0.006897,-0.991333,0.266656,0.386565,-0.176794,47,275,568,4640
1644154526.910833,-0.011536,0.009094,-0.991638,0.220855,0.585038,-0.176794,52,275,568,4656
1644154526.957713,-0.012207,0.00885,-0.99231,0.297191,0.294962,-0.115725,52,275,570,4672
1644154527.063347,-0.009949,0.008484,-0.992188,0.113985,0.356031,-0.024122,52,277,572,4656
1644154527.101601,-0.010986,0.008057,-0.991516,0.220855,0.24916,-0.130992,48,276,569,4656
1644154527.149944,-0.013,0.008423,-0.99176,0.327725,0.325496,-0.130992,54,277,570,4576
1644154527.198317,-0.012146,0.009766,-0.992676,0.159786,0.356031,0.006412,38,275,572,4672
1644154527.246729,-0.011902,0.009094,-0.990417,0.190321,0.340763,-0.008855,51,281,571,4656
1644154527.295155,-0.01123,0.011414,-0.992676,0.312458,0.294962,0.052214,49,273,572,4656
1644154527.343525,-0.01123,0.008545,-0.991638,0.08345,0.585038,-0.130992,47,275,579,4656
1644154527.391872,-0.014099,0.011536,-0.993286,0.266656,0.523969,-0.100458,48,266,573,4672
1644154527.440248,-0.011597,0.007507,-0.991943,0.220855,0.279695,-0.008855,51,291,573,4608
1644154527.488662,-0.011963,0.009033,-0.990479,0.327725,0.523969,0.006412,43,266,580,4656
1644154527.537065,-0.013306,0.010132,-0.991699,0.190321,0.24916,0.036947,47,268,568,4592
1644154527.585448,-0.010803,0.005676,-0.991943,0.281924,0.340763,-0.039389,51,269,564,4672
1644154527.633829,-0.010986,0.010986,-0.990906,0.266656,0.569771,-0.024122,43,266,564,4704
1644154527.682227,-0.011719,0.010254,-0.992432,0.159786,0.356031,-0.161527,55,274,566,4608
1644154527.730595,-0.011353,0.00824,-0.99176,0.175053,0.462901,-0.085191,58,274,576,4672
1644154527.779114,-0.008728,0.008606,-0.991394,0.266656,0.340763,-0.039389,53,262,573,4672
1644154527.827442,-0.013245,0.00946,-0.989624,0.266656,0.447634,-0.069924,52,277,568,4672
1644154527.924175,-0.010376,0.007935,-0.993591,0.266656,0.462901,-0.024122,46,271,562,4704
1644154527.972574,-0.011414,0.011353,-0.992615,0.220855,0.493435,-0.268397,39,266,573,4640
1644154528.020935,-0.008118,0.009766,-0.991333,0.297191,0.478168,-0.176794,42,270,570,4576
1644154528.069349,-0.010315,0.008484,-0.991638,0.052916,0.386565,0.021679,49,273,579,4656
1644154528.117743,-0.011169,0.009216,-0.992188,0.159786,0.386565,-0.176794,47,270,565,4720
1644154528.166069,-0.009338,0.010071,-0.994202,0.35826,0.478168,-0.130992,52,270,577,4656
1644154528.214439,-0.010864,0.007263,-0.991455,0.144519,0.417099,-0.008855,51,276,569,4704
1644154528.262862,-0.013,0.00769,-0.995117,0.220855,0.401832,-0.008855,40,273,570,4576
1644154528.311221,-0.008301,0.009338,-0.994019,0.342992,0.417099,-0.176794,45,277,565,4592
1644154528.359634,-0.012207,0.009033,-0.995056,0.052916,0.493435,-0.069924,54,275,579,4656
1644154528.407963,-0.011902,0.010193,-0.990845,0.266656,0.386565,-0.069924,47,277,570,4704
1644154528.456415,-0.012817,0.008911,-0.992676,0.175053,0.432366,-0.14626,57,275,572,4672
1644154528.504884,-0.010254,0.006653,-0.994019,0.266656,0.24916,-0.161527,48,281,571,4656
1644154528.553165,-0.008972,0.008362,-0.990845,0.251389,0.401832,-0.039389,51,271,569,4608
1644154528.601573,-0.012695,0.009094,-0.99231,0.251389,0.401832,-0.069924,48,266,571,4592
1644154528.649953,-0.010681,0.008606,-0.992188,0.129252,0.417099,-0.054656,51,279,571,4656
1644154528.698333,-0.013611,0.008667,-0.991089,0.266656,0.493435,-0.100458,47,270,575,4672
1644154528.746713,-0.011414,0.006897,-0.991272,0.342992,0.417099,-0.115725,51,283,571,4608
1644154528.79513,-0.012695,0.010986,-0.993103,0.327725,0.325496,-0.14626,53,264,571,4640
1644154528.84347,-0.009705,0.009644,-0.993896,0.327725,0.279695,-0.008855,43,266,571,4640
1644154528.891897,-0.010071,0.007629,-0.990784,0.159786,0.432366,-0.039389,45,273,575,4576
1644154528.942269,-0.013733,0.009399,-0.99176,0.220855,0.417099,-0.054656,45,270,575,4608
1644154528.989709,-0.010376,0.007629,-0.991882,0.190321,0.462901,-0.161527,54,270,568,4656
1644154529.085425,-0.011353,0.013062,-0.991028,0.297191,0.447634,-0.237863,59,263,575,4592
1644154529.133852,-0.012451,0.006836,-0.992065,0.175053,0.371298,-0.039389,53,271,566,4576
1644154529.18221,-0.010071,0.008118,-0.992126,0.205588,0.493435,-0.14626,51,276,564,4576
1644154529.230576,-0.011658,0.010315,-0.990784,0.388794,0.264427,-0.054656,45,270,570,4608
1644154529.2789,-0.014282,0.00946,-0.993225,0.190321,0.371298,-0.192061,48,271,566,4656
1644154529.327314,-0.012085,0.012024,-0.992371,0.281924,0.539237,-0.192061,55,264,573,4656
1644154529.375738,-0.014832,0.007874,-0.989746,0.373527,0.508702,-0.161527,48,274,550,4608
1644154529.424122,-0.012207,0.008606,-0.990723,0.205588,0.508702,-0.222595,49,277,572,4656
1644154529.472485,-0.013184,0.008728,-0.990967,0.175053,0.432366,-0.069924,47,270,575,4608
1644154529.520859,-0.013306,0.010254,-0.991943,0.190321,0.371298,-0.14626,47,265,565,4672
1644154529.569294,-0.013062,0.007263,-0.992981,0.175053,0.417099,-0.176794,49,260,577,4656
1644154529.617666,-0.009888,0.009949,-0.990723,0.419328,0.600305,-0.207328,45,265,565,4608
1644154529.666015,-0.011414,0.006653,-0.992188,0.190321,0.478168,-0.115725,64,268,575,4608
1644154529.714439,-0.010437,0.009033,-0.99292,0.281924,0.310229,-0.039389,53,266,576,4656
1644154529.762822,-0.012024,0.009094,-0.992859,0.327725,0.401832,-0.176794,52,273,572,4656
1644154529.811208,-0.015869,0.010071,-0.992615,0.190321,0.432366,-0.161527,46,271,571,4656
1644154529.859632,-0.010925,0.007812,-0.992249,0.404061,0.401832,-0.085191,48,264,573,4672
1644154529.908057,-0.00885,0.007812,-0.989868,0.266656,0.539237,-0.237863,52,277,563,4608
1644154529.956545,-0.01062,0.011902,-0.99292,0.220855,0.493435,0.021679,58,269,566,4656
1644154530.063197,-0.01001,0.009094,-0.993958,0.266656,0.24916,-0.024122,52,280,572,4608
1644154530.101546,-0.011414,0.008606,-0.991089,0.312458,0.432366,-0.039389,47,277,563,4640
1644154530.149962,-0.010315,0.008484,-0.992004,0.205588,0.447634,-0.039389,52,280,561,4656
1644154530.198341,-0.012268,0.009155,-0.989441,0.266656,0.508702,-0.054656,46,269,566,4704
1644154530.246719,-0.010376,0.009521,-0.990906,0.159786,0.371298,-0.024122,43,279,559,4640
1644154530.295244,-0.012268,0.008911,-0.995728,0.312458,0.386565,-0.085191,48,276,566,4576
1644154530.343471,-0.01001,0.00946,-0.991394,0.220855,0.233893,0.021679,45,268,575,4640
1644154530.391888,-0.01355,0.007629,-0.993408,0.419328,0.432366,-0.085191,49,265,568,4592
1644154530.440215,-0.011597,0.008423,-0.993958,0.175053,0.401832,-0.115725,61,275,584,4608
1644154530.488664,-0.012451,0.006531,-0.991333,0.022382,0.310229,-0.14626,46,276,569,4656
1644154530.537049,-0.012024,0.008057,-0.992615,0.373527,0.569771,-0.14626,53,274,573,4656
1644154530.585429,-0.012268,0.010803,-0.992004,0.175053,0.325496,-0.008855,48,274,571,4672
1644154530.633807,-0.013428,0.012207,-0.989929,0.266656,0.447634,-0.192061,47,270,577,4576
1644154530.682214,-0.011536,0.010376,-0.990356,0.327725,0.523969,-0.069924,46,274,576,4752
1644154530.730579,-0.010254,0.007385,-0.991821,0.342992,0.325496,-0.069924,40,275,561,4672
1644154530.779556,-0.012512,0.010803,-0.991882,0.480397,0.371298,-0.25313,52,280,558,4640
1644154530.829761,-0.010498,0.007385,-0.993225,0.251389,0.539237,-0.069924,49,270,568,4656
1644154530.877398,-0.012146,0.009216,-0.994202,0.281924,0.493435,-0.008855,54,275,565,4656
1644154530.97253,-0.012024,0.00592,-0.992493,0.190321,0.478168,0.052214,51,276,576,4656
1644154531.020884,-0.010559,0.008667,-0.992432,0.388794,0.432366,-0.176794,48,264,566,4576
1644154531.069364,-0.011902,0.007996,-0.992554,0.098718,0.386565,-0.008855,54,268,568,4656
1644154531.117626,-0.010742,0.010437,-0.990845,0.373527,0.523969,-0.008855,41,271,557,4640
1644154531.165992,-0.012512,0.009094,-0.994385,0.159786,0.432366,-0.039389,49,270,565,4608
1644154531.214424,-0.011963,0.005127,-0.992126,0.113985,0.417099,0.082748,53,271,576,4576
1644154531.262802,-0.010498,0.009827,-0.992188,0.266656,0.325496,-0.024122,45,263,563,4608
1644154531.311162,-0.010742,0.007629,-0.992432,0.297191,0.478168,-0.085191,42,277,568,4608
1644154531.35955,-0.011169,0.010925,-0.993591,0.297191,0.447634,-0.161527,52,273,568,4640
1644154531.407963,-0.01062,0.007751,-0.991333,0.373527,0.447634,-0.039389,49,268,568,4656
1644154531.456339,-0.012512,0.008545,-0.991821,0.373527,0.356031,-0.130992,58,266,573,4672
1644154531.504726,-0.012268,0.010925,-0.992554,0.144519,0.417099,-0.024122,48,271,562,4672
1644154531.553124,-0.011047,0.009155,-0.991882,0.205588,0.447634,-0.314198,40,268,570,4672
1644154531.601461,-0.011047,0.009338,-0.992126,0.068183,0.279695,-0.176794,49,280,561,4608
1644154531.649893,-0.008789,0.009155,-0.992676,0.190321,0.493435,-0.039389,54,268,582,4656
1644154531.698278,-0.013794,0.011353,-0.991211,0.312458,0.447634,-0.314198,47,277,572,4592
1644154531.746638,-0.011108,0.009705,-0.990356,0.35826,0.615573,0.006412,45,275,572,4656
1644154531.795135,-0.013855,0.007996,-0.99292,0.35826,0.554504,-0.008855,43,279,576,4640
1644154531.843468,-0.013489,0.008179,-0.990356,0.312458,0.371298,-0.14626,49,270,570,4656
1644154531.891846,-0.012939,0.009705,-0.994324,0.220855,0.386565,-0.085191,55,266,569,4640
1644154531.940466,-0.011353,0.009521,-0.991943,0.266656,0.371298,-0.024122,43,271,569,4656
1644154531.990923,-0.012451,0.009521,-0.98938,0.373527,0.585038,-0.100458,53,271,564,4640
1644154532.08533,-0.011169,0.00769,-0.991577,0.175053,0.401832,-0.100458,48,274,573,4656
1644154532.133795,-0.01355,0.009888,-0.992615,0.144519,0.508702,-0.008855,47,273,572,4672
1644154532.18226,-0.009949,0.011108,-0.991272,0.281924,0.264427,-0.085191,46,269,559,4656
1644154532.230527,-0.01001,0.009888,-0.989868,0.129252,0.462901,-0.069924,52,280,568,4640
1644154532.2789,-0.01178,0.008301,-0.992126,0.113985,0.508702,-0.054656,38,268,563,4672
1644154532.327309,-0.011536,0.007996,-0.992798,0.175053,0.386565,-0.161527,39,271,571,4656
1644154532.37566,-0.013062,0.010864,-0.991089,0.113985,0.386565,-0.024122,41,274,564,4640
1644154532.42408,-0.010803,0.008667,-0.991638,0.327725,0.493435,0.021679,49,275,565,4592
1644154532.472444,-0.010315,0.010681,-0.992371,0.342992,0.462901,-0.085191,58,274,576,4608
1644154532.520824,-0.009949,0.012085,-0.993103,0.022382,0.356031,-0.237863,54,265,561,4768
1644154532.569242,-0.011047,0.011719,-0.990967,0.205588,0.401832,-0.130992,48,276,569,4640
1644154532.617607,-0.012573,0.00946,-0.992065,0.205588,0.340763,-0.161527,42,277,570,4720
1644154532.666011,-0.010559,0.006653,-0.993286,0.175053,0.523969,-0.024122,43,274,573,4576
1644154532.714367,-0.010803,0.00946,-0.993286,0.342992,0.432366,-0.192061,51,276,573,4656
1644154532.762767,-0.014526,0.010193,-0.991821,0.251389,0.447634,-0.085191,52,275,572,4672
1644154532.811144,-0.010315,0.00769,-0.992493,0.327725,0.478168,-0.024122,46,279,559,4656
1644154532.859571,-0.01001,0.008484,-0.993042,0.281924,0.508702,0.036947,42,275,565,4656
1644154532.909471,-0.012512,0.008606,-0.990112,0.236122,0.356031,-0.085191,54,280,572,4576
1644154532.958916,-0.011353,0.010498,-0.99176,0.281924,0.493435,-0.085191,54,275,579,4608
1644154533.060776,-0.01239,0.008972,-0.993286,0.419328,0.325496,-0.161527,46,266,564,4576
1644154533.101492,-0.011292,0.009216,-0.992981,0.373527,0.539237,-0.207328,46,274,571,4640
1644154533.149874,-0.012085,0.008545,-0.994019,0.159786,0.432366,-0.024122,46,266,573,4656
1644154533.198217,-0.011414,0.009521,-0.990845,0.175053,0.340763,-0.130992,46,274,566,4608
1644154533.246583,-0.009644,0.010864,-0.993713,0.205588,0.508702,-0.176794,54,273,572,4592
1644154533.295052,-0.010803,0.010864,-0.989502,0.327725,0.462901,-0.283664,47,268,563,4656
1644154533.343411,-0.01416,0.006836,-0.992859,0.281924,0.508702,-0.161527,58,264,569,4656
1644154533.391789,-0.011414,0.010559,-0.994324,0.098718,0.63084,-0.115725,43,274,569,4640
1644154533.440117,-0.013306,0.009521,-0.991821,0.052916,0.401832,-0.115725,45,277,582,4592
1644154533.488885,-0.011292,0.008423,-0.991211,0.373527,0.371298,-0.008855,43,271,571,4704
1644154533.536954,-0.011536,0.009094,-0.992859,0.281924,0.508702,-0.024122,52,268,568,4656
1644154533.585338,-0.009155,0.008362,-0.991272,0.251389,0.493435,-0.222595,55,269,576,4656
1644154533.633718,-0.015198,0.010376,-0.991394,0.266656,0.554504,-0.085191,43,271,571,4656
1644154533.682086,-0.010986,0.010132,-0.989197,0.373527,0.508702,-0.14626,51,276,571,4656
1644154533.730473,-0.010864,0.008972,-0.991394,0.281924,0.478168,-0.14626,53,274,571,4656
1644154533.780799,-0.010315,0.007996,-0.995422,0.281924,0.325496,-0.207328,48,279,569,4672
1644154533.829731,-0.011536,0.009583,-0.992432,0.052916,0.356031,-0.176794,42,270,568,4656
1644154533.924087,-0.013367,0.009705,-0.991333,0.236122,0.447634,-0.161527,39,276,569,4656
1644154533.97247,-0.009888,0.006836,-0.991577,0.251389,0.279695,-0.268397,42,277,572,4640
1644154534.020822,-0.012573,0.01062,-0.990601,0.388794,0.447634,-0.100458,58,271,566,4576
1644154534.069908,-0.011719,0.01062,-0.990967,0.312458,0.371298,-0.130992,49,268,570,4656
1644154534.117618,-0.01001,0.007202,-0.991577,0.266656,0.462901,-0.130992,40,268,568,4656
1644154534.165947,-0.006348,0.012878,-0.992065,0.205588,0.462901,-0.024122,42,273,572,4592
1644154534.21436,-0.011536,0.010925,-0.992004,0.281924,0.233893,-0.008855,47,273,575,4672
1644154534.262743,-0.01062,0.010681,-0.989929,0.129252,0.432366,0.006412,48,279,566,4640
1644154534.311161,-0.01123,0.009277,-0.993591,0.220855,0.462901,-0.130992,47,265,572,4656
1644154534.359522,-0.01239,0.009155,-0.993469,0.281924,0.371298,-0.161527,47,277,575,4704
1644154534.407909,-0.012939,0.013367,-0.99231,0.220855,0.462901,0.12855,52,275,565,4672
1644154534.456277,-0.009155,0.010437,-0.992249,0.312458,0.585038,-0.283664,47,275,570,4592
1644154534.504686,-0.010742,0.009827,-0.990784,0.205588,0.386565,-0.054656,46,269,571,4592
1644154534.553077,-0.012573,0.010559,-0.991333,0.281924,0.325496,-0.085191,42,275,568,4640
1644154534.601453,-0.01239,0.011414,-0.992554,0.373527,0.310229,-0.115725,54,268,561,4592
1644154534.649824,-0.013977,0.007385,-0.993103,0.281924,0.462901,-0.054656,46,274,571,4640
1644154534.698181,-0.013367,0.011536,-0.992859,0.098718,0.478168,-0.115725,49,260,568,4656
1644154534.746588,-0.012024,0.008789,-0.990967,0.068183,0.493435,-0.100458,45,277,561,4672
1644154534.795037,-0.011292,0.008789,-0.99292,0.419328,0.24916,-0.039389,48,271,576,4656
1644154534.843474,-0.010681,0.010681,-0.993469,0.281924,0.310229,-0.024122,42,270,575,4608
1644154534.892294,-0.00946,0.006287,-0.989807,0.205588,0.371298,-0.161527,46,274,564,4672
1644154534.942516,-0.01001,0.009216,-0.992065,0.312458,0.417099,-0.161527,48,274,573,4720
1644154534.990072,-0.012878,0.009644,-0.991821,0.342992,0.340763,0.021679,53,264,566,4592
1644154535.08532,-0.012329,0.009644,-0.99176,0.175053,0.356031,-0.100458,39,269,566,4656
1644154535.133676,-0.012329,0.01062,-0.993225,0.220855,0.447634,-0.115725,51,269,576,4752
1644154535.18206,-0.015259,0.008911,-0.993164,0.190321,0.401832,-0.14626,54,280,570,4640
1644154535.230445,-0.011902,0.009827,-0.99176,0.220855,0.401832,-0.008855,47,273,572,4656
1644154535.278816,-0.009338,0.013245,-0.993286,0.404061,0.493435,-0.115725,51,274,562,4672
1644154535.327237,-0.010315,0.009155,-0.991211,0.46513,0.462901,-0.085191,46,274,559,4608
1644154535.375618,-0.009155,0.010132,-0.98877,0.190321,0.401832,-0.14626,48,271,562,4608
1644154535.424025,-0.011169,0.00946,-0.989807,0.297191,0.493435,-0.176794,48,271,573,4672
1644154535.472399,-0.012756,0.010071,-0.990112,0.312458,0.462901,-0.161527,47,285,565,4608
1644154535.520749,-0.014893,0.006714,-0.991028,0.388794,0.615573,-0.161527,53,276,578,4672
1644154535.569185,-0.012085,0.00946,-0.989136,0.236122,0.356031,-0.130992,51,264,571,4656
1644154535.617526,-0.008972,0.006958,-0.993347,0.297191,0.493435,-0.100458,47,275,575,4656
1644154535.665945,-0.011963,0.009521,-0.992981,0.236122,0.401832,-0.054656,59,268,572,4640
1644154535.714335,-0.012329,0.008118,-0.991516,0.35826,0.447634,-0.130992,53,276,580,4608
1644154535.762698,-0.011536,0.008362,-0.993774,0.052916,0.523969,-0.192061,43,274,573,4576
1644154535.811113,-0.009155,0.008362,-0.990784,0.327725,0.371298,-0.054656,54,275,570,4640
1644154535.859531,-0.01178,0.010437,-0.992981,0.297191,0.417099,-0.085191,52,270,563,4576
1644154535.907952,-0.008789,0.010254,-0.993103,0.312458,0.508702,-0.054656,39,271,578,4704
1644154535.956449,-0.010315,0.010254,-0.992126,0.220855,0.386565,-0.192061,48,271,564,4640
1644154536.004756,-0.013428,0.008057,-0.992249,0.312458,0.615573,-0.192061,49,265,575,4672
1644154536.07526,-0.010132,0.011108,-0.9953,0.220855,0.508702,-0.054656,45,268,579,4640
1644154536.103613,-0.012146,0.008972,-0.992981,0.404061,0.508702,-0.298931,47,275,572,4656
1644154536.150995,-0.011047,0.007935,-0.991577,0.373527,0.325496,-0.161527,42,270,572,4672
1644154536.246558,-0.01001,0.009766,-0.992859,0.236122,0.447634,-0.14626,48,274,566,4672
1644154536.295014,-0.011353,0.007568,-0.989441,0.297191,0.432366,-0.008855,43,269,580,4672
1644154536.343357,-0.010681,0.008728,-0.992432,0.388794,0.356031,-0.100458,43,286,564,4672
1644154536.39169,-0.016174,0.008118,-0.990967,0.129252,0.462901,-0.024122,45,280,570,4608
1644154536.440133,-0.01355,0.007874,-0.991699,0.08345,0.371298,-0.024122,47,265,570,4656
1644154536.488478,-0.010315,0.009583,-0.990479,0.327725,0.585038,-0.130992,57,275,577,4656
1644154536.536898,-0.007507,0.008972,-0.994202,0.251389,0.310229,-0.161527,48,276,573,4640
1644154536.585247,-0.01239,0.008728,-0.993347,0.220855,0.432366,-0.100458,55,276,559,4656
1644154536.633647,-0.014465,0.009216,-0.990173,0.281924,0.432366,-0.008855,53,276,578,4608
1644154536.68206,-0.008301,0.008728,-0.991455,0.144519,0.478168,0.036947,49,270,579,4672
1644154536.730448,-0.013245,0.010437,-0.992371,0.236122,0.493435,0.006412,49,263,570,4656
1644154536.778839,-0.013916,0.008484,-0.994568,0.297191,0.371298,-0.115725,43,276,578,4656
1644154536.827217,-0.01178,0.010071,-0.994202,0.35826,0.447634,0.021679,42,258,570,4656
1644154536.875664,-0.011658,0.007812,-0.992432,0.297191,0.462901,-0.054656,42,273,572,4592
1644154536.924069,-0.013916,0.003418,-0.991577,0.312458,0.478168,-0.100458,42,270,572,4608
1644154536.9724,-0.012634,0.007446,-0.992432,0.297191,0.417099,-0.115725,45,270,579,4672
1644154537.020761,-0.01062,0.008972,-0.992188,0.342992,0.417099,-0.069924,45,268,568,4672
1644154537.08044,-0.013,0.011108,-0.994141,0.175053,0.386565,-0.024122,48,279,573,4656
1644154537.165961,-0.011414,0.006592,-0.990601,0.159786,0.279695,-0.085191,45,263,572,4704
1644154537.214358,-0.013428,0.009399,-0.991577,0.312458,0.554504,-0.176794,48,276,580,4608
1644154537.262713,-0.009705,0.010376,-0.99231,0.419328,0.417099,-0.161527,45,265,570,4704
1644154537.311092,-0.013489,0.007446,-0.992554,0.404061,0.462901,-0.100458,46,271,564,4592
1644154537.35951,-0.011597,0.008057,-0.990906,0.205588,0.401832,-0.161527,42,268,563,4672
1644154537.407902,-0.011475,0.009705,-0.992065,0.251389,0.478168,-0.054656,58,279,573,4656
1644154537.456255,-0.011597,0.010315,-0.99115,0.297191,0.432366,-0.130992,53,271,566,4608
1644154537.504718,-0.011902,0.010071,-0.99176,0.281924,0.478168,-0.069924,55,274,573,4656
1644154537.553068,-0.008911,0.007751,-0.989258,0.129252,0.462901,-0.085191,46,269,564,4656
1644154537.601397,-0.011475,0.007324,-0.992737,0.35826,0.523969,-0.069924,46,271,571,4576
1644154537.649777,-0.013916,0.006287,-0.993103,0.236122,0.401832,-0.039389,51,274,571,4768
1644154537.69822,-0.014648,0.007751,-0.992737,0.129252,0.508702,-0.100458,52,280,570,4608
1644154537.746589,-0.014404,0.006958,-0.992065,0.205588,0.417099,-0.085191,42,273,572,4672
1644154537.795043,-0.013489,0.006714,-0.990906,0.327725,0.462901,-0.237863,49,273,572,4656
1644154537.843334,-0.015198,0.00647,-0.993896,0.266656,0.523969,-0.054656,42,280,561,4656
1644154537.891714,-0.012695,0.00824,-0.99292,0.312458,0.462901,-0.14626,51,274,578,4608
1644154537.940149,-0.014099,0.010925,-0.992004,0.220855,0.356031,-0.085191,57,270,572,4672
1644154537.988476,-0.012695,0.009949,-0.992798,0.175053,0.508702,-0.176794,59,265,558,4640
1644154538.036907,-0.012329,0.01178,-0.993164,0.266656,0.600305,-0.222595,54,263,565,4656
1644154538.090831,-0.011902,0.00824,-0.989075,0.297191,0.310229,-0.14626,46,269,580,4576
1644154538.134227,-0.011108,0.008057,-0.991882,0.388794,0.417099,-0.069924,47,273,575,4720
1644154538.184468,-0.015564,0.011169,-0.989319,0.175053,0.310229,-0.100458,42,273,579,4672
1644154538.231971,-0.011169,0.007568,-0.994263,0.373527,0.478168,-0.14626,49,263,568,4672
1644154538.327242,-0.01123,0.008606,-0.992737,0.327725,0.371298,-0.054656,42,273,572,4656
1644154538.375642,-0.01178,0.008179,-0.993408,0.266656,0.310229,-0.085191,45,275,565,4672
1644154538.424002,-0.012817,0.007385,-0.993469,0.190321,0.447634,-0.085191,51,264,569,4672
1644154538.472399,-0.010803,0.008484,-0.994507,0.175053,0.417099,-0.130992,46,266,573,4656
1644154538.520743,-0.012939,0.007751,-0.99231,0.266656,0.508702,-0.192061,40,275,568,4640
1644154538.569142,-0.013428,0.007019,-0.992188,0.205588,0.325496,-0.222595,38,263,577,4672
1644154538.617536,-0.010803,0.010803,-0.993347,0.129252,0.447634,0.021679,48,274,571,4656
1644154538.665914,-0.014832,0.007874,-0.994507,0.449863,0.523969,-0.161527,40,277,570,4672
1644154538.714302,-0.013733,0.007629,-0.99469,0.404061,0.325496,-0.085191,46,276,569,4672
1644154538.762697,-0.011169,0.008484,-0.992126,0.266656,0.432366,-0.161527,49,282,572,4608
1644154538.811115,-0.01355,0.008972,-0.989685,0.312458,0.417099,-0.161527,49,277,563,4672
1644154538.859491,-0.012939,0.008667,-0.993286,0.312458,0.356031,-0.085191,51,281,573,4720
1644154538.907835,-0.010437,0.01062,-0.993042,0.205588,0.401832,-0.207328,47,275,565,4608
1644154538.956262,-0.011658,0.00824,-0.993225,0.190321,0.432366,-0.130992,48,271,573,4640
1644154539.004711,-0.009216,0.008301,-0.995239,0.388794,0.462901,-0.069924,47,273,582,4656
1644154539.067713,-0.013306,0.006775,-0.990356,0.312458,0.600305,-0.130992,45,275,572,4608
1644154539.101336,-0.010864,0.010742,-0.992859,0.205588,0.401832,-0.024122,43,269,566,4704
1644154539.14976,-0.009888,0.009338,-0.994263,0.159786,0.325496,-0.039389,57,280,577,4608
1644154539.198148,-0.012817,0.010193,-0.993103,0.35826,0.401832,-0.130992,42,277,568,4608
1644154539.246517,-0.008728,0.010925,-0.990845,0.312458,0.462901,-0.237863,46,276,566,4576
1644154539.294894,-0.012451,0.009277,-0.992065,0.281924,0.356031,-0.192061,53,266,569,4656
1644154539.34522,-0.012634,0.008545,-0.991028,0.190321,0.432366,-0.14626,54,277,568,4672
1644154539.392803,-0.01178,0.007935,-0.994019,0.342992,0.371298,-0.115725,43,283,566,4592
1644154539.488448,-0.011963,0.007996,-0.990845,0.35826,0.539237,-0.115725,52,275,563,4608
1644154539.536782,-0.009827,0.009033,-0.991638,0.190321,0.462901,-0.085191,47,280,565,4640
1644154539.585206,-0.012756,0.009094,-0.993774,0.281924,0.356031,-0.192061,55,271,571,4608
1644154539.633605,-0.011414,0.00824,-0.991089,0.205588,0.539237,-0.085191,45,265,570,4608
1644154539.681966,-0.013123,0.009827,-0.990601,0.35826,0.447634,0.052214,48,279,580,4720
1644154539.730406,-0.012756,0.01001,-0.990967,0.251389,0.24916,-0.283664,45,265,565,4608
1644154539.778764,-0.013245,0.008789,-0.991882,0.35826,0.447634,0.12855,47,280,575,4608
1644154539.827195,-0.010193,0.011597,-0.990234,0.281924,0.508702,-0.100458,42,273,563,4592
1644154539.875603,-0.013,0.010864,-0.99054,0.312458,0.417099,-0.100458,52,270,565,4656
1644154539.923951,-0.011719,0.007812,-0.994202,0.175053,0.371298,-0.069924,48,264,564,4704
1644154539.972335,-0.013367,0.011353,-0.991272,0.342992,0.462901,-0.085191,47,270,568,4656
1644154540.020709,-0.009583,0.009644,-0.992004,0.373527,0.432366,-0.024122,48,281,578,4656
1644154540.078392,-0.011597,0.01062,-0.993286,0.281924,0.401832,-0.115725,55,276,564,4608
1644154540.117473,-0.011963,0.009216,-0.994385,0.342992,0.401832,0.067481,45,265,579,4656
1644154540.165827,-0.011719,0.006897,-0.991943,0.388794,0.401832,0.036947,47,277,570,4672
1644154540.214262,-0.011047,0.009949,-0.995056,0.159786,0.356031,-0.207328,58,271,576,4592
1644154540.262635,-0.010315,0.006104,-0.98999,0.281924,0.447634,-0.054656,54,273,579,4576
1644154540.311007,-0.009277,0.006775,-0.989441,0.236122,0.523969,-0.024122,45,270,575,4704
1644154540.359387,-0.010559,0.008484,-0.991455,0.190321,0.508702,-0.115725,49,280,572,4656
1644154540.407781,-0.011963,0.010071,-0.991821,0.342992,0.401832,0.006412,49,270,572,4672
1644154540.457612,-0.011658,0.006653,-0.991211,0.297191,0.432366,-0.069924,55,279,573,4656
1644154540.506124,-0.011475,0.009155,-0.994202,0.404061,0.493435,-0.085191,47,273,584,4592
1644154540.553767,-0.011353,0.010376,-0.993713,0.236122,0.585038,-0.100458,52,277,570,4640
1644154540.6497,-0.010803,0.00946,-0.993958,0.266656,0.310229,-0.161527,46,279,578,4656
1644154540.698109,-0.012024,0.009033,-0.991333,0.175053,0.447634,-0.192061,55,281,569,4672
1644154540.746489,-0.01001,0.009521,-0.992981,0.220855,0.371298,-0.085191,53,279,566,4640
1644154540.794881,-0.011719,0.009399,-0.993713,0.175053,0.585038,-0.100458,46,264,571,4592
1644154540.843342,-0.013916,0.008606,-0.993286,0.266656,0.478168,-0.024122,54,285,565,4768
1644154540.891722,-0.009705,0.006775,-0.992737,0.327725,0.478168,-0.14626,57,275,568,4672
1644154540.940082,-0.012451,0.009644,-0.993835,0.281924,0.325496,-0.039389,51,274,569,4656
1644154540.988453,-0.011047,0.006958,-0.993469,0.35826,0.508702,-0.085191,42,265,565,4656
1644154541.036793,-0.009399,0.011841,-0.993774,0.159786,0.539237,-0.085191,55,262,573,4656
1644154541.085369,-0.013062,0.007446,-0.992615,0.404061,0.615573,-0.222595,48,271,578,4592
1644154541.133652,-0.013794,0.008057,-0.991699,0.312458,0.539237,-0.161527,46,276,571,4592
1644154541.182028,-0.013245,0.009888,-0.994324,0.205588,0.523969,-0.039389,48,281,576,4672
1644154541.23041,-0.010742,0.010559,-0.991577,0.236122,0.417099,-0.14626,41,276,573,4656
1644154541.278766,-0.011353,0.008667,-0.991516,0.251389,0.63084,0.006412,51,281,569,4656
1644154541.327136,-0.012146,0.007812,-0.993042,0.159786,0.432366,-0.069924,55,269,569,4608
1644154541.375571,-0.011902,0.009033,-0.991394,0.297191,0.493435,-0.100458,55,279,578,4608
1644154541.423923,-0.012146,0.007568,-0.99469,0.251389,0.386565,-0.161527,43,274,573,4592
1644154541.473074,-0.011841,0.009033,-0.993408,0.312458,0.493435,-0.176794,55,266,571,4592
1644154541.523365,-0.014343,0.008728,-0.995911,0.251389,0.340763,-0.14626,48,274,566,4592
1644154541.617702,-0.01178,0.009216,-0.992065,0.419328,0.569771,0.021679,48,271,571,4640
1644154541.665825,-0.010681,0.008301,-0.994751,0.251389,0.417099,-0.024122,52,273,568,4592
1644154541.714278,-0.012756,0.010071,-0.991272,0.312458,0.447634,-0.085191,45,280,568,4544
1644154541.762648,-0.008484,0.009277,-0.990784,0.251389,0.294962,-0.085191,51,266,573,4672
1644154541.810999,-0.011169,0.009705,-0.993103,0.205588,0.523969,-0.085191,42,263,568,4672
1644154541.859403,-0.012573,0.009644,-0.990234,0.251389,0.417099,-0.176794,46,264,569,4656
1644154541.907819,-0.011414,0.009155,-0.994995,0.327725,0.447634,-0.14626,53,274,578,4608
1644154541.95616,-0.01123,0.010376,-0.99353,0.190321,0.523969,-0.14626,53,276,562,4576
1644154542.004522,-0.013306,0.008606,-0.99353,0.251389,0.462901,-0.100458,49,273,572,4672
1644154542.065285,-0.009399,0.010864,-0.995239,0.159786,0.417099,0.036947,47,263,579,4656
1644154542.101306,-0.013306,0.006775,-0.9953,0.251389,0.386565,-0.161527,47,273,579,4608
1644154542.149687,-0.01123,0.007996,-0.991333,0.205588,0.356031,-0.14626,47,277,572,4576
1644154542.198101,-0.013611,0.009216,-0.993408,0.342992,0.462901,-0.222595,52,263,575,4704
1644154542.246449,-0.015625,0.010681,-0.989075,0.449863,0.447634,-0.130992,53,283,578,4608
1644154542.294869,-0.008972,0.008179,-0.992493,0.205588,0.462901,0.036947,58,274,566,4656
1644154542.343251,-0.010681,0.007935,-0.992859,0.266656,0.432366,-0.100458,51,274,566,4656
1644154542.391611,-0.009766,0.008606,-0.992065,0.312458,0.401832,-0.100458,48,276,578,4704
1644154542.439998,-0.01416,0.007263,-0.994751,0.297191,0.401832,0.082748,59,273,579,4672
1644154542.488381,-0.014099,0.009521,-0.992432,0.190321,0.508702,-0.207328,51,283,580,4592
1644154542.536774,-0.009521,0.00885,-0.992859,0.327725,0.478168,0.052214,48,283,578,4672
1644154542.586133,-0.010498,0.007996,-0.993225,0.327725,0.462901,-0.100458,43,274,576,4720
1644154542.633726,-0.012634,0.010254,-0.99353,-0.008153,0.356031,-0.176794,47,270,570,4704
1644154542.730331,-0.009583,0.009705,-0.991882,0.373527,0.554504,-0.130992,42,270,577,4656
1644154542.778698,-0.01355,0.009216,-0.994934,0.251389,0.310229,-0.100458,38,277,579,4704
1644154542.827096,-0.012817,0.009583,-0.99176,0.220855,0.310229,0.098015,55,262,580,4672
1644154542.875507,-0.012695,0.009033,-0.989136,0.236122,0.478168,-0.100458,52,277,570,4672
1644154542.923892,-0.013916,0.006958,-0.991394,0.113985,0.401832,-0.130992,53,279,573,4608
1644154542.972279,-0.01123,0.01062,-0.992004,0.388794,0.539237,-0.039389,58,283,571,4672
1644154543.020684,-0.009949,0.008484,-0.99353,0.297191,0.233893,-0.192061,45,268,572,4672
1644154543.070196,-0.011902,0.010803,-0.994324,0.220855,0.508702,-0.161527,53,266,580,4672
1644154543.117368,-0.008911,0.008423,-0.994995,0.373527,0.371298,-0.130992,51,271,573,4608
1644154543.1658,-0.009644,0.009827,-0.991821,0.08345,0.401832,-0.085191,42,270,572,4672
1644154543.214191,-0.008545,0.008606,-0.993103,0.35826,0.447634,-0.161527,52,275,575,4704
1644154543.262585,-0.010864,0.006897,-0.994385,0.190321,0.386565,-0.100458,48,264,573,4656
1644154543.310943,-0.012085,0.008972,-0.989563,0.373527,0.478168,-0.008855,42,277,577,4608
1644154543.359368,-0.011169,0.010132,-0.993103,0.266656,0.508702,-0.115725,54,263,582,4656
1644154543.407728,-0.013855,0.005676,-0.99231,0.342992,0.371298,-0.085191,53,274,578,4672
1644154543.456128,-0.007996,0.012024,-0.99292,0.220855,0.432366,-0.024122,48,269,569,4656
1644154543.504485,-0.010071,0.009949,-0.990967,0.220855,0.417099,-0.100458,51,266,569,4592
1644154543.552903,-0.01062,0.008545,-0.990784,0.129252,0.294962,-0.161527,51,276,578,4704
1644154543.601265,-0.012085,0.008301,-0.993347,0.236122,0.478168,-0.14626,51,274,573,4640
1644154543.649665,-0.008667,0.008362,-0.993958,0.266656,0.356031,-0.344733,45,275,577,4640
1644154543.698014,-0.011597,0.009338,-0.993469,0.35826,0.447634,0.113282,47,273,577,4672
1644154543.747545,-0.011658,0.007141,-0.991821,0.113985,0.371298,0.021679,48,276,564,4672
1644154543.795094,-0.010132,0.009399,-0.992493,0.236122,0.493435,0.052214,52,273,577,4592
1644154543.891665,-0.012146,0.009827,-0.992981,0.35826,0.432366,-0.14626,45,270,565,4672
1644154543.940034,-0.011169,0.008301,-0.991943,0.175053,0.569771,-0.207328,43,266,571,4656
1644154543.988414,-0.012634,0.007507,-0.990662,0.281924,0.340763,-0.115725,53,276,571,4672
1644154544.036795,-0.01532,0.009644,-0.996338,0.251389,0.401832,-0.176794,52,265,577,4592
1644154544.085301,-0.011719,0.00946,-0.99292,0.297191,0.371298,-0.039389,43,269,585,4592
1644154544.133565,-0.00946,0.007935,-0.993225,0.312458,0.462901,-0.207328,47,268,572,4656
1644154544.181917,-0.012939,0.008972,-0.989685,0.35826,0.401832,-0.100458,57,277,572,4608
1644154544.230302,-0.012634,0.008667,-0.99353,0.388794,0.447634,-0.100458,41,276,569,4592
1644154544.278682,-0.010681,0.010376,-0.991577,0.129252,0.310229,-0.115725,39,266,573,4656
1644154544.327085,-0.015503,0.007996,-0.99231,0.236122,0.447634,-0.100458,39,271,569,4672
1644154544.375432,-0.012329,0.009155,-0.993225,0.205588,0.417099,-0.130992,47,268,570,4656
1644154544.423831,-0.011719,0.005493,-0.991333,0.190321,0.294962,-0.130992,42,277,577,4640
1644154544.472227,-0.014648,0.00824,-0.991577,0.404061,0.447634,-0.161527,45,265,565,4704
1644154544.520632,-0.012512,0.009338,-0.993958,0.404061,0.279695,-0.085191,46,283,573,4640
1644154544.569003,-0.009155,0.010193,-0.993774,0.510931,0.340763,-0.024122,47,268,575,4656
1644154544.617358,-0.010132,0.008667,-0.992249,0.251389,0.615573,-0.100458,46,269,571,4656
1644154544.665792,-0.010864,0.010071,-0.990723,0.236122,0.523969,-0.085191,58,271,573,4704
1644154544.714161,-0.011047,0.009705,-0.992554,0.35826,0.356031,-0.085191,45,275,568,4592
1644154544.762563,-0.009827,0.008057,-0.993225,0.113985,0.569771,-0.115725,43,279,573,4592
1644154544.810927,-0.015015,0.008667,-0.991638,0.388794,0.508702,0.021679,43,269,580,4608
1644154544.859403,-0.010071,0.007202,-0.992493,0.312458,0.264427,-0.237863,43,276,555,4592
1644154544.90985,-0.012268,0.007263,-0.991028,0.35826,0.432366,0.006412,59,275,568,4656
1644154544.957373,-0.013,0.007874,-0.990723,0.190321,0.371298,0.082748,35,277,570,4608
1644154545.064259,-0.013733,0.008545,-0.99408,0.312458,0.554504,-0.024122,57,275,568,4672
1644154545.101325,-0.009949,0.010376,-0.99176,0.175053,0.478168,-0.024122,51,276,571,4672
1644154545.149713,-0.012451,0.010925,-0.99115,0.251389,0.493435,-0.329466,48,264,569,4656
1644154545.198047,-0.009644,0.009033,-0.98938,0.281924,0.523969,-0.115725,39,269,564,4704
1644154545.246425,-0.009033,0.005554,-0.992188,0.190321,0.493435,-0.024122,49,270,565,4768
1644154545.294848,-0.011047,0.012024,-0.990723,0.220855,0.325496,-0.085191,57,268,572,4672
1644154545.343235,-0.011475,0.010559,-0.993103,0.159786,0.493435,-0.039389,49,268,563,4608
1644154545.391628,-0.012634,0.007507,-0.99115,0.251389,0.432366,-0.115725,48,271,571,4656
1644154545.440045,-0.012451,0.009033,-0.991211,0.327725,0.478168,0.021679,60,269,573,4656
1644154545.48838,-0.014771,0.008789,-0.992615,0.236122,0.386565,0.052214,42,277,572,4656
1644154545.53678,-0.008789,0.010803,-0.989624,0.159786,0.478168,-0.115725,52,260,570,4656
1644154545.58522,-0.01239,0.009521,-0.99176,0.129252,0.462901,-0.130992,58,269,578,4640
1644154545.633524,-0.010498,0.007263,-0.98999,0.205588,0.462901,0.006412,45,275,565,4656
1644154545.681923,-0.011658,0.010864,-0.992371,0.205588,0.585038,0.006412,53,266,585,4656
1644154545.730326,-0.01062,0.008789,-0.993164,0.373527,0.417099,-0.176794,57,260,568,4592
1644154545.780729,-0.014282,0.009949,-0.994385,0.312458,0.523969,-0.207328,45,255,575,4720
1644154545.828127,-0.012573,0.00708,-0.992676,0.327725,0.447634,-0.085191,52,270,570,4672
1644154545.92382,-0.013306,0.009583,-0.994629,0.266656,0.478168,-0.039389,46,276,571,4656
1644154545.972252,-0.011597,0.006226,-0.991821,0.220855,0.356031,-0.25313,49,268,572,4576
1644154546.02061,-0.011963,0.009277,-0.996033,0.220855,0.417099,-0.14626,41,262,573,4656
1644154546.069062,-0.012146,0.007935,-0.994385,0.297191,0.432366,-0.130992,51,271,580,4608
1644154546.117428,-0.010376,0.011475,-0.992798,0.236122,0.447634,-0.176794,47,273,575,4672
1644154546.165767,-0.010437,0.010925,-0.991638,0.281924,0.310229,-0.14626,41,279,571,4592
1644154546.21425,-0.012573,0.009155,-0.992493,0.236122,0.478168,-0.130992,53,274,566,4656
1644154546.262565,-0.012268,0.007568,-0.992554,0.281924,0.417099,-0.100458,53,276,566,4672
1644154546.310933,-0.012695,0.00946,-0.991211,0.35826,0.356031,0.036947,47,268,570,4656
1644154546.359322,-0.008606,0.010559,-0.994629,0.144519,0.218626,-0.100458,42,277,575,4576
1644154546.407741,-0.011536,0.009277,-0.993652,0.266656,0.386565,-0.054656,46,266,569,4704
1644154546.456116,-0.015381,0.008911,-0.992615,0.129252,0.432366,0.021679,49,268,568,4656
1644154546.504453,-0.012756,0.011108,-0.991028,0.251389,0.310229,-0.069924,54,273,582,4656
1644154546.552896,-0.011169,0.009033,-0.993835,0.175053,0.478168,-0.100458,49,277,570,4672
1644154546.601254,-0.013611,0.007935,-0.994812,0.35826,0.371298,-0.100458,49,282,565,4608
1644154546.649649,-0.013245,0.00769,-0.99231,0.220855,0.432366,-0.115725,42,277,582,4576
1644154546.698053,-0.010315,0.008545,-0.991882,0.281924,0.447634,-0.115725,51,274,578,4640
1644154546.746424,-0.008484,0.008118,-0.990845,0.35826,0.417099,-0.069924,46,266,569,4608
1644154546.794816,-0.012939,0.007996,-0.993286,0.327725,0.615573,-0.100458,47,273,572,4608
1644154546.8432,-0.010864,0.01123,-0.990234,0.236122,0.356031,-0.100458,55,281,566,4608
1644154546.892268,-0.012024,0.010193,-0.991333,0.236122,0.432366,-0.161527,47,280,575,4576
1644154546.942561,-0.012085,0.008545,-0.992188,0.251389,0.417099,-0.115725,48,271,573,4576
1644154547.036711,-0.011719,0.008118,-0.992065,0.281924,0.478168,-0.069924,53,266,576,4608
1644154547.085156,-0.012695,0.008484,-0.992676,0.159786,0.523969,-0.14626,55,274,573,4640
1644154547.13348,-0.011963,0.011475,-0.990234,0.266656,0.371298,-0.176794,51,266,573,4656
1644154547.181854,-0.010742,0.008911,-0.994507,0.312458,0.478168,-0.069924,45,265,570,4672
1644154547.23026,-0.010803,0.007874,-0.993774,0.175053,0.493435,-0.100458,53,271,571,4576
1644154547.278621,-0.010864,0.00946,-0.99469,0.220855,0.233893,-0.130992,42,263,582,4720
1644154547.326997,-0.011169,0.010376,-0.990662,0.113985,0.462901,-0.085191,51,269,576,4608
1644154547.375409,-0.00824,0.011047,-0.995178,0.312458,0.478168,-0.222595,49,275,570,4672
1644154547.42381,-0.012817,0.008728,-0.992432,0.327725,0.478168,-0.130992,47,275,579,4656
1644154547.472203,-0.012268,0.009216,-0.992798,0.312458,0.447634,-0.115725,49,265,572,4656
1644154547.520537,-0.009521,0.012573,-0.990662,0.404061,0.386565,-0.039389,52,277,568,4592
1644154547.568974,-0.009216,0.009705,-0.991211,0.251389,0.508702,-0.039389,49,270,575,4672
1644154547.617346,-0.011292,0.011475,-0.99115,0.251389,0.371298,-0.344733,54,268,568,4608
1644154547.665731,-0.010193,0.008057,-0.992371,0.327725,0.340763,-0.25313,46,264,576,4608
1644154547.714124,-0.011169,0.009094,-0.992859,0.175053,0.386565,-0.024122,52,275,572,4592
1644154547.762493,-0.012939,0.008484,-0.992859,0.388794,0.447634,0.021679,47,265,565,4608
1644154547.810897,-0.011353,0.008301,-0.994385,0.220855,0.417099,-0.039389,42,277,572,4608
1644154547.859326,-0.011475,0.011658,-0.990356,0.220855,0.340763,-0.024122,46,271,569,4768
1644154547.907661,-0.012939,0.00824,-0.990051,0.251389,0.493435,-0.207328,57,275,579,4576
1644154547.956098,-0.016602,0.007507,-0.99231,0.113985,0.401832,-0.100458,43,274,566,4672
1644154548.063405,-0.013184,0.007324,-0.990417,0.236122,0.371298,-0.085191,49,273,575,4608
1644154548.101249,-0.010803,0.00946,-0.99231,0.388794,0.417099,-0.024122,45,270,586,4672
1644154548.149597,-0.012451,0.007019,-0.995239,0.205588,0.523969,-0.039389,52,270,582,4656
1644154548.198015,-0.013794,0.011047,-0.992493,0.144519,0.401832,0.098015,54,268,575,4656
1644154548.246357,-0.01062,0.010071,-0.993042,0.159786,0.371298,-0.039389,45,275,577,4672
1644154548.294778,-0.010864,0.010315,-0.992554,0.281924,0.432366,-0.115725,55,274,576,4720
1644154548.343187,-0.012512,0.009338,-0.991943,0.266656,0.539237,-0.192061,54,270,563,4672
1644154548.391574,-0.009949,0.007812,-0.992065,0.46513,0.569771,-0.054656,43,269,580,4672
1644154548.439937,-0.010864,0.008911,-0.993896,0.297191,0.386565,-0.14626,45,273,575,4720
1644154548.488338,-0.01062,0.008728,-0.991455,0.190321,0.401832,-0.14626,54,273,577,4672
1644154548.536732,-0.013611,0.009277,-0.993103,0.495664,0.386565,-0.207328,47,268,568,4656
1644154548.585161,-0.012268,0.010742,-0.992493,0.205588,0.371298,-0.069924,51,271,578,4592
1644154548.633488,-0.010925,0.010986,-0.992065,0.251389,0.539237,-0.268397,51,269,583,4592
1644154548.681872,-0.010864,0.009216,-0.991455,0.175053,0.432366,-0.298931,47,270,575,4608
1644154548.73024,-0.013428,0.006958,-0.992859,0.220855,0.417099,0.006412,59,270,579,4640
1644154548.78009,-0.013672,0.008179,-0.991943,0.373527,0.401832,-0.115725,49,273,575,4704
1644154548.827303,-0.012634,0.008911,-0.992432,0.312458,0.325496,-0.115725,47,275,575,4656
1644154548.923807,-0.014099,0.00824,-0.991211,0.159786,0.417099,-0.115725,52,282,568,4672
1644154548.972226,-0.010376,0.007263,-0.992371,0.113985,0.401832,-0.176794,46,274,569,4640
1644154549.020556,-0.013794,0.008789,-0.992126,0.281924,0.432366,-0.115725,58,274,576,4672
1644154549.068998,-0.013611,0.011475,-0.990906,0.312458,0.432366,-0.085191,51,281,571,4608
1644154549.117349,-0.012634,0.006958,-0.991211,0.205588,0.478168,-0.100458,45,277,563,4656
1644154549.16568,-0.010132,0.008667,-0.99231,0.342992,0.539237,-0.085191,45,275,565,4656
1644154549.214053,-0.013184,0.011108,-0.992126,0.205588,0.340763,-0.14626,51,269,569,4752
1644154549.262469,-0.009155,0.008667,-0.991333,0.388794,0.356031,-0.069924,42,280,568,4672
1644154549.310834,-0.012329,0.010559,-0.989075,0.35826,0.356031,-0.192061,55,266,569,4704
1644154549.359264,-0.011108,0.010071,-0.992737,0.175053,0.401832,-0.237863,52,270,568,4608
1644154549.407593,-0.01178,0.010803,-0.991882,0.159786,0.432366,-0.085191,48,276,569,4640
1644154549.456034,-0.012817,0.007996,-0.995422,0.159786,0.340763,-0.14626,53,274,569,4592
1644154549.504407,-0.010925,0.007507,-0.992432,0.098718,0.417099,-0.085191,46,269,566,4656
1644154549.552794,-0.01355,0.011353,-0.992615,0.205588,0.462901,-0.100458,52,273,575,4672
1644154549.601187,-0.010315,0.01062,-0.987854,0.251389,0.386565,-0.115725,40,277,575,4672
1644154549.649575,-0.011536,0.011169,-0.988159,0.175053,0.539237,-0.14626,52,273,568,4672
1644154549.697955,-0.011841,0.010681,-0.991211,0.342992,0.401832,-0.130992,46,269,562,4608
1644154549.746323,-0.011353,0.006348,-0.991882,0.190321,0.478168,-0.024122,53,269,564,4672
1644154549.794729,-0.012634,0.008606,-0.991028,0.297191,0.417099,-0.161527,49,268,568,4656
1644154549.843129,-0.010681,0.01123,-0.992371,0.175053,0.508702,-0.237863,54,270,570,4640
1644154549.891797,-0.012512,0.012756,-0.992188,0.251389,0.417099,-0.283664,42,263,570,4640
1644154549.942073,-0.008667,0.008911,-0.992859,0.327725,0.462901,-0.25313,52,268,575,4640
1644154549.989553,-0.011353,0.01001,-0.992371,0.205588,0.432366,-0.14626,53,274,573,4656
1644154550.085135,-0.01239,0.00769,-0.990906,0.052916,0.523969,-0.085191,54,263,575,4576
1644154550.133483,-0.01355,0.008179,-0.992737,0.297191,0.356031,-0.161527,43,266,564,4720
1644154550.181918,-0.011841,0.009216,-0.993042,0.251389,0.401832,-0.024122,49,265,577,4656
1644154550.230211,-0.011719,0.008484,-0.990356,0.175053,0.508702,0.006412,45,277,568,4656
1644154550.278618,-0.010193,0.005798,-0.992676,0.297191,0.371298,-0.069924,41,271,569,4656
1644154550.326974,-0.010132,0.007568,-0.991394,0.35826,0.493435,-0.115725,53,269,569,4720
1644154550.375371,-0.01062,0.008545,-0.994812,0.220855,0.478168,-0.176794,39,269,576,4672
1644154550.4238,-0.012939,0.005432,-0.991333,0.144519,0.417099,-0.054656,46,271,559,4656
1644154550.472165,-0.012024,0.010498,-0.992188,0.190321,0.371298,-0.207328,52,280,582,4640
1644154550.520548,-0.011536,0.007874,-0.993774,0.251389,0.356031,-0.069924,54,273,565,4672
1644154550.568904,-0.014343,0.007263,-0.993652,0.159786,0.462901,-0.115725,49,258,577,4640
1644154550.617336,-0.013123,0.008972,-0.989868,0.342992,0.401832,-0.039389,45,275,579,4768
1644154550.66567,-0.014099,0.007141,-0.993225,0.297191,0.478168,-0.069924,61,263,579,4592
1644154550.714627,-0.013794,0.007019,-0.993164,0.205588,0.523969,-0.008855,41,274,571,4592
1644154550.764799,-0.009155,0.009155,-0.991699,0.526198,0.432366,-0.176794,42,268,575,4672
1644154550.812281,-0.01001,0.008362,-0.991211,0.144519,0.340763,-0.237863,43,274,559,4704
1644154550.907658,-0.00946,0.010254,-0.99176,0.297191,0.493435,-0.130992,39,276,569,4656
1644154550.956007,-0.011536,0.010559,-0.990173,0.480397,0.340763,-0.100458,48,274,576,4608
1644154551.004435,-0.01178,0.010132,-0.991882,0.266656,0.340763,-0.069924,46,274,576,4656
1644154551.063389,-0.012451,0.00647,-0.992004,0.236122,0.432366,0.036947,49,275,572,4704
1644154551.101172,-0.012939,0.008911,-0.992188,0.190321,0.294962,-0.115725,47,277,572,4656
1644154551.149578,-0.010864,0.009216,-0.993591,0.46513,0.417099,-0.115725,57,268,568,4656
1644154551.197977,-0.012085,0.008972,-0.994019,0.129252,0.386565,0.021679,48,274,571,4656
1644154551.246301,-0.012146,0.006958,-0.98999,0.373527,0.294962,-0.222595,49,285,568,4592
1644154551.294785,-0.01239,0.008667,-0.994324,0.281924,0.325496,-0.268397,41,276,566,4656
1644154551.343132,-0.010986,0.006897,-0.993652,0.113985,0.24916,-0.115725,47,273,572,4608
1644154551.391535,-0.011169,0.010193,-0.990662,0.35826,0.493435,-0.222595,59,273,577,4656
1644154551.439912,-0.011353,0.006958,-0.993164,0.312458,0.417099,-0.161527,58,274,562,4704
1644154551.488279,-0.012817,0.007202,-0.99115,0.266656,0.478168,-0.14626,49,273,572,4656
1644154551.536678,-0.016602,0.010071,-0.991516,0.144519,0.356031,0.006412,40,280,579,4576
1644154551.585112,-0.010986,0.008057,-0.995667,0.159786,0.447634,-0.283664,49,277,570,4656
1644154551.633423,-0.010681,0.005859,-0.991882,0.266656,0.386565,-0.085191,43,266,573,4656
1644154551.68181,-0.010376,0.010803,-0.990967,0.281924,0.462901,-0.069924,42,273,568,4576
1644154551.730203,-0.012329,0.009827,-0.993958,0.220855,0.340763,-0.161527,47,277,570,4672
1644154551.779788,-0.012634,0.007812,-0.991821,0.236122,0.447634,-0.054656,49,285,575,4656
1644154551.827001,-0.013245,0.009583,-0.99231,0.266656,0.523969,-0.024122,45,275,565,4656
1644154551.92378,-0.01123,0.006836,-0.989258,0.175053,0.447634,-0.054656,40,273,577,4656
1644154551.972268,-0.014832,0.006775,-0.988831,0.35826,0.585038,-0.100458,43,271,571,4608
1644154552.02051,-0.011353,0.00708,-0.990234,0.373527,0.417099,0.006412,38,268,570,4672
1644154552.068972,-0.010254,0.009216,-0.992554,0.35826,0.386565,-0.039389,53,281,569,4656
1644154552.117286,-0.013733,0.008484,-0.991882,0.312458,0.432366,0.021679,51,283,578,4720
1644154552.165639,-0.010681,0.008118,-0.993469,0.251389,0.371298,-0.100458,49,275,570,4672
1644154552.214096,-0.010193,0.009277,-0.993469,0.205588,0.325496,-0.130992,54,273,563,4672
1644154552.262438,-0.009888,0.009766,-0.990173,0.266656,0.157557,-0.115725,52,265,565,4576
1644154552.310842,-0.013367,0.008667,-0.990906,0.281924,0.401832,0.052214,39,262,576,4784
1644154552.359213,-0.011414,0.008789,-0.990784,0.297191,0.508702,-0.115725,45,280,563,4608
1644154552.407642,-0.012268,0.010986,-0.99176,0.220855,0.462901,-0.085191,43,274,576,4784
1644154552.456023,-0.013245,0.009338,-0.992737,0.068183,0.462901,-0.130992,36,274,573,4672
1644154552.504398,-0.011902,0.008911,-0.99054,0.175053,0.478168,-0.054656,40,275,568,4672
1644154552.552792,-0.013,0.008545,-0.991211,0.373527,0.294962,-0.176794,47,270,565,4656
1644154552.601171,-0.008972,0.006042,-0.989929,0.297191,0.539237,-0.207328,59,270,572,4592
1644154552.649554,-0.01239,0.007996,-0.990967,0.281924,0.386565,-0.054656,39,271,562,4672
1644154552.697955,-0.009888,0.010254,-0.992188,0.205588,0.279695,-0.100458,42,270,565,4608
1644154552.746303,-0.013062,0.011108,-0.990967,0.205588,0.325496,-0.161527,40,270,570,4608
1644154552.794713,-0.013428,0.009949,-0.993896,0.35826,0.478168,-0.085191,54,282,570,4592
1644154552.843103,-0.012573,0.009399,-0.991333,0.266656,0.462901,-0.069924,51,271,566,4656
1644154552.891928,-0.012817,0.009888,-0.992737,0.175053,0.462901,-0.039389,42,275,570,4656
1644154552.942312,-0.012451,0.009338,-0.99408,0.190321,0.523969,-0.14626,43,274,569,4656
1644154552.989732,-0.010315,0.008911,-0.993042,0.281924,0.462901,-0.100458,49,277,570,4656
1644154553.085104,-0.009155,0.00885,-0.992371,0.159786,0.508702,-0.130992,47,268,577,4576
1644154553.133353,-0.011353,0.010071,-0.992737,0.281924,0.356031,-0.161527,41,274,559,4672
1644154553.181752,-0.013611,0.007996,-0.992737,0.281924,0.447634,0.098015,42,270,570,4656
1644154553.23016,-0.013489,0.010925,-0.992859,0.220855,0.294962,-0.008855,43,257,564,4784
1644154553.278506,-0.011658,0.009094,-0.991638,0.144519,0.539237,0.021679,49,268,572,4656
1644154553.326923,-0.011414,0.011597,-0.99054,0.190321,0.294962,-0.115725,47,275,575,4672
1644154553.375302,-0.009705,0.010925,-0.995178,0.159786,0.432366,-0.298931,39,274,562,4672
1644154553.423709,-0.014526,0.008423,-0.992554,0.144519,0.585038,-0.024122,52,280,568,4656
1644154553.472084,-0.011475,0.009094,-0.992737,0.220855,0.478168,-0.161527,45,263,563,4672
1644154553.520468,-0.012329,0.007751,-0.992065,0.281924,0.356031,-0.054656,48,266,569,4608
1644154553.568859,-0.011597,0.012024,-0.991821,0.205588,0.294962,0.021679,52,268,575,4672
1644154553.617212,-0.012085,0.01001,-0.991333,0.281924,0.401832,-0.192061,57,273,575,4640
1644154553.665632,-0.012695,0.008057,-0.993774,0.434595,0.417099,-0.069924,48,271,576,4672
1644154553.714019,-0.014954,0.007935,-0.99353,0.251389,0.508702,-0.176794,49,263,570,4656
1644154553.762391,-0.011719,0.00708,-0.99115,0.297191,0.386565,0.006412,57,277,572,4608
1644154553.810853,-0.011841,0.00885,-0.99176,0.144519,0.340763,-0.054656,53,279,576,4656
1644154553.859244,-0.012817,0.009216,-0.99353,0.327725,0.371298,-0.130992,53,276,578,4576
1644154553.907571,-0.013733,0.008362,-0.98938,0.281924,0.310229,-0.069924,49,263,577,4720
1644154553.955989,-0.01416,0.010498,-0.993103,0.08345,0.386565,-0.130992,47,273,565,4672
1644154554.004344,-0.009949,0.010315,-0.994629,0.098718,0.417099,-0.069924,42,265,568,4784
1644154554.073015,-0.013184,0.008911,-0.992554,0.297191,0.554504,-0.161527,58,274,576,4672
1644154554.103309,-0.012634,0.008972,-0.988708,0.220855,0.447634,0.021679,55,276,576,4704
1644154554.150506,-0.008362,0.009399,-0.991089,0.205588,0.401832,-0.115725,52,268,570,4640
1644154554.24623,-0.013794,0.009338,-0.993958,0.220855,0.371298,-0.176794,46,269,566,4608
1644154554.294668,-0.012024,0.009888,-0.990723,0.297191,0.478168,-0.069924,40,265,570,4672
1644154554.343038,-0.014465,0.007751,-0.991699,0.297191,0.386565,-0.024122,58,279,571,4640
1644154554.391415,-0.013611,0.007874,-0.993652,0.220855,0.264427,-0.024122,45,265,568,4592
1644154554.439795,-0.009399,0.010498,-0.990295,0.236122,0.478168,-0.085191,45,282,570,4608
1644154554.488155,-0.012939,0.00824,-0.99292,0.266656,0.294962,-0.024122,52,265,579,4656
1644154554.536553,-0.011841,0.007935,-0.992615,0.266656,0.432366,-0.130992,43,274,571,4672
1644154554.585014,-0.011841,0.010803,-0.991516,0.205588,0.432366,-0.024122,41,269,578,4672
1644154554.633332,-0.012512,0.007812,-0.99176,0.175053,0.279695,-0.008855,48,274,573,4608
1644154554.681734,-0.007812,0.011047,-0.995728,0.144519,0.447634,-0.008855,53,269,585,4672
1644154554.730137,-0.010437,0.008545,-0.995605,0.205588,0.279695,-0.115725,45,280,579,4544
1644154554.778517,-0.014099,0.009399,-0.99231,0.388794,0.462901,-0.024122,35,280,568,4672
1644154554.826955,-0.009705,0.007507,-0.995056,0.266656,0.386565,-0.054656,48,276,576,4656
1644154554.875318,-0.009888,0.006775,-0.994141,0.404061,0.478168,-0.222595,36,269,578,4720
1644154554.923696,-0.011597,0.010254,-0.993469,0.404061,0.325496,-0.054656,40,275,575,4608
1644154554.97214,-0.010315,0.008545,-0.993469,0.312458,0.508702,-0.161527,49,265,582,4672
1644154555.020443,-0.012573,0.009033,-0.992798,0.236122,0.539237,-0.130992,46,271,571,4576
1644154555.088286,-0.016296,0.007751,-0.991577,0.190321,0.523969,-0.085191,49,273,572,4608
1644154555.165557,-0.012878,0.008118,-0.994019,0.190321,0.447634,0.021679,42,275,572,4672
1644154555.213998,-0.011292,0.004333,-0.991699,0.251389,0.478168,-0.085191,42,268,568,4656
1644154555.262345,-0.010437,0.009033,-0.991211,0.373527,0.417099,-0.100458,41,269,580,4672
1644154555.310713,-0.012207,0.008545,-0.992615,0.251389,0.356031,-0.008855,45,270,582,4656
1644154555.359092,-0.011475,0.010071,-0.992188,0.220855,0.554504,-0.14626,39,274,576,4672
1644154555.40752,-0.012451,0.009338,-0.991943,0.35826,0.462901,-0.100458,48,271,576,4672
1644154555.455895,-0.012634,0.011719,-0.992004,0.297191,0.356031,-0.008855,49,275,570,4640
1644154555.50424,-0.014648,0.007874,-0.994324,0.373527,0.401832,-0.14626,51,276,569,4656
1644154555.552695,-0.012878,0.007751,-0.991333,0.35826,0.401832,-0.100458,53,274,573,4656
1644154555.601075,-0.012878,0.008972,-0.991089,0.266656,0.600305,-0.14626,49,270,572,4576
1644154555.649457,-0.012512,0.003784,-0.991455,0.373527,0.432366,-0.069924,45,273,570,4672
1644154555.697819,-0.011719,0.010071,-0.992188,0.144519,0.569771,-0.024122,45,273,572,4672
1644154555.746226,-0.013062,0.01062,-0.993408,0.159786,0.325496,-0.130992,43,274,569,4672
1644154555.79463,-0.016418,0.011536,-0.98999,0.266656,0.539237,-0.069924,49,273,565,4592
1644154555.843034,-0.010254,0.008484,-0.992554,0.388794,0.447634,-0.161527,48,276,569,4672
1644154555.891443,-0.01123,0.006409,-0.992859,0.236122,0.432366,-0.192061,53,264,573,4720
1644154555.939818,-0.009644,0.007202,-0.992188,0.388794,0.401832,-0.054656,52,270,577,4704
1644154555.98821,-0.011719,0.007996,-0.990601,0.297191,0.340763,-0.176794,51,271,580,4608
1644154556.036548,-0.010437,0.007935,-0.994812,0.266656,0.371298,0.113282,52,275,565,4528
1644154556.086151,-0.012939,0.008057,-0.993591,0.266656,0.371298,0.067481,45,277,579,4672
1644154556.133572,-0.013428,0.01001,-0.994629,0.113985,0.371298,0.006412,41,271,573,4720
1644154556.184003,-0.009888,0.004211,-0.989929,0.297191,0.539237,0.006412,45,270,568,4608
1644154556.232977,-0.011597,0.007263,-0.991272,0.297191,0.401832,-0.237863,48,283,573,4608
1644154556.326923,-0.010742,0.013855,-0.992615,0.08345,0.218626,0.021679,41,264,566,4672
1644154556.375265,-0.013123,0.013123,-0.992493,0.327725,0.462901,-0.008855,52,275,565,4656
1644154556.423758,-0.013062,0.005798,-0.991333,0.144519,0.478168,-0.024122,49,270,568,4576
1644154556.472035,-0.012634,0.005615,-0.98822,0.342992,0.508702,-0.222595,55,266,569,4656
1644154556.520439,-0.011414,0.009766,-0.991394,0.266656,0.478168,-0.176794,49,282,572,4656
1644154556.568807,-0.010803,0.010925,-0.993103,0.266656,0.401832,-0.085191,46,276,562,4592
1644154556.617234,-0.012634,0.00824,-0.992615,0.266656,0.401832,-0.069924,48,274,576,4656
1644154556.665619,-0.015686,0.008972,-0.993103,0.205588,0.462901,-0.192061,45,270,565,4704
1644154556.713985,-0.012085,0.013,-0.990601,0.327725,0.447634,-0.192061,51,276,566,4672
1644154556.762357,-0.012878,0.010376,-0.991699,0.266656,0.508702,-0.008855,54,270,575,4704
1644154556.810789,-0.012268,0.007812,-0.991943,0.251389,0.417099,-0.069924,46,276,578,4592
1644154556.859116,-0.01355,0.009888,-0.990906,0.129252,0.294962,-0.024122,52,282,577,4672
1644154556.907559,-0.009949,0.007935,-0.991455,0.159786,0.462901,-0.161527,49,275,575,4592
1644154556.955877,-0.010681,0.008423,-0.990723,0.266656,0.478168,-0.069924,61,273,575,4608
1644154557.004314,-0.014282,0.008362,-0.99176,0.175053,0.539237,-0.207328,45,273,575,4672
1644154557.064636,-0.011047,0.006592,-0.993103,0.312458,0.386565,-0.100458,53,269,583,4608
1644154557.101068,-0.014221,0.005554,-0.993225,0.266656,0.493435,0.006412,38,265,568,4656
1644154557.14941,-0.010254,0.007202,-0.994019,0.113985,0.508702,-0.237863,53,264,571,4768
1644154557.197827,-0.011658,0.011902,-0.992126,0.281924,0.462901,-0.207328,40,273,575,4656
1644154557.246162,-0.011169,0.010864,-0.990356,0.205588,0.615573,-0.207328,48,274,571,4656
1644154557.295417,-0.011475,0.009155,-0.99176,0.404061,0.401832,-0.085191,48,271,576,4608
1644154557.345496,-0.01062,0.008972,-0.992493,0.129252,0.401832,-0.039389,45,270,568,4640
1644154557.439785,-0.011047,0.011292,-0.991028,0.281924,0.386565,-0.176794,54,270,568,4720
1644154557.488106,-0.011353,0.014771,-0.995422,0.175053,0.401832,-0.176794,42,273,570,4608
1644154557.536493,-0.013977,0.013672,-0.990601,0.129252,0.386565,-0.069924,45,268,575,4672
1644154557.584906,-0.01123,0.006042,-0.992065,0.266656,0.401832,-0.161527,46,271,564,4656
1644154557.633308,-0.012085,0.011047,-0.994629,0.205588,0.294962,-0.130992,57,270,575,4672
1644154557.681695,-0.010864,0.011292,-0.992737,0.175053,0.569771,-0.237863,46,262,566,4608
1644154557.730078,-0.00885,0.010315,-0.990112,0.236122,0.24916,-0.115725,51,262,571,4704
1644154557.778443,-0.011353,0.009338,-0.992798,0.129252,0.462901,-0.176794,48,271,566,4608
1644154557.826823,-0.010254,0.009094,-0.992676,0.175053,0.493435,-0.054656,47,275,575,4576
1644154557.875345,-0.01239,0.007996,-0.991516,0.251389,0.325496,-0.039389,48,274,569,4656
1644154557.923671,-0.012451,0.011047,-0.989746,0.251389,0.371298,-0.237863,48,283,564,4656
1644154557.972013,-0.010986,0.005798,-0.992004,0.342992,0.478168,-0.085191,41,276,576,4672
1644154558.020382,-0.011047,0.01062,-0.991943,0.266656,0.401832,-0.039389,41,264,576,4672
1644154558.088793,-0.011292,0.008667,-0.992004,0.220855,0.386565,-0.039389,52,268,577,4576
1644154558.117213,-0.011536,0.009033,-0.991943,0.266656,0.325496,-0.024122,57,277,570,4656
1644154558.165537,-0.01239,0.009888,-0.992188,0.236122,0.432366,-0.237863,49,277,575,4576
1644154558.213923,-0.01355,0.01355,-0.99408,0.281924,0.462901,-0.115725,54,275,563,4656
1644154558.262326,-0.010132,0.008667,-0.993164,0.297191,0.569771,0.052214,43,283,564,4592
1644154558.310665,-0.010803,0.009521,-0.994202,0.236122,0.188092,-0.283664,41,281,564,4656
1644154558.359076,-0.009521,0.010376,-0.990051,0.434595,0.554504,-0.314198,42,270,572,4704
1644154558.407753,-0.011536,0.010315,-0.993103,0.281924,0.523969,-0.024122,43,274,562,4608
1644154558.458029,-0.013489,0.007324,-0.990601,0.129252,0.462901,-0.039389,51,269,564,4720
1644154558.552653,-0.010559,0.008789,-0.991638,0.205588,0.371298,-0.237863,51,281,569,4672
1644154558.601018,-0.010559,0.013428,-0.991577,0.327725,0.539237,-0.008855,49,258,568,4656
1644154558.649353,-0.012939,0.010803,-0.992371,0.388794,0.493435,0.082748,48,266,573,4608
1644154558.697789,-0.012939,0.007874,-0.991882,0.281924,0.63084,-0.207328,53,271,564,4608
1644154558.746176,-0.010864,0.009216,-0.989929,0.220855,0.401832,-0.024122,45,275,568,4608
1644154558.794616,-0.010986,0.009094,-0.991455,0.434595,0.386565,-0.237863,52,270,572,4608
1644154558.842986,-0.01178,0.009888,-0.992126,0.205588,0.371298,-0.176794,53,271,566,4656
1644154558.891345,-0.010559,0.008423,-0.995483,0.159786,0.447634,-0.039389,57,273,568,4608
1644154558.939782,-0.010681,0.006775,-0.991638,0.175053,0.523969,-0.115725,57,277,565,4640
1644154558.988151,-0.015747,0.008789,-0.990967,0.251389,0.310229,-0.161527,45,275,561,4656
1644154559.036556,-0.012512,0.011719,-0.991394,0.266656,0.462901,-0.069924,51,274,566,4656
1644154559.085857,-0.010986,0.006714,-0.99115,0.205588,0.417099,-0.039389,47,275,568,4672
1644154559.133319,-0.012634,0.011169,-0.992798,0.373527,0.310229,-0.14626,48,276,569,4672
1644154559.181702,-0.010742,0.00708,-0.990784,0.175053,0.310229,-0.115725,45,275,572,4608
1644154559.230089,-0.011841,0.008179,-0.994202,0.236122,0.371298,-0.161527,49,275,579,4592
1644154559.278438,-0.015442,0.007568,-0.99115,0.266656,0.493435,-0.130992,49,277,572,4608
1644154559.326867,-0.01062,0.008118,-0.993164,0.312458,0.600305,-0.207328,43,276,559,4656
1644154559.375297,-0.012939,0.009705,-0.994019,0.281924,0.432366,-0.008855,48,264,571,4656
1644154559.423607,-0.012634,0.006714,-0.992371,0.35826,0.340763,-0.237863,49,275,579,4608
1644154559.473449,-0.012939,0.009399,-0.991577,0.266656,0.371298,-0.008855,59,268,577,4768
1644154559.521017,-0.012207,0.008179,-0.989685,0.251389,0.462901,-0.222595,51,279,566,4592
1644154559.617171,-0.012512,0.008118,-0.991699,0.052916,0.478168,-0.207328,51,269,573,4656
1644154559.665548,-0.010315,0.009277,-0.992981,0.266656,0.493435,-0.039389,48,271,566,4704
1644154559.713922,-0.012146,0.009949,-0.990479,0.266656,0.478168,0.006412,46,271,562,4672
1644154559.76233,-0.010559,0.009094,-0.99353,0.35826,0.386565,-0.161527,43,281,559,4672
1644154559.810716,-0.010681,0.007996,-0.990967,0.281924,0.371298,-0.039389,53,276,573,4592
1644154559.859118,-0.012146,0.008789,-0.993408,0.297191,0.417099,-0.207328,49,275,572,4672
1644154559.907427,-0.010315,0.012512,-0.993835,0.052916,0.371298,0.143817,38,275,575,4608
1644154559.955888,-0.015015,0.010681,-0.993652,0.236122,0.401832,-0.085191,40,277,554,4656
1644154560.004274,-0.014099,0.008545,-0.991882,0.327725,0.478168,-0.085191,54,285,568,4576
1644154560.067103,-0.009338,0.009766,-0.991638,0.144519,0.493435,-0.054656,52,265,570,4592
1644154560.100992,-0.011597,0.007874,-0.99176,0.266656,0.447634,-0.192061,46,274,580,4672
1644154560.149446,-0.010864,0.008423,-0.99231,0.220855,0.478168,0.098015,46,269,573,4576
1644154560.197775,-0.009399,0.009216,-0.991394,0.159786,0.386565,0.082748,53,262,576,4592
1644154560.246187,-0.01062,0.008484,-0.994019,0.281924,0.371298,-0.039389,48,269,578,4656
1644154560.294552,-0.013916,0.011108,-0.989624,0.251389,0.386565,-0.176794,42,282,570,4672
1644154560.342985,-0.012878,0.010193,-0.99176,0.220855,0.356031,-0.14626,42,282,577,4656
1644154560.391301,-0.009949,0.010925,-0.991882,0.297191,0.401832,-0.115725,51,279,573,4656
1644154560.439741,-0.014526,0.005554,-0.990662,0.281924,0.478168,-0.085191,47,280,577,4672
1644154560.488069,-0.012451,0.009216,-0.993042,0.297191,0.356031,0.006412,54,277,570,4656
1644154560.53644,-0.012878,0.009216,-0.99231,0.297191,0.478168,-0.161527,48,276,578,4656
1644154560.585403,-0.008301,0.009094,-0.989258,0.281924,0.554504,-0.268397,41,269,571,4704
1644154560.635643,-0.012207,0.009399,-0.98938,0.327725,0.432366,-0.085191,64,270,561,4720
1644154560.682988,-0.010681,0.011292,-0.992859,0.190321,0.432366,-0.100458,49,277,565,4608
1644154560.778444,-0.011658,0.008545,-0.991028,0.251389,0.371298,-0.176794,45,265,570,4656
1644154560.826804,-0.009766,0.007263,-0.992126,0.068183,0.356031,-0.100458,46,271,564,4608
1644154560.87521,-0.010071,0.009705,-0.993713,0.236122,0.478168,-0.069924,42,280,575,4672
1644154560.923605,-0.013123,0.008972,-0.994019,0.220855,0.325496,-0.069924,46,274,562,4656
1644154560.971968,-0.013245,0.010864,-0.992981,0.175053,0.310229,-0.237863,46,262,571,4672
1644154561.02037,-0.013672,0.008301,-0.99231,0.281924,0.340763,-0.115725,51,269,566,4656
1644154561.0688,-0.011475,0.011475,-0.992249,0.266656,0.432366,-0.069924,43,269,576,4656
1644154561.117101,-0.00885,0.006531,-0.992676,0.129252,0.478168,-0.039389,46,279,573,4608
1644154561.165459,-0.014404,0.008362,-0.990295,0.159786,0.508702,-0.115725,58,269,573,4656
1644154561.213893,-0.010315,0.011597,-0.991028,0.281924,0.569771,-0.008855,53,271,569,4656
1644154561.262272,-0.010742,0.007385,-0.992859,0.236122,0.386565,-0.176794,48,276,569,4592
1644154561.310642,-0.010559,0.011169,-0.990417,0.08345,0.523969,-0.14626,47,268,575,4656
1644154561.359051,-0.015259,0.00769,-0.992615,0.281924,0.340763,-0.115725,53,269,569,4768
1644154561.407428,-0.012146,0.010803,-0.990906,0.190321,0.325496,-0.100458,46,274,580,4704
1644154561.455805,-0.011353,0.008301,-0.991272,0.327725,0.462901,0.021679,45,263,563,4656
1644154561.504197,-0.01178,0.009216,-0.990356,0.205588,0.539237,0.036947,49,273,558,4656
1644154561.552586,-0.011047,0.009094,-0.995728,0.297191,0.432366,-0.115725,49,273,575,4640
1644154561.600977,-0.016174,0.009766,-0.990967,0.419328,0.310229,-0.222595,45,273,570,4656
1644154561.649343,-0.012573,0.006958,-0.991577,0.312458,0.24916,-0.161527,54,275,575,4656
1644154561.697724,-0.008789,0.007507,-0.992859,0.190321,0.356031,-0.100458,43,266,578,4608
1644154561.746083,-0.011475,0.007568,-0.991455,0.175053,0.233893,0.006412,45,270,579,4608
1644154561.79631,-0.012878,0.007629,-0.992493,0.266656,0.371298,-0.024122,45,270,572,4656
1644154561.844225,-0.011414,0.008484,-0.99353,0.342992,0.417099,-0.222595,51,266,564,4576
1644154561.939713,-0.012817,0.008301,-0.991455,0.312458,0.432366,-0.085191,45,273,577,4720
1644154561.988081,-0.013672,0.009155,-0.994751,0.236122,0.401832,-0.222595,49,268,565,4672
1644154562.036448,-0.010803,0.009094,-0.991394,0.220855,0.447634,-0.176794,51,276,566,4672
1644154562.08603,-0.014038,0.009155,-0.993164,0.342992,0.432366,-0.069924,54,273,565,4720
1644154562.133211,-0.010986,0.008301,-0.989929,0.251389,0.462901,-0.115725,47,270,577,4656
1644154562.181604,-0.012939,0.00946,-0.994019,0.052916,0.462901,-0.161527,46,274,573,4672
1644154562.22997,-0.013916,0.007751,-0.993408,0.144519,0.417099,-0.176794,51,269,569,4656
1644154562.278365,-0.013123,0.00824,-0.991211,0.205588,0.356031,-0.039389,42,270,582,4672
1644154562.326746,-0.010681,0.00885,-0.989502,0.113985,0.233893,-0.115725,51,271,569,4592
1644154562.375203,-0.011902,0.004333,-0.993408,0.266656,0.539237,-0.069924,51,259,580,4608
1644154562.423545,-0.011658,0.006897,-0.993591,0.190321,0.325496,-0.161527,45,268,575,4656
1644154562.471903,-0.013672,0.009216,-0.991089,0.236122,0.478168,-0.054656,46,279,573,4592
1644154562.520297,-0.013733,0.008362,-0.992493,0.266656,0.432366,-0.024122,54,263,575,4656
1644154562.568668,-0.009338,0.008057,-0.991821,0.08345,0.356031,-0.161527,42,275,563,4608
1644154562.617086,-0.009338,0.007812,-0.991638,0.312458,0.371298,-0.054656,45,285,575,4656
1644154562.665469,-0.014526,0.007263,-0.990723,0.297191,0.279695,-0.161527,52,273,572,4608
1644154562.71384,-0.011292,0.007385,-0.991882,0.327725,0.447634,0.006412,42,277,563,4672
1644154562.76224,-0.011353,0.008606,-0.992981,0.281924,0.386565,-0.176794,54,258,572,4672
1644154562.810619,-0.011414,0.01062,-0.991516,0.236122,0.325496,-0.054656,47,273,572,4656
1644154562.85903,-0.010986,0.00946,-0.993225,0.266656,0.417099,-0.115725,42,270,568,4672
1644154562.907537,-0.012695,0.008972,-0.988647,0.297191,0.508702,-0.176794,46,274,578,4656
1644154562.957814,-0.01239,0.008911,-0.990784,0.144519,0.294962,-0.14626,54,277,572,4656
1644154563.064013,-0.008972,0.009155,-0.992188,0.388794,0.493435,-0.039389,47,268,570,4672
1644154563.100977,-0.010193,0.009399,-0.993225,0.175053,0.432366,-0.085191,54,275,577,4672
1644154563.14933,-0.009521,0.00946,-0.990601,0.312458,0.539237,-0.115725,46,266,569,4672
1644154563.19773,-0.01123,0.008911,-0.994629,0.236122,0.478168,-0.008855,51,269,573,4608
1644154563.246081,-0.011414,0.007507,-0.994995,0.281924,0.386565,-0.192061,52,270,551,4656
1644154563.294486,-0.013123,0.007324,-0.991577,0.236122,0.356031,-0.069924,43,279,569,4608
1644154563.342883,-0.013306,0.010986,-0.993652,0.281924,0.401832,-0.207328,45,273,565,4576
1644154563.391261,-0.013672,0.008179,-0.991516,0.175053,0.523969,-0.054656,46,276,576,4656
1644154563.43965,-0.01239,0.008545,-0.993713,0.281924,0.569771,-0.054656,47,273,563,4672
1644154563.487998,-0.012024,0.009644,-0.989319,0.297191,0.294962,-0.039389,51,269,573,4640
1644154563.536417,-0.013794,0.008179,-0.992859,0.297191,0.447634,-0.008855,43,281,569,4576
1644154563.584801,-0.013184,0.009521,-0.990479,0.190321,0.569771,-0.039389,55,264,580,4656
1644154563.633174,-0.012329,0.007446,-0.990784,0.251389,0.203359,-0.130992,48,259,571,4672
1644154563.681537,-0.012085,0.005737,-0.992737,0.297191,0.478168,-0.008855,39,269,571,4592
1644154563.729952,-0.012146,0.007812,-0.991943,0.297191,0.233893,-0.176794,52,280,572,4576
1644154563.779455,-0.011536,0.006714,-0.994263,0.251389,0.356031,-0.192061,52,277,565,4656
1644154563.827975,-0.008789,0.009155,-0.992004,0.144519,0.310229,-0.085191,52,277,568,4672
1644154563.923522,-0.008789,0.009155,-0.992493,0.113985,0.401832,-0.161527,42,277,568,4672
1644154563.971939,-0.009705,0.008362,-0.989136,0.312458,0.493435,-0.130992,57,270,568,4672
1644154564.020301,-0.012573,0.006104,-0.99231,0.220855,0.523969,-0.100458,53,276,580,4656
1644154564.068748,-0.01416,0.009705,-0.991394,0.159786,0.478168,-0.008855,52,277,568,4608
1644154564.117059,-0.008911,0.010437,-0.992126,0.190321,0.569771,-0.008855,52,273,565,4656
1644154564.165473,-0.015808,0.007141,-0.994568,0.220855,0.417099,-0.024122,46,281,564,4672
1644154564.213884,-0.012024,0.00824,-0.992676,0.251389,0.417099,-0.024122,41,274,569,4656
1644154564.262258,-0.009827,0.006714,-0.991638,0.388794,0.508702,-0.115725,41,266,566,4656
1644154564.3106,-0.015259,0.008789,-0.995361,0.297191,0.508702,-0.069924,52,273,570,4672
1644154564.359041,-0.012512,0.009583,-0.992554,0.312458,0.539237,-0.085191,52,265,577,4656
1644154564.407411,-0.012512,0.009583,-0.992615,0.266656,0.432366,-0.024122,42,277,572,4672
1644154564.455846,-0.012939,0.009399,-0.989685,0.251389,0.462901,-0.054656,51,266,573,4672
1644154564.504209,-0.010986,0.00824,-0.991272,0.205588,0.356031,-0.085191,43,271,573,4656
1644154564.552585,-0.009644,0.006775,-0.992065,0.373527,0.493435,-0.085191,46,274,566,4656
1644154564.60097,-0.011597,0.009766,-0.995728,0.159786,0.462901,-0.054656,52,270,570,4656
1644154564.649323,-0.013367,0.007629,-0.991272,0.35826,0.371298,-0.14626,43,279,569,4656
1644154564.69773,-0.013,0.004395,-0.992676,0.190321,0.371298,-0.054656,51,276,573,4656
1644154564.746095,-0.011841,0.008728,-0.991272,0.205588,0.356031,-0.100458,40,273,575,4704
1644154564.794486,-0.01178,0.007141,-0.992126,0.236122,0.523969,-0.039389,48,279,571,4768
1644154564.8429,-0.011169,0.010376,-0.994873,0.251389,0.493435,-0.085191,49,265,579,4656
1644154564.892038,-0.010681,0.006775,-0.992798,0.46513,0.386565,-0.115725,51,274,569,4784
1644154564.942351,-0.011047,0.007446,-0.991394,0.281924,0.523969,-0.14626,54,277,565,4704
1644154565.036418,-0.01123,0.008179,-0.991455,0.266656,0.371298,0.052214,46,274,564,4672
1644154565.086775,-0.010376,0.009399,-0.992371,0.190321,0.508702,-0.054656,48,262,578,4672
1644154565.133192,-0.013489,0.007935,-0.993591,0.297191,0.340763,-0.115725,49,275,572,4704
1644154565.18154,-0.011047,0.009277,-0.991943,0.159786,0.447634,-0.100458,53,269,552,4656
1644154565.229939,-0.009644,0.008606,-0.991943,0.175053,0.523969,-0.222595,45,275,570,4656
1644154565.278303,-0.01123,0.007324,-0.992065,0.159786,0.462901,-0.14626,46,266,564,4672
1644154565.326718,-0.010925,0.009399,-0.991821,0.236122,0.386565,-0.069924,47,268,565,4608
1644154565.375111,-0.012939,0.007751,-0.991333,0.236122,0.523969,-0.14626,52,280,565,4640
1644154565.423471,-0.013,0.007751,-0.991394,0.129252,0.386565,-0.100458,40,265,563,4576
1644154565.471881,-0.011414,0.010437,-0.994202,0.266656,0.432366,-0.192061,39,271,559,4672
1644154565.520227,-0.012512,0.009888,-0.993042,0.236122,0.508702,-0.054656,57,277,568,4608
1644154565.568637,-0.012634,0.00824,-0.99231,0.205588,0.264427,0.082748,46,269,569,4672
1644154565.617037,-0.013611,0.008789,-0.993042,0.175053,0.462901,-0.314198,40,273,575,4656
1644154565.665424,-0.011902,0.008606,-0.993958,0.281924,0.325496,-0.024122,49,270,568,4656
1644154565.713805,-0.01355,0.01001,-0.992676,0.404061,0.462901,-0.054656,48,269,571,4592
1644154565.762174,-0.010437,0.00824,-0.991455,0.312458,0.569771,0.021679,41,279,559,4608
1644154565.810579,-0.008423,0.008118,-0.993042,0.205588,0.508702,-0.085191,49,282,572,4672
1644154565.858975,-0.011414,0.008667,-0.991638,0.281924,0.264427,-0.069924,52,277,570,4576
1644154565.907375,-0.012268,0.006348,-0.99054,0.205588,0.325496,-0.100458,47,268,568,4640
1644154565.955729,-0.012085,0.007507,-0.993225,0.266656,0.340763,-0.008855,48,283,562,4656
1644154566.004154,-0.009888,0.009583,-0.990662,0.144519,0.508702,0.052214,48,274,571,4592
1644154566.079561,-0.012451,0.005554,-0.993469,0.312458,0.508702,-0.024122,59,268,565,4608
1644154566.10193,-0.012329,0.008362,-0.992615,0.342992,0.417099,-0.039389,58,276,576,4608
1644154566.197684,-0.010437,0.008057,-0.992859,0.281924,0.340763,0.006412,40,280,575,4672
1644154566.246046,-0.011414,0.00885,-0.993286,0.251389,0.401832,-0.008855,47,270,570,4592
1644154566.294473,-0.014099,0.008911,-0.993835,0.312458,0.371298,-0.207328,52,275,575,4656
1644154566.342873,-0.01001,0.006287,-0.99353,0.281924,0.493435,-0.024122,60,279,571,4608
1644154566.391238,-0.012451,0.007507,-0.98999,0.129252,0.340763,-0.115725,47,273,572,4608
1644154566.439607,-0.012024,0.007385,-0.992371,0.297191,0.432366,-0.130992,45,270,568,4576
1644154566.487981,-0.012573,0.00824,-0.991333,0.113985,0.401832,-0.14626,46,274,571,4656
1644154566.536404,-0.011475,0.007568,-0.991028,0.251389,0.279695,-0.069924,52,265,565,4656
1644154566.584811,-0.010437,0.009521,-0.992798,0.129252,0.371298,-0.115725,41,274,569,4672
1644154566.633154,-0.013672,0.011841,-0.991638,0.190321,0.478168,-0.085191,53,264,573,4576
1644154566.681526,-0.010803,0.010803,-0.991699,0.220855,0.478168,-0.130992,45,263,575,4672
1644154566.729921,-0.011353,0.01178,-0.994324,0.327725,0.493435,-0.130992,45,270,563,4608
1644154566.778303,-0.013733,0.01062,-0.992798,0.281924,0.356031,-0.024122,49,280,577,4592
1644154566.826699,-0.012146,0.010803,-0.991089,0.220855,0.386565,-0.14626,43,279,566,4640
1644154566.875117,-0.010986,0.008606,-0.993286,0.190321,0.340763,-0.039389,47,268,568,4672
1644154566.92351,-0.010437,0.007812,-0.992737,0.297191,0.478168,-0.115725,43,269,576,4592
1644154566.971839,-0.011475,0.009949,-0.991577,0.342992,0.539237,-0.054656,46,271,569,4640
1644154567.020282,-0.010498,0.008545,-0.994385,0.281924,0.386565,-0.207328,46,274,571,4672
1644154567.089893,-0.012634,0.009216,-0.993103,0.388794,0.569771,-0.14626,35,270,572,4672
1644154567.16538,-0.01178,0.01001,-0.992188,0.297191,0.600305,-0.085191,46,279,559,4752
1644154567.213801,-0.013428,0.011047,-0.992249,0.373527,0.340763,0.006412,46,269,571,4656
1644154567.262203,-0.014587,0.008728,-0.992432,0.251389,0.386565,-0.14626,53,283,576,4592
