epoch,acc_x,acc_y,acc_z,rot_x,rot_y,rot_z,mag_x,mag_y,mag_z,temp
1644191400.068498,-0.007812,0.011047,-0.991211,0.159786,0.310229,-0.085191,49,282,591,6224
1644191400.102269,-0.007874,0.007141,-0.993408,0.373527,0.340763,-0.14626,41,283,587,6256
1644191400.149893,-0.00708,0.009827,-0.99231,0.205588,0.554504,-0.130992,55,274,573,6224
1644191400.19832,-0.006104,0.012146,-0.99176,0.175053,0.508702,-0.298931,39,281,592,6192
1644191400.246685,-0.010315,0.009033,-0.993408,0.342992,0.325496,0.067481,46,276,590,6240
1644191400.295207,-0.005493,0.008972,-0.991699,0.342992,0.356031,0.052214,52,287,591,6240
1644191400.343488,-0.008911,0.010681,-0.990845,0.266656,0.371298,-0.100458,55,274,592,6224
1644191400.391893,-0.009033,0.006897,-0.992981,0.35826,0.325496,-0.024122,45,287,584,6192
1644191400.440288,-0.008484,0.010681,-0.990906,0.068183,0.340763,-0.161527,47,280,586,6224
1644191400.488715,-0.007385,0.010254,-0.992249,0.052916,0.340763,-0.085191,58,283,580,6256
1644191400.53707,-0.008057,0.010437,-0.992554,0.342992,0.310229,-0.130992,48,274,590,6160
1644191400.585801,-0.010376,0.008179,-0.990234,0.129252,0.111756,0.006412,55,274,592,6224
1644191400.636537,-0.009827,0.01001,-0.992126,0.266656,0.340763,-0.069924,54,270,589,6160
1644191400.686368,-0.006348,0.008545,-0.990295,0.175053,0.340763,-0.008855,58,286,580,6224
1644191400.731416,-0.013,0.006531,-0.989136,0.159786,0.447634,-0.039389,55,274,594,6224
1644191400.827452,-0.010681,0.011047,-0.991333,0.08345,0.478168,-0.085191,54,270,584,6240
1644191400.875846,-0.009277,0.010315,-0.991577,0.098718,0.432366,-0.161527,51,279,576,6176
1644191400.924224,-0.006409,0.007385,-0.991394,0.236122,0.493435,-0.085191,52,270,586,6256
1644191400.972659,-0.005615,0.00824,-0.990051,0.190321,0.401832,-0.008855,49,275,577,6224
1644191401.021008,-0.008362,0.009155,-0.993469,0.220855,0.340763,-0.222595,54,287,582,6224
1644191401.07446,-0.010437,0.010071,-0.991882,0.113985,0.279695,-0.054656,39,276,587,6224
1644191401.117814,-0.008179,0.010071,-0.99176,0.266656,0.478168,-0.115725,49,273,586,6304
1644191401.166169,-0.00824,0.011353,-0.991455,0.159786,0.325496,-0.008855,47,263,582,6304
1644191401.214605,-0.00415,0.01123,-0.989197,0.266656,0.493435,0.006412,58,276,590,6176
1644191401.262974,-0.007812,0.01001,-0.992676,0.266656,0.462901,-0.085191,47,280,577,6240
1644191401.311332,-0.00647,0.007996,-0.991638,0.220855,0.401832,0.006412,46,291,583,6240
1644191401.359731,-0.01001,0.008118,-0.990417,0.08345,0.432366,0.006412,53,279,590,6192
1644191401.408133,-0.007751,0.007019,-0.992981,0.129252,0.325496,0.067481,52,270,579,6192
1644191401.456534,-0.006592,0.01001,-0.992371,0.236122,0.356031,-0.069924,46,269,583,6192
1644191401.504906,-0.011536,0.011902,-0.990356,0.205588,0.417099,-0.069924,47,277,570,6192
1644191401.55333,-0.010559,0.010193,-0.99176,0.159786,0.340763,-0.069924,55,271,587,6240
1644191401.601711,-0.008545,0.012024,-0.988464,0.205588,0.325496,-0.192061,52,270,584,6256
1644191401.650098,-0.007568,0.010315,-0.991272,0.236122,0.493435,-0.14626,59,277,589,6192
1644191401.698488,-0.009766,0.009888,-0.991821,0.068183,0.340763,-0.14626,47,273,577,6192
1644191401.746912,-0.009216,0.008667,-0.992554,0.236122,0.401832,-0.176794,41,276,592,6224
1644191401.797301,-0.008301,0.008423,-0.990173,0.281924,0.508702,-0.161527,45,268,586,6224
1644191401.848191,-0.006348,0.010376,-0.989929,0.159786,0.401832,-0.14626,46,276,587,6240
1644191401.892986,-0.009705,0.012695,-0.989685,0.175053,0.432366,-0.176794,49,282,584,6240
1644191401.988916,-0.007935,0.01178,-0.991028,0.35826,0.386565,-0.207328,51,279,585,6240
1644191402.037296,-0.006897,0.012085,-0.99054,0.175053,0.462901,-0.14626,53,266,585,6224
1644191402.085805,-0.007202,0.010559,-0.990723,0.052916,0.478168,-0.115725,53,276,592,6288
1644191402.134089,-0.010742,0.009277,-0.988831,0.35826,0.386565,-0.161527,53,269,590,6192
1644191402.182452,-0.007751,0.00885,-0.991699,0.190321,0.569771,0.052214,55,271,590,6256
1644191402.23082,-0.010132,0.010071,-0.992371,0.144519,0.294962,-0.054656,46,276,590,6256
1644191402.279196,-0.007019,0.00708,-0.993164,0.190321,0.493435,-0.039389,45,265,589,6240
1644191402.327613,-0.008667,0.010437,-0.99231,0.236122,0.462901,-0.054656,43,264,580,6240
1644191402.376009,-0.008423,0.008301,-0.991638,0.159786,0.264427,-0.314198,46,281,580,6240
1644191402.424419,-0.009583,0.011414,-0.994324,0.190321,0.493435,-0.024122,49,273,584,6256
1644191402.472775,-0.007385,0.008606,-0.99231,0.08345,0.478168,-0.008855,54,275,579,6256
1644191402.521154,-0.010681,0.009094,-0.990845,0.205588,0.340763,-0.039389,52,273,584,6240
1644191402.569571,-0.007812,0.00824,-0.991882,0.175053,0.188092,-0.115725,58,279,576,6304
1644191402.617971,-0.010559,0.011536,-0.99408,0.251389,0.401832,-0.069924,41,281,587,6192
1644191402.666347,-0.009766,0.013,-0.991089,0.35826,0.447634,0.052214,45,277,589,6192
1644191402.714856,-0.010437,0.013306,-0.991516,0.251389,0.401832,-0.115725,53,279,583,6192
1644191402.763156,-0.008972,0.011292,-0.990356,0.052916,0.432366,-0.237863,51,271,573,6240
1644191402.811534,-0.008301,0.009949,-0.993164,0.297191,0.386565,0.067481,55,271,590,6256
1644191402.860451,-0.010132,0.008606,-0.991028,0.190321,0.493435,-0.130992,54,282,579,6256
1644191402.910312,-0.009521,0.010376,-0.992371,0.220855,0.417099,-0.024122,49,285,584,6240
1644191402.960602,-0.007141,0.005859,-0.993225,0.113985,0.478168,-0.130992,38,273,589,6256
1644191403.062269,-0.007385,0.01062,-0.987793,0.281924,0.279695,-0.039389,51,274,580,6224
1644191403.102007,-0.00647,0.010254,-0.991516,0.236122,0.447634,-0.115725,43,279,597,6160
1644191403.150336,-0.008118,0.009399,-0.991577,0.236122,0.401832,-0.024122,48,271,590,6240
1644191403.19869,-0.012451,0.01123,-0.992432,0.190321,0.157557,-0.100458,51,279,590,6256
1644191403.247051,-0.008118,0.008911,-0.994019,0.220855,0.478168,-0.039389,59,270,584,6224
1644191403.29545,-0.011475,0.009216,-0.992249,0.205588,0.417099,-0.008855,39,276,583,6240
1644191403.343878,-0.006897,0.009277,-0.993835,0.236122,0.386565,-0.069924,48,281,580,6224
1644191403.392286,-0.008057,0.009094,-0.992676,0.113985,0.386565,-0.222595,47,282,577,6240
1644191403.440657,-0.007996,0.010803,-0.991028,0.220855,0.462901,-0.115725,40,268,589,6240
1644191403.489331,-0.007019,0.008789,-0.987671,0.190321,0.310229,0.021679,46,279,594,6288
1644191403.537438,-0.010071,0.007874,-0.992432,0.281924,0.371298,-0.085191,60,276,585,6240
1644191403.585834,-0.010559,0.009583,-0.992249,0.205588,0.447634,-0.024122,49,273,584,6224
1644191403.634217,-0.009277,0.009216,-0.990356,0.266656,0.447634,-0.14626,51,279,587,6192
1644191403.682896,-0.008484,0.008362,-0.990173,0.159786,0.401832,0.036947,53,274,587,6240
1644191403.731009,-0.005005,0.009094,-0.989746,0.312458,0.462901,-0.176794,55,274,580,6160
1644191403.780485,-0.010559,0.010437,-0.993958,0.175053,0.325496,-0.237863,55,276,592,6224
1644191403.830849,-0.006531,0.012756,-0.991333,0.159786,0.340763,-0.283664,53,281,585,6224
1644191403.882066,-0.00824,0.005127,-0.991821,0.404061,0.401832,-0.085191,42,275,589,6224
1644191403.973024,-0.008728,0.012329,-0.992859,0.205588,0.417099,-0.085191,42,268,582,6224
1644191404.021396,-0.008423,0.009827,-0.99353,0.312458,0.417099,0.036947,53,286,578,6240
1644191404.07099,-0.011292,0.009521,-0.989502,0.205588,0.401832,-0.054656,51,274,578,6224
1644191404.118178,-0.009094,0.007874,-0.988647,0.190321,0.233893,-0.115725,57,273,589,6160
1644191404.166564,-0.009338,0.009277,-0.992798,0.327725,0.386565,-0.085191,55,283,573,6288
1644191404.215015,-0.006714,0.007874,-0.994202,0.129252,0.417099,-0.069924,45,277,582,6240
1644191404.263376,-0.007874,0.008362,-0.991821,0.068183,0.508702,-0.100458,49,285,579,6224
1644191404.311741,-0.010071,0.010925,-0.991821,0.251389,0.432366,0.036947,47,265,582,6176
1644191404.360153,-0.00769,0.011414,-0.991211,0.297191,0.493435,-0.222595,47,277,589,6192
1644191404.408534,-0.007507,0.006897,-0.992554,0.098718,0.294962,-0.008855,47,277,579,6240
1644191404.45697,-0.009277,0.006348,-0.992798,0.281924,0.493435,-0.268397,59,282,591,6128
1644191404.505383,-0.008423,0.009155,-0.993347,0.449863,0.356031,-0.161527,57,275,589,6224
1644191404.553734,-0.009399,0.010376,-0.991272,0.144519,0.417099,-0.054656,58,264,583,6192
1644191404.602248,-0.009766,0.010437,-0.988953,0.068183,0.340763,-0.115725,51,276,576,6288
1644191404.65051,-0.008118,0.008606,-0.994568,0.236122,0.279695,-0.222595,49,273,577,6224
1644191404.698881,-0.009094,0.00885,-0.992188,0.098718,0.432366,-0.100458,57,282,582,6224
1644191404.747276,-0.01001,0.010193,-0.992126,0.144519,0.310229,-0.039389,47,277,591,6240
1644191404.795784,-0.008789,0.011047,-0.992615,0.312458,0.478168,-0.192061,66,277,584,6240
1644191404.84467,-0.008484,0.008667,-0.993591,0.281924,0.401832,-0.039389,62,271,585,6224
1644191404.894509,-0.00824,0.008545,-0.99176,0.098718,0.478168,0.082748,52,285,584,6240
1644191404.944097,-0.006348,0.008789,-0.990967,0.190321,0.371298,-0.054656,49,275,584,6224
1644191404.994692,-0.007629,0.009521,-0.989624,0.190321,0.432366,-0.085191,55,279,578,6240
1644191405.039138,-0.005432,0.008545,-0.991821,0.236122,0.356031,0.067481,49,280,579,6176
1644191405.134408,-0.008057,0.011597,-0.98999,0.236122,0.585038,-0.069924,57,268,579,6176
1644191405.182798,-0.009216,0.009644,-0.989319,0.297191,0.386565,0.098015,55,276,580,6160
1644191405.23119,-0.008972,0.010376,-0.994385,0.312458,0.523969,0.067481,42,277,582,6240
1644191405.279573,-0.010498,0.009216,-0.994507,0.144519,0.401832,-0.069924,45,275,586,6256
1644191405.327979,-0.008057,0.010254,-0.993958,0.175053,0.417099,0.036947,43,276,571,6192
1644191405.376344,-0.007202,0.006287,-0.991577,0.281924,0.157557,-0.039389,48,288,590,6256
1644191405.424765,-0.009399,0.012268,-0.990967,0.236122,0.371298,0.006412,47,280,591,6192
1644191405.473178,-0.007568,0.007507,-0.994141,0.052916,0.432366,-0.207328,47,290,577,6240
1644191405.521559,-0.005798,0.007324,-0.991455,0.144519,0.233893,-0.054656,57,287,589,6224
1644191405.569941,-0.009399,0.006714,-0.991699,0.236122,0.493435,-0.039389,40,277,579,6240
1644191405.618326,-0.008423,0.00885,-0.991028,0.312458,0.401832,0.021679,59,282,591,6176
1644191405.666726,-0.008301,0.009155,-0.991211,0.190321,0.554504,-0.222595,58,279,587,6224
1644191405.715236,-0.009399,0.007751,-0.988464,0.205588,0.523969,-0.14626,46,274,590,6240
1644191405.763507,-0.007629,0.012634,-0.993164,0.404061,0.279695,-0.085191,52,277,582,6256
1644191405.811962,-0.011475,0.007263,-0.992676,0.190321,0.371298,-0.100458,49,270,577,6192
1644191405.860342,-0.009766,0.008789,-0.990662,0.129252,0.340763,-0.207328,54,277,591,6240
1644191405.90874,-0.008606,0.010559,-0.991455,0.266656,0.508702,-0.054656,49,277,584,6224
1644191405.957124,-0.009216,0.006531,-0.992737,0.175053,0.432366,-0.100458,43,274,587,6288
1644191406.00578,-0.006409,0.008728,-0.991028,0.220855,0.462901,-0.069924,52,275,589,6160
1644191406.07274,-0.008545,0.007263,-0.991577,0.159786,0.417099,-0.115725,48,274,585,6240
1644191406.109053,-0.009399,0.010681,-0.99176,0.190321,0.493435,0.082748,48,288,592,6288
1644191406.154675,-0.008606,0.012756,-0.994019,0.297191,0.401832,-0.054656,53,276,576,6240
1644191406.199852,-0.006775,0.008484,-0.993591,0.281924,0.401832,-0.085191,49,280,575,6192
1644191406.295822,-0.00885,0.010132,-0.992859,0.35826,0.371298,-0.039389,47,273,586,6256
1644191406.344244,-0.007019,0.011169,-0.994141,0.175053,0.417099,-0.085191,43,279,580,6224
1644191406.392647,-0.010132,0.011841,-0.990173,0.266656,0.356031,0.052214,48,274,583,6160
1644191406.441008,-0.00885,0.012024,-0.992004,0.052916,0.386565,-0.085191,45,280,582,6224
1644191406.489425,-0.009644,0.008423,-0.989807,0.388794,0.294962,-0.039389,48,271,590,6176
1644191406.537801,-0.008728,0.009583,-0.992126,0.175053,0.264427,-0.054656,45,285,579,6224
1644191406.586179,-0.009827,0.008057,-0.991699,0.327725,0.371298,-0.085191,58,274,590,6192
1644191406.634623,-0.008667,0.008911,-0.992981,0.281924,0.523969,-0.054656,49,277,591,6240
1644191406.682992,-0.007263,0.010315,-0.992493,0.281924,0.279695,0.036947,46,274,585,6240
1644191406.731378,-0.007507,0.010864,-0.990417,0.190321,0.432366,0.021679,48,271,583,6240
1644191406.779764,-0.009338,0.00885,-0.989197,0.190321,0.569771,-0.192061,53,266,592,6224
1644191406.828199,-0.006531,0.009399,-0.990906,0.266656,0.554504,-0.283664,55,276,576,6224
1644191406.876564,-0.009155,0.006958,-0.992249,0.113985,0.447634,-0.237863,49,268,572,6192
1644191406.925038,-0.012268,0.010254,-0.993896,0.052916,0.478168,-0.283664,52,275,589,6192
1644191406.973382,-0.006836,0.008789,-0.990601,0.35826,0.432366,-0.054656,49,280,593,6224
1644191407.02178,-0.007568,0.009277,-0.992188,0.281924,0.447634,-0.100458,60,279,590,6240
1644191407.092377,-0.009216,0.010193,-0.99054,0.281924,0.478168,-0.176794,48,276,583,6256
1644191407.121519,-0.008972,0.005676,-0.989502,0.052916,0.264427,-0.14626,52,275,584,6256
1644191407.170165,-0.008972,0.007935,-0.994202,0.220855,0.401832,-0.25313,51,271,578,6176
1644191407.220268,-0.010559,0.010742,-0.98938,0.205588,0.554504,-0.085191,51,279,585,6176
1644191407.312085,-0.007019,0.008362,-0.990479,0.266656,0.264427,-0.207328,42,277,589,6256
1644191407.360472,-0.009155,0.010315,-0.991333,0.175053,0.386565,-0.100458,51,281,580,6224
1644191407.408875,-0.008972,0.00885,-0.989014,0.098718,0.356031,-0.161527,55,276,585,6256
1644191407.457262,-0.009827,0.010254,-0.991333,0.175053,0.447634,-0.008855,47,275,584,6112
1644191407.505628,-0.005859,0.008911,-0.994446,0.281924,0.417099,-0.130992,60,262,580,6192
1644191407.55405,-0.009705,0.008606,-0.992249,-0.069221,0.294962,-0.130992,54,275,584,6224
1644191407.602457,-0.008667,0.010986,-0.992065,0.205588,0.203359,-0.115725,60,274,587,6240
1644191407.65084,-0.010864,0.008972,-0.991394,0.175053,0.356031,-0.207328,52,277,579,6256
1644191407.699231,-0.007324,0.010681,-0.989624,0.175053,0.417099,0.021679,48,279,594,6224
1644191407.747604,-0.008789,0.009705,-0.992859,0.098718,0.585038,0.006412,54,265,591,6256
1644191407.796018,-0.007568,0.01123,-0.990417,0.129252,0.294962,-0.054656,41,264,583,6176
1644191407.844464,-0.005493,0.008667,-0.99292,0.251389,0.462901,-0.008855,52,275,579,6256
1644191407.892868,-0.007568,0.009644,-0.988525,0.220855,0.417099,-0.069924,42,277,589,6192
1644191407.94124,-0.007385,0.009277,-0.989929,0.205588,0.371298,-0.085191,49,280,591,6240
1644191407.989617,-0.010559,0.009277,-0.992004,0.068183,0.493435,-0.069924,47,280,593,6288
1644191408.038025,-0.010559,0.011108,-0.993958,0.175053,0.447634,-0.054656,58,283,585,6192
1644191408.101116,-0.00946,0.010498,-0.99353,0.297191,0.569771,-0.115725,48,271,583,6224
1644191408.136571,-0.009216,0.009949,-0.99176,0.266656,0.340763,-0.344733,53,276,592,6224
1644191408.185094,-0.009888,0.00824,-0.992615,0.297191,0.417099,0.067481,55,264,578,6192
1644191408.23544,-0.007996,0.010071,-0.994934,0.327725,0.523969,0.036947,49,280,579,6224
1644191408.280468,-0.010193,0.009766,-0.989746,0.312458,0.386565,-0.115725,43,279,590,6288
1644191408.376713,-0.009827,0.01178,-0.992432,0.236122,0.432366,-0.283664,51,269,587,6192
1644191408.425167,-0.007446,0.008057,-0.990906,0.236122,0.157557,-0.115725,45,275,584,6192
1644191408.473512,-0.012939,0.007812,-0.993652,0.236122,0.371298,-0.115725,54,280,593,6176
1644191408.521905,-0.00946,0.009949,-0.987915,0.129252,0.401832,-0.115725,49,263,586,6240
1644191408.570287,-0.008606,0.00946,-0.99292,0.266656,0.523969,-0.161527,51,276,585,6224
1644191408.61869,-0.008179,0.008728,-0.990356,0.251389,0.325496,-0.130992,48,269,587,6240
1644191408.667083,-0.008728,0.006348,-0.992554,0.236122,0.294962,-0.069924,51,281,576,6240
1644191408.715471,-0.009583,0.010132,-0.991394,0.251389,0.539237,-0.130992,41,276,578,6224
1644191408.763863,-0.009705,0.010254,-0.992798,0.266656,0.447634,-0.207328,53,283,583,6160
1644191408.81229,-0.008423,0.009521,-0.993713,0.236122,0.462901,0.052214,40,277,579,6304
1644191408.860703,-0.011658,0.007874,-0.992554,0.236122,0.386565,-0.100458,49,282,586,6256
1644191408.909087,-0.007874,0.008545,-0.990234,0.404061,0.294962,-0.207328,49,275,575,6224
1644191408.95745,-0.006348,0.009827,-0.990967,0.052916,0.386565,-0.115725,55,274,576,6192
1644191409.005849,-0.008789,0.008423,-0.990234,0.175053,0.447634,-0.100458,53,276,587,6256
1644191409.065399,-0.010803,0.00946,-0.99231,0.159786,0.478168,-0.115725,59,277,582,6224
1644191409.105811,-0.009338,0.009521,-0.990417,0.190321,0.432366,-0.008855,49,275,596,6224
1644191409.15099,-0.01239,0.012268,-0.991089,0.098718,0.478168,-0.039389,43,279,590,6224
1644191409.199412,-0.008545,0.010376,-0.989929,0.205588,0.478168,-0.085191,49,277,584,6192
1644191409.24778,-0.00708,0.007812,-0.992126,0.220855,0.264427,0.021679,46,276,590,6176
1644191409.296242,-0.009888,0.00946,-0.994202,0.098718,0.432366,-0.176794,49,263,584,6192
1644191409.346497,-0.010681,0.008179,-0.994019,0.251389,0.264427,-0.115725,40,282,575,6192
1644191409.396922,-0.009949,0.012939,-0.99408,0.236122,0.478168,-0.054656,58,283,583,6240
1644191409.441842,-0.008972,0.008728,-0.991516,0.159786,0.478168,0.021679,46,276,590,6224
1644191409.538145,-0.008362,0.010071,-0.992371,0.205588,0.24916,-0.176794,58,283,583,6224
1644191409.586535,-0.009277,0.009399,-0.989685,0.129252,0.478168,-0.115725,45,285,589,6224
1644191409.63521,-0.007141,0.01062,-0.992798,0.281924,0.432366,-0.161527,54,275,584,6224
1644191409.683347,-0.006409,0.011902,-0.996033,0.236122,0.340763,0.006412,45,270,575,6240
1644191409.731738,-0.009033,0.009705,-0.991882,0.35826,0.508702,-0.054656,45,285,582,6224
1644191409.780118,-0.010376,0.009338,-0.991333,0.266656,0.539237,-0.130992,58,269,587,6176
1644191409.828513,-0.010864,0.009033,-0.990051,0.175053,0.340763,-0.237863,45,277,582,6192
1644191409.876951,-0.010193,0.009277,-0.992981,0.159786,0.371298,-0.161527,48,274,580,6192
1644191409.92534,-0.005676,0.010193,-0.993408,0.175053,0.371298,-0.069924,51,283,580,6224
1644191409.973751,-0.007568,0.010315,-0.991455,0.220855,0.371298,-0.14626,51,274,592,6224
1644191410.022365,-0.007385,0.00885,-0.989746,0.251389,0.356031,-0.115725,43,286,585,6240
1644191410.080662,-0.011536,0.012451,-0.990479,0.236122,0.264427,0.006412,48,271,580,6304
1644191410.118937,-0.008301,0.009094,-0.989441,0.35826,0.401832,-0.024122,58,276,585,6224
1644191410.167277,-0.011108,0.009583,-0.991394,0.236122,0.157557,0.036947,60,279,583,6176
1644191410.215715,-0.009827,0.008728,-0.989136,0.266656,0.401832,-0.130992,47,273,586,6160
1644191410.26406,-0.009521,0.006104,-0.990601,0.205588,0.478168,-0.14626,59,273,593,6192
1644191410.312433,-0.006592,0.011169,-0.994324,0.266656,0.386565,-0.192061,45,263,589,6256
1644191410.360838,-0.00885,0.010498,-0.99054,0.175053,0.478168,-0.207328,52,275,579,6224
1644191410.409287,-0.009155,0.007874,-0.990845,0.236122,0.371298,-0.054656,59,280,572,6240
1644191410.459615,-0.008057,0.007874,-0.992004,0.052916,0.371298,-0.207328,45,277,584,6128
1644191410.510234,-0.008301,0.009827,-0.991943,0.327725,0.417099,-0.161527,55,281,578,6224
1644191410.555069,-0.007812,0.012207,-0.991638,0.113985,0.569771,-0.115725,53,274,580,6224
1644191410.65121,-0.009644,0.009705,-0.994446,0.159786,0.417099,-0.222595,49,275,570,6240
1644191410.699591,-0.006958,0.010193,-0.992371,0.068183,0.294962,-0.039389,49,277,589,6240
1644191410.747981,-0.006897,0.011719,-0.992004,0.190321,0.386565,0.006412,46,266,583,6176
1644191410.796354,-0.009338,0.010742,-0.990601,0.007115,0.340763,-0.039389,57,273,589,6224
1644191410.844794,-0.006409,0.008728,-0.993652,0.373527,0.340763,-0.100458,46,276,580,6192
1644191410.893225,-0.010742,0.009216,-0.989624,-0.008153,0.417099,-0.14626,57,275,589,6224
1644191410.941594,-0.011597,0.011108,-0.992249,0.342992,0.401832,-0.100458,54,270,591,6224
1644191410.989999,-0.011414,0.008606,-0.991516,0.312458,0.493435,0.098015,53,279,587,6224
1644191411.038584,-0.010254,0.008728,-0.992981,0.281924,0.371298,-0.085191,52,282,582,6224
1644191411.088821,-0.004639,0.01001,-0.993713,0.281924,0.310229,-0.039389,48,274,580,6224
1644191411.135288,-0.006958,0.009521,-0.996155,0.251389,0.417099,-0.069924,51,269,573,6192
1644191411.183531,-0.010132,0.009277,-0.992737,0.175053,0.294962,0.006412,53,271,580,6192
1644191411.231916,-0.007996,0.008972,-0.994751,0.175053,0.462901,-0.268397,58,276,583,6224
1644191411.28029,-0.008179,0.01123,-0.993103,0.190321,0.554504,-0.161527,54,277,591,6224
1644191411.32871,-0.008118,0.01001,-0.992371,0.220855,0.447634,0.052214,49,277,579,6224
1644191411.377097,-0.009888,0.008789,-0.991455,0.113985,0.294962,-0.024122,52,277,582,6224
1644191411.425542,-0.010681,0.011353,-0.991516,0.175053,0.310229,-0.024122,60,271,590,6224
1644191411.474263,-0.009033,0.01123,-0.989746,0.037649,0.432366,-0.039389,54,280,589,6224
1644191411.524846,-0.009277,0.009949,-0.988342,0.327725,0.447634,-0.024122,52,270,589,6240
1644191411.574998,-0.007629,0.007507,-0.989685,0.281924,0.294962,0.082748,48,274,583,6224
1644191411.620093,-0.010376,0.010315,-0.989014,0.236122,0.554504,-0.024122,48,266,585,6256
1644191411.715828,-0.007996,0.007263,-0.994019,0.35826,0.325496,-0.176794,45,275,589,6224
1644191411.764253,-0.007812,0.011536,-0.991455,0.190321,0.325496,0.082748,48,276,587,6224
1644191411.812648,-0.00769,0.009705,-0.992126,0.08345,0.371298,-0.069924,48,279,583,6192
1644191411.861022,-0.008362,0.007568,-0.989868,0.220855,0.233893,-0.069924,45,265,582,6240
1644191411.909441,-0.01001,0.007996,-0.989441,0.297191,0.508702,-0.130992,49,273,575,6224
1644191411.95785,-0.007874,0.011292,-0.991516,0.327725,0.447634,-0.069924,46,276,590,6176
1644191412.006235,-0.006714,0.008911,-0.992371,0.297191,0.386565,-0.085191,47,275,575,6176
1644191412.067192,-0.009155,0.009094,-0.992004,0.266656,0.340763,-0.039389,48,271,583,6224
1644191412.103125,-0.007935,0.011169,-0.992065,0.08345,0.401832,-0.25313,54,275,593,6240
1644191412.151434,-0.011047,0.007019,-0.992126,0.190321,0.356031,-0.115725,54,282,584,6176
1644191412.199809,-0.010132,0.008606,-0.993591,0.35826,0.493435,0.021679,48,274,592,6224
1644191412.248216,-0.009521,0.009705,-0.991272,0.08345,0.401832,-0.085191,43,283,590,6192
1644191412.296606,-0.005127,0.010437,-0.99115,0.129252,0.63084,-0.130992,54,275,579,6224
1644191412.345038,-0.005005,0.013,-0.990112,0.327725,0.310229,-0.100458,45,277,584,6304
1644191412.3934,-0.007446,0.01062,-0.990906,0.113985,0.294962,-0.054656,46,279,580,6176
1644191412.441771,-0.006958,0.011108,-0.990051,0.266656,0.508702,0.036947,46,279,592,6240
1644191412.49018,-0.008606,0.00824,-0.988831,0.251389,0.356031,-0.207328,49,280,582,6240
1644191412.538548,-0.009705,0.011475,-0.991272,0.098718,0.371298,-0.130992,49,275,589,6288
1644191412.587395,-0.006226,0.006165,-0.99176,0.236122,0.401832,-0.039389,54,273,579,6192
1644191412.637303,-0.009033,0.011536,-0.98938,0.266656,0.523969,-0.130992,47,270,579,6224
1644191412.687652,-0.004944,0.008667,-0.991333,0.434595,0.386565,-0.039389,54,270,586,6240
1644191412.737753,-0.01001,0.009216,-0.993408,0.144519,0.478168,-0.039389,51,274,590,6256
1644191412.828947,-0.008179,0.010437,-0.991211,0.190321,0.447634,-0.207328,46,271,585,6240
1644191412.877313,-0.009155,0.010254,-0.991821,0.159786,0.356031,-0.14626,48,279,583,6288
1644191412.925704,-0.011841,0.011108,-0.991577,0.266656,0.417099,-0.25313,59,273,593,6176
1644191412.974103,-0.00824,0.011353,-0.991089,0.022382,0.371298,-0.100458,46,269,585,6176
1644191413.022514,-0.007629,0.006653,-0.989929,0.190321,0.447634,-0.100458,48,279,585,6224
1644191413.070979,-0.008484,0.011047,-0.992432,0.312458,0.218626,0.021679,43,276,583,6288
1644191413.119221,-0.006592,0.012146,-0.991333,0.266656,0.417099,-0.115725,49,290,582,6160
1644191413.167628,-0.007812,0.008484,-0.990479,0.159786,0.325496,-0.054656,51,286,583,6256
1644191413.216035,-0.005615,0.008789,-0.990112,0.175053,0.462901,-0.100458,48,279,580,6192
1644191413.264417,-0.007507,0.010254,-0.990601,0.205588,0.478168,-0.024122,53,274,587,6192
1644191413.312835,-0.008057,0.009155,-0.990417,0.052916,0.356031,0.113282,45,282,586,6160
1644191413.361216,-0.007141,0.009583,-0.989319,0.159786,0.478168,-0.115725,49,273,584,6256
1644191413.409596,-0.008118,0.011108,-0.99231,0.327725,0.356031,-0.14626,46,271,573,6192
1644191413.457995,-0.008179,0.008911,-0.991699,0.007115,0.432366,-0.161527,47,268,589,6256
1644191413.506362,-0.00769,0.009766,-0.989929,0.129252,0.310229,-0.222595,48,274,583,6240
1644191413.554791,-0.010254,0.011047,-0.99231,0.236122,0.432366,-0.14626,51,281,590,6160
1644191413.603191,-0.006836,0.009766,-0.99292,0.251389,0.371298,-0.298931,45,273,584,6256
1644191413.651564,-0.009155,0.009827,-0.990479,0.419328,0.539237,-0.192061,51,283,590,6224
1644191413.700238,-0.007019,0.009766,-0.992554,0.266656,0.478168,0.006412,41,274,578,6256
1644191413.748612,-0.009766,0.010315,-0.990356,0.251389,0.386565,-0.192061,49,265,584,6224
1644191413.79929,-0.007751,0.009033,-0.991394,0.190321,0.493435,-0.207328,48,266,566,6224
1644191413.850273,-0.008423,0.011536,-0.993591,0.022382,0.386565,-0.115725,48,271,587,6192
1644191413.894802,-0.006592,0.009399,-0.99353,0.388794,0.554504,-0.024122,49,275,589,6176
1644191413.990354,-0.004822,0.011963,-0.991394,0.281924,0.462901,0.052214,51,271,585,6176
1644191414.038742,-0.006226,0.008911,-0.993164,0.312458,0.554504,-0.115725,52,275,577,6224
1644191414.088311,-0.010437,0.007202,-0.988525,0.159786,0.447634,-0.130992,47,285,584,6192
1644191414.135484,-0.00769,0.008362,-0.990845,0.144519,0.523969,-0.039389,42,273,572,6192
1644191414.18391,-0.007812,0.011719,-0.991272,0.266656,0.508702,-0.039389,52,277,582,6240
1644191414.232297,-0.007446,0.010498,-0.991882,0.190321,0.432366,0.067481,52,277,589,6224
1644191414.280686,-0.007263,0.011658,-0.993591,0.175053,0.432366,-0.14626,48,286,578,6224
1644191414.329077,-0.010559,0.010376,-0.991638,0.312458,0.569771,-0.085191,55,271,587,6224
1644191414.377463,-0.010376,0.013672,-0.992737,0.312458,0.417099,-0.176794,43,274,578,6224
1644191414.425869,-0.009094,0.009399,-0.991211,0.327725,0.356031,-0.024122,41,271,587,6224
1644191414.474257,-0.007874,0.010132,-0.99176,0.113985,0.401832,-0.222595,53,281,585,6192
1644191414.522681,-0.00885,0.010498,-0.991272,0.205588,0.24916,-0.039389,49,275,582,6176
1644191414.571028,-0.008667,0.008301,-0.99469,0.327725,0.508702,-0.115725,52,268,589,6176
1644191414.619399,-0.008545,0.007507,-0.989502,0.175053,0.294962,-0.054656,57,273,577,6240
1644191414.667824,-0.012024,0.01178,-0.991089,0.251389,0.371298,-0.100458,53,271,585,6224
1644191414.716207,-0.012451,0.008179,-0.991028,0.251389,0.386565,-0.039389,46,276,599,6176
1644191414.764666,-0.009277,0.007568,-0.993774,0.098718,0.585038,0.036947,48,271,590,6224
1644191414.813071,-0.008545,0.010925,-0.991333,0.297191,0.356031,0.143817,40,277,591,6224
1644191414.862715,-0.011292,0.009766,-0.990845,0.236122,0.371298,-0.161527,39,279,583,6224
1644191414.913123,-0.00946,0.009155,-0.990112,0.342992,0.294962,-0.14626,41,279,587,6128
1644191414.96393,-0.008118,0.00946,-0.993591,0.236122,0.539237,-0.161527,54,280,589,6224
1644191415.064924,-0.006226,0.009705,-0.993042,0.312458,0.340763,-0.298931,46,276,583,6224
1644191415.106889,-0.010132,0.009277,-0.990417,0.052916,0.279695,-0.100458,40,285,589,6176
1644191415.15175,-0.009521,0.006531,-0.992065,0.129252,0.447634,-0.039389,57,265,579,6240
1644191415.200139,-0.009949,0.010254,-0.990906,0.129252,0.554504,0.052214,43,276,583,6192
1644191415.248519,-0.00885,0.011108,-0.991272,0.266656,0.386565,-0.192061,45,282,591,6224
1644191415.296936,-0.00592,0.009766,-0.992371,0.236122,0.294962,-0.054656,48,283,576,6224
1644191415.345296,-0.007507,0.011597,-0.990723,0.266656,0.478168,-0.039389,58,274,583,6224
1644191415.393723,-0.009644,0.006287,-0.991272,0.175053,0.294962,-0.115725,47,275,575,6224
1644191415.442216,-0.009033,0.011353,-0.990845,0.159786,0.417099,0.021679,55,283,594,6224
1644191415.490489,-0.008057,0.009766,-0.989929,0.068183,0.401832,-0.192061,41,276,590,6176
1644191415.538898,-0.007263,0.010071,-0.99176,0.08345,0.294962,-0.161527,52,290,586,6240
1644191415.587286,-0.009033,0.009949,-0.991699,0.281924,0.508702,-0.176794,58,279,587,6224
1644191415.635656,-0.006836,0.010681,-0.993469,0.159786,0.493435,-0.069924,48,271,587,6192
1644191415.68409,-0.008118,0.008362,-0.991455,0.175053,0.539237,-0.069924,42,280,584,6256
1644191415.732512,-0.00946,0.013062,-0.990723,0.190321,0.462901,-0.207328,42,277,591,6224
1644191415.78292,-0.006897,0.008118,-0.990417,0.098718,0.417099,-0.100458,40,275,584,6192
1644191415.834674,-0.012085,0.010376,-0.991272,0.312458,0.24916,-0.130992,46,281,585,6192
1644191415.878878,-0.009521,0.008362,-0.991394,0.312458,0.325496,-0.069924,42,282,579,6240
1644191415.974478,-0.009277,0.007751,-0.994202,0.190321,0.432366,-0.130992,55,274,578,6176
1644191416.022874,-0.007996,0.010498,-0.990173,0.327725,0.386565,-0.024122,47,280,586,6240
1644191416.071307,-0.010437,0.011292,-0.990845,0.312458,0.356031,-0.130992,43,276,590,6176
1644191416.119661,-0.007935,0.008972,-0.990173,0.175053,0.325496,-0.115725,41,283,580,6192
1644191416.168001,-0.010437,0.00946,-0.992371,0.236122,0.432366,-0.039389,55,269,592,6112
1644191416.216391,-0.006836,0.011047,-0.98877,0.281924,0.340763,-0.115725,51,266,592,6224
1644191416.264796,-0.008423,0.007385,-0.99054,0.220855,0.539237,0.036947,42,270,586,6192
1644191416.313155,-0.006165,0.010803,-0.98999,0.144519,0.478168,-0.008855,47,285,591,6224
1644191416.361596,-0.007629,0.008301,-0.993469,0.144519,0.508702,-0.176794,54,265,577,6256
1644191416.40996,-0.006042,0.009583,-0.99292,0.266656,0.340763,-0.115725,52,268,589,6256
1644191416.458353,-0.008362,0.008972,-0.99176,0.190321,0.356031,-0.069924,46,269,583,6224
1644191416.506728,-0.009094,0.010559,-0.99054,0.327725,0.371298,-0.314198,48,274,590,6256
1644191416.555233,-0.009094,0.010803,-0.991211,0.556733,0.325496,-0.192061,52,277,589,6256
1644191416.603543,-0.009094,0.006897,-0.990051,0.266656,0.356031,0.082748,57,270,584,6224
1644191416.651907,-0.010193,0.009827,-0.992554,0.129252,0.569771,-0.039389,47,285,579,6224
1644191416.70032,-0.01001,0.007629,-0.99353,0.266656,0.432366,-0.14626,42,287,589,6240
1644191416.748693,-0.006897,0.009949,-0.99115,0.342992,0.233893,-0.069924,48,269,576,6192
1644191416.797393,-0.009399,0.006104,-0.991028,0.312458,0.417099,-0.207328,54,275,591,6224
1644191416.847102,-0.006958,0.010437,-0.990479,0.129252,0.401832,-0.100458,39,281,573,6192
1644191416.897971,-0.007141,0.011536,-0.992065,0.236122,0.264427,-0.039389,43,291,580,6224
1644191416.942544,-0.010803,0.009521,-0.991516,0.190321,0.401832,-0.130992,51,271,587,6192
1644191417.039138,-0.009399,0.010254,-0.989014,0.08345,0.447634,-0.115725,46,274,587,6192
1644191417.091969,-0.008301,0.008728,-0.990417,0.388794,0.478168,-0.008855,46,283,583,6224
1644191417.135911,-0.009949,0.012756,-0.992126,0.281924,0.417099,-0.14626,48,281,587,6240
1644191417.18427,-0.005432,0.011597,-0.990051,0.159786,0.462901,-0.039389,41,279,578,6192
1644191417.232665,-0.009155,0.010864,-0.991211,0.205588,0.386565,-0.069924,53,283,583,6240
1644191417.28102,-0.00946,0.008423,-0.991455,0.327725,0.569771,-0.008855,57,277,589,6240
1644191417.329423,-0.009521,0.009827,-0.992798,0.129252,0.447634,-0.100458,45,282,586,6240
1644191417.377812,-0.008972,0.01178,-0.993774,0.327725,0.447634,-0.054656,48,264,585,6176
1644191417.426221,-0.007629,0.00647,-0.989258,0.251389,0.447634,-0.130992,61,280,586,6224
1644191417.474702,-0.007507,0.009338,-0.990356,0.205588,0.386565,-0.039389,42,277,589,6224
1644191417.523007,-0.007141,0.008728,-0.992065,0.205588,0.462901,-0.085191,52,275,591,6224
1644191417.5714,-0.006592,0.006958,-0.990906,0.404061,0.401832,-0.008855,51,274,587,6224
1644191417.619794,-0.012085,0.009338,-0.990173,0.113985,0.340763,-0.054656,46,271,578,6160
1644191417.66818,-0.007812,0.011841,-0.992371,0.251389,0.447634,-0.115725,47,280,579,6240
1644191417.716571,-0.009094,0.008423,-0.987488,0.327725,0.478168,-0.039389,46,269,585,6160
1644191417.765016,-0.008179,0.008118,-0.991272,0.220855,0.569771,-0.024122,49,277,584,6192
1644191417.81336,-0.00708,0.007202,-0.991272,0.022382,0.432366,-0.115725,58,269,580,6256
1644191417.861791,-0.010132,0.012207,-0.992432,0.373527,0.325496,-0.024122,49,287,586,6240
1644191417.911806,-0.009033,0.009155,-0.991272,0.220855,0.417099,-0.085191,43,274,583,6192
1644191417.962659,-0.008545,0.01062,-0.99115,0.281924,0.386565,-0.115725,48,264,590,6240
1644191418.063708,-0.005798,0.008423,-0.992126,0.190321,0.493435,-0.069924,64,275,589,6256
1644191418.105699,-0.008423,0.011169,-0.992798,0.159786,0.462901,-0.054656,52,277,584,6336
1644191418.152215,-0.009094,0.009094,-0.991638,0.190321,0.462901,0.021679,49,282,579,6160
1644191418.200519,-0.009033,0.007996,-0.991699,0.175053,0.447634,-0.085191,47,275,589,6240
1644191418.248879,-0.007019,0.007751,-0.99176,0.175053,0.600305,-0.008855,47,270,572,6240
1644191418.297296,-0.008118,0.00885,-0.993164,0.236122,0.294962,-0.161527,52,285,591,6256
1644191418.345682,-0.010132,0.007202,-0.992126,-0.069221,0.371298,-0.039389,38,263,582,6224
1644191418.394111,-0.007324,0.00885,-0.994812,0.144519,0.294962,-0.115725,47,277,579,6256
1644191418.44249,-0.008728,0.008118,-0.994263,0.281924,0.340763,-0.024122,51,281,583,6192
1644191418.490902,-0.007751,0.009521,-0.990723,0.327725,0.478168,0.067481,47,282,582,6304
1644191418.539249,-0.006226,0.010193,-0.992615,0.113985,0.432366,-0.039389,57,270,582,6240
1644191418.587648,-0.010132,0.008911,-0.994385,0.129252,0.417099,-0.115725,58,274,583,6240
1644191418.636005,-0.008301,0.007202,-0.993225,0.251389,0.493435,-0.039389,48,274,585,6224
1644191418.684436,-0.010132,0.011475,-0.99115,0.266656,0.356031,0.036947,51,276,587,6240
1644191418.733168,-0.008728,0.007874,-0.991028,0.327725,0.539237,-0.176794,46,281,587,6176
1644191418.781991,-0.006287,0.009583,-0.992676,0.281924,0.325496,-0.100458,52,280,586,6192
1644191418.832648,-0.009216,0.011353,-0.990601,0.068183,0.462901,0.052214,55,269,590,6240
1644191418.878601,-0.008057,0.010376,-0.991089,0.113985,0.462901,-0.161527,46,279,580,6224
1644191418.974953,-0.011353,0.011169,-0.992798,0.266656,0.432366,-0.069924,46,283,608,6224
1644191419.023248,-0.008606,0.010559,-0.990234,0.251389,0.462901,-0.085191,53,281,592,6192
1644191419.073556,-0.011536,0.01001,-0.99292,0.220855,0.386565,-0.161527,49,268,582,6224
1644191419.119916,-0.009155,0.008484,-0.993103,0.205588,0.432366,-0.024122,53,274,583,6192
1644191419.168371,-0.008911,0.006287,-0.991577,0.220855,0.462901,-0.039389,59,277,586,6192
1644191419.216756,-0.007996,0.00885,-0.991028,0.205588,0.401832,-0.069924,52,282,584,6224
1644191419.265222,-0.007019,0.007019,-0.992004,0.266656,0.371298,-0.14626,51,281,594,6240
1644191419.313528,-0.00708,0.009338,-0.993042,0.404061,0.554504,-0.161527,42,263,589,6240
1644191419.361931,-0.008179,0.008667,-0.991333,0.251389,0.462901,-0.085191,40,277,579,6224
1644191419.41034,-0.008728,0.009216,-0.993652,0.098718,0.462901,-0.024122,38,275,584,6224
1644191419.458728,-0.007996,0.009155,-0.991333,0.159786,0.478168,-0.115725,46,276,583,6176
1644191419.507136,-0.007263,0.012207,-0.99353,0.312458,0.356031,-0.222595,48,274,587,6224
1644191419.555516,-0.008423,0.01001,-0.991089,0.205588,0.417099,-0.024122,46,279,580,6224
1644191419.603926,-0.008301,0.00885,-0.992371,0.281924,0.432366,0.098015,51,283,576,6256
1644191419.652311,-0.007935,0.007935,-0.990417,0.205588,0.386565,-0.100458,55,276,576,6240
1644191419.7007,-0.009766,0.007629,-0.990784,0.098718,0.417099,-0.222595,46,264,583,6256
1644191419.749075,-0.005798,0.00885,-0.989197,0.236122,0.340763,-0.054656,46,281,590,6224
1644191419.797858,-0.008057,0.009705,-0.99054,0.129252,0.417099,0.052214,52,280,579,6176
1644191419.845914,-0.01062,0.010803,-0.99231,0.251389,0.432366,0.052214,55,271,594,6192
1644191419.895617,-0.007202,0.010681,-0.991638,0.35826,0.203359,-0.085191,49,275,589,6176
1644191419.946004,-0.007019,0.010742,-0.992432,-0.008153,0.386565,-0.130992,49,277,586,6224
1644191419.996485,-0.006653,0.009216,-0.991028,0.113985,0.569771,-0.176794,46,283,583,6256
1644191420.040714,-0.009338,0.012207,-0.990356,0.190321,0.447634,-0.039389,52,280,575,6256
1644191420.136221,-0.008179,0.010071,-0.991638,0.342992,0.493435,-0.054656,45,285,584,6224
1644191420.18485,-0.006897,0.008484,-0.993225,0.220855,0.325496,-0.161527,46,279,590,6224
1644191420.232998,-0.006897,0.008179,-0.990295,0.175053,0.371298,-0.069924,52,265,579,6160
1644191420.281393,-0.00647,0.008545,-0.992737,0.190321,0.325496,0.036947,47,282,582,6256
1644191420.329783,-0.01178,0.010437,-0.990906,0.251389,0.432366,-0.054656,58,274,583,6224
1644191420.378166,-0.008667,0.011719,-0.98938,0.037649,0.386565,-0.039389,49,275,582,6192
1644191420.426583,-0.009705,0.009827,-0.988708,0.175053,0.294962,-0.008855,47,273,584,6224
1644191420.475017,-0.010437,0.012451,-0.991211,0.220855,0.386565,-0.024122,48,276,585,6240
1644191420.523393,-0.007629,0.009033,-0.989746,0.297191,0.447634,-0.069924,52,277,589,6192
1644191420.571767,-0.008423,0.006348,-0.990173,0.08345,0.432366,-0.25313,53,271,580,6224
1644191420.62017,-0.007385,0.009888,-0.989929,0.373527,0.386565,-0.161527,52,282,579,6256
1644191420.668554,-0.006836,0.010742,-0.992676,0.281924,0.356031,-0.161527,52,273,579,6192
1644191420.716943,-0.008911,0.011414,-0.991028,0.205588,0.432366,0.006412,47,275,584,6240
1644191420.765328,-0.007935,0.00885,-0.991699,0.190321,0.432366,-0.192061,53,276,587,6192
1644191420.813781,-0.007507,0.009094,-0.992859,0.434595,0.447634,-0.008855,55,276,587,6176
1644191420.862177,-0.011658,0.010315,-0.992126,0.175053,0.386565,-0.085191,49,280,591,6160
1644191420.91056,-0.009583,0.01062,-0.99176,0.297191,0.325496,-0.085191,46,281,590,6240
1644191420.959241,-0.008545,0.007568,-0.991943,0.327725,0.325496,-0.25313,60,271,576,6192
1644191421.065753,-0.00824,0.01001,-0.992188,0.220855,0.447634,-0.085191,53,281,590,6224
1644191421.104327,-0.008789,0.00946,-0.993103,0.46513,0.447634,-0.100458,43,281,592,6192
1644191421.152459,-0.00946,0.009155,-0.99176,0.388794,0.462901,-0.069924,47,287,582,6240
1644191421.200861,-0.007324,0.009155,-0.990417,0.266656,0.493435,0.052214,54,294,584,6240
1644191421.249232,-0.009583,0.007996,-0.993713,0.342992,0.356031,-0.268397,51,288,583,6224
1644191421.297658,-0.006836,0.012268,-0.993103,0.342992,0.417099,-0.085191,46,276,571,6176
1644191421.346052,-0.006531,0.010132,-0.991821,0.190321,0.356031,-0.069924,57,287,586,6224
1644191421.394466,-0.008301,0.007751,-0.990234,0.236122,0.417099,-0.069924,59,275,582,6192
1644191421.442829,-0.006165,0.010315,-0.988403,0.419328,0.356031,-0.161527,49,280,584,6256
1644191421.491245,-0.009399,0.009644,-0.991699,0.266656,0.340763,-0.161527,53,271,580,6192
1644191421.539626,-0.008667,0.011475,-0.994568,0.35826,0.386565,-0.069924,51,269,592,6192
1644191421.588012,-0.009521,0.013367,-0.991333,0.327725,0.493435,-0.14626,57,277,584,6176
1644191421.636405,-0.00885,0.007996,-0.992859,0.312458,0.386565,0.006412,48,279,587,6256
1644191421.684803,-0.006958,0.008484,-0.991333,0.220855,0.478168,0.052214,47,275,589,6288
1644191421.733305,-0.008972,0.008545,-0.992859,0.220855,0.554504,-0.100458,52,277,579,6176
1644191421.783651,-0.010681,0.011902,-0.993103,0.144519,0.294962,-0.039389,57,273,584,6240
1644191421.834816,-0.006592,0.009033,-0.989807,0.144519,0.356031,-0.008855,57,273,582,6176
1644191421.879517,-0.010071,0.006958,-0.992615,0.281924,0.447634,-0.085191,47,270,582,6176
1644191421.975402,-0.00946,0.009705,-0.993164,0.129252,0.478168,-0.192061,51,276,590,6240
1644191422.023623,-0.008179,0.008911,-0.99292,0.175053,0.478168,0.006412,55,264,573,6288
1644191422.072189,-0.008057,0.01001,-0.991394,0.251389,0.447634,-0.176794,53,276,583,6224
1644191422.120334,-0.009216,0.009033,-0.991699,0.190321,0.233893,-0.130992,48,271,578,6192
1644191422.168719,-0.008301,0.008972,-0.993958,0.236122,0.356031,0.006412,51,274,580,6224
1644191422.217113,-0.008911,0.010864,-0.990784,0.08345,0.554504,-0.130992,53,279,576,6224
1644191422.265496,-0.010071,0.010681,-0.993469,0.312458,0.157557,-0.161527,59,270,584,6176
1644191422.313885,-0.007202,0.012085,-0.991333,0.159786,0.432366,-0.085191,59,275,589,6256
1644191422.36232,-0.009583,0.006958,-0.994385,0.190321,0.478168,-0.115725,49,277,577,6240
1644191422.410675,-0.01001,0.011597,-0.990723,0.266656,0.401832,-0.008855,53,274,576,6240
1644191422.459088,-0.008057,0.009094,-0.992249,0.297191,0.356031,-0.14626,40,270,589,6240
1644191422.507492,-0.008789,0.011597,-0.993713,0.159786,0.462901,-0.085191,53,286,578,6176
1644191422.555882,-0.011963,0.010132,-0.994385,0.312458,0.447634,-0.085191,62,279,571,6192
1644191422.604284,-0.009521,0.008667,-0.987976,0.052916,0.417099,-0.069924,54,277,584,6240
1644191422.652676,-0.009338,0.00885,-0.992188,0.175053,0.447634,-0.085191,40,285,582,6256
1644191422.701049,-0.007446,0.009888,-0.991943,0.236122,0.310229,0.082748,59,273,577,6240
1644191422.749422,-0.008667,0.009033,-0.994324,0.236122,0.356031,0.036947,46,286,583,6240
1644191422.797836,-0.008545,0.010559,-0.993347,0.129252,0.294962,-0.268397,58,269,590,6176
1644191422.846308,-0.009827,0.009338,-0.991089,0.113985,0.401832,-0.085191,53,264,583,6224
1644191422.895852,-0.009094,0.00531,-0.993896,0.205588,0.462901,-0.115725,42,273,582,6256
1644191422.946013,-0.008606,0.008118,-0.99054,0.205588,0.203359,-0.268397,48,274,585,6160
1644191422.996355,-0.010376,0.009644,-0.988403,0.404061,0.310229,-0.14626,40,275,584,6192
1644191423.040834,-0.006897,0.010071,-0.990723,0.281924,0.294962,-0.100458,48,274,585,6176
1644191423.136637,-0.007935,0.011047,-0.991028,0.175053,0.401832,-0.069924,49,282,575,6256
1644191423.185223,-0.007874,0.009705,-0.990051,0.08345,0.554504,-0.100458,46,281,587,6256
1644191423.233384,-0.005493,0.009766,-0.992798,0.220855,0.401832,-0.176794,48,266,585,6160
1644191423.281741,-0.00769,0.009766,-0.990234,0.236122,0.371298,-0.100458,47,273,582,6224
1644191423.330155,-0.00885,0.010193,-0.992004,0.144519,0.356031,0.006412,54,268,586,6224
1644191423.378551,-0.007935,0.011169,-0.992859,0.297191,0.371298,-0.069924,53,286,580,6224
1644191423.42695,-0.010193,0.008911,-0.990906,0.327725,0.371298,-0.130992,51,266,583,6224
1644191423.475338,-0.007812,0.010803,-0.989685,0.236122,0.401832,-0.115725,53,279,578,6256
1644191423.523738,-0.00769,0.011047,-0.991394,0.236122,0.478168,-0.176794,48,276,578,6176
1644191423.572171,-0.008728,0.009583,-0.992981,0.129252,0.462901,-0.207328,51,283,585,6240
1644191423.620519,-0.006348,0.009521,-0.991211,0.251389,0.310229,0.098015,52,287,584,6240
1644191423.668883,-0.007629,0.00946,-0.993164,0.190321,0.371298,-0.085191,39,274,583,6192
1644191423.717295,-0.008667,0.008118,-0.992737,0.205588,0.417099,-0.008855,61,268,579,6192
1644191423.765695,-0.00885,0.008057,-0.993286,0.236122,0.478168,-0.024122,52,273,586,6160
1644191423.814099,-0.009644,0.009644,-0.990356,0.205588,0.325496,-0.054656,51,286,587,6240
1644191423.862546,-0.008911,0.009399,-0.990967,0.266656,0.478168,-0.054656,52,273,584,6160
1644191423.910924,-0.008423,0.008667,-0.991272,0.220855,0.401832,-0.283664,40,280,584,6224
1644191423.959678,-0.008911,0.013184,-0.990906,0.220855,0.371298,-0.054656,55,274,585,6224
1644191424.065105,-0.009827,0.011108,-0.991394,0.312458,0.233893,-0.024122,48,281,585,6240
1644191424.10448,-0.008789,0.010071,-0.991638,0.175053,0.325496,0.159084,49,277,586,6192
1644191424.152877,-0.010132,0.00885,-0.992615,0.220855,0.493435,-0.237863,48,274,587,6224
1644191424.201228,-0.007202,0.011597,-0.991455,0.281924,0.432366,0.036947,48,269,585,6224
1644191424.249609,-0.007935,0.009766,-0.993469,0.159786,0.218626,-0.115725,47,273,586,6288
1644191424.297999,-0.010498,0.011658,-0.98938,0.297191,0.417099,-0.069924,52,273,584,6240
1644191424.34642,-0.004639,0.008484,-0.99115,0.205588,0.478168,0.036947,55,281,583,6192
1644191424.394829,-0.00885,0.013,-0.991272,0.327725,0.294962,-0.207328,42,273,582,6224
1644191424.443217,-0.008301,0.009155,-0.990051,0.266656,0.478168,0.067481,48,276,592,6160
1644191424.491803,-0.010559,0.009644,-0.989746,0.190321,0.493435,-0.207328,52,287,596,6224
1644191424.540009,-0.011169,0.010986,-0.992004,0.281924,0.401832,-0.085191,60,281,585,6288
1644191424.588386,-0.008911,0.011353,-0.989624,0.175053,0.493435,-0.069924,39,286,580,6192
1644191424.636781,-0.008484,0.010071,-0.989014,0.205588,0.386565,-0.176794,55,283,578,6240
1644191424.68519,-0.009949,0.010376,-0.991272,0.297191,0.508702,-0.054656,46,269,585,6256
1644191424.733801,-0.008545,0.008179,-0.991211,0.220855,0.279695,-0.100458,60,286,580,6176
1644191424.782987,-0.009583,0.010193,-0.990234,0.35826,0.340763,-0.161527,54,280,586,6288
1644191424.833491,-0.00946,0.009949,-0.992737,0.236122,0.294962,-0.161527,46,283,585,6240
1644191424.879553,-0.008423,0.009338,-0.989563,0.236122,0.569771,-0.115725,57,277,582,6224
1644191424.975595,-0.013428,0.007629,-0.992371,0.175053,0.508702,-0.161527,48,276,583,6176
1644191425.023973,-0.007385,0.00946,-0.990051,0.266656,0.340763,-0.008855,40,280,584,6176
1644191425.072399,-0.008057,0.00769,-0.989929,0.205588,0.478168,-0.085191,59,273,584,6224
1644191425.120681,-0.009521,0.007263,-0.990845,0.08345,0.554504,-0.130992,45,265,582,6288
1644191425.169076,-0.007385,0.011047,-0.994446,0.281924,0.523969,-0.039389,54,275,589,6256
1644191425.217486,-0.008301,0.007629,-0.99231,0.129252,0.539237,-0.115725,52,275,589,6224
1644191425.265873,-0.007629,0.006531,-0.992249,0.068183,0.462901,-0.130992,41,274,576,6176
1644191425.314256,-0.011536,0.010071,-0.989685,0.052916,0.233893,0.021679,54,268,577,6224
1644191425.362682,-0.010742,0.009705,-0.991394,0.220855,0.371298,-0.024122,47,282,579,6240
1644191425.411067,-0.012329,0.011902,-0.989746,0.266656,0.508702,-0.024122,47,275,591,6224
1644191425.459459,-0.008789,0.008179,-0.99115,0.281924,0.63084,-0.024122,47,275,582,6240
1644191425.507849,-0.007996,0.010681,-0.991699,0.281924,0.218626,0.036947,60,271,578,6192
1644191425.556219,-0.009583,0.011902,-0.993103,0.281924,0.432366,-0.115725,46,269,583,6240
1644191425.604713,-0.011719,0.009644,-0.992676,0.251389,0.600305,-0.100458,46,286,590,6240
1644191425.65304,-0.007141,0.012268,-0.991272,0.35826,0.417099,-0.024122,54,285,596,6224
1644191425.701423,-0.007751,0.009277,-0.991699,0.175053,0.401832,0.021679,52,282,575,6240
1644191425.749784,-0.012085,0.007751,-0.989807,0.281924,0.447634,-0.283664,59,280,589,6224
1644191425.798245,-0.00647,0.007263,-0.992371,0.175053,0.279695,-0.115725,41,288,573,6224
1644191425.846651,-0.007507,0.010498,-0.990234,0.236122,0.508702,-0.130992,48,283,587,6160
1644191425.896012,-0.008728,0.008667,-0.990723,0.312458,0.646107,-0.054656,46,276,580,6240
1644191425.946472,-0.00769,0.00946,-0.991943,0.129252,0.417099,-0.085191,46,276,580,6256
1644191425.996876,-0.009399,0.011658,-0.991577,0.236122,0.447634,-0.176794,41,281,592,6240
1644191426.041153,-0.00592,0.01239,-0.988403,0.327725,0.356031,0.036947,53,269,580,6224
1644191426.136933,-0.00946,0.010315,-0.989868,0.220855,0.340763,-0.130992,48,279,587,6224
1644191426.185412,-0.010864,0.014038,-0.988037,0.342992,0.264427,-0.130992,46,288,585,6160
1644191426.233743,-0.007324,0.012329,-0.990662,0.236122,0.310229,0.067481,45,270,582,6160
1644191426.282381,-0.007385,0.008789,-0.990845,0.175053,0.417099,-0.039389,53,276,571,6192
1644191426.330517,-0.007324,0.010864,-0.99115,0.190321,0.340763,0.082748,47,270,586,6224
1644191426.378915,-0.007568,0.009094,-0.992493,0.205588,0.417099,-0.130992,48,269,590,6224
1644191426.427303,-0.008789,0.010559,-0.991821,0.159786,0.432366,-0.008855,43,264,587,6224
1644191426.475677,-0.005981,0.009521,-0.99054,0.236122,0.340763,-0.054656,53,276,585,6224
1644191426.52411,-0.007324,0.009949,-0.989868,0.175053,0.386565,-0.115725,48,279,592,6176
1644191426.572505,-0.006226,0.008911,-0.992188,0.434595,0.417099,-0.161527,47,277,593,6256
1644191426.620871,-0.008362,0.007324,-0.990417,0.220855,0.325496,-0.176794,49,275,586,6224
1644191426.66928,-0.009155,0.009521,-0.991821,0.175053,0.523969,-0.024122,53,276,571,6224
1644191426.717672,-0.006592,0.010986,-0.993591,0.251389,0.600305,-0.176794,47,277,591,6240
1644191426.766067,-0.007446,0.009338,-0.992676,0.327725,0.340763,-0.161527,51,281,585,6240
1644191426.814502,-0.007263,0.010986,-0.990784,0.068183,0.294962,-0.207328,54,277,584,6240
1644191426.862905,-0.010315,0.008789,-0.994568,0.175053,0.386565,-0.024122,43,271,578,6176
1644191426.911283,-0.010132,0.01355,-0.992188,0.175053,0.539237,0.006412,45,277,591,6224
1644191426.959858,-0.009277,0.009644,-0.992249,0.159786,0.386565,-0.085191,52,277,589,6240
1644191427.008092,-0.009766,0.00824,-0.98999,0.297191,0.401832,-0.14626,43,274,585,6192
1644191427.073823,-0.012268,0.009033,-0.993652,0.113985,0.386565,0.036947,48,281,590,6224
1644191427.113714,-0.008362,0.00769,-0.992859,0.327725,0.523969,-0.100458,58,279,592,6224
1644191427.157718,-0.010559,0.007935,-0.991821,0.373527,0.417099,-0.054656,42,273,582,6240
1644191427.202605,-0.011597,0.010559,-0.990723,0.068183,0.371298,-0.054656,46,274,590,6240
1644191427.29837,-0.009705,0.011108,-0.991638,0.205588,0.371298,-0.039389,45,290,582,6256
1644191427.346767,-0.009644,0.009399,-0.990173,0.297191,0.386565,-0.039389,48,281,585,6304
1644191427.395348,-0.007263,0.009521,-0.991882,0.266656,0.371298,-0.039389,45,273,584,6240
1644191427.443566,-0.010498,0.010132,-0.988464,0.266656,0.447634,-0.069924,54,270,582,6288
1644191427.492404,-0.00824,0.012207,-0.989014,0.144519,0.462901,-0.176794,49,280,577,6240
1644191427.540339,-0.010071,0.01001,-0.990234,0.205588,0.264427,-0.161527,49,287,579,6176
1644191427.588728,-0.008728,0.010498,-0.990906,0.236122,0.233893,-0.085191,48,264,580,6192
1644191427.637136,-0.005798,0.008972,-0.992981,0.205588,0.325496,0.052214,51,269,580,6224
1644191427.68553,-0.007446,0.010986,-0.992188,0.388794,0.294962,-0.161527,53,274,585,6240
1644191427.733931,-0.01001,0.008667,-0.988953,0.205588,0.386565,-0.024122,49,292,582,6240
1644191427.782325,-0.009033,0.008179,-0.992676,0.08345,0.340763,-0.115725,48,288,578,6224
1644191427.830748,-0.00824,0.008911,-0.992432,0.297191,0.447634,-0.085191,55,274,583,6240
1644191427.879139,-0.007812,0.010071,-0.99115,0.236122,0.478168,-0.085191,54,270,579,6240
1644191427.927542,-0.009949,0.008362,-0.991394,0.342992,0.462901,-0.008855,53,281,580,6240
1644191427.97593,-0.007568,0.009766,-0.991516,0.175053,0.401832,-0.14626,51,271,592,6160
1644191428.024292,-0.00769,0.007812,-0.992859,0.205588,0.401832,-0.130992,52,273,586,6256
1644191428.082464,-0.008484,0.008362,-0.993347,0.236122,0.478168,-0.222595,43,283,594,6192
1644191428.121118,-0.009949,0.008545,-0.993652,0.281924,0.447634,-0.085191,48,279,583,6224
1644191428.170416,-0.008118,0.009521,-0.992676,0.129252,0.432366,-0.069924,45,275,591,6224
1644191428.220561,-0.005676,0.009338,-0.990356,0.281924,0.523969,-0.069924,48,269,587,6160
1644191428.270913,-0.01001,0.007446,-0.991455,0.159786,0.417099,0.067481,47,273,575,6256
1644191428.315857,-0.009094,0.01123,-0.994141,0.266656,0.539237,-0.024122,58,279,585,6192
1644191428.411425,-0.007141,0.010071,-0.990723,0.266656,0.356031,-0.069924,46,269,578,6192
1644191428.459823,-0.01001,0.01062,-0.992371,0.129252,0.508702,-0.130992,51,281,583,6224
1644191428.508183,-0.006836,0.009399,-0.990112,0.113985,0.523969,-0.024122,51,276,585,6224
1644191428.556569,-0.007202,0.00708,-0.993958,0.220855,0.294962,-0.115725,53,274,580,6192
1644191428.60503,-0.008667,0.006958,-0.991272,0.373527,0.63084,0.021679,58,266,585,6240
1644191428.653401,-0.00946,0.012329,-0.990906,0.297191,0.325496,-0.130992,47,280,586,6160
1644191428.701785,-0.008179,0.008972,-0.991821,0.281924,0.356031,0.052214,47,275,579,6176
1644191428.750159,-0.006897,0.008179,-0.99054,0.342992,0.523969,-0.024122,48,274,587,6240
1644191428.798571,-0.007568,0.010315,-0.99231,0.205588,0.539237,-0.222595,49,270,582,6192
1644191428.847009,-0.010864,0.009888,-0.992126,0.129252,0.417099,-0.207328,49,273,589,6224
1644191428.895378,-0.006226,0.007812,-0.991577,0.266656,0.356031,-0.25313,57,265,584,6176
1644191428.943811,-0.009338,0.008301,-0.991821,0.297191,0.371298,-0.161527,47,275,582,6288
1644191428.992261,-0.009705,0.008179,-0.993713,0.312458,0.462901,-0.054656,53,279,587,6240
1644191429.040572,-0.007446,0.008789,-0.991699,0.236122,0.325496,-0.039389,58,271,587,6224
1644191429.089563,-0.008789,0.009277,-0.993835,0.159786,0.462901,-0.008855,54,273,577,6176
1644191429.137278,-0.00824,0.00946,-0.992798,0.281924,0.478168,-0.054656,57,275,591,6192
1644191429.185718,-0.008362,0.010864,-0.98938,0.251389,0.340763,-0.161527,51,269,585,6304
1644191429.234108,-0.006104,0.005615,-0.993103,0.144519,0.417099,-0.222595,49,280,589,6224
1644191429.282835,-0.009583,0.010864,-0.99054,0.266656,0.294962,0.052214,51,269,580,6288
1644191429.33165,-0.00885,0.00769,-0.990356,0.312458,0.417099,-0.237863,54,270,584,6224
1644191429.382254,-0.009766,0.009155,-0.990295,0.190321,0.401832,-0.039389,60,269,583,6224
1644191429.43278,-0.006653,0.008911,-0.99054,0.159786,0.508702,-0.405802,53,276,592,6176
1644191429.477622,-0.010559,0.008545,-0.992676,0.297191,0.386565,-0.008855,55,271,585,6192
1644191429.57287,-0.010681,0.009338,-0.989563,0.266656,0.264427,-0.130992,46,276,573,6160
1644191429.621244,-0.009949,0.010254,-0.994629,0.190321,0.24916,0.052214,49,268,579,6224
1644191429.669651,-0.008972,0.008118,-0.989563,0.297191,0.325496,-0.115725,42,275,589,6176
1644191429.71804,-0.01062,0.008362,-0.989441,0.236122,0.462901,-0.054656,53,279,583,6224
1644191429.766404,-0.008118,0.008606,-0.991211,0.205588,0.356031,-0.14626,34,274,580,6256
1644191429.814835,-0.009949,0.013611,-0.989868,0.205588,0.417099,0.021679,39,269,587,6192
1644191429.863259,-0.007202,0.009766,-0.991516,0.159786,0.417099,-0.130992,49,282,586,6240
1644191429.91162,-0.009338,0.010254,-0.989502,0.129252,0.462901,-0.039389,46,276,583,6192
1644191429.960038,-0.006714,0.009521,-0.990601,0.037649,0.478168,-0.222595,54,273,589,6192
1644191430.008422,-0.007629,0.010193,-0.991638,0.129252,0.432366,-0.008855,62,276,585,6288
1644191430.069454,-0.010559,0.00946,-0.992432,0.266656,0.523969,-0.054656,49,280,589,6256
1644191430.106961,-0.009277,0.007507,-0.990845,0.129252,0.462901,-0.039389,54,277,579,6224
1644191430.153593,-0.011292,0.008484,-0.992859,0.129252,0.386565,0.021679,42,285,584,6224
1644191430.201972,-0.010925,0.010864,-0.993713,0.052916,0.356031,-0.085191,39,283,590,6224
1644191430.250362,-0.007935,0.010803,-0.990356,0.327725,0.432366,-0.069924,43,281,585,6240
1644191430.298752,-0.007751,0.011169,-0.990051,0.190321,0.279695,-0.069924,47,280,591,6128
1644191430.347142,-0.007751,0.010925,-0.992432,0.175053,0.417099,-0.085191,59,273,577,6192
1644191430.395506,-0.007263,0.007568,-0.991638,0.327725,0.356031,-0.085191,65,286,590,6224
1644191430.443948,-0.009949,0.007019,-0.993408,0.266656,0.447634,-0.100458,61,270,593,6192
1644191430.492913,-0.010681,0.009338,-0.990173,0.220855,0.478168,-0.024122,51,274,583,6192
1644191430.542464,-0.006958,0.011597,-0.989929,0.266656,0.401832,-0.069924,51,269,576,6192
1644191430.592782,-0.007751,0.011658,-0.991821,0.312458,0.493435,-0.222595,51,283,583,6224
1644191430.637898,-0.006714,0.010315,-0.990173,0.236122,0.340763,-0.069924,53,262,585,6240
1644191430.734306,-0.006104,0.01239,-0.98999,0.327725,0.356031,-0.039389,40,275,586,6128
1644191430.782697,-0.010742,0.010742,-0.990967,0.312458,0.508702,-0.085191,53,271,573,6240
1644191430.83106,-0.007751,0.00946,-0.992432,0.342992,0.493435,-0.085191,57,277,584,6160
1644191430.879512,-0.009705,0.011353,-0.991638,0.251389,0.554504,-0.039389,47,282,572,6192
1644191430.927891,-0.011658,0.005615,-0.993896,0.297191,0.356031,-0.25313,41,274,583,6224
1644191430.976287,-0.006226,0.009766,-0.990723,0.388794,0.508702,-0.14626,46,264,587,6240
1644191431.024777,-0.008484,0.007996,-0.98822,0.251389,0.401832,-0.085191,53,276,592,6256
1644191431.073571,-0.010925,0.009277,-0.992981,0.190321,0.462901,-0.115725,52,280,591,6192
1644191431.1215,-0.010986,0.008911,-0.994202,0.175053,0.386565,-0.130992,59,273,591,6224
1644191431.169827,-0.009277,0.008667,-0.992065,0.190321,0.371298,-0.161527,59,273,577,6256
1644191431.218219,-0.009644,0.012451,-0.991882,0.236122,0.356031,-0.237863,54,270,582,6176
1644191431.266609,-0.007263,0.01001,-0.991028,0.159786,0.325496,-0.054656,48,274,601,6224
1644191431.315136,-0.007385,0.011047,-0.992126,0.297191,0.417099,-0.085191,41,283,583,6224
1644191431.363412,-0.01123,0.009644,-0.992188,0.129252,0.432366,-0.024122,48,276,590,6288
1644191431.41179,-0.008362,0.009705,-0.993713,0.373527,0.325496,-0.085191,46,271,583,6176
1644191431.46018,-0.006714,0.008789,-0.990173,0.312458,0.569771,0.021679,39,264,592,6192
1644191431.508548,-0.008972,0.007446,-0.994263,0.190321,0.508702,-0.100458,54,265,591,6256
1644191431.556982,-0.005737,0.00946,-0.992554,0.297191,0.447634,-0.069924,49,268,579,6224
1644191431.605572,-0.011414,0.011047,-0.992371,-0.053954,0.279695,-0.115725,46,264,590,6240
1644191431.655397,-0.010193,0.009094,-0.992004,0.098718,0.447634,-0.161527,46,271,583,6192
1644191431.705635,-0.009766,0.008789,-0.992493,0.144519,0.386565,0.021679,49,277,586,6192
1644191431.755705,-0.009338,0.009155,-0.990601,0.159786,0.417099,-0.069924,47,277,591,6224
1644191431.847344,-0.009277,0.008545,-0.991455,0.129252,0.356031,-0.085191,55,276,585,6224
1644191431.895746,-0.008179,0.007935,-0.992432,0.205588,0.340763,-0.192061,40,273,584,6176
1644191431.944148,-0.009338,0.01123,-0.991821,0.312458,0.676641,-0.329466,53,271,576,6256
1644191431.992558,-0.009338,0.008972,-0.989502,0.190321,0.356031,-0.130992,54,277,591,6192
1644191432.040935,-0.011292,0.006714,-0.990051,0.113985,0.539237,-0.207328,39,276,578,6224
1644191432.091895,-0.008606,0.01416,-0.992432,0.159786,0.478168,-0.069924,39,283,592,6224
1644191432.137725,-0.010742,0.009277,-0.992859,0.342992,0.401832,-0.039389,51,279,583,6224
1644191432.186091,-0.007507,0.010803,-0.991394,0.175053,0.447634,-0.100458,57,275,586,6224
1644191432.234481,-0.007019,0.010742,-0.990356,0.175053,0.569771,-0.237863,51,276,585,6176
1644191432.282895,-0.008728,0.005554,-0.992859,0.175053,0.356031,0.021679,47,275,586,6192
1644191432.331263,-0.011719,0.010315,-0.992981,0.251389,0.523969,-0.039389,43,269,590,6224
1644191432.379653,-0.004822,0.008728,-0.99115,0.236122,0.447634,0.006412,48,271,583,6224
1644191432.42801,-0.006653,0.006897,-0.991821,0.220855,0.600305,-0.192061,58,274,597,6224
1644191432.476419,-0.008728,0.008545,-0.990967,0.190321,0.478168,-0.161527,54,265,589,6192
1644191432.524853,-0.008545,0.009766,-0.992615,0.144519,0.371298,-0.039389,49,285,589,6224
1644191432.574548,-0.00708,0.008728,-0.993286,0.297191,0.523969,-0.161527,52,280,584,6256
1644191432.625059,-0.007324,0.009216,-0.991882,0.175053,0.447634,-0.14626,39,276,578,6240
1644191432.67505,-0.009216,0.011169,-0.992004,0.159786,0.310229,-0.130992,57,273,589,6224
1644191432.766796,-0.011047,0.009583,-0.991089,0.266656,0.386565,-0.237863,57,277,572,6192
1644191432.815382,-0.005798,0.010742,-0.990845,0.297191,0.478168,-0.039389,49,275,591,6176
1644191432.863624,-0.011597,0.009888,-0.990662,0.129252,0.356031,-0.161527,48,269,587,6240
1644191432.912003,-0.009583,0.007263,-0.988892,0.236122,0.462901,-0.14626,52,277,591,6256
1644191432.960395,-0.009338,0.010498,-0.990234,0.220855,0.432366,-0.024122,52,280,575,6224
1644191433.008782,-0.008606,0.010437,-0.992432,0.175053,0.294962,-0.100458,42,280,582,6256
1644191433.064879,-0.010254,0.009277,-0.989746,0.404061,0.386565,-0.039389,54,292,586,6192
1644191433.105832,-0.009094,0.012573,-0.992737,0.205588,0.386565,-0.115725,46,279,587,6160
1644191433.153981,-0.009277,0.010437,-0.992249,0.052916,0.310229,-0.069924,49,282,575,6240
1644191433.202353,-0.005859,0.013611,-0.990479,0.236122,0.523969,-0.14626,52,277,579,6288
1644191433.250701,-0.007812,0.011658,-0.991272,0.266656,0.493435,-0.100458,47,275,584,6176
1644191433.299123,-0.007202,0.010254,-0.990906,0.327725,0.356031,-0.008855,48,281,578,6224
1644191433.347516,-0.007324,0.011475,-0.990906,0.281924,0.539237,-0.115725,49,275,582,6240
1644191433.395904,-0.008118,0.008179,-0.993042,0.266656,0.432366,-0.085191,51,276,580,6224
1644191433.444292,-0.007751,0.010376,-0.992737,0.144519,0.325496,-0.130992,49,277,579,6176
1644191433.492717,-0.007935,0.009705,-0.989197,0.327725,0.462901,-0.161527,52,285,582,6224
1644191433.541051,-0.005005,0.009766,-0.989136,0.144519,0.340763,-0.085191,45,280,593,6256
1644191433.589468,-0.009155,0.009216,-0.992126,0.419328,0.386565,-0.054656,49,277,577,6224
1644191433.637875,-0.007812,0.010071,-0.988831,0.236122,0.569771,-0.069924,54,280,584,6176
1644191433.686625,-0.008545,0.012695,-0.993164,0.236122,0.417099,-0.100458,47,273,582,6160
1644191433.737095,-0.005493,0.009399,-0.99408,0.327725,0.325496,0.082748,42,277,591,6224
1644191433.787365,-0.009216,0.007629,-0.989197,0.281924,0.401832,0.006412,41,276,583,6176
1644191433.832317,-0.009644,0.00824,-0.988037,0.220855,0.432366,-0.130992,42,277,579,6224
1644191433.928254,-0.00946,0.012146,-0.992065,0.144519,0.233893,-0.115725,52,277,577,6224
1644191433.976643,-0.010986,0.011353,-0.992676,0.190321,0.447634,-0.039389,51,274,576,6240
1644191434.025095,-0.00708,0.009644,-0.989319,0.236122,0.340763,-0.039389,58,271,592,6240
1644191434.073527,-0.00946,0.009583,-0.99115,0.190321,0.294962,-0.024122,38,282,586,6176
1644191434.121802,-0.011597,0.010437,-0.992859,0.129252,0.493435,-0.100458,42,290,582,6304
1644191434.17017,-0.009033,0.007568,-0.992676,0.281924,0.508702,-0.176794,43,269,583,6224
1644191434.218583,-0.008911,0.009705,-0.989685,0.08345,0.325496,-0.192061,46,276,585,6304
1644191434.266977,-0.007751,0.010498,-0.990051,0.388794,0.432366,-0.14626,53,279,580,6240
1644191434.315382,-0.010071,0.010498,-0.988525,0.220855,0.325496,-0.054656,52,280,584,6192
1644191434.363769,-0.009766,0.00946,-0.993225,0.205588,0.356031,-0.069924,55,281,585,6224
1644191434.412236,-0.007324,0.010315,-0.991211,0.08345,0.569771,0.082748,54,290,584,6192
1644191434.460545,-0.005249,0.012329,-0.991333,0.129252,0.432366,-0.008855,49,273,593,6240
1644191434.508925,-0.006958,0.00769,-0.993408,0.266656,0.478168,-0.14626,52,280,591,6224
1644191434.557358,-0.009277,0.00647,-0.993103,0.205588,0.508702,-0.115725,59,282,589,6256
1644191434.605737,-0.007507,0.011414,-0.993225,0.129252,0.554504,-0.069924,51,279,585,6176
1644191434.654101,-0.007141,0.009644,-0.991577,0.175053,0.401832,-0.054656,51,283,583,6256
1644191434.702539,-0.01001,0.006775,-0.991577,0.266656,0.386565,-0.130992,48,274,580,6176
1644191434.750879,-0.011902,0.01001,-0.992249,0.037649,0.508702,-0.115725,53,271,587,6224
1644191434.801117,-0.008301,0.008057,-0.992065,0.281924,0.386565,-0.069924,58,281,569,6176
1644191434.850978,-0.009766,0.012451,-0.991821,0.144519,0.310229,-0.207328,55,264,590,6224
1644191434.901196,-0.011292,0.00885,-0.993042,0.281924,0.356031,-0.100458,49,275,589,6224
1644191434.945775,-0.00769,0.009644,-0.99176,0.175053,0.417099,-0.237863,52,282,582,6224
1644191435.041296,-0.009583,0.009705,-0.990906,0.342992,0.401832,0.021679,49,287,582,6240
1644191435.091223,-0.008606,0.007385,-0.992981,0.236122,0.569771,-0.039389,52,280,589,6304
1644191435.138036,-0.007263,0.007629,-0.991638,0.281924,0.447634,-0.069924,46,264,585,6240
1644191435.186437,-0.006226,0.011108,-0.992126,0.098718,0.508702,-0.039389,53,271,580,6288
1644191435.23484,-0.008362,0.008423,-0.990662,0.144519,0.386565,-0.161527,48,286,583,6192
1644191435.283233,-0.00769,0.008301,-0.993347,0.144519,0.432366,-0.054656,47,270,582,6176
1644191435.331621,-0.008362,0.010681,-0.991394,0.281924,0.523969,-0.039389,55,281,587,6192
1644191435.380008,-0.00946,0.010803,-0.990723,0.281924,0.386565,-0.237863,52,285,589,6304
1644191435.428382,-0.007446,0.009766,-0.992065,0.312458,0.462901,0.067481,55,269,583,6224
1644191435.476801,-0.010925,0.009338,-0.991089,0.190321,0.432366,-0.054656,45,282,593,6224
1644191435.52532,-0.005432,0.008545,-0.991943,0.266656,0.432366,0.098015,60,274,583,6240
1644191435.573601,-0.00946,0.010986,-0.993835,0.419328,0.386565,-0.008855,46,281,587,6224
1644191435.621987,-0.009949,0.006775,-0.989746,0.373527,0.386565,-0.054656,54,275,582,6224
1644191435.670375,-0.008179,0.011047,-0.992249,0.297191,0.447634,-0.115725,53,279,587,6240
1644191435.718765,-0.008301,0.008179,-0.992615,0.419328,0.386565,0.082748,53,271,587,6176
1644191435.767158,-0.006958,0.008911,-0.991882,0.190321,0.356031,0.021679,45,277,591,6224
1644191435.815627,-0.010132,0.010986,-0.992371,0.08345,0.585038,-0.008855,65,274,592,6256
1644191435.864331,-0.010559,0.009338,-0.992065,0.297191,0.447634,-0.100458,51,279,590,6224
1644191435.912618,-0.008972,0.012146,-0.993225,0.281924,0.371298,-0.222595,45,277,582,6224
1644191435.962726,-0.008423,0.008301,-0.991089,0.220855,0.569771,0.021679,47,270,586,6176
1644191436.066955,-0.009766,0.010193,-0.992737,0.037649,0.325496,-0.130992,52,273,584,6240
1644191436.105917,-0.011658,0.008667,-0.990662,0.190321,0.340763,-0.130992,51,286,583,6256
1644191436.154309,-0.008667,0.00824,-0.990295,0.175053,0.462901,-0.039389,53,279,590,6240
1644191436.202715,-0.008301,0.011475,-0.993713,0.236122,0.417099,-0.100458,48,281,587,6256
1644191436.25108,-0.01123,0.008789,-0.991638,0.251389,0.401832,-0.054656,46,276,587,6288
1644191436.299479,-0.007935,0.008179,-0.99176,0.236122,0.432366,-0.14626,51,266,583,6224
1644191436.347869,-0.01062,0.00946,-0.993958,0.144519,0.493435,-0.024122,48,279,597,6224
1644191436.396262,-0.00885,0.007141,-0.992004,0.266656,0.371298,-0.054656,41,279,578,6160
1644191436.444713,-0.009216,0.009277,-0.992065,0.098718,0.386565,0.006412,55,283,592,6224
1644191436.493038,-0.009644,0.010376,-0.991821,0.297191,0.539237,-0.039389,46,274,583,6128
1644191436.541448,-0.011841,0.008423,-0.991821,0.35826,0.356031,0.021679,47,275,572,6224
1644191436.589835,-0.008545,0.007446,-0.992432,0.220855,0.24916,-0.039389,57,273,582,6288
1644191436.638212,-0.011963,0.008789,-0.99115,0.236122,0.432366,-0.36,48,269,587,6240
1644191436.6866,-0.010376,0.008972,-0.995178,0.068183,0.264427,-0.25313,41,288,583,6256
1644191436.735394,-0.007812,0.010132,-0.990356,0.098718,0.340763,-0.008855,62,269,587,6224
1644191436.784701,-0.008118,0.008179,-0.989624,0.220855,0.539237,-0.222595,49,270,582,6192
1644191436.83568,-0.007935,0.010742,-0.992615,0.297191,0.493435,-0.054656,39,283,576,6224
1644191436.880514,-0.009644,0.011658,-0.992676,0.236122,0.539237,-0.130992,48,271,576,6224
1644191436.977008,-0.010559,0.010803,-0.992493,0.297191,0.386565,-0.054656,53,288,583,6176
1644191437.025499,-0.007446,0.011169,-0.991943,0.205588,0.539237,-0.008855,48,276,583,6224
1644191437.073858,-0.008484,0.009827,-0.991394,0.236122,0.417099,-0.069924,60,281,578,6240
1644191437.122194,-0.008484,0.009033,-0.993225,0.266656,0.523969,-0.207328,46,274,585,6192
1644191437.170555,-0.008911,0.008545,-0.99176,0.236122,0.447634,-0.192061,60,269,585,6240
1644191437.218951,-0.006409,0.008789,-0.992432,0.08345,0.264427,-0.008855,47,265,570,6224
1644191437.267329,-0.008789,0.009094,-0.993896,0.281924,0.508702,-0.085191,39,283,583,6240
1644191437.315705,-0.009583,0.009521,-0.992004,0.190321,0.340763,-0.222595,51,276,583,6256
1644191437.364127,-0.009766,0.007446,-0.989563,0.113985,0.340763,-0.14626,35,280,582,6176
1644191437.412534,-0.00885,0.010559,-0.991028,0.35826,0.386565,-0.054656,52,268,586,6224
1644191437.460918,-0.007446,0.007812,-0.988586,0.281924,0.478168,-0.054656,47,273,591,6256
1644191437.509309,-0.00769,0.008301,-0.99231,0.312458,0.462901,-0.14626,49,275,589,6224
1644191437.557707,-0.009705,0.007263,-0.991394,0.388794,0.569771,-0.085191,51,296,592,6192
1644191437.606094,-0.008606,0.007568,-0.99115,0.327725,0.294962,-0.100458,48,279,583,6224
1644191437.654493,-0.011047,0.007935,-0.993652,0.281924,0.462901,-0.008855,48,283,585,6240
1644191437.702901,-0.00946,0.00769,-0.992004,0.342992,0.325496,-0.069924,47,285,586,6224
1644191437.751247,-0.010437,0.00946,-0.995361,0.175053,0.508702,-0.268397,35,280,584,6224
1644191437.79966,-0.008362,0.006531,-0.991516,0.190321,0.24916,-0.085191,54,273,582,6192
1644191437.848095,-0.008667,0.012695,-0.990967,0.266656,0.493435,-0.024122,52,273,582,6176
1644191437.897767,-0.006348,0.010559,-0.992981,0.159786,0.478168,-0.130992,48,266,594,6256
1644191437.947945,-0.010681,0.00946,-0.99054,0.281924,0.462901,-0.130992,42,280,584,6256
1644191437.998477,-0.007507,0.009033,-0.992859,0.175053,0.310229,-0.085191,51,279,585,6192
1644191438.042851,-0.005676,0.011414,-0.991943,0.205588,0.371298,-0.115725,47,280,584,6224
1644191438.138459,-0.008728,0.00824,-0.992798,0.205588,0.340763,-0.14626,54,275,575,6288
1644191438.186783,-0.006348,0.01239,-0.990662,0.342992,0.493435,-0.069924,47,277,579,6256
1644191438.235386,-0.007751,0.01123,-0.993408,0.068183,0.432366,-0.14626,46,283,583,6224
1644191438.283575,-0.009827,0.009033,-0.992126,0.266656,0.478168,-0.14626,54,270,584,6256
1644191438.331983,-0.005249,0.009827,-0.992371,0.236122,0.24916,-0.024122,43,291,578,6240
1644191438.380355,-0.009705,0.011475,-0.99176,0.281924,0.279695,-0.054656,42,273,582,6240
1644191438.428767,-0.008972,0.007874,-0.992126,0.205588,0.371298,-0.085191,48,279,587,6224
1644191438.477154,-0.011047,0.010498,-0.989929,0.220855,0.508702,-0.130992,52,277,579,6240
1644191438.525555,-0.007263,0.010437,-0.991394,0.220855,0.554504,-0.054656,49,280,584,6224
1644191438.573953,-0.006775,0.010193,-0.992432,0.297191,0.371298,-0.161527,49,285,589,6224
1644191438.62236,-0.008057,0.013062,-0.989136,0.220855,0.356031,-0.069924,55,283,587,6192
1644191438.67073,-0.009949,0.010681,-0.989197,0.281924,0.417099,-0.176794,51,274,580,6192
1644191438.719134,-0.007568,0.010437,-0.995789,0.251389,0.310229,-0.25313,46,286,590,6256
1644191438.767529,-0.009338,0.007202,-0.995056,0.175053,0.523969,-0.161527,36,279,594,6240
1644191438.815917,-0.010071,0.008972,-0.99408,0.327725,0.462901,-0.085191,54,270,584,6192
1644191438.864363,-0.011353,0.008667,-0.990662,0.190321,0.432366,-0.115725,51,279,594,6240
1644191438.912759,-0.008972,0.007629,-0.992004,0.220855,0.294962,-0.14626,51,288,578,6176
1644191438.961132,-0.011658,0.007874,-0.99231,0.205588,0.585038,-0.039389,49,275,575,6192
1644191439.062291,-0.007996,0.011597,-0.993835,0.098718,0.417099,-0.100458,52,282,591,6192
1644191439.106302,-0.008423,0.009094,-0.992188,0.480397,0.386565,-0.176794,53,274,587,6240
1644191439.154983,-0.010132,0.008301,-0.992065,0.205588,0.432366,-0.130992,42,273,593,6256
1644191439.203076,-0.009644,0.007263,-0.990967,0.220855,0.523969,-0.024122,42,265,575,6224
1644191439.251433,-0.006836,0.011902,-0.988892,0.220855,0.417099,-0.237863,55,271,580,6224
1644191439.299838,-0.007874,0.008972,-0.991089,0.175053,0.417099,-0.207328,49,282,584,6224
1644191439.348245,-0.009216,0.010803,-0.99054,0.220855,0.386565,-0.222595,53,269,585,6160
1644191439.396646,-0.007874,0.010803,-0.990601,0.205588,0.432366,-0.130992,52,273,584,6288
1644191439.445163,-0.009888,0.007385,-0.99054,0.007115,0.447634,-0.176794,54,275,593,6176
1644191439.493407,-0.008911,0.010864,-0.992737,0.159786,0.417099,0.006412,57,282,586,6240
1644191439.541825,-0.006287,0.011292,-0.99176,0.236122,0.447634,-0.130992,48,274,590,6224
1644191439.590207,-0.007874,0.009644,-0.990967,0.312458,0.356031,-0.085191,53,269,583,6288
1644191439.638569,-0.008667,0.009399,-0.988464,0.144519,0.432366,-0.039389,51,271,576,6224
1644191439.686991,-0.007568,0.011292,-0.990479,0.220855,0.340763,-0.024122,36,276,585,6256
1644191439.735385,-0.007568,0.009949,-0.991638,0.281924,0.279695,-0.14626,48,281,585,6160
1644191439.78378,-0.006958,0.009155,-0.991028,0.159786,0.325496,-0.192061,57,280,586,6224
1644191439.832356,-0.010742,0.010742,-0.990967,0.159786,0.386565,-0.130992,58,269,583,6192
1644191439.882556,-0.011475,0.006165,-0.991028,0.144519,0.401832,-0.039389,41,274,571,6176
1644191439.932652,-0.007446,0.008118,-0.990601,0.175053,0.554504,-0.069924,45,282,582,6240
1644191439.982865,-0.009521,0.007507,-0.992249,0.281924,0.447634,-0.176794,51,274,576,6224
1644191440.027815,-0.008118,0.010681,-0.991272,0.205588,0.325496,-0.115725,39,283,590,6224
1644191440.122554,-0.008362,0.00946,-0.994629,0.281924,0.401832,-0.100458,52,275,582,6224
1644191440.17095,-0.004944,0.010437,-0.990662,0.144519,0.340763,-0.130992,45,277,582,6224
1644191440.219336,-0.007874,0.008423,-0.992249,0.037649,0.401832,0.052214,53,269,585,6240
1644191440.267705,-0.007141,0.011108,-0.990234,0.220855,0.401832,-0.176794,57,275,596,6224
1644191440.316115,-0.00769,0.007263,-0.991638,0.220855,0.294962,-0.130992,49,270,572,6256
1644191440.364535,-0.010254,0.010254,-0.992798,0.08345,0.462901,0.021679,43,271,580,6240
1644191440.412953,-0.00946,0.011108,-0.98999,0.08345,0.340763,-0.069924,46,264,583,6224
1644191440.461331,-0.007507,0.007141,-0.992065,0.312458,0.310229,-0.176794,54,280,591,6240
1644191440.509719,-0.007446,0.008789,-0.991089,0.281924,0.462901,-0.085191,54,280,575,6224
1644191440.558119,-0.009033,0.010559,-0.99115,0.251389,0.508702,-0.130992,53,274,576,6192
1644191440.606496,-0.010254,0.009766,-0.991211,0.190321,0.478168,-0.115725,48,279,580,6224
1644191440.65492,-0.006897,0.010315,-0.992737,0.098718,0.462901,-0.176794,40,280,589,6288
1644191440.703292,-0.007141,0.011169,-0.991638,0.159786,0.432366,-0.100458,40,277,582,6192
1644191440.751672,-0.008667,0.012207,-0.992859,0.236122,0.417099,0.036947,52,273,584,6224
1644191440.800082,-0.009949,0.009033,-0.988831,0.190321,0.371298,-0.176794,49,282,579,6240
1644191440.848468,-0.006592,0.008789,-0.993042,0.281924,0.310229,-0.176794,58,266,573,6224
1644191440.896815,-0.006897,0.005554,-0.992554,0.251389,0.356031,-0.130992,42,277,582,6240
1644191440.945547,-0.008057,0.007446,-0.987915,0.159786,0.340763,-0.024122,43,276,585,6288
1644191440.993823,-0.007324,0.008667,-0.98999,0.113985,0.233893,-0.115725,47,268,582,6256
1644191441.044023,-0.007568,0.010681,-0.989685,0.312458,0.233893,-0.069924,52,282,572,6224
1644191441.100046,-0.010132,0.00946,-0.990784,0.297191,0.401832,-0.024122,52,270,589,6192
1644191441.143752,-0.008179,0.010376,-0.990112,0.098718,0.462901,-0.024122,41,276,583,6176
1644191441.235586,-0.006592,0.010376,-0.991089,0.144519,0.447634,-0.039389,49,280,586,6224
1644191441.283967,-0.00769,0.00708,-0.993469,0.159786,0.432366,-0.008855,59,268,591,6224
1644191441.332389,-0.010071,0.00824,-0.991516,0.220855,0.447634,-0.054656,45,270,589,6224
1644191441.380737,-0.011719,0.010559,-0.993408,0.251389,0.294962,-0.100458,38,277,582,6256
1644191441.429136,-0.008728,0.006592,-0.992554,0.144519,0.432366,-0.069924,46,276,583,6160
1644191441.477518,-0.007568,0.010437,-0.988831,0.312458,0.447634,0.021679,51,283,578,6256
1644191441.52589,-0.009766,0.013184,-0.993591,0.327725,0.386565,-0.115725,45,265,579,6224
1644191441.574331,-0.009705,0.007446,-0.991821,0.159786,0.386565,-0.039389,57,277,586,6176
1644191441.622731,-0.008728,0.010559,-0.993164,0.266656,0.462901,0.052214,54,263,589,6256
1644191441.671096,-0.009521,0.010254,-0.989807,0.022382,0.386565,-0.085191,48,276,585,6240
1644191441.7195,-0.00824,0.010559,-0.991638,0.281924,0.417099,-0.100458,49,282,582,6224
1644191441.767885,-0.008667,0.010437,-0.992126,0.312458,0.401832,-0.039389,47,275,589,6224
1644191441.816316,-0.009827,0.010315,-0.994873,0.251389,0.417099,-0.100458,53,288,576,6256
1644191441.864729,-0.009094,0.008667,-0.990906,0.220855,0.371298,0.006412,42,282,596,6224
1644191441.913125,-0.007935,0.010376,-0.99176,0.251389,0.356031,-0.14626,57,275,591,6224
1644191441.961505,-0.009094,0.009277,-0.991211,0.190321,0.478168,-0.008855,52,282,586,6224
1644191442.059941,-0.010864,0.010559,-0.992188,0.281924,0.523969,-0.115725,47,287,591,6224
1644191442.106628,-0.010376,0.009338,-0.992065,0.251389,0.356031,-0.14626,47,290,579,6240
1644191442.155391,-0.005981,0.009399,-0.990356,0.266656,0.447634,-0.14626,58,281,583,6176
1644191442.203424,-0.010376,0.010803,-0.989502,0.342992,0.386565,0.052214,53,274,587,6256
1644191442.251792,-0.007935,0.008179,-0.992981,0.251389,0.417099,-0.085191,46,279,585,6256
1644191442.300192,-0.005554,0.011475,-0.989929,0.266656,0.462901,-0.054656,59,275,577,6224
1644191442.348603,-0.009766,0.009827,-0.989136,0.312458,0.325496,-0.207328,48,271,580,6224
1644191442.397003,-0.009094,0.011108,-0.99231,0.190321,0.508702,-0.100458,49,273,591,6192
1644191442.445396,-0.006287,0.009094,-0.992615,0.190321,0.432366,-0.14626,40,282,584,6256
1644191442.493764,-0.008423,0.009338,-0.992615,0.327725,0.478168,-0.100458,51,281,592,6256
1644191442.542244,-0.009949,0.011292,-0.994385,0.205588,0.371298,-0.085191,45,287,591,6224
1644191442.590573,-0.00824,0.011047,-0.989807,0.113985,0.478168,-0.069924,46,281,592,6224
1644191442.638957,-0.010315,0.00824,-0.989807,0.159786,0.462901,-0.100458,47,280,589,6240
1644191442.68735,-0.010986,0.011169,-0.990417,0.388794,0.401832,-0.130992,57,275,577,6240
1644191442.735748,-0.006592,0.009216,-0.990112,0.236122,0.462901,-0.054656,45,285,586,6256
1644191442.784121,-0.009888,0.012878,-0.990601,0.220855,0.401832,0.052214,42,277,586,6192
1644191442.832587,-0.00824,0.00885,-0.989502,0.251389,0.493435,-0.161527,53,271,583,6224
1644191442.880983,-0.010742,0.008423,-0.994202,0.266656,0.356031,-0.25313,55,274,578,6224
1644191442.929973,-0.009155,0.011169,-0.99115,0.236122,0.310229,-0.008855,48,279,587,6224
1644191442.980291,-0.010742,0.008179,-0.992126,0.236122,0.508702,-0.14626,58,274,587,6224
1644191443.030964,-0.009033,0.010132,-0.991577,0.236122,0.417099,-0.054656,53,269,578,6240
1644191443.090057,-0.011963,0.01001,-0.992065,0.144519,0.447634,-0.176794,53,269,585,6224
1644191443.171264,-0.008484,0.010803,-0.990845,0.129252,0.356031,-0.130992,45,285,575,6176
1644191443.219666,-0.007874,0.010315,-0.989929,0.236122,0.401832,-0.054656,49,275,591,6240
1644191443.26808,-0.008118,0.009155,-0.992065,0.175053,0.447634,-0.069924,52,270,584,6224
1644191443.316445,-0.006042,0.01001,-0.990479,0.129252,0.447634,-0.039389,46,276,585,6176
1644191443.364881,-0.007874,0.011047,-0.994568,0.144519,0.417099,-0.054656,57,285,589,6224
1644191443.413242,-0.011841,0.01001,-0.990112,0.266656,0.554504,-0.192061,52,290,579,6256
1644191443.461648,-0.008667,0.010742,-0.990906,0.190321,0.432366,-0.069924,51,266,580,6256
1644191443.510041,-0.006897,0.008972,-0.990662,0.190321,0.340763,-0.176794,53,279,578,6224
1644191443.558443,-0.008545,0.011597,-0.992493,0.08345,0.478168,0.12855,45,275,572,6224
1644191443.606825,-0.009155,0.010742,-0.993225,0.175053,0.371298,-0.085191,52,282,584,6256
1644191443.655288,-0.008484,0.009644,-0.990784,0.281924,0.340763,0.052214,45,280,584,6224
1644191443.703609,-0.007812,0.009277,-0.991638,0.220855,0.294962,-0.069924,41,276,580,6224
1644191443.751989,-0.010254,0.010132,-0.991943,0.205588,0.356031,-0.039389,51,274,585,6240
1644191443.800401,-0.01001,0.008606,-0.993286,0.220855,0.401832,-0.192061,59,280,572,6224
1644191443.848838,-0.011353,0.01062,-0.991821,0.297191,0.371298,-0.176794,52,280,584,6256
1644191443.897225,-0.00647,0.010498,-0.991028,0.251389,0.218626,0.006412,47,277,598,6256
1644191443.945613,-0.009155,0.008789,-0.993347,0.144519,0.523969,-0.115725,52,280,586,6224
1644191443.994005,-0.011108,0.007446,-0.990051,0.327725,0.24916,-0.024122,58,274,585,6240
1644191444.042399,-0.008118,0.00946,-0.99176,0.312458,0.432366,-0.100458,59,277,596,6176
1644191444.10146,-0.006165,0.008362,-0.990173,0.312458,0.310229,-0.069924,46,281,587,6224
1644191444.143973,-0.008057,0.009705,-0.98761,0.159786,0.264427,-0.25313,46,276,580,6224
1644191444.187923,-0.012085,0.010559,-0.993103,0.159786,0.401832,-0.008855,46,274,580,6240
1644191444.284333,-0.007507,0.01123,-0.99231,0.266656,0.386565,-0.14626,54,275,579,6224
1644191444.332717,-0.006836,0.007385,-0.99353,0.236122,0.432366,-0.176794,40,282,575,6224
1644191444.381122,-0.009094,0.011841,-0.991882,0.175053,0.523969,0.006412,57,273,586,6256
1644191444.429494,-0.009583,0.012329,-0.992188,0.327725,0.432366,-0.130992,52,268,582,6240
1644191444.4779,-0.007874,0.010864,-0.99054,0.205588,0.401832,-0.130992,49,275,584,6224
1644191444.52629,-0.008789,0.01062,-0.987366,0.205588,0.493435,0.021679,54,275,589,6224
1644191444.574695,-0.010315,0.008545,-0.990906,0.266656,0.401832,-0.100458,51,269,583,6256
1644191444.623087,-0.007568,0.009399,-0.990845,0.08345,0.233893,-0.176794,48,271,587,6240
1644191444.671451,-0.004456,0.009583,-0.98877,0.266656,0.417099,-0.100458,54,273,582,6240
1644191444.719866,-0.007263,0.008545,-0.992065,0.35826,0.462901,-0.25313,43,283,578,6256
1644191444.768263,-0.007202,0.01123,-0.992065,0.297191,0.493435,-0.024122,62,271,580,6240
1644191444.816649,-0.009277,0.005676,-0.99115,0.266656,0.356031,-0.14626,41,281,585,6240
1644191444.865191,-0.007874,0.009827,-0.990967,0.220855,0.371298,-0.100458,60,286,585,6240
1644191444.913483,-0.009155,0.012085,-0.989563,0.175053,0.356031,0.006412,47,280,589,6176
1644191444.961873,-0.010254,0.009521,-0.992004,0.129252,0.325496,-0.100458,48,286,587,6224
1644191445.010269,-0.006897,0.008728,-0.989258,0.159786,0.294962,-0.176794,49,287,577,6224
1644191445.066718,-0.007996,0.009155,-0.99231,0.175053,0.432366,-0.14626,49,277,593,6240
1644191445.113483,-0.008911,0.01001,-0.991455,0.251389,0.188092,-0.192061,42,277,582,6288
1644191445.156108,-0.00647,0.009705,-0.990479,0.327725,0.340763,-0.024122,47,275,589,6256
1644191445.204988,-0.009277,0.011047,-0.989807,0.068183,0.401832,-0.161527,48,276,576,6256
1644191445.255248,-0.007019,0.00708,-0.993042,0.251389,0.401832,-0.25313,60,281,597,6224
1644191445.305654,-0.006775,0.008545,-0.99231,0.312458,0.569771,-0.054656,45,277,579,6240
1644191445.397387,-0.007019,0.009827,-0.989746,0.327725,0.417099,-0.14626,58,271,583,6224
1644191445.445736,-0.009033,0.010681,-0.990417,0.175053,0.401832,-0.192061,48,281,590,6224
1644191445.494146,-0.006897,0.008301,-0.99176,0.175053,0.417099,-0.039389,51,276,587,6224
1644191445.542548,-0.007019,0.009216,-0.99115,0.052916,0.310229,-0.130992,51,269,585,6224
1644191445.590926,-0.009277,0.007812,-0.991638,0.236122,0.279695,-0.268397,55,276,583,6240
1644191445.639314,-0.009949,0.010071,-0.990417,0.190321,0.432366,-0.176794,57,280,582,6240
1644191445.687723,-0.009399,0.008545,-0.990479,0.159786,0.508702,-0.14626,60,286,594,6240
1644191445.736106,-0.008972,0.009094,-0.993225,0.144519,0.356031,-0.25313,58,286,585,6224
1644191445.784521,-0.007568,0.011658,-0.990967,0.236122,0.401832,-0.069924,51,279,583,6192
1644191445.832917,-0.010864,0.011169,-0.991089,0.190321,0.356031,-0.069924,46,274,587,6224
1644191445.881341,-0.008972,0.010437,-0.991699,0.297191,0.340763,-0.192061,43,274,580,6240
1644191445.929712,-0.007385,0.009766,-0.99231,0.236122,0.325496,-0.039389,58,274,585,6224
1644191445.978117,-0.009033,0.009277,-0.989746,0.266656,0.325496,-0.024122,47,270,577,6240
1644191446.02651,-0.009094,0.008667,-0.990417,0.35826,0.447634,-0.024122,49,275,584,6192
1644191446.097649,-0.006348,0.013367,-0.991455,0.342992,0.218626,-0.085191,49,277,586,6224
1644191446.125333,-0.009094,0.010864,-0.991211,0.251389,0.554504,-0.069924,54,280,582,6176
1644191446.175576,-0.012207,0.008423,-0.992676,0.281924,0.447634,-0.130992,52,280,586,6176
1644191446.225792,-0.008362,0.009766,-0.994934,0.251389,0.356031,-0.115725,48,264,585,6240
1644191446.317106,-0.009033,0.012085,-0.989746,0.190321,0.432366,-0.069924,55,276,592,6192
1644191446.365439,-0.008606,0.008057,-0.990906,0.312458,0.325496,-0.130992,40,270,582,6192
1644191446.41366,-0.010925,0.013489,-0.988647,0.08345,0.401832,0.006412,42,275,586,6160
1644191446.462045,-0.007324,0.010986,-0.991577,0.251389,0.432366,-0.176794,51,269,583,6224
1644191446.510442,-0.010071,0.008301,-0.990601,0.327725,0.356031,-0.100458,49,277,579,6240
1644191446.55881,-0.006958,0.008972,-0.990051,0.236122,0.325496,0.052214,58,279,573,6128
1644191446.607218,-0.00708,0.012207,-0.991455,0.205588,0.432366,0.052214,55,269,585,6224
1644191446.65562,-0.006836,0.011108,-0.990906,0.144519,0.325496,-0.176794,62,283,585,6304
1644191446.704013,-0.009949,0.010376,-0.994263,0.342992,0.294962,-0.024122,42,282,579,6224
1644191446.7524,-0.010742,0.010925,-0.992432,0.236122,0.371298,-0.14626,62,283,587,6240
1644191446.800799,-0.010254,0.008423,-0.992371,0.236122,0.462901,-0.207328,48,281,580,6288
1644191446.849196,-0.008118,0.009705,-0.990234,0.220855,0.401832,-0.192061,51,279,590,6240
1644191446.897557,-0.009277,0.010315,-0.991699,0.327725,0.356031,-0.054656,43,279,578,6224
1644191446.945978,-0.009583,0.009949,-0.994812,0.251389,0.508702,-0.161527,48,269,585,6256
1644191446.994383,-0.007385,0.009033,-0.993042,0.007115,0.325496,-0.115725,45,273,584,6224
1644191447.042779,-0.008423,0.006348,-0.99292,0.113985,0.233893,-0.115725,64,270,596,6304
1644191447.094246,-0.007507,0.008606,-0.991943,0.068183,0.585038,-0.100458,54,285,584,6192
1644191447.139492,-0.010681,0.009338,-0.990356,0.175053,0.371298,-0.222595,46,281,583,6224
1644191447.188133,-0.008667,0.007935,-0.990906,0.312458,0.493435,-0.024122,54,273,582,6192
1644191447.23754,-0.010437,0.010803,-0.992249,0.281924,0.371298,-0.024122,41,271,583,6176
1644191447.287874,-0.007019,0.009949,-0.992004,0.236122,0.356031,-0.207328,58,274,587,6304
1644191447.33829,-0.006714,0.008972,-0.990662,0.159786,0.462901,-0.008855,41,266,587,6240
1644191447.429847,-0.009888,0.010071,-0.990662,0.205588,0.462901,-0.161527,53,276,590,6224
1644191447.478246,-0.008484,0.010925,-0.990173,0.281924,0.294962,-0.237863,47,275,577,6224
1644191447.52662,-0.009949,0.008423,-0.992737,0.251389,0.417099,0.067481,46,274,571,6176
1644191447.575275,-0.008179,0.013123,-0.992065,0.159786,0.325496,-0.237863,49,273,577,6256
1644191447.623443,-0.008606,0.010132,-0.991638,0.159786,0.569771,0.067481,48,266,576,6256
1644191447.671836,-0.010803,0.011841,-0.992737,0.129252,0.401832,-0.115725,45,275,586,6256
1644191447.720269,-0.006409,0.007874,-0.990723,0.205588,0.294962,0.082748,48,279,580,6256
1644191447.768621,-0.008301,0.011658,-0.991089,0.373527,0.264427,-0.25313,58,281,578,6176
1644191447.817025,-0.007202,0.009033,-0.993958,0.342992,0.585038,-0.008855,45,282,584,6240
1644191447.865449,-0.007507,0.008972,-0.990417,0.190321,0.356031,0.006412,49,270,575,6240
1644191447.913854,-0.007996,0.012024,-0.990112,0.251389,0.356031,-0.192061,47,285,575,6192
1644191447.962264,-0.008972,0.01239,-0.990906,0.129252,0.432366,-0.100458,54,277,591,6176
1644191448.010591,-0.007324,0.008667,-0.990784,0.068183,0.294962,-0.069924,53,279,590,6240
1644191448.065196,-0.006348,0.009399,-0.991455,0.220855,0.279695,-0.100458,51,274,587,6224
1644191448.107359,-0.008667,0.007629,-0.990906,0.098718,0.401832,-0.130992,55,276,592,6224
1644191448.156854,-0.010254,0.008667,-0.990173,0.113985,0.417099,0.052214,49,282,577,6224
1644191448.204166,-0.006714,0.00946,-0.992004,0.175053,0.325496,-0.25313,48,274,590,6240
1644191448.252528,-0.009094,0.008545,-0.992554,0.113985,0.356031,0.036947,45,287,577,6176
1644191448.300956,-0.009033,0.009094,-0.990601,0.144519,0.432366,-0.085191,47,275,586,6224
1644191448.3498,-0.008301,0.009888,-0.991516,0.327725,0.417099,-0.024122,34,279,590,6288
1644191448.400096,-0.008545,0.010132,-0.991394,0.190321,0.386565,-0.115725,52,277,586,6176
1644191448.450392,-0.010803,0.008179,-0.994751,0.175053,0.340763,0.067481,53,276,594,6240
1644191448.496035,-0.007751,0.009521,-0.990601,0.342992,0.432366,-0.069924,46,274,576,6160
1644191448.591296,-0.008972,0.009216,-0.991638,0.220855,0.401832,0.021679,46,279,583,6224
1644191448.639688,-0.010681,0.007751,-0.990479,0.159786,0.371298,0.021679,42,277,586,6240
1644191448.688062,-0.008545,0.010376,-0.992126,0.251389,0.462901,-0.008855,52,275,589,6304
1644191448.736471,-0.007446,0.010132,-0.99176,0.159786,0.493435,0.082748,53,271,590,6224
1644191448.784849,-0.008057,0.008545,-0.991577,0.312458,0.417099,-0.268397,48,276,583,6192
1644191448.833315,-0.009277,0.009338,-0.993896,0.144519,0.401832,-0.054656,43,276,576,6160
1644191448.881695,-0.007629,0.008972,-0.990479,0.281924,0.356031,-0.192061,45,265,579,6224
1644191448.930069,-0.00769,0.011169,-0.989563,0.281924,0.523969,-0.054656,52,273,575,6224
1644191448.978477,-0.008911,0.007874,-0.990784,0.236122,0.371298,-0.100458,43,281,580,6192
1644191449.026871,-0.010254,0.008484,-0.991028,0.312458,0.340763,-0.039389,42,270,593,6224
1644191449.092887,-0.010132,0.007507,-0.993103,0.297191,0.447634,0.143817,47,285,591,6256
1644191449.123638,-0.006714,0.008545,-0.989014,0.144519,0.493435,-0.008855,45,280,589,6224
1644191449.172033,-0.009155,0.010315,-0.99115,0.220855,0.417099,-0.14626,49,275,591,6256
1644191449.22041,-0.007996,0.007507,-0.990906,0.312458,0.325496,-0.130992,47,280,584,6224
1644191449.268805,-0.009949,0.009521,-0.991394,0.190321,0.462901,-0.069924,51,276,590,6224
1644191449.317197,-0.007568,0.00946,-0.991394,0.175053,0.478168,-0.069924,55,276,587,6160
1644191449.365587,-0.006531,0.008789,-0.991272,0.342992,0.523969,-0.207328,36,266,583,6192
1644191449.413982,-0.007812,0.009155,-0.991028,0.297191,0.325496,-0.115725,49,282,584,6256
1644191449.462713,-0.006592,0.009155,-0.989502,0.205588,0.203359,-0.054656,49,275,582,6288
1644191449.511736,-0.006531,0.008057,-0.994263,0.220855,0.432366,-0.085191,57,273,579,6192
1644191449.56208,-0.009644,0.012695,-0.990784,0.205588,0.493435,-0.130992,48,276,587,6240
1644191449.612267,-0.010071,0.010254,-0.99292,0.419328,0.340763,0.006412,47,275,586,6192
1644191449.657283,-0.008606,0.00946,-0.990356,0.35826,0.417099,-0.069924,47,273,584,6224
1644191449.752739,-0.007507,0.008972,-0.990234,0.175053,0.462901,-0.008855,52,277,579,6176
1644191449.80112,-0.006775,0.013245,-0.99176,0.251389,0.401832,-0.054656,41,276,578,6224
1644191449.849547,-0.008118,0.010132,-0.993591,0.144519,0.462901,-0.008855,55,274,585,6224
1644191449.897949,-0.011414,0.008667,-0.989014,0.251389,0.417099,-0.222595,49,270,584,6240
1644191449.946326,-0.009888,0.012024,-0.993469,0.129252,0.417099,-0.008855,42,268,584,6176
1644191449.994744,-0.009338,0.008728,-0.992004,0.175053,0.478168,0.082748,54,280,577,6240
1644191450.043152,-0.012085,0.008606,-0.991516,0.297191,0.325496,0.067481,42,277,591,6160
1644191450.095407,-0.009216,0.008118,-0.993103,0.068183,0.447634,-0.176794,53,276,592,6256
1644191450.139854,-0.006287,0.007446,-0.990906,0.159786,0.401832,-0.115725,61,282,579,6224
1644191450.188274,-0.008545,0.009705,-0.988586,0.266656,0.539237,0.006412,47,277,577,6224
1644191450.236655,-0.007996,0.013855,-0.991028,0.205588,0.401832,-0.161527,43,279,585,6224
1644191450.285187,-0.007812,0.008484,-0.993164,0.175053,0.615573,-0.008855,43,281,590,6176
1644191450.333428,-0.00946,0.008118,-0.993652,0.342992,0.325496,-0.054656,49,275,589,6176
1644191450.381843,-0.009583,0.011475,-0.991211,0.281924,0.310229,-0.222595,55,281,587,6224
1644191450.430231,-0.009583,0.009521,-0.990234,0.037649,0.401832,-0.25313,54,273,584,6192
1644191450.478616,-0.008789,0.010681,-0.993164,0.098718,0.493435,-0.024122,45,287,586,6240
1644191450.527026,-0.009094,0.010132,-0.990784,0.220855,0.539237,-0.100458,46,283,585,6304
1644191450.575391,-0.006042,0.011047,-0.990662,0.236122,0.401832,-0.008855,53,274,580,6224
1644191450.624224,-0.008789,0.01062,-0.990112,0.251389,0.417099,-0.130992,54,273,591,6160
1644191450.674746,-0.005798,0.010376,-0.993286,0.08345,0.478168,0.036947,60,271,587,6288
1644191450.724984,-0.009216,0.009644,-0.989746,0.068183,0.508702,-0.100458,54,277,584,6224
1644191450.769936,-0.008057,0.011108,-0.990784,0.129252,0.386565,0.098015,48,283,573,6224
1644191450.865795,-0.01001,0.010437,-0.992249,0.281924,0.432366,-0.008855,52,273,582,6224
1644191450.914208,-0.008301,0.010681,-0.991333,0.113985,0.325496,-0.024122,42,275,584,6224
1644191450.962591,-0.007263,0.011658,-0.991577,0.175053,0.539237,-0.054656,43,276,585,6192
1644191451.010966,-0.009155,0.00769,-0.99115,0.113985,0.417099,-0.283664,49,280,582,6224
1644191451.064995,-0.007996,0.009155,-0.992554,0.35826,0.203359,-0.100458,53,279,592,6256
1644191451.107764,-0.009766,0.010376,-0.992676,0.236122,0.386565,-0.039389,61,277,586,6192
1644191451.156114,-0.00769,0.008972,-0.991943,0.144519,0.294962,-0.039389,55,269,583,6192
1644191451.204522,-0.007568,0.011963,-0.991333,0.35826,0.401832,-0.161527,51,288,578,6224
1644191451.252923,-0.009888,0.009277,-0.991028,0.190321,0.478168,-0.130992,53,274,583,6224
1644191451.301335,-0.004639,0.011414,-0.992126,0.327725,0.493435,0.006412,47,273,589,6224
1644191451.349699,-0.009888,0.007019,-0.992065,0.220855,0.401832,-0.008855,51,274,583,6192
1644191451.39806,-0.008362,0.009888,-0.99054,0.251389,0.401832,-0.085191,46,283,571,6256
1644191451.446472,-0.006714,0.009216,-0.990112,0.205588,0.417099,-0.14626,59,285,586,6224
1644191451.494886,-0.004883,0.010864,-0.991943,0.08345,0.401832,-0.130992,40,287,584,6192
1644191451.543273,-0.008301,0.008972,-0.992554,0.266656,0.264427,-0.100458,52,282,596,6240
1644191451.591637,-0.007874,0.010193,-0.991394,0.236122,0.462901,-0.039389,57,277,582,6256
1644191451.64005,-0.007324,0.007324,-0.991089,0.236122,0.386565,-0.039389,53,281,583,6240
1644191451.688473,-0.007812,0.011169,-0.991394,0.144519,0.401832,-0.100458,53,271,590,6224
1644191451.738239,-0.006287,0.012024,-0.991455,0.098718,0.539237,-0.069924,51,269,580,6192
1644191451.788551,-0.008484,0.012268,-0.989807,0.022382,0.447634,-0.039389,47,268,589,6240
1644191451.839084,-0.008911,0.007996,-0.990662,0.175053,0.356031,-0.054656,45,275,589,6192
1644191451.930484,-0.006836,0.011169,-0.991455,0.236122,0.386565,-0.085191,48,283,592,6240
1644191451.978828,-0.006714,0.010071,-0.991394,0.220855,0.294962,-0.085191,41,276,585,6240
1644191452.027209,-0.008667,0.009277,-0.992371,0.266656,0.386565,-0.100458,61,273,577,6240
1644191452.075723,-0.007507,0.010681,-0.992859,0.220855,0.325496,-0.25313,48,283,590,6304
1644191452.124043,-0.00885,0.009583,-0.993347,0.220855,0.218626,-0.176794,47,263,586,6176
1644191452.172405,-0.008118,0.007812,-0.98938,0.175053,0.523969,-0.039389,51,283,580,6288
1644191452.220786,-0.009766,0.010071,-0.992981,0.220855,0.462901,-0.130992,47,273,591,6160
1644191452.269139,-0.010193,0.008728,-0.991333,0.236122,0.310229,-0.054656,48,279,587,6256
1644191452.317563,-0.008911,0.009583,-0.993286,0.144519,0.417099,-0.054656,46,281,583,6192
1644191452.365958,-0.007263,0.01001,-0.991089,0.113985,0.172824,-0.085191,58,276,583,6256
1644191452.414355,-0.00824,0.008118,-0.992737,0.220855,0.401832,-0.054656,51,279,583,6288
1644191452.462746,-0.004883,0.009705,-0.99115,0.205588,0.401832,-0.100458,46,276,580,6240
1644191452.511108,-0.008728,0.008911,-0.992371,0.266656,0.340763,-0.085191,48,269,592,6176
1644191452.559517,-0.009705,0.010254,-0.990479,0.220855,0.462901,0.052214,45,280,589,6224
1644191452.607917,-0.007874,0.00769,-0.992188,0.220855,0.279695,-0.069924,46,271,587,6240
1644191452.65628,-0.009644,0.008301,-0.991028,0.251389,0.478168,0.006412,47,277,591,6256
1644191452.704709,-0.005798,0.008728,-0.993469,0.297191,0.386565,-0.085191,47,270,589,6240
1644191452.753073,-0.008301,0.006531,-0.992554,0.037649,0.478168,-0.054656,48,259,583,6192
1644191452.801501,-0.00885,0.010254,-0.990234,0.098718,0.386565,-0.207328,35,282,577,6240
1644191452.85257,-0.008423,0.010193,-0.99054,0.297191,0.386565,-0.115725,52,275,591,6224
1644191452.902771,-0.007141,0.01239,-0.991699,0.220855,0.462901,-0.008855,38,277,591,6224
1644191452.947653,-0.008789,0.011475,-0.992371,0.190321,0.371298,-0.207328,47,275,589,6256
1644191453.043523,-0.008179,0.007141,-0.992493,0.220855,0.508702,-0.14626,49,270,579,6128
1644191453.091941,-0.008423,0.010742,-0.99115,0.190321,0.310229,-0.085191,41,291,590,6224
1644191453.140293,-0.012573,0.012024,-0.994934,0.175053,0.401832,-0.130992,51,274,576,6224
1644191453.188622,-0.007263,0.009766,-0.99115,0.037649,0.386565,-0.085191,49,277,584,6240
1644191453.237036,-0.008667,0.00769,-0.993896,0.205588,0.371298,-0.085191,46,281,578,6240
1644191453.285381,-0.010498,0.009338,-0.990356,0.205588,0.386565,-0.130992,48,281,583,6288
1644191453.333824,-0.009888,0.009155,-0.99176,0.266656,0.371298,-0.115725,41,283,590,6192
1644191453.382216,-0.007812,0.008667,-0.99176,0.251389,0.462901,0.067481,48,269,585,6224
1644191453.430579,-0.01062,0.009644,-0.988281,0.236122,0.447634,-0.14626,48,281,587,6224
1644191453.479004,-0.007996,0.009216,-0.993042,0.297191,0.371298,-0.207328,52,277,582,6224
1644191453.527395,-0.007202,0.009094,-0.99292,0.175053,0.310229,-0.085191,45,270,577,6256
1644191453.57579,-0.009766,0.010071,-0.992249,0.205588,0.447634,-0.161527,45,285,591,6224
1644191453.624182,-0.009399,0.01062,-0.990601,0.251389,0.401832,0.12855,47,280,582,6240
1644191453.672547,-0.008667,0.008972,-0.990479,0.327725,0.523969,-0.024122,48,274,585,6192
1644191453.72096,-0.00885,0.008118,-0.992615,0.159786,0.356031,-0.115725,43,276,585,6224
1644191453.769351,-0.003784,0.007751,-0.992371,0.190321,0.294962,-0.069924,52,273,584,6240
1644191453.817744,-0.008606,0.006653,-0.993469,0.327725,0.340763,-0.176794,55,281,576,6224
1644191453.866185,-0.009949,0.008301,-0.992004,0.297191,0.493435,-0.039389,58,271,583,6160
1644191453.914859,-0.009033,0.009216,-0.994934,0.266656,0.401832,0.021679,52,268,589,6192
1644191453.965382,-0.009583,0.008789,-0.991333,0.312458,0.417099,-0.085191,46,271,585,6240
1644191454.015651,-0.011963,0.010559,-0.991455,0.144519,0.279695,-0.069924,58,271,585,6192
1644191454.108126,-0.011414,0.009827,-0.990173,0.190321,0.356031,-0.130992,43,283,592,6160
1644191454.156515,-0.007507,0.009094,-0.992004,0.281924,0.356031,0.067481,52,277,575,6240
1644191454.204882,-0.008118,0.007996,-0.991699,0.297191,0.508702,-0.222595,35,280,584,6224
1644191454.253271,-0.011597,0.009827,-0.990845,0.281924,0.340763,-0.054656,58,274,576,6224
1644191454.301673,-0.008118,0.009705,-0.991699,0.144519,0.233893,-0.100458,51,283,599,6224
1644191454.350053,-0.009033,0.010437,-0.993774,0.129252,0.401832,-0.100458,49,268,577,6176
1644191454.39845,-0.010071,0.01178,-0.992676,0.281924,0.233893,-0.039389,42,275,577,6240
1644191454.446853,-0.008301,0.008057,-0.992432,0.129252,0.523969,-0.192061,57,275,584,6256
1644191454.495277,-0.007629,0.009033,-0.991028,0.297191,0.478168,0.006412,43,274,576,6160
1644191454.543679,-0.004333,0.008301,-0.989502,0.007115,0.401832,-0.192061,46,274,583,6128
1644191454.592033,-0.007996,0.011658,-0.99292,0.342992,0.432366,0.006412,43,286,578,6240
1644191454.640435,-0.005737,0.007202,-0.99054,0.327725,0.386565,-0.115725,43,274,578,6192
1644191454.688814,-0.007812,0.010803,-0.98999,0.220855,0.356031,-0.130992,51,274,583,6224
1644191454.737214,-0.010193,0.010315,-0.991394,0.236122,0.356031,-0.130992,49,277,591,6240
1644191454.785599,-0.005798,0.010559,-0.992981,0.236122,0.417099,0.036947,60,274,585,6176
1644191454.833993,-0.009033,0.010925,-0.99646,0.113985,0.386565,-0.268397,54,273,584,6240
1644191454.882605,-0.010925,0.009094,-0.991211,0.205588,0.401832,-0.100458,49,287,593,6224
1644191454.931075,-0.009338,0.01062,-0.991089,0.08345,0.386565,-0.069924,45,282,577,6240
1644191454.981609,-0.008667,0.010864,-0.990051,0.205588,0.508702,-0.14626,57,270,591,6224
1644191455.031901,-0.011353,0.009827,-0.99231,0.312458,0.386565,-0.008855,57,260,584,6240
1644191455.07838,-0.007202,0.009705,-0.992065,0.205588,0.325496,-0.130992,55,271,587,6176
1644191455.172783,-0.007446,0.009766,-0.99231,0.327725,0.493435,-0.222595,51,269,583,6192
1644191455.221132,-0.006714,0.010437,-0.991211,0.342992,0.493435,-0.130992,49,270,586,6240
1644191455.269531,-0.007019,0.009766,-0.992004,0.266656,0.447634,-0.237863,59,280,584,6224
1644191455.317894,-0.007385,0.008301,-0.992859,0.327725,0.417099,-0.100458,53,281,583,6192
1644191455.366309,-0.006042,0.013428,-0.994202,0.236122,0.401832,-0.100458,51,276,583,6224
1644191455.414717,-0.006836,0.009705,-0.990051,0.129252,0.417099,-0.054656,51,264,576,6192
1644191455.463122,-0.009399,0.010071,-0.989563,0.266656,0.386565,-0.085191,53,274,587,6240
1644191455.511477,-0.009644,0.011108,-0.988464,0.205588,0.386565,-0.100458,51,276,576,6224
1644191455.559866,-0.009644,0.005615,-0.991028,0.266656,0.462901,-0.130992,45,265,589,6224
1644191455.608279,-0.009949,0.009705,-0.992126,0.175053,0.340763,-0.069924,54,273,589,6224
1644191455.65668,-0.005676,0.010437,-0.992798,0.190321,0.356031,-0.008855,53,276,580,6240
1644191455.705185,-0.009033,0.008911,-0.992188,0.220855,0.462901,-0.130992,59,265,589,6192
1644191455.753499,-0.009399,0.011047,-0.990112,0.297191,0.386565,-0.054656,51,286,578,6224
1644191455.801892,-0.007263,0.009583,-0.990295,0.052916,0.554504,-0.085191,61,275,584,6224
1644191455.85029,-0.007446,0.009766,-0.991455,0.281924,0.340763,-0.176794,48,281,580,6176
1644191455.898675,-0.006592,0.010254,-0.990784,0.190321,0.417099,-0.161527,65,276,580,6240
1644191455.947079,-0.011169,0.009827,-0.989807,0.052916,0.325496,-0.268397,49,265,596,6176
1644191455.995429,-0.009521,0.011169,-0.991699,0.266656,0.371298,-0.176794,55,266,587,6240
1644191456.043873,-0.011475,0.008301,-0.991638,0.175053,0.401832,-0.085191,47,275,584,6256
1644191456.099315,-0.008301,0.011597,-0.990601,0.190321,0.340763,-0.085191,51,276,578,6224
1644191456.142815,-0.011414,0.007568,-0.991089,0.220855,0.371298,-0.069924,57,273,593,6224
1644191456.193003,-0.00769,0.010437,-0.992126,0.129252,0.569771,-0.115725,48,276,587,6224
1644191456.237816,-0.006958,0.010986,-0.989258,0.297191,0.432366,-0.14626,57,282,582,6240
1644191456.334177,-0.008789,0.009705,-0.993774,0.007115,0.279695,-0.069924,51,279,583,6224
1644191456.382574,-0.01062,0.010376,-0.992737,0.08345,0.539237,-0.222595,49,270,577,6192
1644191456.430941,-0.010681,0.010315,-0.992676,0.220855,0.447634,-0.115725,55,283,583,6224
1644191456.479343,-0.009277,0.007568,-0.993652,0.297191,0.447634,0.006412,49,273,584,6224
1644191456.527746,-0.009888,0.011047,-0.991333,0.129252,0.417099,-0.008855,54,268,586,6192
1644191456.576134,-0.012024,0.011902,-0.991455,0.08345,0.356031,-0.069924,46,279,576,6176
1644191456.624531,-0.005127,0.009827,-0.988098,0.281924,0.417099,-0.14626,48,279,597,6240
1644191456.672937,-0.00592,0.009644,-0.993347,0.113985,0.417099,-0.069924,53,279,580,6224
1644191456.721322,-0.008545,0.009705,-0.990601,0.052916,0.432366,-0.161527,47,273,586,6224
1644191456.769711,-0.009644,0.008362,-0.993408,0.190321,0.386565,-0.115725,55,271,571,6224
1644191456.818151,-0.00946,0.010681,-0.989319,0.190321,0.417099,-0.176794,51,264,587,6224
1644191456.866529,-0.007996,0.01062,-0.991577,0.220855,0.325496,0.006412,46,276,580,6192
1644191456.914946,-0.011658,0.011536,-0.992249,0.266656,0.432366,-0.100458,49,277,591,6192
1644191456.963316,-0.009888,0.009277,-0.991821,0.419328,0.356031,0.098015,57,280,591,6240
1644191457.011729,-0.00824,0.007507,-0.996033,0.159786,0.417099,-0.039389,49,277,579,6256
1644191457.077172,-0.008301,0.011597,-0.990295,0.190321,0.356031,-0.14626,52,268,584,6224
1644191457.11173,-0.012024,0.011047,-0.992065,0.129252,0.294962,-0.100458,53,279,583,6192
1644191457.156858,-0.007629,0.007141,-0.990479,0.144519,0.523969,-0.054656,62,279,583,6224
1644191457.205291,-0.007324,0.007324,-0.991272,0.129252,0.401832,0.021679,58,283,580,6224
1644191457.255115,-0.01062,0.009766,-0.992493,0.190321,0.340763,-0.115725,39,274,580,6240
1644191457.30541,-0.010803,0.006531,-0.991943,0.251389,0.401832,-0.283664,53,279,583,6256
1644191457.355492,-0.009399,0.010315,-0.990356,0.312458,0.386565,-0.14626,47,282,579,6256
1644191457.447277,-0.010864,0.008179,-0.991699,0.052916,0.523969,-0.085191,49,280,584,6224
1644191457.49558,-0.009338,0.009033,-0.990295,0.068183,0.401832,-0.222595,62,281,587,6224
1644191457.543999,-0.00769,0.010376,-0.991882,0.281924,0.417099,-0.008855,54,275,586,6176
1644191457.592535,-0.008911,0.00946,-0.991821,0.312458,0.218626,-0.039389,58,266,578,6176
1644191457.640779,-0.00885,0.010864,-0.990662,0.266656,0.401832,-0.192061,43,281,580,6192
1644191457.689165,-0.009399,0.012085,-0.990784,0.129252,0.386565,-0.039389,45,285,582,6224
1644191457.737558,-0.008362,0.012024,-0.992676,0.236122,0.493435,-0.161527,57,275,582,6240
1644191457.785947,-0.010681,0.009949,-0.994934,0.281924,0.371298,-0.069924,55,269,585,6224
1644191457.834394,-0.006592,0.010315,-0.991882,0.510931,0.356031,0.006412,45,273,572,6240
1644191457.882801,-0.010254,0.008606,-0.994202,0.266656,0.585038,-0.161527,51,269,587,6240
1644191457.931179,-0.009399,0.010925,-0.990356,0.205588,0.432366,-0.054656,49,275,577,6160
1644191457.979573,-0.012329,0.008301,-0.99231,0.281924,0.462901,-0.039389,42,287,589,6240
1644191458.027971,-0.008301,0.009888,-0.991089,0.327725,0.523969,-0.25313,47,275,577,6192
1644191458.085385,-0.009521,0.007202,-0.990906,0.236122,0.432366,-0.192061,48,281,583,6224
1644191458.12473,-0.008057,0.008911,-0.993835,0.251389,0.539237,-0.115725,46,279,578,6224
1644191458.173124,-0.009399,0.009033,-0.992859,0.327725,0.356031,0.006412,46,274,587,6256
1644191458.221511,-0.006592,0.00769,-0.993774,0.220855,0.371298,0.113282,53,274,576,6192
1644191458.270214,-0.01001,0.008728,-0.990967,0.205588,0.432366,-0.161527,48,271,578,6160
1644191458.320725,-0.009644,0.008728,-0.992737,0.236122,0.539237,-0.298931,52,270,572,6224
1644191458.370729,-0.009155,0.010254,-0.993591,0.281924,0.447634,-0.130992,52,268,582,6256
1644191458.415907,-0.010681,0.010925,-0.994019,0.098718,0.447634,-0.008855,57,280,584,6176
1644191458.511849,-0.009033,0.01062,-0.990479,0.113985,0.417099,-0.130992,55,276,583,6176
1644191458.56023,-0.008545,0.007507,-0.990417,0.342992,0.386565,-0.039389,52,285,575,6224
1644191458.608644,-0.008972,0.009583,-0.991394,0.159786,0.508702,-0.192061,47,285,582,6240
1644191458.657029,-0.010925,0.009521,-0.992432,0.190321,0.523969,0.021679,41,291,580,6176
1644191458.705425,-0.008179,0.009216,-0.992126,0.098718,0.279695,-0.161527,40,275,577,6304
1644191458.753798,-0.007141,0.009583,-0.990356,0.251389,0.478168,-0.085191,52,273,582,6176
1644191458.802239,-0.00824,0.010071,-0.990601,0.251389,0.417099,-0.069924,47,273,577,6240
1644191458.850656,-0.008484,0.007507,-0.990845,0.220855,0.401832,-0.054656,47,282,579,6224
1644191458.899047,-0.009155,0.011841,-0.990601,0.098718,0.325496,-0.024122,49,275,584,6160
1644191458.947412,-0.008484,0.012939,-0.990356,0.190321,0.371298,-0.176794,54,273,570,6240
1644191458.995806,-0.007996,0.009155,-0.991272,0.175053,0.539237,-0.14626,47,275,593,6224
1644191459.044234,-0.009583,0.009949,-0.992554,0.35826,0.478168,-0.069924,39,271,590,6240
1644191459.09556,-0.009583,0.013733,-0.992737,0.190321,0.310229,-0.039389,43,264,580,6240
1644191459.140948,-0.009155,0.01123,-0.991577,0.175053,0.294962,-0.14626,53,271,583,6160
1644191459.189357,-0.006409,0.010437,-0.989319,0.220855,0.462901,-0.207328,46,281,578,6192
1644191459.237752,-0.00946,0.008423,-0.991577,0.312458,0.447634,-0.069924,59,268,584,6176
1644191459.28612,-0.007019,0.013428,-0.989136,0.205588,0.401832,-0.115725,59,268,582,6192
1644191459.334869,-0.007263,0.011902,-0.993774,0.388794,0.554504,-0.192061,57,273,584,6192
1644191459.384199,-0.009338,0.008667,-0.990784,0.08345,0.63084,-0.024122,45,275,586,6240
1644191459.434526,-0.008423,0.007996,-0.993347,0.327725,0.279695,-0.176794,45,275,596,6224
1644191459.484653,-0.009644,0.010803,-0.991638,0.175053,0.523969,-0.130992,49,275,584,6240
1644191459.576494,-0.008362,0.010986,-0.991272,0.08345,0.401832,-0.207328,47,275,586,6224
1644191459.624896,-0.007202,0.009888,-0.990234,0.342992,0.432366,-0.069924,46,276,578,6224
1644191459.673306,-0.006592,0.011719,-0.990723,0.266656,0.401832,-0.115725,41,274,576,6240
1644191459.721673,-0.007446,0.010071,-0.989563,0.220855,0.386565,-0.024122,58,274,573,6192
1644191459.770076,-0.010193,0.009521,-0.992493,0.236122,0.478168,-0.237863,49,265,582,6224
1644191459.818457,-0.00769,0.010742,-0.989929,0.068183,0.417099,-0.14626,42,263,584,6224
1644191459.8669,-0.009705,0.007019,-0.990112,0.159786,0.447634,-0.024122,54,277,579,6176
1644191459.915511,-0.008667,0.010498,-0.989319,0.266656,0.386565,-0.130992,43,279,587,6224
1644191459.963699,-0.009644,0.008911,-0.991028,0.205588,0.386565,-0.100458,48,279,573,6176
1644191460.012068,-0.007507,0.009399,-0.994141,0.220855,0.478168,-0.069924,51,276,571,6224
1644191460.064695,-0.00531,0.008179,-0.992493,0.312458,0.447634,-0.207328,48,274,583,6224
1644191460.108855,-0.008301,0.010681,-0.991028,0.144519,0.371298,-0.054656,53,271,585,6256
1644191460.157204,-0.008728,0.008728,-0.990784,0.236122,0.493435,-0.268397,49,287,579,6128
1644191460.205596,-0.009583,0.007263,-0.989624,0.175053,0.401832,-0.054656,51,266,592,6192
1644191460.25398,-0.006348,0.012329,-0.992737,0.129252,0.188092,-0.100458,53,274,576,6224
1644191460.302409,-0.007202,0.009338,-0.990723,0.159786,0.401832,-0.207328,55,279,590,6224
1644191460.350795,-0.009216,0.009827,-0.994568,0.022382,0.279695,-0.069924,48,279,597,6336
1644191460.399185,-0.006592,0.007874,-0.991028,0.35826,0.325496,-0.161527,53,281,594,6176
1644191460.44758,-0.008911,0.012024,-0.99353,0.312458,0.478168,-0.054656,43,276,585,6224
1644191460.49682,-0.008484,0.009705,-0.991333,0.251389,0.462901,-0.192061,53,264,585,6240
1644191460.547263,-0.006531,0.007996,-0.993164,0.08345,0.325496,-0.054656,41,276,585,6192
1644191460.597142,-0.007324,0.006592,-0.990967,0.312458,0.401832,-0.039389,58,276,590,6224
1644191460.642184,-0.009949,0.007874,-0.992859,0.297191,0.325496,-0.14626,46,269,583,6256
1644191460.737911,-0.009216,0.00885,-0.990967,0.08345,0.371298,-0.085191,46,279,585,6192
1644191460.786315,-0.009216,0.01001,-0.991516,0.08345,0.386565,-0.085191,43,274,587,6240
1644191460.834852,-0.00824,0.010559,-0.992798,0.327725,0.523969,-0.237863,48,271,573,6256
1644191460.883184,-0.008667,0.013062,-0.992065,0.205588,0.523969,-0.069924,51,281,585,6224
1644191460.931548,-0.009583,0.008118,-0.995239,0.281924,0.401832,-0.085191,57,287,575,6192
1644191460.979947,-0.008362,0.012146,-0.992065,0.220855,0.294962,0.082748,49,273,577,6288
1644191461.028342,-0.011658,0.007935,-0.990845,0.266656,0.356031,-0.130992,46,281,576,6176
1644191461.085028,-0.011475,0.009827,-0.992615,0.434595,0.523969,-0.039389,59,270,579,6224
1644191461.125268,-0.007751,0.007446,-0.99292,0.098718,0.340763,-0.100458,57,285,593,6224
1644191461.173488,-0.01001,0.010071,-0.992493,0.205588,0.401832,-0.085191,49,280,584,6240
1644191461.221852,-0.009521,0.006592,-0.99231,0.251389,0.462901,-0.008855,52,275,584,6224
1644191461.270223,-0.011047,0.010498,-0.98999,0.251389,0.386565,-0.14626,55,276,576,6224
1644191461.318654,-0.008789,0.009521,-0.990234,0.266656,0.417099,-0.222595,57,280,591,6224
1644191461.367045,-0.00946,0.00824,-0.989197,0.236122,0.478168,0.021679,45,277,579,6224
1644191461.415432,-0.007996,0.010437,-0.991943,0.113985,0.417099,-0.100458,53,281,587,6224
1644191461.463836,-0.008667,0.01001,-0.990906,0.08345,0.279695,-0.115725,55,276,585,6224
1644191461.512246,-0.008423,0.008301,-0.993469,0.312458,0.386565,-0.069924,52,273,586,6240
1644191461.560616,-0.008362,0.011475,-0.992554,0.220855,0.417099,-0.14626,53,279,583,6240
1644191461.609228,-0.010498,0.010498,-0.994141,0.08345,0.24916,-0.100458,49,275,591,6224
1644191461.657935,-0.00824,0.005554,-0.994507,0.205588,0.523969,-0.039389,64,287,582,6240
1644191461.70891,-0.008057,0.00769,-0.991699,0.251389,0.417099,-0.069924,52,282,598,6304
1644191461.758726,-0.009094,0.008911,-0.989929,0.113985,0.493435,-0.100458,46,283,585,6224
1644191461.803715,-0.010254,0.012451,-0.990662,0.175053,0.371298,-0.069924,36,283,585,6240
1644191461.899381,-0.007812,0.008972,-0.991272,0.129252,0.447634,0.067481,49,270,589,6240
1644191461.947799,-0.010498,0.007568,-0.99176,0.098718,0.340763,-0.024122,51,276,583,6240
1644191461.996166,-0.010925,0.008606,-0.992493,0.190321,0.325496,-0.161527,46,274,573,6224
1644191462.044701,-0.009094,0.009155,-0.992371,0.373527,0.447634,-0.100458,45,277,584,6224
1644191462.09301,-0.008179,0.009705,-0.993164,0.266656,0.386565,-0.115725,55,276,585,6224
1644191462.141364,-0.009033,0.010925,-0.994873,0.159786,0.478168,-0.176794,49,273,579,6256
1644191462.189719,-0.008057,0.010925,-0.99054,0.388794,0.371298,-0.085191,54,268,586,6176
1644191462.238114,-0.010498,0.010986,-0.992554,0.129252,0.447634,-0.130992,49,282,589,6256
1644191462.286512,-0.006531,0.010132,-0.993286,0.175053,0.356031,-0.329466,52,277,579,6224
1644191462.334901,-0.008301,0.009033,-0.989868,0.404061,0.325496,-0.222595,48,274,587,6224
1644191462.383295,-0.008362,0.010498,-0.994019,0.129252,0.462901,-0.008855,46,279,594,6192
1644191462.431691,-0.00647,0.009521,-0.993469,0.205588,0.508702,-0.130992,49,277,586,6240
1644191462.480078,-0.010559,0.008911,-0.992371,0.419328,0.401832,-0.14626,53,276,587,6240
1644191462.52846,-0.01001,0.008057,-0.992493,0.236122,0.447634,-0.192061,38,277,572,6240
1644191462.576903,-0.008362,0.00946,-0.991272,0.266656,0.417099,-0.008855,52,282,589,6240
1644191462.627349,-0.012085,0.010315,-0.993347,0.266656,0.539237,-0.100458,45,290,584,6256
1644191462.677787,-0.007385,0.011536,-0.992065,0.159786,0.294962,-0.14626,53,271,585,6224
1644191462.722574,-0.007874,0.010376,-0.991333,0.098718,0.417099,-0.085191,55,274,583,6240
1644191462.818824,-0.013672,0.011108,-0.992249,0.251389,0.447634,-0.100458,59,280,572,6224
1644191462.867208,-0.008301,0.009888,-0.991028,0.175053,0.325496,0.036947,39,279,578,6240
1644191462.915654,-0.00708,0.008362,-0.99292,0.251389,0.401832,0.143817,42,265,584,6224
1644191462.964058,-0.010193,0.009827,-0.992737,0.190321,0.462901,-0.115725,53,283,583,6192
1644191463.012472,-0.009338,0.009766,-0.991882,0.098718,0.386565,-0.192061,47,280,582,6256
1644191463.062384,-0.010315,0.009949,-0.990662,0.297191,0.523969,-0.024122,57,280,584,6192
1644191463.109179,-0.00885,0.010193,-0.993591,0.205588,0.462901,-0.161527,45,273,591,6240
1644191463.157544,-0.009399,0.009949,-0.99176,0.297191,0.386565,-0.085191,51,271,580,6224
1644191463.205969,-0.00885,0.011108,-0.993896,0.205588,0.417099,-0.14626,57,273,584,6256
1644191463.254383,-0.009827,0.009827,-0.991089,0.220855,0.447634,-0.085191,47,275,584,6256
1644191463.302779,-0.009766,0.00824,-0.991821,0.236122,0.447634,-0.039389,40,268,591,6192
1644191463.351165,-0.007812,0.010315,-0.991211,0.129252,0.386565,-0.130992,48,276,578,6240
1644191463.399566,-0.008301,0.008667,-0.994019,0.373527,0.371298,-0.008855,47,280,593,6256
1644191463.447948,-0.010193,0.009094,-0.990784,0.266656,0.356031,-0.207328,49,277,593,6256
1644191463.496351,-0.00824,0.00769,-0.99231,0.297191,0.508702,0.006412,40,263,586,6224
1644191463.544733,-0.007812,0.010254,-0.992249,0.205588,0.539237,-0.130992,42,273,589,6160
1644191463.593168,-0.012085,0.007751,-0.991272,0.175053,0.294962,0.036947,43,279,587,6240
1644191463.641508,-0.008057,0.008728,-0.991699,0.312458,0.539237,-0.054656,49,270,589,6224
1644191463.689906,-0.008728,0.010498,-0.991638,0.098718,0.310229,-0.069924,52,280,586,6224
1644191463.738322,-0.008301,0.009338,-0.993347,0.327725,0.417099,0.006412,61,277,582,6256
1644191463.789366,-0.010559,0.011108,-0.991699,0.098718,0.310229,-0.115725,54,268,586,6224
1644191463.839984,-0.008606,0.010193,-0.993408,0.266656,0.24916,-0.222595,57,275,589,6224
1644191463.884314,-0.008789,0.012817,-0.991638,0.251389,0.371298,-0.085191,40,275,586,6224
1644191463.980291,-0.010498,0.009583,-0.993347,0.251389,0.447634,-0.054656,54,275,589,6224
1644191464.028696,-0.009888,0.006409,-0.992737,0.175053,0.371298,-0.008855,58,264,592,6240
1644191464.077106,-0.010742,0.009216,-0.99054,0.297191,0.386565,-0.069924,48,271,578,6176
1644191464.125439,-0.009766,0.009033,-0.994446,0.129252,0.386565,-0.100458,48,271,585,6176
1644191464.173838,-0.008362,0.008179,-0.992432,0.08345,0.356031,-0.008855,59,277,586,6176
1644191464.222246,-0.009827,0.008545,-0.994873,0.297191,0.462901,-0.115725,43,279,573,6192
1644191464.270599,-0.006226,0.009399,-0.992065,0.175053,0.417099,-0.130992,59,275,584,6256
1644191464.319022,-0.009155,0.009705,-0.99176,0.175053,0.386565,-0.069924,42,270,579,6192
1644191464.367419,-0.010254,0.009827,-0.992249,0.297191,0.417099,-0.100458,58,274,573,6256
1644191464.415801,-0.009277,0.010498,-0.993835,0.281924,0.523969,-0.25313,40,275,579,6192
1644191464.464218,-0.009094,0.010437,-0.993591,0.159786,0.447634,-0.100458,48,271,587,6176
1644191464.512595,-0.008545,0.00946,-0.993774,0.144519,0.554504,-0.085191,49,270,579,6192
1644191464.560998,-0.004395,0.008057,-0.992615,0.098718,0.356031,-0.161527,53,276,592,6304
1644191464.609376,-0.011597,0.00946,-0.99292,0.08345,0.386565,-0.192061,45,280,589,6240
1644191464.657758,-0.010315,0.008911,-0.991821,0.190321,0.401832,-0.024122,57,285,584,6256
1644191464.70617,-0.006653,0.008057,-0.991638,0.159786,0.462901,-0.054656,55,276,597,6224
1644191464.754533,-0.010559,0.006531,-0.993347,0.266656,0.325496,-0.237863,49,273,582,6240
1644191464.803021,-0.009277,0.01062,-0.991943,0.281924,0.24916,-0.130992,51,271,590,6192
1644191464.851388,-0.010376,0.008118,-0.992554,0.251389,0.615573,-0.024122,47,280,596,6304
1644191464.901046,-0.008484,0.007141,-0.991699,0.144519,0.432366,-0.100458,52,273,593,6240
1644191464.951197,-0.009644,0.00946,-0.992493,0.220855,0.462901,-0.085191,42,277,584,6256
1644191465.001785,-0.010254,0.009155,-0.989319,0.236122,0.447634,-0.100458,48,281,578,6192
1644191465.059183,-0.011353,0.011108,-0.990906,0.342992,0.493435,0.067481,45,277,589,6192
1644191465.141688,-0.010315,0.00885,-0.990051,0.236122,0.417099,0.052214,51,279,580,6192
1644191465.190078,-0.011719,0.009949,-0.99292,0.449863,0.264427,0.052214,53,279,583,6160
1644191465.23849,-0.005859,0.011597,-0.992004,0.281924,0.386565,0.036947,52,265,582,6224
1644191465.286868,-0.010315,0.00885,-0.992798,0.175053,0.523969,-0.039389,43,283,587,6160
1644191465.335266,-0.008789,0.010864,-0.994263,0.113985,0.569771,-0.054656,51,276,583,6240
1644191465.383719,-0.009399,0.010986,-0.991028,0.190321,0.401832,-0.054656,45,280,586,6192
1644191465.432062,-0.010742,0.011169,-0.992981,0.281924,0.356031,0.052214,43,281,590,6256
1644191465.480445,-0.011292,0.010681,-0.991211,0.129252,0.493435,-0.161527,51,274,583,6240
1644191465.52885,-0.00946,0.009277,-0.991272,0.251389,0.356031,-0.069924,45,285,586,6160
1644191465.577233,-0.009705,0.009705,-0.994751,0.327725,0.356031,-0.008855,43,274,592,6256
1644191465.625628,-0.008362,0.008484,-0.992188,0.190321,0.417099,-0.222595,42,280,577,6192
1644191465.674038,-0.008606,0.009033,-0.992554,0.205588,0.417099,-0.100458,48,269,578,6192
1644191465.72243,-0.009521,0.011414,-0.991394,0.327725,0.294962,-0.100458,57,275,579,6192
1644191465.770785,-0.007568,0.012634,-0.991028,0.281924,0.356031,-0.008855,54,285,579,6240
1644191465.81925,-0.010681,0.010559,-0.993103,0.46513,0.417099,-0.085191,55,271,576,6224
1644191465.867639,-0.008484,0.009216,-0.994019,0.159786,0.523969,-0.100458,51,269,580,6192
1644191465.916,-0.009155,0.012878,-0.992859,0.190321,0.615573,-0.008855,46,283,587,6224
1644191465.964746,-0.007751,0.011475,-0.99292,0.281924,0.340763,0.052214,57,277,589,6224
1644191466.012858,-0.010864,0.008606,-0.991089,0.220855,0.447634,-0.039389,53,281,590,6224
1644191466.109535,-0.007996,0.009277,-0.992126,0.144519,0.386565,-0.085191,43,266,583,6160
1644191466.157917,-0.008179,0.009338,-0.988098,0.236122,0.264427,-0.054656,53,281,578,6240
1644191466.206322,-0.00885,0.00946,-0.992615,0.129252,0.417099,-0.085191,46,286,583,6160
1644191466.254864,-0.00708,0.008484,-0.990845,0.08345,0.356031,-0.085191,40,270,582,6224
1644191466.303116,-0.007385,0.012207,-0.990479,0.220855,0.478168,-0.100458,51,269,587,6224
1644191466.351522,-0.007629,0.012085,-0.990601,0.113985,0.432366,-0.115725,53,279,578,6240
1644191466.399922,-0.006592,0.009827,-0.991028,0.129252,0.447634,-0.008855,54,290,582,6176
1644191466.448312,-0.009766,0.00647,-0.99231,0.327725,0.447634,-0.222595,54,282,586,6240
1644191466.496713,-0.011475,0.011169,-0.992371,0.251389,0.447634,0.006412,53,276,580,6192
1644191466.545109,-0.00824,0.007996,-0.992737,0.297191,0.554504,-0.008855,53,271,576,6192
1644191466.593491,-0.009583,0.009583,-0.99054,0.236122,0.371298,-0.008855,54,275,579,6224
1644191466.641859,-0.00769,0.008301,-0.992432,0.144519,0.432366,0.006412,57,270,589,6224
1644191466.690271,-0.009216,0.008301,-0.991882,0.297191,0.325496,-0.069924,41,271,580,6192
1644191466.738662,-0.007874,0.011353,-0.989624,0.144519,0.386565,-0.176794,52,277,589,6160
1644191466.787037,-0.007996,0.00769,-0.991455,0.220855,0.325496,0.021679,52,270,582,6240
1644191466.835493,-0.011536,0.012878,-0.990845,0.205588,0.447634,-0.024122,49,277,584,6224
1644191466.883884,-0.008911,0.009094,-0.989075,0.113985,0.340763,0.067481,57,273,589,6240
1644191466.932625,-0.010254,0.011414,-0.992676,0.236122,0.264427,0.006412,53,279,594,6240
1644191466.980694,-0.007263,0.009888,-0.993652,0.175053,0.508702,-0.100458,49,275,593,6224
1644191467.03055,-0.00708,0.010559,-0.994019,0.022382,0.432366,0.052214,52,277,596,6256
1644191467.088337,-0.009888,0.009399,-0.992126,0.251389,0.432366,-0.130992,39,271,590,6256
1644191467.127674,-0.009949,0.00824,-0.993347,0.266656,0.386565,-0.100458,46,276,578,6224
1644191467.222615,-0.012695,0.010864,-0.992188,0.297191,0.371298,-0.207328,46,269,583,6240
1644191467.270983,-0.011902,0.010071,-0.991882,0.08345,0.447634,-0.039389,40,265,584,6256
