epoch,acc_x,acc_y,acc_z,rot_x,rot_y,rot_z,mag_x,mag_y,mag_z,temp
1644159600.092361,-0.011475,0.009888,-0.98999,0.190321,0.523969,-0.085191,46,276,573,5408
1644159600.140769,-0.011169,0.00824,-0.993286,0.327725,0.523969,-0.085191,55,266,571,5424
1644159600.189125,-0.010315,0.007996,-0.992798,0.266656,0.493435,-0.237863,43,276,573,5456
1644159600.237548,-0.013,0.008179,-0.994202,0.266656,0.523969,0.006412,48,276,585,5456
1644159600.285878,-0.012756,0.010986,-0.991943,0.205588,0.310229,-0.100458,51,274,566,5376
1644159600.334296,-0.011597,0.011047,-0.989502,0.220855,0.447634,-0.069924,51,266,583,5408
1644159600.38272,-0.011292,0.006714,-0.992859,0.144519,0.432366,-0.161527,48,276,580,5456
1644159600.431078,-0.010803,0.008972,-0.993774,0.220855,0.325496,-0.024122,54,263,579,5424
1644159600.479466,-0.010559,0.010437,-0.996277,0.281924,0.294962,-0.329466,52,282,572,5424
1644159600.527859,-0.010498,0.006042,-0.989441,0.266656,0.417099,-0.176794,51,271,587,5472
1644159600.576248,-0.011292,0.011536,-0.993408,0.220855,0.401832,-0.100458,47,273,579,5424
1644159600.62472,-0.009094,0.008118,-0.993286,0.129252,0.371298,-0.130992,53,274,580,5360
1644159600.673051,-0.00946,0.008606,-0.992432,0.281924,0.493435,-0.130992,48,271,571,5456
1644159600.721412,-0.011169,0.010986,-0.993042,0.205588,0.401832,-0.054656,54,277,570,5408
1644159600.769799,-0.013,0.009338,-0.990967,0.220855,0.417099,-0.130992,62,279,571,5424
1644159600.818187,-0.011414,0.006653,-0.992432,0.266656,0.478168,-0.054656,52,282,575,5408
1644159600.86661,-0.013062,0.008728,-0.993347,0.388794,0.508702,-0.085191,45,282,575,5408
1644159600.915057,-0.009827,0.009888,-0.989807,0.266656,0.539237,-0.069924,49,273,575,5424
1644159600.963423,-0.009155,0.010315,-0.992981,0.35826,0.401832,-0.115725,43,274,580,5408
1644159601.013299,-0.01123,0.009583,-0.992859,0.297191,0.539237,-0.192061,46,269,587,5456
1644159601.064842,-0.008728,0.010071,-0.99353,0.037649,0.447634,-0.054656,52,280,586,5424
1644159601.114088,-0.011475,0.011597,-0.989807,0.281924,0.554504,-0.054656,52,280,575,5488
1644159601.15869,-0.012817,0.009155,-0.989685,0.175053,0.417099,-0.14626,53,276,566,5424
1644159601.253731,-0.011108,0.007385,-0.991638,0.098718,0.340763,-0.024122,39,269,583,5472
1644159601.3024,-0.011475,0.009033,-0.991699,0.144519,0.478168,-0.176794,43,274,578,5424
1644159601.350507,-0.010498,0.008301,-0.988831,0.281924,0.310229,-0.100458,49,270,582,5488
1644159601.398907,-0.008911,0.011597,-0.993225,0.251389,0.462901,-0.008855,53,274,566,5456
1644159601.447287,-0.009216,0.009094,-0.991089,0.205588,0.386565,-0.25313,51,274,571,5456
1644159601.49569,-0.013611,0.007751,-0.993774,0.144519,0.523969,-0.069924,52,280,572,5408
1644159601.54408,-0.01001,0.011597,-0.993164,0.35826,0.386565,-0.115725,52,287,577,5456
1644159601.592486,-0.010315,0.011719,-0.993164,0.404061,0.493435,-0.085191,52,268,575,5456
1644159601.640849,-0.00824,0.010498,-0.98999,0.342992,0.462901,-0.115725,51,257,578,5456
1644159601.689245,-0.009277,0.012085,-0.991516,0.327725,0.417099,-0.130992,45,270,570,5424
1644159601.737631,-0.007202,0.007874,-0.991211,0.205588,0.432366,-0.039389,51,281,576,5456
1644159601.785996,-0.012634,0.007324,-0.988525,0.266656,0.462901,-0.130992,53,271,573,5424
1644159601.834388,-0.012817,0.009399,-0.99176,0.098718,0.386565,0.021679,49,263,582,5456
1644159601.882796,-0.009521,0.012329,-0.991272,0.404061,0.508702,-0.054656,42,282,582,5424
1644159601.931159,-0.009583,0.009705,-0.994141,0.327725,0.447634,-0.130992,57,277,577,5456
1644159601.979584,-0.010925,0.010498,-0.993652,0.129252,0.401832,-0.008855,48,274,578,5472
1644159602.027951,-0.008301,0.008789,-0.993103,0.129252,0.417099,-0.024122,57,275,582,5408
1644159602.076397,-0.011719,0.008423,-0.992676,0.251389,0.432366,-0.085191,43,279,573,5456
1644159602.124728,-0.012634,0.009094,-0.992554,0.297191,0.279695,-0.14626,47,270,572,5456
1644159602.173357,-0.008667,0.009521,-0.991028,0.129252,0.386565,-0.024122,43,274,578,5424
1644159602.223795,-0.008179,0.009094,-0.993469,0.175053,0.310229,-0.161527,49,270,572,5456
1644159602.273882,-0.009216,0.008057,-0.991211,0.220855,0.233893,-0.14626,51,262,580,5408
1644159602.319273,-0.01416,0.007751,-0.990112,0.098718,0.569771,-0.115725,57,260,575,5456
1644159602.415273,-0.009766,0.009888,-0.990662,0.205588,0.447634,-0.069924,49,277,572,5424
1644159602.463423,-0.011414,0.010437,-0.99231,0.190321,0.493435,0.036947,54,270,575,5408
1644159602.511802,-0.008789,0.009216,-0.989807,0.388794,0.386565,-0.192061,42,275,577,5424
1644159602.560207,-0.012573,0.008423,-0.994263,0.144519,0.417099,-0.100458,55,274,578,5408
1644159602.608595,-0.008911,0.008423,-0.993896,0.327725,0.417099,-0.130992,62,279,576,5344
1644159602.656979,-0.012146,0.013184,-0.991943,0.205588,0.279695,-0.14626,52,280,575,5424
1644159602.705366,-0.010986,0.010498,-0.991638,0.373527,0.386565,-0.115725,54,275,575,5408
1644159602.753742,-0.009338,0.006042,-0.990967,0.236122,0.386565,-0.130992,46,274,583,5456
1644159602.802223,-0.010803,0.008606,-0.993652,0.08345,0.356031,-0.069924,62,276,571,5360
1644159602.850587,-0.012085,0.008179,-0.992188,0.190321,0.539237,-0.100458,62,271,580,5424
1644159602.898973,-0.006836,0.007874,-0.994507,0.236122,0.371298,-0.14626,51,274,571,5456
1644159602.947366,-0.010193,0.008057,-0.991638,0.251389,0.325496,-0.008855,53,266,573,5424
1644159602.995749,-0.010132,0.010498,-0.989746,0.205588,0.356031,-0.192061,52,268,575,5456
1644159603.052566,-0.011414,0.009277,-0.989929,0.297191,0.417099,-0.024122,52,277,593,5456
1644159603.09252,-0.009155,0.010498,-0.990662,0.312458,0.600305,-0.192061,45,275,589,5376
1644159603.140875,-0.007935,0.010864,-0.992004,0.205588,0.371298,-0.115725,53,266,571,5456
1644159603.189337,-0.007812,0.009399,-0.992004,0.434595,0.340763,-0.161527,52,277,582,5456
1644159603.237958,-0.009888,0.00946,-0.993103,0.144519,0.508702,0.082748,62,279,585,5376
1644159603.286908,-0.010925,0.010376,-0.988708,0.129252,0.417099,-0.222595,62,274,573,5408
1644159603.337476,-0.008362,0.011353,-0.992004,0.312458,0.401832,-0.115725,55,266,578,5456
1644159603.387566,-0.009216,0.012634,-0.993835,0.129252,0.401832,-0.024122,48,266,576,5408
1644159603.432479,-0.011414,0.007324,-0.99292,0.159786,0.432366,-0.130992,53,266,573,5488
1644159603.527982,-0.008301,0.008057,-0.991638,0.129252,0.523969,-0.024122,57,277,579,5376
1644159603.576376,-0.007996,0.008972,-0.990601,0.220855,0.401832,-0.329466,59,273,577,5424
1644159603.624839,-0.010681,0.011292,-0.992432,0.144519,0.478168,-0.069924,49,275,582,5312
1644159603.673159,-0.009399,0.00885,-0.99176,0.251389,0.264427,-0.222595,54,270,577,5424
1644159603.721522,-0.007874,0.010315,-0.98999,0.190321,0.386565,-0.130992,47,273,582,5456
1644159603.770329,-0.008728,0.009155,-0.99353,0.190321,0.417099,-0.039389,58,269,573,5376
1644159603.818363,-0.01001,0.008911,-0.993408,0.251389,0.386565,0.036947,55,281,576,5408
1644159603.866758,-0.011292,0.010681,-0.991638,0.281924,0.447634,-0.14626,38,275,570,5344
1644159603.915242,-0.009766,0.007263,-0.992371,0.144519,0.508702,-0.100458,47,275,572,5424
1644159603.96356,-0.01001,0.010437,-0.99054,0.281924,0.401832,-0.14626,60,271,578,5408
1644159604.011915,-0.011047,0.01062,-0.992126,0.144519,0.417099,-0.039389,47,273,570,5424
1644159604.079128,-0.010864,0.007935,-0.989929,0.297191,0.401832,0.036947,51,274,583,5360
1644159604.108689,-0.010254,0.010803,-0.992798,0.190321,0.386565,-0.039389,36,266,580,5424
1644159604.157074,-0.009033,0.008606,-0.990173,0.297191,0.478168,-0.192061,53,271,580,5456
1644159604.205487,-0.011108,0.008606,-0.988586,0.281924,0.386565,-0.085191,49,277,570,5424
1644159604.253813,-0.010925,0.010498,-0.993835,0.236122,0.386565,-0.115725,51,271,580,5424
1644159604.302974,-0.008179,0.009705,-0.993713,0.129252,0.478168,-0.024122,53,274,573,5360
1644159604.3508,-0.012024,0.010437,-0.98999,0.159786,0.371298,-0.115725,52,268,577,5376
1644159604.400719,-0.011169,0.012207,-0.991394,0.342992,0.386565,0.006412,43,274,580,5424
1644159604.451054,-0.011169,0.009277,-0.993347,0.236122,0.478168,0.021679,54,270,577,5424
1644159604.496251,-0.006531,0.00946,-0.991821,0.144519,0.356031,-0.085191,42,270,582,5360
1644159604.592589,-0.012146,0.009399,-0.990723,0.388794,0.340763,-0.207328,46,286,578,5424
1644159604.64094,-0.01416,0.01001,-0.993774,0.068183,0.554504,0.052214,60,269,578,5424
1644159604.689328,-0.012573,0.009277,-0.991943,0.220855,0.356031,-0.130992,53,283,573,5376
1644159604.737737,-0.012695,0.008484,-0.988403,0.220855,0.325496,0.052214,45,270,579,5344
1644159604.786109,-0.01178,0.009949,-0.992371,0.220855,0.310229,-0.222595,55,276,566,5456
1644159604.834551,-0.010254,0.011169,-0.991638,0.144519,0.493435,-0.176794,59,275,575,5456
1644159604.882957,-0.012024,0.008789,-0.993042,0.08345,0.386565,-0.100458,45,277,568,5376
1644159604.931335,-0.008484,0.010864,-0.990845,0.312458,0.478168,-0.085191,53,279,564,5376
1644159604.979722,-0.007751,0.009888,-0.991272,0.022382,0.279695,-0.069924,48,269,573,5344
1644159605.028114,-0.009949,0.01001,-0.992981,0.297191,0.417099,-0.069924,53,269,576,5424
1644159605.077161,-0.011597,0.010132,-0.995972,0.281924,0.356031,0.006412,52,270,579,5456
1644159605.124875,-0.009705,0.010498,-0.989624,0.266656,0.401832,-0.237863,48,279,578,5408
1644159605.173245,-0.008728,0.010071,-0.987366,0.404061,0.539237,-0.222595,46,269,583,5424
1644159605.221599,-0.008789,0.009338,-0.991516,0.35826,0.294962,-0.024122,52,277,582,5424
1644159605.270019,-0.009277,0.010986,-0.988892,0.327725,0.371298,-0.100458,41,271,578,5360
1644159605.318408,-0.012329,0.007568,-0.991577,0.190321,0.508702,-0.14626,45,270,586,5424
1644159605.366802,-0.011475,0.008606,-0.992249,0.342992,0.386565,-0.176794,54,270,582,5408
1644159605.415702,-0.012024,0.007935,-0.992126,0.281924,0.401832,-0.115725,51,269,578,5456
1644159605.466257,-0.009033,0.008667,-0.991699,0.129252,0.417099,-0.207328,58,266,571,5408
1644159605.516523,-0.010498,0.006653,-0.991821,0.404061,0.493435,-0.008855,42,263,575,5424
1644159605.561363,-0.010376,0.01001,-0.990662,0.35826,0.417099,-0.130992,52,282,572,5424
1644159605.657108,-0.01416,0.008545,-0.992554,0.098718,0.493435,-0.176794,49,275,570,5424
1644159605.705502,-0.009827,0.008484,-0.991943,0.281924,0.401832,-0.161527,45,270,570,5360
1644159605.753921,-0.010254,0.011658,-0.99292,0.342992,0.478168,-0.176794,48,271,578,5456
1644159605.802382,-0.009338,0.009338,-0.994446,0.251389,0.371298,0.006412,51,274,576,5456
1644159605.850729,-0.013733,0.008423,-0.991638,0.266656,0.447634,-0.130992,47,273,565,5488
1644159605.899125,-0.011292,0.007996,-0.99292,0.312458,0.310229,-0.069924,52,280,570,5472
1644159605.947514,-0.009949,0.011963,-0.990967,0.373527,0.310229,-0.192061,48,276,573,5424
1644159605.99588,-0.010193,0.009399,-0.990845,0.297191,0.340763,-0.222595,48,281,571,5424
1644159606.056218,-0.010803,0.00769,-0.989868,0.220855,0.523969,-0.237863,52,280,577,5488
1644159606.093497,-0.008789,0.009216,-0.991394,0.281924,0.432366,-0.100458,54,277,577,5424
1644159606.141021,-0.010925,0.007507,-0.989258,0.205588,0.432366,-0.024122,52,268,582,5408
1644159606.189413,-0.011719,0.008362,-0.991699,0.220855,0.371298,-0.115725,54,273,589,5456
1644159606.237784,-0.010071,0.008667,-0.990417,0.297191,0.310229,-0.176794,53,274,590,5424
1644159606.28619,-0.007568,0.009644,-0.991821,0.205588,0.340763,-0.25313,54,273,575,5424
1644159606.334624,-0.01062,0.007568,-0.991882,0.159786,0.401832,-0.130992,52,277,570,5456
1644159606.382959,-0.008789,0.011414,-0.98999,0.205588,0.539237,0.052214,55,276,573,5456
1644159606.431365,-0.010559,0.009277,-0.993835,0.236122,0.493435,-0.192061,46,274,571,5456
1644159606.479752,-0.008606,0.010376,-0.991638,0.35826,0.233893,-0.024122,48,271,576,5456
1644159606.528142,-0.010132,0.009399,-0.993652,0.251389,0.310229,-0.115725,49,268,577,5488
1644159606.576558,-0.01239,0.012878,-0.991516,0.297191,0.447634,-0.130992,52,280,582,5472
1644159606.62673,-0.010986,0.009766,-0.989929,0.281924,0.432366,-0.054656,47,282,584,5424
1644159606.677063,-0.011536,0.009094,-0.990234,0.281924,0.523969,0.021679,43,281,578,5376
1644159606.722242,-0.010498,0.009216,-0.992188,0.327725,0.432366,-0.115725,47,273,586,5408
1644159606.818466,-0.011475,0.011841,-0.992126,0.144519,0.371298,-0.100458,51,266,573,5344
1644159606.866885,-0.008667,0.011292,-0.990723,0.327725,0.523969,-0.176794,45,270,577,5424
1644159606.915304,-0.008972,0.009094,-0.993652,0.327725,0.325496,-0.176794,49,270,582,5472
1644159606.963695,-0.011169,0.006775,-0.992859,0.312458,0.447634,-0.14626,61,273,568,5456
1644159607.012089,-0.011414,0.010986,-0.990234,0.35826,0.417099,-0.115725,51,276,576,5408
1644159607.060552,-0.011536,0.011292,-0.991394,0.190321,0.340763,-0.237863,61,280,575,5472
1644159607.108851,-0.009583,0.010254,-0.992188,0.297191,0.554504,-0.14626,52,270,577,5456
1644159607.157207,-0.012207,0.008911,-0.99054,0.220855,0.356031,-0.14626,52,273,582,5376
1644159607.205634,-0.009033,0.010376,-0.991821,0.388794,0.371298,-0.176794,43,271,585,5424
1644159607.253995,-0.009399,0.010315,-0.992859,0.419328,0.508702,-0.100458,43,276,564,5456
1644159607.302392,-0.013611,0.01123,-0.992188,0.327725,0.493435,-0.115725,46,269,576,5424
1644159607.350765,-0.010376,0.010437,-0.993958,0.35826,0.523969,-0.25313,64,285,579,5456
1644159607.399157,-0.01062,0.009216,-0.990234,0.327725,0.508702,-0.085191,52,275,577,5424
1644159607.447541,-0.011902,0.008301,-0.990723,0.312458,0.493435,-0.054656,51,266,578,5424
1644159607.4959,-0.012146,0.008179,-0.993042,0.220855,0.462901,-0.039389,53,271,578,5424
1644159607.544321,-0.010559,0.010132,-0.99292,0.327725,0.340763,-0.14626,64,282,572,5424
1644159607.592698,-0.009277,0.01062,-0.991028,0.159786,0.447634,-0.130992,55,266,578,5424
1644159607.641089,-0.010376,0.009094,-0.99353,0.190321,0.539237,-0.130992,39,276,576,5456
1644159607.689752,-0.010376,0.008728,-0.99353,0.175053,0.432366,0.021679,51,266,585,5456
1644159607.7388,-0.009094,0.008667,-0.990662,0.297191,0.539237,-0.115725,57,275,575,5424
1644159607.789234,-0.009094,0.009277,-0.994263,0.297191,0.386565,-0.039389,47,273,579,5376
1644159607.839735,-0.009949,0.00769,-0.992676,0.251389,0.401832,-0.069924,53,269,576,5488
1644159607.884551,-0.010498,0.009949,-0.99231,0.404061,0.401832,-0.039389,64,265,582,5376
1644159607.979866,-0.012024,0.009827,-0.99231,0.373527,0.508702,-0.237863,51,281,573,5424
1644159608.028259,-0.015442,0.008057,-0.992188,0.113985,0.401832,-0.008855,49,275,577,5424
1644159608.077335,-0.009888,0.011841,-0.990173,0.327725,0.508702,-0.130992,48,279,590,5456
1644159608.12517,-0.011963,0.008789,-0.991638,0.312458,0.356031,-0.024122,53,283,578,5488
1644159608.173422,-0.013733,0.009216,-0.993103,0.236122,0.417099,-0.008855,49,282,579,5360
1644159608.221787,-0.009033,0.007629,-0.993652,0.205588,0.447634,-0.222595,54,280,572,5408
1644159608.270138,-0.011353,0.007446,-0.993042,0.281924,0.386565,-0.024122,49,265,575,5376
1644159608.31856,-0.010559,0.009521,-0.994141,0.281924,0.447634,-0.085191,46,264,585,5456
1644159608.36695,-0.00946,0.008362,-0.990356,0.205588,0.386565,0.021679,58,276,573,5360
1644159608.415339,-0.010742,0.009338,-0.993774,0.190321,0.447634,-0.008855,46,274,578,5408
1644159608.463723,-0.009094,0.007874,-0.993164,0.35826,0.294962,-0.100458,51,281,590,5456
1644159608.512081,-0.008118,0.010193,-0.989441,0.281924,0.356031,0.006412,52,273,575,5424
1644159608.560515,-0.011719,0.007202,-0.993164,0.266656,0.356031,-0.176794,51,262,571,5408
1644159608.609932,-0.010132,0.007141,-0.990906,0.35826,0.462901,-0.085191,53,269,573,5408
1644159608.66016,-0.008606,0.008362,-0.993103,0.190321,0.24916,0.006412,43,269,580,5488
1644159608.710186,-0.008789,0.008057,-0.99408,0.266656,0.371298,-0.085191,57,270,577,5456
1644159608.755503,-0.012878,0.010193,-0.994751,0.205588,0.447634,-0.115725,49,275,572,5344
1644159608.850843,-0.011414,0.010559,-0.989197,0.068183,0.462901,-0.222595,48,274,571,5424
1644159608.899265,-0.008057,0.009216,-0.993042,0.312458,0.233893,-0.115725,58,286,573,5424
1644159608.947664,-0.009949,0.010254,-0.989868,0.251389,0.386565,0.036947,48,274,578,5472
1644159608.996039,-0.009399,0.012512,-0.992554,0.342992,0.325496,-0.069924,51,259,583,5456
1644159609.047005,-0.010925,0.007202,-0.992188,0.434595,0.356031,-0.298931,48,271,566,5408
1644159609.092818,-0.010254,0.008545,-0.989258,0.312458,0.523969,-0.161527,61,275,589,5488
1644159609.141212,-0.008972,0.00946,-0.992188,0.236122,0.478168,-0.130992,52,270,586,5456
1644159609.189567,-0.009521,0.009399,-0.992126,0.175053,0.340763,-0.115725,51,266,573,5456
1644159609.237959,-0.010437,0.01001,-0.989868,0.205588,0.523969,-0.024122,51,276,573,5360
1644159609.286328,-0.00824,0.006409,-0.992554,0.190321,0.340763,-0.024122,45,273,584,5408
1644159609.334735,-0.009766,0.011597,-0.992126,0.312458,0.432366,-0.069924,47,268,575,5424
1644159609.383151,-0.010376,0.012085,-0.99176,0.144519,0.63084,-0.283664,49,270,577,5472
1644159609.431523,-0.01239,0.010132,-0.993225,0.159786,0.401832,-0.039389,48,266,576,5456
1644159609.479903,-0.010071,0.00946,-0.991699,0.144519,0.401832,-0.237863,54,275,575,5408
1644159609.52829,-0.011719,0.011719,-0.994507,0.297191,0.523969,-0.14626,53,274,573,5424
1644159609.57667,-0.010681,0.009888,-0.991394,0.35826,0.417099,-0.161527,53,276,580,5408
1644159609.625107,-0.011353,0.008911,-0.992493,0.251389,0.585038,-0.054656,48,266,573,5424
1644159609.673442,-0.011963,0.007568,-0.993042,0.312458,0.356031,-0.237863,48,269,573,5344
1644159609.722052,-0.010742,0.007202,-0.990417,0.159786,0.356031,-0.069924,55,286,576,5424
1644159609.77086,-0.00946,0.006836,-0.991638,0.144519,0.340763,-0.100458,53,271,580,5408
1644159609.82281,-0.009888,0.007812,-0.992493,0.297191,0.432366,-0.161527,42,280,577,5424
1644159609.872566,-0.010437,0.01001,-0.992004,0.281924,0.310229,0.143817,59,263,575,5456
1644159609.917252,-0.011169,0.008911,-0.99292,0.281924,0.493435,-0.100458,55,274,566,5472
1644159610.012526,-0.010193,0.010376,-0.991638,0.266656,0.401832,-0.054656,52,268,568,5456
1644159610.060698,-0.011841,0.007629,-0.992981,0.388794,0.401832,-0.008855,48,276,580,5456
1644159610.108918,-0.011108,0.007202,-0.992676,0.297191,0.447634,-0.054656,46,283,566,5472
1644159610.157331,-0.013916,0.009094,-0.99408,0.159786,0.432366,-0.14626,52,275,577,5456
1644159610.205738,-0.009949,0.008484,-0.993286,0.312458,0.401832,-0.100458,45,268,572,5376
1644159610.254126,-0.009521,0.007996,-0.992004,0.236122,0.539237,-0.161527,58,274,573,5344
1644159610.302505,-0.009094,0.012085,-0.993713,0.35826,0.401832,-0.207328,54,273,577,5536
1644159610.350919,-0.011841,0.009338,-0.991943,0.419328,0.371298,-0.130992,40,263,565,5408
1644159610.3993,-0.008972,0.009033,-0.988953,0.205588,0.417099,-0.008855,55,276,578,5424
1644159610.447693,-0.012695,0.010254,-0.992188,0.312458,0.386565,-0.054656,51,288,583,5488
1644159610.496047,-0.011597,0.007507,-0.991943,0.129252,0.447634,-0.039389,49,277,570,5408
1644159610.544478,-0.007935,0.010864,-0.992554,0.342992,0.264427,-0.054656,53,274,573,5424
1644159610.592874,-0.009277,0.009521,-0.992737,0.052916,0.340763,-0.115725,51,271,576,5376
1644159610.641255,-0.011414,0.009338,-0.991943,0.08345,0.386565,0.036947,46,271,576,5456
1644159610.689638,-0.009827,0.010742,-0.990845,0.281924,0.508702,-0.039389,38,273,568,5376
1644159610.738012,-0.010986,0.010681,-0.991699,0.251389,0.294962,-0.054656,54,275,575,5456
1644159610.786453,-0.011658,0.009155,-0.992554,0.373527,0.371298,-0.054656,47,282,575,5344
1644159610.835104,-0.010864,0.008789,-0.99292,0.190321,0.340763,-0.069924,53,281,569,5424
1644159610.88326,-0.012756,0.009399,-0.991272,0.175053,0.508702,-0.14626,53,276,583,5424
1644159610.933292,-0.010925,0.009155,-0.992737,0.129252,0.462901,-0.222595,55,279,576,5408
1644159610.98394,-0.010864,0.01062,-0.990967,0.327725,0.325496,-0.115725,48,276,576,5456
1644159611.047297,-0.010254,0.009094,-0.993469,0.388794,0.539237,-0.024122,47,265,584,5424
1644159611.125373,-0.011353,0.009277,-0.990112,0.220855,0.539237,-0.176794,62,269,569,5424
1644159611.173542,-0.010376,0.009033,-0.991333,0.266656,0.401832,-0.085191,43,266,573,5408
1644159611.221916,-0.009888,0.009277,-0.991638,0.190321,0.493435,-0.176794,54,280,579,5424
1644159611.270296,-0.012024,0.00946,-0.992615,0.175053,0.523969,0.067481,48,276,576,5456
1644159611.318695,-0.005676,0.010803,-0.992126,0.251389,0.432366,-0.069924,49,270,568,5408
1644159611.367082,-0.010803,0.01062,-0.991943,0.129252,0.371298,0.021679,43,266,573,5456
1644159611.415473,-0.010925,0.011353,-0.989502,0.144519,0.340763,-0.176794,49,275,582,5408
1644159611.463864,-0.006348,0.008484,-0.989075,0.220855,0.417099,-0.039389,42,275,563,5520
1644159611.512268,-0.00885,0.009521,-0.992493,0.205588,0.462901,-0.100458,54,273,572,5456
1644159611.560637,-0.010376,0.009583,-0.989929,0.175053,0.218626,0.036947,52,277,577,5360
1644159611.60904,-0.012207,0.005493,-0.991211,0.251389,0.356031,-0.130992,52,273,572,5456
1644159611.657429,-0.009644,0.008484,-0.991882,0.220855,0.401832,-0.054656,46,269,583,5424
1644159611.705813,-0.012146,0.008728,-0.992859,0.266656,0.508702,-0.100458,43,276,580,5424
1644159611.754237,-0.01355,0.007324,-0.991699,0.251389,0.356031,-0.207328,60,281,585,5424
1644159611.802657,-0.011536,0.011169,-0.991943,0.144519,0.371298,0.006412,53,279,578,5424
1644159611.851018,-0.010925,0.007019,-0.993347,0.236122,0.432366,-0.161527,60,279,573,5456
1644159611.899382,-0.008911,0.007568,-0.993286,0.129252,0.432366,-0.085191,52,270,577,5408
1644159611.947934,-0.008484,0.008728,-0.992615,0.190321,0.478168,-0.085191,48,269,580,5344
1644159611.996176,-0.012451,0.008179,-0.991577,0.312458,0.569771,0.006412,51,279,578,5376
1644159612.06715,-0.012085,0.010254,-0.992432,0.312458,0.371298,0.036947,48,269,580,5360
1644159612.101463,-0.010925,0.00946,-0.992798,0.068183,0.478168,-0.130992,52,277,586,5424
1644159612.145864,-0.009644,0.010315,-0.992432,0.236122,0.294962,-0.115725,57,270,579,5424
1644159612.190673,-0.012512,0.009766,-0.990906,0.419328,0.294962,-0.207328,49,277,572,5456
1644159612.286477,-0.00769,0.010071,-0.994019,0.08345,0.432366,-0.161527,43,271,573,5360
1644159612.334861,-0.008972,0.008179,-0.995544,0.159786,0.432366,0.052214,47,280,570,5488
1644159612.383274,-0.011963,0.009827,-0.991028,0.205588,0.493435,-0.039389,45,268,563,5456
1644159612.431641,-0.011414,0.006531,-0.991272,0.08345,0.462901,-0.237863,46,269,571,5344
1644159612.480036,-0.011536,0.00769,-0.991211,0.175053,0.325496,-0.024122,52,275,579,5408
1644159612.52843,-0.010376,0.008606,-0.993286,0.297191,0.417099,0.006412,54,280,575,5408
1644159612.577129,-0.007507,0.010376,-0.992188,0.144519,0.554504,0.021679,47,268,579,5472
1644159612.625205,-0.010315,0.008667,-0.989258,0.220855,0.371298,-0.069924,48,274,578,5424
1644159612.673621,-0.011902,0.011047,-0.992188,0.297191,0.356031,-0.054656,57,273,577,5376
1644159612.721996,-0.009033,0.008667,-0.993286,0.175053,0.447634,-0.14626,43,279,580,5456
1644159612.770382,-0.008179,0.010498,-0.992371,0.297191,0.523969,-0.298931,51,274,571,5408
1644159612.818805,-0.011841,0.009644,-0.992859,0.251389,0.432366,0.006412,48,274,573,5376
1644159612.867196,-0.01062,0.008789,-0.991516,0.327725,0.401832,-0.161527,53,271,583,5424
1644159612.915575,-0.010681,0.009644,-0.99231,0.098718,0.432366,-0.024122,53,281,578,5472
1644159612.963975,-0.011841,0.010498,-0.994324,0.297191,0.386565,-0.054656,48,271,578,5456
1644159613.012345,-0.012329,0.006165,-0.992126,0.419328,0.371298,-0.085191,55,271,578,5456
1644159613.068653,-0.009033,0.012939,-0.99176,0.327725,0.508702,0.052214,53,274,585,5456
1644159613.109092,-0.012878,0.01123,-0.990601,0.236122,0.417099,-0.039389,46,269,580,5456
1644159613.157496,-0.012451,0.010925,-0.990967,-0.038687,0.462901,0.021679,41,279,569,5424
1644159613.207475,-0.009155,0.00946,-0.993835,0.388794,0.340763,-0.085191,51,271,587,5408
1644159613.257805,-0.009399,0.009094,-0.99408,0.266656,0.417099,-0.161527,52,265,577,5456
1644159613.307975,-0.010376,0.006653,-0.99408,0.434595,0.493435,-0.130992,42,280,582,5456
1644159613.399417,-0.007812,0.010498,-0.990173,0.266656,0.325496,-0.069924,49,273,579,5456
1644159613.447807,-0.011536,0.010803,-0.988831,0.312458,0.478168,-0.024122,54,270,577,5424
1644159613.496203,-0.010437,0.009888,-0.991028,0.388794,0.447634,-0.100458,54,263,570,5456
1644159613.544827,-0.010742,0.009521,-0.992432,0.266656,0.264427,-0.192061,55,269,576,5456
1644159613.592986,-0.009644,0.006775,-0.990662,0.175053,0.417099,-0.222595,42,277,572,5488
1644159613.641389,-0.012695,0.00885,-0.990845,0.266656,0.478168,-0.100458,47,277,565,5456
1644159613.689785,-0.010193,0.010864,-0.991821,0.266656,0.417099,-0.115725,46,271,569,5488
1644159613.738191,-0.011536,0.007935,-0.992432,0.159786,0.325496,-0.130992,53,274,571,5376
1644159613.786536,-0.012024,0.009583,-0.992554,0.220855,0.493435,-0.039389,52,273,575,5456
1644159613.83524,-0.012024,0.012268,-0.989807,0.236122,0.371298,-0.008855,43,257,578,5488
1644159613.883395,-0.009399,0.015686,-0.991821,0.159786,0.401832,-0.100458,59,280,570,5424
1644159613.93177,-0.010681,0.008301,-0.990601,0.037649,0.508702,-0.130992,46,274,583,5456
1644159613.980156,-0.009644,0.011169,-0.991272,0.205588,0.264427,-0.085191,53,271,576,5376
1644159614.028546,-0.009216,0.008484,-0.991333,0.175053,0.508702,-0.039389,61,270,572,5488
1644159614.077014,-0.010376,0.010132,-0.991028,0.205588,0.401832,-0.054656,52,268,579,5376
1644159614.12528,-0.010498,0.008911,-0.989868,0.342992,0.478168,-0.283664,47,282,579,5408
1644159614.173679,-0.009766,0.010925,-0.992249,0.35826,0.447634,-0.130992,51,271,576,5472
1644159614.222059,-0.012085,0.009155,-0.994324,0.129252,0.508702,-0.207328,60,276,576,5408
1644159614.270453,-0.011353,0.010193,-0.991882,0.266656,0.401832,-0.024122,55,271,583,5424
1644159614.318897,-0.009583,0.010315,-0.99176,0.281924,0.523969,-0.085191,55,276,569,5408
1644159614.368973,-0.010803,0.008362,-0.992249,0.312458,0.386565,-0.130992,41,269,573,5408
1644159614.419328,-0.010742,0.005798,-0.995422,0.159786,0.447634,-0.085191,45,275,575,5408
1644159614.464363,-0.009277,0.008484,-0.990967,0.266656,0.401832,-0.115725,51,269,571,5424
1644159614.560803,-0.006958,0.007996,-0.991272,0.281924,0.478168,-0.161527,42,273,575,5456
1644159614.609179,-0.012085,0.008545,-0.994446,0.266656,0.401832,-0.222595,48,274,573,5376
1644159614.657558,-0.009094,0.008179,-0.991028,0.068183,0.325496,-0.130992,47,280,575,5376
1644159614.705958,-0.012146,0.010498,-0.990784,0.510931,0.462901,-0.207328,57,273,582,5376
1644159614.754334,-0.01239,0.008972,-0.992615,0.144519,0.325496,0.006412,48,264,578,5456
1644159614.802762,-0.011047,0.009888,-0.99054,0.404061,0.478168,-0.14626,45,277,572,5456
1644159614.851161,-0.00946,0.009644,-0.990051,0.342992,0.340763,-0.176794,52,273,575,5424
1644159614.899554,-0.008545,0.008423,-0.99231,0.098718,0.417099,-0.039389,51,276,583,5376
1644159614.947948,-0.010132,0.009338,-0.991638,0.342992,0.493435,0.098015,46,283,583,5456
1644159614.996313,-0.011841,0.00824,-0.991028,0.129252,0.508702,-0.25313,49,275,577,5408
1644159615.04904,-0.007935,0.009277,-0.993713,0.251389,0.493435,-0.085191,46,269,573,5456
1644159615.093138,-0.010864,0.006409,-0.991821,0.281924,0.432366,0.006412,48,274,571,5408
1644159615.141466,-0.011047,0.009827,-0.990356,0.312458,0.63084,0.189618,46,264,576,5376
1644159615.189862,-0.008179,0.009338,-0.993103,0.297191,0.294962,-0.039389,53,274,573,5472
1644159615.238247,-0.011719,0.007751,-0.992554,0.205588,0.401832,-0.176794,51,271,580,5424
1644159615.286637,-0.010376,0.009705,-0.990723,0.373527,0.386565,-0.100458,54,270,577,5408
1644159615.335047,-0.010681,0.008118,-0.993286,0.236122,0.264427,-0.161527,52,273,582,5456
1644159615.38341,-0.011475,0.007996,-0.991028,0.373527,0.417099,-0.283664,53,266,571,5472
1644159615.431809,-0.008728,0.010132,-0.99176,0.205588,0.554504,-0.176794,51,274,571,5456
1644159615.480704,-0.012268,0.010254,-0.993225,0.266656,0.462901,-0.176794,48,266,580,5344
1644159615.5316,-0.01062,0.009949,-0.991455,0.205588,0.371298,-0.115725,57,275,577,5408
1644159615.581255,-0.01062,0.010559,-0.990601,0.022382,0.310229,-0.085191,54,275,572,5360
1644159615.626337,-0.01062,0.012939,-0.988831,0.159786,0.417099,-0.222595,54,275,579,5408
1644159615.722383,-0.009949,0.010376,-0.992188,0.144519,0.432366,-0.176794,46,276,571,5360
1644159615.770522,-0.009399,0.010315,-0.990173,0.312458,0.493435,-0.283664,42,273,572,5488
1644159615.818894,-0.010681,0.009277,-0.993713,0.205588,0.447634,-0.115725,58,279,569,5408
1644159615.867345,-0.010254,0.007507,-0.993774,0.251389,0.462901,-0.024122,58,276,578,5424
1644159615.915689,-0.011536,0.010254,-0.991516,0.205588,0.508702,-0.130992,54,275,577,5424
1644159615.964129,-0.012024,0.010315,-0.990784,0.281924,0.356031,-0.039389,43,266,580,5376
1644159616.012537,-0.010315,0.006714,-0.991943,0.159786,0.493435,-0.024122,62,271,566,5520
1644159616.062847,-0.010132,0.011841,-0.99585,0.236122,0.432366,-0.024122,47,265,582,5424
1644159616.109334,-0.011658,0.008667,-0.992798,0.312458,0.478168,0.067481,58,269,578,5408
1644159616.157628,-0.011597,0.007019,-0.992798,0.281924,0.294962,-0.130992,45,270,572,5376
1644159616.206029,-0.010437,0.009644,-0.991394,0.220855,0.401832,-0.100458,40,270,579,5408
1644159616.254432,-0.011475,0.010193,-0.992371,0.190321,0.447634,-0.192061,49,282,577,5376
1644159616.302789,-0.009094,0.010559,-0.991089,0.480397,0.340763,0.036947,54,275,579,5376
1644159616.3512,-0.010803,0.010437,-0.991089,0.419328,0.401832,-0.054656,61,280,570,5424
1644159616.399578,-0.00946,0.008362,-0.991577,0.205588,0.493435,-0.115725,53,281,569,5472
1644159616.447974,-0.011414,0.007629,-0.990845,0.113985,0.340763,-0.192061,54,277,582,5376
1644159616.496374,-0.011169,0.010498,-0.992432,0.220855,0.310229,-0.115725,51,274,580,5456
1644159616.544785,-0.010254,0.00885,-0.991089,0.159786,0.386565,0.006412,49,268,589,5408
1644159616.593674,-0.01178,0.01178,-0.991516,0.159786,0.539237,0.12855,49,260,572,5456
1644159616.643995,-0.010193,0.00885,-0.990295,0.190321,0.310229,-0.130992,46,271,578,5488
1644159616.694032,-0.01062,0.008057,-0.992188,0.052916,0.523969,-0.115725,49,265,577,5408
1644159616.739209,-0.010376,0.009033,-0.991272,0.35826,0.432366,-0.161527,54,265,586,5360
1644159616.835309,-0.009583,0.007629,-0.992126,0.510931,0.447634,-0.054656,46,276,576,5424
1644159616.883531,-0.012451,0.008789,-0.99115,0.113985,0.432366,-0.100458,52,275,570,5408
1644159616.931908,-0.012878,0.010071,-0.994202,0.404061,0.340763,-0.069924,52,270,570,5456
1644159616.980316,-0.012512,0.00885,-0.993652,0.190321,0.325496,0.098015,47,277,577,5456
1644159617.028695,-0.013733,0.008972,-0.992737,0.220855,0.356031,0.113282,48,271,578,5344
1644159617.077457,-0.012756,0.011902,-0.993408,0.220855,0.478168,0.006412,49,285,582,5408
1644159617.125466,-0.01062,0.010803,-0.993469,0.434595,0.447634,-0.176794,43,266,578,5456
1644159617.173835,-0.012756,0.013855,-0.986938,0.129252,0.493435,-0.069924,48,274,573,5424
1644159617.222236,-0.009644,0.008789,-0.99115,0.175053,0.417099,0.006412,65,281,576,5456
1644159617.270583,-0.010864,0.011108,-0.991699,0.373527,0.356031,-0.054656,52,270,577,5472
1644159617.318988,-0.004395,0.00647,-0.988953,0.068183,0.432366,-0.161527,54,275,579,5456
1644159617.367341,-0.010742,0.009216,-0.992004,0.404061,0.279695,-0.008855,48,274,576,5424
1644159617.41577,-0.010742,0.007568,-0.992798,0.220855,0.401832,-0.176794,53,269,573,5424
1644159617.464154,-0.007324,0.009033,-0.992615,0.251389,0.356031,-0.100458,49,265,575,5408
1644159617.512533,-0.008362,0.010925,-0.992798,0.266656,0.600305,-0.222595,58,269,583,5408
1644159617.560935,-0.010559,0.010437,-0.991516,0.175053,0.462901,-0.176794,43,269,569,5456
1644159617.609345,-0.010376,0.011414,-0.991638,0.236122,0.462901,-0.085191,48,271,569,5424
1644159617.658525,-0.009399,0.010071,-0.99231,0.159786,0.508702,-0.207328,48,281,573,5472
1644159617.709119,-0.011414,0.012146,-0.990784,0.342992,0.264427,-0.130992,53,274,597,5424
1644159617.759246,-0.009399,0.010681,-0.990051,0.175053,0.340763,-0.14626,51,274,576,5424
1644159617.851282,-0.010559,0.009827,-0.991821,0.159786,0.386565,-0.161527,43,288,573,5408
1644159617.899704,-0.010742,0.009521,-0.991211,0.251389,0.371298,-0.25313,55,269,562,5424
1644159617.948083,-0.009644,0.013245,-0.991821,0.236122,0.417099,-0.115725,46,266,578,5488
1644159617.996456,-0.012695,0.009216,-0.990173,0.236122,0.310229,0.006412,41,274,585,5456
1644159618.059131,-0.01062,0.008972,-0.991028,0.266656,0.325496,-0.115725,48,288,576,5344
1644159618.094121,-0.011902,0.012939,-0.993225,0.251389,0.356031,-0.039389,54,273,584,5408
1644159618.141655,-0.009338,0.011108,-0.991333,0.068183,0.417099,-0.222595,54,275,584,5456
1644159618.190053,-0.007385,0.008911,-0.992432,0.205588,0.508702,-0.024122,54,277,579,5424
1644159618.238438,-0.01123,0.008667,-0.993713,0.052916,0.294962,-0.130992,55,264,580,5344
1644159618.286796,-0.010254,0.00824,-0.991943,0.175053,0.340763,-0.161527,52,280,572,5344
1644159618.335335,-0.010864,0.011108,-0.992065,0.266656,0.401832,-0.024122,42,282,582,5424
1644159618.383613,-0.010986,0.011353,-0.992676,0.098718,0.432366,-0.054656,47,277,572,5456
1644159618.432926,-0.009583,0.010864,-0.991821,0.342992,0.432366,-0.130992,47,275,568,5456
1644159618.483595,-0.008972,0.00885,-0.989929,0.266656,0.585038,-0.115725,52,277,579,5424
1644159618.533731,-0.011169,0.010864,-0.98999,0.220855,0.401832,-0.329466,41,279,578,5408
1644159618.578346,-0.009399,0.010925,-0.993347,0.327725,0.386565,-0.008855,46,276,573,5408
1644159618.673944,-0.011902,0.009644,-0.991577,0.175053,0.462901,-0.14626,48,279,573,5344
1644159618.722427,-0.010437,0.011963,-0.990417,0.220855,0.386565,-0.130992,53,271,580,5376
1644159618.770703,-0.010742,0.007629,-0.98938,0.190321,0.447634,-0.039389,59,270,565,5408
1644159618.819094,-0.006714,0.009033,-0.995728,0.205588,0.371298,-0.161527,53,279,585,5456
1644159618.867486,-0.011414,0.006714,-0.991394,0.159786,0.508702,-0.176794,61,268,568,5424
1644159618.915881,-0.009399,0.01001,-0.990295,0.220855,0.356031,-0.130992,57,268,575,5456
1644159618.964274,-0.012085,0.011536,-0.992554,0.312458,0.340763,-0.024122,48,271,566,5456
1644159619.012682,-0.009155,0.008179,-0.991638,0.266656,0.508702,-0.100458,46,271,578,5456
1644159619.062676,-0.010315,0.01123,-0.989136,0.205588,0.233893,-0.115725,52,270,582,5456
1644159619.109397,-0.00946,0.009155,-0.994507,0.098718,0.462901,-0.161527,40,273,575,5472
1644159619.157789,-0.008179,0.01123,-0.992188,0.327725,0.417099,0.052214,53,269,571,5424
1644159619.206177,-0.010132,0.011963,-0.988953,0.205588,0.371298,-0.176794,45,273,572,5456
1644159619.254549,-0.009583,0.009827,-0.991821,0.236122,0.478168,-0.039389,57,277,582,5456
1644159619.302972,-0.010742,0.008423,-0.991943,0.190321,0.539237,-0.085191,45,273,568,5376
1644159619.351344,-0.00946,0.007141,-0.994873,0.144519,0.386565,-0.024122,49,277,582,5456
1644159619.399734,-0.007996,0.010193,-0.991211,0.449863,0.554504,-0.130992,52,282,582,5408
1644159619.44813,-0.010681,0.010925,-0.991089,0.251389,0.615573,-0.130992,46,264,583,5456
1644159619.496726,-0.008972,0.011597,-0.987488,0.159786,0.447634,-0.054656,48,283,578,5472
1644159619.546588,-0.009766,0.008362,-0.992004,0.266656,0.569771,-0.115725,52,275,572,5456
1644159619.596926,-0.008362,0.01001,-0.990906,0.312458,0.371298,0.052214,41,271,576,5424
1644159619.641879,-0.005981,0.009949,-0.991638,0.205588,0.279695,-0.100458,47,277,575,5376
1644159619.738438,-0.009338,0.009277,-0.993469,0.236122,0.371298,-0.14626,42,265,572,5456
1644159619.786824,-0.008545,0.006958,-0.99292,0.175053,0.340763,0.006412,46,271,576,5376
1644159619.835274,-0.012268,0.011108,-0.99231,0.266656,0.264427,-0.161527,45,273,575,5408
1644159619.883655,-0.010193,0.011841,-0.99054,0.251389,0.401832,-0.161527,62,274,578,5424
1644159619.932065,-0.011292,0.008606,-0.994202,0.144519,0.371298,-0.069924,49,277,577,5456
1644159619.980452,-0.01178,0.008667,-0.991821,0.144519,0.294962,-0.314198,43,274,569,5424
1644159620.028848,-0.009766,0.014648,-0.992798,0.236122,0.493435,-0.115725,51,269,576,5360
1644159620.082301,-0.011719,0.013184,-0.990356,0.266656,0.539237,-0.085191,54,263,572,5456
1644159620.125577,-0.011536,0.009277,-0.991943,0.220855,0.371298,-0.085191,57,275,584,5344
1644159620.173985,-0.01123,0.006409,-0.993469,0.144519,0.371298,-0.054656,40,270,577,5376
1644159620.222369,-0.007568,0.009155,-0.990417,0.266656,0.523969,-0.024122,49,273,579,5424
1644159620.270714,-0.009033,0.007874,-0.992554,0.220855,0.401832,-0.085191,52,270,577,5472
1644159620.319112,-0.012451,0.007446,-0.990723,0.144519,0.585038,-0.069924,49,280,568,5424
1644159620.367524,-0.007751,0.009644,-0.990417,0.281924,0.356031,-0.054656,52,270,579,5424
1644159620.415916,-0.011292,0.008728,-0.991577,0.144519,0.417099,-0.207328,51,288,585,5424
1644159620.464306,-0.010315,0.009155,-0.992188,0.404061,0.340763,-0.085191,52,275,584,5424
1644159620.512818,-0.013123,0.007935,-0.99115,0.220855,0.386565,-0.130992,51,281,573,5408
1644159620.563537,-0.013245,0.010193,-0.991028,0.297191,0.508702,-0.14626,55,271,585,5472
1644159620.613632,-0.009705,0.010986,-0.991821,0.266656,0.386565,-0.237863,55,276,590,5424
1644159620.658493,-0.009216,0.008545,-0.991821,0.220855,0.493435,-0.024122,58,281,578,5488
1644159620.754874,-0.011047,0.009521,-0.993225,0.251389,0.462901,-0.115725,51,274,573,5456
1644159620.803063,-0.00824,0.012329,-0.990234,0.175053,0.386565,-0.069924,42,277,577,5488
1644159620.85145,-0.012512,0.007629,-0.992004,0.052916,0.294962,-0.14626,40,260,579,5376
1644159620.899844,-0.011047,0.008606,-0.994263,0.281924,0.432366,-0.298931,43,276,569,5456
1644159620.948231,-0.010315,0.008728,-0.993042,0.251389,0.447634,-0.115725,49,263,572,5424
1644159620.996622,-0.012939,0.008545,-0.990967,0.266656,0.432366,0.067481,41,279,569,5376
1644159621.058313,-0.008423,0.009583,-0.990601,0.266656,0.386565,-0.222595,51,271,573,5456
1644159621.095887,-0.008972,0.009521,-0.990662,0.113985,0.218626,-0.085191,47,275,584,5312
1644159621.14173,-0.008179,0.007385,-0.989197,0.190321,0.386565,-0.115725,53,276,576,5424
1644159621.190141,-0.010803,0.005981,-0.991333,0.190321,0.386565,-0.130992,52,273,582,5408
1644159621.238526,-0.01123,0.009033,-0.993652,0.236122,0.600305,-0.222595,46,274,573,5376
1644159621.286921,-0.010681,0.007568,-0.992554,0.251389,0.462901,0.006412,52,282,577,5472
1644159621.335326,-0.010803,0.010986,-0.989319,0.266656,0.386565,0.021679,47,273,584,5408
1644159621.383695,-0.013306,0.007507,-0.99353,0.205588,0.371298,-0.130992,49,280,570,5536
1644159621.432142,-0.012756,0.009277,-0.992188,0.266656,0.401832,-0.100458,53,276,573,5424
1644159621.480474,-0.008362,0.010925,-0.992249,0.205588,0.447634,-0.14626,51,276,576,5424
1644159621.528875,-0.012451,0.010681,-0.991333,0.266656,0.340763,-0.207328,45,273,582,5408
1644159621.577263,-0.00946,0.007385,-0.992859,0.251389,0.539237,-0.115725,49,273,579,5488
1644159621.625987,-0.007751,0.009827,-0.991516,0.144519,0.371298,-0.161527,48,271,573,5424
1644159621.676725,-0.012024,0.010925,-0.992798,0.205588,0.493435,-0.069924,46,279,573,5424
1644159621.726604,-0.00946,0.009399,-0.994019,0.251389,0.523969,-0.130992,52,265,582,5488
1644159621.771724,-0.011292,0.011902,-0.991943,0.434595,0.523969,-0.039389,52,270,570,5456
1644159621.867625,-0.008728,0.010925,-0.993225,0.205588,0.325496,-0.25313,53,279,587,5488
1644159621.91601,-0.012146,0.009094,-0.992798,0.35826,0.386565,-0.069924,54,273,575,5456
1644159621.96442,-0.009888,0.010315,-0.992615,0.205588,0.233893,-0.115725,59,273,582,5408
1644159622.012808,-0.010254,0.008911,-0.989258,0.312458,0.340763,-0.054656,55,269,578,5456
1644159622.061241,-0.011169,0.009094,-0.99231,0.327725,0.447634,-0.14626,51,271,578,5472
1644159622.109607,-0.008911,0.011536,-0.989807,0.175053,0.294962,-0.161527,51,269,576,5488
1644159622.15792,-0.010864,0.010803,-0.992188,0.35826,0.356031,-0.085191,53,286,576,5360
1644159622.206312,-0.010742,0.010803,-0.989929,0.251389,0.462901,-0.161527,53,271,576,5456
1644159622.254695,-0.009644,0.008423,-0.990356,0.327725,0.356031,0.113282,53,274,578,5456
1644159622.303088,-0.012085,0.010193,-0.990906,0.236122,0.279695,-0.161527,51,266,583,5472
1644159622.351486,-0.009888,0.010376,-0.993042,0.236122,0.325496,-0.085191,45,275,568,5424
1644159622.399874,-0.013367,0.009521,-0.990784,0.297191,0.432366,-0.14626,53,279,578,5408
1644159622.448266,-0.012451,0.00824,-0.993835,0.129252,0.401832,0.036947,46,281,578,5456
1644159622.496664,-0.009888,0.009766,-0.990784,0.175053,0.478168,-0.054656,54,280,579,5456
1644159622.545185,-0.012085,0.009094,-0.991211,0.312458,0.218626,-0.024122,40,270,575,5456
1644159622.593437,-0.010376,0.008972,-0.991394,0.236122,0.310229,0.067481,45,273,584,5360
1644159622.641824,-0.011414,0.009949,-0.992493,0.236122,0.539237,-0.161527,45,273,577,5456
1644159622.690211,-0.010559,0.009338,-0.993408,0.297191,0.233893,-0.176794,43,274,580,5456
1644159622.738594,-0.009338,0.010437,-0.993164,0.175053,0.386565,-0.14626,42,273,577,5424
1644159622.787207,-0.010498,0.00946,-0.993042,0.236122,0.294962,-0.176794,47,275,572,5408
1644159622.838557,-0.012085,0.007935,-0.990967,0.175053,0.447634,-0.207328,48,266,578,5456
1644159622.888762,-0.012695,0.010193,-0.991516,0.281924,0.508702,-0.207328,62,279,583,5376
1644159622.93335,-0.008972,0.010315,-0.990967,0.159786,0.310229,-0.161527,55,274,576,5424
1644159623.028998,-0.010681,0.007019,-0.989197,0.251389,0.371298,-0.100458,54,277,579,5456
1644159623.077726,-0.010132,0.010071,-0.991821,0.159786,0.386565,-0.14626,49,273,584,5456
1644159623.125724,-0.007751,0.008423,-0.993347,0.281924,0.417099,-0.054656,49,268,570,5424
1644159623.174112,-0.012085,0.007996,-0.98999,0.236122,0.325496,-0.130992,54,270,575,5424
1644159623.222522,-0.010254,0.009827,-0.989319,0.236122,0.539237,-0.100458,43,269,585,5456
1644159623.270867,-0.007935,0.008545,-0.990173,0.113985,0.386565,-0.130992,43,271,573,5456
1644159623.319285,-0.012939,0.010315,-0.992371,0.159786,0.493435,-0.100458,52,280,582,5344
1644159623.367677,-0.011475,0.010254,-0.992065,0.220855,0.539237,-0.039389,40,268,579,5376
1644159623.416067,-0.007629,0.009827,-0.99292,0.220855,0.371298,-0.100458,55,283,580,5424
1644159623.464448,-0.007874,0.011169,-0.99408,0.281924,0.325496,-0.085191,46,266,580,5408
1644159623.512836,-0.011169,0.008301,-0.992126,0.281924,0.356031,-0.039389,46,279,569,5344
1644159623.561231,-0.01001,0.010498,-0.992371,0.113985,0.401832,-0.069924,46,279,580,5376
1644159623.609615,-0.009949,0.006958,-0.991089,0.236122,0.386565,-0.069924,42,273,586,5472
1644159623.65801,-0.007935,0.012573,-0.993713,0.281924,0.356031,-0.130992,45,260,577,5424
1644159623.706394,-0.011902,0.011108,-0.99054,0.297191,0.585038,0.052214,45,263,584,5456
1644159623.754786,-0.010254,0.011292,-0.991821,0.190321,0.294962,-0.268397,48,279,583,5472
1644159623.803183,-0.012817,0.01001,-0.990784,0.281924,0.279695,-0.039389,54,270,579,5456
1644159623.851614,-0.012024,0.009521,-0.992493,0.190321,0.447634,-0.14626,58,279,580,5408
1644159623.900247,-0.008728,0.007324,-0.992615,0.281924,0.432366,-0.14626,48,274,585,5424
1644159623.950654,-0.007446,0.008911,-0.99408,0.129252,0.493435,-0.192061,42,280,572,5344
1644159624.057705,-0.01001,0.011658,-0.992004,0.159786,0.371298,-0.161527,52,268,579,5472
1644159624.093532,-0.013123,0.008667,-0.991699,0.175053,0.462901,0.098015,53,271,576,5456
1644159624.141924,-0.009277,0.010925,-0.99292,0.266656,0.462901,0.021679,48,274,566,5424
1644159624.190298,-0.011047,0.00769,-0.992126,0.205588,0.493435,-0.176794,58,266,569,5456
1644159624.238686,-0.009644,0.006042,-0.991577,0.312458,0.340763,-0.085191,52,273,582,5424
1644159624.287047,-0.008362,0.010071,-0.995667,0.373527,0.386565,-0.008855,55,271,571,5376
1644159624.335468,-0.009766,0.005859,-0.993896,0.190321,0.386565,0.006412,45,277,568,5456
1644159624.383868,-0.010803,0.010559,-0.990479,0.281924,0.371298,-0.14626,51,271,580,5456
1644159624.432253,-0.01178,0.010254,-0.993408,0.205588,0.462901,-0.222595,48,281,578,5424
1644159624.480629,-0.009033,0.009155,-0.989807,0.266656,0.523969,-0.176794,43,266,576,5472
1644159624.528995,-0.00885,0.010315,-0.99054,0.251389,0.478168,-0.176794,43,271,583,5456
1644159624.577395,-0.008728,0.008545,-0.99231,0.144519,0.447634,-0.008855,47,280,577,5424
1644159624.626007,-0.013428,0.009033,-0.990784,0.205588,0.462901,-0.176794,55,281,571,5536
1644159624.67499,-0.010437,0.009338,-0.990479,0.297191,0.523969,-0.176794,48,279,576,5472
1644159624.725324,-0.012695,0.009277,-0.993774,0.220855,0.401832,0.052214,48,271,578,5456
1644159624.775539,-0.010986,0.010681,-0.98822,0.205588,0.401832,-0.008855,48,281,566,5408
1644159624.820542,-0.010193,0.010742,-0.989746,0.190321,0.356031,-0.039389,48,271,566,5456
1644159624.916154,-0.011108,0.010498,-0.991821,-0.02342,0.340763,0.098015,57,275,575,5472
1644159624.964644,-0.010559,0.008301,-0.992737,0.220855,0.417099,-0.115725,47,270,575,5424
1644159625.012948,-0.009888,0.008972,-0.990784,0.281924,0.325496,-0.14626,45,268,577,5424
1644159625.061399,-0.00885,0.010925,-0.990845,0.281924,0.401832,-0.176794,46,274,573,5376
1644159625.109669,-0.009216,0.011169,-0.989807,0.373527,0.294962,-0.085191,48,274,580,5456
1644159625.158063,-0.011963,0.009888,-0.993347,0.297191,0.294962,-0.176794,47,275,570,5360
1644159625.206458,-0.01123,0.008057,-0.990845,0.388794,0.417099,-0.039389,59,275,577,5424
1644159625.254841,-0.009155,0.008423,-0.994446,0.251389,0.493435,-0.176794,51,279,578,5408
1644159625.303226,-0.011658,0.010925,-0.993774,0.220855,0.401832,-0.039389,48,269,580,5360
1644159625.351642,-0.008545,0.009888,-0.994873,0.175053,0.401832,-0.069924,49,270,572,5472
1644159625.400028,-0.009033,0.009094,-0.991394,0.266656,0.386565,-0.100458,42,285,582,5408
1644159625.448427,-0.009949,0.006653,-0.993042,0.205588,0.386565,-0.039389,53,262,576,5424
1644159625.496789,-0.013733,0.008667,-0.99054,0.281924,0.478168,-0.14626,52,273,579,5424
1644159625.545272,-0.009766,0.008179,-0.993103,0.236122,0.401832,0.006412,46,279,580,5424
1644159625.593563,-0.009705,0.007629,-0.992432,0.251389,0.508702,-0.039389,48,276,585,5424
1644159625.641973,-0.008362,0.00824,-0.995117,0.159786,0.600305,-0.008855,52,270,579,5472
1644159625.690365,-0.012268,0.007141,-0.994751,0.220855,0.386565,-0.115725,57,270,582,5376
1644159625.738761,-0.009216,0.007935,-0.991211,0.312458,0.462901,-0.115725,52,273,577,5472
1644159625.787209,-0.008911,0.008911,-0.993774,0.327725,0.279695,-0.161527,52,282,565,5424
1644159625.837321,-0.011475,0.009216,-0.989624,0.098718,0.447634,-0.14626,48,276,580,5456
1644159625.887691,-0.011108,0.008179,-0.995789,0.129252,0.417099,-0.130992,52,273,570,5344
1644159625.937595,-0.01001,0.00769,-0.990479,0.205588,0.386565,0.12855,41,271,571,5376
1644159625.982256,-0.010071,0.008728,-0.98999,0.266656,0.508702,-0.130992,49,275,579,5376
1644159626.077562,-0.010437,0.009583,-0.991272,0.312458,0.371298,0.006412,51,266,580,5376
1644159626.125847,-0.010132,0.009521,-0.993225,0.098718,0.417099,-0.161527,34,281,578,5408
1644159626.174263,-0.013428,0.011902,-0.990845,0.08345,0.508702,-0.207328,46,281,576,5376
1644159626.222652,-0.011719,0.008667,-0.99292,0.220855,0.401832,-0.069924,46,271,576,5488
1644159626.271032,-0.011658,0.009644,-0.992798,0.190321,0.371298,-0.054656,49,275,565,5456
1644159626.319402,-0.010681,0.006104,-0.991516,0.205588,0.356031,-0.115725,48,274,573,5408
1644159626.367821,-0.011108,0.010254,-0.992554,0.175053,0.447634,-0.161527,45,277,570,5456
1644159626.416197,-0.00824,0.010254,-0.993713,0.098718,0.417099,0.067481,46,271,580,5408
1644159626.464628,-0.009277,0.010132,-0.99231,0.220855,0.447634,-0.161527,48,262,583,5456
1644159626.512991,-0.012268,0.010437,-0.993103,0.220855,0.417099,-0.14626,47,268,568,5424
1644159626.561367,-0.012024,0.009827,-0.994446,0.35826,0.462901,-0.069924,59,273,570,5488
1644159626.609732,-0.012024,0.010681,-0.991943,0.266656,0.310229,-0.054656,57,275,577,5424
1644159626.658155,-0.00885,0.007263,-0.993469,0.129252,0.478168,-0.161527,55,281,571,5408
1644159626.706552,-0.00885,0.007507,-0.994812,0.236122,0.539237,-0.176794,51,283,580,5376
1644159626.754911,-0.006958,0.00885,-0.990356,0.205588,0.493435,-0.161527,32,264,580,5424
1644159626.803385,-0.010864,0.006287,-0.992615,0.144519,0.356031,-0.130992,52,263,577,5472
1644159626.851752,-0.007812,0.009094,-0.994141,0.281924,0.523969,-0.130992,55,269,578,5424
1644159626.900218,-0.009399,0.010254,-0.990845,0.159786,0.539237,-0.222595,40,270,577,5424
1644159626.948541,-0.008484,0.009521,-0.990051,0.312458,0.554504,-0.008855,52,280,579,5344
1644159627.053122,-0.011536,0.009216,-0.994202,0.175053,0.554504,0.006412,47,273,572,5360
1644159627.093656,-0.007202,0.008667,-0.992371,0.342992,0.478168,-0.054656,55,271,583,5456
1644159627.142037,-0.008606,0.009399,-0.993774,0.129252,0.386565,-0.14626,47,275,575,5408
1644159627.190441,-0.009094,0.008118,-0.989258,0.251389,0.371298,-0.085191,47,273,579,5424
1644159627.238822,-0.010071,0.006714,-0.994019,0.297191,0.447634,-0.176794,54,277,584,5456
1644159627.287199,-0.008179,0.009277,-0.990723,0.144519,0.478168,-0.069924,52,273,577,5424
1644159627.335614,-0.011536,0.00946,-0.990356,0.297191,0.356031,0.052214,53,276,578,5408
1644159627.384018,-0.01001,0.009277,-0.995544,0.35826,0.340763,-0.130992,49,268,570,5456
1644159627.432397,-0.011353,0.01001,-0.993042,0.175053,0.294962,-0.222595,52,268,586,5456
1644159627.480775,-0.01062,0.011047,-0.991943,0.388794,0.371298,-0.100458,55,276,580,5344
1644159627.529156,-0.008301,0.009216,-0.991577,0.205588,0.478168,-0.161527,48,281,583,5472
1644159627.577548,-0.012024,0.009094,-0.991333,0.236122,0.478168,-0.115725,54,277,570,5424
1644159627.625947,-0.013123,0.009399,-0.992676,0.312458,0.264427,-0.161527,49,277,579,5408
1644159627.674333,-0.009888,0.010315,-0.993286,0.35826,0.600305,-0.115725,53,283,580,5456
1644159627.72274,-0.007019,0.009888,-0.993225,0.35826,0.401832,-0.115725,45,275,565,5472
1644159627.771256,-0.00824,0.008972,-0.990784,0.342992,0.508702,-0.192061,53,276,573,5408
1644159627.822795,-0.009216,0.011353,-0.989014,0.251389,0.508702,-0.024122,43,276,576,5360
1644159627.872832,-0.011169,0.009949,-0.993164,0.327725,0.539237,0.052214,52,277,565,5424
1644159627.917597,-0.008301,0.009399,-0.993835,0.251389,0.432366,-0.008855,55,279,587,5456
1644159628.013103,-0.011047,0.009583,-0.990906,0.297191,0.508702,-0.085191,48,269,562,5376
1644159628.061882,-0.01239,0.011658,-0.990845,0.236122,0.523969,-0.054656,43,276,585,5472
1644159628.10982,-0.009521,0.009155,-0.990845,0.342992,0.447634,-0.115725,48,266,571,5488
1644159628.158211,-0.009949,0.007141,-0.993774,0.342992,0.615573,-0.298931,54,277,575,5424
1644159628.206607,-0.008667,0.007263,-0.991333,0.434595,0.462901,-0.222595,57,277,584,5376
1644159628.255065,-0.011475,0.009827,-0.992126,0.251389,0.462901,0.052214,53,271,571,5472
1644159628.303373,-0.009216,0.009155,-0.990662,0.342992,0.264427,-0.024122,55,279,573,5456
1644159628.351804,-0.012085,0.010437,-0.99292,0.297191,0.417099,-0.069924,41,276,571,5360
1644159628.400152,-0.01178,0.010437,-0.992065,0.098718,0.554504,-0.161527,43,276,569,5456
1644159628.448565,-0.009399,0.01001,-0.993103,0.312458,0.279695,-0.054656,55,279,571,5408
1644159628.496915,-0.009888,0.010986,-0.991821,0.404061,0.600305,-0.115725,54,268,575,5456
1644159628.545338,-0.009827,0.007629,-0.99054,0.312458,0.569771,-0.069924,49,273,570,5424
1644159628.593749,-0.013062,0.008362,-0.991211,0.159786,0.279695,-0.024122,49,273,586,5488
1644159628.642221,-0.010559,0.010071,-0.991455,0.220855,0.371298,-0.161527,46,269,576,5424
1644159628.690513,-0.010376,0.01062,-0.991577,0.388794,0.585038,-0.115725,47,282,570,5456
1644159628.738894,-0.012939,0.007935,-0.991455,0.236122,0.294962,-0.069924,45,268,582,5424
1644159628.787287,-0.009888,0.007324,-0.990295,0.266656,0.508702,-0.054656,42,270,582,5424
1644159628.835794,-0.008057,0.00769,-0.991821,0.205588,0.432366,-0.069924,45,270,575,5472
1644159628.884129,-0.012024,0.010559,-0.990601,0.251389,0.432366,-0.14626,55,274,578,5456
1644159628.93436,-0.010254,0.009827,-0.994629,0.175053,0.508702,-0.130992,47,277,582,5456
1644159628.983931,-0.013672,0.009033,-0.989685,0.35826,0.447634,-0.25313,49,273,579,5472
1644159629.034281,-0.011719,0.007507,-0.990417,0.281924,0.386565,-0.161527,49,270,582,5456
1644159629.084365,-0.010559,0.009033,-0.989807,0.281924,0.356031,0.082748,46,276,585,5456
1644159629.17441,-0.012329,0.006531,-0.990723,0.35826,0.371298,-0.25313,43,279,571,5456
1644159629.222811,-0.013,0.006287,-0.992432,0.312458,0.447634,-0.115725,53,269,571,5424
1644159629.271186,-0.009033,0.009521,-0.991943,0.220855,0.478168,-0.024122,51,276,576,5376
1644159629.319573,-0.010376,0.011414,-0.992798,0.129252,0.462901,-0.085191,51,274,576,5456
1644159629.367958,-0.008423,0.008606,-0.990723,0.297191,0.417099,-0.161527,57,268,570,5456
1644159629.416346,-0.011169,0.007996,-0.993347,0.144519,0.401832,-0.207328,48,274,571,5424
1644159629.464749,-0.008179,0.007812,-0.99176,0.297191,0.340763,-0.085191,53,274,578,5360
1644159629.513144,-0.013489,0.00885,-0.994446,0.281924,0.371298,-0.069924,51,269,573,5456
1644159629.561533,-0.012085,0.009033,-0.992798,0.327725,0.325496,-0.008855,53,274,576,5424
1644159629.609915,-0.011475,0.010437,-0.991333,0.297191,0.325496,-0.024122,54,270,572,5424
1644159629.658305,-0.013123,0.008789,-0.992615,0.251389,0.478168,-0.207328,51,274,578,5424
1644159629.70669,-0.011169,0.006592,-0.991394,0.342992,0.386565,-0.039389,49,273,565,5456
1644159629.755272,-0.011963,0.010376,-0.990417,0.251389,0.493435,-0.069924,51,276,569,5376
1644159629.803506,-0.011719,0.007874,-0.994019,0.266656,0.432366,-0.100458,57,275,579,5376
1644159629.851903,-0.011536,0.008606,-0.991211,0.297191,0.417099,-0.192061,53,276,569,5456
1644159629.900284,-0.011108,0.010986,-0.993042,0.251389,0.432366,0.052214,54,270,579,5456
1644159629.948665,-0.010193,0.005676,-0.992188,0.342992,0.340763,-0.130992,52,263,579,5536
1644159629.997118,-0.011841,0.009338,-0.991699,0.113985,0.386565,-0.069924,60,269,571,5424
1644159630.059502,-0.010986,0.008789,-0.993286,0.190321,0.356031,-0.130992,58,281,576,5456
1644159630.102066,-0.008911,0.008911,-0.991577,0.266656,0.432366,-0.115725,49,265,582,5456
1644159630.145055,-0.009033,0.008545,-0.991577,0.144519,0.417099,-0.176794,51,281,569,5456
1644159630.194551,-0.011475,0.007812,-0.990112,0.129252,0.386565,0.006412,51,276,576,5424
1644159630.239385,-0.009583,0.009888,-0.99176,0.175053,0.462901,-0.14626,47,268,575,5424
1644159630.335732,-0.010742,0.009399,-0.992737,0.220855,0.432366,-0.100458,59,275,577,5456
1644159630.384169,-0.010132,0.012085,-0.990295,0.266656,0.356031,-0.14626,41,279,576,5360
1644159630.432528,-0.007996,0.010559,-0.99054,0.327725,0.493435,-0.100458,48,276,573,5424
1644159630.480888,-0.011475,0.010376,-0.99408,0.342992,0.432366,-0.192061,42,277,563,5456
1644159630.529302,-0.010254,0.008667,-0.994263,0.251389,0.615573,-0.115725,52,273,572,5360
1644159630.57771,-0.007874,0.009705,-0.990295,0.220855,0.493435,-0.085191,42,277,584,5488
1644159630.626085,-0.012268,0.00769,-0.992432,0.052916,0.569771,-0.130992,45,275,577,5344
1644159630.674483,-0.011292,0.010254,-0.99231,0.205588,0.447634,-0.039389,52,280,575,5360
1644159630.722886,-0.01123,0.010742,-0.990356,0.236122,0.356031,0.052214,46,283,578,5424
1644159630.771287,-0.008484,0.011169,-0.99115,0.434595,0.432366,-0.115725,58,276,569,5456
1644159630.819642,-0.010742,0.004761,-0.993591,0.175053,0.432366,0.006412,53,274,587,5424
1644159630.86806,-0.011292,0.007324,-0.993042,0.175053,0.340763,-0.14626,51,283,576,5472
1644159630.916453,-0.012817,0.008911,-0.989685,0.175053,0.310229,-0.222595,49,270,584,5488
1644159630.964857,-0.010864,0.010315,-0.992859,0.312458,0.401832,0.021679,53,264,569,5424
1644159631.013227,-0.012634,0.009216,-0.993958,0.175053,0.356031,-0.100458,48,276,580,5408
1644159631.081326,-0.012451,0.010071,-0.993103,0.08345,0.325496,-0.130992,58,274,578,5456
1644159631.111541,-0.011902,0.007935,-0.993347,0.236122,0.401832,-0.130992,52,270,572,5456
1644159631.161658,-0.011292,0.008179,-0.991028,0.373527,0.401832,0.006412,49,275,579,5408
1644159631.21107,-0.010376,0.009644,-0.991882,0.281924,0.523969,-0.069924,52,273,577,5408
1644159631.256116,-0.010315,0.010437,-0.995361,0.220855,0.371298,0.006412,49,273,577,5424
1644159631.351933,-0.010376,0.007385,-0.992554,0.236122,0.493435,-0.100458,61,275,572,5408
1644159631.400315,-0.009094,0.009949,-0.991821,0.297191,0.401832,-0.237863,39,271,564,5456
1644159631.4487,-0.01001,0.008423,-0.993347,0.373527,0.371298,-0.085191,57,275,572,5408
1644159631.497104,-0.010742,0.01001,-0.99054,0.190321,0.386565,-0.115725,48,264,566,5520
1644159631.54548,-0.011719,0.01178,-0.993042,0.342992,0.447634,-0.130992,53,279,576,5408
1644159631.593893,-0.013672,0.010254,-0.989685,0.175053,0.356031,-0.024122,58,271,569,5424
1644159631.642287,-0.011658,0.009949,-0.992126,0.098718,0.417099,-0.161527,42,268,570,5488
1644159631.690661,-0.011169,0.009277,-0.991882,0.113985,0.447634,-0.130992,52,273,579,5408
1644159631.73905,-0.011108,0.009277,-0.992432,0.236122,0.447634,0.021679,52,275,582,5408
1644159631.787444,-0.011169,0.007202,-0.990356,0.205588,0.432366,-0.115725,54,277,568,5424
1644159631.835814,-0.012329,0.009338,-0.990417,0.266656,0.661374,-0.14626,48,276,573,5424
1644159631.884274,-0.01239,0.009155,-0.991638,0.266656,0.325496,-0.024122,55,276,580,5424
1644159631.932648,-0.011108,0.005676,-0.991821,0.419328,0.371298,-0.115725,51,266,578,5424
1644159631.981016,-0.007568,0.008972,-0.993774,0.129252,0.417099,-0.130992,55,271,585,5424
1644159632.02942,-0.013306,0.011963,-0.990295,0.098718,0.371298,-0.14626,51,269,576,5456
1644159632.078368,-0.007812,0.010437,-0.991577,0.434595,0.447634,-0.207328,43,271,576,5424
1644159632.126222,-0.011536,0.009277,-0.991882,0.342992,0.417099,-0.176794,47,273,568,5360
1644159632.174724,-0.008728,0.009521,-0.994629,0.312458,0.539237,-0.192061,49,273,584,5472
1644159632.223007,-0.01001,0.008545,-0.99353,0.113985,0.508702,0.036947,51,281,564,5456
1644159632.273216,-0.01001,0.010498,-0.990845,0.052916,0.462901,-0.314198,55,276,590,5376
1644159632.32342,-0.01178,0.009277,-0.992798,0.297191,0.310229,-0.100458,49,268,575,5456
1644159632.37376,-0.011475,0.010925,-0.992554,0.175053,0.401832,-0.161527,47,275,577,5472
1644159632.418512,-0.009949,0.008667,-0.990601,0.251389,0.417099,-0.069924,47,273,575,5360
1644159632.513322,-0.010437,0.01123,-0.993042,0.312458,0.386565,0.006412,55,269,580,5456
1644159632.561676,-0.009766,0.013855,-0.992859,0.35826,0.294962,-0.085191,40,277,582,5376
1644159632.610228,-0.009888,0.009521,-0.990845,0.190321,0.478168,-0.069924,45,273,570,5344
1644159632.658475,-0.013672,0.011597,-0.995972,0.098718,0.386565,0.006412,42,270,570,5456
1644159632.706868,-0.010315,0.007324,-0.994202,0.129252,0.554504,-0.008855,55,276,578,5344
1644159632.755279,-0.011475,0.009338,-0.991272,0.190321,0.447634,0.052214,52,270,568,5424
1644159632.803677,-0.011597,0.01062,-0.990906,0.220855,0.523969,-0.314198,43,269,569,5424
1644159632.852041,-0.012695,0.010742,-0.992126,0.281924,0.646107,-0.085191,54,277,568,5424
1644159632.900407,-0.011475,0.006714,-0.99231,0.281924,0.523969,-0.054656,57,268,568,5424
1644159632.948816,-0.010193,0.009766,-0.993408,0.175053,0.462901,0.021679,49,280,570,5360
1644159632.997189,-0.009216,0.008484,-0.990112,0.251389,0.340763,-0.069924,49,268,570,5376
1644159633.045599,-0.010925,0.009949,-0.990723,0.266656,0.646107,-0.237863,51,271,578,5424
1644159633.094207,-0.010559,0.010925,-0.991882,0.281924,0.356031,0.006412,57,277,568,5424
1644159633.142401,-0.010925,0.008118,-0.994507,0.175053,0.432366,-0.14626,51,271,583,5472
1644159633.190781,-0.008911,0.00824,-0.993286,0.220855,0.447634,-0.115725,45,275,568,5456
1644159633.239164,-0.01239,0.008606,-0.993591,0.205588,0.447634,-0.008855,43,269,573,5536
1644159633.287557,-0.010315,0.011841,-0.990356,0.312458,0.386565,-0.054656,49,265,572,5456
1644159633.335967,-0.010742,0.011902,-0.992615,0.251389,0.447634,-0.25313,53,271,571,5424
1644159633.384661,-0.009644,0.009766,-0.99115,0.190321,0.447634,-0.008855,59,273,570,5520
1644159633.434789,-0.010742,0.008301,-0.989807,0.159786,0.508702,0.052214,43,279,587,5424
1644159633.484845,-0.009888,0.006958,-0.992493,0.159786,0.356031,-0.115725,48,269,576,5424
1644159633.535425,-0.01001,0.00885,-0.991516,0.236122,0.600305,-0.024122,41,266,571,5456
1644159633.626299,-0.009216,0.008972,-0.992554,0.220855,0.493435,0.082748,47,273,570,5456
1644159633.674894,-0.009521,0.009338,-0.995605,0.297191,0.462901,-0.25313,47,282,568,5456
1644159633.723075,-0.01001,0.007141,-0.991943,0.236122,0.340763,-0.115725,45,275,572,5424
1644159633.771434,-0.010193,0.010132,-0.990173,0.205588,0.386565,-0.161527,48,279,573,5488
1644159633.819818,-0.01001,0.009155,-0.990967,0.404061,0.447634,-0.069924,46,279,576,5424
1644159633.868209,-0.011047,0.007812,-0.992493,0.144519,0.401832,-0.024122,42,273,579,5424
1644159633.916601,-0.007996,0.011475,-0.992065,0.281924,0.386565,-0.008855,57,273,568,5456
1644159633.965108,-0.008972,0.011047,-0.991821,0.251389,0.508702,-0.085191,45,281,578,5424
1644159634.013386,-0.010437,0.007324,-0.992981,0.159786,0.447634,-0.130992,53,266,569,5424
1644159634.070652,-0.013123,0.010071,-0.991028,0.220855,0.401832,-0.161527,42,275,579,5456
1644159634.110129,-0.00946,0.009583,-0.993164,0.297191,0.478168,-0.130992,52,280,572,5472
1644159634.158511,-0.010376,0.010254,-0.992554,0.297191,0.340763,-0.100458,48,271,580,5424
1644159634.20691,-0.012207,0.01123,-0.99176,0.251389,0.432366,-0.161527,57,270,570,5456
1644159634.255279,-0.010132,0.010681,-0.991333,0.098718,0.478168,-0.115725,52,282,570,5424
1644159634.303685,-0.01062,0.010376,-0.991333,0.266656,0.63084,-0.008855,54,280,570,5344
1644159634.352073,-0.008789,0.009521,-0.993652,0.266656,0.432366,-0.130992,48,274,571,5456
1644159634.40046,-0.009155,0.008484,-0.991699,0.327725,0.462901,-0.039389,46,271,578,5408
1644159634.448908,-0.00885,0.009033,-0.990295,0.205588,0.462901,-0.130992,51,264,564,5472
1644159634.49821,-0.010986,0.010376,-0.991699,0.312458,0.417099,-0.222595,54,277,568,5456
1644159634.548491,-0.012512,0.0047,-0.993896,0.190321,0.310229,-0.100458,35,273,572,5456
1644159634.599099,-0.009766,0.010498,-0.992981,0.312458,0.508702,-0.161527,53,279,578,5424
1644159634.643424,-0.010071,0.007629,-0.992065,0.205588,0.294962,-0.115725,52,273,572,5360
1644159634.739174,-0.011108,0.010193,-0.993713,0.159786,0.401832,-0.008855,47,282,582,5424
1644159634.787561,-0.009583,0.009033,-0.992004,0.327725,0.401832,-0.069924,57,273,570,5360
1644159634.835989,-0.009277,0.007385,-0.992004,0.205588,0.493435,-0.130992,59,275,575,5488
1644159634.884394,-0.010132,0.009094,-0.993469,0.159786,0.462901,-0.176794,52,282,572,5376
1644159634.932811,-0.008667,0.009521,-0.993408,0.236122,0.371298,-0.14626,46,269,571,5488
1644159634.981183,-0.014038,0.007263,-0.992493,0.297191,0.401832,-0.069924,47,265,575,5360
1644159635.029539,-0.007935,0.009766,-0.993408,0.297191,0.462901,-0.176794,51,281,576,5456
1644159635.08033,-0.013,0.007874,-0.992249,0.205588,0.356031,0.036947,51,271,576,5472
1644159635.126322,-0.013245,0.008789,-0.990967,0.144519,0.462901,-0.069924,51,269,566,5424
1644159635.174707,-0.010925,0.007202,-0.993774,0.266656,0.432366,0.021679,57,263,575,5408
1644159635.223105,-0.009766,0.009644,-0.991211,0.236122,0.371298,-0.008855,48,283,580,5472
1644159635.271469,-0.011169,0.00824,-0.994324,0.404061,0.432366,-0.085191,51,274,578,5424
1644159635.319856,-0.012085,0.007263,-0.991394,0.236122,0.401832,-0.161527,51,271,571,5424
1644159635.368452,-0.012695,0.00946,-0.992676,0.297191,0.340763,-0.14626,51,271,580,5424
1644159635.419403,-0.008545,0.008301,-0.992493,0.236122,0.310229,-0.039389,54,277,568,5456
1644159635.469061,-0.007507,0.008362,-0.99585,0.205588,0.478168,-0.054656,51,279,576,5408
1644159635.514158,-0.012329,0.009277,-0.992065,0.175053,0.447634,-0.115725,49,265,572,5376
1644159635.610211,-0.011047,0.010681,-0.99115,0.388794,0.493435,-0.130992,59,273,579,5424
1644159635.658566,-0.01239,0.00946,-0.99231,0.251389,0.523969,0.006412,55,271,569,5408
1644159635.706963,-0.012573,0.011292,-0.993591,0.35826,0.447634,-0.054656,40,273,570,5456
1644159635.755387,-0.011475,0.009155,-0.993347,0.220855,0.340763,-0.039389,47,268,577,5408
1644159635.803771,-0.007935,0.007446,-0.992371,0.312458,0.401832,-0.085191,54,280,577,5456
1644159635.852193,-0.010498,0.008789,-0.992371,0.281924,0.462901,-0.115725,47,277,579,5376
1644159635.900573,-0.013489,0.01001,-0.993713,0.220855,0.600305,-0.130992,48,276,573,5408
1644159635.948979,-0.012756,0.005493,-0.991638,0.266656,0.523969,0.021679,49,280,572,5456
1644159635.997337,-0.010925,0.008484,-0.992737,0.159786,0.432366,-0.176794,46,274,583,5424
1644159636.055285,-0.013062,0.009644,-0.992554,0.342992,0.478168,-0.100458,52,270,582,5360
1644159636.094177,-0.01123,0.009216,-0.991577,0.236122,0.417099,0.067481,45,270,586,5472
1644159636.142502,-0.010559,0.010376,-0.992432,0.220855,0.432366,-0.039389,57,270,572,5456
1644159636.190878,-0.010376,0.009277,-0.992676,0.144519,0.432366,-0.115725,52,275,572,5456
1644159636.239264,-0.011719,0.009338,-0.991028,0.236122,0.417099,-0.176794,52,270,575,5408
1644159636.287623,-0.008301,0.010254,-0.99054,0.35826,0.401832,-0.024122,54,280,572,5408
1644159636.336037,-0.012756,0.007385,-0.990845,0.251389,0.340763,-0.100458,52,277,584,5424
1644159636.384434,-0.012573,0.011169,-0.990051,0.220855,0.340763,-0.14626,58,281,578,5472
1644159636.432837,-0.013245,0.008179,-0.987427,0.388794,0.340763,-0.100458,57,273,579,5456
1644159636.48121,-0.009583,0.010559,-0.992493,0.175053,0.462901,-0.115725,58,271,569,5456
1644159636.52963,-0.012146,0.008545,-0.991821,0.205588,0.432366,0.006412,57,292,575,5424
1644159636.579875,-0.01001,0.009094,-0.991821,0.297191,0.478168,-0.14626,49,275,586,5456
1644159636.630222,-0.01001,0.009094,-0.992615,0.159786,0.417099,-0.039389,60,266,573,5456
1644159636.67519,-0.010986,0.007935,-0.992188,0.220855,0.478168,0.021679,61,280,565,5472
1644159636.771646,-0.012329,0.008911,-0.991943,0.373527,0.462901,-0.161527,65,266,580,5456
1644159636.819932,-0.013306,0.009583,-0.993774,0.098718,0.462901,0.143817,49,280,570,5456
1644159636.86836,-0.013367,0.007263,-0.990723,0.220855,0.478168,-0.115725,45,268,575,5472
1644159636.916757,-0.010742,0.011414,-0.992554,0.297191,0.371298,-0.100458,54,277,572,5456
1644159636.965191,-0.012695,0.008179,-0.992676,0.236122,0.478168,-0.130992,40,273,568,5456
1644159637.013547,-0.008606,0.00708,-0.989624,0.144519,0.24916,-0.161527,49,265,572,5472
1644159637.06205,-0.011292,0.009766,-0.99353,0.037649,0.493435,-0.069924,54,270,575,5488
1644159637.11028,-0.010315,0.009888,-0.993469,0.190321,0.569771,-0.222595,53,274,578,5488
1644159637.158674,-0.009216,0.00885,-0.987976,0.342992,0.447634,-0.130992,48,264,583,5424
1644159637.207064,-0.012451,0.010681,-0.991333,0.404061,0.356031,-0.115725,52,273,577,5456
1644159637.255417,-0.011169,0.009338,-0.993225,0.266656,0.447634,-0.14626,51,271,585,5408
1644159637.303822,-0.011536,0.009949,-0.991333,0.205588,0.325496,0.067481,49,275,570,5456
1644159637.352261,-0.011169,0.009888,-0.992798,0.297191,0.478168,-0.069924,61,263,570,5456
1644159637.402064,-0.011169,0.008484,-0.990601,0.35826,0.340763,-0.130992,49,273,570,5424
1644159637.453132,-0.009949,0.007568,-0.992554,0.312458,0.417099,-0.14626,51,266,578,5312
1644159637.49776,-0.012024,0.009155,-0.992371,0.205588,0.310229,-0.176794,52,277,570,5424
1644159637.594174,-0.007263,0.00592,-0.988831,0.373527,0.523969,-0.192061,57,275,565,5408
1644159637.642586,-0.009888,0.00885,-0.992188,0.129252,0.432366,-0.161527,53,279,562,5424
1644159637.690943,-0.015381,0.011475,-0.991516,0.220855,0.478168,-0.130992,43,279,573,5424
1644159637.73931,-0.011047,0.007263,-0.994019,0.312458,0.386565,-0.161527,46,269,573,5360
1644159637.787696,-0.010742,0.009583,-0.992126,0.266656,0.493435,-0.085191,52,270,572,5376
1644159637.83611,-0.009949,0.011475,-0.991455,0.251389,0.264427,0.098015,48,264,571,5472
1644159637.884547,-0.008118,0.009338,-0.993713,0.175053,0.417099,-0.085191,52,273,568,5424
1644159637.932956,-0.008728,0.010925,-0.99231,0.342992,0.478168,-0.069924,48,274,571,5456
1644159637.981325,-0.012451,0.008179,-0.991943,0.251389,0.401832,-0.054656,53,266,569,5424
1644159638.029725,-0.012573,0.011475,-0.994019,0.08345,0.417099,0.021679,42,275,572,5456
1644159638.078225,-0.008667,0.007812,-0.990845,0.266656,0.325496,-0.237863,54,280,570,5424
1644159638.126499,-0.011963,0.010376,-0.992493,0.251389,0.569771,0.021679,42,273,570,5424
1644159638.174864,-0.010132,0.005554,-0.994141,0.190321,0.523969,-0.039389,45,270,572,5472
1644159638.223255,-0.010254,0.009583,-0.992126,0.159786,0.569771,-0.222595,52,273,586,5456
1644159638.271618,-0.011597,0.009338,-0.991882,0.205588,0.569771,0.098015,59,280,582,5376
1644159638.320015,-0.01062,0.013672,-0.993347,0.35826,0.462901,-0.069924,53,274,578,5424
1644159638.368369,-0.012695,0.010925,-0.989929,0.35826,0.417099,0.021679,48,271,576,5424
1644159638.416784,-0.008911,0.008789,-0.994446,0.281924,0.401832,0.021679,59,273,579,5360
1644159638.465183,-0.012024,0.010315,-0.99353,0.281924,0.386565,-0.085191,53,274,578,5408
1644159638.513731,-0.008728,0.008423,-0.992798,0.266656,0.462901,-0.085191,47,271,569,5408
1644159638.56402,-0.00885,0.011353,-0.991455,0.129252,0.554504,-0.130992,60,277,575,5456
1644159638.614191,-0.012085,0.008362,-0.992371,0.175053,0.432366,-0.069924,43,269,573,5424
1644159638.659401,-0.011597,0.008667,-0.994751,0.098718,0.447634,-0.115725,45,282,570,5424
1644159638.755496,-0.010254,0.008667,-0.993958,0.175053,0.508702,0.067481,49,273,572,5312
1644159638.8039,-0.009644,0.01062,-0.990601,0.236122,0.447634,-0.008855,67,276,571,5456
1644159638.852637,-0.009277,0.00946,-0.993164,0.251389,0.325496,-0.115725,48,283,583,5408
1644159638.900722,-0.007812,0.00946,-0.991943,0.312458,0.569771,-0.085191,40,280,563,5424
1644159638.949118,-0.012024,0.007263,-0.993286,0.08345,0.478168,-0.039389,51,276,576,5408
1644159638.997473,-0.010437,0.008545,-0.991882,0.251389,0.310229,-0.130992,58,274,580,5424
1644159639.059621,-0.01239,0.010437,-0.99115,0.419328,0.432366,-0.237863,51,274,578,5520
1644159639.095363,-0.013428,0.00708,-0.988342,0.129252,0.493435,-0.25313,54,277,589,5456
1644159639.142697,-0.01062,0.00708,-0.992004,0.297191,0.401832,-0.176794,60,271,576,5408
1644159639.191015,-0.011169,0.009155,-0.992126,0.281924,0.371298,-0.115725,49,270,579,5424
1644159639.239407,-0.010193,0.008728,-0.992676,0.068183,0.63084,-0.054656,51,266,576,5456
1644159639.287783,-0.012634,0.009033,-0.991089,0.266656,0.447634,-0.192061,51,281,573,5424
1644159639.336192,-0.009644,0.01178,-0.991699,0.190321,0.447634,-0.176794,54,260,575,5424
1644159639.384632,-0.010437,0.00769,-0.990845,0.404061,0.493435,-0.069924,54,280,575,5360
1644159639.432994,-0.01062,0.008423,-0.990051,0.281924,0.310229,0.021679,59,282,572,5360
1644159639.481352,-0.010315,0.008789,-0.994324,0.08345,0.340763,-0.054656,53,281,585,5472
1644159639.529738,-0.010559,0.011047,-0.993042,0.297191,0.401832,-0.039389,47,270,577,5408
1644159639.578139,-0.013,0.00885,-0.991699,0.342992,0.615573,-0.100458,51,276,576,5424
1644159639.626704,-0.012329,0.009216,-0.993164,0.281924,0.462901,-0.14626,49,268,582,5488
1644159639.67703,-0.01001,0.007935,-0.992676,0.144519,0.462901,-0.085191,49,263,579,5424
1644159639.72733,-0.010559,0.011169,-0.992676,0.342992,0.371298,-0.085191,55,271,578,5456
1644159639.820127,-0.011536,0.010742,-0.992981,0.159786,0.462901,-0.25313,51,264,571,5424
1644159639.868444,-0.010925,0.010132,-0.992188,0.175053,0.356031,0.067481,52,270,577,5456
1644159639.916898,-0.01178,0.009338,-0.993286,0.434595,0.462901,-0.207328,54,270,579,5472
1644159639.965292,-0.012756,0.00824,-0.991394,0.297191,0.600305,-0.085191,52,275,579,5456
1644159640.013693,-0.00885,0.009583,-0.993713,0.144519,0.554504,-0.14626,55,279,566,5456
1644159640.062447,-0.013672,0.006287,-0.993408,0.404061,0.600305,-0.130992,53,269,580,5536
1644159640.11042,-0.010986,0.007446,-0.993958,0.144519,0.340763,-0.207328,48,269,566,5424
1644159640.158807,-0.011902,0.009277,-0.992188,0.220855,0.447634,-0.161527,46,274,571,5424
1644159640.207197,-0.010742,0.011536,-0.991394,0.113985,0.386565,-0.085191,52,275,577,5456
1644159640.255592,-0.013,0.009033,-0.99292,0.190321,0.340763,-0.130992,43,283,576,5376
1644159640.303976,-0.011414,0.005981,-0.993896,0.327725,0.462901,-0.237863,59,275,577,5408
1644159640.352383,-0.011047,0.006348,-0.994873,0.175053,0.432366,-0.069924,53,264,580,5520
1644159640.400761,-0.010803,0.005493,-0.992737,0.388794,0.371298,-0.039389,53,271,576,5456
1644159640.449152,-0.015686,0.009216,-0.990234,0.175053,0.585038,-0.039389,59,270,577,5424
1644159640.497549,-0.008545,0.008057,-0.989746,0.35826,0.417099,0.067481,42,273,577,5424
1644159640.545927,-0.009155,0.010132,-0.992981,0.312458,0.417099,-0.039389,53,264,578,5488
1644159640.594316,-0.013306,0.010254,-0.99115,0.312458,0.462901,-0.069924,49,273,570,5456
1644159640.642726,-0.008545,0.006653,-0.989441,0.251389,0.371298,-0.130992,55,266,590,5456
1644159640.692378,-0.009521,0.007568,-0.993286,0.205588,0.478168,-0.222595,57,273,575,5456
1644159640.742588,-0.012695,0.007874,-0.9953,-0.008153,0.325496,-0.14626,39,276,580,5376
1644159640.788626,-0.012085,0.006714,-0.991272,0.129252,0.417099,-0.268397,51,286,576,5424
1644159640.885034,-0.009399,0.011353,-0.992676,0.205588,0.310229,0.067481,60,283,573,5424
1644159640.933097,-0.011963,0.009277,-0.991455,0.220855,0.310229,-0.176794,59,277,577,5424
1644159640.981464,-0.011108,0.011414,-0.993835,0.113985,0.447634,-0.008855,51,269,580,5424
1644159641.029852,-0.010864,0.006348,-0.994141,0.281924,0.356031,-0.222595,53,279,585,5456
1644159641.087595,-0.009155,0.008606,-0.990906,0.068183,0.432366,-0.069924,48,274,585,5424
1644159641.126594,-0.01062,0.010193,-0.992432,0.388794,0.417099,-0.130992,54,273,568,5472
1644159641.175112,-0.010315,0.006531,-0.993164,0.297191,0.432366,-0.100458,51,279,578,5376
1644159641.223391,-0.011414,0.007812,-0.99292,0.068183,0.493435,-0.176794,60,274,578,5456
1644159641.271773,-0.011475,0.008484,-0.992737,0.251389,0.523969,-0.069924,55,264,578,5488
1644159641.320162,-0.009521,0.00885,-0.992676,0.236122,0.310229,-0.237863,55,264,580,5424
1644159641.368543,-0.011292,0.008423,-0.990601,0.175053,0.233893,0.067481,43,281,587,5424
1644159641.416942,-0.011047,0.010376,-0.991211,0.327725,0.294962,-0.115725,53,286,576,5424
1644159641.465454,-0.007446,0.009399,-0.990051,0.175053,0.432366,0.006412,53,271,576,5456
1644159641.514229,-0.012634,0.008545,-0.99176,0.327725,0.539237,0.067481,43,281,592,5456
1644159641.565142,-0.010498,0.009521,-0.99292,0.159786,0.493435,-0.115725,53,274,571,5408
1644159641.614988,-0.011902,0.009583,-0.991455,0.190321,0.310229,-0.085191,48,276,580,5408
1644159641.659962,-0.012512,0.008423,-0.99231,0.159786,0.539237,-0.039389,57,275,568,5424
1644159641.755649,-0.010864,0.009766,-0.992249,0.220855,0.356031,-0.130992,48,266,583,5424
1644159641.804091,-0.008667,0.008545,-0.993286,0.236122,0.340763,-0.085191,52,275,575,5424
1644159641.852499,-0.012512,0.009277,-0.994507,0.129252,0.569771,-0.130992,67,274,564,5472
1644159641.900866,-0.012085,0.011292,-0.990112,0.190321,0.417099,-0.222595,57,273,579,5360
1644159641.94926,-0.009399,0.010254,-0.992065,0.220855,0.279695,-0.024122,47,275,563,5424
1644159641.997653,-0.011902,0.012329,-0.990967,0.236122,0.371298,-0.085191,49,280,561,5472
1644159642.053137,-0.011719,0.007141,-0.994507,0.175053,0.462901,-0.024122,53,279,580,5456
1644159642.094402,-0.009216,0.009766,-0.990845,0.144519,0.523969,-0.161527,59,270,586,5456
1644159642.142757,-0.010498,0.010925,-0.992065,0.236122,0.417099,-0.069924,53,276,571,5424
1644159642.191168,-0.009277,0.010132,-0.992371,0.373527,0.539237,-0.039389,48,281,578,5424
1644159642.23956,-0.015442,0.010376,-0.992188,0.159786,0.447634,-0.069924,55,269,580,5456
1644159642.287946,-0.010925,0.004761,-0.991577,0.404061,0.417099,-0.069924,54,263,577,5456
1644159642.336341,-0.014282,0.009766,-0.992493,0.022382,0.401832,-0.024122,60,274,573,5424
1644159642.384745,-0.009338,0.007019,-0.992615,0.266656,0.447634,-0.100458,45,270,586,5424
1644159642.433137,-0.011475,0.009399,-0.993713,0.342992,0.569771,-0.130992,64,285,575,5456
1644159642.481511,-0.011414,0.011414,-0.992554,0.205588,0.417099,-0.069924,43,279,578,5424
1644159642.52987,-0.008972,0.012085,-0.991394,0.236122,0.371298,-0.237863,47,268,579,5456
1644159642.578278,-0.011292,0.007019,-0.989746,0.220855,0.340763,-0.130992,59,277,572,5424
1644159642.626671,-0.009521,0.009705,-0.992859,0.175053,0.432366,-0.14626,51,264,573,5408
1644159642.675657,-0.01123,0.010986,-0.994507,0.297191,0.462901,-0.268397,60,271,583,5360
1644159642.726365,-0.010132,0.009521,-0.993591,0.266656,0.432366,-0.14626,52,277,582,5360
1644159642.776789,-0.012573,0.009705,-0.989868,0.342992,0.417099,0.006412,53,266,580,5472
1644159642.821414,-0.011841,0.008789,-0.992126,0.342992,0.356031,-0.130992,57,270,575,5472
1644159642.917043,-0.012878,0.008667,-0.989807,0.220855,0.585038,-0.100458,46,269,576,5456
1644159642.965457,-0.010803,0.007446,-0.994202,0.175053,0.569771,-0.054656,49,275,572,5456
1644159643.013811,-0.009949,0.008728,-0.991943,0.266656,0.569771,-0.008855,60,271,569,5424
1644159643.062294,-0.012024,0.008301,-0.990234,0.068183,0.417099,-0.192061,58,271,571,5456
1644159643.110611,-0.013672,0.011475,-0.992065,0.373527,0.432366,-0.14626,48,269,578,5424
1644159643.158961,-0.010803,0.00885,-0.993164,0.297191,0.279695,-0.100458,49,275,577,5408
1644159643.207334,-0.012146,0.007263,-0.992859,0.190321,0.432366,-0.130992,41,274,573,5456
1644159643.25572,-0.009277,0.008606,-0.99115,0.251389,0.386565,-0.100458,48,266,573,5424
1644159643.304113,-0.009949,0.010437,-0.992554,0.236122,0.356031,-0.176794,53,274,566,5344
1644159643.35254,-0.012024,0.00769,-0.992981,0.190321,0.554504,-0.14626,49,275,577,5424
1644159643.400882,-0.010254,0.009827,-0.991821,0.068183,0.447634,-0.25313,46,271,566,5424
1644159643.449291,-0.013428,0.008972,-0.992371,0.220855,0.401832,-0.314198,54,270,582,5424
1644159643.497692,-0.011658,0.009338,-0.993103,0.022382,0.24916,0.006412,49,268,579,5472
1644159643.546059,-0.010132,0.007996,-0.993164,0.297191,0.356031,-0.039389,61,282,582,5424
1644159643.594461,-0.013672,0.009155,-0.992615,0.205588,0.447634,-0.298931,48,274,580,5456
1644159643.642864,-0.008484,0.010986,-0.992676,0.373527,0.478168,-0.100458,51,266,576,5488
1644159643.691237,-0.01001,0.01062,-0.994263,0.236122,0.600305,0.036947,43,274,578,5456
1644159643.739629,-0.008484,0.007874,-0.991516,0.342992,0.447634,0.006412,49,268,586,5424
1644159643.788019,-0.009888,0.007263,-0.99231,0.251389,0.493435,-0.100458,48,283,576,5456
1644159643.83678,-0.010132,0.008972,-0.990906,0.251389,0.371298,-0.100458,48,274,580,5456
1644159643.888389,-0.009155,0.007324,-0.994202,0.175053,0.462901,-0.115725,52,277,579,5360
1644159643.937942,-0.012207,0.007935,-0.99115,0.129252,0.585038,-0.039389,54,282,582,5424
1644159643.982501,-0.01239,0.009216,-0.993835,0.098718,0.417099,-0.024122,52,265,572,5408
1644159644.081394,-0.014343,0.009338,-0.993835,0.342992,0.401832,-0.115725,58,279,590,5456
1644159644.126754,-0.012939,0.008057,-0.991882,0.190321,0.478168,-0.161527,49,282,582,5472
1644159644.175167,-0.010498,0.01001,-0.993774,0.098718,0.417099,-0.100458,57,280,575,5472
1644159644.22353,-0.014282,0.007141,-0.993896,0.220855,0.401832,-0.25313,48,271,569,5408
1644159644.271928,-0.010925,0.008362,-0.99176,0.281924,0.539237,-0.115725,48,264,573,5472
1644159644.320311,-0.011597,0.008423,-0.989624,0.266656,0.264427,-0.008855,51,274,578,5456
1644159644.368699,-0.013,0.011292,-0.991211,0.098718,0.478168,-0.054656,51,264,576,5472
1644159644.417089,-0.011292,0.007629,-0.989868,0.236122,0.478168,-0.192061,42,282,579,5408
1644159644.465477,-0.014465,0.010681,-0.991943,0.297191,0.386565,-0.192061,49,275,579,5376
1644159644.513852,-0.010498,0.010742,-0.992432,0.205588,0.523969,-0.25313,51,269,573,5472
1644159644.562276,-0.009277,0.006653,-0.992737,0.404061,0.371298,-0.161527,51,276,578,5376
1644159644.610636,-0.011475,0.009644,-0.991028,0.190321,0.478168,-0.161527,52,277,575,5376
1644159644.659031,-0.013367,0.007263,-0.994873,0.159786,0.310229,-0.14626,45,282,570,5408
1644159644.707418,-0.013306,0.010132,-0.992859,0.236122,0.493435,-0.115725,54,273,584,5472
1644159644.755796,-0.00946,0.009094,-0.992615,0.251389,0.508702,-0.115725,35,275,572,5424
1644159644.804197,-0.010498,0.005615,-0.993652,0.236122,0.432366,-0.115725,54,265,577,5456
1644159644.852959,-0.011597,0.009521,-0.993286,0.266656,0.340763,-0.130992,53,271,578,5424
1644159644.901066,-0.008301,0.010193,-0.992615,0.175053,0.24916,-0.085191,46,269,578,5408
1644159644.951474,-0.008179,0.009888,-0.995483,0.190321,0.356031,-0.283664,55,276,585,5456
1644159645.002203,-0.012512,0.009705,-0.991943,0.159786,0.462901,-0.14626,54,270,584,5456
1644159645.09464,-0.008789,0.012207,-0.991516,0.35826,0.417099,-0.161527,52,275,584,5424
1644159645.14299,-0.010498,0.008301,-0.991028,0.129252,0.401832,-0.054656,45,275,568,5424
1644159645.191315,-0.01239,0.007751,-0.991516,0.022382,0.340763,-0.130992,48,269,569,5408
1644159645.239693,-0.012634,0.010437,-0.991638,0.08345,0.356031,0.036947,53,271,576,5456
1644159645.28809,-0.008545,0.008423,-0.993286,0.510931,0.356031,-0.069924,49,265,565,5456
1644159645.336472,-0.010986,0.009399,-0.993591,0.281924,0.432366,-0.054656,48,269,564,5344
1644159645.384883,-0.011536,0.006653,-0.990356,0.205588,0.386565,-0.14626,58,269,580,5488
1644159645.433263,-0.010559,0.010742,-0.993286,0.281924,0.386565,0.021679,45,268,570,5456
1644159645.481655,-0.011475,0.008179,-0.993591,0.312458,0.432366,-0.008855,49,277,570,5360
1644159645.530039,-0.011841,0.007568,-0.990723,0.297191,0.447634,-0.192061,43,276,578,5472
1644159645.578424,-0.007874,0.008667,-0.992554,0.236122,0.585038,-0.176794,59,273,575,5456
1644159645.626819,-0.010193,0.009033,-0.991516,0.312458,0.371298,-0.054656,58,274,576,5456
1644159645.675306,-0.011047,0.010376,-0.993103,0.251389,0.523969,-0.008855,51,271,571,5408
1644159645.723584,-0.012085,0.011414,-0.991577,0.388794,0.462901,-0.176794,51,271,578,5424
1644159645.772004,-0.011841,0.008484,-0.992981,0.129252,0.462901,-0.008855,53,281,571,5456
1644159645.820372,-0.012695,0.008911,-0.993042,0.159786,0.447634,-0.115725,47,268,577,5408
1644159645.868815,-0.011414,0.009521,-0.994812,0.098718,0.447634,-0.100458,52,268,575,5360
1644159645.917277,-0.009399,0.008179,-0.989502,0.266656,0.340763,-0.085191,49,275,572,5472
1644159645.965612,-0.012268,0.009155,-0.994507,0.251389,0.386565,-0.115725,59,273,568,5344
1644159646.014989,-0.012756,0.009155,-0.993225,0.297191,0.340763,-0.039389,54,265,575,5408
1644159646.08252,-0.011597,0.008545,-0.992004,0.35826,0.432366,-0.176794,48,274,578,5424
1644159646.1115,-0.011841,0.006104,-0.98999,0.251389,0.417099,-0.176794,48,274,576,5376
1644159646.207485,-0.010315,0.009827,-0.99231,0.190321,0.218626,-0.115725,55,271,569,5424
1644159646.255867,-0.011353,0.009888,-0.989746,0.007115,0.417099,-0.161527,46,271,564,5456
1644159646.304276,-0.008179,0.010254,-0.993896,0.220855,0.508702,0.006412,55,274,573,5472
1644159646.352642,-0.008606,0.009949,-0.992676,0.281924,0.371298,-0.161527,48,271,573,5424
1644159646.401052,-0.008606,0.014404,-0.991577,0.175053,0.462901,-0.054656,57,273,565,5376
1644159646.449431,-0.010376,0.010437,-0.990723,0.098718,0.371298,-0.130992,45,277,572,5424
1644159646.497831,-0.010376,0.008484,-0.991882,0.159786,0.310229,-0.085191,48,269,578,5456
1644159646.546203,-0.009583,0.011475,-0.991028,0.35826,0.432366,-0.085191,40,275,584,5472
1644159646.594651,-0.012878,0.008972,-0.992554,0.281924,0.493435,-0.130992,49,280,568,5456
1644159646.64302,-0.010193,0.010254,-0.990479,0.022382,0.478168,-0.161527,55,271,578,5424
1644159646.691396,-0.011597,0.009155,-0.99115,0.190321,0.478168,-0.085191,46,274,583,5456
1644159646.739777,-0.009033,0.009277,-0.990845,0.342992,0.432366,-0.085191,52,273,584,5456
1644159646.788193,-0.011597,0.00824,-0.994324,0.236122,0.447634,-0.115725,51,276,566,5408
1644159646.836556,-0.01123,0.006775,-0.99408,0.175053,0.478168,-0.039389,55,274,583,5408
1644159646.885047,-0.014282,0.008484,-0.992554,0.175053,0.417099,-0.085191,48,274,580,5456
1644159646.933374,-0.011841,0.008789,-0.993042,0.35826,0.386565,-0.176794,49,282,579,5360
1644159646.981763,-0.007629,0.008179,-0.99115,0.281924,0.447634,-0.14626,48,283,580,5424
1644159647.030144,-0.011047,0.008728,-0.992126,0.159786,0.462901,-0.008855,58,288,585,5424
1644159647.081987,-0.010315,0.007996,-0.991638,0.113985,0.432366,-0.130992,45,268,586,5456
1644159647.128029,-0.009766,0.011658,-0.994446,0.312458,0.371298,-0.008855,52,277,568,5424
1644159647.178082,-0.010925,0.009094,-0.99353,0.144519,0.371298,-0.14626,57,270,572,5408
1644159647.228477,-0.01239,0.009399,-0.994385,0.236122,0.294962,-0.085191,52,277,582,5424
1644159647.272894,-0.013855,0.007812,-0.992859,0.236122,0.554504,-0.192061,53,271,573,5456
1644159647.368876,-0.008911,0.007874,-0.991882,0.205588,0.371298,-0.085191,47,270,575,5408
1644159647.417254,-0.007996,0.008911,-0.99231,0.281924,0.325496,0.052214,45,277,568,5472
1644159647.465649,-0.009277,0.00885,-0.993103,0.175053,0.508702,-0.222595,55,274,576,5456
1644159647.514022,-0.008179,0.008789,-0.994446,0.266656,0.356031,0.021679,42,275,572,5408
1644159647.562446,-0.01239,0.007324,-0.991882,0.175053,0.539237,-0.100458,48,276,573,5408
1644159647.610821,-0.010925,0.009888,-0.991272,0.220855,0.401832,-0.008855,54,280,565,5456
1644159647.659222,-0.009644,0.010986,-0.99353,0.113985,0.24916,-0.14626,60,279,571,5456
1644159647.707616,-0.007874,0.009094,-0.993896,0.251389,0.417099,-0.039389,41,281,576,5376
1644159647.756001,-0.010071,0.012451,-0.991699,0.129252,0.432366,-0.039389,49,273,572,5456
1644159647.804391,-0.00946,0.010254,-0.993042,0.35826,0.432366,-0.024122,54,273,577,5424
1644159647.852789,-0.010376,0.010742,-0.994324,0.175053,0.478168,-0.008855,45,273,579,5472
1644159647.901164,-0.012634,0.011475,-0.990845,0.175053,0.279695,-0.222595,47,277,579,5408
1644159647.949551,-0.01062,0.01001,-0.992004,0.312458,0.447634,-0.130992,43,271,573,5456
1644159647.997943,-0.012024,0.009399,-0.994019,0.266656,0.340763,-0.008855,51,276,571,5456
1644159648.059127,-0.011841,0.010193,-0.99353,0.35826,0.371298,-0.115725,48,262,578,5488
1644159648.094695,-0.013,0.009155,-0.992371,0.175053,0.462901,-0.161527,42,277,575,5424
1644159648.143085,-0.012634,0.010986,-0.990967,0.205588,0.371298,-0.100458,46,266,573,5408
1644159648.191472,-0.00824,0.008789,-0.992981,0.236122,0.386565,0.036947,52,277,575,5456
1644159648.240691,-0.012817,0.010132,-0.99231,0.297191,0.493435,-0.14626,51,279,578,5376
1644159648.290503,-0.010315,0.00824,-0.992737,0.342992,0.417099,0.082748,51,281,576,5424
1644159648.340745,-0.012573,0.008118,-0.994934,0.068183,0.447634,-0.25313,41,266,573,5408
1644159648.385925,-0.010193,0.007629,-0.994202,0.205588,0.401832,0.021679,49,277,575,5456
1644159648.481789,-0.012634,0.007812,-0.990417,0.08345,0.447634,-0.069924,46,271,576,5456
1644159648.530187,-0.012085,0.007812,-0.991638,0.251389,0.462901,-0.069924,47,268,577,5424
1644159648.578566,-0.011597,0.008423,-0.993713,0.190321,0.340763,-0.054656,55,274,580,5424
1644159648.626966,-0.010986,0.007996,-0.99353,0.251389,0.417099,-0.176794,49,275,572,5408
1644159648.675346,-0.012207,0.007751,-0.993774,0.312458,0.371298,-0.25313,55,266,578,5360
1644159648.723752,-0.008423,0.006409,-0.99231,0.129252,0.264427,-0.237863,42,280,570,5424
1644159648.772185,-0.013184,0.010376,-0.991028,0.342992,0.325496,-0.222595,49,282,568,5344
1644159648.820568,-0.009277,0.007996,-0.994263,0.266656,0.432366,-0.222595,49,268,577,5424
1644159648.868951,-0.011597,0.009766,-0.989197,0.190321,0.325496,0.098015,53,266,576,5424
1644159648.917335,-0.00769,0.005615,-0.994812,0.144519,0.386565,-0.14626,51,281,571,5456
1644159648.965729,-0.009705,0.010864,-0.993896,0.251389,0.386565,-0.161527,46,271,583,5408
1644159649.014122,-0.012573,0.006165,-0.992188,0.297191,0.539237,-0.222595,46,266,578,5424
1644159649.07408,-0.009888,0.008484,-0.992981,0.236122,0.478168,-0.161527,60,276,576,5456
1644159649.110889,-0.013611,0.009399,-0.990784,0.236122,0.371298,-0.14626,41,264,571,5376
1644159649.15925,-0.012024,0.010376,-0.991333,0.190321,0.707176,-0.130992,52,275,575,5408
1644159649.20764,-0.009949,0.008179,-0.992615,0.175053,0.447634,-0.176794,53,274,580,5456
1644159649.256038,-0.011902,0.008484,-0.991394,0.297191,0.356031,-0.085191,52,280,589,5344
1644159649.305793,-0.014099,0.007446,-0.992065,0.159786,0.462901,-0.039389,57,275,572,5408
1644159649.356583,-0.011475,0.010559,-0.992859,0.251389,0.432366,-0.115725,49,275,575,5424
1644159649.406127,-0.009644,0.00824,-0.989807,0.144519,0.386565,-0.207328,46,274,580,5456
1644159649.497957,-0.009521,0.008484,-0.994324,0.419328,0.554504,-0.115725,46,274,592,5408
1644159649.546347,-0.011108,0.011353,-0.994385,0.281924,0.356031,-0.222595,42,275,579,5456
1644159649.594857,-0.012817,0.009888,-0.991638,0.205588,0.340763,-0.115725,51,279,569,5408
1644159649.643153,-0.011108,0.009827,-0.992188,0.251389,0.310229,-0.054656,45,273,579,5376
1644159649.691532,-0.010986,0.007446,-0.992004,0.113985,0.462901,0.113282,48,283,573,5488
1644159649.739904,-0.012573,0.01062,-0.992126,0.251389,0.523969,-0.222595,48,279,573,5408
1644159649.788296,-0.008057,0.008179,-0.991577,0.251389,0.523969,-0.222595,55,269,576,5360
1644159649.836737,-0.010742,0.01062,-0.990417,0.266656,0.447634,-0.100458,49,280,563,5344
1644159649.885237,-0.012207,0.006836,-0.992859,0.129252,0.340763,-0.192061,51,269,571,5456
1644159649.933517,-0.009644,0.009216,-0.989319,0.236122,0.447634,-0.14626,38,273,570,5456
1644159649.981912,-0.014221,0.011902,-0.994629,0.144519,0.386565,0.006412,55,266,573,5456
1644159650.030289,-0.011047,0.008911,-0.99115,0.266656,0.371298,-0.100458,53,271,578,5408
1644159650.081134,-0.009888,0.008484,-0.992432,0.342992,0.310229,-0.268397,45,268,575,5424
1644159650.127006,-0.009155,0.008423,-0.992493,0.205588,0.447634,-0.222595,52,275,572,5456
1644159650.17544,-0.011292,0.007812,-0.992249,0.236122,0.386565,-0.039389,62,269,576,5360
1644159650.223816,-0.012695,0.00885,-0.993713,0.236122,0.310229,-0.039389,48,276,573,5424
1644159650.27223,-0.010193,0.011108,-0.992249,0.220855,0.371298,-0.085191,48,259,587,5360
1644159650.320593,-0.011292,0.008667,-0.992004,0.251389,0.386565,-0.115725,48,276,585,5344
1644159650.369173,-0.010986,0.009338,-0.994934,0.266656,0.294962,0.098015,49,268,570,5456
1644159650.419694,-0.011841,0.007202,-0.992798,0.052916,0.554504,-0.039389,49,273,577,5424
1644159650.469817,-0.012024,0.009521,-0.991943,0.342992,0.447634,-0.054656,58,274,576,5408
1644159650.514931,-0.012939,0.007751,-0.99054,0.297191,0.478168,0.006412,49,265,582,5424
1644159650.610942,-0.013306,0.008545,-0.993652,0.297191,0.340763,-0.115725,51,264,576,5456
1644159650.659318,-0.013,0.008301,-0.991455,0.129252,0.279695,-0.115725,41,271,578,5408
1644159650.707725,-0.011658,0.010742,-0.991882,0.297191,0.264427,-0.024122,58,269,578,5408
1644159650.756073,-0.012329,0.009949,-0.992065,0.113985,0.340763,-0.130992,43,279,585,5456
1644159650.804515,-0.011963,0.008179,-0.994263,0.190321,0.340763,-0.115725,52,275,584,5456
1644159650.85294,-0.014893,0.010376,-0.994263,0.220855,0.401832,-0.176794,57,273,570,5408
1644159650.901307,-0.009521,0.008484,-0.991638,0.281924,0.478168,-0.192061,51,264,569,5456
1644159650.949701,-0.013,0.010742,-0.990784,0.449863,0.279695,-0.161527,52,275,579,5424
1644159650.998066,-0.008667,0.009766,-0.992371,0.388794,0.401832,-0.008855,48,276,583,5408
1644159651.059344,-0.011902,0.006714,-0.992126,0.35826,0.539237,-0.130992,55,283,585,5376
1644159651.094849,-0.013672,0.008301,-0.995728,0.205588,0.508702,-0.024122,55,259,578,5424
1644159651.143247,-0.011414,0.008667,-0.993469,0.08345,0.310229,-0.14626,52,280,568,5456
1644159651.191619,-0.011963,0.011658,-0.989624,0.144519,0.371298,-0.130992,49,277,584,5408
1644159651.24,-0.012024,0.011169,-0.994507,0.266656,0.523969,-0.054656,46,276,583,5408
1644159651.28838,-0.010742,0.009338,-0.993042,0.297191,0.371298,-0.115725,43,269,578,5408
1644159651.336766,-0.009155,0.00769,-0.991211,0.281924,0.386565,-0.14626,59,275,575,5456
1644159651.385245,-0.012634,0.006653,-0.99292,0.220855,0.401832,-0.222595,53,283,580,5376
1644159651.433551,-0.011169,0.010681,-0.99408,0.159786,0.539237,-0.069924,47,280,575,5360
1644159651.481939,-0.013672,0.010315,-0.98999,0.175053,0.432366,-0.130992,55,266,578,5424
1644159651.530541,-0.006897,0.01178,-0.992188,0.205588,0.356031,-0.161527,52,265,582,5424
1644159651.581103,-0.009094,0.009338,-0.992432,0.220855,0.478168,-0.130992,51,281,578,5456
1644159651.631261,-0.007935,0.007629,-0.993042,0.190321,0.356031,-0.054656,60,276,585,5408
1644159651.676384,-0.011658,0.00531,-0.992737,0.236122,0.386565,-0.161527,41,271,576,5424
1644159651.772427,-0.010193,0.005127,-0.993713,0.190321,0.356031,-0.069924,53,274,576,5456
1644159651.82065,-0.012146,0.011353,-0.991089,0.236122,0.493435,-0.192061,46,271,576,5408
1644159651.869061,-0.013062,0.011108,-0.989136,0.373527,0.462901,-0.14626,49,275,572,5376
1644159651.91749,-0.010864,0.00708,-0.992615,0.220855,0.508702,-0.161527,46,269,580,5408
1644159651.965879,-0.012024,0.00946,-0.991577,0.266656,0.478168,-0.008855,48,271,576,5456
1644159652.014265,-0.012695,0.009033,-0.992615,0.266656,0.233893,-0.069924,53,279,578,5456
1644159652.062818,-0.008606,0.009277,-0.991943,0.08345,0.462901,-0.100458,59,265,586,5424
1644159652.111082,-0.010925,0.007202,-0.992188,0.388794,0.279695,0.067481,55,274,580,5536
1644159652.159393,-0.011536,0.01062,-0.992737,0.266656,0.340763,-0.008855,51,271,571,5376
1644159652.207792,-0.010742,0.009644,-0.993286,0.022382,0.294962,-0.176794,55,271,580,5424
1644159652.256178,-0.010315,0.007019,-0.991882,0.205588,0.508702,-0.100458,49,265,582,5488
1644159652.304672,-0.011169,0.011963,-0.992188,0.312458,0.386565,-0.085191,59,282,582,5424
1644159652.352966,-0.008301,0.009094,-0.991516,0.419328,0.401832,-0.024122,55,283,580,5456
1644159652.401305,-0.010498,0.011597,-0.993042,0.129252,0.447634,-0.054656,49,265,577,5376
1644159652.449738,-0.01001,0.00708,-0.992737,0.190321,0.386565,-0.130992,48,271,583,5472
1644159652.498137,-0.01178,0.006409,-0.990906,0.236122,0.554504,-0.161527,45,273,582,5472
1644159652.546515,-0.007996,0.009888,-0.992798,0.266656,0.356031,-0.100458,46,271,578,5472
1644159652.594885,-0.010803,0.00769,-0.988953,0.342992,0.401832,-0.130992,58,276,583,5376
1644159652.643265,-0.012085,0.00946,-0.993835,0.113985,0.539237,-0.176794,48,274,571,5456
1644159652.691749,-0.011841,0.008667,-0.989746,0.419328,0.447634,-0.115725,62,283,573,5408
1644159652.742266,-0.011047,0.008972,-0.990662,0.236122,0.508702,-0.085191,51,274,573,5408
1644159652.792825,-0.011658,0.01001,-0.993103,0.159786,0.401832,-0.207328,62,269,580,5472
1644159652.837754,-0.010803,0.007263,-0.990845,0.129252,0.508702,-0.069924,60,269,578,5456
1644159652.933673,-0.009277,0.010376,-0.992554,0.175053,0.294962,-0.069924,52,270,575,5408
1644159652.982056,-0.011597,0.009399,-0.993103,0.266656,0.340763,-0.039389,53,276,578,5408
1644159653.030455,-0.010925,0.006531,-0.993469,0.144519,0.310229,-0.130992,41,281,583,5344
1644159653.078927,-0.008911,0.007202,-0.992859,0.220855,0.417099,-0.024122,54,280,586,5360
1644159653.127229,-0.010986,0.007263,-0.98999,0.144519,0.371298,-0.085191,47,270,572,5424
1644159653.175582,-0.013123,0.010254,-0.991882,0.236122,0.523969,0.036947,47,265,575,5408
1644159653.223993,-0.010864,0.007385,-0.993469,0.205588,0.264427,-0.008855,58,271,580,5408
1644159653.272361,-0.011536,0.006287,-0.994141,0.220855,0.401832,-0.283664,52,275,579,5424
1644159653.320741,-0.010742,0.007812,-0.991455,0.220855,0.493435,-0.069924,45,265,577,5456
1644159653.369133,-0.011597,0.005798,-0.992737,0.205588,0.447634,-0.024122,49,280,579,5424
1644159653.417518,-0.011353,0.010437,-0.996948,0.190321,0.417099,-0.161527,49,277,577,5424
1644159653.465914,-0.011047,0.009216,-0.990173,0.251389,0.447634,-0.222595,49,265,575,5344
1644159653.514302,-0.010315,0.009094,-0.993103,0.281924,0.462901,-0.069924,57,285,572,5408
1644159653.562713,-0.011902,0.007263,-0.994019,0.281924,0.401832,-0.14626,49,270,579,5472
1644159653.611078,-0.009888,0.008667,-0.99115,0.404061,0.432366,-0.054656,51,274,576,5456
1644159653.659727,-0.008728,0.010132,-0.991943,0.220855,0.310229,-0.192061,53,274,580,5424
1644159653.708513,-0.011475,0.006409,-0.994568,0.327725,0.401832,-0.100458,54,273,570,5424
1644159653.759527,-0.011475,0.009216,-0.993225,0.266656,0.294962,-0.039389,59,277,575,5360
1644159653.809143,-0.010498,0.009888,-0.993835,0.175053,0.386565,-0.100458,52,273,579,5424
1644159653.854224,-0.010376,0.008972,-0.99707,0.144519,0.386565,-0.039389,51,274,564,5472
1644159653.949849,-0.013306,0.009888,-0.990845,0.297191,0.478168,0.006412,55,279,580,5408
1644159653.99823,-0.010925,0.008362,-0.99231,0.266656,0.356031,-0.024122,46,276,578,5424
1644159654.055162,-0.008667,0.009338,-0.990967,0.373527,0.325496,-0.024122,45,280,570,5456
1644159654.095108,-0.011841,0.011047,-0.993713,0.297191,0.523969,-0.192061,45,270,589,5344
1644159654.143417,-0.010376,0.012085,-0.991028,0.205588,0.401832,-0.115725,43,269,571,5424
1644159654.191757,-0.01062,0.010681,-0.990417,0.251389,0.386565,-0.039389,64,265,579,5344
1644159654.240149,-0.010254,0.007507,-0.991272,0.281924,0.417099,-0.054656,51,274,585,5456
1644159654.288537,-0.007446,0.007385,-0.994324,0.220855,0.493435,-0.054656,54,268,582,5488
1644159654.336913,-0.009338,0.01062,-0.990173,0.007115,0.356031,-0.054656,51,271,571,5424
1644159654.385287,-0.010925,0.00946,-0.991333,0.312458,0.447634,-0.054656,52,273,570,5424
1644159654.433718,-0.013672,0.011597,-0.991516,0.342992,0.417099,0.006412,47,275,570,5424
1644159654.482198,-0.010193,0.009827,-0.991516,0.220855,0.493435,-0.283664,52,273,575,5456
1644159654.530492,-0.011292,0.008789,-0.995178,0.434595,0.356031,-0.115725,48,266,573,5424
1644159654.578875,-0.012512,0.008728,-0.994568,0.251389,0.447634,-0.085191,45,268,577,5424
1644159654.627256,-0.011292,0.009399,-0.993835,0.281924,0.478168,-0.192061,53,279,580,5376
1644159654.675652,-0.01239,0.008545,-0.99469,0.113985,0.539237,-0.14626,53,269,578,5456
1644159654.724246,-0.014038,0.007385,-0.994507,0.220855,0.432366,-0.085191,43,279,573,5408
1644159654.773073,-0.011292,0.009705,-0.994202,0.236122,0.432366,-0.222595,55,269,578,5424
1644159654.82361,-0.010864,0.009216,-0.994263,0.297191,0.462901,-0.039389,42,280,572,5360
1644159654.869332,-0.011047,0.009155,-0.990417,-0.008153,0.371298,-0.100458,51,274,578,5360
1644159654.919214,-0.011047,0.007019,-0.995178,0.205588,0.493435,-0.207328,48,274,576,5456
1644159655.014407,-0.011475,0.007019,-0.994019,0.297191,0.340763,-0.25313,58,281,578,5456
1644159655.062942,-0.011353,0.007996,-0.992004,0.419328,0.508702,-0.039389,55,276,580,5376
1644159655.111135,-0.009888,0.009644,-0.994507,0.373527,0.447634,-0.176794,52,275,572,5360
1644159655.159549,-0.008789,0.008911,-0.991577,0.312458,0.523969,-0.115725,54,268,577,5488
1644159655.207925,-0.010132,0.009277,-0.992004,0.312458,0.325496,-0.039389,52,268,579,5456
1644159655.256299,-0.009216,0.010742,-0.99176,0.35826,0.432366,-0.207328,54,260,579,5424
1644159655.304703,-0.014771,0.006531,-0.993103,0.266656,0.371298,-0.161527,47,277,582,5424
1644159655.353127,-0.014282,0.010193,-0.991272,0.205588,0.554504,-0.024122,46,274,583,5408
1644159655.40151,-0.00769,0.008911,-0.991333,0.388794,0.279695,-0.115725,43,269,583,5424
1644159655.449886,-0.01001,0.010803,-0.994629,0.190321,0.294962,-0.207328,49,273,568,5456
1644159655.498253,-0.010925,0.010986,-0.990723,0.144519,0.554504,-0.115725,46,262,571,5408
1644159655.546666,-0.011475,0.007751,-0.991089,0.129252,0.356031,-0.130992,46,276,583,5456
1644159655.595144,-0.01239,0.008484,-0.990784,0.236122,0.432366,-0.054656,49,282,584,5424
1644159655.643469,-0.012329,0.007507,-0.991089,0.342992,0.325496,-0.115725,52,268,577,5456
1644159655.691829,-0.010742,0.008057,-0.99353,0.220855,0.401832,-0.069924,46,276,578,5424
1644159655.740222,-0.012268,0.011475,-0.990784,0.327725,0.294962,-0.054656,52,275,577,5344
1644159655.789135,-0.009094,0.007141,-0.992126,0.220855,0.523969,-0.085191,45,263,577,5472
1644159655.83705,-0.010742,0.003967,-0.99231,0.251389,0.569771,-0.069924,46,271,583,5456
1644159655.885818,-0.012268,0.007385,-0.994141,0.190321,0.493435,-0.237863,48,276,573,5456
1644159655.936445,-0.011047,0.00769,-0.992188,0.266656,0.493435,-0.039389,43,271,576,5408
1644159655.986788,-0.01001,0.007935,-0.994263,0.266656,0.447634,-0.008855,53,271,580,5456
1644159656.031018,-0.011047,0.00647,-0.991943,0.373527,0.279695,0.006412,53,269,571,5424
1644159656.127321,-0.010071,0.010559,-0.990845,0.281924,0.432366,-0.161527,48,266,580,5456
1644159656.175711,-0.012268,0.006409,-0.993347,0.175053,0.356031,-0.130992,60,276,576,5456
1644159656.224082,-0.010742,0.007324,-0.99231,0.190321,0.340763,-0.008855,59,273,577,5456
1644159656.272504,-0.010437,0.009277,-0.994019,0.312458,0.294962,-0.008855,51,281,573,5456
1644159656.320884,-0.008484,0.008057,-0.994629,0.159786,0.462901,0.113282,45,270,575,5456
1644159656.369258,-0.011475,0.010315,-0.993958,0.312458,0.493435,-0.085191,43,266,573,5456
1644159656.417662,-0.011902,0.013,-0.99469,0.129252,0.554504,0.006412,52,273,577,5360
1644159656.466058,-0.01355,0.01123,-0.990784,0.190321,0.264427,-0.192061,43,276,578,5376
1644159656.514464,-0.013428,0.011902,-0.992554,0.220855,0.325496,-0.069924,54,273,584,5408
1644159656.562863,-0.010437,0.010559,-0.99408,0.220855,0.24916,-0.192061,52,277,579,5408
1644159656.611229,-0.00946,0.007263,-0.993225,0.190321,0.356031,-0.207328,51,271,578,5456
1644159656.659626,-0.012939,0.009216,-0.994324,0.373527,0.386565,-0.069924,60,281,583,5488
1644159656.707998,-0.011719,0.008545,-0.993591,0.129252,0.401832,-0.085191,57,273,584,5456
1644159656.756374,-0.011841,0.007996,-0.993713,0.297191,0.539237,-0.039389,41,274,583,5472
1644159656.804844,-0.013855,0.008972,-0.99054,0.297191,0.310229,0.067481,55,274,573,5408
1644159656.853216,-0.012146,0.00769,-0.994568,0.175053,0.401832,-0.085191,61,275,577,5408
1644159656.901599,-0.011108,0.008362,-0.991516,0.480397,0.508702,-0.237863,52,277,577,5408
1644159656.949987,-0.00885,0.01062,-0.992126,0.266656,0.462901,-0.130992,48,257,576,5456
1644159656.99839,-0.009338,0.007629,-0.993286,0.251389,0.432366,-0.100458,51,279,580,5472
1644159657.095219,-0.013,0.010132,-0.992065,0.220855,0.417099,-0.237863,57,273,584,5376
1644159657.143517,-0.01178,0.008423,-0.99469,0.144519,0.401832,-0.039389,39,274,580,5488
1644159657.191893,-0.012024,0.009277,-0.992737,0.159786,0.462901,-0.085191,57,277,572,5424
1644159657.240269,-0.010742,0.00885,-0.99353,0.022382,0.340763,-0.161527,54,275,582,5424
1644159657.288672,-0.009033,0.007874,-0.991028,0.236122,0.325496,-0.268397,55,279,576,5456
1644159657.337061,-0.011353,0.008362,-0.993652,0.251389,0.371298,-0.100458,49,277,572,5424
1644159657.385434,-0.010742,0.007263,-0.991516,0.068183,0.294962,-0.069924,58,281,569,5424
1644159657.433851,-0.009949,0.009094,-0.988281,0.342992,0.539237,-0.054656,58,266,576,5456
1644159657.48224,-0.009338,0.008911,-0.99408,0.35826,0.493435,-0.024122,52,275,575,5456
1644159657.53062,-0.009583,0.009338,-0.995728,0.251389,0.585038,-0.100458,51,274,583,5344
1644159657.579022,-0.010498,0.010193,-0.995667,0.388794,0.310229,-0.14626,57,275,575,5456
1644159657.62741,-0.01178,0.010315,-0.992676,0.251389,0.264427,-0.161527,52,268,575,5456
1644159657.675765,-0.01239,0.007324,-0.990601,0.220855,0.325496,-0.176794,54,275,572,5424
1644159657.724185,-0.012695,0.007935,-0.989624,0.144519,0.417099,0.006412,45,273,584,5360
1644159657.772592,-0.01001,0.008423,-0.991699,0.266656,0.294962,-0.283664,53,269,580,5424
1644159657.821,-0.01123,0.007935,-0.993958,0.236122,0.447634,-0.222595,52,265,582,5344
1644159657.86941,-0.008789,0.008423,-0.992432,0.022382,0.340763,-0.100458,47,280,582,5456
1644159657.917785,-0.010315,0.013306,-0.99176,0.190321,0.523969,-0.161527,57,280,572,5424
1644159657.966179,-0.012878,0.011169,-0.993103,0.327725,0.432366,-0.176794,49,270,577,5424
1644159658.015652,-0.010498,0.012085,-0.992676,0.159786,0.233893,-0.130992,51,269,569,5424
1644159658.078861,-0.012024,0.010742,-0.993225,0.297191,0.478168,-0.085191,52,275,591,5424
1644159658.112082,-0.010925,0.008728,-0.992004,0.266656,0.371298,-0.100458,41,274,573,5408
1644159658.208056,-0.010498,0.008972,-0.989685,0.113985,0.356031,-0.054656,46,279,578,5488
1644159658.256452,-0.012329,0.00769,-0.993347,0.373527,0.432366,0.006412,40,270,575,5456
1644159658.304862,-0.011536,0.010071,-0.988708,0.205588,0.356031,-0.207328,57,273,582,5456
1644159658.353253,-0.013977,0.00885,-0.994324,0.236122,0.462901,-0.192061,57,277,572,5408
1644159658.401627,-0.012146,0.007935,-0.994446,0.312458,0.325496,-0.100458,57,282,570,5472
1644159658.450025,-0.010864,0.008972,-0.995605,0.08345,0.432366,-0.222595,46,269,578,5456
1644159658.4984,-0.012146,0.006104,-0.994202,0.388794,0.386565,-0.222595,59,265,577,5360
1644159658.546797,-0.009766,0.0047,-0.989685,0.129252,0.371298,-0.115725,52,270,577,5408
1644159658.595186,-0.013367,0.009827,-0.993713,0.297191,0.447634,-0.207328,52,277,568,5424
1644159658.643585,-0.01062,0.00885,-0.99353,0.098718,0.478168,-0.054656,55,266,576,5424
1644159658.691966,-0.012756,0.006897,-0.993103,0.266656,0.523969,-0.161527,48,269,583,5408
1644159658.740329,-0.01123,0.01001,-0.995728,0.281924,0.325496,-0.222595,48,271,569,5456
1644159658.788751,-0.011353,0.007874,-0.992615,0.266656,0.310229,-0.207328,47,260,570,5376
1644159658.837177,-0.010498,0.00647,-0.993652,0.190321,0.554504,-0.115725,51,281,566,5360
1644159658.885576,-0.011902,0.006287,-0.992126,0.281924,0.432366,0.113282,40,280,577,5472
1644159658.933971,-0.008301,0.006897,-0.992615,0.297191,0.478168,-0.115725,45,285,575,5312
1644159658.982364,-0.009644,0.007141,-0.99292,0.327725,0.325496,-0.222595,58,266,583,5424
1644159659.031513,-0.008789,0.007324,-0.992676,0.236122,0.386565,-0.14626,54,282,572,5408
1644159659.085384,-0.011658,0.009521,-0.992859,0.251389,0.371298,-0.069924,57,268,589,5456
1644159659.129462,-0.013184,0.01062,-0.994202,0.297191,0.508702,0.036947,58,279,573,5424
1644159659.17858,-0.012634,0.00708,-0.991577,0.373527,0.493435,-0.298931,42,277,570,5456
1644159659.228537,-0.009949,0.01062,-0.99176,0.312458,0.401832,-0.054656,54,280,577,5456
1644159659.273695,-0.010437,0.010193,-0.990173,0.342992,0.523969,-0.069924,43,276,576,5360
1644159659.369411,-0.010559,0.007874,-0.992615,0.144519,0.325496,-0.069924,49,270,570,5488
1644159659.417797,-0.010498,0.008667,-0.992737,0.190321,0.432366,0.006412,54,282,577,5472
1644159659.466183,-0.011963,0.008057,-0.994751,0.190321,0.356031,-0.207328,52,270,593,5456
1644159659.51486,-0.014648,0.007935,-0.993042,0.052916,0.401832,-0.054656,52,268,577,5456
1644159659.562996,-0.013977,0.008972,-0.994873,0.251389,0.356031,-0.008855,52,273,579,5456
1644159659.611361,-0.00885,0.009033,-0.993042,0.251389,0.569771,-0.069924,55,274,587,5376
1644159659.65976,-0.009155,0.008301,-0.992737,0.129252,0.310229,-0.115725,53,279,573,5408
1644159659.708154,-0.011169,0.007324,-0.991211,0.266656,0.264427,0.006412,55,271,580,5488
1644159659.756545,-0.011169,0.008728,-0.994019,0.113985,0.401832,-0.100458,36,274,573,5424
1644159659.804929,-0.009216,0.008972,-0.992065,0.220855,0.401832,-0.207328,55,276,576,5424
1644159659.853389,-0.01001,0.006836,-0.992493,0.159786,0.325496,-0.054656,52,280,582,5488
1644159659.901756,-0.010864,0.009216,-0.990234,0.297191,0.340763,0.098015,47,273,577,5456
1644159659.950145,-0.013855,0.006409,-0.992554,0.205588,0.417099,-0.100458,45,277,572,5520
1644159659.998496,-0.008484,0.008057,-0.993225,0.373527,0.294962,0.006412,49,277,579,5344
1644159660.052384,-0.009827,0.008728,-0.990906,0.220855,0.478168,-0.176794,52,280,584,5456
1644159660.095315,-0.012024,0.00824,-0.99469,0.220855,0.401832,-0.008855,58,283,587,5344
1644159660.143657,-0.010071,0.006409,-0.994995,0.190321,0.478168,-0.069924,47,273,579,5408
1644159660.192045,-0.012085,0.010071,-0.993591,0.327725,0.371298,-0.161527,54,265,579,5472
1644159660.240441,-0.010742,0.007507,-0.992615,0.052916,0.401832,-0.069924,46,269,580,5456
1644159660.288869,-0.012268,0.007202,-0.995056,0.251389,0.462901,0.006412,54,263,586,5424
1644159660.339276,-0.012939,0.00769,-0.995422,0.266656,0.294962,-0.039389,53,274,578,5424
1644159660.389546,-0.013916,0.009277,-0.993286,0.419328,0.340763,0.113282,57,280,579,5424
1644159660.434477,-0.012756,0.00946,-0.994141,0.205588,0.386565,-0.085191,57,265,586,5424
1644159660.530768,-0.013,0.006653,-0.99292,0.327725,0.462901,-0.115725,54,270,579,5456
1644159660.579159,-0.007568,0.006836,-0.99408,0.220855,0.14229,-0.130992,55,274,569,5456
1644159660.627517,-0.01123,0.008545,-0.994385,0.236122,0.539237,-0.039389,46,274,571,5456
1644159660.675943,-0.015991,0.005432,-0.995117,0.08345,0.523969,-0.085191,52,273,575,5408
1644159660.724344,-0.008911,0.009216,-0.994324,0.068183,0.539237,-0.14626,48,279,573,5456
1644159660.772745,-0.013306,0.007996,-0.991638,0.068183,0.447634,-0.161527,47,277,577,5456
1644159660.821115,-0.010925,0.010193,-0.991577,0.281924,0.356031,-0.054656,65,264,578,5456
1644159660.869552,-0.011292,0.010925,-0.991455,0.220855,0.279695,0.052214,52,277,579,5456
1644159660.917938,-0.010254,0.010376,-0.992615,0.220855,0.325496,-0.008855,51,276,576,5456
1644159660.966323,-0.012695,0.009521,-0.992859,0.159786,0.325496,-0.115725,57,270,575,5456
1644159661.014746,-0.011353,0.008423,-0.992737,0.297191,0.371298,-0.161527,47,273,577,5376
1644159661.082769,-0.009399,0.007812,-0.993225,0.159786,0.493435,-0.237863,43,286,583,5360
1644159661.111458,-0.010376,0.011597,-0.991821,0.327725,0.325496,-0.069924,51,279,571,5456
1644159661.159835,-0.012878,0.007568,-0.994263,0.266656,0.432366,-0.085191,57,277,584,5472
1644159661.208219,-0.010559,0.008484,-0.99353,0.113985,0.218626,0.036947,43,266,573,5424
1644159661.256932,-0.007812,0.007263,-0.994629,0.281924,0.447634,-0.085191,49,280,570,5424
1644159661.305929,-0.010742,0.008911,-0.992737,0.190321,0.432366,-0.207328,55,274,576,5456
1644159661.356506,-0.01178,0.007385,-0.99408,0.281924,0.356031,-0.085191,55,281,573,5376
1644159661.406508,-0.010559,0.010742,-0.992432,0.113985,0.356031,-0.085191,48,266,578,5456
1644159661.498549,-0.01062,0.007874,-0.992981,0.175053,0.462901,-0.069924,53,269,578,5408
1644159661.546944,-0.011108,0.009644,-0.99353,0.342992,0.447634,-0.161527,53,266,573,5376
1644159661.595406,-0.01239,0.010193,-0.988892,0.281924,0.447634,-0.207328,45,275,582,5472
1644159661.643729,-0.012268,0.008728,-0.992065,0.312458,0.340763,-0.130992,48,271,573,5456
1644159661.692364,-0.010925,0.01001,-0.99176,0.129252,0.417099,-0.069924,52,270,579,5488
1644159661.740502,-0.010864,0.01001,-0.99408,0.251389,0.447634,-0.192061,47,268,579,5456
1644159661.788905,-0.013672,0.01001,-0.988708,0.129252,0.325496,0.052214,55,274,580,5424
1644159661.837286,-0.013306,0.008362,-0.99054,0.159786,0.340763,-0.039389,43,279,573,5488
1644159661.885685,-0.008484,0.008423,-0.991577,0.08345,0.310229,-0.222595,57,280,577,5408
1644159661.934112,-0.013,0.008057,-0.993408,0.373527,0.447634,-0.192061,43,271,585,5408
1644159661.982501,-0.012207,0.01001,-0.992798,0.098718,0.432366,-0.329466,52,275,577,5376
1644159662.030879,-0.014282,0.010315,-0.993042,0.129252,0.371298,-0.115725,53,276,578,5408
1644159662.081626,-0.010681,0.009888,-0.993042,0.449863,0.401832,-0.100458,55,281,576,5360
1644159662.127665,-0.01001,0.009766,-0.992371,0.251389,0.508702,-0.14626,49,275,582,5408
1644159662.176055,-0.013123,0.010925,-0.994934,0.342992,0.325496,0.006412,48,274,566,5408
1644159662.224447,-0.010559,0.009399,-0.992371,0.08345,0.279695,-0.085191,45,273,584,5456
1644159662.272812,-0.01123,0.007812,-0.992798,0.297191,0.401832,0.098015,39,281,573,5408
1644159662.321432,-0.010132,0.008362,-0.991516,0.175053,0.279695,-0.054656,48,274,578,5360
1644159662.369635,-0.011902,0.007568,-0.992737,0.159786,0.371298,-0.14626,42,275,579,5344
1644159662.419131,-0.010986,0.008057,-0.993286,0.297191,0.478168,-0.25313,46,264,580,5456
1644159662.469369,-0.010437,0.010193,-0.994446,0.342992,0.432366,-0.222595,53,279,583,5456
1644159662.51984,-0.010742,0.005981,-0.991455,0.342992,0.401832,-0.115725,51,283,583,5376
1644159662.564229,-0.012024,0.010254,-0.991577,0.251389,0.356031,-0.054656,52,275,575,5456
1644159662.65995,-0.011475,0.01178,-0.990845,0.342992,0.340763,-0.161527,57,277,586,5456
1644159662.708338,-0.011902,0.007568,-0.992554,0.281924,0.447634,-0.14626,59,273,575,5424
1644159662.756709,-0.011353,0.006042,-0.992493,0.190321,0.447634,-0.100458,54,280,591,5456
1644159662.805256,-0.013245,0.007385,-0.992859,0.159786,0.417099,0.006412,45,273,584,5408
1644159662.853515,-0.012451,0.008057,-0.992737,0.220855,0.310229,-0.054656,52,263,570,5472
1644159662.901907,-0.010864,0.007141,-0.995972,0.236122,0.386565,-0.085191,51,259,587,5344
1644159662.950289,-0.010132,0.011353,-0.990234,0.205588,0.462901,-0.100458,54,270,584,5456
1644159662.998648,-0.011353,0.006714,-0.993408,0.190321,0.432366,-0.008855,46,274,583,5536
1644159663.056468,-0.012146,0.008301,-0.993835,0.08345,0.432366,-0.100458,52,265,579,5424
1644159663.095441,-0.010437,0.009888,-0.99408,0.312458,0.508702,-0.100458,53,269,590,5424
1644159663.143785,-0.009644,0.009338,-0.991882,0.297191,0.585038,-0.039389,57,268,582,5456
1644159663.192235,-0.011902,0.00946,-0.992615,0.251389,0.417099,-0.115725,57,277,582,5408
1644159663.24059,-0.009033,0.009583,-0.99353,0.220855,0.493435,-0.176794,47,277,582,5424
1644159663.288983,-0.013184,0.00647,-0.993652,0.098718,0.386565,-0.039389,49,273,577,5424
1644159663.337374,-0.011169,0.007812,-0.995605,0.220855,0.447634,-0.085191,53,281,578,5456
1644159663.385756,-0.012207,0.006775,-0.990173,0.236122,0.447634,-0.115725,52,273,584,5456
1644159663.43414,-0.013,0.006897,-0.992432,0.236122,0.310229,-0.039389,55,262,576,5456
1644159663.482532,-0.011414,0.008911,-0.995117,0.129252,0.401832,-0.085191,46,271,578,5376
1644159663.530928,-0.012756,0.008911,-0.992798,0.312458,0.432366,-0.069924,54,273,593,5456
1644159663.580537,-0.01178,0.00885,-0.993103,0.113985,0.432366,-0.069924,51,281,569,5456
1644159663.630612,-0.010986,0.009583,-0.992004,0.205588,0.508702,-0.100458,54,265,582,5456
1644159663.68075,-0.012329,0.007629,-0.994141,0.144519,0.279695,-0.192061,54,273,582,5376
1644159663.726,-0.010681,0.010559,-0.991333,0.297191,0.447634,-0.054656,49,270,575,5472
1644159663.821295,-0.013245,0.00824,-0.991455,0.35826,0.478168,-0.024122,54,270,582,5456
1644159663.869683,-0.01123,0.010437,-0.991577,0.190321,0.554504,-0.069924,42,275,579,5456
1644159663.918072,-0.010803,0.009094,-0.991211,0.251389,0.478168,-0.039389,48,283,573,5456
1644159663.966453,-0.008789,0.008301,-0.992371,0.205588,0.401832,-0.024122,48,264,571,5376
1644159664.014838,-0.011169,0.011047,-0.995178,0.236122,0.386565,-0.130992,51,262,578,5408
1644159664.063471,-0.01001,0.010437,-0.991455,0.205588,0.508702,-0.115725,48,283,587,5344
1644159664.111598,-0.008118,0.008423,-0.99231,0.281924,0.447634,-0.085191,53,266,580,5424
1644159664.159992,-0.011353,0.008057,-0.991577,0.327725,0.401832,-0.130992,61,282,570,5456
1644159664.208377,-0.007629,0.01239,-0.993225,0.113985,0.478168,0.006412,49,270,577,5360
1644159664.25677,-0.011902,0.009216,-0.994385,0.266656,0.401832,-0.130992,41,279,573,5376
1644159664.305237,-0.011963,0.005615,-0.993408,0.404061,0.325496,-0.100458,59,282,584,5408
1644159664.353548,-0.009521,0.007874,-0.991333,0.113985,0.432366,-0.130992,55,283,580,5424
1644159664.401947,-0.009644,0.009094,-0.996033,0.220855,0.401832,-0.192061,49,275,584,5456
1644159664.450323,-0.011047,0.008179,-0.99353,0.510931,0.14229,-0.161527,54,280,579,5424
1644159664.498709,-0.010132,0.008972,-0.992065,0.327725,0.401832,-0.115725,46,281,578,5408
1644159664.547089,-0.015076,0.009155,-0.993652,0.35826,0.340763,-0.100458,47,282,577,5472
1644159664.595485,-0.009705,0.009399,-0.993164,0.113985,0.371298,0.036947,51,269,580,5424
1644159664.644194,-0.011169,0.008484,-0.990051,0.175053,0.508702,-0.161527,47,265,579,5376
1644159664.693564,-0.010986,0.008606,-0.99231,0.220855,0.432366,-0.130992,49,273,570,5456
1644159664.743803,-0.011963,0.009338,-0.990723,0.281924,0.371298,-0.115725,51,266,573,5408
1644159664.794084,-0.008606,0.00769,-0.992798,0.144519,0.310229,-0.115725,51,271,578,5360
1644159664.885856,-0.01178,0.008728,-0.991089,0.251389,0.401832,-0.192061,40,275,575,5456
1644159664.93426,-0.011414,0.009949,-0.990784,0.236122,0.478168,-0.14626,52,280,575,5424
1644159664.982639,-0.012817,0.010315,-0.992432,0.266656,0.493435,-0.054656,57,275,575,5424
1644159665.031015,-0.012756,0.01001,-0.992859,0.220855,0.539237,-0.024122,52,273,582,5424
1644159665.079503,-0.010132,0.00769,-0.992676,0.312458,0.386565,-0.14626,54,263,575,5408
1644159665.12777,-0.010071,0.009521,-0.993103,0.205588,0.432366,-0.314198,43,274,564,5360
1644159665.176169,-0.010925,0.011169,-0.993774,0.236122,0.493435,-0.207328,51,281,583,5456
1644159665.224669,-0.01178,0.005676,-0.989807,0.190321,0.478168,-0.115725,43,274,576,5408
1644159665.272954,-0.00946,0.00885,-0.991333,0.190321,0.462901,-0.115725,51,271,576,5408
1644159665.321336,-0.013855,0.009583,-0.990479,0.205588,0.417099,-0.115725,47,268,582,5376
1644159665.369722,-0.01239,0.009766,-0.99231,0.220855,0.417099,-0.069924,54,270,579,5424
1644159665.418112,-0.010803,0.008911,-0.994141,0.144519,0.432366,-0.085191,51,264,571,5424
1644159665.466489,-0.011658,0.006775,-0.993164,0.327725,0.417099,0.021679,54,275,589,5456
1644159665.514903,-0.010864,0.007202,-0.993164,0.266656,0.417099,-0.130992,46,283,571,5424
1644159665.563281,-0.010925,0.00824,-0.98999,0.220855,0.401832,-0.069924,41,271,585,5408
1644159665.611846,-0.008484,0.007874,-0.991089,0.419328,0.447634,-0.069924,59,280,570,5424
1644159665.662437,-0.006653,0.008301,-0.994568,0.251389,0.554504,-0.25313,47,265,570,5424
1644159665.71249,-0.009521,0.009827,-0.993652,0.052916,0.356031,-0.130992,54,268,582,5376
1644159665.757517,-0.010864,0.010498,-0.994629,0.129252,0.371298,-0.069924,53,269,580,5424
1644159665.853638,-0.009949,0.009033,-0.994019,0.297191,0.401832,-0.14626,47,265,575,5408
1644159665.902032,-0.010681,0.010437,-0.988281,0.175053,0.432366,-0.115725,52,280,577,5424
1644159665.950415,-0.010559,0.009399,-0.992004,0.205588,0.432366,-0.207328,53,276,573,5408
1644159665.998807,-0.010864,0.00885,-0.990417,0.129252,0.386565,-0.115725,51,269,585,5360
1644159666.055954,-0.010315,0.007263,-0.99469,0.281924,0.264427,0.052214,48,283,571,5456
1644159666.095596,-0.011475,0.008484,-0.992676,0.052916,0.340763,0.021679,51,281,583,5456
1644159666.143935,-0.010925,0.010132,-0.993103,0.312458,0.432366,-0.085191,54,273,575,5424
1644159666.192366,-0.01178,0.007385,-0.993835,0.220855,0.539237,-0.130992,48,262,571,5424
1644159666.24073,-0.013794,0.007751,-0.990845,0.144519,0.493435,-0.192061,49,273,575,5408
1644159666.289098,-0.013062,0.010132,-0.993164,0.236122,0.615573,-0.268397,49,270,586,5424
1644159666.337517,-0.009033,0.008667,-0.992859,0.327725,0.264427,-0.054656,49,277,577,5456
1644159666.385897,-0.01062,0.006165,-0.992126,0.35826,0.371298,-0.222595,49,270,572,5376
1644159666.434299,-0.013062,0.007996,-0.992676,0.327725,0.417099,-0.207328,36,281,576,5424
1644159666.482685,-0.012268,0.007935,-0.993347,0.419328,0.371298,-0.130992,46,269,578,5472
1644159666.531067,-0.010986,0.012268,-0.993835,0.312458,0.417099,-0.207328,43,266,573,5424
1644159666.579452,-0.011658,0.007935,-0.991455,0.022382,0.401832,-0.039389,51,279,576,5456
1644159666.627843,-0.011108,0.01062,-0.992615,0.175053,0.203359,-0.008855,60,279,580,5456
1644159666.676238,-0.011902,0.005371,-0.996399,0.175053,0.325496,0.006412,53,271,573,5376
1644159666.724991,-0.009766,0.010925,-0.993896,0.175053,0.371298,-0.237863,41,281,583,5424
1644159666.773741,-0.013672,0.006714,-0.991943,0.297191,0.432366,-0.069924,40,270,579,5408
1644159666.824228,-0.012146,0.009155,-0.996338,0.205588,0.432366,-0.008855,58,283,571,5424
1644159666.875669,-0.009644,0.00769,-0.994446,0.312458,0.447634,-0.222595,48,274,573,5344
1644159666.966608,-0.010498,0.009521,-0.993469,0.251389,0.371298,-0.085191,52,277,575,5456
1644159667.015288,-0.010803,0.007935,-0.992981,0.327725,0.371298,-0.069924,52,285,575,5360
1644159667.063514,-0.010986,0.009521,-0.991943,0.297191,0.294962,-0.085191,62,266,573,5424
1644159667.111796,-0.011658,0.007996,-0.992493,0.190321,0.447634,-0.207328,45,268,570,5424
1644159667.160108,-0.011108,0.008728,-0.993347,0.297191,0.508702,-0.039389,52,268,568,5344
1644159667.208518,-0.011963,0.007629,-0.992615,0.297191,0.523969,-0.069924,51,274,578,5424
1644159667.256908,-0.012024,0.011108,-0.993164,0.35826,0.294962,0.006412,61,275,575,5488
1644159667.305311,-0.01062,0.008057,-0.993103,0.190321,0.417099,-0.329466,49,273,575,5456
