epoch,acc_x,acc_y,acc_z,rot_x,rot_y,rot_z,mag_x,mag_y,mag_z,temp
1644165600.017395,-0.012085,0.010559,-0.989258,0.113985,0.310229,-0.268397,55,274,578,5584
1644165600.079609,-0.008057,0.010803,-0.99176,0.205588,0.294962,-0.237863,54,280,572,5536
1644165600.118165,-0.009399,0.010315,-0.99292,0.129252,0.462901,-0.130992,48,274,576,5584
1644165600.167284,-0.008423,0.009583,-0.992981,0.251389,0.447634,-0.161527,49,265,582,5648
1644165600.211879,-0.010681,0.010132,-0.992859,0.220855,0.417099,0.006412,57,280,577,5584
1644165600.307662,-0.010803,0.010315,-0.991333,0.266656,0.356031,-0.192061,48,279,578,5584
1644165600.356051,-0.011353,0.010132,-0.992126,0.251389,0.447634,-0.14626,42,270,575,5600
1644165600.404464,-0.010559,0.007935,-0.992004,0.175053,0.340763,-0.237863,49,277,577,5648
1644165600.452855,-0.012024,0.011414,-0.992798,0.220855,0.447634,0.036947,51,271,576,5600
1644165600.501236,-0.009949,0.010742,-0.990723,0.388794,0.310229,-0.268397,46,276,573,5600
1644165600.549619,-0.013367,0.007324,-0.991394,0.205588,0.539237,-0.14626,53,266,576,5648
1644165600.59802,-0.01062,0.009827,-0.993286,0.236122,0.386565,-0.207328,40,273,582,5584
1644165600.6464,-0.008545,0.011353,-0.992676,0.205588,0.279695,-0.237863,48,276,573,5552
1644165600.694813,-0.009277,0.008972,-0.99054,0.144519,0.386565,-0.130992,52,268,575,5584
1644165600.743202,-0.010681,0.009399,-0.994812,0.205588,0.371298,-0.100458,47,273,570,5600
1644165600.791558,-0.007446,0.006653,-0.992798,0.220855,0.356031,-0.115725,47,277,575,5648
1644165600.840024,-0.011536,0.010925,-0.989685,0.052916,0.417099,-0.039389,53,279,583,5584
1644165600.888406,-0.011292,0.008545,-0.989685,0.220855,0.401832,-0.115725,53,279,564,5648
1644165600.936771,-0.009216,0.009277,-0.994446,0.35826,0.371298,-0.14626,45,277,572,5600
1644165600.985216,-0.00946,0.009583,-0.991089,0.113985,0.356031,-0.161527,51,276,578,5536
1644165601.051439,-0.009705,0.007874,-0.990112,0.068183,0.401832,-0.176794,51,274,578,5648
1644165601.084711,-0.009399,0.010437,-0.992676,0.342992,0.386565,-0.283664,38,282,579,5632
1644165601.130381,-0.00531,0.009216,-0.990784,0.129252,0.310229,-0.192061,45,273,565,5648
1644165601.178695,-0.009338,0.008362,-0.991943,0.419328,0.294962,-0.176794,55,283,576,5600
1644165601.227401,-0.011414,0.009155,-0.994446,0.373527,0.462901,-0.039389,47,282,579,5600
1644165601.278033,-0.010803,0.008484,-0.99408,0.129252,0.447634,-0.130992,52,268,577,5600
1644165601.328162,-0.013062,0.013367,-0.991699,0.236122,0.417099,-0.192061,51,269,566,5584
1644165601.373049,-0.010315,0.009827,-0.991516,0.205588,0.279695,-0.130992,57,270,568,5632
1644165601.469026,-0.006287,0.012817,-0.991821,0.159786,0.340763,-0.100458,55,271,573,5584
1644165601.517415,-0.011108,0.009338,-0.991699,0.297191,0.386565,-0.14626,41,281,559,5584
1644165601.565795,-0.009094,0.009827,-0.989624,0.220855,0.462901,-0.115725,45,263,565,5600
1644165601.614219,-0.010986,0.008789,-0.990356,0.251389,0.447634,-0.085191,53,274,573,5600
1644165601.662613,-0.010437,0.010254,-0.991821,0.35826,0.462901,-0.085191,55,274,576,5536
1644165601.711826,-0.012634,0.01001,-0.990662,0.281924,0.340763,-0.085191,54,268,572,5552
1644165601.759368,-0.006653,0.01001,-0.99408,0.190321,0.493435,-0.115725,52,280,575,5600
1644165601.80778,-0.011841,0.009583,-0.990173,0.312458,0.554504,-0.024122,53,274,573,5584
1644165601.856217,-0.007568,0.007935,-0.992798,0.098718,0.447634,-0.069924,53,266,587,5584
1644165601.904727,-0.010742,0.009033,-0.990967,0.312458,0.325496,-0.039389,42,273,577,5600
1644165601.953002,-0.009216,0.009216,-0.991272,0.266656,0.371298,-0.161527,54,265,579,5600
1644165602.00137,-0.006897,0.011353,-0.991943,0.327725,0.264427,-0.115725,49,273,579,5584
1644165602.052048,-0.006714,0.00885,-0.992188,0.312458,0.340763,-0.100458,47,273,579,5552
1644165602.098121,-0.012268,0.011597,-0.991638,0.205588,0.447634,-0.222595,52,277,577,5648
1644165602.146512,-0.007629,0.012756,-0.989868,0.098718,0.508702,-0.130992,46,279,590,5584
1644165602.194885,-0.009521,0.008972,-0.990234,0.297191,0.340763,-0.008855,55,279,573,5600
1644165602.243286,-0.009644,0.011658,-0.991089,0.205588,0.417099,-0.100458,48,276,569,5632
1644165602.291674,-0.009949,0.009644,-0.992798,0.175053,0.417099,-0.115725,53,269,587,5632
1644165602.340069,-0.010742,0.008484,-0.988953,0.251389,0.401832,-0.268397,49,268,575,5632
1644165602.388476,-0.00592,0.011719,-0.989502,0.251389,0.554504,-0.161527,46,269,585,5648
1644165602.438699,-0.01239,0.008484,-0.99231,0.144519,0.462901,-0.069924,41,271,578,5536
1644165602.489328,-0.010559,0.009094,-0.994141,0.205588,0.401832,-0.039389,42,273,568,5536
1644165602.534131,-0.005859,0.012329,-0.989746,0.144519,0.417099,0.036947,49,270,582,5632
1644165602.630418,-0.00946,0.010742,-0.98938,0.35826,0.462901,-0.039389,57,273,577,5520
1644165602.678782,-0.010681,0.008789,-0.991699,0.068183,0.325496,-0.054656,42,273,582,5584
1644165602.727174,-0.007568,0.008972,-0.993164,0.175053,0.386565,-0.14626,47,275,572,5648
1644165602.775571,-0.008606,0.010071,-0.989197,0.297191,0.539237,-0.069924,61,275,577,5600
1644165602.823972,-0.008667,0.007874,-0.991516,0.08345,0.264427,-0.039389,45,268,577,5536
1644165602.872418,-0.008545,0.008545,-0.992615,0.129252,0.417099,-0.192061,47,270,575,5632
1644165602.920784,-0.011536,0.011475,-0.992126,0.08345,0.539237,-0.130992,49,268,582,5536
1644165602.969152,-0.009949,0.01062,-0.993286,0.236122,0.493435,-0.14626,49,275,575,5648
1644165603.017548,-0.01062,0.012817,-0.9953,-0.008153,0.203359,-0.115725,46,274,580,5648
1644165603.072295,-0.010315,0.010925,-0.991577,0.129252,0.462901,-0.054656,53,269,590,5600
1644165603.114379,-0.009094,0.008545,-0.991577,0.190321,0.417099,-0.024122,53,274,583,5600
1644165603.162722,-0.009766,0.010559,-0.993896,0.175053,0.401832,-0.085191,53,266,580,5648
1644165603.211102,-0.011963,0.009705,-0.990601,0.129252,0.325496,-0.100458,52,265,579,5600
1644165603.259464,-0.011108,0.009827,-0.991272,0.113985,0.462901,-0.054656,55,279,576,5584
1644165603.307882,-0.013,0.009949,-0.989685,0.220855,0.417099,-0.192061,58,276,590,5584
1644165603.356315,-0.007324,0.006897,-0.989868,0.08345,0.401832,-0.024122,51,271,576,5632
1644165603.405995,-0.009949,0.007202,-0.994385,0.190321,0.523969,-0.008855,46,271,578,5584
1644165603.456356,-0.008118,0.008423,-0.991943,0.251389,0.493435,0.036947,49,275,579,5600
1644165603.506523,-0.009644,0.008301,-0.994385,0.236122,0.462901,-0.115725,48,266,576,5648
1644165603.598215,-0.009033,0.010193,-0.992981,0.159786,0.447634,-0.176794,57,270,575,5584
1644165603.646591,-0.011353,0.011902,-0.990723,0.297191,0.401832,-0.161527,36,274,580,5552
1644165603.69524,-0.01001,0.008118,-0.992065,0.175053,0.447634,-0.192061,41,271,576,5600
1644165603.743399,-0.010803,0.011597,-0.989685,0.007115,0.417099,-0.024122,48,276,576,5584
1644165603.791778,-0.011414,0.009949,-0.991455,0.251389,0.340763,-0.085191,53,283,578,5584
1644165603.840183,-0.01123,0.010559,-0.993225,0.159786,0.539237,-0.14626,40,273,579,5648
1644165603.888579,-0.00885,0.010071,-0.991516,0.220855,0.340763,-0.192061,40,280,572,5552
1644165603.936987,-0.011719,0.010132,-0.990479,0.159786,0.462901,-0.130992,55,269,585,5648
1644165603.985351,-0.010803,0.008667,-0.993408,0.190321,0.478168,-0.176794,41,271,578,5584
1644165604.052976,-0.00946,0.008728,-0.992615,0.113985,0.615573,-0.298931,54,270,579,5552
1644165604.08233,-0.009766,0.007263,-0.991455,0.220855,0.371298,-0.237863,43,269,587,5584
1644165604.130573,-0.011108,0.009094,-0.991638,0.251389,0.401832,-0.100458,49,275,582,5584
1644165604.178946,-0.010559,0.010986,-0.990173,0.175053,0.493435,-0.085191,55,269,576,5648
1644165604.227332,-0.007629,0.007629,-0.992554,0.281924,0.493435,-0.069924,43,271,571,5536
1644165604.275722,-0.009338,0.010437,-0.992737,0.480397,0.447634,0.021679,35,275,584,5584
1644165604.32411,-0.011169,0.01239,-0.990479,0.35826,0.447634,-0.024122,41,279,573,5584
1644165604.37266,-0.010986,0.009583,-0.992188,0.220855,0.508702,-0.115725,52,273,577,5600
1644165604.420901,-0.01178,0.010315,-0.992249,0.159786,0.447634,0.021679,51,279,576,5648
1644165604.470383,-0.010254,0.009644,-0.991455,0.312458,0.279695,-0.207328,51,271,578,5600
1644165604.520592,-0.009644,0.009521,-0.991089,0.220855,0.371298,-0.176794,49,277,584,5584
1644165604.570799,-0.00946,0.00769,-0.990662,0.236122,0.447634,-0.222595,48,276,583,5472
1644165604.615456,-0.010986,0.009094,-0.993103,0.220855,0.417099,0.052214,53,264,578,5584
1644165604.711204,-0.008667,0.008972,-0.996277,0.297191,0.432366,-0.130992,59,287,570,5600
1644165604.759619,-0.009216,0.01001,-0.993347,0.190321,0.325496,-0.069924,51,271,576,5648
1644165604.808009,-0.011414,0.008484,-0.992737,-0.084489,0.386565,-0.176794,46,266,576,5600
1644165604.856402,-0.010254,0.012085,-0.993469,0.205588,0.294962,-0.222595,57,275,572,5584
1644165604.904796,-0.007629,0.012451,-0.991455,0.113985,0.401832,-0.069924,48,274,578,5648
1644165604.953173,-0.012085,0.013245,-0.989624,0.159786,0.462901,-0.085191,55,262,583,5648
1644165605.001543,-0.009338,0.009583,-0.992126,0.297191,0.447634,-0.176794,49,275,575,5600
1644165605.053003,-0.011536,0.009766,-0.993103,0.35826,0.432366,-0.008855,39,276,580,5600
1644165605.098341,-0.007996,0.012451,-0.991699,0.251389,0.493435,-0.14626,54,277,570,5600
1644165605.14672,-0.012085,0.012695,-0.990295,0.312458,0.417099,-0.085191,59,270,563,5584
1644165605.19521,-0.008179,0.011658,-0.99353,0.251389,0.462901,-0.054656,40,270,577,5648
1644165605.243488,-0.007996,0.00885,-0.991211,0.236122,0.523969,-0.207328,51,274,573,5648
1644165605.291891,-0.011169,0.014221,-0.990784,0.297191,0.310229,-0.024122,49,268,575,5584
1644165605.340235,-0.007751,0.010681,-0.989136,0.281924,0.447634,-0.069924,55,279,576,5600
1644165605.388646,-0.009094,0.009888,-0.99231,0.190321,0.401832,-0.024122,51,271,580,5600
1644165605.437039,-0.012146,0.010742,-0.990723,0.266656,0.371298,-0.024122,57,270,584,5536
1644165605.48544,-0.010559,0.007141,-0.991516,0.373527,0.478168,-0.039389,49,273,575,5632
1644165605.533822,-0.008362,0.008301,-0.988403,0.144519,0.188092,0.052214,45,275,577,5584
1644165605.582699,-0.01001,0.008728,-0.990417,0.251389,0.432366,-0.085191,47,280,579,5584
1644165605.631125,-0.006714,0.007141,-0.989502,0.281924,0.356031,-0.222595,49,285,577,5584
1644165605.681781,-0.010986,0.011536,-0.993286,0.312458,0.539237,-0.085191,51,276,578,5536
1644165605.731949,-0.00824,0.008362,-0.994995,0.419328,0.386565,-0.069924,54,273,572,5552
1644165605.777699,-0.00946,0.009705,-0.994385,0.236122,0.371298,-0.054656,55,274,578,5552
1644165605.872615,-0.010071,0.010376,-0.99054,0.159786,0.447634,-0.130992,51,269,571,5584
1644165605.920975,-0.008545,0.010864,-0.992371,0.297191,0.401832,-0.192061,51,274,569,5600
1644165605.969355,-0.012146,0.009827,-0.991699,0.08345,0.371298,-0.130992,49,273,575,5664
1644165606.017761,-0.009644,0.009277,-0.990479,0.220855,0.340763,-0.039389,49,270,565,5600
1644165606.066198,-0.008728,0.009338,-0.991028,0.373527,0.310229,-0.024122,46,288,583,5536
1644165606.11451,-0.013123,0.011475,-0.991028,0.312458,0.233893,-0.115725,43,269,578,5584
1644165606.16293,-0.007446,0.009949,-0.989136,0.312458,0.417099,-0.054656,52,270,582,5648
1644165606.211298,-0.006653,0.011719,-0.990417,0.175053,0.325496,-0.161527,47,275,570,5584
1644165606.25969,-0.010986,0.009521,-0.991882,0.220855,0.417099,-0.115725,53,269,576,5584
1644165606.308071,-0.010254,0.00885,-0.990234,0.281924,0.417099,-0.207328,51,279,578,5600
1644165606.356469,-0.012207,0.010315,-0.991272,0.312458,0.264427,-0.161527,47,275,577,5632
1644165606.404862,-0.00531,0.008728,-0.991943,0.312458,0.325496,-0.115725,46,271,573,5584
1644165606.453253,-0.009277,0.010132,-0.992065,0.205588,0.401832,-0.222595,55,279,583,5584
1644165606.501636,-0.010193,0.008911,-0.99054,0.251389,0.417099,-0.283664,51,271,583,5600
1644165606.550001,-0.00946,0.012268,-0.991272,0.205588,0.340763,-0.024122,54,275,577,5584
1644165606.598383,-0.009033,0.008545,-0.992737,0.159786,0.310229,-0.008855,47,265,586,5552
1644165606.646806,-0.009216,0.011719,-0.992126,0.220855,0.203359,-0.085191,46,269,573,5584
1644165606.695195,-0.009705,0.009216,-0.99292,0.159786,0.325496,-0.130992,51,279,585,5600
1644165606.743618,-0.010376,0.009521,-0.993408,0.266656,0.447634,-0.14626,43,269,576,5536
1644165606.794402,-0.011108,0.01123,-0.989624,0.190321,0.401832,-0.085191,54,275,575,5664
1644165606.84442,-0.012573,0.010986,-0.992249,0.205588,0.233893,-0.024122,45,273,582,5584
1644165606.888958,-0.006592,0.007812,-0.993774,0.205588,0.371298,-0.024122,53,264,566,5600
1644165606.985599,-0.007996,0.011658,-0.991211,0.129252,0.386565,-0.115725,48,269,576,5664
1644165607.050536,-0.009888,0.009888,-0.991211,0.342992,0.386565,-0.008855,49,275,577,5648
1644165607.084667,-0.010254,0.00824,-0.990479,0.251389,0.371298,-0.130992,46,266,578,5600
1644165607.130705,-0.011658,0.010254,-0.991577,0.281924,0.447634,-0.130992,45,273,568,5648
1644165607.179092,-0.006836,0.010376,-0.99054,0.312458,0.432366,-0.161527,39,276,578,5536
1644165607.22745,-0.009155,0.011658,-0.991699,0.220855,0.462901,-0.115725,52,268,582,5552
1644165607.275885,-0.011108,0.010742,-0.992432,0.281924,0.523969,-0.14626,41,266,573,5552
1644165607.324265,-0.009949,0.011719,-0.992126,0.373527,0.356031,-0.054656,51,279,576,5600
1644165607.372669,-0.010681,0.011353,-0.990356,0.205588,0.447634,-0.069924,46,269,583,5584
1644165607.421046,-0.011108,0.010071,-0.99408,0.175053,0.417099,-0.14626,57,277,584,5552
1644165607.469454,-0.009521,0.009399,-0.991516,0.220855,0.401832,-0.298931,54,260,575,5584
1644165607.517857,-0.01001,0.008972,-0.993958,0.251389,0.356031,-0.130992,55,269,578,5552
1644165607.567541,-0.012451,0.011047,-0.989624,0.159786,0.417099,-0.100458,41,264,583,5584
1644165607.61782,-0.012512,0.01178,-0.992371,0.35826,0.554504,0.021679,51,281,576,5584
1644165607.668214,-0.009583,0.010864,-0.992065,0.236122,0.264427,-0.054656,48,274,571,5600
1644165607.759792,-0.009583,0.009216,-0.993591,0.342992,0.462901,-0.039389,47,265,579,5600
1644165607.808136,-0.014526,0.009888,-0.991577,0.312458,0.325496,-0.14626,57,268,579,5600
1644165607.856559,-0.009766,0.009033,-0.991211,0.220855,0.264427,-0.100458,52,273,572,5584
1644165607.905025,-0.013428,0.010986,-0.989563,0.281924,0.417099,-0.085191,66,268,572,5536
1644165607.953388,-0.009521,0.011292,-0.99176,0.113985,0.432366,-0.054656,62,279,578,5648
1644165608.001753,-0.008667,0.011353,-0.992554,0.251389,0.523969,-0.008855,52,277,570,5584
1644165608.052699,-0.006958,0.009705,-0.991699,0.266656,0.462901,-0.085191,52,270,577,5584
1644165608.098575,-0.012329,0.007812,-0.990295,0.220855,0.493435,-0.222595,42,275,591,5632
1644165608.146902,-0.010925,0.008362,-0.989807,0.236122,0.508702,-0.14626,46,271,564,5664
1644165608.195298,-0.00769,0.01001,-0.993286,0.312458,0.386565,-0.298931,64,270,577,5584
1644165608.243675,-0.008911,0.008301,-0.990845,0.220855,0.386565,-0.115725,52,282,565,5648
1644165608.292077,-0.008301,0.00946,-0.993469,0.190321,0.478168,-0.024122,53,264,576,5600
1644165608.340449,-0.00946,0.008545,-0.991638,0.144519,0.417099,0.052214,49,273,575,5664
1644165608.388849,-0.009644,0.009521,-0.990234,0.159786,0.386565,-0.130992,48,283,569,5600
1644165608.437249,-0.010437,0.010681,-0.991699,0.205588,0.401832,-0.024122,47,268,572,5584
1644165608.4856,-0.009888,0.012207,-0.992004,0.129252,0.386565,-0.161527,54,275,572,5600
1644165608.534023,-0.012024,0.011108,-0.992554,0.281924,0.264427,-0.069924,51,271,576,5584
1644165608.582453,-0.010254,0.011475,-0.992126,0.205588,0.401832,-0.14626,61,268,575,5632
1644165608.632873,-0.011536,0.010254,-0.991394,0.35826,0.386565,0.006412,48,274,578,5600
1644165608.683314,-0.009277,0.010803,-0.990967,0.190321,0.417099,-0.085191,42,277,575,5600
1644165608.728406,-0.009705,0.009338,-0.992126,0.052916,0.340763,-0.100458,53,271,576,5648
1644165608.824391,-0.01001,0.008423,-0.990662,0.297191,0.493435,-0.039389,48,274,578,5584
1644165608.872815,-0.009338,0.009521,-0.98822,0.175053,0.310229,-0.115725,48,271,578,5584
1644165608.921179,-0.013611,0.008301,-0.992981,0.281924,0.493435,0.021679,51,274,576,5584
1644165608.969571,-0.009277,0.00824,-0.990234,0.205588,0.478168,-0.039389,48,266,573,5552
1644165609.017957,-0.008728,0.008179,-0.991272,0.266656,0.294962,-0.268397,46,274,578,5664
1644165609.067227,-0.009705,0.009827,-0.992126,0.342992,0.371298,-0.14626,55,269,580,5600
1644165609.115014,-0.012817,0.01001,-0.990112,0.190321,0.539237,-0.100458,47,270,575,5536
1644165609.16311,-0.010254,0.009705,-0.989746,0.251389,0.371298,-0.237863,53,274,585,5552
1644165609.211492,-0.008423,0.011902,-0.99176,0.205588,0.493435,-0.176794,43,269,578,5584
1644165609.259855,-0.010864,0.011719,-0.992798,0.281924,0.356031,-0.054656,53,276,573,5648
1644165609.308271,-0.007141,0.009277,-0.993286,0.236122,0.340763,-0.130992,51,276,578,5648
1644165609.356657,-0.011597,0.008179,-0.990295,0.35826,0.462901,-0.054656,55,276,583,5632
1644165609.405166,-0.009644,0.00946,-0.989014,0.098718,0.340763,-0.100458,52,287,577,5552
1644165609.453456,-0.01178,0.008484,-0.990967,0.159786,0.523969,-0.100458,52,268,579,5648
1644165609.501834,-0.010132,0.008423,-0.990295,0.113985,0.462901,-0.176794,54,268,570,5584
1644165609.550215,-0.010315,0.01001,-0.991211,0.175053,0.386565,-0.024122,59,270,586,5600
1644165609.598604,-0.012695,0.008911,-0.993103,-0.02342,0.325496,-0.100458,46,279,569,5584
1644165609.646986,-0.009705,0.008606,-0.987122,0.220855,0.325496,-0.130992,46,266,576,5584
1644165609.695707,-0.010986,0.010498,-0.987305,0.281924,0.478168,-0.207328,39,274,580,5584
1644165609.743932,-0.007935,0.008667,-0.990173,0.220855,0.294962,-0.207328,55,269,578,5664
1644165609.794459,-0.009094,0.009399,-0.990295,0.175053,0.462901,-0.085191,48,276,580,5600
1644165609.845562,-0.010986,0.007141,-0.991089,0.251389,0.417099,0.143817,57,270,593,5600
1644165609.890166,-0.011108,0.011169,-0.99231,0.251389,0.264427,-0.008855,47,282,575,5664
1644165609.985753,-0.00647,0.012146,-0.991577,0.175053,0.371298,-0.161527,51,276,578,5648
1644165610.048575,-0.008789,0.00946,-0.990662,0.220855,0.386565,-0.176794,51,274,573,5552
1644165610.085199,-0.011047,0.011353,-0.991577,0.281924,0.325496,0.067481,55,271,578,5696
1644165610.130944,-0.010742,0.009583,-0.991882,0.419328,0.371298,-0.176794,43,283,580,5648
1644165610.179309,-0.012146,0.00885,-0.989929,0.190321,0.462901,-0.14626,52,270,572,5600
1644165610.227673,-0.011719,0.009949,-0.990173,0.266656,0.279695,-0.161527,46,279,566,5584
1644165610.276064,-0.012329,0.009277,-0.992554,0.220855,0.417099,-0.085191,47,275,582,5664
1644165610.324477,-0.009766,0.011169,-0.990479,0.098718,0.417099,-0.115725,51,269,583,5600
1644165610.372854,-0.011963,0.009705,-0.991516,0.190321,0.310229,-0.008855,52,263,575,5536
1644165610.42124,-0.009705,0.009338,-0.99054,0.251389,0.310229,-0.054656,52,268,575,5648
1644165610.469635,-0.008911,0.010803,-0.991272,0.175053,0.539237,-0.192061,59,277,577,5584
1644165610.51802,-0.009766,0.008789,-0.993469,0.220855,0.340763,-0.130992,49,275,570,5536
1644165610.566566,-0.010132,0.011719,-0.99054,0.159786,0.371298,-0.100458,57,269,566,5648
1644165610.615529,-0.009949,0.009094,-0.992493,0.327725,0.661374,-0.054656,51,279,578,5648
1644165610.666164,-0.010193,0.010315,-0.990906,0.190321,0.462901,-0.085191,42,275,570,5600
1644165610.716317,-0.010559,0.009521,-0.99054,0.205588,0.264427,0.006412,48,271,583,5552
1644165610.761214,-0.007751,0.011108,-0.991516,0.144519,0.401832,-0.161527,43,276,583,5648
1644165610.856734,-0.011169,0.008911,-0.99292,0.342992,0.371298,-0.024122,53,281,573,5584
1644165610.905424,-0.011658,0.01001,-0.991577,0.312458,0.417099,-0.14626,58,264,566,5664
1644165610.953575,-0.007263,0.009888,-0.993164,0.266656,0.371298,-0.192061,54,268,577,5600
1644165611.001967,-0.011047,0.009644,-0.989258,0.113985,0.401832,-0.054656,47,270,570,5552
1644165611.050605,-0.011047,0.009155,-0.993164,0.281924,0.325496,-0.14626,57,277,584,5584
1644165611.098671,-0.013306,0.010681,-0.990479,0.251389,0.554504,-0.207328,49,285,584,5664
1644165611.147094,-0.008789,0.007935,-0.99231,0.205588,0.508702,-0.176794,54,275,568,5600
1644165611.19545,-0.010681,0.01001,-0.989502,0.175053,0.279695,-0.207328,48,281,569,5584
1644165611.243873,-0.008606,0.008911,-0.992249,0.327725,0.325496,-0.069924,49,273,577,5552
1644165611.292265,-0.010925,0.010925,-0.98999,0.342992,0.264427,-0.054656,43,279,578,5648
1644165611.340659,-0.007507,0.011841,-0.990967,0.068183,0.417099,-0.024122,57,275,577,5632
1644165611.389057,-0.010742,0.008301,-0.99054,0.190321,0.417099,0.082748,53,269,583,5584
1644165611.437444,-0.010864,0.008728,-0.991699,0.297191,0.462901,-0.14626,45,270,565,5584
1644165611.485829,-0.007324,0.009094,-0.991821,0.205588,0.325496,0.006412,41,281,571,5600
1644165611.534226,-0.009155,0.010925,-0.990112,0.281924,0.340763,-0.192061,49,275,570,5584
1644165611.582629,-0.009583,0.01239,-0.99231,0.159786,0.356031,-0.024122,51,274,580,5648
1644165611.630974,-0.011902,0.010254,-0.990417,0.236122,0.294962,-0.069924,39,271,580,5696
1644165611.679382,-0.010559,0.011475,-0.993958,0.251389,0.401832,0.067481,51,276,576,5584
1644165611.727743,-0.009644,0.008118,-0.992371,0.312458,0.340763,-0.069924,51,271,580,5648
1644165611.776667,-0.010803,0.010803,-0.991638,0.281924,0.478168,-0.054656,65,266,573,5664
1644165611.827419,-0.01178,0.008972,-0.991211,0.144519,0.462901,-0.100458,52,282,577,5600
1644165611.877788,-0.009705,0.008789,-0.990417,0.220855,0.401832,-0.298931,42,275,575,5600
1644165611.969759,-0.010254,0.009155,-0.99054,0.419328,0.478168,-0.085191,49,275,586,5552
1644165612.018158,-0.009766,0.009888,-0.993591,0.129252,0.417099,-0.085191,54,273,579,5600
1644165612.066655,-0.010254,0.008728,-0.993347,0.312458,0.554504,-0.039389,48,269,578,5600
1644165612.114906,-0.013428,0.010193,-0.992493,0.236122,0.340763,-0.207328,51,271,573,5552
1644165612.163288,-0.008545,0.010132,-0.98999,0.236122,0.371298,-0.130992,47,277,589,5648
1644165612.211688,-0.012207,0.010803,-0.99176,0.297191,0.172824,-0.039389,45,273,570,5584
1644165612.260044,-0.012024,0.007141,-0.99054,0.159786,0.478168,-0.085191,55,269,571,5552
1644165612.308469,-0.013672,0.008423,-0.992188,0.129252,0.417099,-0.039389,43,276,573,5600
1644165612.356857,-0.012146,0.007751,-0.991455,0.220855,0.523969,-0.008855,54,270,586,5632
1644165612.405305,-0.00946,0.008301,-0.99231,0.251389,0.447634,0.006412,40,273,579,5600
1644165612.45365,-0.009827,0.009949,-0.991028,0.159786,0.600305,-0.161527,43,274,583,5584
1644165612.502042,-0.010925,0.011719,-0.989868,0.175053,0.401832,-0.085191,47,280,584,5536
1644165612.550416,-0.010681,0.01123,-0.98822,0.205588,0.325496,-0.115725,59,280,584,5584
1644165612.598822,-0.012695,0.006653,-0.991821,0.281924,0.417099,-0.085191,49,280,579,5584
1644165612.647188,-0.01239,0.009644,-0.990662,0.113985,0.371298,-0.207328,57,273,570,5600
1644165612.69558,-0.011414,0.010803,-0.990967,0.404061,0.233893,-0.054656,46,279,573,5600
1644165612.743976,-0.011597,0.011902,-0.989868,0.098718,0.432366,-0.085191,54,260,579,5552
1644165612.792433,-0.010071,0.010193,-0.99231,0.236122,0.432366,-0.161527,54,273,577,5648
1644165612.841135,-0.010803,0.00946,-0.987976,0.312458,0.264427,-0.054656,54,268,563,5600
1644165612.891469,-0.006836,0.011414,-0.993347,0.175053,0.310229,-0.14626,57,275,577,5696
1644165612.942049,-0.009705,0.00946,-0.990967,0.159786,0.264427,-0.008855,43,269,573,5536
1644165613.05055,-0.01239,0.008606,-0.988586,0.327725,0.264427,-0.024122,45,277,577,5584
1644165613.08514,-0.010437,0.01062,-0.991577,0.175053,0.417099,-0.14626,55,276,580,5600
1644165613.131084,-0.011658,0.009888,-0.993164,0.190321,0.371298,-0.085191,51,271,578,5600
1644165613.17946,-0.010559,0.006958,-0.990479,0.052916,0.493435,-0.069924,52,280,575,5600
1644165613.227875,-0.008362,0.009521,-0.989014,0.373527,0.325496,-0.069924,55,262,578,5648
1644165613.276238,-0.012573,0.009338,-0.992432,0.113985,0.462901,-0.069924,52,280,575,5552
1644165613.324665,-0.011292,0.008728,-0.992065,0.022382,0.432366,0.098015,41,274,576,5584
1644165613.373058,-0.009033,0.008118,-0.990173,0.312458,0.401832,-0.14626,61,270,579,5664
1644165613.421442,-0.012634,0.009827,-0.991516,0.159786,0.417099,-0.130992,53,271,576,5584
1644165613.46983,-0.010071,0.008728,-0.992249,0.297191,0.218626,-0.130992,47,270,579,5632
1644165613.518923,-0.006653,0.009888,-0.989441,0.175053,0.279695,-0.085191,43,271,571,5600
1644165613.567442,-0.010864,0.009094,-0.991516,0.266656,0.310229,-0.085191,54,265,575,5584
1644165613.618209,-0.01001,0.011169,-0.992859,0.159786,0.233893,-0.237863,49,270,572,5584
1644165613.668052,-0.009277,0.010376,-0.991943,0.205588,0.432366,-0.130992,49,277,575,5584
1644165613.760156,-0.012451,0.012207,-0.98822,0.236122,0.432366,-0.192061,54,275,570,5648
1644165613.808538,-0.009155,0.008362,-0.992126,0.220855,0.356031,-0.14626,46,274,576,5536
1644165613.856993,-0.013123,0.008057,-0.991089,-0.008153,0.478168,-0.14626,54,260,568,5584
1644165613.905387,-0.007935,0.012573,-0.991394,0.251389,0.462901,-0.237863,55,279,578,5632
1644165613.953777,-0.007812,0.009888,-0.989868,0.266656,0.462901,-0.069924,55,271,573,5584
1644165614.002217,-0.011475,0.011719,-0.992737,0.327725,0.371298,-0.100458,47,277,577,5552
1644165614.053462,-0.01062,0.010986,-0.989441,0.205588,0.432366,-0.054656,52,275,579,5584
1644165614.098958,-0.011597,0.009583,-0.991821,0.220855,0.401832,-0.054656,53,279,576,5552
1644165614.147267,-0.010864,0.009094,-0.993591,0.144519,0.340763,-0.100458,48,283,571,5664
1644165614.195682,-0.011475,0.010742,-0.990967,0.297191,0.325496,0.082748,41,271,578,5584
1644165614.244078,-0.007935,0.009521,-0.992493,0.08345,0.417099,0.067481,47,277,586,5552
1644165614.292446,-0.009827,0.009705,-0.991455,0.251389,0.447634,-0.039389,52,273,572,5600
1644165614.340855,-0.010437,0.009705,-0.99054,0.236122,0.478168,-0.192061,49,270,570,5600
1644165614.389247,-0.009216,0.008484,-0.991882,0.342992,0.447634,0.036947,51,281,583,5664
1644165614.437631,-0.007629,0.008362,-0.991394,0.281924,0.523969,-0.176794,49,273,572,5584
1644165614.486028,-0.009827,0.011719,-0.990906,0.190321,0.447634,-0.161527,41,276,580,5648
1644165614.534421,-0.01239,0.00885,-0.993958,0.236122,0.371298,-0.115725,51,276,587,5648
1644165614.582819,-0.010742,0.010315,-0.992859,0.129252,0.218626,0.052214,57,275,572,5536
1644165614.631198,-0.008972,0.010803,-0.992432,0.113985,0.386565,-0.130992,49,270,579,5600
1644165614.679764,-0.008606,0.00885,-0.993347,0.342992,0.539237,-0.054656,57,273,577,5696
1644165614.73002,-0.008667,0.011353,-0.99115,0.266656,0.508702,-0.054656,59,275,579,5584
1644165614.780335,-0.008301,0.011597,-0.991943,0.342992,0.508702,-0.100458,53,274,580,5648
1644165614.826016,-0.008545,0.009399,-0.994263,0.312458,0.585038,-0.085191,45,273,572,5632
1644165614.921589,-0.010925,0.010437,-0.992493,0.144519,0.478168,-0.039389,57,280,572,5584
1644165614.969962,-0.011536,0.009827,-0.994202,0.373527,0.478168,0.006412,46,271,573,5552
1644165615.018358,-0.006714,0.012024,-0.993774,0.281924,0.386565,-0.054656,51,271,566,5584
1644165615.06929,-0.010254,0.008484,-0.990906,0.113985,0.386565,-0.176794,48,259,580,5584
1644165615.115175,-0.011963,0.012329,-0.99054,0.159786,0.356031,-0.024122,42,275,570,5600
1644165615.163491,-0.006958,0.011169,-0.991943,0.159786,0.386565,-0.008855,36,281,585,5552
1644165615.211852,-0.011475,0.009583,-0.992798,0.220855,0.24916,-0.039389,41,269,580,5600
1644165615.260243,-0.010315,0.011902,-0.990906,0.129252,0.401832,-0.039389,45,280,572,5648
1644165615.308854,-0.011475,0.009155,-0.993286,0.312458,0.417099,-0.085191,45,275,577,5600
1644165615.357042,-0.009827,0.008545,-0.993286,0.175053,0.356031,-0.100458,53,269,573,5712
1644165615.405427,-0.010498,0.007629,-0.992981,0.175053,0.325496,-0.14626,60,274,564,5552
1644165615.453834,-0.008667,0.006897,-0.992615,0.251389,0.462901,0.067481,46,274,578,5600
1644165615.502248,-0.010742,0.010254,-0.991455,0.312458,0.432366,-0.024122,47,280,572,5648
1644165615.550602,-0.010437,0.009766,-0.994812,0.251389,0.417099,-0.161527,51,279,576,5648
1644165615.598996,-0.008911,0.009521,-0.989563,0.281924,0.310229,-0.100458,40,275,582,5600
1644165615.647385,-0.007874,0.011169,-0.992432,0.175053,0.264427,-0.024122,47,273,577,5584
1644165615.695782,-0.009705,0.009766,-0.993103,0.220855,0.401832,-0.024122,48,274,580,5600
1644165615.744173,-0.011536,0.01001,-0.992004,0.281924,0.462901,-0.085191,53,276,585,5584
1644165615.792612,-0.011841,0.010864,-0.995117,0.190321,0.417099,-0.14626,61,273,565,5584
1644165615.842875,-0.011169,0.008911,-0.993347,0.129252,0.401832,-0.039389,54,275,563,5552
1644165615.89305,-0.010864,0.00885,-0.989624,0.266656,0.356031,-0.130992,52,279,569,5600
1644165615.943279,-0.009338,0.007202,-0.990173,0.297191,0.325496,-0.085191,46,279,562,5584
1644165616.050914,-0.011902,0.010132,-0.99231,0.266656,0.569771,-0.14626,47,275,582,5648
1644165616.086342,-0.010315,0.008667,-0.991394,0.205588,0.356031,-0.14626,46,269,576,5584
1644165616.131328,-0.010071,0.010132,-0.992126,0.281924,0.264427,-0.069924,36,271,566,5600
1644165616.179673,-0.01062,0.009338,-0.989441,0.266656,0.310229,-0.14626,53,276,569,5600
1644165616.22808,-0.008057,0.010742,-0.992188,0.190321,0.14229,-0.161527,52,285,582,5632
1644165616.276464,-0.010498,0.009094,-0.991089,0.144519,0.340763,-0.008855,43,274,576,5584
1644165616.32484,-0.008423,0.010986,-0.989258,0.098718,0.462901,-0.085191,45,273,579,5600
1644165616.373253,-0.008423,0.012146,-0.990234,0.175053,0.478168,-0.161527,52,292,582,5648
1644165616.421646,-0.010803,0.008972,-0.992432,0.190321,0.432366,-0.176794,48,274,573,5600
1644165616.470022,-0.009399,0.008545,-0.99292,0.190321,0.447634,-0.14626,55,271,592,5552
1644165616.518442,-0.010925,0.008484,-0.991455,0.113985,0.493435,-0.207328,46,276,585,5584
1644165616.56781,-0.008484,0.007568,-0.989746,0.129252,0.371298,-0.069924,49,277,584,5648
1644165616.618266,-0.01062,0.010864,-0.990051,0.327725,0.310229,-0.069924,46,269,576,5600
1644165616.66845,-0.011292,0.010376,-0.989624,0.220855,0.432366,-0.024122,47,273,572,5600
1644165616.760379,-0.007568,0.012024,-0.989075,0.297191,0.356031,-0.039389,52,265,575,5600
1644165616.808738,-0.008911,0.011719,-0.991089,0.129252,0.432366,-0.161527,47,275,577,5648
1644165616.857125,-0.007996,0.012451,-0.991089,0.098718,0.294962,-0.024122,48,274,580,5600
1644165616.905564,-0.010254,0.008057,-0.991516,0.342992,0.356031,-0.283664,54,270,575,5584
1644165616.953976,-0.009827,0.010986,-0.992065,0.175053,0.356031,-0.176794,52,277,577,5632
1644165617.002343,-0.006653,0.011475,-0.991516,0.342992,0.386565,-0.100458,52,277,572,5600
1644165617.053799,-0.00769,0.008606,-0.990662,0.175053,0.264427,-0.207328,52,277,579,5584
1644165617.099062,-0.012634,0.011169,-0.989258,0.266656,0.493435,-0.115725,52,282,584,5584
1644165617.147482,-0.010132,0.009705,-0.992859,0.144519,0.432366,-0.130992,49,273,582,5648
1644165617.195878,-0.010498,0.010925,-0.990662,0.175053,0.523969,-0.192061,49,268,572,5552
1644165617.244279,-0.007385,0.012756,-0.991577,0.205588,0.310229,-0.039389,53,276,578,5632
1644165617.292665,-0.009583,0.012512,-0.989624,0.220855,0.310229,-0.161527,47,275,579,5552
1644165617.341056,-0.011902,0.014038,-0.990356,0.08345,0.417099,0.006412,48,276,580,5600
1644165617.389442,-0.009216,0.010254,-0.991516,0.297191,0.462901,-0.069924,51,274,578,5648
1644165617.437802,-0.006897,0.01123,-0.993774,0.113985,0.539237,-0.085191,47,275,579,5552
1644165617.486223,-0.008484,0.008545,-0.990356,0.251389,0.356031,-0.054656,54,265,586,5536
1644165617.534659,-0.008118,0.010254,-0.990417,0.388794,0.508702,-0.100458,54,275,582,5600
1644165617.583016,-0.009155,0.008789,-0.992554,0.266656,0.462901,-0.115725,54,273,586,5584
1644165617.631404,-0.010437,0.009705,-0.990173,0.251389,0.371298,-0.192061,48,269,585,5584
1644165617.679817,-0.009583,0.01123,-0.991699,0.175053,0.447634,-0.100458,55,271,583,5648
1644165617.730438,-0.010376,0.009949,-0.992493,0.175053,0.417099,-0.085191,40,282,586,5600
1644165617.78129,-0.008667,0.013672,-0.992554,0.297191,0.432366,-0.085191,53,274,585,5584
1644165617.825866,-0.008789,0.010986,-0.990906,0.266656,0.340763,-0.14626,42,275,579,5632
1644165617.92177,-0.00885,0.010681,-0.988098,0.404061,0.356031,-0.14626,57,282,563,5600
1644165617.970158,-0.011169,0.010376,-0.991882,0.159786,0.447634,-0.176794,51,279,571,5648
1644165618.018534,-0.010559,0.010437,-0.990051,0.098718,0.310229,-0.176794,59,282,575,5584
1644165618.066962,-0.006042,0.010193,-0.992676,0.159786,0.24916,-0.192061,57,275,584,5600
1644165618.115294,-0.007202,0.011047,-0.989197,0.220855,0.447634,-0.14626,45,273,570,5552
1644165618.163684,-0.009277,0.010559,-0.991821,0.266656,0.462901,-0.100458,46,281,585,5584
1644165618.212079,-0.007935,0.011292,-0.990601,0.190321,0.462901,-0.115725,46,271,583,5552
1644165618.260441,-0.009644,0.009644,-0.991333,0.175053,0.386565,-0.085191,46,281,573,5600
1644165618.308844,-0.01062,0.011292,-0.991943,0.175053,0.447634,0.006412,46,276,580,5584
1644165618.357223,-0.010803,0.009949,-0.991394,0.266656,0.340763,-0.008855,42,275,570,5648
1644165618.405636,-0.009644,0.011108,-0.991089,0.220855,0.462901,-0.054656,41,279,576,5584
1644165618.454044,-0.009766,0.006897,-0.990845,0.205588,0.493435,-0.054656,52,282,577,5584
1644165618.502428,-0.008118,0.011841,-0.990051,0.266656,0.279695,-0.085191,48,281,571,5600
1644165618.550798,-0.009155,0.012207,-0.991333,0.220855,0.417099,-0.100458,49,273,575,5584
1644165618.59919,-0.011292,0.011841,-0.99176,0.068183,0.447634,-0.085191,51,262,576,5664
1644165618.64759,-0.009949,0.009338,-0.992676,0.159786,0.462901,0.006412,54,268,570,5584
1644165618.695974,-0.01001,0.011169,-0.991028,0.266656,0.508702,-0.069924,46,266,571,5632
1644165618.744368,-0.006348,0.011047,-0.989441,0.312458,0.386565,-0.069924,45,273,579,5600
1644165618.792809,-0.011292,0.008789,-0.991211,0.205588,0.325496,-0.069924,59,275,582,5584
1644165618.842664,-0.009521,0.012512,-0.989258,0.113985,0.432366,-0.115725,48,271,585,5584
1644165618.893503,-0.012146,0.010986,-0.99231,0.159786,0.356031,-0.100458,58,271,583,5584
1644165618.94327,-0.012268,0.008667,-0.99115,0.205588,0.371298,-0.161527,48,279,590,5536
1644165619.04652,-0.009766,0.012695,-0.989014,0.266656,0.462901,-0.039389,53,283,578,5648
1644165619.087206,-0.011963,0.011292,-0.98938,0.251389,0.417099,-0.237863,54,275,579,5552
1644165619.131485,-0.009216,0.009338,-0.992493,0.220855,0.493435,-0.115725,45,277,582,5584
1644165619.179879,-0.010803,0.009399,-0.991699,0.236122,0.508702,-0.161527,41,271,587,5600
1644165619.228271,-0.011169,0.010254,-0.990723,0.205588,0.386565,-0.25313,51,276,576,5584
1644165619.27666,-0.012329,0.007751,-0.991028,0.220855,0.493435,-0.176794,45,277,575,5584
1644165619.325184,-0.00885,0.008362,-0.992188,0.175053,0.371298,-0.222595,40,270,579,5632
1644165619.373442,-0.00946,0.008667,-0.99115,0.388794,0.447634,-0.024122,51,276,576,5584
1644165619.421837,-0.011169,0.008301,-0.989319,0.281924,0.462901,-0.100458,51,281,576,5584
1644165619.470216,-0.009827,0.00885,-0.993103,0.068183,0.386565,-0.207328,55,283,566,5584
1644165619.51857,-0.009338,0.009705,-0.991211,0.281924,0.417099,-0.085191,57,277,579,5648
1644165619.567004,-0.010254,0.010986,-0.992981,0.297191,0.508702,-0.024122,52,277,586,5664
1644165619.61535,-0.010864,0.010498,-0.98822,0.205588,0.401832,-0.192061,48,281,569,5584
1644165619.664133,-0.012939,0.008789,-0.990417,0.220855,0.294962,-0.161527,58,271,573,5552
1644165619.714681,-0.008789,0.011719,-0.989746,0.281924,0.401832,-0.069924,51,266,566,5648
1644165619.765032,-0.01062,0.009827,-0.992676,0.220855,0.340763,-0.085191,47,280,572,5632
1644165619.810259,-0.011475,0.009705,-0.991943,0.175053,0.447634,-0.100458,54,275,577,5584
1644165619.905762,-0.008484,0.011353,-0.990295,0.098718,0.279695,-0.115725,47,277,575,5648
1644165619.954172,-0.009094,0.009949,-0.991394,0.312458,0.493435,0.006412,60,276,573,5600
1644165620.002553,-0.008606,0.008362,-0.991821,0.266656,0.340763,-0.024122,49,275,568,5584
1644165620.053433,-0.01062,0.012024,-0.993469,0.236122,0.371298,-0.024122,55,276,578,5632
1644165620.099316,-0.013062,0.008484,-0.992126,0.190321,0.371298,-0.192061,49,270,579,5632
1644165620.147675,-0.010254,0.010376,-0.987732,0.113985,0.401832,-0.069924,60,269,578,5584
1644165620.196072,-0.007385,0.01123,-0.98999,0.297191,0.371298,-0.024122,64,273,568,5632
1644165620.24445,-0.008179,0.012329,-0.993835,0.220855,0.356031,-0.161527,53,281,583,5600
1644165620.29287,-0.007446,0.010132,-0.990784,0.251389,0.523969,-0.130992,46,271,578,5600
1644165620.341251,-0.009216,0.009705,-0.990051,0.205588,0.432366,0.067481,48,269,576,5552
1644165620.38961,-0.010986,0.011475,-0.991943,0.35826,0.539237,-0.314198,45,282,584,5536
1644165620.438015,-0.007385,0.012451,-0.990723,0.144519,0.432366,-0.161527,48,279,576,5584
1644165620.486403,-0.010132,0.009644,-0.990601,0.144519,0.432366,0.006412,51,279,573,5584
1644165620.53481,-0.010315,0.010986,-0.990601,0.297191,0.340763,-0.207328,52,280,584,5536
1644165620.583209,-0.009399,0.009399,-0.99176,0.159786,0.493435,-0.085191,49,263,584,5648
1644165620.631563,-0.011047,0.009216,-0.991089,0.144519,0.401832,-0.130992,53,271,583,5600
1644165620.679978,-0.010498,0.010437,-0.99176,0.159786,0.401832,-0.085191,59,280,582,5600
1644165620.728369,-0.011475,0.010498,-0.991577,0.220855,0.432366,-0.192061,47,268,579,5536
1644165620.776761,-0.01123,0.010193,-0.993958,0.144519,0.523969,-0.069924,60,269,587,5600
1644165620.826316,-0.009094,0.007996,-0.99176,0.190321,0.478168,-0.024122,52,277,575,5584
1644165620.877084,-0.00824,0.009338,-0.990417,0.266656,0.493435,-0.085191,53,271,580,5648
1644165620.927542,-0.010925,0.008545,-0.989929,0.129252,0.569771,-0.100458,53,271,585,5600
1644165620.97156,-0.010193,0.00885,-0.990356,0.236122,0.462901,-0.176794,45,273,570,5584
1644165621.067254,-0.007874,0.010193,-0.991272,0.236122,0.432366,-0.329466,51,274,580,5648
1644165621.115513,-0.009033,0.013062,-0.993164,0.08345,0.493435,-0.14626,53,279,573,5632
1644165621.163899,-0.011414,0.009949,-0.993103,0.159786,0.340763,-0.176794,52,287,572,5552
1644165621.212373,-0.011658,0.010681,-0.98938,0.297191,0.294962,-0.207328,43,271,576,5600
1644165621.260645,-0.009155,0.008728,-0.991577,0.35826,0.386565,0.052214,52,275,577,5552
1644165621.309039,-0.00769,0.010315,-0.990234,0.08345,0.417099,-0.085191,39,269,571,5648
1644165621.357445,-0.009521,0.009949,-0.989502,0.08345,0.371298,-0.14626,55,271,580,5584
1644165621.405819,-0.011047,0.007751,-0.990356,0.098718,0.447634,-0.100458,36,271,578,5536
1644165621.454224,-0.00885,0.007812,-0.990906,0.236122,0.356031,-0.054656,54,268,579,5584
1644165621.502592,-0.010193,0.012024,-0.990845,0.251389,0.523969,-0.130992,43,276,576,5584
1644165621.551004,-0.011414,0.010986,-0.990845,0.266656,0.508702,-0.039389,47,277,572,5584
1644165621.599389,-0.01062,0.011658,-0.991638,0.236122,0.478168,-0.176794,52,273,577,5648
1644165621.647775,-0.011292,0.01178,-0.988708,0.175053,0.447634,-0.085191,54,268,582,5648
1644165621.696189,-0.005676,0.009583,-0.991028,0.190321,0.371298,-0.222595,51,262,573,5648
1644165621.744605,-0.010193,0.009827,-0.993042,0.098718,0.554504,-0.069924,43,281,585,5584
1644165621.79297,-0.008423,0.013245,-0.990295,0.159786,0.508702,-0.14626,52,270,591,5632
1644165621.841357,-0.012756,0.010742,-0.989746,0.35826,0.356031,-0.115725,58,271,583,5552
1644165621.889784,-0.009521,0.011108,-0.991943,0.312458,0.478168,0.006412,61,268,582,5600
1644165621.938174,-0.009521,0.011292,-0.994019,0.205588,0.493435,-0.054656,60,274,578,5600
1644165621.987612,-0.011292,0.009399,-0.993652,0.312458,0.356031,-0.161527,46,283,571,5584
1644165622.056991,-0.012207,0.008179,-0.992249,0.113985,0.294962,-0.14626,51,276,587,5584
1644165622.095698,-0.009399,0.010315,-0.990601,0.342992,0.462901,-0.115725,47,268,579,5584
1644165622.132807,-0.010193,0.009338,-0.992554,0.144519,0.356031,-0.039389,54,282,577,5648
1644165622.228443,-0.010254,0.010437,-0.994202,0.113985,0.447634,-0.192061,43,274,578,5536
1644165622.276844,-0.010803,0.00885,-0.98938,0.342992,0.493435,-0.130992,58,279,580,5632
1644165622.325412,-0.008362,0.009827,-0.991699,0.205588,0.585038,-0.024122,54,265,577,5584
1644165622.373632,-0.010986,0.008301,-0.989319,0.266656,0.279695,-0.008855,52,277,575,5584
1644165622.422015,-0.011414,0.011169,-0.993164,0.35826,0.417099,-0.069924,51,274,578,5584
1644165622.470417,-0.007507,0.011169,-0.990723,0.129252,0.401832,-0.130992,46,271,580,5648
1644165622.518797,-0.00946,0.009521,-0.992126,0.373527,0.233893,-0.237863,52,277,565,5632
1644165622.567195,-0.011963,0.013123,-0.992981,0.037649,0.356031,-0.176794,49,275,582,5536
1644165622.615578,-0.010437,0.011719,-0.993652,0.266656,0.539237,-0.008855,52,275,572,5584
1644165622.663986,-0.009888,0.008606,-0.990967,0.236122,0.264427,-0.008855,51,276,583,5520
1644165622.71238,-0.011475,0.010437,-0.991455,0.312458,0.340763,-0.130992,51,262,583,5600
1644165622.760736,-0.007935,0.011047,-0.991394,0.266656,0.417099,-0.161527,57,270,577,5552
1644165622.809146,-0.011963,0.010925,-0.992126,0.159786,0.310229,-0.14626,48,274,585,5536
1644165622.857577,-0.00769,0.010986,-0.989929,0.190321,0.508702,-0.192061,51,266,585,5584
1644165622.905959,-0.007507,0.010437,-0.990417,0.327725,0.325496,-0.14626,40,282,577,5600
1644165622.954326,-0.009094,0.011047,-0.990723,0.190321,0.401832,-0.130992,47,275,575,5552
1644165623.002733,-0.006653,0.012573,-0.987732,0.388794,0.508702,-0.115725,58,276,583,5584
1644165623.072438,-0.012207,0.009583,-0.990479,0.266656,0.371298,-0.008855,54,273,586,5536
1644165623.147945,-0.010742,0.011658,-0.991394,0.266656,0.508702,-0.024122,45,265,570,5600
1644165623.196254,-0.00531,0.009033,-0.991638,0.327725,0.417099,-0.161527,53,271,580,5536
1644165623.244849,-0.009155,0.008728,-0.99353,0.220855,0.325496,0.006412,54,275,579,5600
1644165623.293064,-0.010864,0.008545,-0.989868,0.236122,0.401832,-0.115725,59,280,575,5648
1644165623.341438,-0.010193,0.01062,-0.994385,0.159786,0.386565,-0.344733,53,279,580,5632
1644165623.389822,-0.008057,0.010559,-0.991943,0.251389,0.493435,-0.069924,48,264,573,5584
1644165623.438214,-0.011414,0.012085,-0.994873,0.052916,0.447634,-0.130992,39,274,562,5536
1644165623.486613,-0.011963,0.010376,-0.988037,0.281924,0.294962,-0.039389,55,274,573,5584
1644165623.53504,-0.010071,0.008972,-0.98999,0.098718,0.340763,-0.115725,54,273,565,5632
1644165623.583402,-0.008362,0.012817,-0.993591,0.297191,0.325496,-0.100458,49,268,577,5648
1644165623.631777,-0.01123,0.009705,-0.992676,0.251389,0.386565,-0.100458,55,281,571,5648
1644165623.680146,-0.008118,0.00824,-0.992676,0.08345,0.462901,0.082748,51,279,576,5584
1644165623.729112,-0.008972,0.01062,-0.99115,0.251389,0.386565,-0.085191,59,277,570,5584
1644165623.776956,-0.008606,0.007202,-0.993591,0.281924,0.523969,-0.130992,48,269,573,5664
1644165623.82534,-0.009521,0.007568,-0.99115,0.281924,0.401832,-0.008855,47,273,577,5600
1644165623.873778,-0.011963,0.010437,-0.99054,0.266656,0.325496,-0.085191,46,279,576,5632
1644165623.922175,-0.005981,0.011047,-0.989197,0.327725,0.294962,-0.054656,53,276,578,5584
1644165623.970606,-0.008972,0.011292,-0.991943,0.129252,0.523969,-0.024122,47,282,579,5600
1644165624.018935,-0.009949,0.008179,-0.992554,0.251389,0.325496,-0.161527,46,262,585,5600
1644165624.070352,-0.012085,0.009705,-0.991272,0.205588,0.417099,-0.176794,53,274,583,5600
1644165624.118915,-0.009583,0.010803,-0.991089,0.404061,0.371298,-0.130992,47,282,572,5600
1644165624.168589,-0.005432,0.007812,-0.991455,0.205588,0.371298,-0.25313,54,270,577,5584
1644165624.213554,-0.009644,0.01062,-0.98999,0.037649,0.432366,-0.054656,52,268,570,5632
1644165624.309238,-0.011536,0.007446,-0.993042,0.144519,0.417099,-0.024122,47,268,565,5584
1644165624.357608,-0.012451,0.008118,-0.99231,0.220855,0.462901,0.006412,51,276,569,5600
1644165624.406003,-0.008789,0.007874,-0.989075,0.266656,0.279695,0.052214,47,273,572,5584
1644165624.454396,-0.01001,0.009888,-0.992432,0.251389,0.493435,-0.085191,39,274,580,5584
1644165624.502815,-0.008667,0.009277,-0.991943,0.327725,0.523969,-0.161527,43,274,573,5600
1644165624.551189,-0.010803,0.01355,-0.992004,0.35826,0.462901,-0.222595,52,268,579,5552
1644165624.599592,-0.009338,0.009949,-0.98999,0.205588,0.417099,-0.192061,57,270,582,5552
1644165624.647958,-0.008118,0.010498,-0.992859,0.297191,0.478168,-0.008855,58,274,569,5648
1644165624.696374,-0.011108,0.010071,-0.992737,0.175053,0.493435,-0.085191,45,277,572,5632
1644165624.744757,-0.007141,0.009277,-0.990662,0.144519,0.462901,-0.222595,58,276,576,5488
1644165624.793213,-0.009277,0.010132,-0.993713,0.159786,0.401832,-0.115725,39,283,580,5600
1644165624.841574,-0.01001,0.009888,-0.992126,0.129252,0.310229,-0.161527,51,281,564,5648
1644165624.889966,-0.010437,0.01062,-0.989319,0.205588,0.401832,-0.008855,59,275,570,5536
1644165624.938351,-0.01123,0.008179,-0.991272,0.312458,0.539237,-0.176794,51,269,571,5600
1644165624.986753,-0.012634,0.01178,-0.993347,0.175053,0.417099,-0.115725,59,273,575,5600
1644165625.05057,-0.011047,0.010864,-0.993225,0.175053,0.462901,-0.237863,53,266,585,5648
1644165625.087701,-0.00885,0.007996,-0.992432,0.159786,0.386565,-0.115725,52,275,577,5648
1644165625.13188,-0.010437,0.007874,-0.992798,0.297191,0.432366,-0.069924,53,269,578,5584
1644165625.180282,-0.011963,0.007202,-0.991272,0.251389,0.310229,-0.100458,45,277,575,5648
1644165625.228957,-0.008545,0.010132,-0.990234,0.220855,0.386565,-0.14626,52,268,572,5584
1644165625.279554,-0.00769,0.010254,-0.991333,0.144519,0.417099,-0.222595,53,274,576,5600
1644165625.329644,-0.011047,0.009949,-0.988708,0.175053,0.401832,-0.14626,49,277,579,5600
1644165625.374695,-0.010437,0.012451,-0.993042,0.236122,0.447634,-0.100458,48,271,571,5600
1644165625.470604,-0.010864,0.008606,-0.990112,0.236122,0.386565,-0.192061,49,275,577,5600
1644165625.518997,-0.007996,0.007385,-0.990845,0.281924,0.294962,0.082748,53,269,571,5600
1644165625.567383,-0.007385,0.008545,-0.993103,0.266656,0.447634,0.036947,47,273,575,5648
1644165625.615772,-0.007446,0.010559,-0.991638,0.236122,0.188092,-0.237863,48,276,566,5552
1644165625.664178,-0.009766,0.011353,-0.988342,0.08345,0.371298,-0.192061,47,265,582,5552
1644165625.712538,-0.008545,0.009583,-0.990234,0.266656,0.447634,-0.176794,46,279,571,5600
1644165625.76095,-0.00885,0.011414,-0.993469,0.129252,0.310229,-0.14626,53,279,569,5584
1644165625.80938,-0.009644,0.011353,-0.994507,0.190321,0.432366,-0.14626,42,270,565,5632
1644165625.857765,-0.009399,0.009216,-0.987366,0.236122,0.371298,-0.298931,60,279,564,5536
1644165625.906138,-0.010193,0.011292,-0.990845,0.190321,0.310229,-0.085191,46,269,573,5552
1644165625.954639,-0.011841,0.008362,-0.993896,0.144519,0.417099,-0.14626,40,277,572,5584
1644165626.002951,-0.011658,0.009399,-0.989319,0.159786,0.340763,-0.008855,51,276,583,5584
1644165626.075665,-0.007751,0.013611,-0.990417,0.342992,0.432366,-0.283664,52,273,577,5648
1644165626.099705,-0.009766,0.008911,-0.992615,0.236122,0.310229,-0.085191,42,273,572,5584
1644165626.148093,-0.009949,0.009338,-0.990723,0.266656,0.233893,-0.14626,55,276,580,5664
1644165626.196464,-0.008972,0.00946,-0.993042,0.190321,0.447634,-0.130992,61,280,570,5584
1644165626.244865,-0.008057,0.009216,-0.991699,0.144519,0.401832,-0.054656,62,276,566,5584
1644165626.293541,-0.011475,0.01123,-0.988281,0.297191,0.371298,-0.008855,48,274,566,5600
1644165626.341769,-0.009033,0.011902,-0.990845,0.08345,0.539237,-0.115725,41,271,569,5648
1644165626.390995,-0.011719,0.010071,-0.988525,0.175053,0.523969,-0.069924,55,269,564,5632
1644165626.441399,-0.010742,0.010803,-0.990356,0.205588,0.478168,-0.054656,52,273,579,5648
1644165626.491833,-0.008545,0.011292,-0.993347,0.144519,0.371298,-0.039389,42,265,572,5600
1644165626.583613,-0.009644,0.009644,-0.990662,0.175053,0.447634,-0.161527,45,270,577,5600
1644165626.631971,-0.009033,0.009888,-0.989258,0.129252,0.478168,-0.130992,49,268,572,5584
1644165626.68037,-0.009277,0.011658,-0.99115,0.159786,0.432366,-0.161527,54,280,572,5664
1644165626.728755,-0.009094,0.010254,-0.989441,0.205588,0.447634,-0.100458,49,270,577,5552
1644165626.77714,-0.008789,0.00946,-0.992615,0.098718,0.279695,-0.008855,46,271,566,5584
1644165626.825567,-0.011292,0.010986,-0.987732,0.205588,0.417099,-0.25313,52,275,570,5664
1644165626.873978,-0.008789,0.00946,-0.991638,0.327725,0.386565,-0.176794,53,279,573,5584
1644165626.922373,-0.010681,0.011841,-0.993225,0.373527,0.447634,-0.207328,49,280,565,5536
1644165626.97074,-0.010315,0.009827,-0.993469,0.312458,0.493435,-0.039389,46,276,573,5600
1644165627.01915,-0.010742,0.011719,-0.991516,0.388794,0.401832,-0.176794,46,279,576,5584
1644165627.07486,-0.011536,0.011047,-0.991821,0.312458,0.401832,-0.130992,46,269,585,5536
1644165627.115877,-0.012756,0.013489,-0.992737,0.190321,0.356031,-0.130992,55,274,573,5664
1644165627.164275,-0.008789,0.007141,-0.992065,0.159786,0.600305,0.052214,54,273,568,5632
1644165627.212683,-0.006714,0.009644,-0.99176,0.327725,0.417099,-0.054656,54,273,579,5632
1644165627.261019,-0.011414,0.009521,-0.993774,0.342992,0.294962,-0.100458,51,271,569,5584
1644165627.309434,-0.010498,0.008972,-0.98999,0.236122,0.325496,-0.283664,57,280,572,5584
1644165627.35783,-0.00885,0.008606,-0.989441,0.129252,0.310229,-0.100458,51,271,571,5600
1644165627.406445,-0.008972,0.010254,-0.993042,0.129252,0.401832,-0.085191,58,269,573,5552
1644165627.456984,-0.008484,0.009521,-0.989258,0.220855,0.462901,-0.115725,59,275,582,5664
1644165627.507051,-0.011414,0.00946,-0.993591,0.312458,0.478168,-0.085191,49,273,568,5584
1644165627.552184,-0.009949,0.010437,-0.992432,0.236122,0.264427,-0.024122,48,266,573,5584
1644165627.648158,-0.012146,0.009216,-0.989685,0.144519,0.523969,-0.100458,43,271,580,5584
1644165627.69655,-0.010193,0.011047,-0.993896,0.220855,0.386565,0.006412,48,269,587,5552
1644165627.744989,-0.011353,0.010071,-0.991089,0.281924,0.478168,-0.100458,42,277,579,5584
1644165627.793532,-0.011536,0.009399,-0.993469,0.251389,0.401832,-0.100458,55,271,573,5584
1644165627.841769,-0.011719,0.007629,-0.989563,0.220855,0.325496,-0.14626,46,274,566,5584
1644165627.890167,-0.011475,0.00946,-0.993103,0.35826,0.356031,-0.054656,43,276,576,5648
1644165627.938557,-0.011292,0.011841,-0.990906,0.312458,0.478168,-0.14626,57,268,572,5584
1644165627.986919,-0.01178,0.009277,-0.99469,0.159786,0.432366,-0.115725,51,283,571,5632
1644165628.054219,-0.007935,0.01062,-0.991272,0.251389,0.401832,-0.130992,40,275,572,5648
1644165628.085853,-0.009033,0.008118,-0.993347,0.144519,0.356031,-0.14626,55,279,578,5648
1644165628.132089,-0.009216,0.008972,-0.988464,0.388794,0.356031,0.006412,52,273,579,5632
1644165628.180469,-0.01123,0.011902,-0.992065,0.46513,0.386565,-0.130992,52,275,575,5664
1644165628.228818,-0.009033,0.012329,-0.994629,0.281924,0.417099,-0.039389,47,287,579,5600
1644165628.27724,-0.012451,0.009644,-0.992004,0.220855,0.294962,-0.039389,48,279,583,5600
1644165628.325643,-0.010315,0.008667,-0.994263,0.159786,0.356031,-0.192061,54,275,586,5600
1644165628.374027,-0.009888,0.008423,-0.99176,0.175053,0.462901,-0.192061,43,276,583,5584
1644165628.422714,-0.009888,0.013,-0.99115,0.266656,0.325496,-0.039389,54,282,575,5600
1644165628.4711,-0.012024,0.007751,-0.990356,0.205588,0.462901,-0.130992,54,270,572,5552
1644165628.52036,-0.010132,0.008606,-0.988586,0.236122,0.325496,-0.130992,48,274,571,5584
1644165628.570666,-0.012207,0.007935,-0.990723,0.35826,0.386565,-0.069924,43,276,580,5552
1644165628.620963,-0.010071,0.009277,-0.990479,0.236122,0.447634,-0.207328,36,283,585,5632
1644165628.71282,-0.010986,0.010132,-0.98938,0.35826,0.523969,-0.100458,43,269,578,5648
1644165628.76112,-0.009155,0.010559,-0.993652,0.281924,0.493435,-0.054656,65,271,573,5584
1644165628.809539,-0.011169,0.009888,-0.99054,0.388794,0.432366,-0.024122,48,266,557,5552
1644165628.857938,-0.010803,0.009644,-0.990112,0.251389,0.356031,-0.161527,53,271,585,5600
1644165628.906361,-0.009094,0.009766,-0.992798,0.342992,0.478168,0.021679,59,277,572,5632
1644165628.95476,-0.008606,0.008911,-0.99176,0.266656,0.539237,0.006412,48,281,578,5632
1644165629.003132,-0.008606,0.01062,-0.993408,0.175053,0.585038,-0.008855,58,276,566,5584
1644165629.053504,-0.009949,0.010315,-0.991882,0.297191,0.386565,-0.207328,49,260,577,5600
1644165629.09995,-0.008728,0.009827,-0.991211,0.266656,0.310229,-0.130992,51,274,571,5648
1644165629.14827,-0.009949,0.00647,-0.989502,0.236122,0.523969,-0.085191,47,273,570,5648
1644165629.196664,-0.010925,0.009338,-0.994202,0.205588,0.432366,-0.115725,57,277,572,5600
1644165629.245146,-0.008545,0.009155,-0.993225,0.175053,0.478168,-0.222595,55,281,587,5632
1644165629.293453,-0.010437,0.010681,-0.990784,0.342992,0.401832,-0.161527,55,274,576,5600
1644165629.341831,-0.012939,0.007996,-0.991882,0.129252,0.432366,-0.237863,53,283,578,5552
1644165629.390226,-0.009827,0.010986,-0.989502,0.251389,0.371298,0.067481,41,274,578,5584
1644165629.438608,-0.007935,0.010376,-0.991028,0.129252,0.493435,-0.207328,55,279,583,5584
1644165629.487019,-0.009033,0.011902,-0.991455,0.052916,0.401832,-0.176794,51,279,580,5648
1644165629.535392,-0.007935,0.007751,-0.992859,0.220855,0.310229,-0.130992,55,276,573,5600
1644165629.583756,-0.010986,0.007324,-0.991577,0.251389,0.356031,-0.069924,52,285,572,5552
1644165629.632549,-0.011841,0.010437,-0.99115,0.129252,0.401832,0.006412,47,277,582,5600
1644165629.682968,-0.00946,0.009644,-0.993469,0.236122,0.386565,0.021679,54,285,558,5584
1644165629.733075,-0.008545,0.012512,-0.990295,0.175053,0.203359,-0.085191,48,269,566,5584
1644165629.778271,-0.009399,0.010071,-0.991333,0.190321,0.401832,-0.100458,41,283,569,5584
1644165629.874174,-0.009583,0.011536,-0.992798,0.220855,0.432366,-0.039389,49,263,570,5648
1644165629.922545,-0.010376,0.00946,-0.992371,0.236122,0.386565,-0.237863,57,282,570,5584
1644165629.970938,-0.009888,0.009521,-0.990051,0.373527,0.462901,-0.115725,59,277,565,5648
1644165630.019348,-0.009338,0.009277,-0.99054,0.251389,0.401832,-0.024122,49,275,575,5632
1644165630.067822,-0.011536,0.010193,-0.992615,0.159786,0.432366,-0.100458,58,281,583,5600
1644165630.116122,-0.00708,0.011963,-0.992615,0.159786,0.401832,-0.069924,51,286,578,5536
1644165630.164471,-0.009399,0.00946,-0.989136,0.266656,0.294962,-0.100458,49,268,577,5600
1644165630.212871,-0.01123,0.009094,-0.99292,0.373527,0.417099,-0.039389,58,274,578,5584
1644165630.26122,-0.010132,0.01062,-0.992737,0.281924,0.279695,-0.192061,51,281,578,5584
1644165630.309633,-0.009216,0.01123,-0.993286,0.205588,0.462901,-0.192061,53,276,583,5632
1644165630.358032,-0.009888,0.012146,-0.991333,0.281924,0.432366,-0.069924,47,270,570,5552
1644165630.406424,-0.009949,0.009216,-0.99231,0.251389,0.371298,0.021679,45,277,572,5632
1644165630.454828,-0.011292,0.008362,-0.993042,0.281924,0.218626,-0.130992,51,279,576,5584
1644165630.503217,-0.008606,0.009399,-0.991882,0.113985,0.371298,-0.069924,54,277,568,5648
1644165630.551591,-0.011292,0.009583,-0.993225,0.129252,0.386565,-0.054656,52,280,577,5552
1644165630.599978,-0.009827,0.010681,-0.990051,0.312458,0.340763,0.021679,53,281,580,5584
1644165630.648362,-0.01239,0.006836,-0.994141,0.175053,0.279695,-0.161527,40,280,570,5600
1644165630.696754,-0.011047,0.009094,-0.990479,0.312458,0.447634,-0.130992,58,276,587,5648
1644165630.745238,-0.011414,0.008423,-0.991638,0.236122,0.539237,-0.176794,55,286,571,5600
1644165630.793571,-0.00885,0.011108,-0.989868,0.144519,0.478168,-0.085191,49,270,577,5648
1644165630.843765,-0.010132,0.008545,-0.989746,0.251389,0.493435,-0.176794,42,270,570,5600
1644165630.89527,-0.012573,0.009705,-0.991943,0.08345,0.294962,-0.115725,53,279,585,5536
1644165630.93966,-0.009216,0.011719,-0.991394,0.281924,0.523969,-0.130992,47,285,575,5664
1644165631.046685,-0.009583,0.009399,-0.991821,0.297191,0.478168,-0.008855,54,268,591,5664
1644165631.086302,-0.008667,0.009399,-0.993103,0.281924,0.462901,-0.024122,45,263,570,5600
1644165631.132322,-0.008972,0.008606,-0.99054,0.144519,0.371298,0.082748,49,273,570,5584
1644165631.18065,-0.007507,0.007935,-0.99292,0.297191,0.478168,-0.130992,47,275,570,5600
1644165631.229069,-0.011047,0.009399,-0.991516,0.129252,0.417099,-0.054656,53,271,587,5536
1644165631.277448,-0.009277,0.010681,-0.991333,0.205588,0.371298,-0.192061,51,276,576,5584
1644165631.325819,-0.009277,0.010254,-0.992432,0.205588,0.386565,-0.192061,51,276,573,5632
1644165631.374204,-0.010254,0.008728,-0.992798,0.175053,0.462901,-0.100458,57,290,577,5584
1644165631.422643,-0.007141,0.009155,-0.990723,0.297191,0.478168,-0.100458,45,270,584,5600
1644165631.471001,-0.011108,0.009705,-0.99231,0.35826,0.325496,-0.039389,49,273,586,5600
1644165631.519395,-0.009277,0.007629,-0.990417,0.327725,0.356031,-0.085191,49,275,563,5584
1644165631.568097,-0.00946,0.009033,-0.990906,0.098718,0.401832,0.036947,57,275,575,5584
1644165631.616932,-0.006348,0.009277,-0.992493,0.312458,0.417099,0.098015,48,269,576,5600
1644165631.667589,-0.010986,0.011658,-0.991699,0.190321,0.493435,-0.039389,46,283,559,5600
1644165631.718399,-0.011475,0.010132,-0.989563,0.175053,0.508702,0.006412,41,271,576,5536
1644165631.809704,-0.011902,0.009766,-0.990051,0.251389,0.478168,-0.085191,55,264,573,5648
1644165631.858105,-0.00946,0.009094,-0.991455,0.190321,0.478168,-0.085191,54,275,570,5584
1644165631.906544,-0.010254,0.010376,-0.991638,0.236122,0.371298,-0.222595,46,283,573,5600
1644165631.954942,-0.011414,0.011841,-0.989563,0.251389,0.401832,0.067481,57,268,582,5600
1644165632.003321,-0.009094,0.009766,-0.991333,0.312458,0.554504,-0.054656,66,275,577,5552
1644165632.053266,-0.012085,0.010071,-0.993958,0.190321,0.356031,-0.085191,48,283,580,5600
1644165632.100102,-0.009644,0.007324,-0.993164,0.159786,0.310229,-0.085191,43,257,573,5664
1644165632.148447,-0.008484,0.011047,-0.991577,0.251389,0.279695,-0.161527,51,274,569,5552
1644165632.196853,-0.009583,0.009216,-0.991455,0.175053,0.432366,-0.054656,43,269,580,5600
1644165632.245291,-0.008789,0.009399,-0.992371,0.190321,0.478168,-0.14626,52,273,572,5632
1644165632.293651,-0.011292,0.01239,-0.991882,0.297191,0.432366,-0.14626,47,275,582,5648
1644165632.342044,-0.009277,0.009399,-0.993286,0.297191,0.417099,-0.192061,49,277,582,5648
1644165632.390421,-0.009583,0.00824,-0.99115,0.312458,0.386565,-0.085191,47,268,572,5600
1644165632.438822,-0.010803,0.009216,-0.990784,0.175053,0.310229,-0.130992,52,277,577,5584
1644165632.4872,-0.008789,0.011108,-0.992249,0.236122,0.386565,-0.008855,47,275,582,5600
1644165632.535599,-0.008972,0.010681,-0.990234,0.419328,0.386565,-0.054656,53,276,573,5632
1644165632.58398,-0.009705,0.00885,-0.990112,0.266656,0.523969,-0.100458,45,270,575,5600
1644165632.632356,-0.013611,0.009644,-0.992798,0.312458,0.417099,-0.069924,49,273,582,5584
1644165632.680748,-0.012146,0.010498,-0.991089,0.220855,0.401832,-0.207328,49,277,572,5600
1644165632.729205,-0.011047,0.011414,-0.989807,0.144519,0.539237,-0.054656,48,274,576,5584
1644165632.780123,-0.010071,0.013062,-0.991516,0.281924,0.432366,-0.100458,57,273,579,5648
1644165632.830741,-0.009216,0.009216,-0.991455,0.251389,0.325496,0.036947,48,271,578,5600
1644165632.875476,-0.01123,0.009521,-0.991089,0.251389,0.447634,-0.237863,54,273,575,5648
1644165632.971141,-0.009155,0.009216,-0.988403,0.159786,0.600305,-0.192061,53,276,571,5600
1644165633.019522,-0.009583,0.009766,-0.992676,0.220855,0.386565,-0.161527,59,263,575,5600
1644165633.067967,-0.010254,0.01123,-0.991028,0.480397,0.340763,-0.222595,52,277,579,5648
1644165633.116258,-0.011963,0.012207,-0.992798,0.312458,0.371298,-0.008855,43,269,587,5632
1644165633.164663,-0.010925,0.01062,-0.990906,0.220855,0.356031,-0.14626,48,283,576,5584
1644165633.21307,-0.010498,0.010437,-0.990662,0.388794,0.508702,-0.008855,47,273,577,5584
1644165633.261423,-0.010132,0.006836,-0.99292,0.266656,0.24916,-0.054656,47,265,579,5648
1644165633.309831,-0.011292,0.008972,-0.991516,0.327725,0.340763,-0.100458,49,280,572,5648
1644165633.358236,-0.009827,0.009644,-0.991943,0.281924,0.294962,-0.100458,49,270,579,5600
1644165633.406618,-0.009583,0.007935,-0.991943,0.327725,0.188092,-0.237863,52,273,577,5600
1644165633.45516,-0.007812,0.006897,-0.994385,0.205588,0.356031,-0.176794,45,270,568,5600
1644165633.503416,-0.009827,0.010803,-0.991211,0.144519,0.264427,-0.085191,60,271,578,5584
1644165633.551785,-0.011658,0.009033,-0.990906,0.388794,0.279695,-0.085191,53,276,573,5632
1644165633.600166,-0.008118,0.012085,-0.991638,0.190321,0.401832,-0.039389,49,268,570,5584
1644165633.648557,-0.007629,0.007996,-0.991333,0.236122,0.447634,-0.008855,51,259,573,5584
1644165633.696955,-0.009827,0.007019,-0.98999,0.175053,0.310229,0.036947,53,262,583,5584
1644165633.745345,-0.01062,0.010681,-0.992065,0.281924,0.401832,-0.14626,53,271,576,5600
1644165633.793788,-0.007202,0.01062,-0.994995,0.312458,0.417099,-0.054656,49,277,582,5632
1644165633.84221,-0.009888,0.008789,-0.990601,0.297191,0.417099,-0.130992,55,276,573,5632
1644165633.891954,-0.009766,0.008667,-0.993347,0.236122,0.417099,-0.14626,46,276,573,5584
1644165633.942217,-0.011169,0.010132,-0.993042,0.251389,0.356031,-0.298931,51,274,580,5584
1644165633.992569,-0.009155,0.011108,-0.988892,0.098718,0.356031,-0.085191,46,274,576,5648
1644165634.085746,-0.01123,0.008667,-0.992188,0.297191,0.493435,-0.130992,54,275,582,5664
1644165634.132448,-0.013794,0.008362,-0.994141,0.297191,0.462901,-0.100458,55,281,578,5648
1644165634.180833,-0.011963,0.007629,-0.991821,0.342992,0.493435,-0.100458,53,266,573,5584
1644165634.229242,-0.011169,0.008118,-0.990967,0.236122,0.417099,-0.054656,53,276,576,5648
1644165634.27763,-0.008301,0.012756,-0.991455,0.175053,0.478168,0.006412,53,274,569,5584
1644165634.326033,-0.012329,0.008972,-0.991211,0.190321,0.356031,-0.14626,49,268,575,5536
1644165634.374425,-0.00946,0.008362,-0.991882,0.266656,0.539237,-0.14626,49,277,584,5600
1644165634.422817,-0.009827,0.008362,-0.992249,0.312458,0.523969,-0.024122,51,286,583,5584
1644165634.471186,-0.008972,0.007812,-0.992126,0.373527,0.462901,-0.115725,48,276,576,5552
1644165634.519593,-0.011108,0.008606,-0.991882,0.205588,0.356031,-0.115725,47,270,577,5648
1644165634.567974,-0.007141,0.006958,-0.989929,0.266656,0.569771,-0.069924,51,266,580,5648
1644165634.61636,-0.008728,0.01239,-0.990906,0.251389,0.386565,-0.130992,53,274,573,5584
1644165634.664766,-0.009033,0.009888,-0.990051,0.251389,0.127023,-0.115725,53,271,585,5600
1644165634.713152,-0.009338,0.009155,-0.993103,0.144519,0.432366,-0.192061,53,274,576,5648
1644165634.761531,-0.007019,0.008118,-0.992188,0.236122,0.478168,-0.130992,48,279,573,5648
1644165634.810317,-0.006775,0.009399,-0.989807,0.113985,0.386565,0.021679,58,286,571,5648
1644165634.858496,-0.011658,0.009521,-0.989502,0.08345,0.508702,0.006412,49,271,569,5632
1644165634.908854,-0.010254,0.011536,-0.990601,0.144519,0.417099,-0.069924,48,274,571,5552
1644165634.959264,-0.00824,0.011414,-0.990967,0.113985,0.386565,-0.25313,47,273,572,5600
1644165635.003574,-0.008667,0.011292,-0.99054,0.35826,0.432366,-0.192061,46,286,569,5600
1644165635.100295,-0.009949,0.009216,-0.990845,0.113985,0.462901,-0.039389,49,280,565,5664
1644165635.148645,-0.006409,0.009399,-0.991028,0.312458,0.371298,-0.024122,59,260,572,5584
1644165635.197031,-0.00769,0.010864,-0.987976,0.205588,0.432366,0.021679,43,271,573,5536
1644165635.24544,-0.009216,0.00946,-0.991882,0.297191,0.539237,-0.054656,51,279,576,5552
1644165635.293838,-0.007507,0.010132,-0.990601,0.373527,0.356031,-0.176794,52,273,575,5648
1644165635.342243,-0.009399,0.009033,-0.991394,0.144519,0.401832,-0.207328,58,271,571,5552
1644165635.390615,-0.007263,0.009521,-0.991455,0.098718,0.310229,-0.176794,51,271,573,5648
1644165635.439009,-0.010498,0.010193,-0.990417,0.251389,0.386565,0.052214,49,280,565,5600
1644165635.487391,-0.010559,0.010742,-0.98999,0.251389,0.478168,-0.115725,48,274,576,5600
1644165635.535782,-0.011292,0.006897,-0.992065,0.251389,0.493435,-0.14626,45,270,565,5584
1644165635.584152,-0.010742,0.007935,-0.990295,0.205588,0.356031,-0.14626,61,273,570,5600
1644165635.632584,-0.011292,0.012329,-0.993164,0.113985,0.340763,-0.024122,61,280,577,5536
1644165635.68097,-0.011108,0.009766,-0.993408,0.220855,0.310229,-0.115725,51,266,585,5600
1644165635.729346,-0.007874,0.011292,-0.993774,0.281924,0.264427,0.098015,45,270,572,5664
1644165635.77774,-0.009399,0.010742,-0.993347,0.159786,0.523969,-0.100458,52,268,575,5648
1644165635.826169,-0.012451,0.008484,-0.989502,0.342992,0.386565,-0.298931,45,270,570,5584
1644165635.874548,-0.010925,0.007812,-0.992798,0.236122,0.493435,-0.069924,62,281,576,5664
1644165635.923143,-0.01001,0.011841,-0.993103,0.297191,0.386565,-0.130992,49,263,579,5600
1644165635.971384,-0.011292,0.010864,-0.992371,0.205588,0.478168,0.082748,49,275,570,5632
1644165636.02128,-0.011658,0.011536,-0.991333,0.205588,0.371298,-0.192061,48,269,578,5600
1644165636.074068,-0.008667,0.010376,-0.990784,0.037649,0.310229,-0.085191,53,288,573,5536
1644165636.121789,-0.009338,0.010132,-0.989746,0.297191,0.462901,0.021679,55,274,578,5584
1644165636.165943,-0.009094,0.008789,-0.991272,0.297191,0.401832,-0.100458,51,264,573,5536
1644165636.261626,-0.007263,0.007874,-0.990234,0.144519,0.554504,-0.222595,54,280,570,5648
1644165636.310025,-0.00885,0.011169,-0.992859,0.175053,0.432366,0.021679,48,274,571,5664
1644165636.358423,-0.009583,0.007874,-0.993408,0.266656,0.585038,-0.222595,58,264,564,5600
1644165636.406802,-0.012512,0.011475,-0.992188,0.312458,0.371298,-0.054656,53,274,573,5648
1644165636.455194,-0.011414,0.011963,-0.992981,0.022382,0.600305,-0.039389,53,269,576,5584
1644165636.503572,-0.011719,0.00946,-0.992126,0.266656,0.371298,-0.130992,47,270,572,5600
1644165636.551977,-0.007324,0.009216,-0.991272,0.266656,0.432366,0.006412,66,270,568,5536
1644165636.600369,-0.006226,0.00824,-0.993225,0.236122,0.371298,-0.085191,46,279,573,5648
1644165636.64876,-0.008423,0.01001,-0.990173,0.175053,0.417099,-0.069924,53,274,573,5600
1644165636.697151,-0.008301,0.009949,-0.988892,0.266656,0.386565,-0.054656,62,276,562,5600
1644165636.745519,-0.007874,0.009216,-0.990723,0.327725,0.356031,-0.115725,53,279,571,5632
1644165636.793954,-0.009216,0.01123,-0.991089,0.236122,0.432366,-0.14626,53,276,571,5632
1644165636.842346,-0.005676,0.006836,-0.990173,0.190321,0.386565,-0.130992,51,262,578,5648
1644165636.890749,-0.013733,0.010498,-0.990479,0.068183,0.386565,0.12855,54,265,558,5584
1644165636.939146,-0.010559,0.007935,-0.993713,0.266656,0.523969,-0.176794,47,277,577,5632
1644165636.987531,-0.009094,0.01123,-0.992004,0.373527,0.356031,-0.130992,49,270,589,5648
1644165637.053022,-0.011414,0.008545,-0.991943,0.35826,0.493435,-0.008855,52,270,575,5600
1644165637.08587,-0.010437,0.012207,-0.987,0.068183,0.401832,-0.069924,58,266,576,5648
1644165637.136241,-0.010498,0.010498,-0.990967,0.113985,0.462901,-0.14626,47,273,579,5584
1644165637.185364,-0.007629,0.010193,-0.98822,0.129252,0.371298,-0.268397,53,269,580,5600
1644165637.230377,-0.009705,0.011169,-0.991577,0.251389,0.386565,-0.115725,67,266,566,5648
1644165637.326208,-0.01123,0.009583,-0.990234,0.175053,0.386565,-0.130992,43,286,576,5584
1644165637.374837,-0.00946,0.008728,-0.990051,0.388794,0.417099,-0.14626,54,285,575,5600
1644165637.423048,-0.013428,0.008972,-0.990723,0.251389,0.401832,-0.130992,51,266,578,5584
1644165637.471359,-0.009399,0.011841,-0.99054,0.266656,0.401832,-0.130992,52,273,577,5600
1644165637.519774,-0.008545,0.008911,-0.990051,0.404061,0.447634,-0.069924,49,270,579,5552
1644165637.568178,-0.011475,0.009155,-0.992188,0.266656,0.417099,-0.25313,52,270,568,5632
1644165637.61656,-0.009155,0.007263,-0.991089,0.312458,0.447634,0.021679,57,273,565,5600
1644165637.665015,-0.011047,0.012329,-0.992004,0.266656,0.325496,0.082748,51,276,569,5648
1644165637.713348,-0.008423,0.010498,-0.993774,0.068183,0.356031,-0.069924,46,274,580,5584
1644165637.761732,-0.010986,0.009705,-0.992065,0.327725,0.447634,-0.085191,52,280,577,5648
1644165637.810128,-0.010864,0.008667,-0.990234,0.251389,0.523969,-0.054656,54,270,570,5600
1644165637.858735,-0.010498,0.010071,-0.992859,0.190321,0.493435,-0.069924,43,271,576,5600
1644165637.906939,-0.009155,0.011597,-0.991455,0.205588,0.447634,0.006412,47,273,568,5584
1644165637.955322,-0.011292,0.008362,-0.992004,0.205588,0.508702,-0.176794,49,270,570,5536
1644165638.003705,-0.010681,0.01001,-0.992493,0.266656,0.508702,-0.100458,57,270,570,5632
1644165638.075371,-0.010315,0.009521,-0.99054,0.220855,0.417099,-0.100458,47,270,584,5536
1644165638.101346,-0.010437,0.00946,-0.993835,0.297191,0.401832,-0.085191,57,277,579,5648
1644165638.19724,-0.009827,0.010498,-0.99292,0.205588,0.539237,-0.054656,55,276,571,5584
1644165638.245616,-0.009094,0.009033,-0.991821,0.373527,0.478168,-0.115725,54,277,577,5584
1644165638.294036,-0.008423,0.012451,-0.99176,0.190321,0.325496,-0.207328,46,276,571,5600
1644165638.342434,-0.011719,0.011353,-0.992371,0.266656,0.386565,-0.222595,46,276,566,5696
1644165638.390808,-0.011047,0.008667,-0.994446,0.220855,0.523969,-0.222595,43,266,569,5536
1644165638.43918,-0.009827,0.008972,-0.991882,0.434595,0.462901,-0.085191,48,274,569,5600
1644165638.48758,-0.01001,0.006409,-0.99176,0.266656,0.478168,-0.085191,49,277,575,5600
1644165638.53597,-0.009338,0.008057,-0.990845,0.495664,0.554504,0.036947,46,274,573,5584
1644165638.584378,-0.009521,0.010437,-0.990967,0.159786,0.386565,-0.115725,52,265,572,5632
1644165638.632776,-0.010803,0.010254,-0.990723,0.266656,0.539237,-0.115725,38,277,584,5600
1644165638.681158,-0.00946,0.009766,-0.98938,0.297191,0.508702,-0.237863,49,290,568,5584
1644165638.729538,-0.008789,0.008057,-0.990967,0.327725,0.478168,-0.268397,62,281,578,5600
1644165638.777945,-0.007996,0.009766,-0.98877,0.236122,0.310229,-0.115725,45,282,579,5584
1644165638.826317,-0.008789,0.01178,-0.990906,0.251389,0.539237,-0.069924,49,270,565,5648
1644165638.874771,-0.010925,0.011841,-0.99231,0.281924,0.508702,0.113282,55,283,576,5600
1644165638.923157,-0.012085,0.009277,-0.992737,0.175053,0.432366,-0.069924,46,281,573,5648
1644165638.971531,-0.010742,0.011169,-0.992004,0.236122,0.340763,0.006412,57,275,586,5648
1644165639.019921,-0.007385,0.009338,-0.990479,0.175053,0.325496,0.113282,52,268,584,5600
1644165639.073998,-0.007507,0.010193,-0.992493,0.251389,0.432366,-0.085191,49,263,589,5648
1644165639.118835,-0.009338,0.012573,-0.990479,0.159786,0.386565,-0.115725,51,269,573,5536
1644165639.169405,-0.009338,0.009155,-0.99176,0.175053,0.386565,0.067481,47,275,575,5552
1644165639.213592,-0.009705,0.008606,-0.989929,0.266656,0.310229,-0.039389,54,282,568,5584
1644165639.310256,-0.01001,0.007996,-0.99408,0.281924,0.462901,-0.039389,54,273,570,5584
1644165639.35863,-0.008606,0.009399,-0.991394,0.297191,0.447634,0.052214,46,279,569,5584
1644165639.407031,-0.009277,0.010498,-0.990051,0.205588,0.386565,-0.14626,54,273,593,5664
1644165639.455401,-0.008972,0.010315,-0.991394,0.205588,0.462901,-0.237863,47,273,577,5600
1644165639.503805,-0.010193,0.008667,-0.990784,0.251389,0.493435,-0.130992,51,274,587,5536
1644165639.552229,-0.010315,0.006409,-0.99408,0.129252,0.356031,-0.054656,47,270,579,5536
1644165639.600617,-0.008972,0.01001,-0.99054,0.388794,0.417099,-0.176794,49,282,582,5600
1644165639.649001,-0.012146,0.009766,-0.98999,0.175053,0.24916,-0.054656,54,273,577,5584
1644165639.697362,-0.009766,0.009094,-0.991882,0.342992,0.523969,-0.115725,54,273,572,5600
1644165639.745748,-0.007874,0.008789,-0.989319,0.236122,0.386565,-0.100458,51,271,580,5648
1644165639.794159,-0.012329,0.011963,-0.992554,0.419328,0.340763,-0.100458,61,265,579,5600
1644165639.842579,-0.011902,0.011292,-0.989685,0.205588,0.63084,-0.115725,52,285,577,5552
1644165639.890946,-0.009644,0.01001,-0.99469,0.251389,0.310229,-0.222595,54,280,575,5584
1644165639.93933,-0.012939,0.009094,-0.990723,0.342992,0.371298,-0.085191,55,274,573,5584
1644165639.987698,-0.006897,0.012695,-0.991577,0.35826,0.432366,-0.069924,58,274,580,5648
1644165640.048805,-0.009583,0.007385,-0.991455,0.236122,0.462901,-0.039389,57,268,591,5648
1644165640.08713,-0.008606,0.009827,-0.99292,0.342992,0.432366,-0.207328,55,274,592,5552
1644165640.132948,-0.01062,0.007385,-0.990479,0.281924,0.310229,-0.176794,41,274,569,5632
1644165640.181576,-0.008911,0.00946,-0.992371,0.175053,0.554504,0.021679,53,274,578,5632
1644165640.230417,-0.007202,0.006958,-0.990662,0.281924,0.432366,0.006412,53,266,578,5648
1644165640.281001,-0.009888,0.008789,-0.988342,0.175053,0.539237,-0.176794,41,259,578,5584
1644165640.331304,-0.009094,0.012634,-0.994263,0.144519,0.569771,-0.14626,49,270,575,5696
1644165640.376144,-0.011169,0.007629,-0.987183,0.236122,0.539237,-0.069924,47,280,575,5536
1644165640.471586,-0.00946,0.012085,-0.991089,0.342992,0.340763,-0.069924,47,275,568,5552
1644165640.519976,-0.010193,0.010559,-0.992737,0.327725,0.432366,-0.085191,53,271,580,5632
1644165640.568363,-0.010559,0.009949,-0.991394,0.159786,0.462901,-0.008855,42,277,575,5600
1644165640.616729,-0.010498,0.011841,-0.989197,0.037649,0.523969,-0.039389,47,275,570,5584
1644165640.665179,-0.009521,0.009094,-0.991821,0.159786,0.432366,-0.024122,53,274,576,5600
1644165640.713525,-0.00946,0.009644,-0.994812,0.129252,0.203359,-0.024122,53,274,576,5536
1644165640.761939,-0.008179,0.009521,-0.990906,0.297191,0.539237,-0.176794,42,263,575,5520
1644165640.810362,-0.011597,0.010254,-0.991882,0.281924,0.371298,-0.024122,52,280,582,5632
1644165640.858742,-0.01001,0.008423,-0.992249,0.190321,0.356031,-0.176794,49,270,570,5632
1644165640.907134,-0.011536,0.009705,-0.99231,0.342992,0.554504,0.036947,43,286,587,5600
1644165640.955534,-0.012024,0.013184,-0.989136,0.129252,0.417099,-0.100458,55,276,578,5632
1644165641.003947,-0.010132,0.012634,-0.990173,0.266656,0.462901,-0.161527,54,277,570,5584
1644165641.061568,-0.00885,0.008179,-0.990967,0.220855,0.432366,0.006412,49,282,577,5632
1644165641.100711,-0.011597,0.013062,-0.988464,0.098718,0.417099,-0.115725,55,266,578,5664
1644165641.149059,-0.008789,0.008423,-0.992249,0.220855,0.310229,-0.024122,49,280,579,5536
1644165641.197449,-0.010864,0.009827,-0.992798,0.220855,0.493435,-0.161527,55,286,573,5600
1644165641.245802,-0.010498,0.009338,-0.989563,0.526198,0.462901,-0.161527,49,270,575,5632
1644165641.294218,-0.010498,0.008606,-0.989319,0.327725,0.371298,-0.100458,43,279,571,5536
1644165641.342834,-0.008362,0.011536,-0.991333,0.205588,0.462901,0.006412,54,275,575,5584
1644165641.391985,-0.009644,0.009888,-0.991699,0.266656,0.523969,-0.14626,47,277,572,5600
1644165641.442861,-0.01178,0.009949,-0.990906,0.251389,0.386565,-0.069924,51,269,573,5584
1644165641.493112,-0.010498,0.011597,-0.990112,0.266656,0.447634,0.082748,51,276,578,5584
1644165641.537606,-0.01178,0.006775,-0.991577,0.297191,0.417099,-0.207328,43,276,585,5648
1644165641.632968,-0.00946,0.008362,-0.992126,0.236122,0.371298,-0.115725,46,269,576,5536
1644165641.681331,-0.011475,0.00769,-0.992065,0.190321,0.478168,0.006412,46,281,585,5584
1644165641.729731,-0.009521,0.009155,-0.988037,0.144519,0.340763,-0.100458,51,281,566,5600
1644165641.778114,-0.011475,0.009216,-0.990601,0.327725,0.356031,-0.115725,45,275,582,5552
1644165641.82654,-0.009521,0.011108,-0.991089,0.297191,0.63084,-0.069924,55,274,583,5552
1644165641.874918,-0.007935,0.010559,-0.99176,0.159786,0.554504,-0.100458,65,279,576,5648
1644165641.923332,-0.009338,0.013062,-0.988037,0.205588,0.310229,-0.176794,48,274,566,5632
1644165641.971732,-0.013672,0.009705,-0.98999,0.281924,0.325496,-0.069924,49,268,577,5584
1644165642.020119,-0.011475,0.010742,-0.990356,0.236122,0.356031,0.006412,57,275,572,5600
1644165642.074586,-0.011414,0.011353,-0.991089,0.281924,0.371298,-0.130992,49,270,582,5600
1644165642.116859,-0.00769,0.006287,-0.991272,0.220855,0.478168,0.006412,49,268,572,5584
1644165642.165247,-0.011597,0.010315,-0.992859,0.236122,0.432366,-0.069924,51,279,571,5584
1644165642.213644,-0.007629,0.007202,-0.991089,0.220855,0.417099,0.036947,54,265,582,5600
1644165642.262004,-0.010986,0.008911,-0.99292,0.190321,0.310229,-0.14626,54,270,568,5600
1644165642.310403,-0.010254,0.01001,-0.988953,0.281924,0.447634,-0.039389,53,276,587,5664
1644165642.358798,-0.010376,0.012146,-0.990356,0.312458,0.432366,-0.008855,45,280,577,5600
1644165642.407388,-0.009155,0.009827,-0.991577,0.312458,0.356031,0.036947,43,274,569,5648
1644165642.456749,-0.011902,0.01123,-0.99054,0.098718,0.478168,0.12855,45,282,572,5584
1644165642.507329,-0.007751,0.012451,-0.990601,0.327725,0.478168,-0.100458,51,271,578,5600
1644165642.557398,-0.010132,0.009827,-0.989563,0.129252,0.554504,-0.085191,53,279,571,5600
1644165642.649134,-0.007812,0.010071,-0.99054,0.312458,0.417099,-0.161527,53,276,585,5648
1644165642.697526,-0.00946,0.011841,-0.989624,0.342992,0.371298,-0.039389,43,279,571,5648
1644165642.745903,-0.005737,0.011841,-0.994019,0.175053,0.188092,0.006412,48,274,578,5536
1644165642.794313,-0.008911,0.007751,-0.990479,0.190321,0.493435,-0.192061,41,269,571,5536
1644165642.842726,-0.007935,0.010132,-0.991455,0.312458,0.356031,-0.100458,52,275,575,5648
1644165642.891135,-0.012146,0.009338,-0.991882,0.312458,0.386565,-0.100458,51,276,573,5600
1644165642.93954,-0.008972,0.011597,-0.992249,0.297191,0.386565,-0.054656,51,276,578,5584
1644165642.987926,-0.010559,0.010803,-0.991699,0.052916,0.371298,0.006412,51,279,571,5600
1644165643.050547,-0.007935,0.010803,-0.991028,0.175053,0.371298,0.006412,46,271,580,5600
1644165643.087264,-0.009338,0.00647,-0.991516,0.297191,0.462901,-0.069924,55,281,571,5584
1644165643.133092,-0.011353,0.005432,-0.992798,0.205588,0.432366,-0.008855,43,276,562,5584
1644165643.181493,-0.00946,0.007263,-0.990173,0.404061,0.508702,-0.085191,53,279,578,5584
1644165643.229835,-0.011414,0.009583,-0.994934,0.129252,0.447634,-0.039389,48,274,580,5536
1644165643.278229,-0.008667,0.011169,-0.991089,0.159786,0.478168,-0.115725,52,275,582,5584
1644165643.326603,-0.011047,0.007935,-0.990967,0.251389,0.356031,-0.14626,54,275,575,5584
1644165643.37504,-0.008423,0.008301,-0.992981,0.159786,0.310229,-0.100458,57,275,586,5584
1644165643.423399,-0.009705,0.010559,-0.989624,0.251389,0.386565,-0.115725,49,280,579,5552
1644165643.471782,-0.009277,0.011719,-0.992188,0.175053,0.508702,-0.054656,60,266,576,5584
1644165643.520576,-0.009277,0.009155,-0.993896,0.449863,0.340763,-0.069924,46,269,571,5536
1644165643.56918,-0.008362,0.008728,-0.991211,0.266656,0.340763,-0.115725,62,276,571,5648
1644165643.619365,-0.009277,0.01123,-0.993286,0.342992,0.447634,-0.161527,51,269,578,5600
1644165643.669719,-0.011963,0.011292,-0.991699,0.068183,0.447634,0.006412,57,273,570,5648
1644165643.714757,-0.011658,0.010864,-0.992493,0.190321,0.432366,0.006412,71,270,577,5648
1644165643.810519,-0.010803,0.009583,-0.989929,0.220855,0.401832,-0.085191,49,273,572,5584
1644165643.858929,-0.008545,0.011108,-0.991638,0.312458,0.462901,-0.100458,48,274,566,5584
1644165643.907334,-0.008728,0.011169,-0.990967,0.205588,0.462901,-0.069924,45,273,570,5552
1644165643.95572,-0.008789,0.007019,-0.989746,0.113985,0.523969,-0.085191,48,269,580,5648
1644165644.004101,-0.008789,0.009155,-0.990784,0.190321,0.432366,-0.024122,48,281,573,5552
1644165644.055478,-0.011414,0.008545,-0.992859,0.327725,0.508702,-0.100458,48,281,587,5552
1644165644.100924,-0.008911,0.011475,-0.992737,0.190321,0.417099,0.021679,40,273,584,5632
1644165644.149252,-0.010254,0.008545,-0.990723,0.297191,0.264427,0.113282,48,281,578,5648
1644165644.197634,-0.00946,0.010254,-0.993652,0.281924,0.356031,-0.069924,51,271,571,5552
1644165644.246008,-0.010986,0.007568,-0.991394,0.037649,0.462901,-0.115725,51,266,576,5648
1644165644.294401,-0.008789,0.009644,-0.993103,0.175053,0.340763,-0.14626,49,277,570,5600
1644165644.342802,-0.012817,0.009644,-0.99115,0.159786,0.294962,-0.054656,49,275,570,5552
1644165644.391199,-0.008667,0.012512,-0.989441,0.373527,0.325496,-0.222595,53,281,569,5600
1644165644.439587,-0.010986,0.013184,-0.990784,0.297191,0.386565,-0.069924,59,273,577,5552
1644165644.487972,-0.007446,0.014404,-0.992798,0.312458,0.310229,-0.069924,51,271,573,5600
1644165644.536367,-0.008423,0.008423,-0.990417,0.129252,0.417099,0.021679,49,268,577,5632
1644165644.584768,-0.007568,0.008789,-0.989563,0.251389,0.493435,-0.161527,45,263,579,5648
1644165644.633193,-0.00946,0.010681,-0.992432,0.266656,0.462901,-0.115725,48,281,576,5584
1644165644.683366,-0.008667,0.010925,-0.989807,0.297191,0.401832,0.036947,46,269,562,5584
1644165644.733668,-0.006714,0.008789,-0.98877,0.159786,0.24916,-0.069924,48,269,576,5648
1644165644.7788,-0.01123,0.013184,-0.99115,0.175053,0.447634,-0.100458,59,273,575,5584
1644165644.875396,-0.009277,0.007996,-0.993225,0.266656,0.386565,-0.085191,49,275,568,5600
1644165644.923545,-0.008972,0.010742,-0.991821,0.266656,0.447634,-0.222595,47,268,570,5600
1644165644.97193,-0.010925,0.011475,-0.991455,0.190321,0.493435,0.036947,47,275,563,5600
1644165645.020316,-0.006287,0.009521,-0.992676,0.434595,0.310229,-0.100458,51,276,583,5648
1644165645.06883,-0.008667,0.011597,-0.991516,0.220855,0.401832,0.006412,62,271,573,5584
1644165645.117222,-0.009949,0.010498,-0.991516,0.205588,0.401832,-0.130992,49,273,579,5600
1644165645.165446,-0.006714,0.012146,-0.990173,0.281924,0.386565,-0.085191,57,275,575,5600
1644165645.213843,-0.008911,0.011169,-0.990906,0.144519,0.432366,0.006412,51,279,583,5584
1644165645.262233,-0.008362,0.01001,-0.989014,0.312458,0.310229,-0.130992,54,280,572,5632
1644165645.310613,-0.010315,0.010742,-0.989868,0.297191,0.294962,-0.100458,49,275,572,5600
1644165645.359039,-0.009827,0.007935,-0.990662,0.266656,0.462901,-0.161527,55,271,583,5600
1644165645.407398,-0.010071,0.008545,-0.989502,0.434595,0.447634,-0.100458,51,279,571,5600
1644165645.455777,-0.009583,0.011475,-0.990234,0.297191,0.340763,-0.069924,47,277,579,5648
1644165645.50418,-0.008057,0.008728,-0.992615,0.388794,0.188092,-0.069924,47,268,579,5536
1644165645.552584,-0.009583,0.010498,-0.988892,0.297191,0.233893,0.021679,49,277,582,5648
1644165645.600953,-0.009094,0.007874,-0.990723,0.388794,0.386565,-0.069924,46,266,569,5632
1644165645.649326,-0.012756,0.010498,-0.99231,0.129252,0.401832,-0.14626,48,274,576,5536
1644165645.697732,-0.010071,0.008972,-0.991943,0.327725,0.279695,-0.039389,59,285,575,5552
1644165645.746651,-0.009766,0.010132,-0.991333,0.113985,0.508702,-0.100458,57,280,589,5584
1644165645.794733,-0.009338,0.011658,-0.98877,0.175053,0.432366,-0.130992,48,269,580,5648
1644165645.845557,-0.007812,0.010254,-0.993591,0.327725,0.447634,-0.130992,58,276,580,5584
1644165645.896379,-0.010925,0.004944,-0.991821,0.266656,0.447634,-0.085191,60,274,580,5584
1644165645.940974,-0.010742,0.008972,-0.991028,0.419328,0.325496,-0.100458,62,276,578,5600
1644165646.044975,-0.00885,0.009644,-0.989136,0.266656,0.356031,-0.14626,52,270,568,5648
1644165646.085173,-0.007751,0.009766,-0.991821,0.236122,0.447634,-0.100458,41,276,583,5600
1644165646.133306,-0.009094,0.011414,-0.99176,0.35826,0.325496,-0.14626,53,271,571,5584
1644165646.181654,-0.008789,0.008667,-0.990479,0.220855,0.386565,-0.115725,51,269,583,5600
1644165646.230008,-0.010437,0.013062,-0.991394,0.449863,0.294962,-0.14626,45,275,568,5584
1644165646.278386,-0.010376,0.010437,-0.992432,0.098718,0.447634,-0.161527,49,268,582,5600
1644165646.326813,-0.010254,0.011169,-0.990906,0.373527,0.356031,-0.115725,54,273,582,5632
1644165646.375286,-0.011719,0.010132,-0.988892,0.159786,0.523969,-0.069924,49,270,570,5536
1644165646.423591,-0.012573,0.00885,-0.990967,0.159786,0.371298,-0.115725,59,258,582,5584
1644165646.471985,-0.011353,0.009583,-0.992554,0.08345,0.340763,-0.115725,52,285,572,5632
1644165646.52037,-0.013184,0.011658,-0.993774,0.159786,0.462901,-0.14626,48,274,576,5648
1644165646.568758,-0.010193,0.011169,-0.992004,0.220855,0.539237,-0.008855,51,279,583,5648
1644165646.617154,-0.009338,0.010742,-0.990967,0.251389,0.508702,-0.054656,51,274,576,5664
1644165646.665539,-0.011108,0.010254,-0.98999,0.266656,0.310229,-0.100458,54,270,572,5584
1644165646.714252,-0.008728,0.011292,-0.992676,0.220855,0.417099,0.067481,54,280,582,5664
1644165646.763065,-0.007751,0.009888,-0.991821,0.159786,0.325496,-0.054656,58,271,583,5584
1644165646.81356,-0.009827,0.010925,-0.993103,0.159786,0.554504,-0.085191,59,277,575,5552
1644165646.859452,-0.010498,0.006592,-0.990112,0.144519,0.508702,-0.024122,53,271,578,5600
1644165646.909178,-0.010925,0.007935,-0.992493,0.159786,0.478168,-0.222595,49,265,579,5648
1644165647.004319,-0.010864,0.010681,-0.992126,0.236122,0.432366,-0.115725,51,274,566,5664
1644165647.055444,-0.011169,0.009216,-0.993286,0.419328,0.386565,0.067481,54,280,582,5584
1644165647.101061,-0.01239,0.007935,-0.991821,0.068183,0.386565,-0.115725,49,282,565,5632
1644165647.149532,-0.008057,0.010864,-0.991089,0.373527,0.401832,-0.039389,46,271,571,5536
1644165647.197857,-0.009277,0.00885,-0.991516,0.251389,0.356031,-0.039389,47,270,577,5648
1644165647.246253,-0.009888,0.013672,-0.990967,0.113985,0.386565,-0.115725,61,282,579,5584
1644165647.294689,-0.008667,0.009277,-0.991211,0.312458,0.417099,-0.069924,45,265,582,5600
1644165647.343033,-0.011536,0.010376,-0.993164,0.236122,0.554504,-0.069924,45,275,579,5552
1644165647.391441,-0.008728,0.006592,-0.991516,0.205588,0.233893,-0.039389,51,271,583,5584
1644165647.439842,-0.01062,0.008911,-0.990417,0.342992,0.417099,-0.115725,46,276,576,5632
1644165647.488208,-0.010742,0.010132,-0.990784,0.342992,0.401832,-0.268397,48,271,590,5600
1644165647.536601,-0.008911,0.00824,-0.992065,0.175053,0.386565,-0.207328,55,288,587,5584
1644165647.585045,-0.008362,0.008667,-0.991028,0.205588,0.371298,-0.054656,52,285,582,5600
1644165647.633399,-0.010437,0.011841,-0.991394,0.251389,0.432366,-0.100458,49,273,572,5632
1644165647.681777,-0.009094,0.010742,-0.994934,0.342992,0.508702,-0.100458,54,277,577,5584
1644165647.73018,-0.007324,0.010132,-0.989685,0.342992,0.386565,-0.130992,49,268,575,5584
1644165647.778555,-0.009949,0.01123,-0.990906,0.236122,0.24916,0.006412,52,270,577,5632
1644165647.826959,-0.010864,0.008728,-0.992493,0.236122,0.462901,-0.14626,46,266,576,5648
1644165647.876277,-0.009216,0.009216,-0.992432,0.190321,0.447634,-0.222595,53,281,576,5632
1644165647.926274,-0.009949,0.010193,-0.993225,0.251389,0.508702,-0.115725,53,271,571,5600
1644165647.976581,-0.010193,0.00946,-0.993286,0.281924,0.554504,-0.008855,47,280,577,5632
1644165648.020758,-0.007324,0.009033,-0.99115,0.113985,0.508702,-0.161527,51,274,576,5584
1644165648.117257,-0.00824,0.008789,-0.991638,0.327725,0.386565,-0.176794,49,275,579,5632
1644165648.165614,-0.010803,0.012207,-0.991333,0.098718,0.447634,-0.054656,47,277,572,5632
1644165648.214019,-0.009888,0.010498,-0.992004,0.266656,0.310229,-0.024122,47,260,570,5648
1644165648.262416,-0.009827,0.009033,-0.994263,0.251389,0.401832,-0.039389,39,279,573,5584
1644165648.310791,-0.011475,0.010864,-0.99292,0.281924,0.478168,-0.115725,47,268,579,5648
1644165648.359201,-0.010315,0.013428,-0.991028,0.373527,0.340763,-0.024122,48,269,571,5696
1644165648.407576,-0.009827,0.011536,-0.99115,0.297191,0.462901,0.036947,46,279,585,5600
1644165648.455962,-0.006775,0.008118,-0.990723,0.266656,0.447634,-0.222595,53,266,576,5552
1644165648.504353,-0.008911,0.009583,-0.990356,0.312458,0.417099,0.006412,48,274,585,5648
1644165648.552776,-0.010681,0.007874,-0.992493,0.236122,0.340763,-0.268397,57,265,579,5552
1644165648.601148,-0.011292,0.01123,-0.993774,0.297191,0.417099,-0.085191,52,273,570,5536
1644165648.649535,-0.009399,0.009277,-0.992493,0.129252,0.462901,-0.192061,51,269,573,5600
1644165648.697932,-0.011597,0.011902,-0.992981,0.129252,0.401832,-0.069924,59,277,570,5632
1644165648.74633,-0.00885,0.010742,-0.988342,0.220855,0.386565,-0.069924,58,281,576,5584
1644165648.794761,-0.006531,0.010742,-0.990967,0.266656,0.371298,-0.024122,53,279,578,5632
1644165648.843174,-0.013184,0.008606,-0.991333,0.297191,0.417099,-0.176794,51,274,585,5600
1644165648.891536,-0.007507,0.011047,-0.991394,0.08345,0.325496,-0.069924,51,274,578,5600
1644165648.939984,-0.00769,0.007935,-0.991516,0.312458,0.554504,-0.130992,53,264,569,5600
1644165648.988322,-0.010742,0.010376,-0.993347,0.08345,0.478168,0.021679,48,271,573,5552
1644165649.056872,-0.010193,0.00885,-0.991821,0.266656,0.523969,-0.100458,59,275,575,5600
1644165649.094891,-0.010803,0.008789,-0.990784,0.236122,0.279695,-0.161527,53,269,573,5696
1644165649.137851,-0.010986,0.012085,-0.989685,0.251389,0.310229,-0.130992,51,271,580,5600
1644165649.18262,-0.007874,0.013123,-0.992432,0.236122,0.401832,-0.314198,57,270,568,5632
1644165649.2786,-0.012573,0.008911,-0.989197,0.190321,0.447634,0.067481,47,270,584,5648
1644165649.327017,-0.00946,0.010681,-0.991699,0.190321,0.325496,-0.161527,55,274,576,5552
1644165649.375388,-0.011047,0.009888,-0.992493,0.220855,0.325496,-0.207328,66,270,572,5600
1644165649.42379,-0.010742,0.012573,-0.992004,0.281924,0.218626,-0.207328,49,270,570,5600
1644165649.472395,-0.007874,0.010437,-0.98938,0.220855,0.432366,-0.069924,51,269,576,5584
1644165649.520556,-0.008911,0.008606,-0.994202,0.113985,0.432366,0.113282,59,265,579,5552
1644165649.568959,-0.009888,0.01178,-0.991211,0.35826,0.417099,-0.115725,38,265,577,5648
1644165649.617335,-0.008057,0.009094,-0.991333,0.327725,0.447634,-0.039389,52,275,575,5632
1644165649.665706,-0.011597,0.009033,-0.989563,0.342992,0.447634,-0.039389,49,275,579,5600
1644165649.714128,-0.012146,0.008667,-0.990356,0.419328,0.386565,-0.085191,57,277,575,5584
1644165649.762513,-0.01062,0.012085,-0.990906,0.236122,0.356031,-0.14626,55,279,571,5664
1644165649.810957,-0.013428,0.012756,-0.992676,0.327725,0.340763,0.113282,48,276,573,5552
1644165649.859309,-0.009216,0.008179,-0.991516,0.236122,0.371298,-0.024122,58,276,571,5584
1644165649.907781,-0.006226,0.012634,-0.988464,0.281924,0.386565,-0.024122,54,270,579,5632
1644165649.956133,-0.010437,0.011963,-0.99054,0.342992,0.417099,-0.008855,45,277,584,5584
1644165650.004479,-0.010132,0.006287,-0.991089,0.312458,0.401832,-0.069924,54,273,577,5584
1644165650.075009,-0.008118,0.010498,-0.990479,0.236122,0.401832,-0.008855,46,266,578,5664
1644165650.104051,-0.009766,0.009094,-0.98822,0.205588,0.264427,0.052214,59,273,570,5600
1644165650.153099,-0.010254,0.008606,-0.991699,0.297191,0.432366,-0.192061,46,271,585,5600
1644165650.198067,-0.012634,0.009033,-0.994812,0.495664,0.401832,-0.207328,64,275,575,5536
1644165650.294875,-0.009338,0.01178,-0.993103,0.35826,0.417099,-0.008855,58,283,571,5552
1644165650.343223,-0.008972,0.011169,-0.991333,0.297191,0.294962,-0.054656,53,271,583,5632
1644165650.391578,-0.008789,0.007874,-0.992676,0.068183,0.478168,-0.008855,45,265,582,5632
1644165650.439981,-0.007751,0.010986,-0.988586,0.175053,0.24916,-0.054656,45,270,579,5600
1644165650.488345,-0.006592,0.007568,-0.992004,0.327725,0.340763,-0.069924,45,270,575,5648
1644165650.536754,-0.012024,0.009766,-0.990356,0.281924,0.417099,-0.130992,52,277,575,5584
1644165650.585167,-0.009583,0.01178,-0.995239,0.342992,0.523969,-0.024122,54,275,586,5536
1644165650.633534,-0.010376,0.011353,-0.989868,0.35826,0.325496,-0.283664,51,274,566,5584
1644165650.681933,-0.011108,0.013611,-0.992737,0.251389,0.478168,0.052214,52,268,577,5584
1644165650.73032,-0.007568,0.008057,-0.991455,0.205588,0.462901,-0.024122,51,269,573,5600
1644165650.778716,-0.012024,0.008911,-0.991333,0.327725,0.432366,-0.100458,49,275,579,5600
1644165650.827142,-0.013611,0.009644,-0.991211,0.251389,0.264427,-0.100458,51,271,566,5600
1644165650.875528,-0.010071,0.011292,-0.992615,0.175053,0.523969,-0.085191,49,273,572,5584
1644165650.923932,-0.009521,0.009033,-0.991882,0.220855,0.356031,-0.039389,47,263,575,5600
1644165650.972326,-0.010742,0.009888,-0.990967,0.175053,0.340763,-0.069924,43,276,576,5584
1644165651.020703,-0.006958,0.009827,-0.987854,0.113985,0.386565,-0.14626,48,274,576,5536
1644165651.072549,-0.012024,0.010803,-0.99292,0.327725,0.417099,-0.069924,59,273,575,5584
1644165651.118741,-0.010498,0.009399,-0.991516,0.205588,0.462901,-0.085191,43,269,576,5584
1644165651.167181,-0.010559,0.008179,-0.990601,0.251389,0.523969,-0.161527,48,279,578,5600
1644165651.217833,-0.008057,0.010071,-0.991699,0.35826,0.386565,-0.024122,49,273,575,5584
1644165651.267613,-0.009766,0.011414,-0.990417,0.190321,0.218626,-0.054656,53,279,569,5600
1644165651.359394,-0.010376,0.010681,-0.990234,0.251389,0.493435,-0.100458,51,271,559,5600
1644165651.407774,-0.009827,0.010315,-0.99115,0.404061,0.554504,-0.069924,47,273,570,5600
1644165651.456163,-0.010803,0.010559,-0.992065,0.144519,0.310229,-0.161527,57,270,568,5648
1644165651.504831,-0.00946,0.007996,-0.991089,0.220855,0.493435,-0.192061,51,271,576,5584
1644165651.552953,-0.008972,0.009094,-0.994995,0.205588,0.294962,-0.14626,59,280,575,5648
1644165651.601339,-0.008301,0.010315,-0.987244,0.297191,0.432366,-0.329466,53,274,578,5696
1644165651.649733,-0.00708,0.011169,-0.991089,0.190321,0.401832,-0.237863,49,277,577,5600
1644165651.698127,-0.011841,0.011536,-0.99054,0.35826,0.401832,-0.100458,46,271,576,5536
1644165651.746491,-0.010437,0.008423,-0.989075,0.373527,0.447634,-0.176794,57,270,572,5584
1644165651.79493,-0.009583,0.011108,-0.991089,0.342992,0.508702,-0.115725,59,273,568,5584
1644165651.843362,-0.009766,0.009277,-0.993652,0.236122,0.24916,-0.100458,40,270,579,5584
1644165651.891722,-0.008789,0.01178,-0.992798,0.220855,0.386565,-0.100458,53,279,573,5584
1644165651.940092,-0.010986,0.007385,-0.991211,0.144519,0.432366,-0.161527,54,275,579,5584
1644165651.98851,-0.007812,0.009033,-0.992126,0.342992,0.432366,-0.25313,45,275,572,5600
1644165652.047992,-0.009644,0.008179,-0.991028,0.205588,0.264427,-0.14626,48,271,571,5664
1644165652.087755,-0.007385,0.009216,-0.989807,0.144519,0.432366,-0.008855,52,270,575,5552
1644165652.133646,-0.012268,0.010254,-0.993958,0.236122,0.508702,-0.100458,51,271,578,5584
1644165652.182357,-0.010254,0.01001,-0.989868,0.266656,0.340763,-0.024122,51,283,571,5648
1644165652.230443,-0.011353,0.010437,-0.991577,0.297191,0.294962,-0.100458,49,275,593,5664
1644165652.280381,-0.009216,0.009583,-0.98877,0.312458,0.340763,0.036947,55,283,587,5648
1644165652.33044,-0.008667,0.009033,-0.991577,0.098718,0.432366,-0.085191,46,276,576,5600
1644165652.380593,-0.012573,0.009827,-0.993408,0.297191,0.447634,-0.207328,59,265,584,5584
1644165652.472391,-0.00946,0.008911,-0.992371,0.281924,0.523969,-0.222595,57,282,577,5600
1644165652.520757,-0.008179,0.011292,-0.992188,0.251389,0.294962,-0.085191,46,266,580,5600
1644165652.569154,-0.010864,0.009399,-0.994202,0.190321,0.218626,-0.100458,42,280,575,5552
1644165652.617526,-0.009338,0.009155,-0.991272,0.236122,0.325496,0.067481,61,273,575,5584
1644165652.665931,-0.010742,0.010193,-0.992004,0.113985,0.172824,-0.207328,53,276,573,5632
1644165652.714323,-0.009949,0.009155,-0.990723,0.236122,0.539237,-0.039389,49,282,570,5648
1644165652.762735,-0.007568,0.008667,-0.990967,0.098718,0.356031,-0.14626,49,270,577,5600
1644165652.811105,-0.00946,0.009216,-0.99231,0.236122,0.294962,-0.024122,45,275,575,5632
1644165652.859537,-0.005676,0.009155,-0.989014,0.190321,0.493435,-0.176794,34,264,583,5648
1644165652.907965,-0.011963,0.010193,-0.991089,0.373527,0.386565,-0.069924,49,270,575,5584
1644165652.956308,-0.011047,0.010376,-0.9953,0.251389,0.340763,-0.008855,51,276,566,5648
1644165653.004827,-0.008057,0.010132,-0.990112,0.327725,0.356031,-0.115725,58,271,576,5600
1644165653.06546,-0.011658,0.009277,-0.990356,0.236122,0.24916,0.052214,51,279,587,5584
1644165653.101498,-0.010315,0.008179,-0.990417,0.144519,0.24916,-0.069924,49,273,572,5648
1644165653.149838,-0.010986,0.010742,-0.992188,0.205588,0.523969,-0.054656,58,274,580,5552
1644165653.198231,-0.00708,0.007629,-0.992188,0.220855,0.417099,0.082748,49,273,586,5536
1644165653.246616,-0.010864,0.010681,-0.990112,0.190321,0.401832,-0.115725,49,280,575,5552
1644165653.295069,-0.009949,0.011597,-0.990356,0.190321,0.401832,-0.237863,51,271,576,5600
1644165653.34371,-0.011597,0.008057,-0.989807,0.08345,0.417099,-0.024122,49,273,565,5584
1644165653.393077,-0.010437,0.008911,-0.988708,0.175053,0.264427,-0.039389,53,271,573,5600
1644165653.443409,-0.008484,0.008179,-0.992859,0.144519,0.462901,-0.054656,46,279,571,5584
1644165653.494122,-0.008606,0.010864,-0.991333,0.373527,0.508702,-0.14626,55,264,580,5600
1644165653.585459,-0.009766,0.011353,-0.991333,0.281924,0.417099,-0.115725,42,268,577,5600
1644165653.633755,-0.010071,0.006653,-0.992554,0.236122,0.310229,-0.237863,49,268,579,5520
1644165653.682381,-0.007996,0.009583,-0.989563,0.205588,0.432366,-0.115725,48,271,569,5584
1644165653.731529,-0.009399,0.008789,-0.990662,0.236122,0.447634,-0.222595,48,281,576,5584
1644165653.778913,-0.011353,0.008423,-0.99054,0.297191,0.310229,-0.039389,52,285,579,5584
1644165653.827294,-0.009705,0.008301,-0.991699,0.159786,0.401832,-0.176794,57,273,561,5584
1644165653.875729,-0.010193,0.009216,-0.991028,0.312458,0.478168,-0.222595,47,265,568,5648
1644165653.924123,-0.009644,0.008301,-0.992188,0.144519,0.386565,0.067481,57,265,561,5552
1644165653.972492,-0.007507,0.010681,-0.988281,0.205588,0.462901,-0.130992,48,276,576,5584
1644165654.020893,-0.008972,0.011902,-0.992859,0.419328,0.447634,-0.161527,54,277,582,5632
1644165654.075476,-0.009583,0.011475,-0.990295,0.327725,0.294962,-0.100458,51,276,583,5584
1644165654.117692,-0.009521,0.009644,-0.992249,0.190321,0.386565,-0.069924,48,286,580,5632
1644165654.166038,-0.011353,0.009705,-0.991943,0.007115,0.371298,-0.115725,51,271,576,5664
1644165654.214423,-0.009277,0.010132,-0.990356,0.266656,0.340763,0.006412,48,269,576,5600
1644165654.262795,-0.010986,0.007812,-0.994141,0.144519,0.478168,-0.130992,47,282,582,5600
1644165654.311214,-0.011292,0.009766,-0.992493,0.297191,0.401832,-0.024122,59,273,572,5600
1644165654.360975,-0.011902,0.007751,-0.993652,0.159786,0.493435,-0.100458,53,274,573,5648
1644165654.411329,-0.009094,0.009888,-0.990479,0.190321,0.279695,0.021679,58,279,559,5648
1644165654.461374,-0.01062,0.010132,-0.993164,0.220855,0.356031,-0.130992,47,273,575,5584
1644165654.553166,-0.008057,0.010986,-0.993713,0.327725,0.386565,0.143817,47,273,579,5552
1644165654.60154,-0.012146,0.01001,-0.992737,0.251389,0.417099,-0.14626,51,274,585,5584
1644165654.649926,-0.011292,0.011658,-0.991211,0.342992,0.432366,-0.222595,54,268,589,5600
1644165654.698315,-0.008362,0.011292,-0.992981,0.297191,0.478168,-0.161527,40,273,575,5552
1644165654.746712,-0.00885,0.008362,-0.989746,0.190321,0.401832,-0.207328,65,269,580,5632
1644165654.79513,-0.008301,0.008179,-0.992249,0.281924,0.417099,-0.024122,52,275,568,5600
1644165654.843503,-0.009644,0.009399,-0.992188,0.327725,0.432366,-0.283664,40,273,577,5584
1644165654.891901,-0.010376,0.00946,-0.993042,0.35826,0.462901,-0.024122,58,274,583,5600
1644165654.94031,-0.012451,0.00769,-0.992004,0.266656,0.386565,-0.069924,49,282,577,5584
1644165654.988676,-0.008789,0.010986,-0.991577,0.236122,0.325496,-0.14626,51,274,571,5600
1644165655.050973,-0.012024,0.010925,-0.991089,0.297191,0.523969,0.113282,54,280,563,5648
1644165655.08755,-0.008118,0.009888,-0.990784,0.175053,0.462901,-0.069924,46,276,583,5600
1644165655.133904,-0.010071,0.010925,-0.991882,0.281924,0.371298,-0.039389,49,273,575,5584
1644165655.182291,-0.010315,0.01062,-0.992432,0.220855,0.340763,-0.14626,58,279,580,5648
1644165655.230656,-0.009644,0.008728,-0.990784,0.022382,0.478168,-0.14626,51,274,569,5584
1644165655.279042,-0.009949,0.009583,-0.992004,0.129252,0.401832,-0.039389,54,280,577,5648
1644165655.327447,-0.010132,0.009827,-0.99231,0.144519,0.462901,-0.14626,53,271,580,5600
1644165655.376183,-0.011475,0.005798,-0.992065,0.342992,0.294962,-0.054656,47,275,575,5584
1644165655.424244,-0.010559,0.010193,-0.991577,0.312458,0.401832,0.021679,49,265,582,5584
1644165655.474645,-0.008972,0.011047,-0.988159,0.297191,0.417099,-0.161527,42,273,575,5696
1644165655.525568,-0.010681,0.009644,-0.99292,0.327725,0.401832,-0.192061,51,266,573,5536
1644165655.574219,-0.010254,0.010132,-0.99176,0.266656,0.432366,-0.085191,51,271,576,5584
1644165655.619031,-0.011047,0.007812,-0.99176,0.205588,0.356031,-0.100458,61,285,572,5648
1644165655.714838,-0.010742,0.006165,-0.993164,0.297191,0.417099,0.021679,57,270,572,5632
1644165655.762938,-0.009338,0.011902,-0.987915,0.342992,0.447634,-0.314198,51,286,576,5648
1644165655.811347,-0.010376,0.010559,-0.992249,0.297191,0.325496,-0.14626,53,271,578,5584
1644165655.859734,-0.008484,0.011475,-0.990662,0.297191,0.294962,-0.130992,47,268,577,5552
1644165655.908115,-0.010986,0.011536,-0.99115,0.205588,0.203359,-0.161527,55,279,585,5600
1644165655.956487,-0.009338,0.010559,-0.993896,0.297191,0.264427,-0.069924,53,279,585,5584
1644165656.004884,-0.008484,0.013794,-0.990845,0.220855,0.279695,-0.115725,58,279,571,5584
1644165656.055583,-0.008667,0.011536,-0.992615,0.098718,0.401832,-0.100458,52,277,577,5536
1644165656.101616,-0.007446,0.009338,-0.991577,0.281924,0.478168,-0.14626,51,283,576,5584
1644165656.150006,-0.012085,0.010132,-0.992615,0.220855,0.478168,-0.161527,55,269,569,5552
1644165656.198423,-0.009949,0.007324,-0.990784,0.327725,0.386565,0.036947,57,273,572,5648
1644165656.246799,-0.012573,0.010498,-0.995544,0.327725,0.386565,-0.054656,53,271,580,5584
1644165656.295263,-0.009277,0.007812,-0.99176,0.388794,0.523969,-0.14626,59,275,582,5584
1644165656.343608,-0.008484,0.011353,-0.989014,0.220855,0.508702,-0.008855,49,270,579,5584
1644165656.391993,-0.01001,0.010376,-0.991516,0.159786,0.447634,-0.085191,51,274,576,5648
1644165656.440371,-0.008545,0.010742,-0.990479,0.342992,0.386565,-0.14626,51,274,583,5632
1644165656.488756,-0.010986,0.008789,-0.992798,0.312458,0.447634,-0.069924,55,271,578,5584
1644165656.537132,-0.007751,0.010864,-0.990356,0.297191,0.569771,-0.237863,55,276,571,5584
1644165656.585735,-0.008484,0.010559,-0.990479,0.205588,0.401832,-0.192061,46,274,569,5584
1644165656.634501,-0.009094,0.009521,-0.988159,0.098718,0.508702,-0.054656,59,270,582,5632
1644165656.685044,-0.014221,0.009949,-0.993408,0.373527,0.386565,-0.008855,49,275,572,5632
1644165656.735241,-0.011108,0.009155,-0.991455,0.251389,0.478168,-0.100458,51,262,566,5600
1644165656.780207,-0.012573,0.010437,-0.992004,0.220855,0.279695,0.021679,49,265,577,5584
1644165656.875942,-0.009338,0.008789,-0.987976,0.113985,0.294962,-0.176794,54,282,568,5664
1644165656.92431,-0.010986,0.009949,-0.991638,0.327725,0.508702,-0.024122,61,280,577,5600
1644165656.972698,-0.010986,0.009827,-0.98877,0.175053,0.371298,-0.085191,48,276,578,5536
1644165657.021093,-0.011414,0.00592,-0.992859,0.266656,0.447634,-0.054656,55,269,564,5600
1644165657.07688,-0.010376,0.011353,-0.992371,0.251389,0.310229,-0.14626,54,280,575,5600
1644165657.117827,-0.009033,0.011658,-0.991577,0.113985,0.386565,-0.222595,61,275,570,5552
1644165657.16622,-0.008972,0.008179,-0.990784,0.144519,0.325496,-0.054656,53,266,569,5600
1644165657.214652,-0.009705,0.011108,-0.991028,0.449863,0.417099,-0.085191,46,279,573,5648
1644165657.263,-0.009644,0.008667,-0.990601,0.342992,0.386565,-0.115725,46,274,569,5584
1644165657.31138,-0.011292,0.011963,-0.99231,0.190321,0.340763,-0.069924,46,283,571,5632
1644165657.359795,-0.012085,0.011292,-0.994446,0.159786,0.447634,-0.130992,57,275,579,5584
1644165657.408154,-0.011353,0.009033,-0.992859,0.342992,0.386565,-0.130992,48,271,583,5632
1644165657.456561,-0.008667,0.00946,-0.994324,0.327725,0.325496,-0.039389,54,280,575,5600
1644165657.505087,-0.00885,0.010193,-0.98999,0.297191,0.447634,-0.130992,53,269,580,5584
1644165657.55334,-0.011414,0.005798,-0.994934,0.297191,0.478168,-0.161527,51,271,580,5648
1644165657.601728,-0.007568,0.008789,-0.992249,0.159786,0.432366,-0.039389,53,279,583,5600
1644165657.650125,-0.008179,0.011414,-0.990784,0.434595,0.325496,-0.115725,41,281,578,5536
1644165657.698529,-0.011169,0.010193,-0.988953,0.327725,0.310229,-0.069924,55,283,578,5600
1644165657.746891,-0.011047,0.009155,-0.99353,0.281924,0.493435,-0.054656,53,279,569,5584
1644165657.795854,-0.012024,0.011475,-0.992004,0.251389,0.600305,0.036947,42,273,572,5536
1644165657.846783,-0.008057,0.011902,-0.991882,0.266656,0.340763,-0.192061,54,270,565,5584
1644165657.897002,-0.00885,0.00946,-0.992249,0.297191,0.417099,-0.237863,45,280,577,5584
1644165657.9414,-0.009399,0.010559,-0.989441,0.35826,0.462901,-0.237863,58,271,573,5648
1644165658.045445,-0.009033,0.012207,-0.991333,0.236122,0.310229,-0.25313,48,281,576,5600
1644165658.087838,-0.008972,0.011475,-0.989929,0.159786,0.386565,-0.085191,49,280,577,5664
1644165658.134031,-0.008179,0.009888,-0.990295,0.098718,0.447634,-0.069924,49,273,572,5552
1644165658.182441,-0.01062,0.011963,-0.988525,0.190321,0.432366,-0.054656,42,280,582,5584
1644165658.230814,-0.010559,0.011292,-0.993774,0.266656,0.478168,-0.039389,41,279,583,5584
1644165658.279203,-0.009644,0.011047,-0.990234,0.35826,0.539237,-0.222595,42,280,579,5536
1644165658.327592,-0.009827,0.011475,-0.990906,0.159786,0.478168,-0.069924,42,273,584,5648
1644165658.375981,-0.005737,0.01001,-0.989441,0.312458,0.386565,-0.14626,51,271,585,5584
1644165658.424373,-0.009949,0.011108,-0.99054,0.297191,0.447634,0.006412,51,276,580,5584
1644165658.47278,-0.011963,0.007263,-0.991638,0.373527,0.401832,-0.069924,47,282,577,5664
1644165658.521144,-0.010437,0.009644,-0.989746,0.205588,0.325496,0.006412,47,282,579,5600
1644165658.569557,-0.010681,0.009033,-0.991516,0.144519,0.356031,-0.039389,52,260,591,5600
1644165658.619137,-0.010071,0.008667,-0.992981,0.205588,0.310229,-0.008855,54,268,563,5648
1644165658.669521,-0.008911,0.010071,-0.992554,0.159786,0.478168,-0.115725,52,265,579,5664
1644165658.719893,-0.00885,0.009583,-0.990356,0.251389,0.386565,-0.268397,58,279,573,5584
1644165658.811561,-0.010498,0.010803,-0.993408,0.35826,0.279695,0.006412,48,266,571,5584
1644165658.859913,-0.013245,0.009705,-0.991455,0.266656,0.310229,-0.237863,47,263,575,5632
1644165658.908305,-0.007385,0.012756,-0.99231,0.297191,0.371298,-0.085191,58,281,578,5536
1644165658.956693,-0.010193,0.011414,-0.991211,0.312458,0.417099,-0.008855,54,268,582,5648
1644165659.005141,-0.009033,0.007507,-0.990967,0.266656,0.447634,0.006412,43,269,576,5584
1644165659.054901,-0.010742,0.010925,-0.994385,0.373527,0.386565,-0.192061,55,274,576,5584
1644165659.101848,-0.010376,0.008118,-0.98938,0.144519,0.401832,-0.024122,49,270,582,5584
1644165659.15023,-0.008545,0.01001,-0.991455,0.022382,0.478168,-0.008855,51,274,576,5600
1644165659.198626,-0.011353,0.006592,-0.990662,0.144519,0.356031,-0.237863,49,277,584,5600
1644165659.246992,-0.007019,0.013245,-0.991943,0.220855,0.340763,-0.115725,53,274,585,5600
1644165659.295378,-0.010681,0.010132,-0.991272,0.205588,0.371298,-0.054656,47,280,572,5584
1644165659.343783,-0.007751,0.010986,-0.993164,0.327725,0.401832,-0.176794,51,269,576,5648
1644165659.392233,-0.011658,0.011597,-0.993164,0.342992,0.417099,-0.207328,53,271,580,5648
1644165659.440553,-0.007874,0.010742,-0.991455,0.175053,0.493435,-0.069924,52,280,572,5584
1644165659.489304,-0.009277,0.012268,-0.991577,0.281924,0.294962,0.036947,53,271,580,5648
1644165659.537352,-0.012268,0.009216,-0.990234,0.281924,0.417099,-0.100458,54,277,582,5584
1644165659.585711,-0.007996,0.009033,-0.992554,0.113985,0.508702,-0.176794,61,280,593,5536
1644165659.634449,-0.007935,0.00946,-0.990845,0.220855,0.508702,-0.069924,49,277,579,5600
1644165659.683383,-0.009338,0.009644,-0.992065,0.251389,0.523969,-0.115725,51,269,566,5600
1644165659.734014,-0.010437,0.011108,-0.992737,0.236122,0.218626,-0.085191,51,271,580,5552
1644165659.784082,-0.010376,0.010498,-0.993042,0.022382,0.508702,-0.130992,47,273,565,5600
1644165659.876101,-0.010925,0.009521,-0.993042,0.281924,0.432366,-0.130992,51,271,578,5584
1644165659.924516,-0.011047,0.010132,-0.989197,0.190321,0.478168,-0.161527,49,275,584,5632
1644165659.972906,-0.007874,0.008545,-0.994385,0.404061,0.432366,-0.069924,43,264,578,5584
1644165660.021301,-0.010071,0.01001,-0.992981,0.236122,0.417099,-0.115725,54,285,575,5600
1644165660.07498,-0.006836,0.010498,-0.991882,0.281924,0.401832,-0.085191,51,274,578,5536
1644165660.11808,-0.005371,0.012512,-0.990051,0.129252,0.539237,-0.100458,46,276,578,5584
1644165660.166429,-0.011292,0.010742,-0.990601,0.220855,0.447634,-0.024122,54,277,575,5584
1644165660.214836,-0.007996,0.012756,-0.990417,0.46513,0.462901,-0.039389,60,274,578,5552
1644165660.263181,-0.011536,0.011108,-0.989014,0.190321,0.417099,-0.008855,51,271,583,5584
1644165660.311589,-0.013794,0.009705,-0.991089,0.297191,0.462901,-0.207328,52,268,577,5600
1644165660.359973,-0.008789,0.009094,-0.987488,0.35826,0.340763,-0.085191,48,271,578,5600
1644165660.408365,-0.00885,0.009338,-0.988525,0.342992,0.386565,-0.039389,53,276,571,5696
1644165660.457012,-0.009277,0.011475,-0.991028,0.419328,0.356031,-0.130992,49,268,575,5584
1644165660.5075,-0.009094,0.010071,-0.990845,0.281924,0.401832,0.082748,53,274,578,5584
1644165660.557913,-0.008545,0.011597,-0.992615,0.342992,0.508702,-0.161527,46,274,576,5648
1644165660.60272,-0.009216,0.008728,-0.991455,0.312458,0.356031,-0.115725,52,270,577,5552
1644165660.6987,-0.008972,0.010559,-0.990845,0.342992,0.432366,-0.008855,43,269,569,5600
1644165660.747093,-0.01355,0.007446,-0.992432,0.342992,0.356031,-0.054656,55,279,576,5600
1644165660.795467,-0.011108,0.010193,-0.991333,0.434595,0.294962,-0.14626,48,279,569,5648
1644165660.843938,-0.011841,0.008423,-0.990356,0.236122,0.294962,-0.039389,62,274,573,5648
1644165660.892319,-0.008972,0.009399,-0.991943,0.220855,0.386565,-0.115725,53,283,571,5584
1644165660.940717,-0.011841,0.009827,-0.991455,0.266656,0.432366,-0.130992,49,275,575,5648
1644165660.989096,-0.009888,0.007629,-0.991699,0.297191,0.386565,-0.024122,51,266,573,5648
1644165661.043554,-0.013428,0.00946,-0.993225,0.220855,0.600305,-0.130992,55,276,580,5584
1644165661.086685,-0.009644,0.011841,-0.994568,0.068183,0.462901,-0.14626,49,275,575,5584
1644165661.134295,-0.008667,0.010925,-0.993652,0.281924,0.401832,0.036947,52,277,572,5648
1644165661.182669,-0.008484,0.012085,-0.990601,0.220855,0.554504,-0.161527,47,273,572,5600
1644165661.231052,-0.011719,0.009644,-0.991333,0.159786,0.478168,-0.100458,46,281,571,5584
1644165661.279442,-0.008972,0.007141,-0.992676,0.098718,0.325496,-0.039389,53,262,576,5632
1644165661.327834,-0.009521,0.01001,-0.993042,0.327725,0.401832,-0.039389,49,265,575,5600
1644165661.37621,-0.010254,0.00824,-0.991516,0.220855,0.462901,-0.14626,48,274,576,5648
1644165661.424678,-0.01001,0.010803,-0.992493,0.35826,0.462901,-0.100458,43,271,583,5632
1644165661.473015,-0.00946,0.006165,-0.990356,0.205588,0.325496,-0.115725,57,265,579,5552
1644165661.522181,-0.007874,0.007751,-0.989197,0.236122,0.310229,-0.100458,59,260,589,5584
1644165661.570211,-0.007263,0.008545,-0.989075,0.236122,0.539237,-0.069924,51,279,566,5584
1644165661.620489,-0.00708,0.007751,-0.992188,0.236122,0.340763,-0.069924,48,271,571,5648
1644165661.670659,-0.011902,0.010498,-0.991089,0.251389,0.432366,-0.176794,47,273,582,5584
1644165661.715163,-0.009949,0.010681,-0.990112,0.220855,0.340763,-0.024122,53,276,580,5664
1644165661.811725,-0.008972,0.007935,-0.99176,0.220855,0.554504,-0.024122,61,268,570,5488
1644165661.860112,-0.009644,0.009521,-0.990112,0.144519,0.554504,-0.115725,45,275,572,5584
1644165661.908505,-0.008789,0.007385,-0.991821,0.297191,0.432366,-0.100458,54,270,575,5664
1644165661.956896,-0.00824,0.007996,-0.993164,0.220855,0.417099,0.052214,41,271,578,5600
1644165662.005277,-0.009644,0.010681,-0.992981,0.220855,0.478168,-0.069924,49,275,570,5584
1644165662.054288,-0.012573,0.009216,-0.992126,0.159786,0.356031,-0.054656,53,274,576,5664
1644165662.102056,-0.009216,0.01239,-0.992065,0.175053,0.523969,-0.024122,46,271,578,5552
1644165662.1504,-0.011292,0.012146,-0.992737,0.312458,0.523969,-0.130992,61,275,570,5648
1644165662.198814,-0.010681,0.009033,-0.990417,0.220855,0.417099,0.006412,49,277,582,5552
1644165662.24718,-0.010742,0.008972,-0.992432,0.327725,0.371298,-0.25313,48,269,578,5584
1644165662.295595,-0.011108,0.010132,-0.990723,0.129252,0.310229,-0.054656,48,271,576,5600
1644165662.343988,-0.009827,0.010559,-0.994263,0.205588,0.401832,-0.008855,45,277,570,5584
1644165662.392395,-0.011108,0.007812,-0.991028,0.236122,0.462901,-0.069924,57,275,570,5648
1644165662.440767,-0.009033,0.007751,-0.992798,0.220855,0.478168,-0.008855,51,283,571,5632
1644165662.489331,-0.011841,0.013,-0.992493,0.266656,0.554504,-0.085191,53,279,578,5552
1644165662.537549,-0.010071,0.008972,-0.990723,0.190321,0.371298,-0.085191,45,277,584,5632
1644165662.585931,-0.011597,0.010925,-0.993652,0.281924,0.356031,-0.039389,52,260,577,5584
1644165662.634332,-0.009583,0.008972,-0.993164,0.312458,0.386565,0.006412,46,269,580,5536
1644165662.682777,-0.011414,0.009338,-0.993591,0.144519,0.356031,0.036947,51,271,573,5584
1644165662.73264,-0.011963,0.007568,-0.992432,0.297191,0.356031,-0.192061,47,277,582,5648
1644165662.784648,-0.008179,0.008972,-0.994263,0.144519,0.340763,0.006412,64,275,577,5600
1644165662.8288,-0.008118,0.007385,-0.992798,0.205588,0.417099,-0.130992,58,266,576,5648
1644165662.924892,-0.010559,0.010681,-0.992249,0.175053,0.462901,-0.085191,38,275,575,5648
1644165662.973103,-0.01001,0.007202,-0.991943,0.175053,0.386565,-0.100458,42,277,572,5648
1644165663.0215,-0.012146,0.008789,-0.991516,0.08345,0.386565,-0.085191,60,279,576,5600
1644165663.071938,-0.010559,0.009094,-0.988403,0.236122,0.432366,-0.115725,55,266,576,5552
1644165663.118222,-0.00946,0.009766,-0.992676,0.159786,0.371298,-0.085191,52,273,565,5648
1644165663.166622,-0.009644,0.009644,-0.991638,0.266656,0.386565,-0.115725,51,281,580,5664
1644165663.21504,-0.010681,0.012024,-0.992065,0.159786,0.340763,-0.100458,46,281,580,5536
1644165663.263396,-0.010864,0.011353,-0.99054,0.236122,0.417099,-0.130992,52,277,579,5600
1644165663.311788,-0.008545,0.012085,-0.992065,0.236122,0.401832,0.006412,47,270,572,5584
1644165663.360188,-0.010132,0.006042,-0.992676,0.342992,0.508702,-0.085191,52,280,577,5584
1644165663.408566,-0.011841,0.00824,-0.992249,0.327725,0.478168,-0.130992,49,273,579,5648
1644165663.457283,-0.010071,0.011353,-0.991821,0.266656,0.340763,-0.085191,54,270,577,5664
1644165663.506337,-0.01123,0.009949,-0.992004,0.098718,0.493435,-0.161527,53,279,576,5584
1644165663.556886,-0.009766,0.008728,-0.989868,0.236122,0.371298,0.006412,48,279,571,5552
1644165663.606843,-0.008606,0.008911,-0.991455,0.297191,0.508702,-0.115725,46,276,583,5648
1644165663.698917,-0.010193,0.010071,-0.992615,0.190321,0.569771,-0.130992,35,277,577,5584
1644165663.747273,-0.007996,0.008118,-0.992126,0.159786,0.371298,-0.14626,64,277,579,5584
1644165663.79589,-0.008728,0.009644,-0.993591,0.175053,0.401832,-0.100458,52,273,575,5584
1644165663.844136,-0.011047,0.012756,-0.992249,0.236122,0.417099,-0.069924,52,280,577,5600
1644165663.892497,-0.00885,0.010559,-0.992004,0.327725,0.478168,-0.054656,53,276,576,5520
1644165663.940909,-0.007568,0.011353,-0.992432,0.159786,0.401832,-0.237863,49,270,575,5584
1644165663.989272,-0.010559,0.011902,-0.992554,0.236122,0.340763,-0.14626,59,277,570,5552
1644165664.053894,-0.01239,0.012512,-0.993103,0.251389,0.24916,-0.14626,59,268,586,5600
1644165664.088095,-0.008423,0.007935,-0.992249,0.052916,0.462901,0.036947,49,270,579,5536
1644165664.134455,-0.011475,0.01001,-0.992859,0.297191,0.401832,-0.069924,52,273,568,5648
1644165664.182811,-0.010925,0.009888,-0.991211,0.190321,0.554504,-0.069924,58,281,573,5600
1644165664.231197,-0.010803,0.009766,-0.992981,0.068183,0.356031,-0.14626,57,268,577,5600
1644165664.279587,-0.009094,0.010071,-0.990112,0.327725,0.386565,-0.039389,45,270,575,5584
1644165664.327978,-0.010376,0.012329,-0.990967,0.251389,0.356031,-0.039389,55,271,585,5600
1644165664.37637,-0.007141,0.009949,-0.989807,0.144519,0.462901,-0.192061,48,279,573,5648
1644165664.424769,-0.010437,0.005615,-0.98938,0.098718,0.554504,-0.069924,53,274,576,5632
1644165664.473165,-0.012024,0.007751,-0.99176,0.327725,0.401832,-0.085191,53,276,578,5632
1644165664.521618,-0.01239,0.010254,-0.992676,0.266656,0.462901,-0.085191,54,270,575,5584
1644165664.570963,-0.009094,0.008301,-0.992371,0.281924,0.447634,-0.115725,52,268,589,5632
1644165664.621337,-0.009216,0.009033,-0.993408,0.175053,0.371298,-0.176794,45,273,575,5584
1644165664.671632,-0.008362,0.009277,-0.991516,0.007115,0.264427,-0.161527,57,268,582,5536
1644165664.76352,-0.009033,0.00824,-0.991516,0.190321,0.356031,-0.100458,47,280,582,5648
1644165664.81191,-0.010071,0.01001,-0.990173,0.08345,0.493435,-0.237863,47,270,575,5648
1644165664.860321,-0.009155,0.008423,-0.990295,0.129252,0.386565,-0.085191,52,277,572,5584
1644165664.90867,-0.010315,0.00824,-0.991455,0.236122,0.356031,-0.069924,46,276,576,5552
1644165664.957099,-0.012573,0.009277,-0.99231,0.35826,0.554504,-0.115725,52,273,572,5600
1644165665.005454,-0.012695,0.009644,-0.991455,0.068183,0.462901,-0.237863,55,279,583,5632
1644165665.053951,-0.009949,0.009949,-0.990967,0.342992,0.325496,0.006412,64,275,577,5648
1644165665.102551,-0.011169,0.009521,-0.992798,0.175053,0.478168,0.021679,47,270,575,5664
1644165665.150625,-0.009949,0.009521,-0.990906,0.159786,0.569771,-0.130992,41,266,569,5552
1644165665.199004,-0.006958,0.010986,-0.991638,0.251389,0.462901,-0.298931,46,274,576,5648
1644165665.247375,-0.008545,0.009338,-0.996277,0.266656,0.432366,-0.085191,40,280,579,5584
1644165665.295786,-0.01001,0.009705,-0.992188,0.266656,0.432366,-0.14626,51,279,578,5584
1644165665.34419,-0.010315,0.011475,-0.991211,0.144519,0.417099,-0.024122,47,270,577,5632
1644165665.392591,-0.009827,0.011292,-0.990112,0.220855,0.401832,-0.161527,51,274,583,5584
1644165665.440956,-0.008423,0.009644,-0.992065,0.251389,0.371298,-0.024122,55,276,573,5552
1644165665.489375,-0.009033,0.011414,-0.992371,0.251389,0.371298,-0.192061,61,265,579,5600
1644165665.537739,-0.012329,0.008301,-0.992065,0.266656,0.401832,0.021679,47,275,579,5584
1644165665.586129,-0.00946,0.012146,-0.990784,0.190321,0.508702,-0.069924,58,286,583,5648
1644165665.634525,-0.009644,0.01062,-0.992798,0.312458,0.523969,-0.069924,60,276,576,5552
1644165665.683237,-0.010315,0.013,-0.98761,0.098718,0.478168,-0.222595,46,281,580,5552
1644165665.73386,-0.011536,0.009094,-0.991821,0.159786,0.417099,-0.024122,58,283,571,5648
1644165665.783768,-0.011841,0.008423,-0.992004,0.251389,0.310229,-0.237863,52,268,584,5664
1644165665.829715,-0.01123,0.009705,-0.990479,0.312458,0.356031,-0.100458,52,273,579,5600
1644165665.92494,-0.013733,0.00885,-0.990417,0.236122,0.508702,-0.14626,53,276,569,5648
1644165665.973312,-0.008789,0.008911,-0.990662,0.281924,0.432366,-0.176794,40,273,575,5648
1644165666.021682,-0.014893,0.009277,-0.990234,0.342992,0.401832,-0.024122,52,275,565,5632
1644165666.070132,-0.011597,0.010803,-0.990051,0.129252,0.340763,-0.069924,49,280,582,5648
1644165666.118448,-0.009033,0.011841,-0.988525,0.205588,0.371298,-0.237863,43,266,578,5600
1644165666.16681,-0.010376,0.012207,-0.991821,0.220855,0.447634,-0.176794,51,271,576,5600
1644165666.215245,-0.01178,0.009338,-0.992737,0.190321,0.203359,-0.039389,53,269,573,5584
1644165666.263587,-0.010254,0.009277,-0.99231,0.190321,0.340763,-0.161527,48,276,566,5600
1644165666.311962,-0.00824,0.011108,-0.99231,0.144519,0.325496,-0.176794,54,268,570,5584
1644165666.360393,-0.010193,0.012512,-0.99115,0.297191,0.508702,-0.25313,42,275,575,5648
1644165666.408771,-0.007629,0.010437,-0.99408,0.312458,0.539237,-0.161527,58,271,571,5600
1644165666.457169,-0.009644,0.00946,-0.992249,0.144519,0.508702,-0.207328,51,274,569,5584
1644165666.505548,-0.010254,0.008423,-0.99353,0.297191,0.447634,-0.100458,49,273,582,5584
1644165666.553952,-0.011963,0.008972,-0.990356,0.266656,0.508702,-0.14626,55,271,573,5584
1644165666.602345,-0.012207,0.011597,-0.991699,0.190321,0.386565,-0.069924,43,274,571,5600
1644165666.650708,-0.007629,0.010925,-0.991211,0.236122,0.294962,-0.115725,49,277,579,5648
1644165666.699104,-0.008362,0.01239,-0.994263,0.312458,0.401832,-0.207328,53,269,562,5584
1644165666.747488,-0.009399,0.008728,-0.990906,0.297191,0.172824,-0.314198,49,277,577,5584
1644165666.79588,-0.010498,0.01239,-0.990295,0.35826,0.24916,-0.14626,45,277,570,5648
1644165666.845202,-0.007935,0.010803,-0.992432,0.236122,0.294962,-0.283664,48,274,578,5536
1644165666.896099,-0.009766,0.007202,-0.991089,0.098718,0.554504,-0.130992,48,279,578,5648
1644165666.946572,-0.010925,0.007935,-0.991089,0.251389,0.493435,-0.176794,57,268,577,5584
1644165667.044635,-0.012939,0.009705,-0.991699,0.236122,0.356031,-0.283664,40,275,582,5584
1644165667.086222,-0.011841,0.008301,-0.990601,0.251389,0.401832,-0.039389,51,283,576,5552
1644165667.134658,-0.011719,0.008545,-0.994629,0.373527,0.279695,-0.161527,51,274,569,5600
1644165667.183021,-0.011963,0.00885,-0.991943,0.342992,0.325496,-0.14626,58,269,583,5648
1644165667.231375,-0.009644,0.009277,-0.991577,0.159786,0.569771,0.036947,51,271,580,5600
1644165667.279768,-0.01123,0.010681,-0.98999,0.068183,0.508702,-0.100458,41,276,573,5584
