epoch,acc_x,acc_y,acc_z,rot_x,rot_y,rot_z,mag_x,mag_y,mag_z,temp
1644182700.016719,-0.006104,0.008728,-0.989929,0.281924,0.539237,-0.207328,48,281,587,6176
1644182700.067338,-0.009094,0.013794,-0.992004,0.220855,0.310229,-0.054656,54,265,589,6224
1644182700.113499,-0.009155,0.011108,-0.991028,0.35826,0.340763,-0.054656,48,271,590,6192
1644182700.161897,-0.008545,0.011719,-0.993286,0.175053,0.401832,-0.25313,46,269,592,6176
1644182700.21028,-0.008118,0.009644,-0.993225,0.251389,0.386565,-0.069924,47,280,575,6128
1644182700.258679,-0.009216,0.010437,-0.992371,0.220855,0.386565,-0.085191,53,279,590,6240
1644182700.307059,-0.008057,0.011047,-0.990356,0.08345,0.493435,-0.130992,46,274,580,6240
1644182700.355464,-0.008057,0.009338,-0.992188,0.236122,0.417099,-0.069924,46,279,594,6224
1644182700.403858,-0.009766,0.008606,-0.992065,0.236122,0.417099,-0.14626,43,276,587,6160
1644182700.452274,-0.011047,0.009766,-0.991272,0.236122,0.417099,-0.039389,54,280,589,6240
1644182700.500609,-0.006653,0.009583,-0.991028,0.266656,0.310229,-0.085191,54,275,591,6192
1644182700.549008,-0.006653,0.008545,-0.991455,0.251389,0.417099,0.052214,54,277,591,6224
1644182700.597417,-0.010437,0.007324,-0.989685,0.144519,0.371298,-0.054656,42,265,582,6224
1644182700.646002,-0.007935,0.009216,-0.991455,0.35826,0.493435,-0.069924,42,280,584,6176
1644182700.696536,-0.009338,0.009216,-0.992004,0.159786,0.432366,-0.115725,48,269,580,6176
1644182700.746626,-0.008057,0.007751,-0.992493,0.08345,0.386565,-0.085191,51,279,585,6224
1644182700.791737,-0.010254,0.010681,-0.991455,0.205588,0.493435,-0.192061,58,279,587,6176
1644182700.887814,-0.009705,0.010193,-0.991455,0.052916,0.401832,-0.054656,51,264,580,6192
1644182700.936202,-0.005981,0.011414,-0.989319,0.175053,0.401832,0.098015,52,282,582,6128
1644182700.984901,-0.00885,0.008423,-0.991455,0.037649,0.24916,-0.054656,39,276,585,6128
1644182701.033019,-0.009705,0.009888,-0.989014,0.281924,0.447634,-0.176794,51,283,576,6192
1644182701.081462,-0.009277,0.01062,-0.98877,0.068183,0.371298,-0.054656,60,264,594,6176
1644182701.129725,-0.006409,0.008667,-0.992004,0.220855,0.462901,-0.222595,52,280,579,6176
1644182701.178136,-0.010864,0.011963,-0.994446,0.236122,0.386565,-0.14626,47,275,591,6240
1644182701.226512,-0.011536,0.008667,-0.989502,0.205588,0.386565,-0.054656,48,271,578,6192
1644182701.27493,-0.007812,0.012146,-0.991089,0.236122,0.478168,-0.115725,45,270,582,6224
1644182701.323328,-0.008179,0.009583,-0.989624,0.113985,0.386565,-0.130992,54,277,584,6128
1644182701.371725,-0.009949,0.008911,-0.989502,0.129252,0.432366,-0.314198,48,286,576,6176
1644182701.420095,-0.009216,0.009399,-0.989136,0.251389,0.401832,-0.207328,49,277,584,6176
1644182701.468506,-0.005859,0.009583,-0.993103,0.220855,0.447634,-0.115725,53,269,576,6224
1644182701.516861,-0.006226,0.009094,-0.991028,0.388794,0.447634,-0.192061,55,288,592,6112
1644182701.565295,-0.006958,0.010132,-0.990662,0.342992,0.371298,-0.100458,46,271,585,6224
1644182701.613678,-0.007874,0.01123,-0.988586,0.175053,0.432366,0.052214,52,273,582,6192
1644182701.662071,-0.010803,0.009949,-0.992188,0.190321,0.432366,0.021679,49,280,589,6192
1644182701.71045,-0.01123,0.010681,-0.989685,0.113985,0.447634,-0.192061,60,274,585,6240
1644182701.758861,-0.008667,0.009033,-0.99231,0.251389,0.447634,0.021679,40,277,582,6224
1644182701.807733,-0.008362,0.007996,-0.988892,0.251389,0.447634,-0.039389,54,275,579,6160
1644182701.858406,-0.008545,0.007141,-0.993103,0.113985,0.508702,-0.130992,36,281,583,6224
1644182701.908802,-0.010071,0.012817,-0.992126,0.312458,0.356031,-0.130992,48,271,594,6224
1644182701.953422,-0.008057,0.009338,-0.991943,0.159786,0.294962,-0.054656,47,280,579,6240
1644182702.067715,-0.00885,0.008911,-0.992371,0.129252,0.371298,-0.054656,45,282,572,6224
1644182702.09958,-0.008301,0.011719,-0.990417,0.388794,0.218626,-0.176794,53,281,578,6192
1644182702.145986,-0.009033,0.008118,-0.992432,0.251389,0.294962,0.052214,58,279,578,6176
1644182702.194394,-0.009888,0.008301,-0.992188,0.266656,0.386565,-0.024122,53,271,580,6192
1644182702.242793,-0.00708,0.008545,-0.990723,0.129252,0.218626,-0.14626,41,276,580,6224
1644182702.291157,-0.007019,0.008972,-0.993652,0.159786,0.356031,-0.039389,59,280,579,6192
1644182702.339533,-0.009155,0.010742,-0.989441,0.297191,0.417099,-0.054656,46,274,583,6224
1644182702.387957,-0.006348,0.009766,-0.992249,0.129252,0.432366,-0.14626,49,280,591,6256
1644182702.436351,-0.00769,0.009583,-0.988281,0.236122,0.325496,-0.069924,48,279,573,6224
1644182702.485104,-0.007263,0.010498,-0.991333,0.08345,0.447634,-0.161527,58,271,585,6176
1644182702.533813,-0.008179,0.009827,-0.989807,0.266656,0.417099,-0.100458,54,277,589,6192
1644182702.584389,-0.008057,0.00824,-0.990723,0.312458,0.447634,-0.130992,45,273,598,6224
1644182702.634384,-0.008545,0.011414,-0.990967,0.419328,0.371298,-0.176794,47,268,579,6224
1644182702.679552,-0.00824,0.01178,-0.991943,0.281924,0.539237,-0.222595,48,281,587,6128
1644182702.775385,-0.007935,0.006653,-0.990784,0.08345,0.478168,-0.039389,47,265,577,6160
1644182702.823502,-0.008728,0.01062,-0.991943,0.159786,0.386565,-0.085191,49,277,589,6192
1644182702.871928,-0.006775,0.009766,-0.992798,0.113985,0.325496,-0.100458,47,285,582,6224
1644182702.920307,-0.00531,0.012512,-0.991333,0.129252,0.401832,-0.039389,55,281,585,6224
1644182702.968693,-0.009399,0.007996,-0.990112,0.190321,0.325496,-0.069924,51,269,590,6240
1644182703.0171,-0.006958,0.014038,-0.988342,0.297191,0.539237,-0.085191,47,270,584,6192
1644182703.068262,-0.009705,0.011169,-0.991699,0.220855,0.386565,-0.115725,59,265,589,6224
1644182703.113854,-0.011414,0.012939,-0.990601,0.175053,0.432366,-0.008855,47,277,579,6160
1644182703.162287,-0.009399,0.010132,-0.990784,0.373527,0.401832,-0.008855,58,279,576,6128
1644182703.210633,-0.010193,0.007202,-0.990906,0.220855,0.294962,-0.14626,46,276,590,6240
1644182703.259034,-0.007996,0.011963,-0.988586,0.266656,0.417099,-0.14626,51,283,594,6128
1644182703.3074,-0.007263,0.008118,-0.992554,0.312458,0.478168,-0.085191,47,280,575,6160
1644182703.355819,-0.006348,0.01178,-0.98938,0.220855,0.24916,-0.130992,42,273,577,6192
1644182703.404226,-0.01062,0.011719,-0.989929,0.159786,0.294962,-0.039389,46,274,585,6240
1644182703.452621,-0.009338,0.006775,-0.990662,0.236122,0.371298,-0.115725,47,273,579,6176
1644182703.500998,-0.008911,0.009705,-0.992554,0.052916,0.356031,-0.14626,52,287,586,6176
1644182703.549366,-0.00824,0.010193,-0.99353,0.175053,0.508702,-0.176794,45,275,577,6192
1644182703.597782,-0.00885,0.010071,-0.989502,0.297191,0.386565,-0.115725,49,273,593,6128
1644182703.646171,-0.010071,0.012817,-0.993591,0.220855,0.371298,-0.008855,45,273,586,6160
1644182703.694941,-0.010254,0.00885,-0.991638,0.175053,0.432366,-0.054656,53,276,594,6192
1644182703.745453,-0.009399,0.007019,-0.994202,0.175053,0.417099,-0.054656,42,273,577,6224
1644182703.795315,-0.006592,0.011963,-0.99353,0.159786,0.585038,0.006412,47,270,589,6160
1644182703.840338,-0.01123,0.007385,-0.992004,0.220855,0.233893,-0.192061,59,265,589,6176
1644182703.936546,-0.010376,0.010132,-0.991943,0.236122,0.279695,-0.115725,48,279,583,6224
1644182703.985257,-0.007812,0.010925,-0.990417,0.297191,0.478168,-0.024122,42,290,589,6192
1644182704.033365,-0.008362,0.011841,-0.992126,0.327725,0.386565,-0.161527,48,276,590,6176
1644182704.081826,-0.009277,0.01123,-0.991882,0.220855,0.447634,-0.222595,49,280,586,6224
1644182704.130192,-0.006714,0.009521,-0.989258,0.297191,0.356031,0.052214,46,269,585,6192
1644182704.1785,-0.00824,0.009399,-0.990112,0.129252,0.417099,-0.039389,40,277,582,6128
1644182704.226855,-0.009827,0.010559,-0.991638,0.175053,0.356031,-0.054656,53,281,578,6176
1644182704.275285,-0.006287,0.01062,-0.993713,0.175053,0.340763,0.021679,41,274,583,6128
1644182704.323652,-0.007141,0.011353,-0.991638,0.190321,0.447634,-0.100458,40,282,596,6176
1644182704.37206,-0.008911,0.010681,-0.992065,0.144519,0.356031,-0.130992,52,275,593,6176
1644182704.420465,-0.011536,0.008972,-0.988953,0.251389,0.401832,-0.024122,47,273,584,6160
1644182704.468854,-0.01062,0.010925,-0.992554,0.175053,0.294962,-0.100458,46,271,585,6160
1644182704.517251,-0.010742,0.011963,-0.993958,0.205588,0.310229,-0.222595,48,286,573,6224
1644182704.56563,-0.010315,0.007629,-0.993958,0.205588,0.356031,-0.192061,47,282,589,6176
1644182704.614023,-0.008057,0.009888,-0.993408,0.35826,0.401832,-0.192061,46,279,587,6160
1644182704.662437,-0.008667,0.009644,-0.991333,0.251389,0.493435,-0.054656,46,279,580,6160
1644182704.71081,-0.008789,0.011169,-0.99176,0.190321,0.356031,-0.039389,45,270,591,6240
1644182704.759212,-0.009033,0.007751,-0.994385,0.220855,0.218626,-0.100458,48,276,573,6224
1644182704.807574,-0.00946,0.008545,-0.991882,0.022382,0.508702,-0.024122,46,279,578,6112
1644182704.856747,-0.009766,0.009399,-0.990723,0.022382,0.386565,0.036947,43,274,585,6224
1644182704.907292,-0.009644,0.008606,-0.992065,0.037649,0.478168,-0.100458,55,286,578,6224
1644182704.957768,-0.008118,0.010559,-0.990723,0.129252,0.310229,0.006412,45,280,591,6224
1644182705.061214,-0.009155,0.008423,-0.992432,0.373527,0.356031,-0.176794,52,273,584,6224
1644182705.101751,-0.007568,0.010498,-0.990723,0.342992,0.432366,-0.085191,45,273,577,6192
1644182705.14638,-0.009583,0.00946,-0.991577,0.175053,0.386565,-0.207328,59,275,586,6192
1644182705.19478,-0.010681,0.010803,-0.988647,0.236122,0.386565,0.021679,51,271,576,6192
1644182705.24315,-0.007935,0.006836,-0.99231,0.175053,0.432366,-0.069924,47,275,589,6176
1644182705.291517,-0.011108,0.010193,-0.992371,0.419328,0.310229,-0.237863,52,277,591,6224
1644182705.339922,-0.004578,0.009949,-0.992615,0.220855,0.401832,-0.054656,47,275,584,6176
1644182705.388326,-0.009399,0.01123,-0.989685,0.205588,0.447634,-0.161527,39,283,592,6176
1644182705.436712,-0.006348,0.009766,-0.992065,0.175053,0.279695,-0.039389,54,285,584,6112
1644182705.485246,-0.011292,0.009949,-0.991272,0.404061,0.340763,-0.161527,60,281,587,6192
1644182705.533487,-0.008972,0.009766,-0.992126,0.144519,0.523969,-0.161527,45,270,589,6224
1644182705.581879,-0.009705,0.010254,-0.989197,0.251389,0.340763,-0.14626,48,269,583,6112
1644182705.630281,-0.006897,0.012207,-0.989685,0.35826,0.340763,-0.298931,41,274,592,6160
1644182705.678787,-0.010193,0.00885,-0.990723,0.159786,0.386565,-0.222595,42,285,598,6224
1644182705.728874,-0.004761,0.010132,-0.990112,0.159786,0.371298,-0.039389,45,282,591,6160
1644182705.779174,-0.009338,0.009216,-0.989502,0.220855,0.371298,-0.054656,45,275,584,6160
1644182705.824196,-0.010132,0.009399,-0.993042,0.190321,0.478168,-0.024122,45,273,579,6192
1644182705.920678,-0.007324,0.009705,-0.992493,0.35826,0.447634,0.021679,48,283,576,6192
1644182705.969062,-0.007629,0.01239,-0.992188,0.113985,0.478168,-0.069924,60,281,573,6192
1644182706.017449,-0.007935,0.010559,-0.990723,0.175053,0.508702,-0.14626,45,282,591,6160
1644182706.066482,-0.006226,0.009338,-0.988586,0.08345,0.356031,0.021679,53,286,585,6128
1644182706.114202,-0.011108,0.012268,-0.989197,0.312458,0.310229,-0.115725,47,285,579,6192
1644182706.162599,-0.009705,0.007202,-0.991577,0.236122,0.523969,-0.100458,53,279,578,6224
1644182706.211,-0.00647,0.009216,-0.994202,0.175053,0.279695,0.052214,57,270,579,6192
1644182706.259387,-0.005432,0.012085,-0.993103,0.327725,0.508702,-0.039389,54,273,579,6224
1644182706.307777,-0.007263,0.008606,-0.990967,0.144519,0.523969,-0.14626,52,273,584,6176
1644182706.356181,-0.009338,0.011047,-0.990845,0.220855,0.218626,-0.085191,49,270,572,6192
1644182706.404702,-0.008301,0.010315,-0.992981,0.205588,0.264427,-0.115725,49,260,575,6176
1644182706.452977,-0.008789,0.012146,-0.991455,0.297191,0.401832,-0.024122,52,280,586,6224
1644182706.50136,-0.005615,0.010315,-0.992798,0.220855,0.356031,-0.14626,46,274,585,6160
1644182706.549737,-0.009949,0.011414,-0.993042,0.205588,0.310229,-0.024122,48,274,585,6224
1644182706.598148,-0.010132,0.007996,-0.991211,0.342992,0.24916,-0.14626,38,280,579,6160
1644182706.646527,-0.009277,0.009521,-0.993713,0.251389,0.417099,-0.008855,48,271,580,6128
1644182706.69492,-0.011292,0.009583,-0.993652,0.022382,0.24916,-0.130992,57,273,596,6256
1644182706.743292,-0.007324,0.010071,-0.99292,0.190321,0.325496,-0.100458,42,285,586,6224
1644182706.791772,-0.00824,0.007324,-0.991821,0.342992,0.264427,-0.130992,38,280,589,6224
1644182706.841397,-0.007507,0.009583,-0.989929,0.251389,0.310229,0.082748,43,283,587,6224
1644182706.891833,-0.009094,0.007568,-0.988403,0.251389,0.294962,0.067481,43,271,583,6224
1644182706.942028,-0.007751,0.010681,-0.99054,0.205588,0.356031,-0.100458,58,276,585,6160
1644182706.986592,-0.00708,0.008911,-0.991638,0.251389,0.340763,-0.25313,45,282,589,6192
1644182707.084031,-0.007385,0.011169,-0.990784,0.159786,0.447634,-0.115725,55,283,578,6192
1644182707.130445,-0.010864,0.008362,-0.992004,0.159786,0.462901,0.021679,45,277,577,6192
1644182707.178838,-0.009277,0.008911,-0.991272,0.236122,0.493435,-0.069924,47,275,584,6176
1644182707.227244,-0.00592,0.007446,-0.991638,0.129252,0.325496,-0.130992,47,285,575,6224
1644182707.275618,-0.008179,0.008728,-0.99115,0.113985,0.447634,-0.130992,54,277,579,6160
1644182707.324032,-0.008423,0.009216,-0.991028,0.037649,0.279695,-0.222595,51,288,580,6160
1644182707.372413,-0.007263,0.010376,-0.993347,0.052916,0.432366,-0.008855,53,271,585,6160
1644182707.420816,-0.00824,0.008789,-0.990479,0.113985,0.523969,-0.100458,53,269,580,6176
1644182707.469206,-0.007935,0.009949,-0.992065,0.251389,0.401832,-0.085191,53,274,569,6176
1644182707.517598,-0.009888,0.011475,-0.992249,0.159786,0.401832,-0.054656,52,277,586,6128
1644182707.565984,-0.01062,0.010498,-0.991516,0.159786,0.478168,0.067481,41,269,571,6192
1644182707.614396,-0.005005,0.008179,-0.991699,0.159786,0.432366,-0.039389,52,287,591,6112
1644182707.662801,-0.008545,0.012024,-0.992493,0.129252,0.264427,-0.176794,49,275,586,6240
1644182707.711177,-0.010132,0.012268,-0.991821,0.144519,0.340763,-0.100458,49,282,584,6160
1644182707.759533,-0.00647,0.010498,-0.991211,0.159786,0.371298,-0.039389,58,271,583,6224
1644182707.807992,-0.008179,0.011902,-0.991211,0.281924,0.478168,-0.024122,55,281,587,6176
1644182707.856391,-0.009705,0.008484,-0.991211,0.052916,0.447634,0.052214,47,280,589,6256
1644182707.904819,-0.008423,0.010864,-0.990906,0.251389,0.386565,-0.039389,46,271,578,6128
1644182707.954428,-0.005981,0.009094,-0.990479,0.175053,0.646107,-0.237863,46,271,585,6176
1644182708.004302,-0.008423,0.012146,-0.992249,0.175053,0.493435,-0.176794,54,280,584,6192
1644182708.070014,-0.008911,0.007324,-0.991882,0.266656,0.356031,-0.14626,49,275,577,6192
1644182708.146696,-0.008606,0.012268,-0.991028,0.175053,0.432366,-0.054656,42,277,582,6240
1644182708.195326,-0.008179,0.012146,-0.992432,0.281924,0.462901,-0.100458,47,270,584,6176
1644182708.243498,-0.005371,0.010681,-0.993042,0.037649,0.432366,-0.283664,57,275,589,6224
1644182708.291893,-0.008789,0.010193,-0.992065,0.113985,0.523969,-0.024122,52,265,582,6176
1644182708.340274,-0.007324,0.009216,-0.991272,0.281924,0.371298,0.036947,55,276,580,6192
1644182708.388646,-0.008362,0.010986,-0.991089,0.205588,0.462901,-0.222595,41,279,580,6192
1644182708.437055,-0.009155,0.01001,-0.989624,0.205588,0.447634,-0.14626,55,276,580,6240
1644182708.485449,-0.005371,0.009766,-0.992554,0.175053,0.569771,-0.024122,46,274,578,6160
1644182708.533838,-0.009155,0.011841,-0.993225,0.251389,0.386565,-0.008855,51,279,578,6160
1644182708.582262,-0.008423,0.009766,-0.991943,0.113985,0.462901,-0.207328,45,273,593,6192
1644182708.630613,-0.010315,0.007202,-0.994934,0.08345,0.218626,-0.069924,54,273,584,6176
1644182708.679031,-0.007263,0.009827,-0.99408,0.08345,0.508702,-0.085191,45,282,584,6160
1644182708.72743,-0.009888,0.009644,-0.990967,0.220855,0.432366,-0.039389,55,279,587,6128
1644182708.775819,-0.008179,0.011536,-0.993103,0.251389,0.401832,-0.115725,38,273,579,6160
1644182708.824263,-0.00885,0.010864,-0.991089,0.205588,0.371298,-0.069924,48,286,590,6224
1644182708.872635,-0.00885,0.010193,-0.991516,0.159786,0.539237,-0.039389,49,273,579,6176
1644182708.921031,-0.009033,0.008179,-0.992004,0.08345,0.356031,-0.085191,55,279,576,6224
1644182708.969596,-0.010559,0.011108,-0.991821,0.312458,0.417099,-0.024122,47,277,586,6240
1644182709.017817,-0.009277,0.008545,-0.990906,0.159786,0.478168,-0.085191,52,263,596,6224
1644182709.079683,-0.011108,0.007568,-0.990845,0.220855,0.356031,0.006412,45,273,589,6176
1644182709.162966,-0.008118,0.009644,-0.989319,0.35826,0.401832,-0.222595,49,285,582,6240
1644182709.211352,-0.00708,0.009949,-0.992737,0.08345,0.478168,-0.100458,49,273,577,6128
1644182709.259727,-0.008728,0.010193,-0.993286,0.297191,0.478168,-0.115725,41,276,576,6224
1644182709.308146,-0.010071,0.008972,-0.991028,0.159786,0.478168,-0.069924,41,271,583,6160
1644182709.356517,-0.007324,0.009399,-0.992676,0.251389,0.417099,-0.069924,43,271,587,6192
1644182709.404896,-0.007751,0.01062,-0.992004,0.312458,0.478168,-0.207328,48,274,583,6176
1644182709.453324,-0.01001,0.008606,-0.991882,0.281924,0.401832,-0.008855,48,266,576,6128
1644182709.501678,-0.009094,0.008789,-0.989502,0.159786,0.447634,-0.100458,53,279,576,6176
1644182709.55011,-0.009705,0.010254,-0.992737,0.205588,0.539237,-0.100458,54,280,579,6192
1644182709.598494,-0.008911,0.009094,-0.994019,0.297191,0.24916,-0.039389,53,281,583,6160
1644182709.646889,-0.009949,0.010986,-0.992371,0.388794,0.356031,-0.039389,47,280,577,6112
1644182709.695269,-0.010132,0.008423,-0.98938,0.236122,0.356031,0.021679,59,270,591,6256
1644182709.743678,-0.008301,0.008789,-0.992554,0.113985,0.417099,-0.176794,55,269,592,6192
1644182709.79207,-0.007629,0.008362,-0.990784,0.205588,0.432366,-0.100458,48,279,583,6128
1644182709.840468,-0.011292,0.009705,-0.994263,0.129252,0.447634,0.143817,58,283,580,6192
1644182709.888899,-0.010376,0.009888,-0.990234,0.220855,0.356031,-0.161527,45,282,582,6240
1644182709.937253,-0.008484,0.012695,-0.989624,0.205588,0.325496,-0.14626,51,269,580,6160
1644182709.985639,-0.008728,0.010986,-0.99353,0.144519,0.478168,-0.14626,58,281,578,6240
1644182710.034102,-0.009766,0.009583,-0.988708,0.190321,0.447634,-0.176794,52,277,589,6240
1644182710.094901,-0.009583,0.009888,-0.990662,0.281924,0.294962,-0.039389,49,275,589,6128
1644182710.133824,-0.010254,0.009888,-0.992371,0.251389,0.371298,-0.100458,47,275,589,6224
1644182710.182976,-0.009216,0.007446,-0.99408,0.373527,0.462901,-0.008855,54,275,589,6240
1644182710.228043,-0.009705,0.010193,-0.98938,0.281924,0.508702,-0.054656,45,282,589,6160
1644182710.324382,-0.006653,0.007446,-0.990784,0.220855,0.432366,-0.008855,52,277,582,6128
1644182710.372797,-0.004395,0.011169,-0.992065,0.129252,0.493435,-0.069924,49,270,575,6224
1644182710.421171,-0.006592,0.013062,-0.990784,-0.053954,0.356031,-0.085191,57,280,586,6240
1644182710.469544,-0.008911,0.011658,-0.990479,0.35826,0.447634,-0.130992,47,277,582,6160
1644182710.517948,-0.008972,0.008301,-0.989136,0.220855,0.356031,-0.130992,55,286,585,6160
1644182710.56632,-0.009949,0.00885,-0.99292,0.236122,0.310229,-0.176794,46,279,583,6176
1644182710.614746,-0.009216,0.012329,-0.992126,0.175053,0.310229,0.036947,41,274,576,6176
1644182710.663173,-0.008789,0.008911,-0.99231,0.175053,0.462901,-0.14626,47,275,593,6128
1644182710.711526,-0.009155,0.006531,-0.991028,0.312458,0.356031,-0.024122,51,276,583,6192
1644182710.759917,-0.006531,0.008484,-0.989685,0.251389,0.462901,-0.115725,47,268,589,6160
1644182710.80831,-0.006653,0.011353,-0.991394,0.236122,0.340763,-0.085191,57,280,589,6224
1644182710.856753,-0.009033,0.009155,-0.992798,0.052916,0.310229,-0.192061,49,277,586,6224
1644182710.905251,-0.007812,0.009888,-0.991394,0.312458,0.310229,-0.100458,46,281,583,6192
1644182710.953532,-0.007385,0.01178,-0.991272,0.266656,0.401832,0.006412,49,285,596,6128
1644182711.001899,-0.004517,0.00946,-0.990112,0.373527,0.462901,0.021679,40,275,584,6192
1644182711.06638,-0.009216,0.010254,-0.990967,0.297191,0.356031,-0.069924,46,279,583,6192
1644182711.101484,-0.010803,0.010071,-0.992371,0.037649,0.264427,0.021679,48,276,587,6128
1644182711.147039,-0.007812,0.007874,-0.990662,0.220855,0.432366,-0.100458,52,273,586,6224
1644182711.19542,-0.006348,0.011292,-0.991333,0.327725,0.508702,-0.115725,52,287,589,6224
1644182711.244124,-0.009155,0.012329,-0.992554,0.144519,0.371298,-0.100458,52,277,586,6256
1644182711.295038,-0.007996,0.012024,-0.989807,0.190321,0.386565,-0.085191,49,268,591,6240
1644182711.344705,-0.009583,0.009033,-0.991821,0.236122,0.493435,-0.008855,54,270,591,6224
1644182711.389862,-0.007385,0.012085,-0.991211,0.205588,0.340763,-0.069924,46,281,590,6224
1644182711.485792,-0.006042,0.010925,-0.99054,0.312458,0.508702,0.052214,54,270,570,6192
1644182711.534222,-0.008667,0.008423,-0.990295,0.251389,0.24916,-0.176794,52,270,575,6224
1644182711.582593,-0.006714,0.011108,-0.991699,0.297191,0.417099,0.067481,55,271,583,6256
1644182711.63099,-0.013367,0.011353,-0.991272,0.144519,0.462901,-0.069924,47,287,584,6192
1644182711.679387,-0.009644,0.006836,-0.992798,0.236122,0.386565,-0.008855,54,287,572,6192
1644182711.72778,-0.007202,0.00946,-0.992493,-0.02342,0.371298,-0.008855,45,285,579,6240
1644182711.776168,-0.009644,0.012024,-0.992065,0.35826,0.401832,-0.25313,41,281,580,6192
1644182711.824608,-0.009644,0.011841,-0.993164,0.236122,0.356031,-0.176794,41,281,573,6112
1644182711.873008,-0.006653,0.011475,-0.99054,0.098718,0.386565,-0.100458,48,274,580,6240
1644182711.921366,-0.011169,0.010437,-0.990601,0.388794,0.371298,-0.069924,46,274,585,6224
1644182711.969773,-0.007507,0.011169,-0.991089,0.007115,0.417099,-0.008855,60,274,580,6176
1644182712.018169,-0.009766,0.010925,-0.988525,0.35826,0.462901,-0.14626,49,273,584,6224
1644182712.087801,-0.004883,0.009155,-0.991943,0.297191,0.111756,-0.176794,47,282,586,6192
1644182712.11504,-0.012512,0.010254,-0.993652,0.327725,0.401832,-0.039389,58,276,590,6176
1644182712.163296,-0.008179,0.009216,-0.991882,0.175053,0.356031,-0.115725,43,279,592,6160
1644182712.211702,-0.009094,0.009644,-0.989441,0.190321,0.310229,-0.161527,58,276,580,6160
1644182712.260097,-0.008667,0.010742,-0.990112,0.236122,0.386565,-0.192061,57,275,584,6176
1644182712.308486,-0.00708,0.009399,-0.990906,0.113985,0.417099,-0.161527,42,277,582,6176
1644182712.356872,-0.007019,0.01123,-0.990723,0.113985,0.417099,-0.069924,49,273,586,6256
1644182712.4055,-0.005981,0.01123,-0.990356,0.08345,0.356031,-0.069924,52,285,579,6224
1644182712.456289,-0.007629,0.008911,-0.990173,0.205588,0.493435,0.036947,62,281,597,6160
1644182712.506151,-0.006592,0.011658,-0.991455,0.220855,0.294962,-0.100458,51,281,580,6128
1644182712.551239,-0.005554,0.009888,-0.98999,0.266656,0.356031,-0.130992,43,279,597,6192
1644182712.647223,-0.008789,0.008545,-0.991699,0.190321,0.478168,-0.008855,51,269,587,6224
1644182712.695617,-0.008301,0.009949,-0.992249,0.297191,0.386565,0.052214,52,282,579,6192
1644182712.744041,-0.007812,0.01001,-0.988708,0.236122,0.340763,-0.054656,49,282,589,6192
1644182712.792427,-0.009277,0.009033,-0.993286,0.190321,0.417099,-0.115725,42,282,589,6224
1644182712.840784,-0.007751,0.011292,-0.99054,0.220855,0.371298,-0.039389,41,262,583,6160
1644182712.889225,-0.005371,0.010437,-0.992554,0.144519,0.447634,-0.115725,42,282,586,6224
1644182712.937639,-0.007629,0.009216,-0.990784,0.205588,0.462901,-0.161527,49,275,579,6160
1644182712.986028,-0.008179,0.010376,-0.992981,0.236122,0.417099,-0.085191,47,275,586,6176
1644182713.034428,-0.011108,0.006592,-0.99292,0.159786,0.386565,-0.161527,52,273,577,6176
1644182713.088902,-0.007446,0.010071,-0.991699,0.297191,0.417099,-0.268397,53,279,585,6240
1644182713.131228,-0.007446,0.009338,-0.991882,0.113985,0.386565,0.052214,51,283,585,6160
1644182713.179562,-0.009949,0.005432,-0.990479,0.236122,0.386565,-0.085191,51,274,587,6128
1644182713.22796,-0.00824,0.012207,-0.992615,0.251389,0.401832,-0.039389,52,275,584,6224
1644182713.276315,-0.010803,0.006104,-0.990723,0.190321,0.356031,-0.130992,39,279,573,6160
1644182713.324742,-0.008179,0.011047,-0.990906,0.113985,0.447634,-0.069924,41,271,585,6160
1644182713.373716,-0.008728,0.010803,-0.991821,0.342992,0.24916,-0.130992,45,287,582,6192
1644182713.422177,-0.007996,0.01001,-0.991577,0.205588,0.401832,-0.069924,46,274,578,6240
1644182713.472849,-0.007935,0.00946,-0.989746,0.159786,0.356031,-0.192061,48,276,590,6192
1644182713.522961,-0.009521,0.01123,-0.99054,0.297191,0.294962,-0.115725,53,281,583,6288
1644182713.567817,-0.009094,0.007141,-0.995239,0.236122,0.539237,-0.192061,58,276,576,6224
1644182713.663491,-0.00592,0.010742,-0.99176,0.144519,0.523969,-0.039389,45,275,579,6176
1644182713.711879,-0.008545,0.008911,-0.993103,0.175053,0.401832,0.021679,58,279,576,6288
1644182713.760261,-0.009399,0.009949,-0.991516,0.251389,0.188092,-0.024122,47,270,584,6224
1644182713.80866,-0.00946,0.010864,-0.994507,0.342992,0.447634,-0.069924,62,276,576,6160
1644182713.857106,-0.008057,0.009644,-0.990417,0.08345,0.462901,-0.100458,43,274,573,6176
1644182713.905477,-0.007202,0.009521,-0.99054,0.098718,0.63084,-0.039389,58,286,578,6128
1644182713.953899,-0.009827,0.010376,-0.991943,0.236122,0.310229,-0.176794,53,269,580,6160
1644182714.002257,-0.01001,0.010437,-0.990295,0.342992,0.386565,0.021679,48,271,580,6176
1644182714.068078,-0.007812,0.012146,-0.992676,0.068183,0.432366,0.006412,51,276,576,6192
1644182714.099348,-0.006226,0.012085,-0.988647,0.007115,0.401832,-0.085191,51,279,578,6224
1644182714.147434,-0.008484,0.006653,-0.99176,0.220855,0.447634,-0.115725,46,276,583,6192
1644182714.195852,-0.009155,0.010193,-0.992615,0.312458,0.325496,-0.054656,53,274,587,6176
1644182714.244262,-0.011108,0.009705,-0.993713,0.281924,0.325496,-0.115725,54,280,584,6240
1644182714.292643,-0.008972,0.010681,-0.990906,0.190321,0.432366,-0.161527,43,274,587,6160
1644182714.341014,-0.011292,0.010986,-0.99115,0.129252,0.294962,-0.130992,54,277,584,6128
1644182714.389416,-0.005249,0.011536,-0.99115,0.205588,0.447634,-0.100458,51,286,580,6192
1644182714.437827,-0.00708,0.010559,-0.992249,0.205588,0.371298,0.052214,40,275,579,6256
1644182714.48621,-0.008484,0.00824,-0.990662,0.190321,0.478168,-0.085191,47,275,593,6128
1644182714.53589,-0.006836,0.008179,-0.991455,0.35826,0.462901,0.036947,43,264,578,6240
1644182714.586751,-0.008484,0.011292,-0.991516,0.266656,0.356031,-0.130992,41,279,576,6112
1644182714.636404,-0.007324,0.010376,-0.991943,0.129252,0.462901,-0.024122,52,275,598,6160
1644182714.680867,-0.008118,0.010376,-0.990845,0.236122,0.417099,-0.192061,51,264,578,6192
1644182714.776561,-0.01123,0.008179,-0.992615,0.205588,0.386565,-0.069924,49,273,586,6176
1644182714.825029,-0.010986,0.009033,-0.990662,0.373527,0.417099,-0.024122,58,279,576,6256
1644182714.873352,-0.007812,0.007568,-0.992249,0.205588,0.401832,-0.25313,49,268,586,6160
1644182714.92174,-0.008606,0.010498,-0.991943,0.159786,0.279695,0.021679,57,277,589,6224
1644182714.97014,-0.00885,0.010315,-0.989746,0.159786,0.447634,-0.054656,45,277,586,6256
1644182715.018527,-0.010315,0.00885,-0.991577,0.113985,0.554504,-0.283664,62,276,580,6128
1644182715.069444,-0.007507,0.012207,-0.990234,0.220855,0.417099,-0.039389,42,273,589,6224
1644182715.115328,-0.009277,0.010254,-0.991882,0.312458,0.478168,-0.130992,42,287,577,6240
1644182715.163667,-0.007385,0.011536,-0.993591,0.175053,0.371298,-0.268397,47,287,579,6160
1644182715.212058,-0.009094,0.011292,-0.991028,0.175053,0.356031,-0.115725,35,275,582,6224
1644182715.260443,-0.007141,0.012024,-0.994141,0.052916,0.325496,-0.176794,58,271,585,6128
1644182715.308836,-0.007874,0.009521,-0.989746,0.281924,0.493435,-0.161527,55,276,580,6128
1644182715.35721,-0.007446,0.010071,-0.990723,0.419328,0.646107,-0.039389,48,274,578,6192
1644182715.40564,-0.008606,0.010559,-0.992981,0.251389,0.462901,-0.14626,38,282,591,6192
1644182715.45404,-0.010559,0.010437,-0.99115,0.159786,0.310229,-0.192061,67,271,587,6160
1644182715.502396,-0.007141,0.010315,-0.991272,0.205588,0.356031,0.052214,58,276,587,6240
1644182715.550812,-0.006592,0.010986,-0.991028,0.113985,0.447634,0.052214,38,277,577,6128
1644182715.599462,-0.009766,0.007629,-0.991516,0.35826,0.493435,-0.130992,54,282,579,6224
1644182715.648198,-0.004211,0.01001,-0.99292,0.251389,0.432366,-0.314198,42,270,579,6192
1644182715.698839,-0.008789,0.00769,-0.992737,0.08345,0.432366,-0.054656,58,271,578,6176
1644182715.748726,-0.009399,0.012085,-0.992432,0.251389,0.417099,-0.222595,60,276,592,6240
1644182715.79388,-0.010803,0.009705,-0.99176,0.129252,0.432366,-0.054656,52,270,579,6240
1644182715.889587,-0.010132,0.008362,-0.990845,0.144519,0.371298,-0.085191,54,280,577,6160
1644182715.937981,-0.006287,0.009521,-0.991882,0.144519,0.462901,-0.008855,54,277,579,6192
1644182715.986359,-0.007202,0.008789,-0.990906,0.327725,0.279695,0.052214,49,268,591,6224
1644182716.034786,-0.010254,0.009094,-0.991089,0.327725,0.386565,-0.069924,48,283,587,6160
1644182716.084513,-0.009888,0.00885,-0.991333,0.312458,0.325496,-0.192061,47,270,589,6112
1644182716.13153,-0.006836,0.012329,-0.991577,0.175053,0.401832,0.113282,46,274,587,6176
1644182716.17993,-0.010681,0.011597,-0.994446,0.327725,0.493435,-0.069924,43,274,580,6128
1644182716.228312,-0.006836,0.010254,-0.99115,0.022382,0.325496,-0.100458,46,279,580,6256
1644182716.276689,-0.004272,0.010376,-0.990112,0.236122,0.310229,-0.054656,51,286,583,6160
1644182716.325209,-0.005066,0.010376,-0.989319,0.251389,0.371298,-0.039389,43,271,583,6176
1644182716.373515,-0.007874,0.009949,-0.990234,0.068183,0.294962,-0.085191,40,277,577,6160
1644182716.421873,-0.009827,0.008606,-0.993835,0.312458,0.554504,-0.069924,49,270,596,6224
1644182716.470288,-0.011597,0.012268,-0.990173,0.342992,0.386565,-0.25313,58,269,585,6240
1644182716.518671,-0.007019,0.010803,-0.990051,-0.02342,0.356031,-0.100458,47,275,600,6224
1644182716.567084,-0.006348,0.010925,-0.992493,0.08345,0.356031,-0.176794,51,276,585,6192
1644182716.615419,-0.009583,0.011108,-0.992737,0.113985,0.294962,-0.207328,39,283,585,6224
1644182716.663851,-0.005676,0.011597,-0.994202,0.251389,0.371298,-0.100458,43,283,583,6080
1644182716.712259,-0.007874,0.00769,-0.992432,0.159786,0.340763,-0.024122,54,282,586,6192
1644182716.760638,-0.005981,0.010498,-0.990417,0.342992,0.432366,-0.085191,52,270,586,6176
1644182716.809938,-0.008911,0.007202,-0.992004,0.220855,0.279695,-0.069924,54,275,575,6176
1644182716.860773,-0.011108,0.008118,-0.994263,0.129252,0.417099,-0.268397,49,275,575,6192
1644182716.910778,-0.011169,0.01062,-0.993225,0.205588,0.233893,-0.100458,48,286,580,6160
1644182716.955439,-0.007385,0.009094,-0.992737,0.297191,0.508702,-0.024122,55,266,583,6160
1644182717.062859,-0.010193,0.00885,-0.990601,0.205588,0.401832,-0.054656,57,275,579,6128
1644182717.102871,-0.00592,0.01001,-0.991882,0.220855,0.401832,-0.192061,46,283,585,6192
1644182717.147763,-0.009033,0.010864,-0.991455,0.297191,0.310229,-0.085191,42,273,577,6240
1644182717.196174,-0.005859,0.009888,-0.988525,0.113985,0.569771,-0.130992,46,269,580,6224
1644182717.244738,-0.009949,0.007629,-0.992676,0.266656,0.340763,-0.100458,43,279,594,6224
1644182717.29296,-0.01001,0.010071,-0.992188,0.113985,0.340763,-0.069924,54,287,586,6176
1644182717.341346,-0.011963,0.007019,-0.994202,0.404061,0.508702,-0.176794,52,275,589,6192
1644182717.389735,-0.007446,0.011475,-0.992004,0.236122,0.462901,0.067481,58,276,583,6176
1644182717.438099,-0.00708,0.010498,-0.990234,0.281924,0.478168,-0.176794,38,277,579,6240
1644182717.486523,-0.008972,0.010925,-0.993103,0.052916,0.417099,-0.069924,41,286,585,6160
1644182717.534904,-0.009094,0.006714,-0.993164,0.327725,0.401832,0.036947,53,279,585,6128
1644182717.583302,-0.007263,0.006958,-0.991333,0.35826,0.432366,-0.100458,55,274,578,6176
1644182717.631715,-0.008606,0.008484,-0.989136,0.281924,0.340763,-0.054656,48,279,585,6240
1644182717.680138,-0.008179,0.009277,-0.99115,0.297191,0.371298,-0.054656,49,277,582,6224
1644182717.730286,-0.006836,0.011292,-0.990845,0.190321,0.569771,-0.039389,54,275,579,6192
1644182717.780642,-0.011047,0.01062,-0.992004,0.068183,0.447634,-0.130992,46,269,580,6160
1644182717.826245,-0.008789,0.011597,-0.989319,0.281924,0.310229,-0.115725,49,273,589,6224
1644182717.922435,-0.010559,0.008911,-0.990845,0.205588,0.371298,-0.14626,43,269,583,6224
1644182717.970518,-0.011292,0.007141,-0.991272,0.220855,0.554504,-0.100458,51,279,585,6160
1644182718.018875,-0.011963,0.008423,-0.993225,0.144519,0.310229,-0.039389,39,274,580,6160
1644182718.069524,-0.008301,0.011963,-0.990784,0.113985,0.310229,-0.069924,53,274,587,6160
1644182718.115665,-0.00824,0.009338,-0.991638,0.251389,0.462901,-0.085191,45,280,596,6192
1644182718.164035,-0.006287,0.012207,-0.992554,0.205588,0.493435,-0.130992,34,279,590,6128
1644182718.212399,-0.011902,0.009338,-0.994141,0.297191,0.310229,-0.14626,51,276,576,6128
1644182718.260799,-0.008423,0.010193,-0.990173,0.281924,0.447634,-0.024122,49,270,586,6192
1644182718.309179,-0.007019,0.01001,-0.991943,0.236122,0.325496,-0.176794,38,282,575,6192
1644182718.3576,-0.007935,0.009583,-0.99176,0.190321,0.417099,-0.222595,46,274,578,6160
1644182718.405991,-0.009827,0.010925,-0.98999,0.281924,0.325496,-0.100458,42,285,589,6128
1644182718.454397,-0.008606,0.007446,-0.990845,0.236122,0.386565,-0.115725,48,279,580,6192
1644182718.502805,-0.007202,0.00946,-0.990784,0.327725,0.340763,-0.039389,49,268,582,6128
1644182718.551166,-0.008789,0.012817,-0.991394,0.175053,0.356031,0.006412,55,271,585,6256
1644182718.599551,-0.01001,0.010925,-0.992493,0.175053,0.447634,-0.130992,58,274,583,6224
1644182718.647954,-0.009705,0.009766,-0.992493,0.190321,0.493435,0.067481,48,279,578,6176
1644182718.696343,-0.006775,0.010803,-0.991455,0.129252,0.447634,-0.207328,49,285,586,6192
1644182718.744736,-0.009155,0.009521,-0.991943,0.312458,0.401832,-0.176794,47,277,589,6224
1644182718.793426,-0.00769,0.007629,-0.993042,0.220855,0.386565,-0.161527,49,282,579,6224
1644182718.843499,-0.01178,0.008179,-0.993286,0.205588,0.554504,-0.100458,46,264,594,6176
1644182718.893477,-0.008484,0.010437,-0.993103,0.175053,0.478168,-0.085191,41,281,576,6224
1644182718.943694,-0.010742,0.010071,-0.989807,0.144519,0.585038,0.006412,49,275,579,6160
1644182718.988083,-0.00769,0.009033,-0.991394,0.236122,0.340763,-0.069924,59,270,586,6240
1644182719.083608,-0.008484,0.00946,-0.991272,0.419328,0.523969,-0.130992,47,280,589,6224
1644182719.131927,-0.005554,0.00885,-0.991516,0.144519,0.462901,-0.14626,51,279,592,6192
1644182719.18027,-0.008789,0.009033,-0.992737,0.312458,0.233893,-0.192061,42,282,586,6224
1644182719.228651,-0.008057,0.011963,-0.993103,0.220855,0.478168,-0.192061,43,274,585,6224
1644182719.277039,-0.009705,0.010559,-0.990784,0.312458,0.432366,-0.085191,55,279,578,6240
1644182719.32544,-0.007263,0.011169,-0.993103,0.236122,0.356031,-0.039389,41,276,587,6176
1644182719.373849,-0.010681,0.009033,-0.991089,0.251389,0.417099,-0.115725,55,266,585,6160
1644182719.422251,-0.01001,0.011047,-0.992493,0.266656,0.310229,-0.085191,43,271,585,6160
1644182719.470637,-0.005676,0.008301,-0.991882,0.144519,0.417099,-0.085191,47,275,582,6128
1644182719.519031,-0.008179,0.011536,-0.989441,0.251389,0.462901,-0.130992,48,271,580,6224
1644182719.567411,-0.008118,0.011169,-0.990906,0.113985,0.417099,0.006412,41,281,590,6224
1644182719.615823,-0.00708,0.011108,-0.989868,0.190321,0.386565,-0.039389,48,279,583,6192
1644182719.664204,-0.006226,0.014221,-0.99353,0.175053,0.523969,-0.207328,41,274,590,6192
1644182719.712609,-0.007507,0.009827,-0.990906,0.129252,0.447634,-0.237863,48,262,583,6224
1644182719.760964,-0.007324,0.008545,-0.991333,0.266656,0.356031,-0.054656,46,286,580,6240
1644182719.809383,-0.009277,0.010864,-0.994751,0.129252,0.478168,-0.039389,43,271,590,6224
1644182719.857803,-0.008484,0.012146,-0.990356,0.190321,0.493435,-0.024122,53,276,580,6112
1644182719.90629,-0.007568,0.009949,-0.988403,0.312458,0.401832,-0.008855,47,277,579,6224
1644182719.954692,-0.011841,0.011719,-0.991394,0.144519,0.356031,-0.054656,49,265,577,6224
1644182720.004467,-0.007263,0.010254,-0.990112,0.373527,0.264427,-0.069924,49,275,589,6224
1644182720.070149,-0.009521,0.010559,-0.991699,0.190321,0.432366,-0.192061,43,281,587,6192
1644182720.106621,-0.008972,0.006409,-0.99115,0.281924,0.432366,-0.008855,51,288,587,6176
1644182720.149153,-0.007874,0.009705,-0.990967,0.08345,0.478168,-0.069924,52,280,572,6176
1644182720.244902,-0.009705,0.009277,-0.993652,0.220855,0.386565,-0.176794,46,276,573,6128
1644182720.293314,-0.009766,0.012573,-0.993225,0.297191,0.478168,-0.207328,49,277,586,6192
1644182720.341691,-0.010315,0.01123,-0.99054,0.327725,0.371298,-0.161527,46,274,583,6176
1644182720.390094,-0.009338,0.007629,-0.99176,0.220855,0.554504,0.036947,47,273,591,6128
1644182720.438478,-0.01001,0.006042,-0.991028,0.144519,0.279695,-0.024122,54,270,579,6224
1644182720.486876,-0.00824,0.012024,-0.990601,0.037649,0.432366,-0.161527,58,276,590,6160
1644182720.535264,-0.00592,0.007996,-0.989685,0.175053,0.585038,0.036947,52,275,570,6160
1644182720.583668,-0.006653,0.007996,-0.992126,0.144519,0.325496,-0.115725,39,276,585,6176
1644182720.632058,-0.007324,0.009766,-0.99469,0.35826,0.432366,-0.085191,48,271,580,6224
1644182720.680442,-0.008423,0.010132,-0.992981,0.236122,0.294962,0.052214,41,269,578,6192
1644182720.728841,-0.006165,0.010864,-0.991089,0.236122,0.539237,-0.100458,59,277,582,6176
1644182720.77724,-0.006348,0.012573,-0.990906,0.190321,0.386565,-0.024122,46,281,590,6176
1644182720.825629,-0.008911,0.009644,-0.991028,0.342992,0.340763,-0.069924,43,269,592,6160
1644182720.874058,-0.009094,0.011047,-0.990112,0.373527,0.371298,-0.039389,59,280,584,6160
1644182720.922467,-0.009155,0.010986,-0.994263,0.312458,0.462901,-0.024122,52,280,584,6160
1644182720.970842,-0.010315,0.009766,-0.990479,0.175053,0.493435,-0.024122,47,285,586,6176
1644182721.019216,-0.008362,0.012573,-0.991882,0.205588,0.386565,-0.024122,52,275,589,6176
1644182721.084711,-0.00647,0.008789,-0.991821,0.220855,0.401832,-0.130992,58,281,576,6176
1644182721.117227,-0.010132,0.008545,-0.992188,0.220855,0.478168,-0.008855,51,283,571,6192
1644182721.212779,-0.010742,0.007812,-0.993042,0.434595,0.310229,-0.130992,47,275,582,6176
1644182721.261137,-0.010071,0.006165,-0.994629,0.251389,0.478168,-0.069924,43,283,590,6224
1644182721.309546,-0.01001,0.013489,-0.991516,0.297191,0.401832,-0.14626,47,280,582,6176
1644182721.357945,-0.007202,0.009827,-0.990967,0.205588,0.447634,-0.130992,51,279,590,6160
1644182721.406345,-0.011047,0.00769,-0.992065,0.190321,0.432366,-0.115725,45,270,589,6192
1644182721.454737,-0.004761,0.007507,-0.99231,0.08345,0.340763,0.067481,52,277,584,6160
1644182721.503119,-0.00769,0.01062,-0.99353,0.144519,0.371298,-0.069924,53,274,576,6224
1644182721.551528,-0.007202,0.011658,-0.991272,0.342992,0.340763,0.036947,58,279,576,6080
1644182721.599907,-0.007751,0.009155,-0.990051,0.113985,0.401832,-0.14626,49,280,577,6224
1644182721.648283,-0.010681,0.011292,-0.989441,0.297191,0.340763,-0.25313,54,268,584,6160
1644182721.696701,-0.006836,0.009155,-0.991394,0.190321,0.371298,-0.069924,53,281,580,6176
1644182721.745196,-0.008667,0.009705,-0.992249,0.266656,0.401832,-0.024122,45,273,586,6224
1644182721.79348,-0.006531,0.014282,-0.992615,0.144519,0.401832,-0.130992,45,285,582,6128
1644182721.841883,-0.008362,0.008362,-0.99231,0.35826,0.478168,-0.039389,52,277,593,6160
1644182721.89032,-0.011047,0.010254,-0.993347,0.190321,0.432366,-0.237863,47,275,586,6160
1644182721.938707,-0.008728,0.008545,-0.989258,0.129252,0.478168,-0.176794,48,266,583,6224
1644182721.987097,-0.007629,0.008423,-0.992065,0.388794,0.325496,-0.222595,59,287,589,6304
1644182722.035743,-0.009155,0.01062,-0.991333,0.236122,0.462901,-0.14626,51,271,580,6256
1644182722.095424,-0.010132,0.009827,-0.989258,0.236122,0.371298,-0.161527,47,270,591,6160
1644182722.133121,-0.01355,0.008728,-0.990234,0.327725,0.356031,-0.024122,54,275,589,6224
1644182722.18344,-0.006897,0.005676,-0.99054,0.129252,0.310229,0.082748,46,271,585,6192
1644182722.233758,-0.008484,0.010071,-0.98999,0.251389,0.325496,-0.085191,57,275,577,6224
1644182722.278588,-0.00769,0.008057,-0.992798,0.312458,0.356031,-0.085191,57,280,584,6160
1644182722.374249,-0.00946,0.008301,-0.992188,0.159786,0.310229,-0.039389,46,276,576,6192
1644182722.422655,-0.007446,0.010071,-0.993286,0.190321,0.462901,0.036947,47,277,579,6128
1644182722.47102,-0.006226,0.008911,-0.992126,0.175053,0.386565,-0.024122,55,269,578,6160
1644182722.519413,-0.006775,0.008789,-0.99231,0.205588,0.310229,-0.14626,51,283,590,6240
1644182722.56782,-0.010193,0.008301,-0.993286,0.251389,0.401832,-0.054656,49,270,575,6176
1644182722.616193,-0.00824,0.009949,-0.991699,0.159786,0.554504,0.021679,47,273,579,6160
1644182722.664694,-0.010986,0.008179,-0.994507,0.098718,0.340763,0.067481,48,279,583,6224
1644182722.713019,-0.00824,0.007629,-0.990601,0.175053,0.401832,-0.161527,53,276,580,6192
1644182722.761384,-0.01001,0.00824,-0.993225,0.205588,0.325496,0.036947,58,283,585,6192
1644182722.809779,-0.009155,0.007812,-0.991211,0.190321,0.340763,-0.100458,52,277,589,6128
1644182722.858169,-0.006958,0.010925,-0.992065,0.266656,0.386565,-0.069924,48,281,587,6176
1644182722.906545,-0.009705,0.009521,-0.991516,0.266656,0.493435,-0.130992,51,283,587,6128
1644182722.954958,-0.011047,0.008972,-0.98999,0.35826,0.600305,-0.14626,45,282,579,6240
1644182723.00333,-0.008057,0.008606,-0.993713,0.236122,0.462901,-0.085191,43,286,578,6160
1644182723.062337,-0.010559,0.009155,-0.992432,0.373527,0.478168,-0.024122,41,279,590,6176
1644182723.101224,-0.009033,0.008911,-0.992249,0.175053,0.417099,-0.054656,54,275,591,6176
1644182723.148475,-0.006897,0.010254,-0.989624,0.144519,0.462901,-0.14626,46,276,585,6224
1644182723.196876,-0.01001,0.009583,-0.992065,0.266656,0.386565,-0.100458,53,276,587,6160
1644182723.245271,-0.008789,0.009094,-0.990173,0.220855,0.554504,-0.176794,51,271,573,6176
1644182723.293871,-0.00885,0.00885,-0.991943,0.129252,0.478168,-0.176794,38,277,582,6160
1644182723.344435,-0.010925,0.009705,-0.990295,0.205588,0.493435,-0.14626,36,266,590,6160
1644182723.39464,-0.008362,0.008728,-0.991394,0.08345,0.401832,-0.069924,55,279,592,6128
1644182723.439662,-0.009216,0.010864,-0.992188,0.159786,0.523969,-0.054656,49,280,586,6160
1644182723.535612,-0.006775,0.010864,-0.991333,0.312458,0.371298,0.143817,45,273,579,6224
1644182723.584029,-0.00946,0.008179,-0.993042,0.404061,0.371298,-0.14626,52,282,584,6160
1644182723.632423,-0.007935,0.006042,-0.99292,0.35826,0.462901,-0.008855,48,279,583,6112
1644182723.680774,-0.010254,0.009949,-0.992432,0.312458,0.340763,0.113282,47,280,582,6176
1644182723.729203,-0.010681,0.007263,-0.992371,0.205588,0.401832,0.098015,54,285,584,6240
1644182723.77759,-0.011108,0.007812,-0.991638,0.113985,0.340763,-0.069924,57,282,584,6192
1644182723.826008,-0.00708,0.013428,-0.990662,0.129252,0.386565,-0.115725,55,274,590,6224
1644182723.874426,-0.010071,0.01001,-0.991821,0.159786,0.493435,-0.14626,59,280,593,6192
1644182723.92284,-0.008911,0.009766,-0.990479,0.236122,0.371298,-0.115725,59,277,589,6224
1644182723.971175,-0.005493,0.010864,-0.990845,0.220855,0.371298,-0.130992,52,277,591,6224
1644182724.019604,-0.008911,0.010681,-0.989136,0.129252,0.279695,-0.054656,42,275,579,6160
1644182724.069197,-0.007812,0.010254,-0.990051,0.190321,0.24916,-0.14626,55,276,592,6192
1644182724.116359,-0.010193,0.01239,-0.99115,0.098718,0.523969,-0.14626,59,273,589,6176
1644182724.164739,-0.006042,0.010803,-0.989075,0.297191,0.356031,0.036947,57,270,591,6224
1644182724.213149,-0.008911,0.00946,-0.992737,0.205588,0.386565,-0.130992,42,275,600,6160
1644182724.261496,-0.006348,0.008484,-0.988159,0.266656,0.356031,-0.161527,53,276,587,6128
1644182724.309988,-0.007874,0.008362,-0.992615,0.236122,0.447634,-0.024122,52,280,589,6192
1644182724.358301,-0.008606,0.010437,-0.993896,0.205588,0.310229,-0.069924,51,279,590,6192
1644182724.406694,-0.011292,0.011536,-0.988647,0.205588,0.340763,-0.024122,52,273,586,6240
1644182724.455642,-0.009155,0.009094,-0.992432,0.159786,0.493435,-0.085191,55,279,590,6128
1644182724.506753,-0.006775,0.008911,-0.991821,0.175053,0.447634,-0.130992,49,282,589,6240
1644182724.556354,-0.010925,0.009094,-0.992676,0.098718,0.356031,-0.069924,48,281,576,6128
1644182724.601385,-0.007751,0.010071,-0.990967,0.312458,0.447634,0.021679,61,282,584,6160
1644182724.697041,-0.009033,0.009155,-0.991638,0.251389,0.401832,-0.039389,53,276,578,6176
1644182724.745437,-0.006531,0.011169,-0.990601,0.159786,0.356031,-0.069924,55,283,583,6224
1644182724.793843,-0.010437,0.00946,-0.991699,0.144519,0.417099,-0.085191,47,270,586,6160
1644182724.842423,-0.010498,0.009521,-0.993408,0.220855,0.279695,-0.054656,46,274,576,6192
1644182724.890664,-0.009033,0.008911,-0.992798,0.281924,0.325496,-0.14626,41,286,576,6224
1644182724.939066,-0.008423,0.009949,-0.993469,0.205588,0.462901,0.006412,58,276,571,6192
1644182724.987448,-0.00885,0.010254,-0.991394,0.220855,0.371298,-0.192061,52,277,577,6176
1644182725.03583,-0.009033,0.009705,-0.992737,0.190321,0.356031,-0.100458,42,285,589,6112
1644182725.092841,-0.008972,0.012085,-0.988831,0.297191,0.447634,-0.054656,49,275,586,6176
1644182725.132612,-0.006714,0.006104,-0.991333,0.266656,0.417099,-0.14626,54,282,591,6192
1644182725.180987,-0.007385,0.010986,-0.992371,0.144519,0.432366,-0.161527,52,285,584,6128
1644182725.229345,-0.004944,0.008972,-0.993896,0.251389,0.417099,0.098015,46,274,587,6128
1644182725.277774,-0.007141,0.010864,-0.989807,0.388794,0.401832,-0.176794,45,280,589,6160
1644182725.32616,-0.007812,0.009094,-0.991699,0.266656,0.401832,-0.085191,45,273,596,6224
1644182725.374614,-0.007996,0.008057,-0.990784,0.159786,0.386565,0.052214,53,274,573,6128
1644182725.423125,-0.007996,0.008667,-0.990295,0.312458,0.310229,-0.130992,42,285,584,6224
1644182725.472474,-0.008606,0.010071,-0.993713,0.190321,0.401832,-0.085191,57,268,593,6240
1644182725.522777,-0.007507,0.008057,-0.990845,0.266656,0.401832,-0.100458,60,266,585,6160
1644182725.572995,-0.008057,0.010498,-0.990295,0.144519,0.462901,-0.130992,51,274,592,6224
1644182725.665202,-0.005737,0.008728,-0.989685,0.190321,0.310229,-0.130992,45,280,591,6224
1644182725.713312,-0.007996,0.01062,-0.993164,0.08345,0.462901,-0.069924,51,274,569,6192
1644182725.761674,-0.008911,0.009644,-0.990601,0.205588,0.417099,-0.130992,35,282,584,6112
1644182725.810083,-0.009155,0.01001,-0.990845,0.205588,0.386565,-0.024122,51,271,585,6192
1644182725.858489,-0.00885,0.009521,-0.994202,0.175053,0.508702,-0.192061,49,282,577,6128
1644182725.906915,-0.006897,0.010315,-0.991882,0.129252,0.569771,-0.192061,45,280,584,6128
1644182725.955302,-0.007202,0.009766,-0.991028,0.220855,0.340763,-0.085191,54,277,579,6224
1644182726.003673,-0.00824,0.00946,-0.98999,0.419328,0.371298,-0.039389,52,273,579,6240
1644182726.063692,-0.009949,0.010498,-0.991516,0.327725,0.539237,-0.069924,47,265,584,6224
1644182726.103684,-0.008972,0.010986,-0.991943,0.08345,0.462901,0.006412,60,269,576,6176
1644182726.148838,-0.009766,0.008789,-0.991577,0.220855,0.386565,-0.069924,41,276,583,6192
1644182726.197243,-0.008667,0.012573,-0.992615,0.419328,0.340763,-0.14626,57,273,584,6176
1644182726.245603,-0.006775,0.008484,-0.993469,0.220855,0.386565,-0.115725,46,279,585,6160
1644182726.294019,-0.007812,0.007568,-0.992493,0.159786,0.508702,-0.14626,58,274,590,6224
1644182726.342428,-0.006653,0.010742,-0.990356,0.190321,0.310229,-0.085191,46,276,583,6192
1644182726.39081,-0.007935,0.009338,-0.991333,0.098718,0.386565,0.021679,53,274,590,6240
1644182726.439173,-0.008545,0.009094,-0.990234,0.266656,0.523969,-0.115725,55,274,580,6224
1644182726.487569,-0.00531,0.009644,-0.99054,0.281924,0.340763,-0.054656,46,281,587,6192
1644182726.536015,-0.006287,0.011169,-0.99176,0.404061,0.523969,0.036947,48,279,590,6160
1644182726.584661,-0.00708,0.010559,-0.988892,0.312458,0.310229,-0.085191,40,282,582,6224
1644182726.635222,-0.007446,0.010803,-0.98938,0.251389,0.585038,-0.161527,40,282,589,6224
1644182726.685373,-0.00885,0.010986,-0.99054,0.297191,0.462901,0.021679,58,274,583,6192
1644182726.730444,-0.008667,0.010742,-0.99231,0.129252,0.386565,0.021679,45,270,579,6224
1644182726.826326,-0.006226,0.008423,-0.991211,0.190321,0.447634,-0.207328,49,280,584,6128
1644182726.874773,-0.007263,0.012756,-0.992188,0.510931,0.493435,-0.054656,40,277,579,6192
1644182726.923171,-0.009888,0.010925,-0.994629,0.159786,0.508702,-0.039389,57,280,582,6128
1644182726.97154,-0.009216,0.011658,-0.988708,0.297191,0.279695,0.036947,52,280,586,6192
1644182727.01994,-0.008179,0.010864,-0.991211,0.404061,0.462901,-0.161527,52,290,591,6112
1644182727.069619,-0.009216,0.009521,-0.992798,0.159786,0.539237,-0.069924,47,277,591,6160
1644182727.116727,-0.009277,0.009094,-0.993591,0.220855,0.417099,0.021679,52,270,586,6176
1644182727.16512,-0.008789,0.00824,-0.993286,0.175053,0.462901,-0.008855,46,276,578,6176
1644182727.213488,-0.006775,0.00824,-0.991821,0.159786,0.569771,0.006412,47,273,575,6224
1644182727.261878,-0.008362,0.006775,-0.989929,0.159786,0.462901,-0.069924,45,287,586,6176
1644182727.310246,-0.008179,0.009155,-0.99115,0.373527,0.432366,-0.100458,46,276,587,6192
1644182727.358667,-0.010925,0.008728,-0.989197,0.281924,0.325496,-0.115725,53,274,578,6192
1644182727.407056,-0.010986,0.009216,-0.992676,0.312458,0.356031,-0.085191,54,285,579,6176
1644182727.455444,-0.009094,0.011047,-0.991028,0.159786,0.401832,-0.024122,46,279,585,6112
1644182727.50385,-0.00824,0.009888,-0.990662,0.297191,0.401832,-0.283664,55,279,597,6224
1644182727.552255,-0.007324,0.008606,-0.992371,0.236122,0.462901,-0.14626,45,275,593,6224
1644182727.600622,-0.008362,0.010254,-0.990051,0.297191,0.615573,-0.069924,49,285,582,6224
1644182727.649019,-0.007996,0.01178,-0.990845,0.190321,0.386565,-0.14626,51,281,583,6192
1644182727.69741,-0.006775,0.010132,-0.993408,0.190321,0.386565,-0.008855,47,268,593,6224
1644182727.745936,-0.009949,0.010803,-0.990601,0.129252,0.294962,-0.176794,41,276,585,6176
1644182727.796161,-0.006836,0.009949,-0.990601,0.281924,0.371298,-0.176794,41,276,592,6176
1644182727.846834,-0.009216,0.009705,-0.994751,0.236122,0.432366,-0.069924,51,269,583,6160
1644182727.891957,-0.009094,0.009644,-0.991577,0.251389,0.493435,-0.161527,51,276,583,6224
1644182727.987795,-0.01239,0.008362,-0.992615,0.159786,0.310229,-0.207328,52,282,582,6160
1644182728.036182,-0.006714,0.006226,-0.993408,0.205588,0.462901,-0.054656,51,276,585,6112
1644182728.084846,-0.012085,0.009094,-0.99054,0.373527,0.386565,-0.054656,51,286,583,6160
1644182728.132966,-0.007141,0.009705,-0.991089,0.327725,0.447634,-0.115725,55,271,578,6192
1644182728.181329,-0.005981,0.009521,-0.989502,0.404061,0.386565,-0.054656,47,277,572,6240
1644182728.229728,-0.007141,0.010864,-0.990479,0.327725,0.417099,0.021679,49,277,577,6176
1644182728.278104,-0.007874,0.010132,-0.993103,0.388794,0.157557,-0.024122,48,279,580,6160
1644182728.326512,-0.008911,0.00885,-0.99054,0.297191,0.401832,-0.069924,46,286,573,6256
1644182728.374896,-0.009216,0.009827,-0.993469,0.205588,0.508702,-0.161527,48,279,580,6224
1644182728.423307,-0.008118,0.007812,-0.993286,0.266656,0.462901,0.067481,51,276,587,6176
1644182728.471683,-0.007141,0.006653,-0.992432,0.342992,0.478168,-0.024122,46,269,583,6224
1644182728.520079,-0.010681,0.008484,-0.993164,0.205588,0.24916,-0.100458,51,271,578,6192
1644182728.568481,-0.010681,0.012817,-0.99231,0.312458,0.356031,-0.054656,47,270,584,6160
1644182728.616874,-0.010498,0.010437,-0.992737,0.251389,0.310229,-0.008855,51,271,580,6128
1644182728.665262,-0.009277,0.009888,-0.990723,0.266656,0.523969,-0.176794,55,276,576,6128
1644182728.713664,-0.007751,0.011108,-0.991516,0.251389,0.386565,-0.024122,48,281,585,6192
1644182728.762059,-0.008606,0.010498,-0.992554,0.159786,0.401832,-0.115725,39,271,580,6224
1644182728.810445,-0.006348,0.012146,-0.994873,0.419328,0.279695,-0.069924,49,282,584,6160
1644182728.85889,-0.007507,0.010193,-0.991577,0.159786,0.539237,0.052214,49,273,582,6224
1644182728.908446,-0.007751,0.010742,-0.992981,0.159786,0.371298,-0.085191,51,279,566,6224
1644182728.958682,-0.01062,0.00885,-0.992126,0.342992,0.417099,-0.161527,58,276,578,6128
1644182729.068137,-0.009399,0.009033,-0.992371,0.281924,0.371298,-0.268397,54,273,589,6224
1644182729.103174,-0.009766,0.007996,-0.990295,0.205588,0.233893,-0.100458,45,285,582,6192
1644182729.149243,-0.011658,0.009521,-0.990784,0.113985,0.325496,-0.024122,49,263,579,6240
1644182729.197591,-0.007568,0.009094,-0.99115,0.190321,0.356031,-0.039389,46,271,583,6128
1644182729.245967,-0.007019,0.009949,-0.992554,0.098718,0.386565,-0.024122,52,280,570,6176
1644182729.29437,-0.009155,0.006592,-0.992615,0.220855,0.340763,-0.100458,41,271,569,6240
1644182729.34276,-0.009888,0.008545,-0.992188,0.236122,0.401832,0.021679,38,270,586,6160
1644182729.391159,-0.008728,0.00769,-0.991943,0.312458,0.356031,-0.008855,49,277,582,6192
1644182729.439555,-0.011169,0.012695,-0.991211,0.327725,0.554504,-0.176794,51,281,585,6176
1644182729.48793,-0.009827,0.010681,-0.991211,0.266656,0.493435,-0.192061,52,273,584,6128
1644182729.53635,-0.009216,0.010193,-0.993713,0.205588,0.493435,-0.039389,54,285,586,6192
1644182729.585002,-0.00885,0.010559,-0.991638,0.327725,0.478168,-0.222595,51,288,578,6224
1644182729.63552,-0.009949,0.009888,-0.992676,0.297191,0.401832,-0.085191,48,271,573,6160
1644182729.685645,-0.008789,0.007141,-0.990234,0.144519,0.478168,0.052214,48,266,580,6176
1644182729.730861,-0.009277,0.00946,-0.991821,0.113985,0.569771,-0.14626,46,276,587,6224
1644182729.82668,-0.007874,0.009888,-0.991394,0.251389,0.462901,-0.100458,36,271,578,6160
1644182729.87562,-0.009033,0.012634,-0.991211,0.205588,0.386565,-0.14626,45,282,579,6128
1644182729.923496,-0.010315,0.009277,-0.994629,0.175053,0.478168,-0.024122,43,281,576,6176
1644182729.9719,-0.008728,0.00885,-0.994629,0.113985,0.386565,-0.069924,51,281,580,6176
1644182730.020297,-0.009094,0.010315,-0.990601,0.175053,0.417099,-0.008855,52,270,575,6176
1644182730.068837,-0.008911,0.008423,-0.992676,0.190321,0.325496,0.052214,47,275,584,6224
1644182730.117069,-0.007812,0.010071,-0.990662,0.35826,0.371298,0.021679,45,277,575,6192
1644182730.165444,-0.009155,0.008484,-0.99054,0.175053,0.493435,-0.115725,42,277,575,6224
1644182730.213848,-0.006531,0.010193,-0.993408,0.251389,0.447634,-0.207328,60,271,576,6128
1644182730.262281,-0.009033,0.010559,-0.988281,0.342992,0.233893,-0.130992,61,270,579,6160
1644182730.310603,-0.007141,0.005798,-0.993225,0.129252,0.371298,-0.039389,47,275,582,6192
1644182730.35903,-0.007324,0.009949,-0.990601,0.266656,0.310229,-0.054656,54,280,572,6224
1644182730.407406,-0.009949,0.010254,-0.992615,0.08345,0.462901,-0.069924,39,269,585,6128
1644182730.45578,-0.007812,0.009705,-0.98938,0.144519,0.340763,-0.115725,49,282,589,6176
1644182730.504178,-0.011353,0.008423,-0.992493,0.190321,0.340763,-0.069924,40,285,589,6176
1644182730.55261,-0.009766,0.012939,-0.989502,0.159786,0.539237,-0.115725,47,268,589,6160
1644182730.600982,-0.007996,0.007629,-0.990295,0.205588,0.478168,-0.115725,48,274,580,6224
1644182730.649372,-0.006348,0.008606,-0.992249,0.052916,0.447634,-0.100458,53,283,590,6224
1644182730.697763,-0.007751,0.011902,-0.992432,0.266656,0.539237,0.036947,51,286,585,6176
1644182730.746385,-0.007446,0.009827,-0.992371,0.220855,0.401832,-0.161527,55,271,585,6128
1644182730.797325,-0.00885,0.006836,-0.990723,0.281924,0.539237,-0.115725,45,282,584,6160
1644182730.84801,-0.006592,0.012268,-0.990967,0.266656,0.356031,-0.008855,36,271,580,6160
1644182730.892552,-0.007629,0.009949,-0.991333,0.312458,0.356031,-0.100458,54,277,575,6160
1644182730.988159,-0.009399,0.008118,-0.990051,0.068183,0.447634,-0.085191,48,279,580,6224
1644182731.036552,-0.008423,0.009949,-0.991211,0.342992,0.325496,0.174351,52,285,589,6304
1644182731.085027,-0.011597,0.010254,-0.994141,0.35826,0.233893,-0.176794,49,275,596,6224
1644182731.133317,-0.010559,0.009827,-0.99231,0.281924,0.310229,-0.085191,43,266,571,6176
1644182731.181704,-0.009521,0.010376,-0.991455,0.312458,0.478168,-0.207328,47,285,584,6160
1644182731.230097,-0.007935,0.010864,-0.990662,0.08345,0.569771,-0.100458,55,269,583,6176
1644182731.278468,-0.008667,0.009155,-0.990112,0.113985,0.294962,-0.085191,48,281,587,6176
1644182731.326847,-0.00946,0.008545,-0.992371,0.175053,0.356031,-0.115725,47,277,582,6224
1644182731.375293,-0.011108,0.009766,-0.990845,0.266656,0.386565,-0.085191,41,276,576,6176
1644182731.423659,-0.009216,0.010681,-0.99054,0.236122,0.203359,-0.222595,52,270,584,6160
1644182731.472067,-0.009277,0.010437,-0.99054,0.220855,0.325496,0.036947,45,280,584,6240
1644182731.520497,-0.007324,0.009216,-0.993286,0.236122,0.279695,-0.085191,53,276,576,6176
1644182731.568857,-0.007019,0.009705,-0.990234,0.327725,0.493435,0.006412,47,287,582,6128
1644182731.617231,-0.008606,0.007996,-0.993164,0.190321,0.432366,-0.161527,52,273,575,6160
1644182731.665633,-0.011353,0.008118,-0.991333,0.220855,0.310229,-0.069924,47,275,584,6160
1644182731.714023,-0.010193,0.012451,-0.988159,0.220855,0.569771,-0.207328,46,274,587,6192
1644182731.762572,-0.008545,0.011963,-0.990601,0.159786,0.539237,-0.115725,53,279,578,6224
1644182731.811035,-0.008118,0.009644,-0.989441,0.297191,0.356031,-0.14626,52,275,584,6128
1644182731.86113,-0.005676,0.00885,-0.99176,0.220855,0.432366,-0.268397,48,269,571,6128
1644182731.911632,-0.007324,0.010193,-0.992188,0.236122,0.432366,-0.008855,43,279,590,6288
1644182731.96148,-0.010803,0.011353,-0.995239,0.144519,0.386565,-0.069924,58,274,587,6224
1644182732.055426,-0.009644,0.007751,-0.993347,0.220855,0.585038,-0.054656,42,277,579,6160
1644182732.101151,-0.007263,0.008667,-0.992249,0.159786,0.493435,-0.085191,51,279,592,6176
1644182732.149546,-0.010437,0.007507,-0.992798,0.236122,0.340763,-0.192061,52,268,589,6176
1644182732.197939,-0.008606,0.008423,-0.993042,0.251389,0.325496,-0.268397,45,270,570,6128
1644182732.24633,-0.009216,0.009399,-0.991516,0.297191,0.294962,-0.161527,36,276,580,6192
1644182732.294745,-0.007935,0.009705,-0.989624,0.373527,0.478168,0.12855,45,277,575,6240
1644182732.343132,-0.00647,0.009583,-0.990784,0.144519,0.386565,-0.054656,40,273,577,6176
1644182732.391494,-0.009399,0.008423,-0.992737,0.220855,0.386565,-0.100458,52,275,575,6160
1644182732.439913,-0.008606,0.010132,-0.989075,0.175053,0.356031,-0.008855,64,270,591,6224
1644182732.488277,-0.005737,0.008484,-0.992615,0.236122,0.386565,-0.25313,53,279,571,6160
1644182732.536693,-0.006714,0.009338,-0.993225,0.159786,0.554504,-0.176794,38,285,579,6176
1644182732.585177,-0.008911,0.007019,-0.991455,0.236122,0.539237,-0.176794,48,279,580,6112
1644182732.633491,-0.009521,0.010925,-0.989624,0.266656,0.325496,-0.024122,52,280,572,6160
1644182732.681879,-0.008667,0.010803,-0.989868,0.373527,0.371298,-0.176794,42,282,589,6176
1644182732.730264,-0.007812,0.009033,-0.987976,0.220855,0.432366,-0.069924,52,273,589,6192
1644182732.778663,-0.01239,0.009094,-0.990051,0.175053,0.310229,0.036947,48,283,594,6176
1644182732.827091,-0.010681,0.007935,-0.990112,0.175053,0.432366,-0.054656,54,280,586,6192
1644182732.87551,-0.007141,0.01001,-0.992004,0.388794,0.417099,-0.130992,49,263,577,6224
1644182732.925322,-0.006348,0.010315,-0.992432,0.113985,0.432366,-0.100458,48,281,580,6224
1644182732.975672,-0.00708,0.010925,-0.988953,0.144519,0.386565,-0.237863,43,276,583,6224
1644182733.025856,-0.009216,0.008545,-0.989502,0.068183,0.432366,-0.085191,53,276,573,6224
1644182733.117392,-0.008606,0.010986,-0.994019,0.312458,0.447634,-0.054656,42,277,582,6176
1644182733.16578,-0.006287,0.014771,-0.991577,0.098718,0.447634,-0.069924,42,290,582,6176
1644182733.214176,-0.009033,0.010376,-0.992859,0.08345,0.371298,-0.222595,49,275,579,6192
1644182733.262578,-0.009399,0.007019,-0.992371,0.251389,0.462901,-0.100458,48,274,580,6192
1644182733.311001,-0.008972,0.009827,-0.992615,0.251389,0.401832,-0.14626,52,270,582,6224
1644182733.35936,-0.006165,0.009277,-0.989502,0.342992,0.493435,0.006412,43,276,576,6224
1644182733.407754,-0.009827,0.010559,-0.994141,0.236122,0.294962,-0.100458,52,277,577,6224
1644182733.456153,-0.007141,0.011597,-0.991577,0.175053,0.462901,-0.100458,53,279,587,6160
1644182733.504539,-0.005798,0.010559,-0.990784,0.327725,0.401832,-0.192061,61,282,577,6192
1644182733.552965,-0.006897,0.012451,-0.991943,0.129252,0.310229,-0.115725,42,273,577,6192
1644182733.601337,-0.00647,0.009644,-0.993042,0.190321,0.554504,-0.085191,49,285,596,6192
1644182733.649738,-0.008911,0.011597,-0.990906,0.236122,0.356031,-0.069924,43,276,580,6240
1644182733.698119,-0.007202,0.009705,-0.993469,0.281924,0.478168,-0.161527,38,285,582,6176
1644182733.746512,-0.008423,0.010254,-0.989197,0.236122,0.24916,-0.207328,58,281,578,6240
1644182733.794892,-0.010376,0.00946,-0.991089,0.281924,0.493435,-0.039389,53,276,590,6224
1644182733.843338,-0.007629,0.009827,-0.991028,0.297191,0.371298,-0.085191,51,276,592,6224
1644182733.891731,-0.009155,0.011292,-0.991821,0.220855,0.493435,-0.069924,60,279,585,6160
1644182733.940194,-0.011597,0.010315,-0.992676,0.113985,0.539237,-0.161527,51,276,585,6160
1644182733.988533,-0.007385,0.011414,-0.991394,0.266656,0.325496,0.036947,51,281,592,6224
1644182734.037664,-0.009766,0.008545,-0.992493,0.144519,0.356031,-0.14626,55,274,587,6224
1644182734.091561,-0.009644,0.012207,-0.991028,0.220855,0.279695,-0.161527,53,274,578,6192
1644182734.139106,-0.00946,0.01178,-0.989563,0.35826,0.340763,-0.14626,47,285,577,6224
1644182734.182538,-0.01001,0.008667,-0.99176,0.297191,0.218626,-0.130992,49,277,575,6192
1644182734.278821,-0.008789,0.012268,-0.991333,0.266656,0.539237,-0.115725,47,280,575,6224
1644182734.327202,-0.006836,0.007446,-0.991272,0.236122,0.462901,-0.054656,40,282,577,6160
1644182734.3756,-0.010132,0.010071,-0.992249,0.159786,0.401832,-0.039389,54,275,584,6192
1644182734.424027,-0.00708,0.012451,-0.990662,0.236122,0.340763,0.036947,55,271,573,6240
1644182734.472394,-0.009705,0.008667,-0.989624,0.113985,0.401832,-0.039389,40,270,584,6160
1644182734.5208,-0.006592,0.010742,-0.991272,0.205588,0.569771,-0.085191,57,285,579,6192
1644182734.569188,-0.010681,0.00647,-0.99292,0.297191,0.462901,-0.130992,41,279,573,6128
1644182734.617592,-0.007874,0.010864,-0.993591,0.190321,0.462901,-0.024122,47,285,579,6112
1644182734.665962,-0.007568,0.008911,-0.99115,0.205588,0.371298,0.006412,53,281,580,6224
1644182734.714377,-0.005676,0.005493,-0.989258,0.022382,0.340763,-0.161527,41,279,578,6160
1644182734.762755,-0.010254,0.014404,-0.992737,0.175053,0.371298,-0.130992,45,273,575,6176
1644182734.811146,-0.008179,0.011841,-0.989929,0.190321,0.508702,-0.161527,61,280,589,6128
1644182734.859592,-0.007446,0.010315,-0.990723,0.404061,0.356031,-0.054656,41,279,580,6176
1644182734.907962,-0.009888,0.008301,-0.991333,0.052916,0.325496,-0.054656,49,287,572,6128
1644182734.956384,-0.00885,0.010254,-0.991455,0.312458,0.478168,0.021679,49,275,591,6224
1644182735.004749,-0.010498,0.010071,-0.992798,0.220855,0.493435,-0.14626,61,280,579,6176
1644182735.068987,-0.008362,0.00946,-0.991821,0.175053,0.600305,-0.039389,49,270,598,6160
1644182735.103506,-0.004761,0.010864,-0.991211,0.068183,0.554504,-0.008855,46,271,580,6160
1644182735.149923,-0.009766,0.008911,-0.991577,0.098718,0.462901,-0.008855,45,282,577,6112
1644182735.198622,-0.008057,0.011658,-0.993164,0.419328,0.371298,-0.207328,49,285,579,6176
1644182735.249148,-0.009827,0.008301,-0.993286,0.236122,0.310229,-0.085191,52,268,575,6176
1644182735.299278,-0.008911,0.009277,-0.992188,0.297191,0.523969,0.021679,53,269,590,6160
1644182735.344301,-0.009705,0.009949,-0.991577,0.419328,0.371298,-0.130992,51,276,578,6176
1644182735.440248,-0.010864,0.00885,-0.989197,0.281924,0.554504,-0.14626,51,274,583,6176
1644182735.488652,-0.009094,0.007629,-0.990662,0.220855,0.401832,0.021679,48,279,578,6224
1644182735.537029,-0.008484,0.010315,-0.992249,0.190321,0.356031,-0.115725,51,262,576,6224
1644182735.585434,-0.008545,0.009155,-0.992981,0.175053,0.386565,-0.024122,48,274,585,6192
1644182735.633846,-0.009277,0.007874,-0.992859,0.236122,0.325496,-0.176794,47,275,577,6160
1644182735.682246,-0.00946,0.006836,-0.992188,0.175053,0.356031,-0.207328,46,271,576,6224
1644182735.730617,-0.006348,0.010315,-0.991882,0.220855,0.294962,-0.008855,59,270,579,6128
1644182735.779008,-0.011108,0.009949,-0.993469,0.205588,0.432366,-0.054656,51,286,587,6160
1644182735.827376,-0.008911,0.01239,-0.99353,0.297191,0.386565,-0.054656,48,283,576,6192
1644182735.875849,-0.006714,0.014954,-0.993103,0.159786,0.340763,-0.161527,51,283,583,6224
1644182735.924214,-0.010315,0.01178,-0.98822,0.342992,0.554504,0.067481,48,264,573,6192
1644182735.972645,-0.006897,0.012634,-0.988831,0.113985,0.386565,0.067481,49,280,589,6128
1644182736.02102,-0.0047,0.013367,-0.993958,0.220855,0.554504,-0.039389,53,281,576,6192
1644182736.083445,-0.008667,0.010742,-0.994324,0.281924,0.340763,-0.161527,48,276,585,6128
1644182736.122596,-0.006409,0.008728,-0.991516,0.129252,0.24916,-0.115725,47,277,586,6128
1644182736.166813,-0.003296,0.013306,-0.989441,0.175053,0.371298,0.082748,51,279,576,6176
1644182736.262951,-0.008423,0.012207,-0.993286,0.159786,0.432366,-0.207328,52,273,582,6128
1644182736.311321,-0.006775,0.007263,-0.992859,0.190321,0.325496,-0.222595,54,280,586,6240
1644182736.359697,-0.009277,0.009033,-0.991089,0.190321,0.539237,-0.100458,48,283,576,6160
1644182736.408117,-0.00946,0.010376,-0.990234,0.144519,0.417099,-0.054656,47,275,582,6224
1644182736.456515,-0.007751,0.009644,-0.989563,0.480397,0.417099,-0.14626,47,275,577,6160
1644182736.504899,-0.007812,0.005676,-0.99176,0.190321,0.386565,-0.024122,58,281,576,6192
1644182736.553303,-0.011841,0.011292,-0.991821,0.190321,0.340763,-0.207328,42,270,579,6224
1644182736.601701,-0.007202,0.010071,-0.990662,0.113985,0.417099,-0.039389,57,270,582,6176
1644182736.650085,-0.009644,0.013062,-0.992065,0.159786,0.523969,0.036947,61,280,584,6176
1644182736.698492,-0.008911,0.009277,-0.992432,0.251389,0.325496,-0.130992,52,277,579,6160
1644182736.746847,-0.007751,0.010132,-0.989624,0.175053,0.325496,-0.176794,43,279,580,6240
1644182736.795341,-0.007202,0.011475,-0.991577,0.327725,0.447634,-0.161527,52,277,572,6128
1644182736.843671,-0.007019,0.011414,-0.992737,0.236122,0.539237,-0.222595,47,280,591,6192
1644182736.892175,-0.01178,0.009216,-0.989624,0.297191,0.401832,-0.14626,55,271,580,6224
1644182736.940478,-0.011108,0.004761,-0.992676,0.266656,0.386565,-0.14626,46,286,585,6240
1644182736.988838,-0.007874,0.011841,-0.988098,0.236122,0.401832,-0.207328,55,269,592,6224
1644182737.037271,-0.007629,0.011536,-0.990417,0.297191,0.447634,-0.14626,54,282,584,6192
1644182737.091346,-0.007141,0.011536,-0.991821,0.220855,0.447634,-0.237863,49,294,586,6160
1644182737.135253,-0.009949,0.010681,-0.988708,0.159786,0.325496,-0.069924,47,275,577,6224
1644182737.18556,-0.013428,0.007385,-0.99176,0.251389,0.585038,-0.039389,48,283,583,6192
1644182737.235716,-0.007812,0.008667,-0.992188,-0.053954,0.325496,-0.176794,62,279,583,6224
1644182737.280293,-0.007751,0.007812,-0.992249,0.419328,0.493435,-0.039389,48,283,587,6176
1644182737.376002,-0.003906,0.010864,-0.993408,0.08345,0.386565,-0.130992,46,271,580,6112
1644182737.424425,-0.009583,0.01178,-0.991394,0.46513,0.24916,-0.054656,53,283,590,6160
1644182737.472814,-0.011841,0.007141,-0.989868,0.129252,0.447634,-0.14626,45,275,577,6176
1644182737.521199,-0.005859,0.008545,-0.990601,0.113985,0.401832,0.021679,52,285,582,6160
1644182737.56958,-0.008667,0.00885,-0.98938,0.266656,0.554504,-0.14626,55,286,576,6224
1644182737.617951,-0.009705,0.008179,-0.990723,0.220855,0.386565,-0.25313,60,271,580,6176
1644182737.666367,-0.007812,0.010376,-0.990234,0.373527,0.523969,-0.085191,55,283,583,6192
1644182737.714782,-0.008789,0.01062,-0.990234,0.266656,0.523969,-0.237863,42,275,575,6160
1644182737.763148,-0.009155,0.008057,-0.991333,0.175053,0.386565,-0.161527,49,273,586,6240
1644182737.811559,-0.008728,0.011292,-0.990173,0.373527,0.523969,-0.039389,51,274,585,6224
1644182737.859944,-0.008728,0.010742,-0.988342,0.113985,0.493435,-0.192061,60,281,571,6224
1644182737.90834,-0.008179,0.012268,-0.991272,0.297191,0.432366,-0.115725,51,276,583,6256
1644182737.956722,-0.007019,0.011047,-0.989441,0.297191,0.417099,-0.024122,52,275,582,6224
1644182738.005185,-0.007751,0.010193,-0.99408,0.266656,0.279695,-0.192061,45,265,582,6192
1644182738.068226,-0.007629,0.011963,-0.995422,0.312458,0.478168,-0.14626,51,271,580,6112
1644182738.105274,-0.00885,0.011597,-0.990662,0.220855,0.294962,0.036947,49,273,586,6224
1644182738.150265,-0.00946,0.010132,-0.991638,0.327725,0.279695,-0.100458,52,260,584,6160
1644182738.198642,-0.011108,0.009521,-0.990479,0.144519,0.401832,-0.14626,62,276,583,6128
1644182738.247312,-0.009705,0.009033,-0.990417,0.159786,0.432366,-0.100458,58,281,583,6192
1644182738.296281,-0.007019,0.008789,-0.991821,0.205588,0.371298,-0.100458,55,279,580,6128
1644182738.346886,-0.009583,0.008484,-0.992126,0.236122,0.417099,-0.069924,40,280,589,6240
1644182738.396953,-0.009216,0.013367,-0.993103,-0.008153,0.554504,-0.115725,49,273,579,6160
1644182738.441913,-0.010437,0.009888,-0.990234,0.175053,0.279695,-0.039389,52,280,589,6240
1644182738.5374,-0.007263,0.008728,-0.989563,0.281924,0.462901,-0.039389,47,268,577,6176
1644182738.585782,-0.007324,0.009949,-0.992615,0.113985,0.386565,-0.222595,45,285,577,6128
1644182738.634198,-0.008972,0.011841,-0.989807,0.175053,0.386565,-0.222595,54,265,575,6176
1644182738.682577,-0.009644,0.007446,-0.990967,0.327725,0.462901,-0.14626,46,279,583,6224
1644182738.73097,-0.006348,0.010498,-0.991333,0.190321,0.371298,-0.069924,47,270,586,6224
1644182738.779361,-0.006714,0.010437,-0.993408,0.251389,0.447634,-0.085191,36,279,580,6160
1644182738.827811,-0.007751,0.010986,-0.991638,0.175053,0.462901,-0.024122,41,276,573,6112
1644182738.876161,-0.008545,0.009216,-0.990112,0.220855,0.447634,-0.085191,52,282,572,6176
1644182738.924724,-0.008118,0.012939,-0.993042,0.175053,0.432366,-0.039389,46,266,594,6176
1644182738.97298,-0.008728,0.008972,-0.991638,0.144519,0.264427,-0.085191,52,280,575,6224
1644182739.021385,-0.00824,0.007141,-0.991577,0.159786,0.401832,-0.192061,54,273,579,6256
1644182739.075309,-0.012085,0.011475,-0.992737,0.098718,0.585038,0.006412,48,281,587,6192
1644182739.118148,-0.00824,0.01001,-0.993347,0.113985,0.417099,-0.024122,47,282,591,6192
1644182739.166511,-0.010376,0.008667,-0.992554,0.281924,0.218626,-0.115725,42,285,577,6224
1644182739.2149,-0.008179,0.008789,-0.993958,0.251389,0.447634,-0.115725,52,265,579,6224
1644182739.263302,-0.009216,0.010986,-0.990479,0.113985,0.508702,-0.161527,57,287,582,6160
1644182739.311697,-0.007629,0.013306,-0.990479,0.281924,0.310229,0.006412,58,279,569,6176
1644182739.360078,-0.008484,0.009338,-0.990173,0.327725,0.386565,-0.115725,41,271,578,6224
1644182739.408731,-0.010742,0.009521,-0.990845,0.220855,0.447634,0.159084,39,269,576,6240
1644182739.459301,-0.008545,0.009338,-0.992249,0.190321,0.432366,-0.069924,52,280,582,6224
1644182739.509454,-0.007019,0.007751,-0.991943,0.251389,0.386565,-0.054656,54,273,582,6128
1644182739.55435,-0.008972,0.008972,-0.992798,0.312458,0.356031,-0.14626,49,275,584,6128
1644182739.650435,-0.010742,0.008484,-0.990356,0.205588,0.310229,-0.054656,51,276,585,6160
1644182739.698808,-0.008972,0.007507,-0.994202,0.251389,0.371298,0.006412,52,277,586,6224
1644182739.747203,-0.007324,0.01001,-0.993591,0.190321,0.432366,-0.130992,51,274,578,6160
1644182739.795609,-0.0047,0.009033,-0.992676,0.129252,0.356031,-0.115725,49,273,584,6192
1644182739.84407,-0.009949,0.008545,-0.990845,0.205588,0.371298,-0.222595,49,265,584,6160
1644182739.892469,-0.008484,0.010925,-0.992859,0.266656,0.340763,-0.054656,42,280,589,6224
1644182739.940839,-0.010254,0.009216,-0.992432,0.281924,0.539237,-0.054656,53,279,566,6256
1644182739.989208,-0.009399,0.009949,-0.993408,0.373527,0.340763,-0.192061,47,280,579,6160
1644182740.037623,-0.008789,0.011414,-0.993408,0.08345,0.417099,0.006412,38,277,579,6224
1644182740.09338,-0.010742,0.011597,-0.991211,0.205588,0.493435,-0.039389,47,275,582,6176
1644182740.134387,-0.006958,0.009216,-0.993103,0.251389,0.401832,0.036947,47,277,579,6224
1644182740.182775,-0.005554,0.007812,-0.991394,0.190321,0.493435,0.082748,52,280,593,6192
1644182740.231143,-0.012634,0.010986,-0.989929,0.144519,0.356031,-0.192061,55,262,585,6192
1644182740.279552,-0.010803,0.009338,-0.991211,0.220855,0.417099,-0.024122,51,271,580,6224
1644182740.327973,-0.012085,0.006714,-0.994751,0.190321,0.432366,-0.14626,61,270,579,6224
1644182740.376331,-0.00708,0.009338,-0.991516,0.129252,0.325496,0.006412,57,273,579,6240
1644182740.424727,-0.008118,0.010986,-0.992249,0.113985,0.478168,0.036947,48,274,587,6160
1644182740.473176,-0.009949,0.01178,-0.993591,0.404061,0.478168,-0.176794,42,285,577,6224
1644182740.523758,-0.009033,0.009583,-0.990051,0.220855,0.340763,-0.008855,41,271,583,6176
1644182740.573888,-0.006714,0.010864,-0.990234,0.175053,0.478168,0.082748,49,270,582,6240
1644182740.619014,-0.009094,0.009094,-0.991455,0.205588,0.371298,-0.115725,46,269,580,6176
1644182740.715309,-0.009216,0.01062,-0.991394,0.190321,0.325496,-0.008855,47,280,586,6192
1644182740.763483,-0.009888,0.012024,-0.99292,0.190321,0.294962,-0.085191,49,277,579,6240
1644182740.811844,-0.007446,0.008728,-0.990967,0.220855,0.63084,-0.100458,55,271,571,6176
1644182740.860286,-0.007751,0.009521,-0.99115,0.129252,0.523969,-0.085191,45,277,572,6240
1644182740.908693,-0.008179,0.013306,-0.991943,0.342992,0.386565,-0.054656,49,282,586,6176
1644182740.957077,-0.006714,0.010742,-0.989807,0.281924,0.371298,-0.008855,48,271,594,6080
1644182741.00546,-0.008057,0.008484,-0.991333,0.205588,0.401832,-0.024122,45,275,579,6112
1644182741.066235,-0.008667,0.009827,-0.990173,0.205588,0.539237,-0.085191,45,270,586,6240
1644182741.105332,-0.009216,0.009033,-0.993835,0.205588,0.310229,0.006412,51,266,590,6224
1644182741.150613,-0.008301,0.009338,-0.99353,0.129252,0.417099,-0.100458,46,286,576,6176
1644182741.199004,-0.007935,0.009399,-0.991882,0.08345,0.462901,0.052214,55,281,587,6128
1644182741.247391,-0.009399,0.009094,-0.992859,0.113985,0.432366,-0.176794,45,277,579,6176
1644182741.295799,-0.01001,0.009644,-0.993103,0.220855,0.417099,-0.176794,47,268,593,6112
1644182741.344197,-0.008362,0.009338,-0.993103,0.08345,0.539237,-0.237863,55,276,585,6160
1644182741.392605,-0.010681,0.010925,-0.99353,0.113985,0.401832,-0.024122,39,276,587,6224
1644182741.440982,-0.009399,0.011536,-0.992371,0.144519,0.340763,-0.14626,54,282,584,6112
1644182741.489395,-0.007446,0.00824,-0.992004,0.098718,0.310229,-0.161527,55,283,590,6192
1644182741.537766,-0.008423,0.014832,-0.992859,0.220855,0.340763,-0.100458,47,285,570,6176
1644182741.586144,-0.01123,0.007751,-0.991333,0.220855,0.325496,-0.100458,55,279,583,6192
1644182741.634924,-0.008118,0.008545,-0.990356,0.327725,0.264427,-0.14626,51,266,583,6176
1644182741.684759,-0.007751,0.008972,-0.99231,0.236122,0.356031,-0.207328,45,285,596,6192
1644182741.735158,-0.008972,0.010132,-0.991455,0.251389,0.432366,-0.054656,52,280,582,6224
1644182741.780241,-0.009338,0.010254,-0.993103,0.175053,0.371298,-0.039389,52,280,579,6256
1644182741.876529,-0.008118,0.009216,-0.99176,0.297191,0.310229,-0.100458,47,275,584,6224
1644182741.924948,-0.006287,0.011047,-0.989319,0.266656,0.233893,-0.161527,48,269,580,6176
1644182741.973332,-0.005981,0.010376,-0.990234,0.190321,0.325496,0.021679,48,264,594,6256
1644182742.021722,-0.007812,0.008972,-0.993469,0.419328,0.432366,-0.008855,43,264,585,6160
1644182742.072315,-0.010254,0.009399,-0.991333,0.098718,0.310229,0.12855,55,274,576,6224
1644182742.118528,-0.007568,0.011353,-0.993591,0.052916,0.417099,-0.039389,52,275,575,6224
1644182742.166858,-0.008423,0.010742,-0.993408,0.159786,0.371298,0.036947,41,276,580,6192
1644182742.215255,-0.008484,0.010376,-0.990662,0.175053,0.417099,-0.130992,45,277,577,6224
1644182742.263661,-0.006531,0.011169,-0.991577,0.205588,0.478168,-0.176794,58,281,576,6224
1644182742.312023,-0.006958,0.009277,-0.991089,0.205588,0.462901,-0.024122,48,276,585,6240
1644182742.360443,-0.012573,0.010132,-0.991882,0.35826,0.325496,-0.176794,54,268,586,6224
1644182742.408838,-0.008911,0.010498,-0.992432,0.297191,0.432366,-0.100458,49,282,586,6192
1644182742.457224,-0.009033,0.012756,-0.988403,0.190321,0.478168,-0.14626,54,277,584,6192
1644182742.505603,-0.007446,0.007385,-0.990417,0.342992,0.340763,-0.024122,45,280,593,6176
1644182742.554034,-0.008423,0.010864,-0.992371,0.129252,0.462901,0.006412,43,288,580,6224
1644182742.602417,-0.009521,0.011414,-0.993591,0.220855,0.401832,0.006412,49,270,577,6224
1644182742.650766,-0.006287,0.008362,-0.988647,0.266656,0.417099,0.052214,48,288,585,6192
1644182742.699186,-0.007263,0.009216,-0.992859,0.266656,0.386565,-0.14626,39,274,578,6224
1644182742.747554,-0.009277,0.007812,-0.99176,0.144519,0.417099,-0.14626,49,273,579,6128
1644182742.796423,-0.005737,0.009888,-0.993347,0.144519,0.508702,-0.039389,52,287,589,6192
1644182742.848428,-0.009094,0.011414,-0.991821,0.113985,0.386565,-0.192061,55,271,592,6160
1644182742.892856,-0.007812,0.010254,-0.991638,0.251389,0.447634,-0.069924,48,266,583,6192
1644182742.989583,-0.00885,0.010986,-0.991089,0.251389,0.279695,-0.14626,53,271,580,6112
1644182743.037994,-0.009338,0.010132,-0.992798,0.190321,0.447634,-0.085191,49,277,577,6224
1644182743.087903,-0.008789,0.008667,-0.990295,0.144519,0.371298,-0.192061,58,279,592,6176
1644182743.134757,-0.008667,0.008972,-0.99231,0.113985,0.615573,-0.161527,49,268,586,6224
1644182743.183136,-0.011719,0.007996,-0.990295,0.236122,0.478168,-0.207328,59,277,582,6176
1644182743.231512,-0.008118,0.009949,-0.99115,0.205588,0.478168,-0.100458,42,275,584,6224
1644182743.279881,-0.010498,0.008545,-0.991394,0.220855,0.401832,-0.161527,52,280,584,6160
1644182743.328286,-0.008606,0.013428,-0.990234,0.159786,0.432366,-0.039389,48,283,592,6160
1644182743.376689,-0.008667,0.009155,-0.992004,-0.008153,0.508702,0.174351,46,269,592,6128
1644182743.425198,-0.009583,0.007874,-0.992065,0.236122,0.325496,-0.039389,40,268,572,6240
1644182743.473487,-0.006104,0.008118,-0.988953,0.373527,0.447634,-0.115725,42,275,582,6160
1644182743.521853,-0.009949,0.010315,-0.992859,0.205588,0.462901,-0.008855,54,282,589,6192
1644182743.570259,-0.009033,0.011108,-0.989441,0.190321,0.340763,0.021679,52,282,593,6128
1644182743.618647,-0.007935,0.008728,-0.991882,0.266656,0.386565,0.036947,48,283,594,6176
1644182743.667043,-0.008728,0.008179,-0.993896,0.220855,0.371298,-0.115725,45,282,589,6160
1644182743.715411,-0.007751,0.011047,-0.993103,0.220855,0.310229,-0.14626,49,285,582,6176
1644182743.763839,-0.010864,0.009094,-0.993347,0.251389,0.432366,-0.14626,46,274,583,6224
1644182743.81224,-0.01123,0.01123,-0.993042,0.251389,0.462901,-0.008855,46,274,587,6176
1644182743.862025,-0.00824,0.00824,-0.992371,0.312458,0.401832,-0.14626,51,271,583,6160
1644182743.912302,-0.008545,0.00946,-0.995667,0.251389,0.310229,-0.069924,45,280,593,6160
1644182743.962948,-0.009888,0.01178,-0.992371,0.175053,0.356031,-0.024122,55,274,583,6256
1644182744.064962,-0.009033,0.011169,-0.99176,0.205588,0.462901,-0.115725,51,279,587,6176
1644182744.10395,-0.009766,0.009949,-0.993042,0.205588,0.417099,-0.069924,57,268,598,6192
1644182744.150995,-0.011169,0.008545,-0.991333,0.175053,0.310229,-0.176794,53,286,580,6192
1644182744.199373,-0.010132,0.008972,-0.992065,0.495664,0.340763,0.036947,48,279,592,6128
1644182744.247748,-0.007996,0.009399,-0.990173,0.129252,0.432366,-0.069924,53,271,590,6224
1644182744.296158,-0.011169,0.009277,-0.994141,0.144519,0.356031,-0.130992,45,280,593,6224
1644182744.344536,-0.008423,0.01416,-0.991943,0.220855,0.417099,-0.054656,38,282,591,6192
1644182744.392957,-0.011658,0.010376,-0.991333,0.251389,0.615573,-0.024122,41,279,583,6224
1644182744.44133,-0.009155,0.01001,-0.992249,0.037649,0.417099,-0.100458,49,285,593,6160
1644182744.489756,-0.010376,0.011414,-0.994202,0.205588,0.340763,0.021679,49,275,593,6224
1644182744.538106,-0.009277,0.008545,-0.993469,0.129252,0.462901,-0.024122,48,271,585,6192
1644182744.586501,-0.012573,0.010742,-0.992859,0.159786,0.417099,-0.008855,58,269,573,6256
1644182744.634893,-0.010803,0.008789,-0.992676,0.312458,0.432366,-0.054656,45,268,598,6224
1644182744.683631,-0.008179,0.009155,-0.994141,0.281924,0.386565,-0.054656,51,279,585,6176
1644182744.732636,-0.009338,0.00946,-0.993347,0.068183,0.478168,0.036947,61,277,584,6192
1644182744.783419,-0.007141,0.00885,-0.992981,0.266656,0.401832,-0.100458,52,277,584,6192
1644182744.834041,-0.006958,0.00769,-0.993713,0.266656,0.508702,-0.130992,46,276,580,6224
1644182744.925463,-0.008728,0.009521,-0.99353,0.297191,0.325496,-0.14626,49,277,577,6128
1644182744.973682,-0.009399,0.007629,-0.990662,0.144519,0.325496,-0.161527,55,269,590,6224
1644182745.022064,-0.007812,0.008118,-0.992126,0.281924,0.462901,-0.085191,55,296,580,6224
1644182745.070514,-0.005859,0.007629,-0.991089,0.205588,0.600305,-0.14626,57,273,584,6160
1644182745.118818,-0.009583,0.011902,-0.991455,0.175053,0.310229,-0.069924,53,293,592,6160
1644182745.16723,-0.004822,0.011169,-0.991577,0.251389,0.371298,-0.100458,51,279,585,6224
1644182745.215608,-0.008972,0.010193,-0.993835,0.404061,0.371298,-0.085191,47,280,579,6224
1644182745.264022,-0.00708,0.007874,-0.992493,0.281924,0.340763,-0.115725,45,280,579,6224
1644182745.312425,-0.011475,0.008606,-0.993225,0.175053,0.539237,-0.085191,58,279,592,6224
1644182745.360804,-0.008545,0.013245,-0.989685,0.175053,0.478168,-0.039389,39,279,580,6160
1644182745.409195,-0.007935,0.010376,-0.991577,0.266656,0.462901,-0.329466,51,281,590,6224
1644182745.457589,-0.009155,0.009277,-0.989685,0.251389,0.386565,-0.054656,53,288,587,6192
1644182745.505965,-0.006836,0.007751,-0.991028,0.205588,0.447634,-0.176794,58,279,583,6192
1644182745.554388,-0.009338,0.007996,-0.989807,0.175053,0.24916,-0.161527,48,286,583,6240
1644182745.602768,-0.009766,0.010315,-0.988342,0.236122,0.386565,-0.115725,41,281,592,6176
1644182745.651147,-0.007568,0.012329,-0.991516,0.251389,0.417099,-0.130992,49,277,598,6176
1644182745.699524,-0.006897,0.009521,-0.992676,0.098718,0.447634,-0.176794,58,274,583,6176
1644182745.747917,-0.006836,0.008545,-0.991455,0.098718,0.401832,-0.192061,45,273,591,6224
1644182745.796582,-0.008606,0.010559,-0.993408,0.342992,0.493435,-0.085191,43,274,585,6160
1644182745.845731,-0.011108,0.007629,-0.992371,0.220855,0.417099,-0.14626,45,282,589,6224
1644182745.896067,-0.00946,0.007446,-0.994873,0.266656,0.340763,0.12855,52,277,591,6176
1644182745.946817,-0.006775,0.007629,-0.992126,0.220855,0.478168,-0.069924,42,277,582,6160
1644182745.990839,-0.012085,0.010986,-0.992737,0.113985,0.432366,-0.069924,43,276,583,6224
1644182746.086798,-0.012024,0.010742,-0.991943,0.159786,0.294962,-0.100458,53,286,585,6224
1644182746.135118,-0.007996,0.010803,-0.990356,0.205588,0.539237,0.067481,43,264,587,6224
1644182746.18347,-0.009094,0.00885,-0.992737,0.190321,0.417099,-0.085191,51,271,587,6224
1644182746.231838,-0.007935,0.013794,-0.992371,0.281924,0.356031,-0.130992,49,273,582,6176
1644182746.280259,-0.007446,0.00946,-0.994446,0.236122,0.432366,-0.207328,42,282,584,6176
1644182746.328647,-0.010071,0.007874,-0.990173,0.35826,0.24916,-0.024122,52,280,582,6128
1644182746.377051,-0.010254,0.007935,-0.99176,0.205588,0.356031,-0.130992,41,276,594,6160
1644182746.425429,-0.005737,0.009644,-0.990295,0.251389,0.447634,-0.069924,48,281,576,6176
1644182746.473832,-0.008911,0.01062,-0.994568,0.251389,0.325496,-0.054656,52,280,586,6240
1644182746.522241,-0.009277,0.010559,-0.99054,0.312458,0.371298,-0.054656,57,275,591,6176
1644182746.570617,-0.011414,0.007019,-0.991028,0.312458,0.340763,-0.100458,39,283,587,6256
1644182746.619008,-0.00946,0.00885,-0.993042,0.220855,0.401832,-0.085191,51,276,580,6192
1644182746.667404,-0.006165,0.006592,-0.993408,0.220855,0.356031,-0.14626,61,287,589,6192
1644182746.715796,-0.008606,0.00946,-0.992737,0.098718,0.294962,-0.008855,55,269,580,6176
1644182746.764198,-0.008972,0.010803,-0.991882,0.098718,0.401832,-0.100458,46,286,583,6160
1644182746.812645,-0.009216,0.013367,-0.992432,0.236122,0.356031,-0.130992,45,273,586,6224
1644182746.861023,-0.007019,0.006042,-0.990417,0.312458,0.401832,-0.14626,48,283,587,6160
1644182746.909411,-0.009827,0.009094,-0.989746,0.205588,0.401832,-0.054656,45,282,591,6224
1644182746.957808,-0.010193,0.00708,-0.992554,0.266656,0.462901,-0.161527,46,274,590,6176
1644182747.062476,-0.008118,0.007874,-0.993347,0.144519,0.356031,-0.115725,43,288,587,6224
1644182747.10689,-0.012268,0.00824,-0.991516,0.342992,0.401832,-0.130992,54,285,596,6192
1644182747.151309,-0.011047,0.008118,-0.995239,0.144519,0.554504,0.098015,46,279,576,6240
1644182747.199731,-0.008423,0.009338,-0.991699,0.281924,0.279695,-0.207328,52,277,589,6128
1644182747.24809,-0.009277,0.007141,-0.991089,0.251389,0.539237,-0.069924,43,276,576,6192
1644182747.296512,-0.008667,0.008179,-0.991699,0.129252,0.386565,-0.14626,40,282,586,6160
1644182747.344901,-0.009094,0.009033,-0.993225,0.266656,0.417099,-0.054656,57,282,586,6176
1644182747.393335,-0.010132,0.008484,-0.992371,0.251389,0.478168,0.006412,47,280,589,6224
1644182747.441649,-0.009583,0.009766,-0.990417,0.251389,0.356031,-0.115725,49,277,593,6160
1644182747.490067,-0.010132,0.012085,-0.991577,0.281924,0.401832,-0.130992,58,269,578,6240
1644182747.538474,-0.009399,0.010986,-0.991577,0.266656,0.386565,-0.115725,55,274,587,6176
1644182747.586865,-0.008301,0.010254,-0.991272,0.205588,0.340763,-0.161527,47,277,584,6160
1644182747.63526,-0.01001,0.010986,-0.992737,0.098718,0.386565,-0.085191,52,280,582,6192
1644182747.683646,-0.010559,0.011475,-0.992004,0.266656,0.386565,-0.161527,55,281,580,6176
1644182747.732044,-0.00769,0.008545,-0.992615,0.281924,0.432366,-0.100458,35,282,589,6160
1644182747.78056,-0.010864,0.009827,-0.993958,0.068183,0.356031,-0.024122,48,271,587,6224
1644182747.832568,-0.009399,0.011292,-0.992615,0.266656,0.447634,-0.100458,49,277,586,6160
1644182747.882149,-0.010071,0.008484,-0.991272,0.327725,0.432366,-0.085191,46,286,590,6160
1644182747.926747,-0.011536,0.011047,-0.990723,0.251389,0.310229,-0.008855,47,277,582,6192
1644182748.022464,-0.007019,0.010254,-0.991394,0.175053,0.447634,-0.008855,47,277,577,6224
1644182748.070895,-0.008362,0.010071,-0.991089,0.220855,0.462901,-0.115725,48,281,585,6128
1644182748.119168,-0.007874,0.009338,-0.991455,0.037649,0.447634,-0.039389,45,273,579,6192
1644182748.167556,-0.006165,0.010437,-0.990417,0.312458,0.325496,-0.100458,52,275,579,6192
1644182748.21596,-0.008545,0.009338,-0.992859,0.266656,0.462901,0.036947,46,276,576,6224
1644182748.26437,-0.009766,0.010254,-0.990845,0.373527,0.340763,-0.222595,49,282,582,6224
1644182748.312759,-0.009155,0.007935,-0.993225,0.144519,0.401832,-0.161527,42,270,584,6160
1644182748.361154,-0.009216,0.011597,-0.992554,0.052916,0.294962,-0.054656,55,279,587,6176
1644182748.409548,-0.00885,0.008484,-0.992249,0.236122,0.218626,-0.298931,49,282,584,6160
1644182748.457927,-0.008789,0.007019,-0.993042,0.251389,0.401832,-0.100458,52,273,584,6160
1644182748.506328,-0.007141,0.012085,-0.988892,0.297191,0.432366,-0.115725,47,277,579,6224
1644182748.554734,-0.008606,0.008728,-0.990356,0.175053,0.417099,-0.085191,57,275,589,6160
1644182748.603127,-0.007629,0.009827,-0.993652,0.266656,0.432366,-0.069924,36,281,590,6160
1644182748.651509,-0.007385,0.012817,-0.992004,0.190321,0.478168,-0.192061,43,276,578,6192
1644182748.699901,-0.009521,0.009399,-0.992249,0.266656,0.508702,-0.161527,55,279,590,6240
1644182748.748259,-0.009277,0.009277,-0.990295,0.251389,0.417099,-0.192061,51,269,590,6176
1644182748.796683,-0.00885,0.012939,-0.993958,0.190321,0.401832,-0.14626,52,277,586,6160
1644182748.845235,-0.007568,0.010803,-0.992676,0.190321,0.371298,-0.161527,57,280,579,6224
1644182748.893513,-0.008667,0.010742,-0.993103,0.342992,0.417099,-0.085191,40,280,589,6160
1644182748.942863,-0.00824,0.009216,-0.992493,0.266656,0.478168,-0.069924,52,280,582,6128
1644182748.993487,-0.009888,0.009277,-0.988403,0.205588,0.417099,-0.161527,58,271,585,6128
1644182749.043777,-0.008301,0.010132,-0.991333,0.007115,0.508702,-0.192061,51,276,587,6160
1644182749.090317,-0.008484,0.00647,-0.993164,0.251389,0.356031,-0.100458,42,290,589,6224
1644182749.183865,-0.006958,0.006836,-0.994629,0.175053,0.478168,0.021679,55,279,583,6160
1644182749.23239,-0.009827,0.008362,-0.99292,0.312458,0.432366,-0.115725,49,280,586,6176
1644182749.280604,-0.010376,0.009583,-0.991455,0.297191,0.356031,-0.008855,45,285,593,6112
1644182749.328988,-0.006958,0.007874,-0.992065,0.266656,0.401832,-0.069924,54,270,577,6224
1644182749.37737,-0.008606,0.010681,-0.992554,0.159786,0.432366,-0.069924,51,286,585,6224
1644182749.425778,-0.009949,0.01178,-0.99231,0.098718,0.417099,-0.192061,47,268,582,6160
1644182749.474178,-0.008301,0.012878,-0.991089,0.388794,0.493435,-0.14626,43,279,592,6176
1644182749.522593,-0.010986,0.007874,-0.991943,0.068183,0.432366,-0.192061,41,279,592,6192
1644182749.570977,-0.006653,0.008972,-0.993591,0.236122,0.371298,-0.085191,52,280,584,6256
1644182749.619363,-0.010376,0.009521,-0.992065,0.236122,0.432366,-0.25313,47,285,586,6224
1644182749.667756,-0.010132,0.008728,-0.989563,0.327725,0.417099,-0.100458,51,274,590,6160
1644182749.716155,-0.009827,0.010071,-0.990662,0.220855,0.447634,-0.115725,46,283,578,6176
1644182749.764539,-0.008911,0.008728,-0.988892,0.266656,0.462901,-0.008855,52,280,598,6176
1644182749.812949,-0.009644,0.006775,-0.993286,0.113985,0.478168,-0.069924,48,276,594,6160
1644182749.861377,-0.010376,0.007935,-0.991516,0.144519,0.508702,-0.100458,53,281,578,6160
1644182749.90975,-0.01001,0.009888,-0.991211,0.236122,0.401832,0.021679,51,274,585,6128
1644182749.958141,-0.010132,0.008484,-0.990112,0.281924,0.386565,-0.069924,51,279,587,6128
1644182750.006554,-0.00885,0.010559,-0.991089,0.327725,0.646107,0.021679,49,277,589,6224
1644182750.077336,-0.00946,0.008179,-0.993286,0.251389,0.569771,-0.054656,41,274,590,6176
1644182750.108219,-0.008789,0.009766,-0.990845,0.175053,0.539237,0.036947,48,266,590,6192
1644182750.156667,-0.009033,0.008911,-0.991272,0.297191,0.401832,-0.054656,52,273,589,6160
1644182750.20533,-0.011047,0.009705,-0.991394,0.251389,0.356031,-0.14626,43,264,594,6128
1644182750.296878,-0.006592,0.012024,-0.992493,0.08345,0.432366,-0.130992,58,286,590,6224
1644182750.345423,-0.008057,0.01123,-0.991699,0.266656,0.417099,-0.298931,52,277,582,6224
1644182750.393662,-0.006165,0.010132,-0.99292,0.159786,0.523969,-0.130992,43,281,592,6224
1644182750.442024,-0.012207,0.006104,-0.992981,0.129252,0.340763,-0.024122,46,274,592,6192
1644182750.490454,-0.00769,0.007141,-0.992615,0.220855,0.493435,-0.039389,40,277,579,6240
1644182750.538826,-0.010437,0.009583,-0.994263,0.35826,0.279695,-0.085191,48,271,585,6224
1644182750.587216,-0.009033,0.010742,-0.992859,0.35826,0.432366,-0.130992,52,273,584,6176
1644182750.635587,-0.007935,0.007202,-0.993042,0.129252,0.493435,-0.039389,48,276,594,6128
1644182750.684011,-0.00824,0.011414,-0.991516,0.35826,0.386565,-0.222595,55,283,597,6224
1644182750.732419,-0.008911,0.011719,-0.99292,0.297191,0.264427,-0.054656,55,279,580,6176
1644182750.7808,-0.009094,0.011841,-0.992188,0.281924,0.401832,-0.054656,42,277,598,6160
1644182750.829182,-0.00824,0.010376,-0.990784,0.388794,0.401832,-0.115725,52,285,591,6128
1644182750.877604,-0.007751,0.010315,-0.991516,0.236122,0.523969,-0.085191,51,274,592,6176
1644182750.925992,-0.010193,0.012878,-0.991028,0.297191,0.371298,0.006412,47,280,584,6224
1644182750.974411,-0.009216,0.012695,-0.989502,0.342992,0.401832,-0.100458,46,286,587,6128
1644182751.022818,-0.009521,0.008301,-0.991577,0.312458,0.478168,-0.069924,41,274,585,6160
1644182751.084955,-0.006897,0.008667,-0.990723,0.113985,0.478168,-0.14626,46,276,585,6192
1644182751.124016,-0.009766,0.008972,-0.994934,0.144519,0.508702,-0.14626,48,279,587,6224
1644182751.168944,-0.007935,0.010315,-0.990356,0.068183,0.371298,-0.161527,52,273,584,6192
1644182751.264971,-0.010681,0.007324,-0.99176,0.281924,0.585038,-0.100458,35,280,584,6176
1644182751.313137,-0.00708,0.010254,-0.991821,0.327725,0.294962,-0.100458,46,288,580,6160
1644182751.361495,-0.007812,0.010193,-0.989868,0.266656,0.432366,-0.024122,58,286,576,6176
1644182751.409887,-0.006104,0.011108,-0.991638,0.129252,0.24916,-0.25313,57,280,579,6160
1644182751.458281,-0.00885,0.007141,-0.99115,0.312458,0.417099,-0.054656,53,269,580,6192
1644182751.506672,-0.007019,0.009705,-0.991516,0.236122,0.417099,-0.039389,53,281,587,6112
1644182751.555102,-0.008667,0.009949,-0.993469,0.220855,0.294962,-0.100458,54,277,589,6176
1644182751.603477,-0.010864,0.009094,-0.988831,0.129252,0.356031,-0.069924,38,277,579,6128
1644182751.651875,-0.009827,0.010315,-0.992249,0.220855,0.356031,-0.115725,48,283,587,6192
1644182751.70026,-0.010254,0.011047,-0.991272,0.266656,0.432366,-0.14626,47,273,579,6256
1644182751.74863,-0.007324,0.009583,-0.99231,0.144519,0.432366,-0.069924,42,280,586,6176
1644182751.797047,-0.008728,0.007935,-0.991455,0.068183,0.447634,-0.069924,57,277,579,6192
1644182751.845428,-0.006714,0.011475,-0.987793,0.251389,0.432366,-0.176794,46,283,583,6224
1644182751.893847,-0.008057,0.007568,-0.989563,0.052916,0.218626,-0.115725,46,271,587,6160
1644182751.942281,-0.012939,0.010925,-0.990234,0.068183,0.447634,-0.054656,36,283,585,6256
1644182751.990647,-0.011169,0.011047,-0.993042,0.190321,0.432366,-0.100458,48,281,585,6192
1644182752.039034,-0.007874,0.008057,-0.990723,0.327725,0.417099,-0.085191,41,271,587,6128
1644182752.092542,-0.010376,0.010254,-0.991577,0.190321,0.432366,0.036947,51,279,580,6160
1644182752.138226,-0.007568,0.009583,-0.989624,0.388794,0.386565,-0.024122,54,273,591,6192
1644182752.188761,-0.007446,0.006958,-0.992126,0.281924,0.432366,-0.130992,52,282,596,6176
1644182752.237611,-0.006348,0.012268,-0.988953,0.037649,0.371298,0.021679,45,280,596,6224
1644182752.329336,-0.009644,0.01416,-0.992737,0.190321,0.493435,-0.222595,47,280,589,6160
1644182752.377735,-0.010803,0.011475,-0.989319,0.297191,0.432366,-0.130992,51,271,585,6224
1644182752.426133,-0.011353,0.00824,-0.99176,0.205588,0.401832,-0.14626,49,280,582,6176
1644182752.47454,-0.010376,0.012024,-0.990417,0.342992,0.386565,0.006412,42,273,584,6192
1644182752.522927,-0.006287,0.010315,-0.989685,0.175053,0.417099,-0.085191,46,274,585,6224
1644182752.57133,-0.007812,0.009521,-0.990662,0.159786,0.356031,0.098015,47,290,582,6192
1644182752.619734,-0.007263,0.008667,-0.989197,0.159786,0.478168,-0.161527,45,287,579,6192
1644182752.66812,-0.012695,0.008728,-0.992493,0.175053,0.585038,-0.192061,47,273,586,6192
1644182752.716511,-0.009583,0.008362,-0.991943,0.236122,0.371298,-0.115725,61,280,584,6160
1644182752.764896,-0.009277,0.009644,-0.992371,0.190321,0.340763,-0.161527,41,281,583,6128
1644182752.813313,-0.006714,0.00946,-0.992676,0.236122,0.478168,0.021679,46,269,585,6224
1644182752.861686,-0.009338,0.011475,-0.989258,0.022382,0.401832,-0.054656,49,280,577,6176
1644182752.910128,-0.007446,0.010559,-0.99115,0.281924,0.310229,-0.069924,45,277,593,6192
1644182752.958507,-0.007019,0.007324,-0.990845,0.281924,0.325496,-0.192061,57,273,593,6224
1644182753.006886,-0.007019,0.008484,-0.98938,0.251389,0.356031,-0.069924,51,281,587,6240
1644182753.066681,-0.010681,0.010376,-0.991821,0.236122,0.356031,-0.008855,48,279,599,6176
1644182753.104997,-0.007751,0.010254,-0.990601,0.236122,0.493435,-0.054656,52,282,589,6224
1644182753.15202,-0.008179,0.010193,-0.992859,0.35826,0.279695,-0.100458,53,283,594,6192
1644182753.200427,-0.007996,0.009705,-0.991882,0.281924,0.462901,-0.069924,43,276,585,6224
1644182753.249098,-0.007202,0.009888,-0.990173,0.113985,0.508702,-0.039389,65,283,583,6128
1644182753.299475,-0.008301,0.00824,-0.992554,0.266656,0.493435,0.052214,46,281,592,6128
1644182753.350063,-0.00946,0.013245,-0.990662,0.373527,0.493435,-0.130992,53,279,597,6128
1644182753.394821,-0.007812,0.008118,-0.992432,0.251389,0.340763,-0.176794,53,274,583,6160
1644182753.490801,-0.004883,0.012024,-0.98938,0.495664,0.356031,-0.024122,52,275,586,6176
1644182753.539182,-0.008606,0.011292,-0.992859,0.190321,0.478168,-0.192061,47,268,589,6192
1644182753.58756,-0.007202,0.010925,-0.992554,0.297191,0.493435,-0.085191,52,263,582,6192
1644182753.635964,-0.007874,0.008545,-0.990601,0.220855,0.340763,-0.054656,52,275,596,6224
1644182753.684369,-0.009094,0.01001,-0.989502,0.327725,0.462901,-0.100458,46,279,583,6160
1644182753.73278,-0.008911,0.009521,-0.992004,0.08345,0.386565,-0.176794,46,269,583,6160
1644182753.781123,-0.009399,0.010742,-0.98938,0.190321,0.218626,-0.161527,53,274,587,6112
1644182753.829587,-0.008301,0.009644,-0.990845,0.266656,0.447634,-0.130992,52,275,572,6192
1644182753.877979,-0.008423,0.01001,-0.989868,0.266656,0.325496,-0.14626,46,286,578,6176
1644182753.926379,-0.011597,0.008362,-0.992615,0.236122,0.432366,-0.024122,55,276,585,6192
1644182753.974785,-0.011597,0.005005,-0.990417,0.205588,0.188092,-0.039389,43,288,580,6224
1644182754.023177,-0.009277,0.008423,-0.992249,0.190321,0.371298,-0.039389,60,279,583,6192
1644182754.084363,-0.009216,0.007324,-0.992676,0.205588,0.569771,0.036947,52,277,589,6192
1644182754.120052,-0.010193,0.00946,-0.993042,0.190321,0.478168,-0.054656,49,282,582,6176
1644182754.170214,-0.008545,0.008911,-0.991028,0.35826,0.371298,-0.207328,46,271,590,6192
1644182754.220486,-0.006958,0.010681,-0.992981,0.175053,0.462901,-0.069924,55,286,592,6128
1644182754.265671,-0.01062,0.010132,-0.991272,0.159786,0.386565,-0.100458,48,283,583,6176
1644182754.361867,-0.008911,0.007812,-0.9953,0.312458,0.508702,0.006412,53,283,576,6176
1644182754.410251,-0.009949,0.007385,-0.990601,0.281924,0.371298,-0.039389,47,277,591,6176
1644182754.458646,-0.008789,0.012573,-0.992798,0.190321,0.569771,-0.008855,58,274,587,6224
1644182754.50702,-0.008301,0.008667,-0.991516,0.052916,0.508702,-0.14626,35,273,589,6128
1644182754.555513,-0.006714,0.008789,-0.991211,0.266656,0.371298,-0.14626,48,271,578,6224
1644182754.60384,-0.00708,0.011292,-0.991821,0.297191,0.340763,-0.14626,53,288,592,6176
1644182754.652238,-0.010315,0.009705,-0.988586,0.388794,0.447634,-0.176794,45,285,586,6160
1644182754.700623,-0.006897,0.013245,-0.991455,0.266656,0.417099,-0.069924,46,281,592,6160
1644182754.748974,-0.007568,0.010376,-0.994202,0.205588,0.340763,-0.069924,46,281,587,6224
1644182754.797396,-0.010315,0.010681,-0.990479,0.159786,0.356031,-0.069924,48,274,594,6192
1644182754.845822,-0.009155,0.012573,-0.993103,0.175053,0.493435,-0.115725,42,290,584,6224
1644182754.894237,-0.009766,0.009216,-0.990051,0.159786,0.325496,-0.161527,55,274,585,6192
1644182754.942608,-0.009888,0.010864,-0.988953,0.281924,0.432366,-0.100458,42,275,586,6112
1644182754.991009,-0.008179,0.008789,-0.990479,0.236122,0.432366,-0.069924,54,270,584,6192
1644182755.039408,-0.007874,0.010742,-0.991455,0.08345,0.447634,-0.115725,43,279,592,6240
1644182755.096221,-0.007996,0.010681,-0.989258,0.236122,0.447634,-0.100458,36,279,587,6224
1644182755.136161,-0.008423,0.009705,-0.987427,0.220855,0.264427,-0.115725,54,280,591,6176
1644182755.184535,-0.007629,0.011841,-0.992859,0.327725,0.508702,-0.100458,54,270,591,6192
1644182755.233008,-0.008667,0.009033,-0.99292,0.08345,0.356031,0.021679,46,279,597,6192
1644182755.282272,-0.007935,0.01001,-0.99115,0.297191,0.371298,-0.161527,61,285,600,6192
1644182755.332865,-0.008606,0.009033,-0.989685,0.236122,0.279695,-0.161527,49,277,591,6128
1644182755.382753,-0.010254,0.009094,-0.991821,0.251389,0.310229,-0.14626,52,280,582,6128
1644182755.427767,-0.009399,0.008423,-0.993835,0.159786,0.218626,-0.100458,52,280,584,6176
1644182755.523312,-0.01062,0.006897,-0.992249,0.205588,0.447634,-0.192061,53,269,578,6192
1644182755.571674,-0.007874,0.012634,-0.990906,0.175053,0.523969,-0.024122,35,280,582,6128
1644182755.620064,-0.009949,0.009338,-0.990479,0.159786,0.417099,-0.100458,45,268,586,6224
1644182755.668464,-0.006531,0.012451,-0.991333,0.266656,0.340763,-0.161527,51,286,585,6224
1644182755.716844,-0.009827,0.00946,-0.993103,0.190321,0.356031,0.052214,54,285,596,6224
1644182755.765246,-0.006958,0.011719,-0.989807,0.144519,0.371298,-0.069924,52,277,579,6224
1644182755.813623,-0.007507,0.010254,-0.992737,0.251389,0.569771,-0.161527,46,276,594,6240
1644182755.862087,-0.007568,0.009033,-0.992004,0.312458,0.371298,-0.207328,53,259,590,6224
1644182755.910477,-0.009277,0.00885,-0.994019,0.419328,0.356031,0.052214,58,271,592,6192
1644182755.958866,-0.008423,0.009705,-0.99353,0.190321,0.340763,-0.192061,47,275,584,6176
1644182756.007261,-0.007874,0.011597,-0.990662,0.205588,0.462901,-0.069924,45,280,586,6224
1644182756.066237,-0.010559,0.010315,-0.987854,0.236122,0.462901,-0.130992,48,276,578,6160
1644182756.10407,-0.00824,0.010742,-0.98999,0.190321,0.371298,-0.115725,39,283,585,6224
1644182756.152415,-0.00647,0.009766,-0.990295,0.068183,0.401832,0.006412,42,270,579,6176
1644182756.200785,-0.009094,0.010986,-0.991699,0.297191,0.310229,-0.176794,52,285,579,6224
1644182756.249175,-0.003479,0.010559,-0.989868,0.037649,0.432366,-0.039389,49,273,584,6176
1644182756.297572,-0.007751,0.013611,-0.991272,0.236122,0.539237,-0.054656,51,281,585,6128
1644182756.345962,-0.008545,0.006714,-0.993408,0.144519,0.371298,0.067481,53,276,590,6176
1644182756.394358,-0.006836,0.01062,-0.989197,0.220855,0.371298,-0.069924,49,270,577,6112
1644182756.44315,-0.007935,0.010742,-0.989807,0.190321,0.356031,-0.085191,61,285,582,6160
1644182756.493741,-0.010315,0.008423,-0.992126,0.297191,0.508702,-0.039389,59,277,593,6240
1644182756.544199,-0.011475,0.012024,-0.990784,0.190321,0.371298,-0.039389,47,280,579,6176
1644182756.588782,-0.009521,0.00885,-0.992859,0.144519,0.432366,0.052214,47,270,586,6224
1644182756.684866,-0.005737,0.009766,-0.988953,0.251389,0.432366,-0.14626,51,279,590,6192
1644182756.733104,-0.010437,0.00824,-0.992371,0.236122,0.310229,-0.237863,48,271,592,6176
1644182756.781485,-0.008545,0.009888,-0.992493,0.220855,0.340763,-0.130992,46,276,585,6128
1644182756.829895,-0.007324,0.00769,-0.991943,0.327725,0.417099,-0.085191,48,279,583,6192
1644182756.878337,-0.007568,0.007996,-0.991272,0.052916,0.462901,-0.130992,41,276,576,6128
1644182756.926713,-0.010071,0.013062,-0.990356,0.266656,0.401832,-0.192061,45,270,584,6192
1644182756.975159,-0.009338,0.013611,-0.992554,0.129252,0.462901,0.021679,53,281,592,6160
1644182757.023516,-0.00708,0.007751,-0.992065,0.144519,0.432366,-0.069924,59,280,589,6192
1644182757.074233,-0.007446,0.011108,-0.99292,0.281924,0.264427,-0.176794,51,269,580,6192
1644182757.120335,-0.00647,0.009277,-0.993042,0.281924,0.447634,-0.100458,57,280,598,6224
1644182757.168653,-0.010559,0.008667,-0.994202,0.373527,0.310229,-0.100458,55,266,585,6160
1644182757.217046,-0.008911,0.010681,-0.990173,0.205588,0.417099,-0.14626,52,275,589,6160
1644182757.265401,-0.008179,0.00885,-0.995056,0.297191,0.478168,-0.176794,53,281,573,6176
1644182757.313827,-0.009827,0.009216,-0.990356,0.190321,0.386565,0.021679,60,276,580,6192
1644182757.362237,-0.009827,0.010864,-0.99054,0.220855,0.523969,-0.054656,42,294,589,6112
1644182757.410611,-0.008484,0.008911,-0.989197,0.175053,0.432366,-0.115725,51,286,587,6128
1644182757.459003,-0.008301,0.013,-0.994141,0.251389,0.417099,-0.176794,55,283,583,6224
1644182757.50738,-0.010376,0.00885,-0.989502,0.175053,0.432366,-0.115725,51,274,583,6240
1644182757.555763,-0.009338,0.009949,-0.992981,0.205588,0.478168,0.021679,47,282,586,6224
1644182757.604508,-0.007935,0.009216,-0.989807,0.129252,0.24916,0.021679,59,277,586,6160
1644182757.655048,-0.011841,0.009216,-0.990417,0.297191,0.417099,0.021679,47,273,591,6176
1644182757.705184,-0.008423,0.007324,-0.992249,0.281924,0.508702,-0.069924,60,279,590,6160
1644182757.750306,-0.007812,0.00824,-0.993469,0.236122,0.417099,-0.161527,58,276,585,6240
1644182757.846134,-0.005066,0.010498,-0.98938,0.068183,0.432366,-0.069924,49,280,579,6256
1644182757.89489,-0.009827,0.011047,-0.988953,0.144519,0.447634,-0.054656,41,269,585,6224
1644182757.942986,-0.008484,0.009583,-0.991638,0.236122,0.417099,-0.024122,46,281,592,6192
1644182757.991331,-0.008118,0.009338,-0.990601,0.327725,0.585038,-0.14626,52,277,586,6192
1644182758.039763,-0.007385,0.011658,-0.991577,0.129252,0.447634,0.036947,53,271,592,6224
1644182758.090135,-0.008728,0.011353,-0.990784,0.113985,0.356031,0.006412,51,276,590,6224
1644182758.136551,-0.009033,0.009949,-0.991943,0.037649,0.340763,-0.039389,43,276,585,6160
1644182758.18489,-0.007385,0.008972,-0.990723,0.129252,0.432366,-0.115725,49,280,584,6224
1644182758.233294,-0.009949,0.009155,-0.989868,0.175053,0.432366,0.082748,43,283,587,6160
1644182758.281666,-0.010193,0.011475,-0.991699,0.251389,0.310229,-0.069924,64,280,582,6128
1644182758.330073,-0.007019,0.010132,-0.992493,0.251389,0.462901,-0.222595,53,271,585,6240
1644182758.378463,-0.00708,0.008057,-0.992554,0.327725,0.432366,-0.14626,43,274,576,6240
1644182758.426856,-0.008484,0.010315,-0.991028,0.190321,0.401832,-0.115725,48,279,587,6192
1644182758.475257,-0.009399,0.011658,-0.989685,0.220855,0.386565,-0.054656,54,290,572,6192
1644182758.523645,-0.006165,0.010681,-0.992615,0.159786,0.462901,-0.039389,48,283,585,6160
1644182758.572036,-0.006409,0.012817,-0.991821,0.220855,0.417099,-0.085191,39,279,573,6224
1644182758.620429,-0.011108,0.006409,-0.993408,0.144519,0.462901,-0.008855,43,266,587,6192
1644182758.668867,-0.009094,0.008484,-0.99176,0.205588,0.554504,-0.207328,46,269,587,6160
1644182758.719519,-0.010681,0.007446,-0.993164,0.08345,0.356031,-0.024122,61,270,593,6192
1644182758.769495,-0.007751,0.009827,-0.991272,0.175053,0.279695,-0.25313,57,265,586,6176
1644182758.815548,-0.009338,0.009399,-0.995667,0.220855,0.432366,-0.115725,58,269,583,6224
1644182758.910825,-0.010803,0.006714,-0.992676,0.190321,0.371298,-0.008855,49,268,582,6160
1644182758.95923,-0.005737,0.010132,-0.992004,0.190321,0.356031,-0.130992,46,276,585,6128
1644182759.007599,-0.007385,0.011047,-0.993042,0.144519,0.294962,-0.024122,54,282,579,6176
1644182759.067641,-0.007874,0.011414,-0.991272,0.113985,0.340763,-0.222595,51,279,566,6128
1644182759.104394,-0.008423,0.008911,-0.989624,0.052916,0.401832,-0.115725,41,283,585,6176
1644182759.152804,-0.005432,0.009583,-0.990967,0.159786,0.508702,-0.192061,54,280,584,6240
1644182759.201164,-0.011169,0.008057,-0.994019,0.236122,0.417099,-0.054656,51,281,580,6160
1644182759.249551,-0.007385,0.009094,-0.993774,0.266656,0.325496,-0.115725,45,280,579,6160
1644182759.297961,-0.008667,0.010864,-0.991272,0.220855,0.279695,-0.069924,46,271,592,6192
1644182759.346367,-0.009399,0.010254,-0.991455,0.175053,0.157557,-0.024122,57,282,598,6256
1644182759.394771,-0.008789,0.00824,-0.991455,0.327725,0.325496,-0.192061,51,283,580,6128
1644182759.443166,-0.006165,0.00824,-0.992615,0.297191,0.462901,-0.100458,43,264,583,6128
1644182759.491885,-0.00708,0.01178,-0.991089,0.175053,0.478168,-0.054656,49,275,575,6176
1644182759.539934,-0.011414,0.006836,-0.989197,0.144519,0.401832,-0.039389,40,260,577,6192
1644182759.588681,-0.006653,0.011475,-0.993286,0.236122,0.356031,-0.069924,54,280,591,6160
1644182759.636753,-0.010193,0.00885,-0.992554,0.190321,0.325496,-0.069924,52,277,586,6224
1644182759.687037,-0.006287,0.006775,-0.991699,0.190321,0.356031,-0.14626,55,283,578,6224
1644182759.73734,-0.009216,0.012939,-0.992615,0.251389,0.401832,-0.207328,42,277,596,6176
1644182759.78792,-0.010437,0.008972,-0.99176,0.342992,0.417099,-0.100458,51,279,594,6128
1644182759.831847,-0.006104,0.010986,-0.990417,0.236122,0.340763,-0.054656,55,274,585,6240
1644182759.927075,-0.010681,0.009033,-0.993347,0.113985,0.447634,-0.115725,57,285,584,6256
1644182759.975449,-0.010803,0.009216,-0.991455,0.144519,0.356031,-0.192061,47,273,591,6160
1644182760.023864,-0.005859,0.008972,-0.990173,0.159786,0.478168,0.052214,52,277,589,6128
1644182760.072351,-0.008972,0.010864,-0.98761,0.144519,0.310229,-0.14626,46,271,590,6160
1644182760.120572,-0.007446,0.012024,-0.990784,0.236122,0.417099,0.082748,41,286,583,6224
1644182760.168996,-0.006897,0.009766,-0.990601,0.220855,0.279695,-0.024122,40,275,577,6128
1644182760.217389,-0.006104,0.007935,-0.991577,0.175053,0.356031,-0.130992,43,276,590,6240
1644182760.265788,-0.009521,0.00708,-0.991028,0.220855,0.447634,-0.115725,59,280,584,6224
1644182760.314154,-0.009583,0.011169,-0.990417,0.129252,0.523969,-0.039389,46,274,585,6128
1644182760.362601,-0.008423,0.009521,-0.993164,0.129252,0.371298,-0.176794,48,274,587,6224
1644182760.410973,-0.009094,0.011108,-0.989929,0.342992,0.447634,-0.115725,45,275,593,6192
1644182760.459378,-0.011353,0.008789,-0.990662,0.144519,0.386565,-0.100458,43,291,599,6192
1644182760.507727,-0.007629,0.010864,-0.993103,0.190321,0.401832,-0.085191,57,273,593,6160
1644182760.556159,-0.008728,0.007935,-0.990967,0.129252,0.401832,-0.207328,45,280,586,6128
1644182760.604525,-0.009216,0.011963,-0.992188,0.342992,0.356031,-0.069924,48,283,576,6128
1644182760.652944,-0.007812,0.008484,-0.994812,0.08345,0.523969,-0.207328,45,287,575,6080
1644182760.701317,-0.008545,0.007263,-0.990234,0.205588,0.569771,-0.085191,55,274,585,6224
1644182760.749689,-0.00769,0.00708,-0.990906,0.205588,0.386565,-0.054656,57,285,582,6176
1644182760.798115,-0.008423,0.009888,-0.992493,0.129252,0.310229,-0.100458,60,279,594,6224
1644182760.847743,-0.008362,0.00708,-0.991821,0.388794,0.386565,-0.115725,48,274,587,6160
1644182760.89807,-0.00708,0.009521,-0.99176,0.113985,0.417099,-0.161527,43,271,585,6112
1644182760.948092,-0.005981,0.009155,-0.994202,0.144519,0.462901,-0.039389,43,276,587,6224
1644182760.992662,-0.009338,0.009277,-0.98822,0.175053,0.386565,-0.14626,54,280,582,6160
1644182761.088549,-0.008667,0.006531,-0.990173,0.129252,0.356031,-0.161527,49,270,579,6192
1644182761.136823,-0.00946,0.009949,-0.99115,0.434595,0.523969,-0.161527,54,282,586,6160
1644182761.185391,-0.009277,0.008606,-0.990417,0.159786,0.417099,0.143817,49,275,579,6128
1644182761.233655,-0.007629,0.011292,-0.991821,0.373527,0.386565,-0.039389,54,273,586,6160
1644182761.282022,-0.00647,0.008057,-0.992615,0.373527,0.401832,-0.054656,51,269,585,6240
1644182761.33042,-0.010193,0.010437,-0.99353,0.205588,0.340763,-0.176794,38,282,572,6176
1644182761.378826,-0.008423,0.007996,-0.991516,0.144519,0.401832,-0.069924,48,276,587,6160
1644182761.427221,-0.007446,0.009155,-0.99231,0.236122,0.371298,-0.176794,52,275,584,6192
1644182761.47562,-0.008606,0.009216,-0.992065,0.175053,0.386565,-0.115725,43,279,590,6160
1644182761.524015,-0.007263,0.009155,-0.994873,0.175053,0.432366,-0.069924,51,279,580,6224
1644182761.572395,-0.009216,0.009033,-0.989929,0.297191,0.432366,-0.054656,55,279,585,6160
1644182761.620774,-0.008118,0.01001,-0.99176,0.068183,0.569771,0.021679,45,282,577,6176
1644182761.669192,-0.009705,0.011292,-0.992126,0.236122,0.218626,-0.085191,58,279,585,6192
1644182761.717575,-0.006287,0.00946,-0.992615,0.419328,0.447634,-0.268397,47,270,584,6176
1644182761.76593,-0.010071,0.008606,-0.99231,0.281924,0.508702,-0.130992,43,276,587,6192
1644182761.814407,-0.012756,0.009399,-0.994812,0.236122,0.539237,-0.237863,54,275,589,6192
1644182761.862827,-0.009583,0.010742,-0.991516,0.175053,0.508702,-0.115725,49,275,589,6224
1644182761.911182,-0.007629,0.009888,-0.991455,0.098718,0.401832,-0.14626,49,268,577,6192
1644182761.959584,-0.008789,0.007019,-0.988525,0.159786,0.462901,-0.054656,46,279,580,6128
1644182762.067053,-0.007629,0.009399,-0.991394,0.205588,0.462901,-0.069924,51,281,585,6160
1644182762.108982,-0.007568,0.009583,-0.991699,0.098718,0.294962,-0.161527,52,277,582,6224
1644182762.153115,-0.009338,0.011658,-0.993225,0.205588,0.24916,0.036947,48,274,587,6192
1644182762.201496,-0.008118,0.007751,-0.993652,0.113985,0.356031,-0.161527,43,276,587,6128
1644182762.249875,-0.009277,0.009033,-0.99231,0.037649,0.310229,-0.008855,49,273,591,6224
1644182762.298286,-0.008728,0.012573,-0.992065,0.175053,0.310229,-0.039389,47,275,591,6176
1644182762.346682,-0.008728,0.007751,-0.991943,0.144519,0.447634,-0.176794,53,266,585,6224
1644182762.395262,-0.009949,0.009644,-0.992065,0.266656,0.401832,-0.14626,45,277,584,6160
1644182762.443482,-0.007812,0.009644,-0.993591,0.159786,0.417099,0.113282,54,280,589,6128
1644182762.492256,-0.009216,0.00592,-0.993347,0.113985,0.417099,-0.222595,47,280,582,6224
1644182762.540244,-0.00769,0.010254,-0.993225,0.251389,0.508702,-0.100458,47,277,593,6192
1644182762.588617,-0.008545,0.009155,-0.989746,0.190321,0.279695,0.12855,51,276,583,6160
1644182762.637028,-0.010498,0.008118,-0.992065,0.327725,0.401832,0.021679,46,271,583,6192
1644182762.685708,-0.010864,0.009644,-0.98999,0.312458,0.401832,-0.008855,48,274,585,6224
1644182762.734484,-0.007446,0.010376,-0.991638,0.098718,0.462901,-0.085191,46,281,580,6224
1644182762.785637,-0.009583,0.007263,-0.994812,0.251389,0.340763,-0.069924,33,277,584,6160
1644182762.836637,-0.01123,0.007751,-0.993591,0.159786,0.493435,-0.069924,53,274,585,6224
1644182762.880808,-0.008179,0.010254,-0.992065,0.205588,0.371298,-0.222595,47,273,579,6224
1644182762.97581,-0.007507,0.010742,-0.992188,0.327725,0.508702,-0.085191,47,277,579,6240
1644182763.024231,-0.00647,0.010071,-0.990112,0.236122,0.432366,-0.115725,57,275,586,6192
1644182763.07268,-0.007507,0.009277,-0.991821,0.144519,0.417099,0.067481,45,273,591,6176
1644182763.120968,-0.009033,0.007996,-0.991638,0.205588,0.386565,-0.039389,45,282,582,6112
1644182763.169356,-0.008606,0.009521,-0.992126,0.220855,0.371298,-0.130992,51,269,590,6224
1644182763.217741,-0.009399,0.010681,-0.990356,0.266656,0.417099,-0.085191,38,275,584,6128
1644182763.266173,-0.00647,0.008911,-0.99231,0.113985,0.310229,-0.008855,54,275,579,6160
1644182763.314517,-0.010315,0.009399,-0.992615,0.266656,0.356031,-0.024122,41,274,585,6240
1644182763.36296,-0.008484,0.011597,-0.989319,0.266656,0.401832,-0.100458,54,273,577,6224
1644182763.411326,-0.009644,0.008484,-0.988647,0.190321,0.462901,-0.14626,59,277,575,6224
1644182763.459687,-0.010681,0.009949,-0.993286,0.175053,0.447634,-0.161527,48,271,580,6176
1644182763.508111,-0.009094,0.009705,-0.990417,0.190321,0.432366,-0.085191,57,273,577,6128
1644182763.556493,-0.005188,0.008728,-0.992676,0.205588,0.325496,-0.130992,47,275,582,6224
1644182763.604909,-0.009827,0.011169,-0.991882,0.037649,0.386565,-0.192061,45,287,589,6192
1644182763.653284,-0.005737,0.012024,-0.98877,-0.038687,0.478168,-0.14626,58,271,590,6192
1644182763.701678,-0.007446,0.008545,-0.991028,0.35826,0.340763,-0.14626,52,275,591,6240
1644182763.750048,-0.008484,0.010681,-0.989319,0.220855,0.356031,-0.100458,55,281,590,6192
1644182763.798458,-0.008667,0.009216,-0.992981,0.266656,0.447634,-0.100458,43,283,580,6160
1644182763.846879,-0.007996,0.012146,-0.991333,0.190321,0.569771,-0.054656,47,275,589,6176
1644182763.896792,-0.010071,0.008423,-0.993591,0.144519,0.386565,-0.054656,42,285,589,6192
1644182763.947391,-0.010681,0.011108,-0.990417,0.266656,0.401832,-0.130992,59,270,584,6160
1644182763.997273,-0.008118,0.007751,-0.990906,0.205588,0.325496,-0.161527,48,281,587,6128
1644182764.04168,-0.006958,0.010803,-0.990967,0.342992,0.371298,-0.039389,59,268,589,6224
1644182764.137259,-0.007935,0.009583,-0.992432,0.144519,0.356031,-0.054656,47,275,582,6160
1644182764.185596,-0.010132,0.008118,-0.992615,0.129252,0.340763,-0.054656,43,279,587,6160
1644182764.234003,-0.009094,0.008911,-0.993591,0.113985,0.462901,-0.069924,55,274,578,6128
1644182764.282482,-0.009705,0.010437,-0.990479,0.266656,0.585038,-0.268397,51,281,585,6240
1644182764.330781,-0.008789,0.009277,-0.989929,0.159786,0.172824,-0.14626,57,273,589,6176
1644182764.379187,-0.009399,0.008484,-0.995056,0.236122,0.386565,-0.100458,53,271,585,6128
1644182764.42757,-0.006531,0.010071,-0.993103,0.35826,0.340763,-0.054656,51,271,580,6112
1644182764.475962,-0.008667,0.010925,-0.99176,0.159786,0.279695,-0.054656,54,280,584,6176
1644182764.524359,-0.010132,0.007446,-0.991394,0.08345,0.432366,-0.039389,45,280,575,6176
1644182764.572756,-0.010315,0.013367,-0.992493,0.159786,0.386565,-0.100458,48,279,585,6160
1644182764.621122,-0.004944,0.009521,-0.99054,0.175053,0.371298,-0.024122,41,276,583,6192
1644182764.669538,-0.010376,0.008606,-0.992188,0.068183,0.432366,-0.039389,46,279,583,6128
1644182764.717923,-0.006958,0.008301,-0.989197,0.220855,0.340763,-0.14626,53,276,590,6224
1644182764.766319,-0.009766,0.009277,-0.992126,0.220855,0.310229,-0.100458,61,280,591,6176
1644182764.814727,-0.006958,0.010681,-0.99353,0.190321,0.478168,-0.115725,47,277,591,6240
1644182764.863167,-0.008118,0.010864,-0.991211,0.220855,0.24916,-0.069924,43,274,590,6224
1644182764.911513,-0.008911,0.00946,-0.992676,0.419328,0.325496,-0.207328,48,276,583,6176
1644182764.960279,-0.008118,0.008362,-0.992493,0.08345,0.386565,-0.192061,53,279,585,6224
1644182765.008723,-0.008728,0.011047,-0.992065,0.251389,0.508702,-0.085191,54,275,577,6160
1644182765.076317,-0.007141,0.009705,-0.991821,0.205588,0.310229,0.098015,53,276,590,6176
1644182765.118042,-0.007568,0.008667,-0.990234,0.144519,0.432366,-0.176794,49,273,593,6224
1644182765.201873,-0.009521,0.010254,-0.989868,0.190321,0.371298,-0.039389,45,275,577,6176
1644182765.250242,-0.008972,0.011047,-0.990234,0.220855,0.615573,-0.008855,48,279,587,6176
1644182765.298643,-0.007202,0.00769,-0.990967,0.113985,0.585038,-0.25313,53,276,590,6224
1644182765.347022,-0.00824,0.009521,-0.991699,0.342992,0.432366,-0.176794,52,282,591,6240
1644182765.395425,-0.007935,0.010254,-0.990234,0.129252,0.386565,0.006412,48,286,585,6128
1644182765.443829,-0.007263,0.011047,-0.991333,0.281924,0.371298,-0.085191,55,281,587,6224
1644182765.492386,-0.008545,0.007812,-0.991455,0.052916,0.401832,-0.069924,52,270,577,6192
1644182765.540575,-0.008728,0.010071,-0.990967,0.129252,0.371298,-0.115725,42,268,582,6224
1644182765.589012,-0.007019,0.009949,-0.991699,0.342992,0.401832,-0.161527,57,277,582,6112
1644182765.637369,-0.008118,0.008606,-0.990173,0.373527,0.386565,-0.100458,52,263,589,6160
1644182765.685782,-0.008179,0.007874,-0.990356,0.113985,0.371298,-0.130992,48,274,592,6224
1644182765.734196,-0.01001,0.010986,-0.990845,0.205588,0.523969,-0.176794,40,277,584,6224
1644182765.782587,-0.008484,0.010742,-0.990234,0.205588,0.371298,-0.14626,42,277,579,6176
1644182765.830958,-0.009338,0.011719,-0.993164,0.068183,0.279695,-0.069924,55,283,592,6160
1644182765.879401,-0.009399,0.010315,-0.990784,0.205588,0.356031,-0.130992,61,277,591,6176
1644182765.927785,-0.006897,0.010803,-0.991333,0.175053,0.462901,-0.161527,48,279,585,6176
1644182765.976176,-0.011536,0.008179,-0.990295,0.373527,0.401832,-0.054656,52,275,582,6192
1644182766.025406,-0.009216,0.007935,-0.990784,0.129252,0.340763,-0.14626,57,273,582,6176
1644182766.084311,-0.00592,0.011414,-0.993042,0.251389,0.340763,-0.039389,47,280,584,6192
1644182766.126035,-0.007874,0.010559,-0.989685,0.129252,0.661374,-0.130992,51,283,585,6176
1644182766.170345,-0.008484,0.012024,-0.993958,0.129252,0.294962,-0.039389,47,268,584,6160
1644182766.266488,-0.006958,0.011169,-0.992615,0.205588,0.264427,-0.100458,54,273,579,6128
1644182766.314902,-0.009827,0.009155,-0.991211,0.08345,0.310229,-0.192061,51,274,578,6224
1644182766.36328,-0.00708,0.008362,-0.992798,0.113985,0.356031,-0.283664,47,273,575,6176
1644182766.411676,-0.006714,0.008118,-0.993347,0.098718,0.462901,-0.176794,46,281,580,6176
1644182766.460057,-0.004456,0.008911,-0.992432,0.220855,0.386565,-0.024122,52,270,584,6160
1644182766.508438,-0.007812,0.011475,-0.988953,0.312458,0.447634,-0.115725,54,277,584,6192
1644182766.556844,-0.009155,0.011658,-0.992554,0.129252,0.447634,-0.329466,59,270,582,6176
1644182766.605246,-0.006714,0.010986,-0.990356,0.129252,0.447634,-0.192061,59,287,584,6192
1644182766.653646,-0.006897,0.01178,-0.991394,0.373527,0.554504,-0.14626,46,271,580,6224
1644182766.702044,-0.00885,0.009705,-0.994202,0.251389,0.24916,-0.176794,52,273,584,6176
1644182766.750403,-0.00824,0.012085,-0.99115,0.236122,0.325496,-0.115725,47,277,584,6160
1644182766.7988,-0.004639,0.010071,-0.991577,0.266656,0.401832,-0.054656,51,274,594,6128
1644182766.847218,-0.00592,0.010742,-0.991028,0.266656,0.279695,-0.085191,58,281,576,6176
1644182766.895654,-0.009705,0.009644,-0.990845,0.327725,0.493435,-0.054656,55,274,583,6224
1644182766.944034,-0.01062,0.011292,-0.990295,0.068183,0.493435,-0.130992,47,275,589,6160
1644182766.992442,-0.007812,0.010559,-0.990906,0.236122,0.401832,-0.100458,55,271,592,6240
1644182767.040819,-0.009583,0.008606,-0.992737,0.327725,0.447634,-0.054656,58,281,590,6192
1644182767.091128,-0.009155,0.008545,-0.990112,0.266656,0.447634,-0.115725,54,277,591,6192
1644182767.137572,-0.009766,0.013123,-0.993103,0.312458,0.371298,-0.298931,48,276,594,6112
1644182767.185989,-0.007202,0.008911,-0.990967,0.052916,0.432366,-0.069924,57,275,591,6176
1644182767.236559,-0.006775,0.010498,-0.989929,0.144519,0.264427,-0.008855,51,276,585,6224
