epoch,acc_x,acc_y,acc_z,rot_x,rot_y,rot_z,mag_x,mag_y,mag_z,temp
1644157200.004499,-0.005493,0.009949,-0.990112,0.190321,0.462901,0.006412,55,271,580,5072
1644157200.056952,-0.009705,0.009216,-0.992432,0.022382,0.447634,0.021679,47,275,572,5104
1644157200.101284,-0.01178,0.008362,-0.990967,0.022382,0.523969,-0.14626,47,273,582,5168
1644157200.149648,-0.012695,0.010803,-0.99292,0.327725,0.493435,-0.192061,59,277,577,5104
1644157200.198,-0.010498,0.010498,-0.988586,0.297191,0.493435,-0.222595,55,279,583,5072
1644157200.24638,-0.009338,0.00885,-0.989441,0.052916,0.371298,0.006412,51,281,571,5184
1644157200.294811,-0.009521,0.013489,-0.99115,0.388794,0.386565,-0.069924,45,280,577,5104
1644157200.343208,-0.008911,0.009399,-0.989319,0.373527,0.279695,-0.069924,55,281,569,5104
1644157200.391572,-0.01178,0.006165,-0.992371,0.144519,0.432366,-0.100458,49,275,572,5168
1644157200.439977,-0.012817,0.009827,-0.990479,0.251389,0.386565,-0.100458,53,271,573,5136
1644157200.488355,-0.010193,0.010193,-0.990967,0.205588,0.401832,-0.085191,53,271,583,5072
1644157200.536749,-0.00946,0.010437,-0.993469,0.113985,0.569771,-0.069924,49,277,575,5120
1644157200.585172,-0.011475,0.011047,-0.993713,0.404061,0.523969,-0.039389,42,268,582,5168
1644157200.633814,-0.012451,0.010193,-0.992249,0.35826,0.478168,-0.161527,41,274,583,5136
1644157200.683227,-0.008484,0.009399,-0.993713,0.205588,0.493435,-0.024122,51,276,573,5120
1644157200.733414,-0.008667,0.010132,-0.990845,0.159786,0.356031,0.006412,46,271,571,5136
1644157200.783851,-0.012024,0.010254,-0.989807,0.220855,0.386565,-0.039389,51,271,576,5136
1644157200.875475,-0.012146,0.006897,-0.989746,0.175053,0.401832,-0.176794,54,277,568,5104
1644157200.923898,-0.011536,0.009155,-0.992493,0.129252,0.371298,-0.039389,45,270,570,5072
1644157200.972414,-0.012085,0.009216,-0.991028,0.113985,0.371298,-0.085191,42,270,575,5184
1644157201.020674,-0.01123,0.009094,-0.991821,0.312458,0.310229,-0.25313,51,281,571,5136
1644157201.069164,-0.011902,0.008728,-0.992249,0.281924,0.508702,-0.054656,52,277,575,5120
1644157201.117446,-0.011719,0.007324,-0.992004,0.327725,0.417099,-0.268397,49,282,579,5168
1644157201.165787,-0.012024,0.008301,-0.991211,0.190321,0.447634,-0.100458,38,277,582,5024
1644157201.214181,-0.011292,0.008118,-0.995728,0.35826,0.554504,-0.085191,54,263,570,5104
1644157201.262552,-0.012329,0.007507,-0.991516,0.205588,0.356031,-0.115725,47,265,572,5168
1644157201.310924,-0.01355,0.00946,-0.994324,0.266656,0.340763,-0.069924,46,279,576,5120
1644157201.359341,-0.008911,0.007751,-0.989563,0.281924,0.279695,-0.161527,48,279,573,5200
1644157201.407736,-0.009705,0.00769,-0.991455,0.312458,0.356031,-0.054656,58,274,564,5136
1644157201.456123,-0.009033,0.007874,-0.991821,0.205588,0.417099,-0.085191,47,275,577,5056
1644157201.504513,-0.011902,0.009888,-0.989136,0.220855,0.432366,-0.130992,48,276,573,5136
1644157201.552917,-0.011597,0.013123,-0.992981,0.342992,0.447634,-0.100458,48,276,571,5184
1644157201.601287,-0.011353,0.009583,-0.992981,0.037649,0.447634,0.098015,53,266,573,5120
1644157201.649642,-0.009033,0.010498,-0.991394,0.388794,0.371298,-0.069924,51,269,573,5104
1644157201.698057,-0.012329,0.008728,-0.991821,0.35826,0.447634,-0.14626,57,275,572,5104
1644157201.746423,-0.01001,0.008484,-0.991211,0.236122,0.478168,-0.115725,59,273,570,5168
1644157201.794998,-0.010193,0.007629,-0.990295,0.098718,0.294962,-0.085191,51,264,576,5168
1644157201.845687,-0.010376,0.007019,-0.990479,0.190321,0.356031,-0.222595,55,264,578,5104
1644157201.896622,-0.01062,0.009949,-0.990723,0.266656,0.417099,-0.283664,47,277,565,5120
1644157201.941236,-0.010132,0.009277,-0.99054,0.297191,0.508702,-0.161527,47,268,575,5136
1644157202.036821,-0.010376,0.007385,-0.990601,0.35826,0.432366,-0.100458,53,271,569,5072
1644157202.085616,-0.011536,0.01001,-0.992004,0.35826,0.462901,-0.14626,54,265,577,5184
1644157202.133583,-0.009705,0.011536,-0.990234,0.08345,0.493435,-0.161527,42,277,570,5120
1644157202.181936,-0.006409,0.009644,-0.991333,0.220855,0.447634,-0.207328,49,270,575,5168
1644157202.230324,-0.013794,0.010498,-0.991577,0.266656,0.386565,0.052214,54,275,568,5136
1644157202.278694,-0.010376,0.008606,-0.990601,0.159786,0.585038,-0.14626,47,265,579,5104
1644157202.327105,-0.008972,0.008606,-0.989929,0.175053,0.386565,-0.069924,47,265,568,5200
1644157202.375481,-0.008606,0.009949,-0.991211,0.35826,0.356031,-0.054656,53,274,571,5136
1644157202.423892,-0.011963,0.008118,-0.990417,0.052916,0.462901,-0.207328,41,266,578,5104
1644157202.472299,-0.008972,0.009399,-0.99054,0.312458,0.432366,-0.115725,49,275,570,5184
1644157202.520653,-0.009216,0.010742,-0.993164,0.541466,0.340763,-0.192061,48,271,573,5120
1644157202.56901,-0.011353,0.010254,-0.991516,0.205588,0.340763,-0.085191,38,277,589,5168
1644157202.617422,-0.007507,0.008728,-0.992615,0.281924,0.554504,-0.024122,53,279,583,5136
1644157202.665815,-0.009033,0.010254,-0.9953,0.098718,0.356031,-0.176794,51,274,578,5104
1644157202.714185,-0.012146,0.011169,-0.992981,0.251389,0.417099,-0.115725,49,273,577,5104
1644157202.76261,-0.008606,0.010864,-0.992493,0.205588,0.432366,-0.176794,46,274,580,5136
1644157202.810972,-0.011597,0.010193,-0.991699,0.342992,0.493435,-0.14626,59,273,579,5120
1644157202.859412,-0.010193,0.012268,-0.989685,0.113985,0.371298,-0.100458,54,277,575,5136
1644157202.908762,-0.008423,0.007568,-0.990112,0.190321,0.340763,-0.069924,57,270,584,5104
1644157202.95981,-0.008728,0.009644,-0.990662,0.251389,0.386565,-0.085191,62,279,578,5200
1644157203.061536,-0.007446,0.01001,-0.993103,0.281924,0.554504,-0.237863,36,274,576,5072
1644157203.101329,-0.010803,0.009705,-0.992004,0.052916,0.340763,-0.115725,47,275,575,5104
1644157203.14974,-0.009644,0.011108,-0.992065,0.342992,0.371298,-0.069924,51,271,571,5120
1644157203.198084,-0.012268,0.011597,-0.992188,0.190321,0.478168,-0.008855,52,275,577,5104
1644157203.246465,-0.009583,0.009155,-0.989685,0.35826,0.233893,-0.054656,45,268,575,5200
1644157203.294871,-0.01062,0.010437,-0.990234,0.297191,0.432366,-0.207328,55,274,578,5104
1644157203.343271,-0.009521,0.011658,-0.99054,0.190321,0.386565,-0.024122,47,273,582,5072
1644157203.391644,-0.008362,0.009521,-0.992981,0.342992,0.264427,-0.069924,57,282,582,5136
1644157203.440032,-0.010193,0.008423,-0.991272,0.342992,0.523969,-0.130992,54,277,568,5104
1644157203.488423,-0.01062,0.007996,-0.991028,0.312458,0.523969,-0.176794,46,269,573,5120
1644157203.53681,-0.011536,0.010559,-0.988708,0.175053,0.523969,-0.130992,41,271,583,5072
1644157203.58519,-0.012756,0.009399,-0.990417,0.35826,0.523969,-0.14626,47,273,577,5120
1644157203.63358,-0.012939,0.008301,-0.991455,0.266656,0.493435,-0.161527,51,274,580,5104
1644157203.681967,-0.011169,0.009521,-0.990295,0.037649,0.371298,-0.222595,54,277,577,5072
1644157203.73037,-0.013,0.008728,-0.992432,0.129252,0.432366,-0.14626,45,270,579,5168
1644157203.780047,-0.012878,0.009521,-0.989929,0.205588,0.386565,-0.192061,58,276,583,5120
1644157203.830216,-0.012024,0.008484,-0.991821,0.266656,0.417099,-0.130992,47,268,577,5120
1644157203.881187,-0.009521,0.009094,-0.992798,0.251389,0.417099,-0.130992,43,274,578,5200
1644157203.972514,-0.012512,0.009583,-0.992859,0.434595,0.356031,-0.054656,55,279,585,5120
1644157204.020725,-0.009521,0.008972,-0.992493,0.266656,0.279695,-0.039389,52,270,589,5168
1644157204.06921,-0.010498,0.009949,-0.991394,0.281924,0.356031,-0.115725,46,274,576,5024
1644157204.11746,-0.007874,0.008972,-0.992065,0.404061,0.401832,-0.130992,40,280,572,5168
1644157204.165829,-0.01123,0.007629,-0.989746,0.251389,0.447634,-0.161527,48,274,569,5136
1644157204.214789,-0.010193,0.008606,-0.99054,0.190321,0.24916,-0.069924,54,273,584,5120
1644157204.26264,-0.007751,0.011108,-0.991272,0.297191,0.386565,-0.161527,45,277,572,5184
1644157204.311022,-0.010803,0.011169,-0.993408,0.098718,0.508702,-0.085191,47,270,579,5200
1644157204.359425,-0.009033,0.011292,-0.993835,0.327725,0.386565,-0.100458,46,274,576,5120
1644157204.407801,-0.011597,0.008301,-0.990906,0.266656,0.356031,-0.130992,45,280,577,5200
1644157204.456181,-0.009521,0.00946,-0.991211,0.236122,0.310229,-0.130992,52,270,568,5136
1644157204.504705,-0.01062,0.008179,-0.991211,0.342992,0.447634,-0.008855,45,268,579,5072
1644157204.552976,-0.010193,0.008667,-0.990723,0.190321,0.554504,-0.237863,51,279,571,5136
1644157204.601333,-0.011963,0.01001,-0.993103,0.266656,0.371298,0.036947,41,279,571,5072
1644157204.649739,-0.012024,0.01001,-0.993042,0.266656,0.340763,-0.100458,57,277,582,5168
1644157204.698119,-0.008667,0.011597,-0.992004,0.388794,0.478168,-0.161527,57,282,579,5104
1644157204.746495,-0.010925,0.01123,-0.990845,0.251389,0.554504,-0.069924,51,276,580,5120
1644157204.795542,-0.01123,0.01178,-0.990662,0.220855,0.539237,-0.039389,55,276,576,5104
1644157204.843359,-0.011047,0.012085,-0.991638,0.281924,0.493435,-0.14626,60,264,580,5120
1644157204.893512,-0.010681,0.01001,-0.990173,0.144519,0.462901,-0.039389,47,273,575,5184
1644157204.943588,-0.01062,0.007629,-0.991821,0.159786,0.417099,-0.161527,41,269,580,5104
1644157204.99385,-0.013,0.009216,-0.989624,0.404061,0.371298,-0.069924,52,277,579,5136
1644157205.038416,-0.009583,0.012817,-0.990967,0.281924,0.417099,-0.115725,49,270,575,5104
1644157205.133628,-0.011292,0.010559,-0.992615,0.281924,0.447634,-0.161527,48,276,578,5136
1644157205.182003,-0.008972,0.008972,-0.98999,0.175053,0.340763,-0.207328,59,277,568,5104
1644157205.230386,-0.008789,0.00824,-0.992432,0.159786,0.340763,0.006412,54,280,577,5104
1644157205.278766,-0.009094,0.012329,-0.989868,0.098718,0.310229,-0.176794,55,279,578,5200
1644157205.32716,-0.010742,0.011292,-0.991394,0.08345,0.447634,-0.008855,55,274,573,5136
1644157205.375558,-0.009094,0.009521,-0.992737,0.236122,0.432366,-0.024122,45,270,575,5136
1644157205.423946,-0.009827,0.00946,-0.991699,0.327725,0.432366,-0.008855,47,268,579,5104
1644157205.472355,-0.010193,0.009888,-0.992371,0.129252,0.279695,-0.008855,53,259,571,5168
1644157205.520721,-0.01001,0.009399,-0.991333,0.236122,0.447634,-0.161527,52,273,577,5120
1644157205.569111,-0.007751,0.008362,-0.988831,0.205588,0.386565,-0.115725,48,271,576,5168
1644157205.617494,-0.008728,0.009583,-0.992493,0.281924,0.386565,-0.024122,52,265,575,5120
1644157205.665864,-0.011597,0.006836,-0.991638,0.281924,0.279695,0.067481,55,274,576,5168
1644157205.714294,-0.012329,0.007874,-0.992371,0.037649,0.478168,-0.008855,49,268,582,5072
1644157205.762662,-0.008545,0.009827,-0.990723,0.281924,0.386565,-0.008855,52,265,570,5120
1644157205.81107,-0.010742,0.006897,-0.990967,0.236122,0.417099,-0.222595,52,273,579,5136
1644157205.859486,-0.011597,0.008606,-0.98999,0.312458,0.417099,-0.069924,55,269,571,5120
1644157205.907865,-0.009155,0.005371,-0.990356,0.190321,0.447634,-0.069924,52,280,575,5184
1644157205.956257,-0.010315,0.006958,-0.992493,0.205588,0.432366,-0.100458,48,269,566,5136
1644157206.0638,-0.011292,0.010803,-0.99176,0.297191,0.462901,-0.069924,64,275,577,5136
1644157206.101361,-0.010315,0.011841,-0.990234,0.281924,0.356031,-0.008855,52,282,575,5136
1644157206.149765,-0.008484,0.013184,-0.992554,0.327725,0.508702,-0.176794,57,268,579,5104
1644157206.198154,-0.00946,0.008179,-0.990662,0.220855,0.371298,-0.100458,51,274,587,5104
1644157206.246514,-0.012207,0.010742,-0.990967,0.312458,0.508702,0.036947,57,270,577,5136
1644157206.295054,-0.011658,0.008972,-0.99408,0.220855,0.539237,-0.069924,47,268,575,5104
1644157206.343343,-0.01001,0.007507,-0.994995,0.35826,0.325496,-0.14626,48,264,566,5136
1644157206.391708,-0.01001,0.010132,-0.988953,0.037649,0.371298,-0.085191,52,270,577,5136
1644157206.440095,-0.011047,0.009216,-0.993713,0.175053,0.478168,-0.100458,60,274,583,5168
1644157206.488474,-0.009705,0.008545,-0.990906,0.175053,0.478168,-0.008855,55,276,573,5184
1644157206.536848,-0.010193,0.00885,-0.991089,0.205588,0.417099,0.021679,52,265,565,5120
1644157206.585259,-0.011108,0.007751,-0.992432,0.190321,0.493435,-0.14626,47,270,575,5136
1644157206.633645,-0.011047,0.009705,-0.991211,0.159786,0.325496,-0.054656,46,271,573,5072
1644157206.682062,-0.009155,0.009399,-0.992432,0.236122,0.600305,-0.222595,49,273,570,5136
1644157206.73142,-0.012085,0.008057,-0.992554,0.236122,0.386565,-0.100458,53,271,571,5104
1644157206.782385,-0.013123,0.008606,-0.991638,0.220855,0.417099,-0.14626,55,269,583,5056
1644157206.82772,-0.01062,0.012329,-0.990845,0.312458,0.478168,-0.085191,51,266,573,5072
1644157206.924063,-0.009521,0.011414,-0.992188,0.35826,0.554504,-0.222595,47,277,575,5184
1644157206.972501,-0.009644,0.007935,-0.990967,0.312458,0.386565,-0.115725,53,266,573,5120
1644157207.020772,-0.009827,0.008484,-0.990112,0.144519,0.493435,-0.085191,58,279,576,5136
1644157207.069675,-0.011047,0.010193,-0.990906,0.297191,0.356031,-0.192061,51,264,573,5104
1644157207.117553,-0.011414,0.00824,-0.990479,0.08345,0.493435,-0.161527,43,269,576,5136
1644157207.165904,-0.008362,0.01001,-0.991333,0.266656,0.356031,-0.054656,48,274,573,5104
1644157207.214305,-0.009094,0.010376,-0.990723,0.266656,0.447634,-0.069924,53,279,573,5120
1644157207.262712,-0.011597,0.009399,-0.992249,0.220855,0.356031,-0.14626,45,270,582,5104
1644157207.311081,-0.011414,0.008484,-0.992859,0.251389,0.569771,0.021679,49,275,584,5136
1644157207.359468,-0.01001,0.011414,-0.992371,0.342992,0.493435,-0.283664,52,268,572,5184
1644157207.407854,-0.010742,0.008606,-0.987976,0.312458,0.478168,-0.161527,52,268,575,5104
1644157207.456247,-0.008606,0.008728,-0.989441,0.190321,0.356031,-0.024122,53,271,571,5104
1644157207.504732,-0.011353,0.010498,-0.990051,0.297191,0.356031,-0.161527,65,269,576,5104
1644157207.553029,-0.012512,0.008972,-0.992981,0.251389,0.447634,-0.054656,55,271,571,5136
1644157207.601386,-0.007935,0.011719,-0.994629,0.175053,0.462901,-0.100458,46,271,578,5104
1644157207.649797,-0.011963,0.011963,-0.992859,0.251389,0.462901,-0.14626,48,279,573,5104
1644157207.698188,-0.012024,0.009888,-0.990723,0.266656,0.478168,-0.237863,52,263,572,5072
1644157207.746574,-0.011963,0.009644,-0.988159,0.266656,0.508702,-0.069924,55,279,569,5136
1644157207.795257,-0.009338,0.010803,-0.992615,0.098718,0.493435,-0.085191,47,265,570,5120
1644157207.844062,-0.009094,0.011536,-0.991211,0.220855,0.401832,-0.100458,54,270,577,5136
1644157207.895397,-0.011292,0.009338,-0.990479,0.205588,0.432366,-0.054656,49,270,579,5136
1644157207.946107,-0.012573,0.008423,-0.993042,0.449863,0.462901,-0.115725,52,275,575,5136
1644157208.036944,-0.009521,0.008728,-0.991089,0.297191,0.24916,-0.115725,51,269,571,5120
1644157208.085424,-0.010071,0.009033,-0.990173,0.068183,0.447634,0.021679,51,274,576,5200
1644157208.133715,-0.010803,0.008667,-0.991333,0.08345,0.264427,-0.024122,58,279,569,5104
1644157208.182078,-0.010437,0.008423,-0.992432,0.266656,0.310229,0.006412,52,285,575,5168
1644157208.230434,-0.009705,0.008118,-0.991882,0.205588,0.371298,-0.130992,46,276,573,5120
1644157208.278853,-0.009644,0.011292,-0.992126,0.251389,0.493435,-0.115725,46,274,576,5136
1644157208.327285,-0.010559,0.008301,-0.993835,0.220855,0.493435,-0.14626,52,273,575,5104
1644157208.375637,-0.011108,0.007141,-0.989258,0.129252,0.493435,-0.069924,59,275,575,5136
1644157208.424013,-0.010071,0.007263,-0.992188,0.220855,0.310229,-0.130992,39,269,573,5024
1644157208.472404,-0.011536,0.010925,-0.990112,0.342992,0.340763,-0.161527,52,263,579,5168
1644157208.520776,-0.010071,0.008606,-0.990662,0.251389,0.539237,-0.192061,55,276,580,5104
1644157208.56917,-0.012085,0.010071,-0.99115,0.281924,0.523969,-0.100458,49,265,570,5104
1644157208.617562,-0.010437,0.00885,-0.99176,0.297191,0.417099,-0.008855,58,269,580,5184
1644157208.665944,-0.010742,0.009705,-0.992981,0.297191,0.493435,-0.14626,35,273,582,5072
1644157208.716193,-0.010254,0.007385,-0.98999,0.281924,0.264427,-0.222595,55,264,583,5120
1644157208.762742,-0.010925,0.010254,-0.991333,0.281924,0.523969,-0.237863,65,269,583,5120
1644157208.81111,-0.009033,0.01001,-0.99231,0.236122,0.356031,-0.161527,61,270,575,5168
1644157208.859535,-0.011353,0.010376,-0.990356,0.327725,0.432366,0.021679,43,266,578,5136
1644157208.909503,-0.008789,0.008667,-0.992432,0.281924,0.401832,-0.100458,47,270,586,5184
1644157208.960313,-0.008179,0.010559,-0.991821,0.342992,0.539237,-0.054656,57,265,575,5136
1644157209.062403,-0.01178,0.009155,-0.99115,0.205588,0.356031,-0.024122,54,270,584,5184
1644157209.101433,-0.011292,0.008301,-0.989868,0.404061,0.417099,-0.100458,48,279,566,5120
1644157209.149847,-0.013733,0.008057,-0.993347,0.266656,0.356031,-0.115725,54,277,570,5120
1644157209.198228,-0.009216,0.008423,-0.992615,0.159786,0.356031,-0.085191,47,275,579,5120
1644157209.246594,-0.016479,0.009338,-0.988953,0.327725,0.508702,-0.176794,52,275,572,5136
1644157209.295087,-0.010681,0.00769,-0.99469,0.312458,0.508702,-0.115725,46,269,571,5104
1644157209.3434,-0.011353,0.009888,-0.994507,0.236122,0.432366,-0.25313,40,280,575,5136
1644157209.391748,-0.00946,0.009155,-0.990051,0.266656,0.478168,-0.008855,58,271,580,5136
1644157209.440151,-0.013428,0.011108,-0.990784,0.220855,0.478168,-0.054656,45,273,582,5120
1644157209.488553,-0.010376,0.012512,-0.992371,0.419328,0.539237,-0.085191,57,277,572,5072
1644157209.53694,-0.014221,0.010376,-0.991699,0.159786,0.401832,-0.222595,57,282,586,5072
1644157209.585335,-0.01123,0.008179,-0.992249,0.373527,0.539237,-0.008855,53,269,576,5104
1644157209.63371,-0.013489,0.009033,-0.989746,0.312458,0.417099,-0.054656,55,269,580,5136
1644157209.682424,-0.007324,0.009949,-0.991821,0.266656,0.371298,-0.192061,52,280,561,5184
1644157209.730501,-0.011353,0.01178,-0.990051,0.373527,0.371298,0.006412,42,273,568,5136
1644157209.780161,-0.011597,0.007446,-0.995422,0.266656,0.478168,-0.176794,42,270,575,5136
1644157209.830499,-0.010803,0.012451,-0.989563,0.175053,0.417099,-0.192061,57,273,572,5104
1644157209.876114,-0.011902,0.008301,-0.991943,0.297191,0.401832,-0.161527,51,283,576,5104
1644157209.972501,-0.011719,0.010986,-0.989502,0.327725,0.508702,-0.100458,54,268,577,5168
1644157210.020847,-0.010803,0.009888,-0.990906,0.251389,0.417099,-0.085191,46,271,576,5136
1644157210.069464,-0.00824,0.010437,-0.992859,0.220855,0.462901,0.021679,51,271,571,5168
1644157210.117587,-0.010498,0.012512,-0.990479,0.205588,0.371298,-0.069924,46,279,566,5184
1644157210.165951,-0.013,0.008972,-0.991333,0.281924,0.417099,-0.207328,51,279,571,5120
1644157210.21438,-0.010681,0.006714,-0.993042,0.220855,0.447634,-0.085191,46,274,573,5168
1644157210.262745,-0.01178,0.011597,-0.992004,0.220855,0.401832,-0.069924,53,266,573,5136
1644157210.31115,-0.013855,0.011108,-0.990906,0.205588,0.371298,-0.024122,54,273,568,5120
1644157210.359535,-0.011475,0.008606,-0.992493,0.144519,0.478168,-0.054656,49,277,577,5168
1644157210.407918,-0.011475,0.010681,-0.993225,0.236122,0.356031,-0.069924,43,276,571,5136
1644157210.456304,-0.009277,0.009155,-0.993652,0.297191,0.447634,-0.115725,45,273,582,5072
1644157210.504738,-0.009949,0.00885,-0.993103,0.281924,0.554504,-0.115725,46,264,573,5200
1644157210.553069,-0.009216,0.007324,-0.993103,0.220855,0.462901,-0.085191,53,293,578,5056
1644157210.601496,-0.011841,0.010681,-0.991516,0.175053,0.417099,-0.039389,52,280,572,5072
1644157210.649868,-0.009399,0.010498,-0.994507,0.449863,0.386565,-0.115725,48,279,576,5168
1644157210.698261,-0.010864,0.012024,-0.991638,0.327725,0.447634,-0.054656,52,285,577,5136
1644157210.746641,-0.012329,0.008606,-0.991577,0.266656,0.371298,-0.130992,53,274,578,5120
1644157210.795348,-0.009705,0.008057,-0.990723,0.373527,0.371298,0.021679,55,269,578,5136
1644157210.843473,-0.011475,0.009338,-0.993591,0.236122,0.386565,-0.100458,41,276,573,5072
1644157210.893098,-0.011475,0.010986,-0.993713,0.449863,0.462901,-0.069924,51,264,571,5168
1644157210.943359,-0.009033,0.011292,-0.991089,0.159786,0.356031,0.036947,60,266,578,5072
1644157210.993729,-0.011047,0.009277,-0.991028,0.236122,0.493435,-0.130992,53,276,564,5104
1644157211.087896,-0.011536,0.009094,-0.989868,0.312458,0.325496,-0.192061,51,269,583,5136
1644157211.133771,-0.010071,0.008362,-0.989441,0.220855,0.401832,-0.115725,51,271,578,5120
1644157211.182351,-0.00824,0.011292,-0.987305,0.266656,0.493435,-0.054656,54,273,575,5168
1644157211.23051,-0.00885,0.007935,-0.992859,0.175053,0.600305,-0.161527,45,270,575,5168
1644157211.278893,-0.00885,0.010559,-0.987793,0.236122,0.294962,-0.283664,57,282,572,5136
1644157211.327289,-0.010193,0.009949,-0.989197,0.236122,0.417099,-0.115725,46,264,573,5120
1644157211.375676,-0.011841,0.010742,-0.99176,0.297191,0.447634,-0.008855,55,271,573,5136
1644157211.424044,-0.01178,0.00885,-0.991577,0.175053,0.401832,-0.176794,51,264,578,5072
1644157211.472472,-0.012634,0.011597,-0.993042,0.236122,0.478168,-0.085191,47,265,568,5120
1644157211.520846,-0.011047,0.005493,-0.994019,0.236122,0.417099,-0.054656,48,271,569,5136
1644157211.569236,-0.011902,0.007812,-0.992188,0.281924,0.401832,-0.14626,62,266,569,5120
1644157211.617616,-0.014709,0.006775,-0.993896,0.220855,0.554504,-0.25313,58,279,573,5136
1644157211.666009,-0.011902,0.007141,-0.993591,0.220855,0.523969,-0.069924,48,281,571,5120
1644157211.714407,-0.011963,0.010803,-0.990112,0.266656,0.386565,-0.069924,47,275,568,5136
1644157211.762802,-0.006592,0.008667,-0.990601,0.388794,0.340763,-0.008855,53,279,571,5136
1644157211.811219,-0.011108,0.008789,-0.991333,0.205588,0.371298,-0.161527,57,268,568,5168
1644157211.85992,-0.010254,0.008179,-0.991638,0.205588,0.493435,-0.115725,54,277,570,5184
1644157211.908394,-0.011353,0.010132,-0.993103,0.236122,0.294962,-0.100458,43,274,571,5072
1644157211.959034,-0.012939,0.009094,-0.993469,0.159786,0.493435,-0.024122,57,265,570,5072
1644157212.063756,-0.011719,0.010193,-0.990784,0.129252,0.386565,-0.024122,51,271,571,5104
1644157212.101507,-0.012268,0.009521,-0.990723,0.144519,0.585038,-0.069924,48,271,576,5200
1644157212.14989,-0.012329,0.012817,-0.99115,0.129252,0.539237,-0.192061,46,266,578,5104
1644157212.19883,-0.008484,0.010864,-0.99176,0.373527,0.432366,-0.161527,59,270,582,5168
1644157212.246645,-0.009827,0.011292,-0.989746,0.236122,0.294962,-0.130992,53,283,569,5136
1644157212.295228,-0.008789,0.008362,-0.990601,0.236122,0.340763,-0.283664,52,270,586,5184
1644157212.343453,-0.009766,0.010864,-0.991699,0.205588,0.554504,-0.069924,49,273,577,5120
1644157212.39183,-0.009033,0.00946,-0.993286,0.220855,0.508702,-0.115725,52,282,568,5072
1644157212.440187,-0.011047,0.010376,-0.992249,0.251389,0.386565,-0.207328,35,275,584,5168
1644157212.488615,-0.008972,0.009888,-0.991028,0.327725,0.523969,-0.268397,48,281,571,5120
1644157212.536976,-0.012146,0.01001,-0.992615,0.388794,0.340763,-0.069924,43,279,573,5168
1644157212.585381,-0.007568,0.010315,-0.991394,0.312458,0.447634,-0.008855,54,282,577,5136
1644157212.633776,-0.013794,0.008667,-0.993164,0.159786,0.432366,-0.115725,52,285,586,5184
1644157212.682379,-0.009399,0.010071,-0.992615,0.312458,0.462901,-0.130992,42,280,570,5120
1644157212.731255,-0.01062,0.009583,-0.992737,0.236122,0.508702,-0.237863,57,287,577,5184
1644157212.781804,-0.010925,0.006104,-0.98999,0.190321,0.493435,-0.222595,61,270,572,5184
1644157212.833104,-0.012329,0.010742,-0.992615,0.251389,0.340763,-0.176794,49,273,575,5184
1644157212.877698,-0.009583,0.011963,-0.990479,0.251389,0.462901,-0.069924,52,280,570,5184
1644157212.972542,-0.011658,0.009705,-0.993958,0.190321,0.508702,-0.14626,46,283,566,5168
1644157213.020924,-0.010132,0.008484,-0.992432,0.236122,0.325496,-0.039389,48,266,566,5184
1644157213.072325,-0.011841,0.01062,-0.993652,0.129252,0.462901,-0.008855,47,270,591,5072
1644157213.117669,-0.013062,0.010803,-0.990723,0.129252,0.554504,-0.115725,42,275,577,5104
1644157213.166046,-0.014648,0.007263,-0.990479,0.266656,0.386565,-0.115725,48,271,576,5072
1644157213.21444,-0.009399,0.007996,-0.992065,0.205588,0.600305,0.036947,55,274,566,5136
1644157213.262837,-0.012329,0.010071,-0.989746,0.342992,0.478168,-0.115725,53,281,571,5184
1644157213.311212,-0.011536,0.009033,-0.990173,0.220855,0.600305,0.021679,38,273,572,5168
1644157213.359593,-0.009827,0.008179,-0.990356,0.220855,0.508702,-0.176794,52,275,570,5168
1644157213.407986,-0.008423,0.009644,-0.989624,0.327725,0.401832,-0.176794,59,273,579,5104
1644157213.456349,-0.010559,0.008362,-0.991455,0.495664,0.356031,-0.069924,46,281,571,5104
1644157213.504781,-0.009705,0.009583,-0.989929,0.297191,0.447634,-0.039389,48,274,587,5200
1644157213.553173,-0.011475,0.008057,-0.990967,0.144519,0.24916,-0.069924,46,264,576,5072
1644157213.601537,-0.005615,0.008484,-0.993713,0.205588,0.417099,0.021679,52,277,577,5120
1644157213.649929,-0.007324,0.011475,-0.992981,0.144519,0.294962,-0.100458,48,274,578,5120
1644157213.698276,-0.01062,0.010193,-0.989929,0.312458,0.523969,-0.100458,42,282,572,5168
1644157213.746701,-0.00946,0.010803,-0.991821,0.220855,0.523969,-0.039389,52,273,577,5168
1644157213.795123,-0.011902,0.00824,-0.98877,0.236122,0.401832,-0.085191,54,263,572,5120
1644157213.843533,-0.009766,0.007751,-0.993042,0.113985,0.371298,-0.161527,52,270,570,5104
1644157213.893248,-0.010193,0.008728,-0.991272,0.327725,0.356031,-0.039389,43,269,576,5136
1644157213.943479,-0.009033,0.007874,-0.990967,0.251389,0.63084,-0.237863,41,276,578,5120
1644157213.993705,-0.011597,0.011169,-0.992126,0.281924,0.478168,-0.14626,51,271,569,5168
1644157214.038419,-0.010498,0.010315,-0.991577,0.281924,0.294962,-0.222595,46,271,571,5200
1644157214.133872,-0.011963,0.00946,-0.992371,0.388794,0.417099,-0.14626,57,268,577,5104
1644157214.182387,-0.009705,0.008484,-0.992004,0.144519,0.371298,-0.130992,46,271,573,5104
1644157214.230598,-0.01239,0.007263,-0.988647,0.312458,0.401832,-0.14626,49,270,575,5136
1644157214.278945,-0.007385,0.010925,-0.991638,0.342992,0.676641,-0.039389,52,268,579,5136
1644157214.327331,-0.010681,0.007996,-0.992981,0.46513,0.478168,-0.176794,43,274,559,5136
1644157214.375738,-0.010254,0.009033,-0.990601,0.251389,0.508702,-0.054656,47,270,577,5072
1644157214.424149,-0.007935,0.006653,-0.990234,0.35826,0.447634,-0.161527,46,269,571,5168
1644157214.472546,-0.011536,0.009155,-0.991577,0.205588,0.523969,-0.054656,54,280,570,5104
1644157214.520926,-0.012878,0.007446,-0.989502,0.297191,0.325496,-0.176794,49,268,575,5104
1644157214.569277,-0.010132,0.009644,-0.989197,0.35826,0.493435,-0.024122,54,275,570,5184
1644157214.617693,-0.01062,0.009644,-0.992188,0.35826,0.310229,-0.222595,53,269,571,5120
1644157214.666081,-0.011536,0.009827,-0.991333,0.190321,0.386565,-0.100458,45,275,577,5056
1644157214.714476,-0.011047,0.008423,-0.99176,0.220855,0.432366,-0.130992,47,263,570,5120
1644157214.762842,-0.013123,0.005493,-0.991272,0.175053,0.523969,-0.115725,53,274,585,5104
1644157214.811233,-0.008789,0.012207,-0.990723,0.281924,0.523969,0.204885,51,279,576,5168
1644157214.859679,-0.01123,0.007385,-0.993286,0.342992,0.417099,0.052214,51,271,583,5136
1644157214.908058,-0.012085,0.010071,-0.989502,0.266656,0.493435,-0.14626,51,276,576,5168
1644157214.95659,-0.010315,0.009705,-0.991028,0.388794,0.401832,-0.024122,43,271,569,5120
1644157215.061928,-0.008484,0.00946,-0.992554,0.236122,0.63084,-0.100458,48,274,583,5168
1644157215.101585,-0.012878,0.008301,-0.992798,0.312458,0.401832,0.021679,57,273,584,5200
1644157215.149981,-0.010803,0.009521,-0.991333,0.175053,0.493435,-0.024122,46,266,571,5120
1644157215.198313,-0.010681,0.009155,-0.990967,0.297191,0.279695,-0.14626,51,271,578,5120
1644157215.246731,-0.008484,0.006226,-0.99231,0.281924,0.325496,-0.176794,53,274,578,5136
1644157215.295155,-0.012085,0.010071,-0.992798,0.251389,0.447634,-0.130992,47,282,575,5168
1644157215.343513,-0.011047,0.011902,-0.99176,0.236122,0.539237,0.006412,53,274,578,5136
1644157215.391892,-0.01062,0.010315,-0.991333,0.129252,0.371298,-0.100458,58,269,578,5104
1644157215.440285,-0.009277,0.010864,-0.99115,0.312458,0.523969,0.082748,47,277,575,5184
1644157215.488664,-0.009766,0.009521,-0.993896,0.327725,0.554504,-0.024122,46,286,571,5104
1644157215.537244,-0.010193,0.010437,-0.991699,0.281924,0.325496,-0.115725,51,266,569,5104
1644157215.587948,-0.008911,0.008667,-0.992065,0.236122,0.447634,0.021679,41,281,580,5184
1644157215.638139,-0.01355,0.012756,-0.990234,0.251389,0.508702,-0.085191,54,270,579,5104
1644157215.683013,-0.006592,0.008911,-0.992737,0.220855,0.264427,-0.069924,49,282,575,5120
1644157215.778979,-0.010071,0.00592,-0.993469,0.205588,0.325496,-0.207328,62,274,571,5168
1644157215.827377,-0.012329,0.00769,-0.990845,0.190321,0.462901,-0.161527,45,282,565,5136
1644157215.875805,-0.008362,0.010254,-0.990234,0.35826,0.447634,-0.14626,53,266,571,5200
1644157215.924209,-0.010742,0.009949,-0.99115,0.190321,0.447634,-0.161527,58,271,576,5136
1644157215.972585,-0.012329,0.00885,-0.990967,0.190321,0.478168,-0.100458,51,276,576,5120
1644157216.020982,-0.009521,0.009644,-0.991516,0.220855,0.523969,-0.14626,55,276,564,5056
1644157216.069451,-0.011597,0.008301,-0.993896,0.220855,0.462901,-0.176794,49,280,572,5120
1644157216.117712,-0.010315,0.01123,-0.990051,0.327725,0.371298,-0.192061,52,273,572,5168
1644157216.166124,-0.00885,0.010498,-0.991882,0.129252,0.447634,-0.237863,54,268,579,5168
1644157216.214522,-0.007385,0.010803,-0.990234,0.220855,0.432366,-0.192061,53,283,578,5168
1644157216.262864,-0.009705,0.007019,-0.992554,0.388794,0.401832,-0.161527,51,279,580,5136
1644157216.311269,-0.012695,0.008118,-0.990356,0.129252,0.523969,-0.024122,48,274,585,5104
1644157216.359654,-0.011597,0.009949,-0.989136,0.236122,0.462901,-0.024122,53,276,571,5136
1644157216.408024,-0.012573,0.009094,-0.991638,0.175053,0.401832,-0.115725,43,276,583,5072
1644157216.456434,-0.009644,0.009583,-0.994873,0.312458,0.508702,-0.069924,51,269,585,5104
1644157216.5048,-0.013977,0.009399,-0.992126,0.236122,0.340763,0.036947,58,271,580,5104
1644157216.55319,-0.010925,0.009094,-0.993469,0.251389,0.386565,-0.085191,54,270,575,5184
1644157216.601598,-0.009644,0.01062,-0.993164,0.144519,0.585038,-0.176794,60,271,569,5168
1644157216.650147,-0.010986,0.007446,-0.991577,0.205588,0.401832,-0.085191,53,262,573,5104
1644157216.699654,-0.010376,0.00946,-0.992188,0.281924,0.386565,-0.024122,47,280,577,5136
1644157216.749756,-0.010498,0.012512,-0.989014,0.159786,0.417099,-0.008855,42,282,572,5136
1644157216.80096,-0.006775,0.008301,-0.99054,0.159786,0.493435,-0.024122,41,271,566,5136
1644157216.89201,-0.012451,0.010071,-0.99176,0.220855,0.554504,0.021679,52,270,572,5184
1644157216.940363,-0.008301,0.008972,-0.990967,0.297191,0.310229,-0.054656,49,275,570,5120
1644157216.988741,-0.011108,0.008606,-0.994507,0.266656,0.432366,-0.130992,41,283,566,5136
1644157217.037129,-0.009583,0.01178,-0.990906,0.220855,0.340763,-0.130992,39,264,580,5120
1644157217.086314,-0.010193,0.009888,-0.991943,0.297191,0.401832,-0.085191,51,274,585,5184
1644157217.133864,-0.01001,0.010193,-0.995361,0.266656,0.447634,-0.024122,55,266,573,5120
1644157217.182267,-0.009583,0.012085,-0.989807,0.113985,0.539237,-0.085191,46,279,571,5168
1644157217.230646,-0.010315,0.004761,-0.99231,0.266656,0.432366,-0.069924,46,271,569,5120
1644157217.279006,-0.012207,0.009827,-0.990906,0.327725,0.462901,-0.054656,55,264,569,5136
1644157217.327424,-0.010254,0.009705,-0.992432,0.251389,0.279695,-0.222595,41,271,578,5136
1644157217.375811,-0.009033,0.010071,-0.992004,0.175053,0.340763,0.036947,48,283,573,5104
1644157217.424198,-0.008301,0.009644,-0.993103,0.327725,0.539237,-0.130992,52,277,579,5072
1644157217.472578,-0.009399,0.009888,-0.991882,0.312458,0.356031,-0.100458,54,275,577,5104
1644157217.52099,-0.012939,0.007568,-0.993591,0.190321,0.371298,-0.115725,55,266,571,5232
1644157217.570819,-0.013184,0.013062,-0.992737,0.373527,0.508702,-0.039389,51,269,562,5104
1644157217.621168,-0.009033,0.008484,-0.993591,0.251389,0.417099,-0.115725,53,276,585,5184
1644157217.666176,-0.010254,0.009705,-0.991821,0.251389,0.310229,0.021679,60,269,580,5120
1644157217.76292,-0.013672,0.010559,-0.98999,0.251389,0.401832,-0.024122,48,274,576,5184
1644157217.811316,-0.014282,0.007507,-0.993042,0.190321,0.386565,-0.069924,46,283,580,5136
1644157217.85973,-0.011047,0.008118,-0.99292,0.404061,0.585038,-0.069924,53,271,573,5104
1644157217.908112,-0.013489,0.008362,-0.991638,0.236122,0.523969,-0.100458,47,265,572,5120
1644157217.956508,-0.010132,0.007751,-0.993042,0.068183,0.432366,0.006412,48,274,573,5104
1644157218.004878,-0.012268,0.011597,-0.98999,0.159786,0.325496,-0.130992,53,276,573,5136
1644157218.063155,-0.01178,0.009705,-0.990234,0.236122,0.417099,-0.115725,57,273,579,5104
1644157218.101625,-0.006897,0.009827,-0.991333,0.342992,0.356031,-0.069924,52,273,579,5168
1644157218.150023,-0.012207,0.009094,-0.990906,0.220855,0.478168,-0.069924,55,264,573,5120
1644157218.198406,-0.009033,0.009216,-0.99054,0.236122,0.264427,-0.176794,53,271,578,5184
1644157218.246788,-0.009583,0.01001,-0.99353,0.266656,0.401832,-0.222595,60,279,569,5168
1644157218.295253,-0.010498,0.006897,-0.990173,0.404061,0.447634,-0.024122,55,269,569,5072
1644157218.343599,-0.008789,0.010132,-0.991089,0.220855,0.432366,-0.115725,52,282,568,5168
1644157218.391971,-0.008301,0.009827,-0.989807,0.098718,0.447634,-0.100458,48,276,569,5136
1644157218.440341,-0.011536,0.008484,-0.992554,0.159786,0.371298,-0.008855,47,273,582,5104
1644157218.488737,-0.01178,0.009766,-0.988647,0.419328,0.386565,-0.115725,51,276,571,5168
1644157218.537128,-0.008057,0.009399,-0.98999,0.266656,0.417099,-0.069924,47,277,570,5104
1644157218.58552,-0.013306,0.011353,-0.99408,0.434595,0.264427,-0.024122,48,271,566,5072
1644157218.633896,-0.011292,0.008667,-0.993896,0.08345,0.417099,-0.054656,46,269,569,5168
1644157218.682351,-0.009888,0.011292,-0.989075,0.190321,0.493435,-0.25313,40,263,575,5136
1644157218.732602,-0.01123,0.008057,-0.990967,0.281924,0.172824,-0.054656,62,274,578,5136
1644157218.783081,-0.009949,0.011536,-0.989502,0.404061,0.478168,-0.207328,46,271,569,5056
1644157218.828152,-0.010925,0.008972,-0.991699,0.373527,0.508702,-0.192061,61,275,563,5200
1644157218.924273,-0.012939,0.010559,-0.992859,0.220855,0.371298,-0.054656,51,271,571,5168
1644157218.972673,-0.011902,0.006775,-0.994995,0.251389,0.386565,-0.069924,53,286,571,5072
1644157219.021054,-0.01239,0.005432,-0.993042,0.08345,0.432366,-0.161527,43,276,576,5136
1644157219.069505,-0.011169,0.011292,-0.990601,0.205588,0.478168,-0.115725,51,274,576,5136
1644157219.117797,-0.011597,0.009827,-0.991028,0.404061,0.478168,0.082748,49,263,572,5120
1644157219.166146,-0.010559,0.008057,-0.99176,0.312458,0.478168,0.006412,52,270,572,5184
1644157219.214607,-0.01001,0.009033,-0.99115,0.342992,0.554504,-0.085191,52,270,575,5120
1644157219.262964,-0.00824,0.011597,-0.989746,0.312458,0.294962,-0.25313,45,277,568,5168
1644157219.311336,-0.010315,0.010437,-0.988281,0.113985,0.523969,0.021679,47,273,584,5056
1644157219.359701,-0.011475,0.005676,-0.992371,0.159786,0.462901,-0.024122,47,275,572,5104
1644157219.408117,-0.011536,0.010193,-0.989197,0.098718,0.24916,-0.161527,58,279,571,5120
1644157219.456508,-0.013062,0.011536,-0.989197,0.205588,0.493435,-0.192061,55,281,566,5072
1644157219.504918,-0.010742,0.007446,-0.991699,0.236122,0.493435,0.052214,45,270,563,5168
1644157219.553301,-0.01123,0.011536,-0.990295,0.266656,0.569771,-0.176794,47,260,577,5104
1644157219.601666,-0.009155,0.009705,-0.990723,0.281924,0.417099,-0.14626,52,277,575,5120
1644157219.650049,-0.010742,0.01062,-0.992798,0.35826,0.279695,0.067481,49,277,568,5168
1644157219.698436,-0.011963,0.007874,-0.992371,0.175053,0.478168,-0.039389,49,270,579,5168
1644157219.746832,-0.010986,0.011658,-0.991638,0.342992,0.432366,-0.069924,39,274,571,5104
1644157219.795214,-0.010376,0.010193,-0.990784,0.297191,0.478168,-0.130992,46,269,576,5104
1644157219.844008,-0.010681,0.01001,-0.989197,0.312458,0.401832,0.006412,54,273,577,5136
1644157219.894953,-0.010132,0.010193,-0.991272,0.297191,0.523969,-0.192061,52,270,563,5136
1644157219.945434,-0.011536,0.00885,-0.98938,0.236122,0.493435,-0.176794,41,274,578,5008
1644157219.989949,-0.012512,0.008423,-0.991333,0.312458,0.447634,-0.115725,47,260,575,5120
1644157220.085668,-0.01062,0.007507,-0.993958,0.373527,0.478168,-0.085191,49,270,579,5120
1644157220.133971,-0.009888,0.012024,-0.989136,0.46513,0.523969,-0.192061,51,266,576,5200
1644157220.182333,-0.013184,0.010559,-0.99408,0.098718,0.646107,-0.130992,52,280,579,5104
1644157220.230698,-0.012146,0.00824,-0.992615,0.373527,0.386565,-0.115725,52,275,570,5104
1644157220.279086,-0.011414,0.009705,-0.993347,0.159786,0.447634,0.006412,46,271,573,5136
1644157220.327482,-0.014648,0.010071,-0.992493,0.327725,0.661374,-0.192061,51,276,580,5104
1644157220.375875,-0.013489,0.00946,-0.990784,0.327725,0.508702,0.052214,60,271,564,5184
1644157220.424258,-0.012634,0.008911,-0.993774,0.404061,0.493435,-0.100458,54,275,565,5184
1644157220.472673,-0.007996,0.009338,-0.992004,0.251389,0.401832,-0.024122,45,270,577,5104
1644157220.521043,-0.012085,0.00824,-0.993164,0.159786,0.310229,-0.115725,48,279,576,5120
1644157220.569435,-0.009888,0.011719,-0.991821,0.251389,0.432366,-0.054656,45,277,572,5184
1644157220.61779,-0.010498,0.008545,-0.993103,0.205588,0.462901,-0.207328,51,266,578,5104
1644157220.666205,-0.009583,0.010193,-0.995239,0.205588,0.585038,-0.085191,46,279,573,5104
1644157220.714707,-0.009521,0.010132,-0.992065,0.281924,0.401832,-0.161527,39,276,583,5104
1644157220.762984,-0.011902,0.008667,-0.991577,0.190321,0.478168,0.067481,52,270,572,5072
1644157220.811371,-0.011108,0.009949,-0.99292,0.281924,0.401832,-0.207328,58,281,564,5136
1644157220.859794,-0.010132,0.010315,-0.99292,0.129252,0.554504,-0.192061,41,266,573,5136
1644157220.908188,-0.011902,0.009644,-0.992065,0.35826,0.417099,-0.14626,33,273,586,5104
1644157220.956665,-0.009888,0.008362,-0.992249,0.175053,0.539237,-0.054656,58,271,571,5120
1644157221.06354,-0.011719,0.008667,-0.99231,0.220855,0.462901,-0.024122,53,281,576,5120
1644157221.101729,-0.011841,0.010071,-0.992554,0.266656,0.478168,-0.115725,45,263,579,5136
1644157221.150117,-0.013123,0.009521,-0.994934,0.312458,0.401832,-0.115725,43,269,573,5120
1644157221.19845,-0.007324,0.010071,-0.991455,0.220855,0.447634,-0.14626,61,270,577,5136
1644157221.246841,-0.009216,0.006531,-0.993713,0.007115,0.310229,-0.069924,45,265,572,5184
1644157221.295296,-0.011536,0.010742,-0.993408,0.327725,0.417099,-0.130992,46,279,585,5104
1644157221.343655,-0.010681,0.00708,-0.992798,0.159786,0.340763,0.082748,59,268,563,5120
1644157221.392036,-0.010132,0.009949,-0.991638,0.236122,0.585038,-0.130992,51,269,573,5136
1644157221.440379,-0.010498,0.009277,-0.99176,0.327725,0.356031,-0.222595,51,276,578,5168
1644157221.488801,-0.010803,0.008606,-0.988342,0.205588,0.554504,-0.054656,45,282,575,5104
1644157221.537186,-0.01062,0.010376,-0.992432,0.266656,0.508702,-0.024122,60,274,573,5168
1644157221.585574,-0.009583,0.009888,-0.98999,0.342992,0.554504,-0.268397,52,265,579,5104
1644157221.63396,-0.011108,0.00946,-0.991577,0.35826,0.554504,-0.039389,51,281,571,5136
1644157221.682384,-0.012268,0.007751,-0.991272,0.35826,0.508702,-0.115725,47,280,572,5136
1644157221.7311,-0.012329,0.010254,-0.990784,0.327725,0.508702,0.052214,41,274,576,5056
1644157221.781674,-0.011353,0.008423,-0.990662,0.236122,0.401832,-0.161527,52,275,570,5120
1644157221.832212,-0.008362,0.005798,-0.991516,0.281924,0.447634,-0.100458,49,268,575,5168
1644157221.877689,-0.009521,0.01062,-0.991699,0.251389,0.447634,-0.100458,52,275,572,5104
1644157221.972755,-0.01123,0.010437,-0.992798,0.236122,0.401832,-0.161527,47,282,570,5200
1644157222.021131,-0.013916,0.009216,-0.991089,0.327725,0.401832,-0.130992,45,277,577,5136
1644157222.069577,-0.009949,0.010376,-0.991394,0.129252,0.371298,-0.130992,57,275,579,5104
1644157222.117836,-0.011353,0.00885,-0.989685,0.190321,0.63084,0.021679,48,274,571,5120
1644157222.16623,-0.009521,0.009338,-0.99353,0.251389,0.417099,-0.054656,46,271,571,5120
1644157222.214632,-0.01239,0.007996,-0.992371,0.342992,0.462901,-0.192061,48,276,576,5184
1644157222.263025,-0.010864,0.011475,-0.992065,0.220855,0.523969,-0.024122,42,275,568,5120
1644157222.311397,-0.011353,0.011292,-0.991211,0.388794,0.539237,0.006412,53,271,580,5136
1644157222.359792,-0.00885,0.009521,-0.990356,0.327725,0.417099,-0.176794,51,271,564,5136
1644157222.408184,-0.010193,0.009827,-0.990356,0.434595,0.356031,0.113282,51,281,578,5168
1644157222.456573,-0.007812,0.012939,-0.991821,0.159786,0.523969,-0.222595,58,274,573,5184
1644157222.505084,-0.011719,0.012146,-0.991882,0.342992,0.493435,-0.069924,48,271,576,5200
1644157222.553347,-0.010742,0.008911,-0.991028,0.144519,0.478168,0.052214,47,280,570,5136
1644157222.601723,-0.009888,0.009583,-0.992371,0.266656,0.539237,-0.039389,43,274,580,5104
1644157222.650091,-0.012146,0.009766,-0.992371,0.052916,0.447634,-0.008855,41,264,566,5168
1644157222.698511,-0.007874,0.008179,-0.993286,0.251389,0.371298,0.067481,53,276,566,5136
1644157222.746896,-0.013794,0.008789,-0.99115,0.327725,0.340763,-0.054656,46,279,576,5168
1644157222.795677,-0.013428,0.010193,-0.989624,0.159786,0.63084,-0.192061,64,270,579,5056
1644157222.843736,-0.009338,0.009155,-0.989441,0.342992,0.371298,-0.039389,48,269,583,5104
1644157222.893744,-0.007446,0.008118,-0.991333,0.327725,0.386565,-0.085191,49,277,575,5104
1644157222.943936,-0.012146,0.009888,-0.99353,0.251389,0.447634,-0.100458,47,268,579,5056
1644157222.994155,-0.007812,0.008972,-0.990112,0.205588,0.432366,-0.054656,48,279,578,5104
1644157223.038713,-0.011292,0.010986,-0.989563,0.144519,0.478168,-0.14626,51,274,569,5104
1644157223.133999,-0.010864,0.008972,-0.990234,0.297191,0.417099,0.006412,46,269,573,5200
1644157223.182404,-0.010986,0.007141,-0.99115,0.159786,0.508702,-0.14626,53,274,573,5120
1644157223.230757,-0.013062,0.010742,-0.990967,0.098718,0.539237,-0.069924,43,271,576,5120
1644157223.279548,-0.009277,0.010254,-0.991272,0.327725,0.356031,0.006412,48,279,566,5136
1644157223.327545,-0.01001,0.008545,-0.994324,0.236122,0.371298,-0.069924,39,269,564,5072
1644157223.375938,-0.013672,0.011841,-0.989441,0.35826,0.462901,-0.069924,51,271,566,5168
1644157223.424327,-0.013123,0.008057,-0.990479,0.526198,0.462901,-0.130992,51,276,562,5136
1644157223.472728,-0.010437,0.009949,-0.992554,0.251389,0.478168,-0.161527,49,282,568,5120
1644157223.521102,-0.010071,0.009583,-0.992371,0.144519,0.523969,-0.024122,43,269,573,5104
1644157223.569486,-0.013123,0.008972,-0.990906,0.159786,0.401832,-0.054656,47,270,577,5120
1644157223.617885,-0.012451,0.010559,-0.99292,0.098718,0.661374,-0.100458,52,265,565,5136
1644157223.666273,-0.011902,0.009521,-0.991638,0.251389,0.554504,-0.039389,48,266,578,5072
1644157223.714712,-0.010803,0.008118,-0.988098,0.220855,0.371298,0.113282,49,270,579,5120
1644157223.76303,-0.013306,0.010376,-0.990906,0.251389,0.554504,-0.115725,49,277,575,5184
1644157223.811483,-0.012207,0.00824,-0.990906,0.190321,0.417099,-0.054656,58,276,566,5184
1644157223.859856,-0.010315,0.008972,-0.991272,0.175053,0.493435,-0.054656,52,265,561,5168
1644157223.908247,-0.009766,0.010254,-0.990356,0.129252,0.462901,-0.25313,58,279,573,5104
1644157223.95702,-0.011597,0.007507,-0.991089,0.419328,0.417099,-0.176794,52,277,575,5104
1644157224.062377,-0.009521,0.006775,-0.989624,0.327725,0.462901,-0.115725,35,268,568,5136
1644157224.101747,-0.011902,0.010376,-0.993652,0.342992,0.569771,-0.085191,52,273,570,5136
1644157224.150136,-0.009827,0.009521,-0.989746,0.281924,0.386565,-0.130992,48,262,578,5104
1644157224.198594,-0.008667,0.010376,-0.993408,0.404061,0.356031,0.021679,54,270,568,5104
1644157224.246911,-0.008972,0.010986,-0.992676,0.236122,0.462901,-0.14626,52,280,570,5184
1644157224.295309,-0.011475,0.006592,-0.993835,0.144519,0.493435,-0.054656,48,281,578,5168
1644157224.343714,-0.011658,0.010254,-0.992737,0.312458,0.462901,0.006412,42,275,572,5200
1644157224.392207,-0.008362,0.00647,-0.992188,0.35826,0.493435,-0.115725,46,276,576,5168
1644157224.440484,-0.010925,0.006958,-0.991272,0.281924,0.523969,0.021679,48,276,578,5136
1644157224.488868,-0.012512,0.007874,-0.993408,0.312458,0.325496,-0.25313,53,281,573,5168
1644157224.53725,-0.013123,0.010315,-0.993469,0.281924,0.554504,-0.069924,48,279,573,5184
1644157224.585657,-0.009155,0.006287,-0.993103,0.35826,0.310229,-0.192061,54,275,563,5120
1644157224.634027,-0.01123,0.008728,-0.991394,0.388794,0.478168,-0.130992,48,271,578,5072
1644157224.682441,-0.011902,0.008667,-0.991272,0.342992,0.462901,-0.085191,41,276,573,5136
1644157224.730823,-0.012085,0.009766,-0.99054,0.236122,0.432366,-0.176794,51,269,573,5120
1644157224.780201,-0.013489,0.010559,-0.989746,0.129252,0.447634,-0.008855,53,269,573,5168
1644157224.831922,-0.008545,0.01123,-0.993225,0.327725,0.371298,-0.085191,43,269,583,5136
1644157224.876033,-0.013,0.010193,-0.994629,0.022382,0.340763,-0.130992,45,268,572,5136
1644157224.972834,-0.010071,0.011108,-0.992554,0.205588,0.371298,-0.115725,48,259,569,5104
1644157225.021166,-0.010681,0.010803,-0.991089,0.08345,0.508702,-0.069924,41,276,562,5120
1644157225.069782,-0.011292,0.012329,-0.991028,0.434595,0.279695,-0.069924,45,265,577,5104
1644157225.117935,-0.01178,0.009827,-0.989502,0.373527,0.356031,-0.25313,48,269,559,5136
1644157225.166294,-0.010437,0.011658,-0.99231,0.220855,0.539237,-0.130992,46,279,566,5168
1644157225.214702,-0.008789,0.00885,-0.990967,0.236122,0.371298,-0.130992,54,280,577,5232
1644157225.263095,-0.011353,0.009399,-0.993408,0.037649,0.340763,-0.192061,47,265,577,5168
1644157225.311455,-0.012634,0.009216,-0.988464,0.297191,0.264427,-0.115725,61,270,565,5200
1644157225.359855,-0.011475,0.008301,-0.99292,0.373527,0.462901,-0.054656,49,265,565,5184
1644157225.40825,-0.010315,0.009521,-0.99231,0.281924,0.462901,-0.161527,47,265,577,5104
1644157225.456622,-0.012939,0.012573,-0.991699,0.236122,0.401832,-0.207328,55,271,571,5168
1644157225.505153,-0.009277,0.009277,-0.992371,0.205588,0.401832,-0.100458,49,275,556,5184
1644157225.553413,-0.011902,0.013062,-0.990234,0.129252,0.203359,-0.161527,46,274,566,5072
1644157225.601764,-0.01178,0.011414,-0.990784,0.205588,0.493435,-0.039389,49,275,577,5104
1644157225.650186,-0.010986,0.008972,-0.987854,0.159786,0.356031,-0.024122,57,268,577,5136
1644157225.698581,-0.007996,0.007874,-0.992676,0.220855,0.508702,-0.054656,60,274,576,5168
1644157225.746966,-0.009583,0.009399,-0.99353,0.297191,0.478168,-0.069924,47,277,584,5184
1644157225.795338,-0.011047,0.008484,-0.98877,0.190321,0.417099,-0.176794,48,266,566,5104
1644157225.843739,-0.009888,0.007874,-0.993896,0.281924,0.417099,0.082748,49,268,577,5072
1644157225.893314,-0.009033,0.010193,-0.98938,0.205588,0.432366,0.036947,52,275,575,5136
1644157225.943727,-0.010986,0.008301,-0.992371,0.113985,0.417099,-0.161527,54,280,579,5104
1644157225.994021,-0.009338,0.008179,-0.99231,0.220855,0.523969,-0.039389,47,268,570,5184
1644157226.086997,-0.01355,0.00824,-0.995483,0.266656,0.417099,-0.054656,52,265,577,5184
1644157226.134118,-0.010315,0.008606,-0.989197,0.205588,0.600305,-0.161527,52,280,575,5120
1644157226.182465,-0.009583,0.008057,-0.989075,0.35826,0.523969,-0.115725,51,279,564,5184
1644157226.230839,-0.010681,0.011292,-0.989685,0.281924,0.523969,-0.100458,41,264,576,5120
1644157226.279217,-0.010864,0.010376,-0.992371,0.312458,0.371298,-0.008855,54,260,572,5136
1644157226.327614,-0.011536,0.00885,-0.991455,0.220855,0.508702,-0.085191,54,273,570,5136
1644157226.376035,-0.010254,0.010437,-0.990662,0.190321,0.386565,-0.100458,54,270,572,5184
1644157226.424394,-0.007019,0.007935,-0.991028,0.205588,0.462901,-0.069924,60,271,571,5200
1644157226.472791,-0.011597,0.007751,-0.992188,0.220855,0.523969,-0.100458,47,270,577,5120
1644157226.521166,-0.008545,0.009827,-0.991943,0.251389,0.279695,0.052214,46,269,566,5184
1644157226.569556,-0.012329,0.009521,-0.991882,0.342992,0.539237,-0.130992,42,268,568,5136
1644157226.617953,-0.012817,0.007996,-0.99231,0.35826,0.478168,-0.085191,48,271,569,5136
1644157226.666333,-0.007507,0.011719,-0.992493,0.236122,0.63084,-0.008855,47,268,577,5104
1644157226.714754,-0.011353,0.010925,-0.991516,0.159786,0.325496,-0.115725,47,277,570,5168
1644157226.763126,-0.010437,0.009583,-0.992249,0.312458,0.646107,-0.024122,51,276,566,5136
1644157226.81149,-0.009827,0.012329,-0.991272,0.281924,0.401832,-0.085191,42,275,572,5168
1644157226.859918,-0.010132,0.01062,-0.989624,0.373527,0.539237,-0.115725,47,275,568,5168
1644157226.908323,-0.00769,0.009033,-0.993469,0.342992,0.585038,-0.115725,43,266,573,5136
1644157226.958653,-0.011047,0.012146,-0.99115,0.312458,0.523969,-0.024122,49,277,575,5168
1644157227.008334,-0.012451,0.008179,-0.99115,0.388794,0.386565,-0.192061,54,282,577,5168
1644157227.10186,-0.009949,0.006104,-0.990601,0.373527,0.478168,-0.14626,43,276,578,5072
1644157227.150222,-0.013367,0.008545,-0.991333,0.144519,0.325496,-0.039389,54,275,568,5168
1644157227.198604,-0.009644,0.008606,-0.990601,0.266656,0.493435,-0.008855,46,276,576,5168
1644157227.246969,-0.011047,0.007751,-0.993103,0.342992,0.401832,0.021679,52,268,575,5104
1644157227.295382,-0.012085,0.010986,-0.992615,0.236122,0.371298,-0.085191,55,276,576,5168
1644157227.343787,-0.009583,0.009644,-0.991516,0.251389,0.462901,-0.085191,53,279,569,5200
1644157227.392224,-0.009888,0.009033,-0.990845,0.190321,0.462901,-0.115725,49,277,572,5120
1644157227.440535,-0.011292,0.010681,-0.990356,0.220855,0.493435,-0.176794,48,281,573,5104
1644157227.489294,-0.009338,0.008789,-0.98999,0.144519,0.600305,-0.069924,52,282,568,5184
1644157227.537323,-0.010498,0.010132,-0.991699,0.205588,0.340763,-0.054656,45,260,575,5184
1644157227.5857,-0.011536,0.007446,-0.991577,0.434595,0.646107,-0.069924,52,275,579,5136
1644157227.63409,-0.010376,0.00708,-0.991638,0.266656,0.462901,-0.008855,42,280,572,5136
1644157227.682827,-0.011841,0.00769,-0.992249,0.251389,0.447634,-0.039389,51,276,578,5136
1644157227.734033,-0.00946,0.010315,-0.990479,0.419328,0.401832,-0.115725,49,280,577,5120
1644157227.78277,-0.00885,0.00885,-0.992554,0.236122,0.478168,-0.115725,52,268,572,5168
1644157227.832989,-0.011658,0.010132,-0.990662,0.373527,0.462901,-0.054656,58,269,569,5072
1644157227.924483,-0.010376,0.009766,-0.99054,0.297191,0.401832,-0.024122,38,275,570,5104
1644157227.972836,-0.009399,0.008789,-0.991455,0.236122,0.478168,-0.176794,54,265,565,5168
1644157228.021242,-0.010376,0.010376,-0.991516,0.205588,0.356031,-0.039389,45,290,575,5136
1644157228.07233,-0.012268,0.010071,-0.991089,0.236122,0.523969,-0.100458,46,274,578,5120
1644157228.117998,-0.007751,0.012207,-0.989624,0.159786,0.523969,-0.161527,55,276,573,5200
1644157228.166408,-0.012756,0.009949,-0.99176,0.480397,0.554504,-0.069924,49,275,565,5072
1644157228.214811,-0.014771,0.011414,-0.992981,0.266656,0.462901,-0.14626,51,269,576,5072
1644157228.263191,-0.010742,0.009705,-0.990295,0.205588,0.523969,-0.130992,45,273,570,5120
1644157228.311556,-0.009949,0.007935,-0.990845,0.190321,0.447634,0.021679,49,265,570,5072
1644157228.359953,-0.009827,0.007996,-0.989502,0.373527,0.417099,-0.115725,38,270,579,5072
1644157228.408344,-0.010498,0.01178,-0.993469,0.098718,0.493435,0.006412,45,275,568,5136
1644157228.456736,-0.00885,0.008301,-0.991333,0.342992,0.279695,-0.14626,57,275,575,5136
1644157228.505168,-0.012207,0.008362,-0.990601,0.08345,0.462901,0.021679,41,271,576,5120
1644157228.553533,-0.014038,0.009949,-0.992188,0.129252,0.386565,-0.085191,38,277,579,5184
1644157228.601873,-0.012207,0.009399,-0.993835,0.281924,0.508702,-0.115725,48,276,580,5184
1644157228.650281,-0.010559,0.010437,-0.991943,0.373527,0.325496,-0.039389,47,275,570,5120
1644157228.698673,-0.008484,0.009155,-0.992798,0.159786,0.386565,-0.344733,52,270,579,5104
1644157228.747428,-0.012329,0.008301,-0.993652,0.297191,0.447634,-0.039389,55,288,583,5104
1644157228.795449,-0.00946,0.010376,-0.98938,0.236122,0.539237,-0.130992,49,280,584,5136
1644157228.845511,-0.01355,0.010559,-0.991272,0.251389,0.356031,0.006412,60,271,569,5184
1644157228.895752,-0.009888,0.00824,-0.992615,0.220855,0.356031,-0.130992,58,276,571,5120
1644157228.946003,-0.01178,0.008911,-0.991821,0.312458,0.447634,-0.054656,53,266,571,5104
1644157228.990506,-0.010071,0.012756,-0.989624,0.404061,0.417099,-0.222595,51,269,576,5120
1644157229.085864,-0.009888,0.010193,-0.989807,0.35826,0.401832,-0.100458,51,279,573,5072
1644157229.134138,-0.009521,0.010925,-0.993469,0.190321,0.478168,0.159084,49,273,572,5200
1644157229.182519,-0.010437,0.008179,-0.994873,0.08345,0.432366,-0.069924,59,277,570,5136
1644157229.230907,-0.0047,0.009583,-0.992554,0.312458,0.462901,-0.085191,51,276,569,5136
1644157229.279271,-0.009399,0.009949,-0.990723,0.388794,0.371298,-0.115725,46,264,571,5136
1644157229.327684,-0.009033,0.010498,-0.991333,0.419328,0.539237,-0.008855,45,268,575,5136
1644157229.376052,-0.01001,0.010559,-0.993591,0.312458,0.554504,-0.069924,54,265,570,5120
1644157229.424474,-0.010132,0.009216,-0.990845,0.35826,0.432366,-0.115725,45,273,570,5184
1644157229.47286,-0.010925,0.008484,-0.99292,0.266656,0.417099,-0.161527,47,277,570,5200
1644157229.521243,-0.01239,0.010681,-0.993042,0.175053,0.493435,-0.069924,54,280,568,5104
1644157229.569629,-0.010742,0.006104,-0.990845,0.342992,0.340763,-0.039389,48,269,576,5120
1644157229.618021,-0.008484,0.007996,-0.990601,0.281924,0.401832,-0.14626,52,270,582,5072
1644157229.666404,-0.01062,0.009094,-0.992249,0.327725,0.371298,-0.314198,51,276,578,5168
1644157229.714806,-0.013,0.009155,-0.991577,0.113985,0.493435,-0.039389,35,270,577,5184
1644157229.763162,-0.007568,0.009521,-0.99115,0.129252,0.493435,-0.130992,48,269,576,5104
1644157229.81159,-0.010498,0.009338,-0.990356,0.022382,0.554504,-0.192061,45,270,584,5248
1644157229.859985,-0.012329,0.008484,-0.992493,0.236122,0.447634,-0.176794,51,269,578,5184
1644157229.90836,-0.01062,0.010071,-0.992126,0.205588,0.325496,0.006412,47,275,584,5136
1644157229.956786,-0.014282,0.01001,-0.989624,0.129252,0.417099,-0.100458,48,269,580,5168
1644157230.062764,-0.011414,0.010864,-0.98999,0.220855,0.386565,-0.115725,47,270,577,5120
1644157230.101889,-0.01178,0.010742,-0.989441,0.327725,0.508702,-0.192061,47,277,579,5168
1644157230.150268,-0.010193,0.010437,-0.992859,0.190321,0.462901,0.021679,42,273,570,5072
1644157230.198674,-0.009399,0.011475,-0.990784,0.312458,0.386565,-0.161527,51,271,578,5168
1644157230.247031,-0.012085,0.01062,-0.99231,0.205588,0.478168,-0.085191,59,270,572,5072
1644157230.295415,-0.009705,0.010498,-0.99115,0.388794,0.539237,-0.100458,54,277,570,5200
1644157230.343869,-0.011597,0.011353,-0.992798,0.205588,0.386565,-0.069924,51,271,573,5136
1644157230.392238,-0.012085,0.00769,-0.988831,0.373527,0.401832,-0.039389,51,269,573,5136
1644157230.440608,-0.012329,0.008179,-0.990295,0.175053,0.401832,-0.085191,48,276,571,5104
1644157230.489317,-0.011169,0.011475,-0.99292,0.052916,0.294962,-0.130992,42,285,577,5120
1644157230.537385,-0.010681,0.010681,-0.99054,0.266656,0.371298,-0.085191,53,271,576,5120
1644157230.585771,-0.01001,0.008911,-0.991394,0.266656,0.447634,0.006412,42,275,570,5072
1644157230.634168,-0.011658,0.009033,-0.990173,0.281924,0.462901,-0.039389,54,280,570,5104
1644157230.682567,-0.012085,0.011292,-0.991577,0.236122,0.462901,-0.115725,58,262,569,5168
1644157230.731241,-0.011292,0.009949,-0.991333,0.251389,0.523969,-0.14626,55,269,569,5168
1644157230.781596,-0.011902,0.008972,-0.98877,0.312458,0.371298,-0.14626,54,275,570,5184
1644157230.833275,-0.010986,0.009521,-0.99176,0.159786,0.356031,-0.161527,49,268,563,5120
1644157230.87786,-0.007507,0.009827,-0.991699,0.342992,0.432366,-0.14626,53,281,573,5200
1644157230.972938,-0.010864,0.009399,-0.99054,0.251389,0.371298,-0.008855,47,277,577,5136
1644157231.021272,-0.009277,0.007996,-0.991638,0.205588,0.569771,-0.008855,58,281,571,5104
1644157231.06977,-0.010803,0.011902,-0.99231,0.236122,0.646107,-0.14626,46,279,573,5168
1644157231.118074,-0.012329,0.009216,-0.989746,0.159786,0.447634,-0.069924,62,276,566,5184
1644157231.166425,-0.009644,0.010315,-0.992126,0.281924,0.508702,-0.054656,52,268,570,5120
1644157231.214828,-0.008484,0.011108,-0.992432,0.068183,0.432366,-0.14626,58,274,583,5120
1644157231.26321,-0.01001,0.011475,-0.990479,0.220855,0.478168,-0.115725,54,270,577,5168
1644157231.311568,-0.008545,0.010132,-0.992004,0.266656,0.432366,-0.100458,48,274,573,5184
1644157231.359973,-0.009094,0.009888,-0.991089,0.266656,0.356031,-0.115725,58,276,576,5104
1644157231.408373,-0.01062,0.008057,-0.993958,0.098718,0.417099,-0.100458,46,274,566,5136
1644157231.456764,-0.012756,0.009888,-0.991943,0.236122,0.447634,0.082748,46,269,587,5104
1644157231.505257,-0.008606,0.007141,-0.992188,0.175053,0.417099,0.021679,51,269,578,5120
1644157231.553555,-0.010437,0.012024,-0.99292,0.404061,0.447634,-0.115725,51,264,576,5136
1644157231.60193,-0.010498,0.010193,-0.99408,0.159786,0.447634,-0.14626,47,277,572,5104
1644157231.650314,-0.013855,0.012207,-0.992004,0.190321,0.417099,0.067481,60,274,578,5136
1644157231.698696,-0.010864,0.009583,-0.98999,0.373527,0.493435,-0.100458,54,273,579,5136
1644157231.747081,-0.011169,0.009705,-0.993103,0.297191,0.447634,-0.192061,47,263,577,5120
1644157231.795464,-0.008789,0.008667,-0.992004,0.266656,0.478168,-0.054656,49,277,577,5104
1644157231.84392,-0.008667,0.010376,-0.990417,0.297191,0.401832,-0.069924,60,266,580,5200
1644157231.893691,-0.008789,0.007507,-0.991699,0.312458,0.371298,-0.008855,45,280,572,5104
1644157231.94396,-0.010437,0.01001,-0.990356,0.205588,0.539237,-0.024122,54,280,582,5168
1644157231.994047,-0.008118,0.008667,-0.991394,0.342992,0.523969,-0.176794,61,280,577,5168
1644157232.03879,-0.008606,0.009766,-0.991699,0.281924,0.371298,-0.008855,52,275,565,5168
1644157232.134332,-0.011597,0.009583,-0.993164,0.373527,0.447634,-0.25313,45,275,568,5120
1644157232.182594,-0.008667,0.010315,-0.991272,0.297191,0.401832,-0.176794,48,276,569,5120
1644157232.23096,-0.01001,0.009521,-0.991577,0.220855,0.279695,-0.085191,47,270,572,5120
1644157232.279331,-0.010437,0.008423,-0.989441,0.312458,0.294962,-0.085191,53,274,573,5104
1644157232.327731,-0.011414,0.00946,-0.992859,0.098718,0.478168,-0.115725,54,273,572,5168
1644157232.376128,-0.008789,0.007141,-0.991882,0.312458,0.264427,-0.268397,38,277,575,5136
1644157232.4245,-0.009094,0.009705,-0.992126,0.281924,0.523969,-0.161527,59,282,579,5184
1644157232.472923,-0.010437,0.009766,-0.992737,0.35826,0.600305,-0.192061,42,268,572,5072
1644157232.521308,-0.008789,0.008118,-0.991943,0.205588,0.417099,-0.100458,53,279,576,5136
1644157232.569686,-0.01123,0.011169,-0.991638,0.342992,0.417099,-0.054656,54,273,577,5072
1644157232.618071,-0.009277,0.009888,-0.992249,0.327725,0.493435,-0.161527,55,274,576,5136
1644157232.666459,-0.00885,0.007629,-0.992126,0.297191,0.508702,0.006412,57,270,565,5104
1644157232.714866,-0.00885,0.013672,-0.991211,0.144519,0.447634,-0.008855,66,275,568,5120
1644157232.763226,-0.009216,0.008484,-0.991211,0.327725,0.264427,-0.069924,57,275,584,5072
1644157232.81162,-0.011597,0.010925,-0.992065,0.220855,0.386565,-0.008855,60,271,569,5136
1644157232.860057,-0.011841,0.008057,-0.990662,0.190321,0.386565,-0.222595,48,276,580,5120
1644157232.908442,-0.010925,0.008972,-0.991882,0.205588,0.401832,-0.039389,58,274,576,5136
1644157232.957209,-0.012024,0.01062,-0.990601,0.312458,0.432366,0.006412,58,286,566,5072
1644157233.063115,-0.011719,0.011902,-0.991638,0.220855,0.325496,-0.222595,52,273,582,5120
1644157233.101979,-0.011414,0.007446,-0.990295,0.342992,0.569771,-0.054656,51,276,573,5104
1644157233.150366,-0.008118,0.007812,-0.992554,0.159786,0.401832,-0.14626,52,270,577,5104
1644157233.19873,-0.009277,0.010803,-0.990845,0.251389,0.356031,-0.024122,46,274,564,5072
1644157233.247102,-0.009949,0.009827,-0.993225,0.236122,0.676641,-0.237863,41,279,576,5072
1644157233.295477,-0.009827,0.00769,-0.991943,0.251389,0.447634,-0.161527,54,282,572,5120
1644157233.343907,-0.010376,0.013855,-0.991882,0.144519,0.371298,-0.100458,52,273,575,5168
1644157233.392298,-0.009827,0.010254,-0.987427,0.35826,0.508702,-0.039389,55,271,580,5136
1644157233.440673,-0.010559,0.007141,-0.99353,0.220855,0.432366,-0.14626,46,279,576,5168
1644157233.489336,-0.011902,0.009094,-0.992737,0.419328,0.462901,-0.039389,48,271,573,5120
1644157233.537446,-0.009033,0.011108,-0.993164,0.388794,0.569771,-0.115725,48,276,583,5072
1644157233.58584,-0.009644,0.008789,-0.994873,0.205588,0.508702,0.052214,53,274,571,5168
1644157233.634225,-0.006958,0.010437,-0.992676,0.190321,0.386565,-0.024122,47,275,579,5104
1644157233.682627,-0.011292,0.010681,-0.992249,0.266656,0.432366,0.021679,43,283,578,5120
1644157233.73123,-0.011475,0.008057,-0.991577,0.297191,0.294962,-0.192061,38,273,575,5120
1644157233.781741,-0.011475,0.008423,-0.991028,0.251389,0.386565,-0.054656,55,262,583,5120
1644157233.83198,-0.013062,0.008789,-0.993896,0.175053,0.508702,-0.085191,42,268,572,5120
1644157233.877877,-0.013367,0.007385,-0.989685,0.388794,0.447634,-0.14626,49,275,565,5184
1644157233.97301,-0.007263,0.009094,-0.991638,0.266656,0.462901,-0.085191,47,273,568,5168
1644157234.021368,-0.009521,0.007019,-0.99115,0.312458,0.478168,-0.039389,54,277,579,5184
1644157234.072352,-0.014343,0.009521,-0.99292,0.251389,0.356031,-0.039389,51,269,585,5200
1644157234.118111,-0.012329,0.009521,-0.993225,0.342992,0.386565,-0.008855,53,262,571,5136
1644157234.166493,-0.008911,0.009277,-0.991272,0.159786,0.447634,-0.054656,48,271,571,5168
1644157234.214871,-0.011292,0.008911,-0.992249,0.35826,0.294962,-0.069924,52,277,572,5136
1644157234.263272,-0.011169,0.009949,-0.992371,0.312458,0.356031,0.021679,49,275,572,5072
1644157234.311662,-0.008972,0.008545,-0.991455,0.251389,0.432366,-0.100458,42,270,572,5168
1644157234.360052,-0.010742,0.010559,-0.991333,0.266656,0.478168,-0.024122,48,271,562,5136
1644157234.408441,-0.006653,0.007874,-0.991272,0.342992,0.356031,-0.085191,51,283,566,5104
1644157234.456811,-0.01123,0.007202,-0.989319,0.220855,0.462901,0.052214,57,270,561,5136
1644157234.505269,-0.011169,0.008911,-0.989868,0.220855,0.432366,0.006412,59,275,565,5136
1644157234.553617,-0.011902,0.011108,-0.98938,0.35826,0.462901,-0.161527,64,275,575,5120
1644157234.60199,-0.011841,0.008057,-0.992493,0.281924,0.432366,-0.115725,53,276,583,5168
1644157234.650383,-0.011169,0.007996,-0.992676,0.312458,0.401832,0.036947,47,263,582,5168
1644157234.698755,-0.009766,0.010071,-0.991028,0.098718,0.310229,-0.085191,59,273,575,5104
1644157234.747146,-0.010742,0.009827,-0.993164,0.144519,0.401832,-0.069924,47,275,584,5168
1644157234.79592,-0.014648,0.012512,-0.992004,0.297191,0.325496,-0.054656,53,266,580,5120
1644157234.844006,-0.005432,0.006897,-0.993713,0.312458,0.585038,-0.161527,48,269,578,5184
1644157234.893962,-0.013977,0.011597,-0.989258,0.236122,0.493435,-0.115725,38,275,575,5168
1644157234.944062,-0.00885,0.00885,-0.993164,0.205588,0.508702,0.052214,58,269,580,5184
1644157234.994343,-0.008301,0.005981,-0.991882,0.220855,0.371298,-0.161527,51,274,580,5104
1644157235.038818,-0.00946,0.009705,-0.992432,0.404061,0.523969,-0.085191,58,271,580,5184
1644157235.134235,-0.008606,0.009521,-0.988281,0.297191,0.569771,-0.176794,52,273,575,5136
1644157235.182655,-0.012512,0.010254,-0.991455,0.342992,0.478168,-0.069924,53,269,578,5072
1644157235.231019,-0.012451,0.010193,-0.992065,0.236122,0.539237,-0.115725,60,274,562,5136
1644157235.279409,-0.010559,0.011292,-0.992249,0.236122,0.401832,-0.054656,62,271,573,5104
1644157235.327806,-0.012024,0.006042,-0.990479,0.297191,0.569771,-0.115725,45,273,577,5120
1644157235.376189,-0.009705,0.009094,-0.99231,0.220855,0.340763,-0.024122,51,271,576,5184
1644157235.424627,-0.009949,0.008301,-0.99231,0.327725,0.432366,-0.069924,42,275,570,5136
1644157235.473,-0.015686,0.006836,-0.993347,0.297191,0.508702,-0.039389,42,275,579,5184
1644157235.521369,-0.009827,0.009216,-0.991943,0.220855,0.462901,-0.268397,49,280,575,5120
1644157235.569761,-0.011047,0.011169,-0.991516,0.266656,0.554504,-0.100458,43,274,571,5184
1644157235.618142,-0.012634,0.008118,-0.988708,0.220855,0.478168,-0.176794,58,274,578,5104
1644157235.666528,-0.008667,0.008362,-0.991577,0.342992,0.462901,0.021679,53,271,573,5120
1644157235.714933,-0.012085,0.010437,-0.992188,0.251389,0.356031,-0.130992,52,263,582,5120
1644157235.763292,-0.011963,0.009094,-0.994019,0.342992,0.447634,-0.283664,36,274,573,5232
1644157235.811736,-0.012268,0.01123,-0.990112,0.098718,0.325496,-0.14626,49,280,579,5120
1644157235.860127,-0.009521,0.009521,-0.991638,0.327725,0.386565,-0.115725,52,270,570,5168
1644157235.908514,-0.01123,0.007324,-0.990601,0.205588,0.371298,-0.054656,43,274,566,5136
1644157235.95722,-0.011169,0.005371,-0.991333,0.113985,0.386565,-0.039389,57,280,572,5072
1644157236.064679,-0.009521,0.009399,-0.991211,0.297191,0.325496,-0.161527,53,281,571,5184
1644157236.102017,-0.01178,0.008179,-0.993835,0.144519,0.417099,-0.008855,47,273,582,5136
1644157236.150407,-0.009888,0.011353,-0.991943,0.281924,0.432366,-0.161527,48,266,580,5104
1644157236.198795,-0.010681,0.012451,-0.992249,0.159786,0.340763,-0.100458,51,274,578,5136
1644157236.247163,-0.013489,0.008484,-0.991577,0.434595,0.523969,-0.024122,48,281,576,5184
1644157236.295567,-0.007935,0.010437,-0.992676,0.251389,0.279695,-0.085191,46,269,571,5136
1644157236.343979,-0.01062,0.009705,-0.990723,0.419328,0.554504,-0.222595,52,270,575,5168
1644157236.39234,-0.008423,0.008545,-0.991089,0.373527,0.371298,-0.130992,49,275,579,5200
1644157236.440739,-0.011108,0.012634,-0.993774,0.281924,0.417099,-0.115725,52,275,575,5120
1644157236.48933,-0.009216,0.007141,-0.992371,0.159786,0.401832,0.067481,48,279,587,5120
1644157236.537515,-0.010376,0.010864,-0.992737,0.190321,0.310229,-0.130992,58,279,573,5072
1644157236.585907,-0.010498,0.012878,-0.992798,0.220855,0.462901,-0.14626,45,270,575,5184
1644157236.634279,-0.011536,0.010498,-0.991638,0.388794,0.585038,-0.024122,47,275,582,5072
1644157236.682831,-0.009216,0.012207,-0.992249,0.159786,0.539237,-0.069924,41,271,573,5136
1644157236.732182,-0.010376,0.006958,-0.993347,0.175053,0.462901,-0.069924,53,271,590,5136
1644157236.782537,-0.013306,0.009644,-0.990417,0.281924,0.340763,-0.130992,49,270,582,5104
1644157236.833662,-0.013123,0.007751,-0.991089,0.35826,0.340763,-0.069924,64,282,577,5200
1644157236.924942,-0.012024,0.009094,-0.990601,0.129252,0.401832,0.006412,42,277,572,5168
1644157236.973081,-0.010254,0.010193,-0.993164,0.251389,0.417099,-0.100458,45,275,586,5136
1644157237.021407,-0.008118,0.009644,-0.98877,0.312458,0.401832,-0.085191,57,277,579,5120
1644157237.071154,-0.010925,0.010132,-0.992249,0.190321,0.539237,-0.085191,49,275,572,5168
1644157237.118144,-0.010071,0.010803,-0.992493,0.297191,0.508702,-0.069924,39,271,573,5104
1644157237.166543,-0.010803,0.012146,-0.99408,0.236122,0.371298,-0.024122,47,273,579,5136
1644157237.214993,-0.012329,0.010254,-0.992554,0.129252,0.447634,-0.14626,47,270,572,5184
1644157237.263346,-0.012756,0.01178,-0.992676,0.312458,0.585038,-0.130992,49,263,570,5120
1644157237.311733,-0.010254,0.011292,-0.992188,0.175053,0.386565,-0.207328,55,274,571,5200
1644157237.360116,-0.011475,0.008911,-0.993835,0.266656,0.356031,0.082748,53,266,578,5184
1644157237.408504,-0.010681,0.009033,-0.992493,0.205588,0.447634,-0.039389,46,266,578,5168
1644157237.456884,-0.011902,0.008789,-0.990173,0.312458,0.401832,-0.100458,45,273,572,5072
1644157237.5053,-0.007996,0.012146,-0.993408,0.129252,0.340763,-0.054656,51,276,576,5232
1644157237.553677,-0.011597,0.005981,-0.992676,0.113985,0.554504,-0.176794,57,275,584,5104
1644157237.602051,-0.009094,0.006104,-0.991028,0.342992,0.401832,0.052214,52,277,575,5168
1644157237.650433,-0.011841,0.009155,-0.992249,0.404061,0.462901,-0.192061,53,264,571,5136
1644157237.698828,-0.011536,0.011169,-0.992798,0.312458,0.340763,-0.024122,47,273,579,5232
1644157237.747191,-0.01001,0.008118,-0.992676,0.297191,0.386565,-0.130992,59,268,572,5104
1644157237.795623,-0.007935,0.009216,-0.990356,0.266656,0.569771,-0.100458,57,273,577,5120
1644157237.846803,-0.012329,0.009705,-0.990784,0.08345,0.432366,-0.054656,45,273,575,5104
1644157237.897052,-0.010803,0.010986,-0.990356,0.251389,0.569771,-0.024122,48,279,573,5120
1644157237.941395,-0.010437,0.008423,-0.992004,0.327725,0.417099,-0.069924,48,264,578,5136
1644157238.037561,-0.008484,0.008911,-0.990234,0.281924,0.432366,-0.14626,43,279,576,5104
1644157238.086033,-0.008911,0.010803,-0.990601,0.297191,0.585038,-0.14626,46,283,585,5168
1644157238.134353,-0.009094,0.01178,-0.990723,0.098718,0.325496,-0.100458,48,264,576,5120
1644157238.182728,-0.009705,0.010376,-0.991272,0.297191,0.340763,-0.085191,45,282,570,5056
1644157238.231092,-0.010864,0.010132,-0.98938,0.373527,0.447634,-0.14626,45,273,575,5072
1644157238.279467,-0.013245,0.008423,-0.989624,0.327725,0.600305,-0.283664,48,274,576,5104
1644157238.327869,-0.011719,0.008606,-0.989929,0.220855,0.340763,-0.024122,48,276,578,5136
1644157238.376257,-0.011536,0.009399,-0.992004,0.159786,0.417099,-0.14626,54,268,568,5120
1644157238.424715,-0.01355,0.010498,-0.990173,0.404061,0.523969,-0.207328,48,276,571,5104
1644157238.473067,-0.01178,0.007446,-0.991333,0.175053,0.386565,-0.024122,54,273,570,5072
1644157238.521431,-0.008545,0.008301,-0.991516,0.388794,0.447634,0.021679,43,266,573,5120
1644157238.569802,-0.011353,0.010742,-0.992615,0.205588,0.386565,-0.008855,40,277,572,5104
1644157238.61819,-0.007568,0.008423,-0.989258,0.327725,0.447634,0.036947,42,282,570,5168
1644157238.666586,-0.007263,0.008911,-0.991699,0.220855,0.539237,0.006412,42,270,577,5200
1644157238.715206,-0.012329,0.009155,-0.990051,0.251389,0.462901,-0.008855,39,281,578,5200
1644157238.763371,-0.012573,0.008118,-0.992859,0.266656,0.417099,-0.192061,47,273,575,5136
1644157238.811753,-0.010376,0.009705,-0.993896,0.159786,0.523969,-0.024122,51,279,576,5168
1644157238.860184,-0.011658,0.012756,-0.991699,0.205588,0.554504,-0.039389,48,269,571,5184
1644157238.908584,-0.013367,0.010193,-0.990784,-0.02342,0.493435,-0.085191,41,276,573,5200
1644157238.958508,-0.00824,0.009827,-0.988464,0.312458,0.325496,-0.100458,51,269,573,5184
1644157239.059383,-0.011047,0.009766,-0.99408,0.144519,0.462901,0.067481,54,280,579,5168
1644157239.102074,-0.013916,0.01239,-0.991394,0.220855,0.462901,-0.100458,52,273,568,5136
1644157239.150504,-0.00946,0.010071,-0.993774,0.098718,0.462901,-0.14626,48,283,571,5136
1644157239.198869,-0.013245,0.00708,-0.991882,0.129252,0.340763,-0.069924,54,280,572,5104
1644157239.247247,-0.011414,0.009399,-0.989014,0.342992,0.401832,-0.192061,48,276,564,5104
1644157239.295635,-0.012817,0.006165,-0.992065,0.175053,0.447634,-0.024122,47,263,579,5056
1644157239.344036,-0.01123,0.006592,-0.992432,0.190321,0.447634,-0.115725,53,271,576,5104
1644157239.392433,-0.011475,0.009155,-0.989685,0.312458,0.325496,-0.115725,49,280,577,5184
1644157239.440805,-0.011902,0.007629,-0.990784,0.266656,0.539237,-0.069924,57,275,568,5168
1644157239.489332,-0.01178,0.009521,-0.990723,0.190321,0.401832,-0.039389,48,276,573,5120
1644157239.537544,-0.009155,0.008423,-0.994019,0.251389,0.523969,-0.115725,49,280,575,5104
1644157239.585967,-0.010437,0.011414,-0.991089,0.312458,0.356031,-0.161527,48,281,573,5120
1644157239.634357,-0.015442,0.010864,-0.990417,0.175053,0.493435,-0.085191,51,276,590,5120
1644157239.682757,-0.014648,0.010864,-0.991211,0.220855,0.447634,0.036947,46,271,580,5168
1644157239.731127,-0.009583,0.009338,-0.99292,0.297191,0.523969,-0.039389,51,269,583,5104
1644157239.779528,-0.008301,0.010498,-0.993408,0.266656,0.523969,-0.069924,53,274,580,5184
1644157239.827997,-0.012817,0.009277,-0.990662,0.159786,0.417099,-0.207328,48,274,585,5136
1644157239.878872,-0.012512,0.007446,-0.992249,0.129252,0.539237,-0.054656,54,270,577,5120
1644157239.929233,-0.009949,0.010132,-0.991638,0.281924,0.386565,0.036947,41,274,578,5184
1644157239.973807,-0.01062,0.011597,-0.990662,0.236122,0.340763,-0.115725,46,276,571,5184
1644157240.069975,-0.009033,0.009277,-0.990479,0.342992,0.478168,-0.161527,54,277,582,5168
1644157240.118221,-0.010559,0.011169,-0.990845,0.327725,0.432366,-0.085191,46,271,578,5072
1644157240.166592,-0.011353,0.008057,-0.991943,0.205588,0.325496,-0.085191,57,270,572,5168
1644157240.215255,-0.010376,0.007446,-0.990234,0.373527,0.569771,-0.100458,52,268,565,5136
1644157240.263381,-0.011047,0.007812,-0.989746,0.297191,0.508702,-0.054656,46,286,573,5104
1644157240.311783,-0.010925,0.010803,-0.990906,0.281924,0.462901,-0.024122,42,270,577,5168
1644157240.360178,-0.013184,0.008789,-0.992249,0.297191,0.294962,-0.100458,46,269,576,5120
1644157240.408584,-0.010559,0.00769,-0.991882,0.297191,0.340763,-0.100458,47,280,572,5168
1644157240.456957,-0.012329,0.009888,-0.99231,0.266656,0.401832,-0.085191,49,277,577,5168
1644157240.505353,-0.008606,0.01062,-0.991455,0.190321,0.462901,-0.024122,53,276,578,5136
1644157240.553741,-0.01062,0.011658,-0.989319,0.266656,0.493435,0.082748,53,262,580,5184
1644157240.602226,-0.01001,0.010681,-0.989624,0.312458,0.569771,-0.14626,42,285,570,5120
1644157240.650506,-0.011658,0.009705,-0.989563,0.205588,0.539237,0.082748,49,277,584,5104
1644157240.698901,-0.010376,0.009338,-0.989746,0.159786,0.447634,-0.161527,46,276,580,5184
1644157240.747288,-0.009521,0.009399,-0.991089,0.159786,0.417099,0.021679,60,286,566,5184
1644157240.795694,-0.010559,0.009583,-0.991089,0.327725,0.340763,-0.14626,53,276,569,5104
1644157240.844105,-0.010132,0.012756,-0.988464,0.205588,0.417099,-0.085191,52,280,575,5104
1644157240.893196,-0.013428,0.010132,-0.991272,0.205588,0.585038,-0.237863,36,264,571,5104
1644157240.9409,-0.012024,0.010376,-0.991333,0.312458,0.539237,-0.130992,43,279,580,5104
1644157240.990641,-0.012573,0.009888,-0.994019,0.205588,0.371298,-0.14626,46,259,580,5168
1644157241.040791,-0.011841,0.011658,-0.991882,0.129252,0.600305,-0.024122,59,265,575,5184
1644157241.091372,-0.00946,0.009094,-0.992126,0.251389,0.401832,-0.14626,52,275,577,5072
1644157241.135731,-0.01001,0.007324,-0.993347,0.327725,0.554504,0.052214,51,274,569,5184
1644157241.231166,-0.011719,0.01001,-0.992615,0.266656,0.310229,-0.192061,42,268,579,5072
1644157241.279535,-0.011597,0.01062,-0.993286,0.434595,0.569771,-0.130992,47,270,570,5136
1644157241.327943,-0.011536,0.009644,-0.989929,0.205588,0.401832,-0.024122,46,276,569,5184
1644157241.376326,-0.011536,0.008728,-0.991394,0.281924,0.325496,-0.054656,49,265,575,5168
1644157241.424761,-0.010254,0.008606,-0.990356,0.236122,0.401832,0.113282,60,274,571,5136
1644157241.473112,-0.007996,0.00592,-0.990662,0.251389,0.356031,-0.008855,48,266,585,5184
1644157241.521497,-0.01239,0.007568,-0.99054,0.251389,0.417099,-0.192061,49,273,563,5136
1644157241.569883,-0.006836,0.010376,-0.993225,0.266656,0.508702,-0.14626,54,270,575,5136
1644157241.618287,-0.010071,0.008728,-0.993408,0.175053,0.539237,-0.100458,41,279,573,5136
1644157241.666657,-0.008423,0.007629,-0.993591,0.236122,0.462901,-0.024122,53,269,578,5104
1644157241.715184,-0.009277,0.009827,-0.990906,0.205588,0.24916,-0.192061,52,263,572,5136
1644157241.76343,-0.009033,0.007263,-0.990967,0.297191,0.279695,-0.039389,48,271,573,5136
1644157241.811882,-0.009827,0.007874,-0.992554,0.297191,0.432366,-0.14626,49,273,582,5184
1644157241.86026,-0.011414,0.007507,-0.98999,0.281924,0.493435,-0.130992,47,268,565,5136
1644157241.908652,-0.01239,0.007996,-0.993408,0.205588,0.447634,0.036947,46,276,576,5120
1644157241.957023,-0.014282,0.010071,-0.989685,0.144519,0.417099,-0.039389,51,274,573,5072
1644157242.005387,-0.01178,0.008667,-0.991516,0.449863,0.462901,-0.14626,45,277,565,5168
1644157242.065305,-0.012817,0.008362,-0.992126,0.205588,0.646107,-0.039389,58,262,569,5200
1644157242.106645,-0.010193,0.008728,-0.990845,0.327725,0.294962,-0.085191,57,273,579,5104
1644157242.152649,-0.007935,0.010864,-0.992126,0.312458,0.294962,0.006412,57,277,575,5104
1644157242.203379,-0.015503,0.008301,-0.990417,0.220855,0.371298,-0.024122,51,274,573,5056
1644157242.248075,-0.010193,0.008118,-0.989441,0.175053,0.478168,-0.115725,52,273,577,5136
1644157242.344102,-0.011719,0.007874,-0.992004,0.220855,0.294962,-0.008855,43,271,569,5168
1644157242.392494,-0.012268,0.007996,-0.993286,0.342992,0.569771,0.036947,46,276,566,5136
1644157242.440857,-0.013306,0.009827,-0.992065,0.205588,0.356031,-0.115725,52,275,570,5104
1644157242.489332,-0.009644,0.009155,-0.993713,0.266656,0.523969,-0.054656,47,277,572,5168
1644157242.537615,-0.009888,0.004883,-0.991211,0.205588,0.325496,-0.207328,41,274,566,5136
1644157242.586021,-0.010803,0.008972,-0.991699,0.434595,0.417099,0.021679,49,280,575,5136
1644157242.634429,-0.006897,0.009338,-0.990601,0.35826,0.646107,-0.054656,52,268,579,5136
1644157242.682802,-0.010803,0.00769,-0.99231,0.190321,0.340763,-0.069924,52,275,572,5072
1644157242.731195,-0.008606,0.009338,-0.991211,0.312458,0.462901,0.006412,54,280,579,5168
1644157242.779584,-0.008179,0.012329,-0.993896,0.388794,0.554504,0.021679,54,263,577,5136
1644157242.828028,-0.010803,0.009827,-0.992126,0.175053,0.325496,-0.069924,57,277,570,5136
1644157242.876405,-0.008118,0.011108,-0.988586,0.251389,0.401832,-0.008855,48,274,571,5184
1644157242.924806,-0.010498,0.009888,-0.991699,0.251389,0.447634,-0.192061,48,269,573,5184
1644157242.973181,-0.012207,0.010315,-0.991943,0.251389,0.447634,-0.115725,52,270,572,5168
1644157243.021559,-0.011902,0.009277,-0.991638,0.190321,0.539237,-0.024122,48,276,580,5072
1644157243.092618,-0.008789,0.009399,-0.991333,0.312458,0.432366,-0.069924,53,283,576,5136
1644157243.122519,-0.00885,0.008972,-0.991211,0.297191,0.386565,0.006412,53,281,569,5200
1644157243.171472,-0.009888,0.007324,-0.992004,0.251389,0.371298,-0.161527,43,271,583,5120
1644157243.263457,-0.01355,0.008423,-0.992859,0.190321,0.462901,-0.14626,53,269,571,5072
1644157243.31186,-0.012146,0.007263,-0.992737,0.220855,0.325496,-0.069924,57,273,584,5136
1644157243.36024,-0.008972,0.009705,-0.992798,0.159786,0.386565,-0.115725,49,277,572,5184
1644157243.408632,-0.011047,0.010254,-0.993042,0.144519,0.401832,0.036947,58,274,569,5104
1644157243.456999,-0.012085,0.008972,-0.990723,0.266656,0.432366,-0.100458,49,277,577,5136
1644157243.505381,-0.009827,0.010559,-0.994263,0.236122,0.585038,0.052214,59,268,575,5136
1644157243.553778,-0.011292,0.008057,-0.991699,0.220855,0.585038,-0.069924,43,279,578,5200
1644157243.602202,-0.009033,0.008667,-0.991516,0.159786,0.447634,-0.024122,53,279,571,5200
1644157243.650577,-0.009521,0.010254,-0.992371,0.312458,0.371298,0.036947,54,268,572,5104
1644157243.698962,-0.009644,0.0047,-0.991882,0.159786,0.478168,-0.25313,47,270,575,5168
1644157243.747317,-0.012878,0.012878,-0.992371,0.434595,0.508702,-0.100458,49,273,563,5072
1644157243.795747,-0.013062,0.007751,-0.992188,0.220855,0.493435,-0.054656,47,282,570,5120
1644157243.844182,-0.010437,0.011597,-0.991821,0.35826,0.661374,-0.115725,49,273,577,5120
1644157243.892561,-0.012207,0.011108,-0.992188,0.236122,0.386565,-0.222595,52,280,577,5120
1644157243.940929,-0.011597,0.008972,-0.99231,0.175053,0.462901,-0.024122,49,268,572,5168
1644157243.98932,-0.011169,0.009155,-0.993408,0.205588,0.294962,-0.100458,49,265,579,5104
1644157244.037727,-0.011536,0.009155,-0.990662,0.266656,0.386565,-0.176794,45,273,575,5120
1644157244.090167,-0.009766,0.010132,-0.991211,0.251389,0.417099,-0.176794,55,276,569,5168
1644157244.134475,-0.010559,0.01123,-0.992493,0.190321,0.356031,-0.222595,52,270,579,5136
1644157244.183604,-0.011292,0.010315,-0.990723,0.129252,0.371298,0.036947,59,265,577,5184
1644157244.23392,-0.010498,0.007629,-0.990417,0.419328,0.447634,-0.054656,52,265,577,5168
1644157244.284037,-0.01355,0.010254,-0.992371,0.236122,0.340763,-0.14626,49,275,582,5168
1644157244.329081,-0.011292,0.008484,-0.990845,0.113985,0.554504,-0.14626,48,266,569,5136
1644157244.424855,-0.011841,0.007141,-0.991333,0.281924,0.600305,-0.222595,52,273,577,5072
1644157244.473175,-0.010437,0.008606,-0.990112,0.08345,0.417099,-0.008855,54,290,570,5120
1644157244.521561,-0.011963,0.009766,-0.992859,0.312458,0.554504,-0.115725,64,270,586,5136
1644157244.569921,-0.008423,0.009277,-0.99231,0.251389,0.554504,-0.085191,53,274,580,5120
1644157244.618328,-0.01123,0.009705,-0.992493,0.312458,0.401832,-0.100458,45,280,575,5072
1644157244.666704,-0.011475,0.00946,-0.98999,0.220855,0.447634,-0.130992,46,269,583,5104
1644157244.715132,-0.012024,0.008423,-0.991943,0.144519,0.478168,-0.222595,52,260,584,5200
1644157244.763501,-0.011169,0.010437,-0.990479,0.251389,0.493435,-0.024122,55,274,569,5120
1644157244.811892,-0.008301,0.012329,-0.98999,0.159786,0.478168,-0.069924,55,271,573,5072
1644157244.860315,-0.01178,0.009827,-0.989807,0.297191,0.386565,-0.069924,52,273,572,5104
1644157244.908701,-0.007019,0.008484,-0.990356,0.251389,0.432366,-0.024122,48,283,571,5184
1644157244.957076,-0.012085,0.00769,-0.99231,0.312458,0.432366,-0.207328,59,280,582,5120
1644157245.005449,-0.010986,0.011902,-0.993042,0.220855,0.447634,-0.054656,60,269,583,5168
1644157245.063127,-0.012146,0.00708,-0.991516,0.236122,0.539237,-0.069924,52,268,579,5184
1644157245.102297,-0.011108,0.008545,-0.990784,0.190321,0.462901,0.036947,49,273,579,5120
1644157245.150611,-0.013245,0.010132,-0.989319,0.113985,0.356031,-0.039389,57,277,575,5120
1644157245.198993,-0.012573,0.012939,-0.991211,0.297191,0.401832,-0.115725,59,270,584,5136
1644157245.247383,-0.013611,0.007935,-0.989624,0.220855,0.401832,-0.14626,43,264,573,5104
1644157245.295742,-0.010803,0.009399,-0.99054,0.175053,0.478168,-0.100458,49,258,577,5104
1644157245.344397,-0.011169,0.007019,-0.991028,0.144519,0.661374,-0.069924,42,273,572,5168
1644157245.395058,-0.010986,0.007141,-0.994934,0.175053,0.523969,0.021679,41,266,578,5104
1644157245.445145,-0.010803,0.01001,-0.989441,0.35826,0.462901,-0.039389,39,262,571,5168
1644157245.49035,-0.012085,0.010132,-0.994995,0.342992,0.325496,-0.115725,53,274,576,5120
1644157245.586077,-0.010315,0.009644,-0.991089,0.159786,0.432366,-0.115725,48,271,571,5120
1644157245.63448,-0.011475,0.012024,-0.991638,0.388794,0.462901,-0.069924,46,274,571,5136
1644157245.682881,-0.008362,0.010559,-0.992554,0.251389,0.493435,-0.115725,40,273,575,5104
1644157245.731267,-0.012939,0.010498,-0.990967,0.266656,0.539237,0.052214,49,280,579,5120
1644157245.779648,-0.010986,0.009216,-0.993103,0.404061,0.493435,-0.008855,54,275,565,5104
1644157245.828043,-0.009399,0.005676,-0.992249,0.251389,0.432366,-0.039389,59,277,575,5168
1644157245.876458,-0.011658,0.011963,-0.992249,0.297191,0.493435,-0.024122,42,282,570,5120
1644157245.924865,-0.011597,0.006775,-0.992432,0.35826,0.432366,-0.100458,45,265,570,5168
1644157245.973257,-0.01178,0.006592,-0.991089,0.236122,0.447634,-0.054656,45,280,577,5136
1644157246.021627,-0.009155,0.009949,-0.990906,0.08345,0.417099,-0.069924,49,263,570,5168
1644157246.086016,-0.009827,0.010254,-0.992126,0.373527,0.523969,0.036947,42,268,579,5168
1644157246.118423,-0.010376,0.01062,-0.993286,0.175053,0.554504,-0.207328,57,273,570,5136
1644157246.16676,-0.01062,0.01062,-0.992493,0.236122,0.462901,-0.192061,54,275,575,5024
1644157246.215968,-0.008911,0.007324,-0.991272,0.297191,0.432366,-0.130992,55,269,571,5184
1644157246.263521,-0.011719,0.010132,-0.989319,0.190321,0.478168,-0.100458,53,274,580,5120
1644157246.311921,-0.010437,0.007507,-0.993164,0.251389,0.447634,-0.008855,43,266,578,5136
1644157246.360292,-0.011475,0.013184,-0.991699,0.327725,0.371298,-0.039389,39,266,576,5168
1644157246.408688,-0.011902,0.009277,-0.991394,0.266656,0.310229,0.006412,51,279,578,5120
1644157246.457248,-0.013489,0.006714,-0.988831,0.220855,0.432366,-0.14626,43,266,580,5136
1644157246.507946,-0.011108,0.009888,-0.991516,0.205588,0.401832,-0.039389,53,283,583,5120
1644157246.557929,-0.01123,0.009399,-0.986877,0.312458,0.386565,-0.115725,45,270,575,5136
1644157246.603057,-0.013489,0.009338,-0.99115,0.35826,0.462901,-0.024122,55,274,571,5104
1644157246.699001,-0.010132,0.009277,-0.990051,0.404061,0.432366,-0.085191,54,268,572,5104
1644157246.747401,-0.01239,0.009216,-0.991577,0.281924,0.325496,-0.14626,54,275,577,5120
1644157246.795783,-0.009094,0.008606,-0.990845,0.220855,0.386565,-0.085191,45,270,579,5104
1644157246.844195,-0.011292,0.010071,-0.990723,0.220855,0.432366,0.021679,60,279,573,5200
1644157246.892622,-0.01062,0.01001,-0.991089,0.266656,0.371298,-0.069924,48,266,569,5072
1644157246.941017,-0.011047,0.006775,-0.990845,0.266656,0.401832,-0.024122,43,262,566,5104
1644157246.989392,-0.012451,0.009216,-0.990479,0.205588,0.447634,-0.039389,48,269,562,5168
1644157247.037798,-0.008423,0.011658,-0.989197,0.312458,0.356031,-0.207328,40,273,568,5120
1644157247.089933,-0.011841,0.009033,-0.988098,0.220855,0.523969,-0.130992,46,274,578,5120
1644157247.13455,-0.009888,0.009277,-0.988831,0.220855,0.386565,-0.054656,41,279,578,5136
1644157247.182928,-0.012695,0.008301,-0.990173,0.190321,0.417099,-0.222595,42,265,577,5120
1644157247.231298,-0.010925,0.010498,-0.993652,0.175053,0.523969,-0.085191,55,266,573,5024
1644157247.279666,-0.01062,0.010864,-0.990784,0.175053,0.417099,-0.130992,57,275,579,5200
1644157247.32806,-0.014221,0.005981,-0.99115,0.297191,0.417099,0.052214,60,269,585,5200
1644157247.376449,-0.007935,0.008484,-0.990417,0.175053,0.371298,0.052214,52,258,577,5200
1644157247.424847,-0.011292,0.009033,-0.991089,0.129252,0.417099,-0.130992,58,276,566,5168
1644157247.473233,-0.009888,0.010864,-0.989746,0.281924,0.386565,0.021679,59,270,577,5072
1644157247.52179,-0.011475,0.010376,-0.991882,0.281924,0.447634,-0.161527,49,277,570,5200
1644157247.570988,-0.011597,0.009521,-0.990295,0.220855,0.417099,0.021679,38,270,570,5200
1644157247.62132,-0.007202,0.010071,-0.989624,0.35826,0.478168,-0.115725,41,271,566,5072
1644157247.671596,-0.007446,0.010254,-0.991821,0.35826,0.432366,-0.039389,55,266,562,5120
1644157247.763598,-0.009521,0.006836,-0.99115,0.373527,0.432366,-0.25313,41,276,583,5072
1644157247.811941,-0.010559,0.008545,-0.992126,0.236122,0.691908,-0.069924,43,271,578,5120
1644157247.860328,-0.009888,0.013306,-0.989746,0.251389,0.432366,-0.115725,45,277,577,5104
1644157247.908763,-0.012268,0.009338,-0.990662,0.129252,0.401832,-0.085191,47,280,563,5104
1644157247.957148,-0.009216,0.007874,-0.991638,0.266656,0.325496,-0.069924,47,275,572,5136
1644157248.005531,-0.009644,0.007263,-0.990906,0.327725,0.478168,-0.161527,54,255,568,5200
1644157248.064232,-0.008789,0.011719,-0.990845,0.266656,0.447634,-0.268397,49,270,565,5120
1644157248.102283,-0.010925,0.007141,-0.994202,0.144519,0.569771,-0.100458,62,274,580,5184
1644157248.150718,-0.011963,0.013184,-0.992676,0.35826,0.447634,-0.176794,46,274,571,5136
1644157248.199098,-0.011963,0.00885,-0.993164,0.35826,0.523969,0.021679,55,276,562,5136
1644157248.247496,-0.010681,0.012451,-0.991638,0.404061,0.356031,-0.222595,54,265,565,5184
1644157248.295848,-0.009827,0.00708,-0.991699,0.251389,0.478168,-0.192061,46,262,573,5136
1644157248.344266,-0.010437,0.01062,-0.991089,0.373527,0.386565,0.082748,51,271,578,5168
1644157248.39266,-0.010132,0.010132,-0.990479,0.312458,0.554504,-0.085191,40,282,577,5104
1644157248.441013,-0.011719,0.010132,-0.995605,0.266656,0.371298,-0.054656,59,270,575,5056
1644157248.489451,-0.012756,0.009216,-0.992249,0.205588,0.417099,0.006412,43,276,576,5136
1644157248.537813,-0.009521,0.010254,-0.992798,0.175053,0.356031,-0.161527,48,274,578,5136
1644157248.586557,-0.010742,0.008301,-0.993896,0.159786,0.432366,-0.192061,46,276,573,5168
1644157248.634676,-0.010437,0.007263,-0.993408,0.251389,0.462901,-0.25313,51,271,573,5072
1644157248.684681,-0.010315,0.007446,-0.991394,0.342992,0.417099,-0.054656,57,277,575,5232
1644157248.734943,-0.011597,0.008545,-0.989807,0.312458,0.447634,-0.115725,54,270,568,5168
1644157248.784975,-0.008118,0.007935,-0.989563,0.236122,0.493435,-0.085191,49,277,570,5104
1644157248.829555,-0.009155,0.007629,-0.990784,0.327725,0.401832,-0.161527,51,274,573,5120
1644157248.924922,-0.00824,0.007324,-0.990967,0.220855,0.371298,0.006412,41,269,571,5184
1644157248.973318,-0.012817,0.008301,-0.991577,0.251389,0.523969,-0.237863,54,273,570,5136
1644157249.021694,-0.009705,0.009277,-0.990967,0.190321,0.493435,-0.024122,41,269,569,5120
1644157249.070157,-0.010925,0.00708,-0.991089,0.205588,0.447634,-0.207328,58,264,573,5184
1644157249.11896,-0.011963,0.008728,-0.990051,0.236122,0.523969,-0.069924,42,273,565,5168
1644157249.16681,-0.012756,0.010498,-0.991699,0.297191,0.447634,-0.115725,53,274,576,5232
1644157249.2152,-0.010132,0.008545,-0.991638,0.312458,0.462901,-0.039389,55,279,569,5136
1644157249.263602,-0.011719,0.007874,-0.990845,0.266656,0.447634,-0.161527,53,271,578,5184
1644157249.31198,-0.013367,0.009827,-0.991394,0.205588,0.493435,-0.115725,40,270,579,5168
1644157249.360381,-0.013306,0.00769,-0.994751,0.251389,0.386565,-0.054656,57,265,575,5104
1644157249.408761,-0.010925,0.006226,-0.991882,0.068183,0.462901,0.052214,48,266,576,5168
1644157249.457154,-0.011292,0.009888,-0.99115,0.159786,0.493435,-0.069924,41,269,566,5136
1644157249.505521,-0.010864,0.00946,-0.990479,0.312458,0.432366,-0.008855,47,270,570,5136
1644157249.553948,-0.012268,0.009277,-0.991699,0.281924,0.539237,0.143817,41,279,571,5168
1644157249.602325,-0.012451,0.007263,-0.992065,0.251389,0.264427,-0.161527,42,273,579,5184
1644157249.650706,-0.014893,0.010742,-0.990295,0.205588,0.340763,-0.039389,51,269,571,5104
1644157249.699093,-0.010864,0.008301,-0.990845,0.175053,0.523969,-0.130992,47,275,568,5136
1644157249.747442,-0.011597,0.008301,-0.990295,0.388794,0.310229,-0.25313,49,270,577,5136
1644157249.795931,-0.011597,0.00885,-0.99292,0.175053,0.523969,-0.130992,48,279,571,5168
1644157249.846144,-0.012939,0.010681,-0.990723,0.297191,0.523969,-0.024122,48,271,569,5168
1644157249.896,-0.009399,0.00946,-0.991882,0.236122,0.432366,-0.14626,39,279,569,5168
1644157249.946235,-0.009094,0.009155,-0.989807,0.281924,0.340763,-0.008855,53,269,583,5184
1644157249.990725,-0.008606,0.008118,-0.992493,0.35826,0.401832,0.036947,51,269,576,5200
1644157250.086709,-0.010254,0.007568,-0.992859,0.220855,0.447634,-0.069924,51,271,576,5104
1644157250.13483,-0.011963,0.009155,-0.990112,0.297191,0.356031,-0.161527,54,277,565,5184
1644157250.182984,-0.008789,0.009155,-0.992371,0.205588,0.447634,-0.237863,45,277,575,5168
1644157250.231342,-0.010559,0.008972,-0.99176,0.236122,0.386565,-0.176794,48,279,569,5136
1644157250.279726,-0.01178,0.007446,-0.991455,0.35826,0.371298,-0.054656,55,269,580,5136
1644157250.328131,-0.009338,0.010498,-0.991394,0.297191,0.432366,0.021679,40,270,577,5136
1644157250.376526,-0.00946,0.007751,-0.989929,0.175053,0.279695,-0.085191,57,277,575,5120
1644157250.424899,-0.010803,0.009277,-0.991882,0.342992,0.539237,-0.008855,51,276,569,5168
1644157250.473296,-0.011902,0.009766,-0.990295,0.144519,0.523969,-0.115725,48,283,580,5056
1644157250.521697,-0.010681,0.010498,-0.992371,0.434595,0.417099,-0.069924,47,270,575,5104
1644157250.57008,-0.010925,0.011475,-0.990723,0.388794,0.523969,-0.222595,57,270,572,5184
1644157250.618474,-0.010986,0.01001,-0.990906,0.251389,0.386565,-0.222595,47,282,575,5184
1644157250.666851,-0.011902,0.008545,-0.989319,0.205588,0.432366,-0.039389,48,274,583,5104
1644157250.715272,-0.013062,0.009155,-0.992432,0.129252,0.417099,-0.085191,48,281,580,5136
1644157250.763634,-0.010742,0.010925,-0.99408,0.373527,0.462901,-0.130992,49,275,570,5184
1644157250.812065,-0.010193,0.009399,-0.992371,0.404061,0.371298,-0.161527,57,268,579,5184
1644157250.860452,-0.010376,0.008362,-0.990173,0.205588,0.401832,0.021679,48,264,576,5120
1644157250.908842,-0.013062,0.008362,-0.991028,0.373527,0.554504,-0.100458,52,280,577,5168
1644157250.957238,-0.010437,0.009644,-0.990417,0.220855,0.508702,-0.054656,47,277,572,5168
1644157251.062797,-0.009399,0.009216,-0.991943,0.312458,0.508702,-0.130992,59,273,577,5168
1644157251.102425,-0.009888,0.009216,-0.991455,0.297191,0.401832,-0.024122,54,277,579,5184
1644157251.150726,-0.01062,0.007629,-0.990601,0.113985,0.432366,-0.268397,51,276,569,5200
1644157251.199098,-0.010864,0.01123,-0.993408,0.251389,0.493435,-0.115725,52,277,572,5136
1644157251.247484,-0.008423,0.008423,-0.993652,0.236122,0.478168,-0.14626,38,275,586,5072
1644157251.295865,-0.012024,0.010559,-0.992554,0.175053,0.493435,-0.085191,49,275,586,5136
1644157251.34429,-0.007507,0.010864,-0.990967,0.236122,0.493435,-0.085191,51,274,580,5184
1644157251.392695,-0.009521,0.008484,-0.992432,0.281924,0.478168,-0.039389,58,279,571,5136
1644157251.441064,-0.014404,0.00885,-0.990479,0.159786,0.386565,-0.024122,45,268,575,5136
1644157251.489479,-0.012207,0.006714,-0.990967,0.297191,0.447634,-0.115725,45,280,582,5168
1644157251.537843,-0.010315,0.00708,-0.993591,0.236122,0.417099,-0.161527,57,275,575,5200
1644157251.586224,-0.011292,0.008789,-0.99353,0.205588,0.539237,0.021679,55,274,576,5232
1644157251.634659,-0.012573,0.00708,-0.99469,0.281924,0.554504,-0.100458,66,273,586,5120
1644157251.683007,-0.009888,0.00885,-0.991333,0.266656,0.493435,0.006412,41,274,573,5120
1644157251.73171,-0.009644,0.009644,-0.992493,0.220855,0.401832,-0.161527,53,269,578,5072
1644157251.780665,-0.011353,0.008301,-0.991699,0.236122,0.371298,-0.039389,45,265,565,5200
1644157251.832083,-0.010925,0.007751,-0.99231,0.220855,0.401832,-0.115725,55,266,590,5120
1644157251.882001,-0.012573,0.009583,-0.990906,0.220855,0.356031,-0.100458,52,273,577,5120
1644157251.973433,-0.009033,0.009521,-0.99115,0.175053,0.371298,-0.024122,46,274,576,5104
1644157252.021761,-0.012756,0.008301,-0.989441,0.144519,0.554504,0.052214,47,270,561,5168
1644157252.071404,-0.008179,0.010803,-0.992737,0.190321,0.493435,-0.115725,47,277,584,5232
1644157252.118533,-0.012207,0.006653,-0.992615,0.129252,0.264427,0.052214,42,273,570,5168
1644157252.166874,-0.012268,0.009583,-0.992859,0.35826,0.523969,-0.130992,48,274,571,5184
1644157252.215257,-0.012878,0.011536,-0.993652,0.35826,0.554504,-0.085191,47,273,570,5184
1644157252.263665,-0.009155,0.010315,-0.989868,0.129252,0.356031,-0.192061,52,277,570,5104
1644157252.312029,-0.012085,0.008423,-0.991028,0.220855,0.539237,-0.069924,39,274,571,5136
1644157252.360435,-0.013977,0.010315,-0.991943,0.327725,0.401832,-0.054656,52,273,575,5136
1644157252.408824,-0.007446,0.00769,-0.99176,0.251389,0.539237,-0.100458,52,270,565,5168
1644157252.457219,-0.012146,0.009216,-0.990295,0.175053,0.554504,-0.115725,58,281,569,5120
1644157252.50561,-0.012756,0.011841,-0.989563,0.281924,0.386565,-0.085191,51,279,573,5168
1644157252.554011,-0.011597,0.007874,-0.990234,0.205588,0.432366,-0.115725,53,271,578,5168
1644157252.602399,-0.011047,0.009888,-0.990662,0.220855,0.600305,-0.115725,53,264,573,5120
1644157252.650763,-0.009827,0.007385,-0.992554,0.312458,0.371298,-0.085191,55,271,573,5104
1644157252.699147,-0.013245,0.008911,-0.989136,0.327725,0.401832,-0.115725,47,268,579,5136
1644157252.74755,-0.011475,0.011414,-0.990906,0.266656,0.462901,-0.008855,43,274,578,5184
1644157252.795924,-0.008972,0.007874,-0.991516,0.297191,0.523969,-0.115725,46,276,573,5200
1644157252.844759,-0.009888,0.006165,-0.990112,0.129252,0.478168,-0.039389,52,270,565,5104
1644157252.894659,-0.013794,0.010376,-0.989868,0.159786,0.447634,-0.054656,49,273,572,5104
1644157252.944814,-0.010925,0.009644,-0.992249,0.159786,0.432366,0.006412,49,270,575,5184
1644157252.994937,-0.010254,0.010986,-0.989563,0.297191,0.493435,-0.25313,51,274,583,5168
1644157253.039534,-0.01355,0.008484,-0.989929,0.236122,0.539237,-0.069924,45,268,565,5168
1644157253.134901,-0.008972,0.007935,-0.99408,0.266656,0.432366,-0.130992,49,273,577,5136
1644157253.183058,-0.010559,0.010986,-0.991943,0.342992,0.386565,0.052214,45,275,572,5136
1644157253.231419,-0.01178,0.00885,-0.992859,0.220855,0.462901,-0.069924,53,271,573,5168
1644157253.279809,-0.013367,0.005859,-0.991882,0.266656,0.325496,-0.008855,51,276,566,5120
1644157253.328195,-0.009216,0.010986,-0.988159,0.144519,0.401832,-0.054656,55,276,564,5104
1644157253.376587,-0.011719,0.007874,-0.990417,0.541466,0.310229,-0.054656,47,287,572,5168
1644157253.425014,-0.010132,0.006897,-0.990784,0.037649,0.478168,-0.161527,49,268,577,5072
1644157253.473364,-0.009583,0.010864,-0.991821,0.175053,0.417099,0.006412,55,274,583,5136
1644157253.521762,-0.00824,0.009033,-0.989502,0.327725,0.310229,-0.039389,46,262,578,5136
1644157253.570151,-0.012512,0.009216,-0.990723,0.068183,0.432366,-0.054656,48,269,569,5120
1644157253.618522,-0.012817,0.009827,-0.994507,0.220855,0.478168,-0.25313,52,280,565,5104
1644157253.666889,-0.008484,0.010376,-0.994263,0.190321,0.356031,-0.161527,53,291,580,5136
1644157253.715287,-0.010376,0.011658,-0.990051,0.281924,0.478168,-0.25313,59,265,582,5136
1644157253.763731,-0.008911,0.007446,-0.989929,0.297191,0.432366,-0.100458,55,271,587,5168
1644157253.812089,-0.012634,0.00946,-0.994873,0.251389,0.356031,-0.130992,61,273,575,5120
1644157253.86051,-0.010193,0.008484,-0.992737,0.327725,0.478168,-0.085191,46,264,578,5136
1644157253.908899,-0.011658,0.009277,-0.991821,0.236122,0.462901,-0.237863,54,275,577,5104
1644157253.957589,-0.011292,0.009094,-0.991394,0.251389,0.478168,0.006412,51,269,580,5168
1644157254.062944,-0.009399,0.009521,-0.989197,0.327725,0.356031,0.006412,52,277,579,5104
1644157254.102453,-0.009766,0.007874,-0.993835,0.113985,0.462901,-0.054656,39,269,583,5104
1644157254.150821,-0.010559,0.005737,-0.992126,0.35826,0.386565,-0.008855,62,279,576,5120
1644157254.199194,-0.012024,0.010437,-0.993225,0.297191,0.539237,-0.069924,53,274,578,5136
1644157254.247544,-0.011292,0.012024,-0.992737,0.373527,0.523969,-0.115725,47,273,582,5168
1644157254.295944,-0.011047,0.010071,-0.991577,0.281924,0.462901,-0.008855,52,270,568,5136
1644157254.344362,-0.011169,0.010315,-0.993652,0.327725,0.462901,0.036947,53,274,578,5072
1644157254.392767,-0.008667,0.006287,-0.992615,0.434595,0.447634,-0.161527,53,264,573,5136
1644157254.441134,-0.01062,0.013245,-0.991943,0.266656,0.417099,-0.207328,53,269,580,5136
1644157254.489559,-0.010803,0.007629,-0.990417,0.236122,0.401832,-0.115725,51,271,564,5120
1644157254.537893,-0.009766,0.009399,-0.992432,0.205588,0.432366,-0.115725,48,279,573,5136
1644157254.586295,-0.012512,0.010742,-0.992676,0.327725,0.493435,-0.054656,55,281,573,5120
1644157254.634691,-0.010559,0.010132,-0.992371,0.327725,0.523969,-0.130992,53,269,573,5120
1644157254.683114,-0.010559,0.010071,-0.992249,0.190321,0.325496,-0.085191,41,271,573,5184
1644157254.731795,-0.01123,0.008545,-0.990173,0.205588,0.371298,-0.024122,55,259,578,5072
1644157254.78081,-0.011536,0.010864,-0.990906,0.251389,0.432366,-0.054656,48,269,583,5136
1644157254.831279,-0.011475,0.009888,-0.991882,0.190321,0.417099,-0.115725,39,257,576,5104
1644157254.876678,-0.008667,0.010559,-0.988892,0.281924,0.493435,-0.115725,52,280,570,5104
1644157254.973478,-0.011719,0.010925,-0.99115,0.068183,0.462901,0.006412,48,279,583,5136
1644157255.021827,-0.01178,0.010742,-0.991699,0.388794,0.493435,-0.054656,51,274,580,5136
1644157255.070319,-0.011963,0.013916,-0.990723,0.175053,0.478168,0.021679,52,275,575,5184
1644157255.118558,-0.012634,0.008789,-0.987854,0.449863,0.447634,-0.100458,46,269,569,5136
1644157255.166935,-0.009644,0.010864,-0.992249,0.159786,0.325496,-0.069924,45,268,570,5136
1644157255.215336,-0.014221,0.008789,-0.990479,0.266656,0.356031,-0.115725,48,279,576,5168
1644157255.263727,-0.008606,0.009705,-0.992432,0.373527,0.554504,-0.192061,48,283,578,5104
1644157255.312175,-0.013,0.009705,-0.991272,0.312458,0.417099,-0.14626,53,281,571,5184
1644157255.360512,-0.013,0.007935,-0.992126,0.236122,0.447634,-0.008855,57,268,568,5136
1644157255.408901,-0.01123,0.010132,-0.991516,0.434595,0.462901,-0.008855,49,280,584,5104
1644157255.457287,-0.012573,0.007507,-0.991333,0.297191,0.508702,-0.25313,55,276,571,5184
1644157255.505677,-0.01123,0.011047,-0.99115,0.236122,0.432366,-0.237863,51,264,578,5104
1644157255.554073,-0.00946,0.01062,-0.994812,0.190321,0.462901,-0.176794,51,279,571,5136
1644157255.602467,-0.013123,0.008301,-0.992554,0.175053,0.371298,-0.14626,47,270,575,5168
1644157255.650825,-0.010132,0.006653,-0.994019,0.297191,0.539237,-0.207328,51,262,571,5120
1644157255.699232,-0.008423,0.010498,-0.99292,0.281924,0.386565,-0.192061,52,273,577,5120
1644157255.74761,-0.010376,0.009888,-0.991455,0.373527,0.432366,-0.207328,54,275,582,5104
1644157255.796052,-0.010681,0.008972,-0.993042,0.281924,0.478168,-0.161527,46,274,571,5120
1644157255.844525,-0.008911,0.00946,-0.993591,0.266656,0.432366,-0.192061,51,279,566,5200
1644157255.894159,-0.009827,0.011536,-0.989563,0.068183,0.462901,-0.100458,58,274,580,5200
1644157255.944358,-0.009155,0.009888,-0.990356,0.159786,0.447634,0.006412,49,273,577,5072
1644157255.994549,-0.009094,0.008057,-0.991516,0.236122,0.371298,0.113282,46,266,566,5184
1644157256.039115,-0.011414,0.010559,-0.990967,0.205588,0.508702,-0.008855,55,266,578,5104
1644157256.134857,-0.009399,0.008118,-0.98938,0.297191,0.371298,-0.069924,49,270,572,5168
1644157256.183112,-0.007507,0.006287,-0.990845,0.281924,0.386565,-0.161527,49,273,579,5120
1644157256.231478,-0.011047,0.009644,-0.990601,0.281924,0.356031,0.006412,53,279,573,5136
1644157256.279857,-0.011658,0.010315,-0.990234,0.068183,0.356031,-0.161527,55,283,578,5120
1644157256.328265,-0.008545,0.010925,-0.99115,0.327725,0.554504,-0.085191,55,271,569,5136
1644157256.376651,-0.011536,0.008301,-0.990051,0.175053,0.508702,-0.085191,54,275,577,5168
1644157256.425076,-0.010559,0.011475,-0.991394,0.342992,0.462901,-0.069924,49,275,579,5104
1644157256.473441,-0.012878,0.006897,-0.990662,0.388794,0.508702,-0.085191,45,277,584,5120
1644157256.521829,-0.012817,0.007874,-0.990662,0.175053,0.462901,-0.039389,51,269,578,5136
1644157256.570208,-0.009521,0.009033,-0.992676,0.373527,0.340763,-0.176794,57,275,565,5104
1644157256.618596,-0.010864,0.00946,-0.99115,0.266656,0.325496,-0.085191,48,266,583,5136
1644157256.666986,-0.012756,0.006897,-0.991882,0.220855,0.523969,-0.298931,59,277,577,5072
1644157256.715379,-0.012756,0.007874,-0.993896,0.220855,0.569771,-0.085191,49,270,577,5200
1644157256.763745,-0.009644,0.008545,-0.994995,0.236122,0.539237,-0.085191,43,279,578,5104
1644157256.812258,-0.010803,0.009033,-0.988892,0.297191,0.508702,0.052214,48,276,576,5072
1644157256.860583,-0.010376,0.011108,-0.991394,0.342992,0.417099,-0.192061,48,279,569,5136
1644157256.908962,-0.012024,0.007568,-0.991882,0.327725,0.523969,-0.100458,60,262,573,5136
1644157256.957396,-0.010925,0.009338,-0.992188,0.159786,0.356031,0.006412,46,269,578,5200
1644157257.062031,-0.010864,0.008484,-0.98938,0.129252,0.417099,-0.176794,51,279,571,5104
1644157257.102478,-0.009033,0.009033,-0.99054,0.236122,0.340763,-0.085191,61,270,582,5184
1644157257.150864,-0.011719,0.009521,-0.987671,0.419328,0.386565,-0.100458,46,274,578,5120
1644157257.19925,-0.011292,0.010376,-0.992188,0.373527,0.462901,-0.039389,49,280,565,5072
1644157257.24762,-0.010986,0.009277,-0.993469,0.373527,0.462901,0.098015,42,275,570,5072
1644157257.296017,-0.010742,0.009888,-0.990906,0.35826,0.371298,-0.130992,49,273,568,5136
1644157257.344429,-0.011963,0.008789,-0.990723,0.266656,0.386565,-0.222595,45,265,570,5120
1644157257.392791,-0.008301,0.01001,-0.993103,0.205588,0.478168,-0.085191,54,268,584,5168
1644157257.441194,-0.011536,0.010315,-0.992065,0.281924,0.325496,-0.130992,60,271,576,5168
1644157257.489607,-0.00946,0.011047,-0.990479,0.220855,0.523969,-0.130992,45,280,582,5104
1644157257.537968,-0.008606,0.012451,-0.989014,0.190321,0.294962,-0.069924,54,273,589,5168
1644157257.586349,-0.006226,0.010986,-0.990479,0.144519,0.432366,-0.115725,47,277,582,5120
1644157257.634752,-0.011414,0.00769,-0.990173,0.266656,0.325496,0.036947,55,266,580,5136
1644157257.68315,-0.010437,0.01123,-0.992004,0.388794,0.401832,-0.024122,52,275,579,5184
1644157257.731539,-0.010315,0.010559,-0.989258,0.312458,0.310229,0.021679,49,275,575,5072
1644157257.780021,-0.008057,0.00946,-0.990051,0.113985,0.508702,-0.237863,51,274,566,5136
1644157257.831278,-0.009827,0.010681,-0.990906,0.205588,0.447634,0.052214,52,263,584,5136
1644157257.881679,-0.012512,0.012329,-0.991394,0.251389,0.554504,-0.14626,55,274,576,5168
1644157257.926388,-0.009766,0.00885,-0.991455,0.251389,0.539237,-0.039389,47,273,579,5072
1644157258.021863,-0.013428,0.010254,-0.989746,0.434595,0.508702,-0.283664,45,270,579,5200
1644157258.070416,-0.008423,0.009521,-0.991577,0.205588,0.310229,-0.25313,49,270,586,5072
1644157258.118702,-0.009766,0.010559,-0.990601,0.190321,0.523969,0.036947,38,282,575,5072
1644157258.167013,-0.011047,0.011963,-0.991272,0.312458,0.447634,-0.039389,46,274,578,5200
1644157258.215407,-0.010986,0.012024,-0.99054,0.205588,0.462901,-0.024122,54,268,575,5136
1644157258.263805,-0.00885,0.00708,-0.993286,0.251389,0.462901,-0.069924,48,274,573,5136
1644157258.312205,-0.010864,0.008606,-0.992371,0.266656,0.447634,-0.176794,45,280,579,5168
1644157258.360576,-0.010254,0.008362,-0.992188,0.175053,0.356031,-0.100458,51,269,578,5136
1644157258.408962,-0.012817,0.008423,-0.994019,0.266656,0.447634,-0.222595,51,264,583,5136
1644157258.457344,-0.008911,0.008606,-0.992004,0.251389,0.401832,0.006412,61,273,575,5168
1644157258.505729,-0.010986,0.007263,-0.993591,0.281924,0.447634,-0.024122,46,281,576,5168
1644157258.554161,-0.010254,0.008606,-0.990845,0.08345,0.523969,-0.054656,47,270,577,5200
1644157258.602525,-0.008911,0.00885,-0.991089,0.281924,0.569771,-0.024122,54,268,577,5184
1644157258.650864,-0.010254,0.009583,-0.991577,0.251389,0.523969,-0.085191,61,275,584,5168
1644157258.699288,-0.010437,0.010864,-0.990906,0.297191,0.508702,-0.085191,48,281,573,5120
1644157258.747684,-0.009705,0.013123,-0.99054,0.129252,0.478168,-0.161527,57,268,572,5120
1644157258.796063,-0.011108,0.009888,-0.990845,0.388794,0.478168,0.036947,45,275,582,5104
1644157258.844765,-0.010071,0.012695,-0.990906,0.266656,0.386565,-0.054656,42,265,568,5104
1644157258.89497,-0.011536,0.011047,-0.990356,0.068183,0.539237,0.006412,49,268,572,5120
1644157258.9447,-0.012817,0.012512,-0.990662,0.266656,0.462901,0.052214,51,269,573,5136
1644157258.994755,-0.010315,0.009399,-0.99176,0.205588,0.508702,0.006412,52,287,570,5072
1644157259.03916,-0.010986,0.009949,-0.98938,0.266656,0.615573,-0.176794,55,274,573,5120
1644157259.134895,-0.009094,0.010803,-0.992554,0.205588,0.401832,0.082748,46,274,569,5136
1644157259.18319,-0.012939,0.008545,-0.991028,0.404061,0.325496,-0.054656,42,275,572,5168
1644157259.23156,-0.009949,0.012146,-0.989807,0.373527,0.523969,0.052214,46,271,569,5184
1644157259.279914,-0.012817,0.008545,-0.988281,0.281924,0.478168,-0.14626,54,273,577,5184
1644157259.328338,-0.010986,0.009033,-0.989319,0.175053,0.646107,-0.100458,51,281,569,5104
1644157259.376716,-0.012939,0.011108,-0.992065,0.175053,0.508702,0.036947,48,274,583,5136
1644157259.425149,-0.009644,0.010315,-0.992554,0.251389,0.554504,-0.115725,35,273,570,5168
1644157259.473497,-0.009766,0.008545,-0.990906,0.281924,0.401832,0.021679,40,275,577,5136
1644157259.521893,-0.011292,0.010071,-0.989136,0.144519,0.310229,-0.192061,58,271,573,5136
1644157259.570281,-0.011597,0.009888,-0.992859,0.129252,0.554504,0.098015,52,268,577,5104
1644157259.618669,-0.012085,0.008423,-0.990906,0.159786,0.432366,0.006412,49,270,572,5120
1644157259.667059,-0.009338,0.008362,-0.991028,0.113985,0.264427,-0.161527,49,270,572,5168
1644157259.715446,-0.008606,0.012024,-0.992126,0.281924,0.493435,-0.039389,54,275,565,5136
1644157259.763827,-0.009644,0.009338,-0.989624,0.281924,0.493435,-0.008855,38,275,584,5168
1644157259.812236,-0.01001,0.009827,-0.990356,0.190321,0.417099,-0.161527,55,274,571,5136
1644157259.860645,-0.010498,0.01123,-0.992737,0.281924,0.386565,-0.25313,48,269,580,5200
1644157259.909,-0.012695,0.01178,-0.991638,0.388794,0.493435,-0.130992,43,269,580,5120
1644157259.957566,-0.011475,0.010254,-0.993713,0.144519,0.356031,-0.039389,51,274,578,5104
1644157260.065291,-0.006775,0.010925,-0.989136,0.159786,0.401832,-0.176794,46,274,573,5104
1644157260.102593,-0.009705,0.010193,-0.991394,0.205588,0.523969,-0.054656,43,283,573,5120
1644157260.150944,-0.012207,0.010864,-0.990417,0.251389,0.401832,-0.207328,46,271,573,5136
1644157260.199325,-0.011414,0.009033,-0.990356,0.281924,0.279695,-0.115725,46,276,578,5120
1644157260.247678,-0.010193,0.012085,-0.993225,0.419328,0.386565,0.006412,49,273,568,5168
1644157260.296102,-0.010437,0.010925,-0.989868,0.068183,0.294962,-0.130992,49,273,575,5136
1644157260.344496,-0.010376,0.010315,-0.991516,0.129252,0.401832,-0.130992,39,279,580,5200
1644157260.392867,-0.010925,0.010559,-0.992737,0.327725,0.386565,-0.237863,45,273,568,5136
1644157260.441257,-0.011353,0.01123,-0.99115,0.236122,0.447634,-0.024122,42,280,572,5168
1644157260.489673,-0.011108,0.011963,-0.990234,0.297191,0.401832,-0.176794,48,269,578,5184
1644157260.538004,-0.01178,0.010132,-0.990723,0.342992,0.493435,-0.054656,47,270,582,5120
1644157260.586425,-0.009399,0.011108,-0.990784,0.281924,0.294962,0.082748,53,281,576,5104
1644157260.634829,-0.012634,0.007507,-0.991943,0.281924,0.523969,-0.192061,48,274,587,5120
1644157260.683223,-0.008972,0.007446,-0.994263,0.205588,0.432366,-0.176794,45,273,577,5136
1644157260.732777,-0.011902,0.009094,-0.99408,0.220855,0.493435,0.006412,46,274,580,5120
1644157260.783048,-0.006531,0.010986,-0.991882,0.220855,0.340763,-0.161527,43,279,569,5168
1644157260.833391,-0.009155,0.012756,-0.992859,0.281924,0.493435,-0.069924,41,269,580,5136
1644157260.925392,-0.010803,0.009094,-0.992371,0.251389,0.432366,-0.314198,45,268,575,5232
1644157260.973544,-0.006714,0.010559,-0.990479,0.236122,0.279695,-0.176794,47,277,579,5168
1644157261.021967,-0.011719,0.009338,-0.990295,0.220855,0.310229,0.006412,55,274,573,5136
1644157261.071044,-0.012268,0.00946,-0.992126,0.388794,0.371298,-0.054656,49,265,575,5120
1644157261.118726,-0.009216,0.009583,-0.992004,0.297191,0.478168,-0.161527,52,277,575,5104
1644157261.167093,-0.009644,0.009033,-0.989685,0.175053,0.417099,-0.024122,52,273,575,5200
1644157261.215502,-0.012024,0.007751,-0.993469,0.251389,0.447634,-0.115725,54,275,572,5104
1644157261.263887,-0.010498,0.010681,-0.99231,0.190321,0.401832,-0.161527,43,271,571,5168
1644157261.312299,-0.00885,0.009521,-0.992676,0.281924,0.386565,-0.069924,47,273,575,5104
1644157261.360666,-0.010193,0.009583,-0.994812,0.419328,0.417099,-0.039389,55,269,571,5136
1644157261.409032,-0.012512,0.007751,-0.99176,0.266656,0.447634,-0.008855,51,274,583,5120
1644157261.457443,-0.00769,0.009644,-0.994324,0.327725,0.523969,-0.130992,47,273,570,5104
1644157261.505815,-0.006775,0.011719,-0.990906,0.129252,0.478168,-0.25313,54,270,570,5184
1644157261.55423,-0.006775,0.009583,-0.991516,0.068183,0.356031,-0.085191,54,268,584,5136
1644157261.602632,-0.009705,0.009094,-0.992371,0.419328,0.508702,0.052214,47,275,584,5104
1644157261.650996,-0.009094,0.009521,-0.990845,0.35826,0.386565,-0.069924,46,279,569,5168
1644157261.699394,-0.008301,0.008606,-0.992371,0.220855,0.386565,-0.085191,51,274,573,5168
1644157261.747768,-0.007202,0.011658,-0.990967,0.144519,0.340763,-0.024122,53,279,573,5104
1644157261.797229,-0.008972,0.009766,-0.990173,0.373527,0.310229,-0.008855,49,277,577,5120
1644157261.847096,-0.009521,0.009949,-0.991089,0.205588,0.600305,-0.207328,60,279,583,5120
1644157261.897477,-0.009338,0.00946,-0.992615,0.236122,0.386565,-0.207328,52,270,577,5200
1644157261.942189,-0.009155,0.01178,-0.993774,0.35826,0.386565,-0.161527,46,271,580,5200
1644157262.038111,-0.007263,0.009766,-0.992188,0.190321,0.462901,-0.100458,49,275,575,5136
1644157262.087205,-0.011292,0.008484,-0.992737,0.281924,0.417099,-0.14626,54,273,584,5232
1644157262.134851,-0.009949,0.011841,-0.988159,0.190321,0.279695,-0.039389,47,277,570,5056
1644157262.183247,-0.011108,0.006409,-0.990967,0.190321,0.691908,-0.008855,51,274,580,5072
1644157262.231625,-0.007935,0.01001,-0.989319,0.373527,0.432366,-0.176794,55,269,569,5072
1644157262.279987,-0.010559,0.012451,-0.990723,0.175053,0.447634,0.052214,39,276,569,5232
1644157262.328391,-0.009705,0.011292,-0.992859,0.113985,0.432366,-0.130992,55,266,576,5136
1644157262.376784,-0.009644,0.009155,-0.992615,0.312458,0.462901,-0.039389,49,268,563,5120
1644157262.425336,-0.011047,0.007751,-0.993774,0.35826,0.447634,-0.207328,48,264,573,5120
1644157262.473568,-0.009949,0.011658,-0.990234,0.220855,0.432366,0.052214,67,274,573,5104
1644157262.521928,-0.011658,0.008057,-0.993042,0.144519,0.294962,-0.192061,53,279,580,5168
1644157262.570338,-0.012695,0.010254,-0.989746,0.144519,0.401832,0.006412,58,274,566,5120
1644157262.618726,-0.009216,0.006775,-0.993408,0.35826,0.508702,-0.207328,55,271,573,5120
1644157262.66712,-0.012207,0.008545,-0.992798,0.281924,0.386565,-0.115725,53,283,585,5104
1644157262.715501,-0.008301,0.007629,-0.991516,0.052916,0.447634,-0.100458,48,269,578,5136
1644157262.763891,-0.009888,0.00824,-0.990356,0.281924,0.523969,-0.100458,45,277,572,5104
1644157262.812345,-0.010864,0.008057,-0.99469,0.266656,0.401832,-0.222595,52,270,577,5120
1644157262.860719,-0.011047,0.012512,-0.990173,0.236122,0.493435,-0.008855,54,270,572,5120
1644157262.911968,-0.010071,0.007446,-0.990417,0.312458,0.569771,-0.069924,47,270,568,5168
1644157262.961045,-0.008118,0.010132,-0.991821,0.190321,0.371298,-0.222595,45,273,570,5184
1644157263.06321,-0.011353,0.011047,-0.990967,0.266656,0.417099,0.006412,45,273,575,5200
1644157263.102616,-0.009155,0.009094,-0.993225,0.373527,0.600305,-0.115725,48,274,573,5136
1644157263.150997,-0.010864,0.007874,-0.989136,0.022382,0.386565,-0.039389,49,273,572,5120
1644157263.199383,-0.007141,0.008972,-0.99176,0.113985,0.340763,-0.14626,48,274,571,5168
1644157263.247763,-0.011475,0.010193,-0.991577,0.220855,0.508702,-0.192061,43,283,576,5184
1644157263.296145,-0.010559,0.010315,-0.991394,0.236122,0.508702,-0.039389,51,269,569,5072
1644157263.344634,-0.010986,0.010986,-0.99353,0.266656,0.356031,-0.25313,51,271,573,5136
1644157263.39295,-0.012146,0.010437,-0.990662,0.129252,0.386565,-0.039389,54,282,586,5168
1644157263.441325,-0.01062,0.009277,-0.99231,0.266656,0.462901,-0.024122,46,271,571,5168
1644157263.489733,-0.010315,0.009399,-0.99292,0.190321,0.462901,-0.14626,53,264,573,5104
1644157263.538079,-0.008728,0.012817,-0.99115,0.175053,0.356031,-0.161527,55,264,571,5120
1644157263.586493,-0.009766,0.00885,-0.990295,0.35826,0.386565,0.021679,53,271,576,5072
1644157263.63489,-0.01178,0.010986,-0.989197,0.251389,0.508702,-0.222595,45,265,575,5200
1644157263.683246,-0.009888,0.010376,-0.990112,0.312458,0.340763,0.021679,60,264,573,5136
1644157263.73199,-0.009521,0.010742,-0.990417,0.113985,0.508702,-0.222595,43,271,580,5104
1644157263.78094,-0.00885,0.012939,-0.990295,0.281924,0.371298,-0.024122,58,252,580,5136
1644157263.832454,-0.009155,0.008179,-0.987915,0.297191,0.386565,-0.115725,55,274,576,5104
1644157263.877114,-0.012878,0.009094,-0.99292,0.236122,0.462901,-0.115725,51,274,571,5200
1644157263.973685,-0.011841,0.01355,-0.990723,0.220855,0.493435,-0.085191,52,265,572,5056
1644157264.02203,-0.012329,0.010681,-0.993652,0.297191,0.325496,-0.024122,55,276,569,5120
1644157264.070491,-0.012329,0.007935,-0.990845,0.342992,0.417099,-0.039389,48,269,580,5120
1644157264.118808,-0.013611,0.01123,-0.993469,0.404061,0.401832,-0.039389,45,265,572,5168
1644157264.167153,-0.012695,0.008972,-0.990234,0.175053,0.478168,-0.054656,46,279,578,5168
1644157264.216574,-0.010986,0.010803,-0.992432,0.327725,0.447634,-0.085191,41,276,573,5136
1644157264.263939,-0.013306,0.007568,-0.993347,0.342992,0.264427,0.082748,51,264,569,5232
1644157264.312303,-0.011108,0.011169,-0.991333,0.129252,0.447634,-0.222595,49,273,565,5104
1644157264.360704,-0.012939,0.004822,-0.99054,0.251389,0.447634,-0.069924,54,270,579,5072
1644157264.40909,-0.010376,0.011047,-0.991943,0.266656,0.386565,0.052214,55,276,564,5232
1644157264.457465,-0.009338,0.009888,-0.992126,0.190321,0.539237,-0.161527,46,279,569,5104
1644157264.505872,-0.012512,0.010742,-0.990784,0.129252,0.386565,-0.069924,53,274,571,5136
1644157264.554288,-0.008301,0.011353,-0.991577,0.129252,0.386565,-0.039389,41,269,559,5184
1644157264.60266,-0.01062,0.007812,-0.991333,0.404061,0.462901,-0.130992,48,274,580,5136
1644157264.651024,-0.008911,0.009399,-0.990784,0.159786,0.386565,-0.130992,51,271,571,5184
1644157264.699425,-0.010132,0.010742,-0.992188,0.205588,0.523969,-0.085191,48,271,585,5120
1644157264.747808,-0.013672,0.008362,-0.992493,0.159786,0.401832,-0.039389,51,286,580,5104
1644157264.796188,-0.01239,0.008972,-0.993164,0.08345,0.508702,-0.085191,39,269,573,5120
1644157264.844883,-0.014038,0.008911,-0.991882,0.236122,0.447634,-0.222595,45,268,568,5120
1644157264.894767,-0.009521,0.008057,-0.99176,0.205588,0.615573,-0.130992,48,274,583,5168
1644157264.944834,-0.009705,0.00946,-0.990845,0.052916,0.462901,-0.176794,55,274,583,5184
1644157264.995132,-0.009949,0.006409,-0.993164,0.220855,0.432366,-0.100458,40,270,570,5168
1644157265.088623,-0.013184,0.009338,-0.992432,0.236122,0.462901,-0.085191,51,269,569,5168
1644157265.134938,-0.010742,0.007812,-0.991089,0.205588,0.539237,-0.085191,55,271,573,5200
1644157265.18331,-0.010315,0.009399,-0.99231,0.251389,0.432366,-0.130992,52,270,570,5072
1644157265.2317,-0.009644,0.007019,-0.994019,0.159786,0.417099,-0.069924,39,269,578,5104
1644157265.280076,-0.009155,0.009155,-0.994629,0.190321,0.401832,-0.054656,47,282,572,5136
1644157265.328467,-0.01123,0.011108,-0.992188,0.266656,0.508702,-0.130992,38,277,577,5168
1644157265.376848,-0.008972,0.009338,-0.991699,0.266656,0.371298,-0.176794,52,277,579,5120
1644157265.425291,-0.013245,0.008789,-0.992065,0.098718,0.340763,-0.192061,53,274,571,5248
1644157265.473649,-0.01123,0.009827,-0.99176,0.205588,0.401832,-0.085191,45,285,577,5120
1644157265.522026,-0.009766,0.009521,-0.992371,0.205588,0.508702,-0.039389,48,271,566,5200
1644157265.570425,-0.012451,0.009888,-0.992188,0.159786,0.386565,-0.192061,53,281,576,5200
1644157265.618802,-0.011353,0.009949,-0.991455,0.175053,0.615573,-0.115725,47,265,572,5168
1644157265.667194,-0.011658,0.01123,-0.993286,0.159786,0.615573,0.036947,57,273,575,5168
1644157265.715569,-0.010437,0.008789,-0.994324,0.297191,0.386565,-0.069924,59,273,582,5168
1644157265.763964,-0.01239,0.009033,-0.991455,0.220855,0.371298,-0.115725,51,281,578,5168
1644157265.812358,-0.010254,0.010681,-0.99353,0.342992,0.371298,-0.222595,45,273,582,5184
1644157265.86093,-0.008423,0.009949,-0.992737,0.342992,0.523969,-0.024122,52,270,575,5120
1644157265.910808,-0.012573,0.008057,-0.991211,0.205588,0.478168,-0.14626,48,269,576,5120
1644157265.96049,-0.012268,0.011108,-0.98938,0.297191,0.447634,-0.192061,57,273,582,5120
1644157266.062618,-0.011108,0.009155,-0.98938,0.281924,0.401832,-0.14626,49,273,577,5168
1644157266.102721,-0.007629,0.009399,-0.993347,0.312458,0.356031,-0.176794,48,286,576,5136
1644157266.151078,-0.010498,0.009583,-0.989807,0.144519,0.569771,-0.008855,49,273,575,5168
1644157266.199443,-0.009827,0.010071,-0.991455,0.251389,0.478168,-0.069924,46,264,576,5120
1644157266.247817,-0.012695,0.011047,-0.994873,0.266656,0.462901,-0.024122,48,274,571,5120
1644157266.296218,-0.009338,0.01123,-0.99231,0.342992,0.340763,-0.024122,49,270,577,5168
1644157266.344706,-0.01123,0.011902,-0.989685,0.129252,0.401832,-0.054656,41,283,580,5136
1644157266.393026,-0.012756,0.006531,-0.991943,0.175053,0.462901,-0.25313,53,271,569,5200
1644157266.441386,-0.008057,0.007751,-0.991211,0.251389,0.356031,-0.130992,58,269,573,5024
1644157266.489805,-0.010437,0.008972,-0.989563,0.449863,0.508702,-0.069924,49,277,575,5168
1644157266.538172,-0.012878,0.011169,-0.988953,0.251389,0.462901,-0.161527,52,270,579,5120
1644157266.58656,-0.008911,0.011658,-0.991821,0.236122,0.417099,-0.100458,51,266,576,5168
1644157266.63499,-0.010376,0.007751,-0.992676,0.327725,0.462901,-0.176794,58,283,587,5104
1644157266.683337,-0.012634,0.005249,-0.992371,0.159786,0.325496,-0.024122,54,265,570,5104
1644157266.731709,-0.013,0.011047,-0.993408,0.190321,0.447634,-0.14626,45,265,582,5232
1644157266.780452,-0.013123,0.008972,-0.991943,0.251389,0.462901,-0.130992,51,279,573,5120
1644157266.831271,-0.011169,0.009949,-0.993835,0.144519,0.371298,-0.283664,58,271,566,5168
1644157266.88254,-0.01416,0.008301,-0.991455,0.404061,0.462901,-0.115725,48,276,585,5120
1644157266.926883,-0.012756,0.007812,-0.989929,0.388794,0.371298,-0.115725,51,269,576,5200
1644157267.022075,-0.011963,0.01062,-0.991394,0.35826,0.569771,-0.069924,49,270,575,5104
1644157267.070578,-0.008057,0.007996,-0.988586,0.266656,0.478168,-0.100458,41,276,578,5072
1644157267.118831,-0.010193,0.010803,-0.991089,0.190321,0.478168,-0.008855,46,279,573,5136
1644157267.167209,-0.010986,0.00885,-0.991028,0.297191,0.554504,0.006412,51,276,564,5136
1644157267.215601,-0.011108,0.010376,-0.992676,0.373527,0.508702,-0.069924,53,266,578,5136
1644157267.263989,-0.010132,0.010803,-0.991394,0.159786,0.508702,-0.039389,48,281,573,5120
1644157267.312392,-0.011414,0.011292,-0.989685,0.297191,0.539237,-0.069924,42,275,570,5120
1644157267.36077,-0.012451,0.008057,-0.99176,0.190321,0.417099,-0.14626,58,274,573,5104
1644157267.409159,-0.011536,0.008057,-0.993103,0.144519,0.386565,-0.069924,52,280,577,5120
