epoch,acc_x,acc_y,acc_z,rot_x,rot_y,rot_z,mag_x,mag_y,mag_z,temp
1644167700.012495,-0.009094,0.011963,-0.990417,0.327725,0.386565,-0.069924,52,270,577,5696
1644167700.063533,-0.007263,0.009155,-0.991516,0.190321,0.432366,-0.039389,54,277,579,5584
1644167700.10922,-0.007385,0.010559,-0.990112,0.251389,0.447634,0.12855,52,285,577,5600
1644167700.157621,-0.010498,0.011597,-0.993042,0.052916,0.417099,0.006412,60,283,578,5664
1644167700.206045,-0.010071,0.008606,-0.993591,0.434595,0.356031,-0.192061,60,276,576,5664
1644167700.254423,-0.010254,0.01001,-0.98999,0.190321,0.462901,-0.085191,45,270,572,5632
1644167700.302824,-0.007568,0.008606,-0.99176,0.08345,0.432366,-0.130992,48,276,580,5600
1644167700.351211,-0.009094,0.01062,-0.990784,0.327725,0.325496,-0.085191,47,268,586,5632
1644167700.399597,-0.010071,0.011902,-0.992371,0.129252,0.478168,-0.14626,49,277,572,5584
1644167700.447995,-0.009033,0.005127,-0.991516,0.220855,0.493435,-0.085191,46,276,576,5664
1644167700.496384,-0.009338,0.010742,-0.990845,0.113985,0.417099,-0.039389,60,271,580,5664
1644167700.545155,-0.010315,0.01178,-0.990234,0.297191,0.340763,-0.130992,49,268,579,5648
1644167700.593175,-0.010254,0.008606,-0.990723,0.327725,0.356031,-0.222595,60,281,578,5696
1644167700.643422,-0.01001,0.010864,-0.990234,0.312458,0.340763,-0.115725,49,273,570,5664
1644167700.69353,-0.00885,0.011108,-0.991699,0.327725,0.356031,-0.192061,68,277,582,5696
1644167700.743723,-0.009705,0.009766,-0.990845,0.297191,0.447634,-0.054656,59,277,579,5648
1644167700.788557,-0.00885,0.01239,-0.986511,0.297191,0.356031,0.082748,48,281,569,5696
1644167700.883515,-0.00647,0.010986,-0.99054,0.022382,0.478168,-0.024122,46,274,573,5648
1644167700.931884,-0.009399,0.011719,-0.991028,0.312458,0.523969,-0.130992,60,286,576,5712
1644167700.980275,-0.007874,0.009521,-0.991211,0.312458,0.417099,-0.130992,49,277,575,5712
1644167701.028669,-0.008057,0.01062,-0.990601,0.205588,0.401832,-0.115725,51,276,578,5632
1644167701.077166,-0.011963,0.008545,-0.991882,0.144519,0.462901,-0.054656,60,271,580,5664
1644167701.125395,-0.00885,0.008606,-0.990112,0.220855,0.523969,-0.237863,40,270,572,5648
1644167701.173804,-0.007874,0.010132,-0.991272,0.220855,0.462901,-0.14626,55,269,571,5584
1644167701.222214,-0.011475,0.010864,-0.99231,0.236122,0.554504,-0.008855,53,274,585,5632
1644167701.270572,-0.009949,0.012207,-0.994446,0.266656,0.386565,0.006412,43,281,571,5600
1644167701.31898,-0.008362,0.01123,-0.990784,0.251389,0.447634,-0.085191,42,273,575,5600
1644167701.367367,-0.010254,0.006592,-0.991638,0.236122,0.24916,0.006412,46,281,583,5648
1644167701.415763,-0.009033,0.009949,-0.992493,0.297191,0.356031,-0.085191,55,271,578,5584
1644167701.464162,-0.009949,0.012878,-0.989746,0.297191,0.356031,0.021679,49,273,570,5648
1644167701.512532,-0.007324,0.01062,-0.991455,0.175053,0.310229,-0.176794,43,279,587,5712
1644167701.560925,-0.009827,0.011658,-0.992432,0.281924,0.279695,-0.024122,59,273,582,5648
1644167701.60932,-0.009399,0.008423,-0.990723,0.175053,0.279695,-0.176794,45,265,586,5664
1644167701.657724,-0.01062,0.013672,-0.989258,0.220855,0.417099,-0.085191,52,277,575,5648
1644167701.706105,-0.009216,0.01001,-0.9953,0.236122,0.432366,-0.100458,41,283,585,5696
1644167701.7547,-0.011353,0.009583,-0.991089,0.35826,0.356031,-0.161527,52,268,582,5600
1644167701.805078,-0.009888,0.008484,-0.994812,0.220855,0.386565,-0.069924,58,276,576,5648
1644167701.854957,-0.00592,0.00885,-0.992493,0.220855,0.447634,-0.024122,52,270,579,5584
1644167701.905234,-0.012329,0.011597,-0.993286,0.190321,0.325496,0.082748,51,271,578,5664
1644167701.996953,-0.010437,0.008728,-0.993286,0.236122,0.447634,0.036947,48,279,583,5712
1644167702.060627,-0.011292,0.008728,-0.991882,0.266656,0.310229,-0.024122,58,269,566,5584
1644167702.093622,-0.009216,0.009705,-0.992432,0.159786,0.417099,-0.069924,43,276,580,5632
1644167702.141624,-0.01123,0.008728,-0.990356,0.159786,0.478168,-0.024122,47,268,589,5552
1644167702.189998,-0.009705,0.009888,-0.99353,0.297191,0.462901,-0.14626,46,269,578,5584
1644167702.238396,-0.009277,0.008484,-0.990784,0.281924,0.371298,-0.115725,49,273,577,5632
1644167702.286784,-0.009216,0.009399,-0.994873,0.144519,0.386565,-0.161527,49,285,584,5648
1644167702.335176,-0.009949,0.008545,-0.992737,0.220855,0.264427,0.098015,45,268,577,5664
1644167702.383571,-0.00769,0.012146,-0.993103,0.251389,0.233893,0.052214,59,273,582,5648
1644167702.431953,-0.011169,0.011169,-0.99115,0.236122,0.462901,-0.115725,51,276,592,5664
1644167702.480329,-0.010864,0.009766,-0.992737,0.220855,0.462901,-0.039389,51,274,578,5600
1644167702.528967,-0.008118,0.008484,-0.989258,0.266656,0.325496,-0.222595,48,269,583,5712
1644167702.577842,-0.010803,0.009888,-0.994507,0.251389,0.279695,-0.039389,46,271,587,5664
1644167702.628424,-0.010925,0.010315,-0.992188,0.327725,0.340763,-0.100458,51,274,578,5648
1644167702.678456,-0.009766,0.008423,-0.991638,0.327725,0.325496,0.021679,55,271,573,5648
1644167702.723429,-0.011047,0.005676,-0.99054,0.205588,0.569771,-0.008855,52,280,572,5552
1644167702.819069,-0.010864,0.006897,-0.99231,0.190321,0.478168,-0.069924,51,274,576,5648
1644167702.867516,-0.010498,0.008423,-0.99054,0.281924,0.462901,-0.054656,59,270,563,5648
1644167702.915891,-0.006531,0.010498,-0.989014,0.35826,0.371298,-0.207328,48,269,578,5600
1644167702.964292,-0.010803,0.009827,-0.993164,0.190321,0.203359,-0.115725,46,281,580,5664
1644167703.012689,-0.01062,0.011108,-0.991516,-0.008153,0.462901,0.143817,41,266,576,5648
1644167703.063718,-0.010498,0.007812,-0.993164,0.144519,0.523969,-0.222595,47,282,582,5712
1644167703.109452,-0.009521,0.007629,-0.991821,0.373527,0.493435,0.052214,57,265,584,5664
1644167703.157798,-0.008667,0.008545,-0.991577,0.312458,0.417099,-0.14626,46,279,576,5648
1644167703.206219,-0.010986,0.00824,-0.992493,0.205588,0.447634,-0.283664,47,275,575,5648
1644167703.254789,-0.011658,0.00946,-0.99292,0.220855,0.325496,-0.100458,59,273,579,5712
1644167703.302994,-0.011353,0.011597,-0.994629,0.068183,0.417099,-0.130992,43,271,580,5632
1644167703.351382,-0.009888,0.00946,-0.989868,0.190321,0.432366,-0.161527,47,263,570,5632
1644167703.399766,-0.008484,0.010254,-0.994019,0.236122,0.340763,-0.008855,54,270,575,5648
1644167703.448163,-0.010803,0.011597,-0.994568,0.129252,0.417099,0.006412,47,277,577,5600
1644167703.496548,-0.008911,0.010803,-0.991821,0.266656,0.356031,-0.130992,53,269,573,5696
1644167703.544983,-0.01123,0.010925,-0.993042,0.312458,0.371298,-0.085191,51,271,578,5600
1644167703.593314,-0.007202,0.010376,-0.993347,0.297191,0.325496,-0.176794,57,275,579,5664
1644167703.641713,-0.010376,0.011169,-0.991272,0.205588,0.386565,-0.008855,48,279,578,5600
1644167703.690113,-0.008911,0.01123,-0.994568,0.175053,0.294962,-0.069924,49,265,570,5600
1644167703.738771,-0.01123,0.009949,-0.992676,0.144519,0.401832,-0.069924,45,265,591,5584
1644167703.789339,-0.010376,0.009705,-0.993042,0.175053,0.371298,-0.14626,58,274,576,5600
1644167703.840351,-0.009705,0.010681,-0.992126,0.175053,0.585038,-0.130992,53,276,573,5696
1644167703.884968,-0.008362,0.008179,-0.991577,0.098718,0.447634,-0.069924,42,275,575,5552
1644167703.980491,-0.009277,0.009033,-0.990845,0.236122,0.508702,-0.115725,43,281,576,5664
1644167704.028869,-0.011353,0.009216,-0.990112,0.236122,0.279695,-0.069924,47,273,577,5648
1644167704.077323,-0.011719,0.010986,-0.990967,0.266656,0.447634,-0.130992,60,274,571,5664
1644167704.125644,-0.010925,0.010864,-0.990845,0.220855,0.401832,-0.115725,57,268,577,5664
1644167704.174,-0.011414,0.009521,-0.991882,0.205588,0.356031,-0.024122,54,280,570,5696
1644167704.222429,-0.009033,0.011475,-0.98999,0.022382,0.356031,-0.100458,43,274,578,5632
1644167704.270776,-0.009216,0.010315,-0.990723,0.281924,0.310229,-0.069924,48,279,571,5648
1644167704.319183,-0.013672,0.009338,-0.993896,0.327725,0.447634,-0.039389,48,279,576,5648
1644167704.367584,-0.013977,0.009644,-0.990662,0.251389,0.447634,0.006412,38,280,575,5712
1644167704.415975,-0.010498,0.009521,-0.990356,0.312458,0.340763,-0.069924,47,268,572,5696
1644167704.464377,-0.010376,0.012512,-0.99292,0.144519,0.386565,-0.100458,52,270,572,5584
1644167704.512738,-0.00946,0.008667,-0.991028,0.312458,0.24916,-0.100458,48,276,573,5648
1644167704.561149,-0.009705,0.00708,-0.991943,0.297191,0.462901,0.036947,54,280,584,5600
1644167704.609526,-0.009399,0.008179,-0.990845,0.205588,0.569771,-0.130992,55,271,573,5648
1644167704.657919,-0.00946,0.009583,-0.989746,0.159786,0.325496,-0.192061,49,280,579,5664
1644167704.706314,-0.007996,0.007202,-0.990662,0.251389,0.493435,-0.176794,51,281,569,5648
1644167704.754694,-0.007996,0.00885,-0.989746,0.281924,0.569771,-0.222595,47,280,570,5648
1644167704.803416,-0.011047,0.011841,-0.988953,0.190321,0.325496,-0.100458,46,266,580,5584
1644167704.854022,-0.010559,0.012634,-0.992737,0.388794,0.417099,-0.054656,53,269,569,5648
1644167704.904057,-0.008545,0.009766,-0.990723,0.35826,0.24916,-0.024122,45,273,582,5600
1644167704.948696,-0.00708,0.011719,-0.992371,0.266656,0.310229,0.036947,49,273,579,5648
1644167705.057307,-0.01123,0.009521,-0.992126,0.266656,0.417099,-0.268397,55,279,585,5664
1644167705.096916,-0.010803,0.006958,-0.991211,0.205588,0.325496,-0.14626,51,279,573,5648
1644167705.141835,-0.008606,0.006165,-0.991028,0.175053,0.325496,0.021679,41,269,580,5648
1644167705.190194,-0.009338,0.008728,-0.993042,0.373527,0.340763,-0.100458,43,279,578,5648
1644167705.238637,-0.007263,0.007202,-0.991455,0.190321,0.417099,-0.100458,49,273,572,5648
1644167705.286998,-0.007324,0.009399,-0.990417,0.342992,0.508702,-0.008855,51,274,571,5664
1644167705.335389,-0.010681,0.008118,-0.991577,0.159786,0.432366,-0.039389,55,286,580,5648
1644167705.383792,-0.009644,0.009338,-0.990845,0.190321,0.417099,-0.069924,45,273,577,5664
1644167705.432255,-0.01001,0.00885,-0.991638,0.175053,0.356031,-0.161527,49,275,584,5648
1644167705.480554,-0.008728,0.009644,-0.990784,0.297191,0.508702,-0.039389,45,273,586,5648
1644167705.528944,-0.009705,0.00824,-0.990479,0.220855,0.218626,-0.100458,53,266,583,5648
1644167705.577333,-0.009033,0.008789,-0.990295,0.129252,0.401832,-0.14626,52,275,565,5648
1644167705.625742,-0.00885,0.011292,-0.991516,0.312458,0.432366,-0.085191,55,276,583,5696
1644167705.67492,-0.011658,0.010803,-0.992798,0.190321,0.447634,-0.054656,52,280,577,5648
1644167705.725111,-0.011414,0.008911,-0.989929,0.297191,0.371298,-0.069924,47,275,572,5648
1644167705.775379,-0.01001,0.01001,-0.993042,0.159786,0.356031,-0.008855,57,280,579,5664
1644167705.820271,-0.009094,0.008423,-0.991211,0.175053,0.24916,0.006412,54,277,572,5696
1644167705.91609,-0.007629,0.008789,-0.989502,0.327725,0.462901,-0.25313,53,279,578,5648
1644167705.964493,-0.010803,0.010315,-0.991211,0.388794,0.386565,-0.237863,49,273,579,5648
1644167706.012876,-0.009888,0.008667,-0.990417,0.144519,0.386565,-0.14626,49,282,575,5584
1644167706.064906,-0.010193,0.013916,-0.991028,0.388794,0.371298,-0.161527,52,273,579,5696
1644167706.109661,-0.010315,0.006958,-0.988892,0.297191,0.401832,-0.024122,45,273,572,5600
1644167706.158056,-0.010193,0.009521,-0.990601,0.312458,0.508702,-0.14626,45,275,572,5696
1644167706.206438,-0.008545,0.011108,-0.990234,0.236122,0.386565,0.021679,46,274,580,5584
1644167706.254822,-0.006897,0.01239,-0.990234,0.236122,0.432366,-0.100458,45,270,575,5728
1644167706.303249,-0.010254,0.009277,-0.989136,0.175053,0.417099,-0.039389,65,276,576,5648
1644167706.351619,-0.007629,0.012512,-0.988403,0.312458,0.264427,-0.069924,39,281,583,5648
1644167706.400003,-0.010681,0.011719,-0.992554,0.175053,0.569771,-0.14626,57,273,577,5648
1644167706.44839,-0.007935,0.011963,-0.991089,0.220855,0.401832,-0.207328,54,275,577,5648
1644167706.496803,-0.009949,0.009949,-0.992126,0.342992,0.340763,-0.161527,53,281,580,5648
1644167706.545213,-0.008423,0.009827,-0.992126,0.022382,0.386565,0.113282,47,270,577,5600
1644167706.593574,-0.008362,0.01001,-0.992493,0.205588,0.356031,-0.008855,49,275,575,5648
1644167706.641971,-0.009216,0.009583,-0.989197,0.098718,0.279695,0.036947,49,275,577,5632
1644167706.690353,-0.012817,0.008728,-0.990356,0.281924,0.340763,-0.14626,54,268,584,5632
1644167706.739007,-0.011414,0.012512,-0.99054,0.205588,0.462901,-0.069924,54,273,577,5648
1644167706.787621,-0.010376,0.009705,-0.992615,0.129252,0.539237,-0.054656,57,268,582,5648
1644167706.837344,-0.008484,0.00946,-0.993225,0.236122,0.523969,-0.008855,47,260,570,5600
1644167706.887578,-0.008728,0.009277,-0.993713,0.266656,0.325496,-0.192061,55,281,583,5648
1644167706.937859,-0.010864,0.009277,-0.994385,0.159786,0.371298,-0.008855,53,271,569,5664
1644167707.029109,-0.012817,0.009399,-0.991455,0.236122,0.386565,-0.024122,48,279,583,5712
1644167707.081557,-0.009521,0.007568,-0.993164,0.404061,0.462901,-0.069924,54,270,579,5600
1644167707.125817,-0.011597,0.010742,-0.991272,0.236122,0.462901,-0.207328,60,279,580,5664
1644167707.174235,-0.010071,0.010986,-0.989624,0.35826,0.508702,0.052214,51,264,587,5632
1644167707.222626,-0.009338,0.009705,-0.993591,0.190321,0.523969,-0.039389,57,273,570,5648
1644167707.270971,-0.00885,0.007874,-0.992065,0.342992,0.478168,-0.161527,49,282,570,5584
1644167707.319371,-0.009949,0.00946,-0.993408,0.220855,0.401832,-0.14626,54,277,572,5664
1644167707.367784,-0.008911,0.00531,-0.989807,0.327725,0.523969,-0.161527,46,281,569,5632
1644167707.416182,-0.010742,0.009521,-0.990234,0.297191,0.310229,-0.176794,52,263,579,5648
1644167707.464547,-0.00885,0.006409,-0.993774,0.327725,0.554504,-0.192061,54,275,584,5664
1644167707.512951,-0.009888,0.009033,-0.993103,0.297191,0.432366,-0.222595,40,268,577,5648
1644167707.561343,-0.008667,0.009766,-0.988464,0.327725,0.218626,0.036947,46,279,562,5600
1644167707.609744,-0.009338,0.008606,-0.988586,0.236122,0.569771,-0.207328,64,282,577,5664
1644167707.658124,-0.011475,0.012085,-0.989868,0.35826,0.325496,-0.054656,58,269,573,5696
1644167707.706518,-0.011536,0.009277,-0.993774,0.327725,0.493435,-0.14626,46,276,578,5728
1644167707.754884,-0.008789,0.009338,-0.992004,0.175053,0.523969,0.021679,49,265,586,5584
1644167707.803339,-0.013,0.010254,-0.990112,0.175053,0.401832,-0.192061,55,283,569,5648
1644167707.851715,-0.011414,0.009216,-0.990723,0.281924,0.386565,-0.054656,46,274,573,5648
1644167707.901701,-0.01001,0.01062,-0.989441,0.220855,0.478168,-0.14626,54,263,572,5632
1644167707.951906,-0.007935,0.007324,-0.99292,0.251389,0.310229,0.036947,54,280,575,5600
1644167708.056097,-0.00946,0.009766,-0.989868,0.297191,0.462901,-0.024122,46,269,583,5648
1644167708.094057,-0.009216,0.012207,-0.990417,0.236122,0.417099,-0.192061,48,276,573,5600
1644167708.142029,-0.013611,0.009094,-0.990784,0.251389,0.310229,-0.176794,49,270,579,5600
1644167708.190434,-0.00946,0.011169,-0.990601,0.46513,0.310229,0.021679,35,263,577,5648
1644167708.238809,-0.010742,0.010315,-0.989807,0.251389,0.585038,0.006412,48,274,569,5600
1644167708.287185,-0.006348,0.009644,-0.991028,0.251389,0.294962,-0.130992,45,273,579,5648
1644167708.335571,-0.009399,0.011047,-0.99176,0.251389,0.432366,-0.024122,57,273,575,5648
1644167708.383981,-0.012329,0.008484,-0.991943,0.327725,0.386565,-0.283664,57,265,582,5648
1644167708.432389,-0.009888,0.008362,-0.990784,0.113985,0.432366,-0.176794,55,274,571,5648
1644167708.480765,-0.008179,0.010315,-0.990906,0.297191,0.508702,0.036947,57,270,577,5648
1644167708.529156,-0.010376,0.010986,-0.993896,0.175053,0.401832,-0.115725,48,262,576,5632
1644167708.577545,-0.009583,0.009949,-0.989685,0.175053,0.478168,-0.069924,49,275,577,5664
1644167708.62593,-0.012817,0.009644,-0.991699,0.129252,0.493435,-0.085191,55,271,569,5664
1644167708.674666,-0.011047,0.009705,-0.990967,0.327725,0.356031,-0.222595,57,265,582,5584
1644167708.723716,-0.009888,0.011047,-0.991638,0.251389,0.493435,-0.085191,53,283,580,5664
1644167708.774078,-0.010132,0.009583,-0.993469,0.327725,0.539237,-0.14626,54,273,577,5632
1644167708.825535,-0.00946,0.009827,-0.991455,0.08345,0.401832,-0.085191,53,274,578,5648
1644167708.916327,-0.00824,0.009155,-0.990479,0.373527,0.447634,-0.192061,55,276,576,5664
1644167708.964903,-0.006348,0.012024,-0.990723,0.281924,0.462901,-0.25313,41,283,571,5632
1644167709.013093,-0.009399,0.009033,-0.992188,0.251389,0.432366,-0.115725,55,276,578,5632
1644167709.064557,-0.011353,0.012634,-0.989136,0.190321,0.447634,0.12855,53,271,576,5664
1644167709.109869,-0.007446,0.01062,-0.991211,0.220855,0.539237,-0.100458,40,277,579,5648
1644167709.158214,-0.009888,0.010681,-0.989929,0.266656,0.569771,-0.207328,60,269,576,5600
1644167709.206628,-0.009583,0.011475,-0.992432,0.159786,0.340763,-0.100458,42,285,572,5696
1644167709.255057,-0.012268,0.008362,-0.993591,0.175053,0.401832,0.036947,46,279,585,5584
1644167709.30338,-0.008911,0.009949,-0.993164,0.220855,0.356031,0.006412,55,271,578,5664
1644167709.351785,-0.008545,0.010559,-0.989197,0.297191,0.554504,0.082748,52,280,579,5664
1644167709.400184,-0.01239,0.010254,-0.991943,0.388794,0.310229,-0.161527,54,270,586,5664
1644167709.448575,-0.007385,0.010071,-0.992188,0.068183,0.340763,-0.100458,49,263,575,5664
1644167709.496952,-0.009155,0.010315,-0.989624,0.266656,0.569771,-0.085191,48,274,576,5696
1644167709.545348,-0.008484,0.008484,-0.98877,0.205588,0.371298,-0.024122,51,276,573,5648
1644167709.593763,-0.009338,0.009094,-0.994263,0.251389,0.462901,-0.008855,53,274,576,5696
1644167709.642183,-0.008423,0.010803,-0.991577,0.35826,0.508702,-0.085191,48,276,569,5600
1644167709.690527,-0.012573,0.009949,-0.990234,0.312458,0.401832,-0.008855,47,273,570,5664
1644167709.738914,-0.00824,0.009399,-0.991272,0.175053,0.462901,-0.207328,46,269,573,5664
1644167709.787296,-0.006287,0.009094,-0.991516,0.129252,0.401832,-0.100458,49,280,563,5584
1644167709.836392,-0.009155,0.012329,-0.99353,0.068183,0.569771,0.143817,40,268,579,5584
1644167709.887046,-0.010071,0.011841,-0.991333,0.35826,0.325496,-0.176794,39,281,562,5600
1644167709.937545,-0.011719,0.01062,-0.991211,0.205588,0.462901,-0.039389,51,266,576,5664
1644167709.981997,-0.010925,0.010986,-0.989624,0.190321,0.478168,-0.039389,54,275,584,5600
1644167710.07777,-0.010132,0.007507,-0.99176,0.144519,0.264427,-0.008855,42,277,577,5648
1644167710.126081,-0.008789,0.007507,-0.990662,0.373527,0.447634,-0.008855,55,276,580,5632
1644167710.174434,-0.008545,0.012085,-0.991882,0.281924,0.417099,-0.161527,47,263,582,5600
1644167710.222833,-0.012268,0.007141,-0.99176,0.113985,0.417099,-0.176794,49,275,570,5696
1644167710.271195,-0.006165,0.008789,-0.993042,0.236122,0.417099,0.006412,43,271,573,5664
1644167710.319579,-0.005554,0.010071,-0.992188,0.068183,0.203359,-0.130992,49,275,577,5648
1644167710.367993,-0.01001,0.010315,-0.993774,0.205588,0.493435,-0.054656,57,280,570,5600
1644167710.416375,-0.008545,0.008179,-0.990601,0.266656,0.478168,-0.14626,39,274,576,5664
1644167710.464781,-0.011047,0.01062,-0.989807,0.281924,0.310229,-0.115725,54,268,584,5632
1644167710.513167,-0.007324,0.008545,-0.990051,0.220855,0.447634,-0.100458,55,271,592,5664
1644167710.561553,-0.010803,0.00946,-0.991821,0.312458,0.218626,-0.207328,52,275,572,5664
1644167710.609916,-0.008972,0.009155,-0.991699,0.297191,0.310229,-0.100458,45,275,575,5584
1644167710.658329,-0.009827,0.00647,-0.987671,0.281924,0.401832,-0.283664,54,275,565,5648
1644167710.706735,-0.01239,0.008789,-0.990845,0.190321,0.462901,0.006412,48,274,576,5584
1644167710.755162,-0.009033,0.011169,-0.990173,0.342992,0.24916,0.006412,48,271,578,5584
1644167710.80348,-0.009521,0.009521,-0.992249,0.236122,0.371298,-0.069924,46,271,587,5664
1644167710.851939,-0.008728,0.011169,-0.990234,0.129252,0.386565,-0.054656,53,271,583,5584
1644167710.900617,-0.01062,0.009705,-0.990417,0.190321,0.447634,-0.024122,48,274,571,5648
1644167710.948733,-0.01123,0.009949,-0.990723,0.190321,0.462901,-0.100458,58,279,580,5632
1644167710.998729,-0.01062,0.010681,-0.990967,0.129252,0.462901,-0.069924,58,262,580,5600
1644167711.068377,-0.009399,0.013367,-0.992554,0.08345,0.340763,-0.100458,59,277,575,5648
1644167711.10496,-0.010864,0.012207,-0.990601,0.159786,0.462901,-0.085191,55,279,566,5648
1644167711.14372,-0.010193,0.01123,-0.991394,0.144519,0.371298,-0.130992,52,265,577,5584
1644167711.238998,-0.010315,0.008911,-0.990845,0.236122,0.279695,0.006412,48,266,576,5664
1644167711.287392,-0.010193,0.011169,-0.991333,0.220855,0.340763,0.052214,46,274,569,5632
1644167711.335775,-0.012451,0.008911,-0.99054,0.312458,0.356031,-0.14626,43,274,583,5632
1644167711.384192,-0.009583,0.007019,-0.99231,0.220855,0.569771,-0.069924,49,277,577,5648
1644167711.432599,-0.005615,0.007751,-0.992249,0.281924,0.478168,-0.024122,57,275,575,5584
1644167711.480965,-0.012573,0.010071,-0.991638,0.220855,0.417099,-0.115725,45,277,577,5648
1644167711.529368,-0.010071,0.011353,-0.990601,0.220855,0.432366,-0.024122,45,263,565,5648
1644167711.577753,-0.010132,0.009766,-0.987427,0.113985,0.356031,0.052214,60,266,580,5584
1644167711.626146,-0.00885,0.008118,-0.98999,0.129252,0.356031,-0.100458,43,274,566,5664
1644167711.674548,-0.011963,0.008484,-0.988953,0.266656,0.417099,-0.14626,54,270,579,5600
1644167711.722951,-0.011719,0.008728,-0.991211,0.022382,0.478168,-0.130992,58,276,583,5600
1644167711.771297,-0.009399,0.01062,-0.991455,0.159786,0.508702,0.052214,54,277,572,5696
1644167711.819711,-0.008301,0.010437,-0.994812,0.266656,0.386565,-0.069924,51,271,580,5632
1644167711.868105,-0.010132,0.010803,-0.989624,0.190321,0.401832,-0.085191,54,270,568,5536
1644167711.916516,-0.011902,0.008911,-0.993042,0.251389,0.417099,0.052214,55,283,578,5600
1644167711.964902,-0.011108,0.007324,-0.992859,0.236122,0.493435,0.006412,49,268,582,5664
1644167712.013325,-0.010315,0.00885,-0.99054,0.251389,0.279695,-0.161527,36,274,580,5584
1644167712.083395,-0.009644,0.011108,-0.990356,0.297191,0.340763,0.052214,43,269,576,5584
1644167712.111381,-0.010498,0.009583,-0.994812,0.175053,0.371298,-0.14626,54,275,565,5632
1644167712.206806,-0.007812,0.010498,-0.991577,0.159786,0.462901,-0.100458,46,276,569,5696
1644167712.255388,-0.00824,0.010071,-0.990234,0.175053,0.493435,-0.100458,55,269,578,5664
1644167712.303604,-0.008423,0.009583,-0.992432,0.052916,0.569771,-0.237863,47,265,577,5600
1644167712.351998,-0.008301,0.009033,-0.990417,0.159786,0.447634,-0.069924,45,275,584,5648
1644167712.400384,-0.009521,0.010681,-0.989624,-0.084489,0.432366,0.052214,49,268,575,5648
1644167712.448771,-0.011597,0.011536,-0.989441,0.205588,0.462901,-0.192061,46,276,564,5648
1644167712.497141,-0.01001,0.011719,-0.992859,0.327725,0.523969,-0.085191,47,270,577,5632
1644167712.545566,-0.008057,0.010193,-0.991882,0.175053,0.539237,-0.085191,51,276,580,5648
1644167712.59396,-0.012756,0.011047,-0.989014,0.281924,0.462901,-0.100458,51,276,566,5696
1644167712.642362,-0.010803,0.007019,-0.990479,0.281924,0.356031,-0.039389,43,271,583,5600
1644167712.690737,-0.010681,0.009277,-0.99176,0.159786,0.371298,-0.085191,47,275,575,5648
1644167712.739123,-0.012451,0.009521,-0.991699,0.113985,0.386565,-0.130992,49,268,579,5584
1644167712.787512,-0.012634,0.009705,-0.991272,0.098718,0.462901,-0.161527,55,279,578,5664
1644167712.835898,-0.009827,0.007935,-0.992249,0.052916,0.523969,-0.130992,49,270,582,5584
1644167712.884338,-0.009399,0.008057,-0.990417,0.373527,0.325496,-0.130992,53,271,578,5552
1644167712.932701,-0.011108,0.009521,-0.990845,0.220855,0.417099,0.036947,47,280,575,5584
1644167712.981115,-0.011841,0.00592,-0.98822,0.175053,0.325496,-0.161527,53,286,578,5664
1644167713.029505,-0.009399,0.010132,-0.992432,0.098718,0.310229,-0.176794,58,276,578,5632
1644167713.082292,-0.007568,0.008972,-0.990845,0.175053,0.447634,-0.085191,42,270,572,5648
1644167713.127927,-0.010681,0.010803,-0.989624,0.281924,0.417099,0.006412,59,282,577,5696
1644167713.176332,-0.009583,0.010071,-0.992004,0.220855,0.401832,-0.100458,60,269,564,5600
1644167713.226727,-0.010986,0.010559,-0.991211,0.281924,0.310229,-0.176794,47,270,577,5600
1644167713.271717,-0.012512,0.012207,-0.992188,0.266656,0.401832,-0.085191,52,280,570,5648
1644167713.368174,-0.011658,0.010254,-0.990234,0.175053,0.462901,-0.100458,49,260,570,5664
1644167713.416569,-0.007324,0.011292,-0.991455,0.175053,0.279695,-0.024122,38,275,572,5664
1644167713.465219,-0.008789,0.008301,-0.990295,0.281924,0.478168,-0.115725,48,279,580,5664
1644167713.513363,-0.013,0.01001,-0.988647,0.327725,0.340763,-0.069924,53,276,573,5600
1644167713.561749,-0.012451,0.010864,-0.990479,0.312458,0.386565,-0.039389,39,269,573,5600
1644167713.610139,-0.012573,0.00946,-0.99353,0.251389,0.340763,-0.100458,55,281,576,5648
1644167713.65854,-0.009033,0.009338,-0.99115,0.236122,0.569771,-0.069924,45,273,577,5648
1644167713.70692,-0.007507,0.008423,-0.990234,0.144519,0.294962,-0.130992,53,283,576,5600
1644167713.755327,-0.008545,0.011169,-0.992554,0.35826,0.340763,0.12855,53,271,569,5664
1644167713.803773,-0.010864,0.008789,-0.987976,0.312458,0.371298,0.006412,45,268,572,5696
1644167713.852249,-0.012085,0.008057,-0.990906,0.220855,0.310229,-0.115725,59,273,584,5600
1644167713.900537,-0.010376,0.008972,-0.992188,0.159786,0.462901,-0.115725,51,279,573,5632
1644167713.948928,-0.012024,0.006897,-0.990784,0.220855,0.523969,-0.085191,45,273,572,5696
1644167713.997314,-0.010437,0.011108,-0.99292,0.434595,0.478168,-0.085191,45,277,572,5664
1644167714.059851,-0.010864,0.009338,-0.992188,0.052916,0.462901,-0.024122,55,279,578,5552
1644167714.094483,-0.010437,0.007935,-0.991516,0.144519,0.478168,-0.008855,52,273,575,5632
1644167714.142444,-0.008911,0.00769,-0.991699,0.022382,0.478168,-0.176794,58,274,564,5632
1644167714.190826,-0.01001,0.008728,-0.993347,0.175053,0.432366,-0.069924,47,275,579,5584
1644167714.23922,-0.009583,0.011292,-0.992737,0.266656,0.386565,-0.161527,39,269,592,5664
1644167714.28788,-0.009033,0.008606,-0.994019,0.113985,0.478168,-0.192061,49,273,570,5648
1644167714.338457,-0.009705,0.011108,-0.991577,0.205588,0.340763,-0.176794,59,270,572,5600
1644167714.388643,-0.009155,0.010498,-0.992432,0.236122,0.356031,-0.085191,45,265,575,5664
1644167714.433573,-0.009766,0.011108,-0.991699,0.144519,0.386565,-0.161527,45,277,572,5664
1644167714.529559,-0.011475,0.011047,-0.989929,0.266656,0.356031,0.021679,52,280,582,5600
1644167714.577943,-0.008301,0.008606,-0.989929,0.281924,0.310229,-0.085191,61,273,565,5712
1644167714.626333,-0.008911,0.009216,-0.994202,0.327725,0.371298,-0.054656,48,276,576,5648
1644167714.674845,-0.007996,0.009644,-0.98938,0.281924,0.340763,-0.161527,49,270,568,5584
1644167714.72314,-0.009338,0.009277,-0.992249,0.098718,0.386565,-0.069924,49,275,575,5600
1644167714.771516,-0.00885,0.008606,-0.990784,0.281924,0.371298,-0.054656,42,268,570,5584
1644167714.819962,-0.009155,0.011169,-0.992126,0.419328,0.401832,-0.130992,51,271,576,5648
1644167714.868353,-0.008911,0.009094,-0.991272,0.327725,0.417099,-0.039389,51,269,578,5648
1644167714.916729,-0.008789,0.00885,-0.98822,0.281924,0.386565,-0.085191,49,277,577,5648
1644167714.965229,-0.009583,0.009094,-0.990051,0.35826,0.539237,-0.069924,51,280,584,5664
1644167715.013514,-0.007507,0.009766,-0.991394,0.129252,0.310229,-0.130992,49,273,584,5664
1644167715.067529,-0.012878,0.010803,-0.990479,0.220855,0.340763,-0.100458,42,275,570,5664
1644167715.11027,-0.009216,0.008789,-0.988586,0.129252,0.447634,-0.008855,46,281,585,5632
1644167715.158639,-0.012207,0.008911,-0.991821,0.144519,0.493435,-0.085191,49,277,572,5632
1644167715.207031,-0.010498,0.010254,-0.993896,0.08345,0.447634,-0.130992,49,270,586,5632
1644167715.255409,-0.010193,0.00885,-0.990112,-0.084489,0.508702,-0.14626,39,274,569,5664
1644167715.303814,-0.010986,0.008606,-0.992981,0.266656,0.294962,0.021679,53,274,571,5664
1644167715.352234,-0.009583,0.012024,-0.990479,0.251389,0.478168,-0.222595,54,282,582,5632
1644167715.400597,-0.009583,0.00946,-0.989563,0.312458,0.325496,-0.024122,58,279,585,5648
1644167715.449297,-0.011414,0.011841,-0.990784,0.327725,0.508702,-0.176794,39,271,578,5648
1644167715.500295,-0.01062,0.010376,-0.990723,0.35826,0.356031,0.006412,59,277,577,5584
1644167715.550024,-0.009521,0.010986,-0.991638,0.342992,0.508702,-0.298931,48,276,580,5664
1644167715.595069,-0.010376,0.009827,-0.991028,0.037649,0.356031,-0.161527,40,268,586,5664
1644167715.690933,-0.009521,0.010742,-0.989136,0.129252,0.462901,-0.176794,55,271,571,5584
1644167715.739334,-0.009827,0.008545,-0.989258,0.175053,0.371298,-0.14626,49,273,577,5664
1644167715.787714,-0.007202,0.008911,-0.993774,0.159786,0.417099,-0.161527,48,281,573,5648
1644167715.836153,-0.013367,0.010559,-0.993469,0.159786,0.462901,-0.085191,42,268,568,5696
1644167715.884541,-0.008545,0.007141,-0.991699,0.266656,0.386565,-0.085191,42,273,575,5648
1644167715.932949,-0.009766,0.010681,-0.989929,0.266656,0.310229,-0.054656,60,274,571,5632
1644167715.981324,-0.011902,0.011047,-0.989441,0.037649,0.401832,0.052214,47,273,577,5648
1644167716.029716,-0.009521,0.011169,-0.993042,0.46513,0.493435,-0.283664,48,283,583,5632
1644167716.083572,-0.00946,0.009766,-0.990356,-0.02342,0.508702,-0.054656,52,270,572,5600
1644167716.126457,-0.012268,0.010376,-0.992371,0.281924,0.356031,0.067481,54,263,579,5664
1644167716.174841,-0.008057,0.007446,-0.991577,0.205588,0.401832,-0.069924,48,276,578,5600
1644167716.223237,-0.011292,0.011108,-0.992859,0.190321,0.417099,-0.115725,47,275,575,5664
1644167716.2716,-0.00824,0.008362,-0.990173,0.251389,0.279695,-0.14626,48,274,566,5696
1644167716.320356,-0.008484,0.008057,-0.990967,0.266656,0.203359,0.098015,45,268,584,5648
1644167716.369647,-0.00885,0.010132,-0.991028,0.281924,0.493435,-0.222595,51,279,564,5664
1644167716.419885,-0.009888,0.010193,-0.989563,0.266656,0.447634,0.036947,55,264,573,5648
1644167716.470022,-0.008118,0.011108,-0.988464,0.220855,0.478168,-0.069924,41,271,569,5648
1644167716.562223,-0.008423,0.010559,-0.992432,0.434595,0.554504,-0.176794,53,264,571,5648
1644167716.61036,-0.007446,0.009216,-0.989624,0.113985,0.539237,-0.100458,52,265,558,5584
1644167716.65874,-0.009277,0.007324,-0.991211,0.175053,0.401832,-0.192061,45,280,570,5584
1644167716.707126,-0.008911,0.010254,-0.989502,0.220855,0.386565,0.12855,54,285,570,5632
1644167716.755513,-0.009949,0.011597,-0.991699,0.251389,0.401832,-0.039389,47,277,575,5584
1644167716.803944,-0.008179,0.008545,-0.990479,0.312458,0.417099,0.036947,48,276,578,5632
1644167716.852369,-0.010925,0.010315,-0.991882,0.297191,0.203359,-0.085191,55,271,580,5664
1644167716.900724,-0.009583,0.01001,-0.991943,0.190321,0.203359,-0.161527,42,260,565,5696
1644167716.949148,-0.008118,0.009033,-0.992188,0.159786,0.478168,-0.329466,41,271,566,5696
1644167716.997493,-0.00946,0.012146,-0.990479,0.159786,0.401832,0.098015,53,262,576,5696
1644167717.05642,-0.011719,0.007141,-0.992249,0.037649,0.417099,-0.14626,53,271,585,5584
1644167717.094289,-0.01178,0.008423,-0.990356,0.281924,0.478168,-0.054656,49,270,563,5664
1644167717.142664,-0.007446,0.010864,-0.99292,0.281924,0.493435,-0.14626,48,274,580,5584
1644167717.191041,-0.008545,0.012573,-0.991516,0.190321,0.401832,0.036947,48,266,583,5648
1644167717.239435,-0.009888,0.012207,-0.991028,0.327725,0.294962,-0.161527,45,270,575,5584
1644167717.287829,-0.006653,0.010071,-0.990173,0.266656,0.386565,-0.14626,52,265,579,5648
1644167717.336219,-0.009888,0.012268,-0.990967,0.373527,0.340763,-0.069924,49,282,579,5648
1644167717.384649,-0.008362,0.01001,-0.990173,0.159786,0.417099,-0.161527,48,269,573,5648
1644167717.432976,-0.010437,0.011658,-0.98877,0.297191,0.371298,-0.024122,55,269,576,5584
1644167717.481478,-0.009521,0.009827,-0.99054,0.144519,0.325496,-0.039389,45,277,577,5664
1644167717.532296,-0.010437,0.010437,-0.989624,0.251389,0.356031,-0.115725,45,265,575,5648
1644167717.582172,-0.010559,0.011597,-0.986633,0.251389,0.462901,-0.100458,53,264,573,5600
1644167717.627299,-0.008911,0.010376,-0.992188,0.342992,0.340763,-0.207328,48,269,576,5664
1644167717.723346,-0.010559,0.01239,-0.991028,0.159786,0.523969,0.021679,53,276,566,5600
1644167717.771724,-0.013672,0.010254,-0.991638,0.480397,0.417099,-0.161527,53,276,566,5600
1644167717.820107,-0.008606,0.010437,-0.992615,0.251389,0.386565,-0.008855,52,277,570,5696
1644167717.868556,-0.010193,0.009094,-0.992737,0.144519,0.417099,-0.176794,53,269,580,5664
1644167717.91694,-0.010498,0.01062,-0.990723,0.251389,0.493435,-0.115725,51,266,571,5648
1644167717.965331,-0.008118,0.01416,-0.989075,0.281924,0.432366,-0.069924,51,276,576,5664
1644167718.013731,-0.009521,0.009949,-0.992493,0.190321,0.356031,-0.069924,51,271,573,5712
1644167718.062361,-0.007812,0.010498,-0.993286,0.205588,0.493435,-0.008855,48,266,569,5648
1644167718.110483,-0.006958,0.009583,-0.992798,0.404061,0.417099,-0.024122,36,279,578,5600
1644167718.158836,-0.011963,0.009644,-0.989441,0.281924,0.493435,0.052214,46,274,571,5584
1644167718.207243,-0.011292,0.007202,-0.994141,0.342992,0.554504,-0.130992,47,268,577,5664
1644167718.255635,-0.006836,0.011353,-0.992493,0.205588,0.432366,-0.069924,48,283,569,5600
1644167718.304021,-0.009521,0.009277,-0.991089,0.35826,0.401832,-0.039389,48,274,583,5664
1644167718.352439,-0.011108,0.009827,-0.99054,0.297191,0.417099,-0.069924,52,273,582,5600
1644167718.400814,-0.009399,0.015015,-0.991943,0.251389,0.432366,-0.039389,47,275,584,5648
1644167718.4492,-0.013367,0.01001,-0.993896,0.144519,0.478168,-0.115725,59,275,582,5600
1644167718.497591,-0.009033,0.010803,-0.98999,0.281924,0.462901,-0.039389,53,274,583,5648
1644167718.545958,-0.011169,0.010193,-0.99231,0.098718,0.371298,-0.192061,52,273,568,5648
1644167718.594375,-0.01123,0.010254,-0.994263,0.266656,0.417099,-0.115725,47,277,572,5664
1644167718.643462,-0.010132,0.009399,-0.990417,0.205588,0.264427,-0.085191,38,280,575,5648
1644167718.694019,-0.009705,0.009888,-0.989014,0.205588,0.417099,-0.237863,61,275,575,5600
1644167718.744034,-0.008667,0.007629,-0.993347,0.251389,0.340763,-0.100458,47,275,579,5648
1644167718.789089,-0.008789,0.007629,-0.990967,0.175053,0.401832,0.006412,53,269,576,5648
1644167718.884904,-0.009888,0.01062,-0.991333,0.35826,0.432366,-0.192061,48,271,578,5648
1644167718.933155,-0.01178,0.009033,-0.99115,0.404061,0.447634,-0.085191,51,271,576,5664
1644167718.981529,-0.011414,0.010071,-0.989746,0.297191,0.356031,-0.024122,61,273,577,5600
1644167719.029908,-0.009094,0.008667,-0.990417,0.404061,0.432366,-0.130992,43,271,571,5648
1644167719.078355,-0.009827,0.011475,-0.991882,0.190321,0.478168,-0.298931,58,266,578,5648
1644167719.12668,-0.008728,0.010437,-0.992737,0.159786,0.569771,-0.008855,48,281,587,5648
1644167719.17509,-0.011963,0.009155,-0.989685,0.297191,0.401832,-0.100458,55,279,576,5584
1644167719.223446,-0.008362,0.009705,-0.991882,0.297191,0.294962,-0.100458,49,287,575,5648
1644167719.271828,-0.006165,0.009705,-0.990479,0.175053,0.325496,-0.008855,51,274,578,5600
1644167719.320236,-0.010559,0.011169,-0.990234,0.236122,0.294962,-0.14626,49,273,577,5600
1644167719.368621,-0.008911,0.01001,-0.99292,0.220855,0.493435,0.006412,47,260,575,5600
1644167719.416983,-0.009521,0.008911,-0.987915,0.113985,0.432366,0.021679,49,277,572,5696
1644167719.465381,-0.011169,0.01062,-0.992126,0.434595,0.417099,-0.039389,52,268,565,5648
1644167719.513766,-0.010254,0.010681,-0.990784,0.35826,0.401832,-0.130992,51,276,578,5648
1644167719.562268,-0.010498,0.011169,-0.990356,0.236122,0.447634,-0.100458,48,271,578,5648
1644167719.610562,-0.011353,0.008301,-0.990845,0.205588,0.264427,-0.085191,47,277,582,5584
1644167719.658949,-0.011902,0.008972,-0.991211,0.175053,0.417099,0.006412,48,276,569,5648
1644167719.707338,-0.009827,0.009949,-0.989929,0.251389,0.356031,-0.039389,55,271,576,5632
1644167719.755713,-0.009583,0.011169,-0.992737,0.419328,0.447634,-0.100458,65,269,564,5648
1644167719.804169,-0.010193,0.013428,-0.99231,0.175053,0.325496,0.036947,52,275,572,5664
1644167719.854416,-0.010986,0.00769,-0.993835,0.205588,0.401832,-0.008855,53,269,573,5600
1644167719.905715,-0.009155,0.007751,-0.990601,0.205588,0.401832,-0.161527,55,286,576,5648
1644167719.950432,-0.009949,0.008362,-0.989685,0.297191,0.386565,-0.100458,57,273,579,5648
1644167720.055173,-0.010376,0.011169,-0.990967,0.251389,0.417099,-0.25313,64,270,577,5664
1644167720.094496,-0.010986,0.011169,-0.992615,0.434595,0.493435,-0.130992,52,273,589,5600
1644167720.142911,-0.010132,0.007507,-0.992676,0.297191,0.417099,0.036947,52,275,579,5664
1644167720.191257,-0.010681,0.011963,-0.994202,0.281924,0.386565,0.021679,54,263,577,5664
1644167720.239643,-0.008728,0.009155,-0.992798,0.251389,0.447634,-0.024122,46,276,573,5664
1644167720.288039,-0.009277,0.010254,-0.991882,0.205588,0.340763,-0.069924,54,273,568,5648
1644167720.336438,-0.006226,0.01001,-0.992981,0.175053,0.386565,-0.161527,55,279,573,5664
1644167720.38482,-0.01062,0.008606,-0.992554,0.297191,0.401832,-0.14626,51,274,576,5648
1644167720.433217,-0.010437,0.006104,-0.993713,0.312458,0.432366,-0.176794,53,266,573,5600
1644167720.481566,-0.011353,0.009277,-0.992004,0.08345,0.279695,-0.268397,43,274,569,5664
1644167720.529976,-0.012146,0.010132,-0.991211,0.297191,0.279695,-0.192061,54,273,575,5600
1644167720.57837,-0.01123,0.009705,-0.993225,0.281924,0.325496,-0.100458,42,270,575,5600
1644167720.626765,-0.010803,0.011047,-0.98999,0.205588,0.401832,-0.25313,55,271,569,5664
1644167720.675195,-0.010864,0.011536,-0.991211,0.129252,0.371298,-0.115725,51,271,583,5712
1644167720.723782,-0.007324,0.00885,-0.991699,0.159786,0.325496,-0.100458,58,276,576,5648
1644167720.773124,-0.008484,0.011658,-0.993469,0.159786,0.432366,0.006412,48,271,585,5632
1644167720.823434,-0.011658,0.011536,-0.993042,0.297191,0.432366,-0.14626,51,259,562,5664
1644167720.869462,-0.010071,0.009521,-0.99353,0.373527,0.371298,-0.130992,52,275,572,5648
1644167720.965522,-0.010681,0.008728,-0.991638,0.159786,0.371298,-0.100458,47,285,577,5600
1644167721.013921,-0.008545,0.011719,-0.991455,0.327725,0.325496,-0.039389,45,268,570,5584
1644167721.064775,-0.008362,0.007446,-0.992493,0.205588,0.478168,0.082748,52,277,568,5664
1644167721.110691,-0.009888,0.005493,-0.993408,0.205588,0.462901,0.006412,47,268,575,5584
1644167721.159091,-0.007629,0.009033,-0.98999,0.236122,0.493435,-0.085191,51,266,573,5648
1644167721.207495,-0.012207,0.012756,-0.990295,0.404061,0.233893,-0.039389,55,279,571,5648
1644167721.255864,-0.007263,0.008789,-0.993103,0.236122,0.523969,-0.085191,47,270,579,5664
1644167721.304264,-0.011719,0.010559,-0.992798,0.129252,0.325496,-0.024122,53,266,573,5584
1644167721.352676,-0.01062,0.008362,-0.994324,0.175053,0.478168,-0.069924,60,274,573,5664
1644167721.401047,-0.008423,0.010437,-0.992493,0.129252,0.447634,0.052214,49,287,577,5648
1644167721.449435,-0.010071,0.009338,-0.992859,0.281924,0.417099,0.036947,61,280,568,5648
1644167721.497821,-0.010681,0.012268,-0.993469,0.281924,0.233893,-0.069924,45,277,568,5648
1644167721.546211,-0.010559,0.009094,-0.99292,0.175053,0.447634,-0.14626,52,263,575,5648
1644167721.594756,-0.011169,0.009705,-0.992065,0.251389,0.401832,-0.192061,52,273,575,5664
1644167721.64302,-0.009216,0.008545,-0.991699,0.281924,0.462901,-0.192061,48,276,573,5696
1644167721.691385,-0.009521,0.006775,-0.988586,0.312458,0.478168,-0.130992,52,280,577,5632
1644167721.739774,-0.01001,0.010559,-0.992554,0.098718,0.279695,-0.054656,49,280,577,5600
1644167721.788522,-0.011414,0.013367,-0.992371,0.144519,0.264427,-0.14626,47,275,572,5664
1644167721.836597,-0.011597,0.00647,-0.99353,0.35826,0.371298,-0.039389,42,280,577,5632
1644167721.886851,-0.008972,0.010742,-0.993713,0.129252,0.294962,-0.130992,47,273,575,5648
1644167721.937128,-0.009338,0.009033,-0.993958,0.35826,0.478168,-0.100458,58,274,566,5600
1644167721.987222,-0.012146,0.010132,-0.992554,0.251389,0.432366,-0.14626,62,274,573,5664
1644167722.031559,-0.010803,0.006958,-0.989014,0.281924,0.432366,-0.024122,53,266,578,5600
1644167722.126881,-0.011108,0.010803,-0.990601,0.190321,0.432366,-0.14626,53,274,573,5664
1644167722.175405,-0.008606,0.009949,-0.992859,0.236122,0.493435,-0.115725,51,276,576,5552
1644167722.223657,-0.012329,0.008972,-0.992249,0.388794,0.478168,-0.069924,52,275,579,5600
1644167722.272043,-0.010254,0.010193,-0.990784,0.312458,0.432366,-0.207328,48,271,571,5600
1644167722.320415,-0.008667,0.006165,-0.990601,0.281924,0.356031,-0.176794,53,274,569,5584
1644167722.368794,-0.01062,0.009766,-0.991028,0.251389,0.478168,-0.207328,57,287,570,5600
1644167722.417213,-0.010559,0.010681,-0.98938,0.297191,0.401832,-0.069924,48,262,578,5600
1644167722.46559,-0.01001,0.011902,-0.989746,0.098718,0.386565,-0.100458,55,264,571,5632
1644167722.51399,-0.011841,0.010071,-0.990906,0.159786,0.462901,-0.115725,51,283,571,5584
1644167722.562402,-0.014038,0.011658,-0.992065,0.236122,0.432366,-0.130992,43,262,573,5600
1644167722.610776,-0.009521,0.009094,-0.991089,0.342992,0.554504,-0.161527,60,271,578,5648
1644167722.659162,-0.008606,0.010437,-0.991455,0.220855,0.462901,-0.115725,55,279,583,5664
1644167722.707535,-0.010193,0.007874,-0.990784,0.404061,0.417099,0.036947,40,275,568,5648
1644167722.755918,-0.010498,0.007812,-0.99054,0.190321,0.569771,-0.298931,39,269,576,5648
1644167722.804391,-0.013672,0.00769,-0.992493,0.098718,0.447634,-0.085191,53,262,576,5648
1644167722.852781,-0.011902,0.009888,-0.99054,0.159786,0.478168,-0.008855,43,281,569,5648
1644167722.901156,-0.009766,0.009827,-0.994202,0.327725,0.386565,-0.069924,54,273,586,5696
1644167722.949721,-0.012695,0.008972,-0.992798,0.190321,0.386565,0.006412,51,271,578,5696
1644167722.997924,-0.009277,0.00824,-0.993469,0.342992,0.386565,-0.115725,41,269,573,5584
1644167723.098335,-0.009033,0.01001,-0.993164,0.281924,0.462901,-0.069924,58,286,571,5664
1644167723.143057,-0.01123,0.01123,-0.992981,0.098718,0.417099,-0.100458,47,275,575,5648
1644167723.191461,-0.011108,0.011414,-0.987183,0.35826,0.279695,0.006412,60,264,580,5600
1644167723.239843,-0.011169,0.009705,-0.988159,0.281924,0.401832,-0.054656,47,277,584,5664
1644167723.288304,-0.013,0.009949,-0.990112,0.144519,0.417099,0.006412,49,273,568,5648
1644167723.336626,-0.008545,0.005493,-0.995667,0.098718,0.233893,-0.039389,52,270,572,5696
1644167723.385058,-0.011108,0.008545,-0.993408,0.220855,0.340763,-0.039389,55,279,580,5600
1644167723.433385,-0.009521,0.010376,-0.990051,0.266656,0.356031,-0.054656,57,280,572,5584
1644167723.481794,-0.009033,0.010803,-0.994263,0.205588,0.432366,-0.024122,51,276,562,5648
1644167723.530188,-0.011414,0.012207,-0.988464,0.281924,0.386565,-0.054656,43,276,571,5696
1644167723.578572,-0.009888,0.010864,-0.991028,0.236122,0.401832,-0.161527,41,274,571,5632
1644167723.626941,-0.008667,0.00885,-0.991516,0.190321,0.417099,-0.039389,55,266,578,5584
1644167723.675364,-0.00885,0.008057,-0.990784,0.419328,0.310229,-0.054656,47,290,568,5600
1644167723.723751,-0.009644,0.009033,-0.990479,0.236122,0.493435,-0.192061,48,283,576,5648
1644167723.772191,-0.01123,0.010559,-0.99176,0.175053,0.279695,-0.069924,48,271,578,5664
1644167723.820574,-0.010925,0.005859,-0.991272,0.297191,0.432366,-0.008855,49,273,577,5600
1644167723.868977,-0.011353,0.012573,-0.992981,0.205588,0.401832,-0.100458,46,276,564,5664
1644167723.918779,-0.008423,0.006592,-0.991211,0.251389,0.401832,-0.024122,58,269,578,5664
1644167723.968327,-0.009827,0.01001,-0.990601,0.190321,0.310229,-0.192061,40,273,579,5664
1644167724.01877,-0.012207,0.011597,-0.993469,0.342992,0.539237,-0.207328,53,269,571,5600
1644167724.075336,-0.011169,0.009644,-0.99292,0.098718,0.24916,-0.176794,49,268,577,5648
1644167724.159252,-0.011536,0.009888,-0.990295,0.434595,0.432366,-0.024122,49,275,570,5648
1644167724.207643,-0.007568,0.008972,-0.993286,0.144519,0.371298,-0.085191,48,281,569,5600
1644167724.256024,-0.010925,0.007996,-0.988892,0.220855,0.432366,0.006412,40,268,568,5648
1644167724.304456,-0.009949,0.007874,-0.990051,0.08345,0.401832,-0.069924,47,268,575,5696
1644167724.352839,-0.01123,0.009583,-0.992737,0.281924,0.356031,-0.222595,51,276,580,5696
1644167724.401225,-0.010864,0.008606,-0.99115,0.175053,0.386565,-0.054656,45,268,579,5584
1644167724.449613,-0.009399,0.009521,-0.991699,0.190321,0.325496,-0.039389,46,279,590,5648
1644167724.497986,-0.010315,0.008545,-0.992004,0.297191,0.386565,-0.115725,59,277,572,5632
1644167724.546371,-0.006775,0.011414,-0.989746,0.220855,0.554504,-0.008855,48,262,576,5664
1644167724.594806,-0.012634,0.01123,-0.98999,0.08345,0.478168,-0.024122,54,273,577,5648
1644167724.643192,-0.009888,0.009827,-0.990784,0.159786,0.386565,-0.008855,54,285,570,5648
1644167724.691561,-0.011658,0.010315,-0.992676,0.281924,0.462901,-0.085191,59,268,570,5632
1644167724.739956,-0.010376,0.010925,-0.991272,0.175053,0.554504,-0.14626,47,285,577,5664
1644167724.788345,-0.011597,0.01001,-0.992188,0.190321,0.447634,-0.192061,59,280,579,5632
1644167724.836782,-0.010437,0.009033,-0.991516,0.236122,0.356031,-0.115725,55,269,590,5600
1644167724.885295,-0.009583,0.010681,-0.995361,0.220855,0.310229,-0.14626,42,277,582,5632
1644167724.933547,-0.008362,0.009644,-0.99054,0.113985,0.417099,-0.100458,53,269,573,5664
1644167724.981938,-0.009888,0.010864,-0.991699,0.052916,0.417099,-0.161527,53,269,576,5632
1644167725.030348,-0.010071,0.008118,-0.992126,0.312458,0.401832,-0.039389,48,271,580,5648
1644167725.081145,-0.01062,0.009766,-0.990112,0.068183,0.264427,-0.054656,51,279,578,5648
1644167725.130697,-0.009644,0.008484,-0.990906,0.144519,0.417099,-0.130992,48,274,580,5648
1644167725.179435,-0.01062,0.006348,-0.991516,0.236122,0.478168,0.021679,52,275,568,5664
1644167725.224416,-0.008423,0.011169,-0.990845,0.159786,0.478168,-0.024122,48,271,576,5648
1644167725.320625,-0.00885,0.007324,-0.992249,0.236122,0.371298,-0.192061,46,274,580,5664
1644167725.369024,-0.011719,0.011719,-0.988342,0.35826,0.340763,0.021679,49,275,568,5648
1644167725.417411,-0.010315,0.008423,-0.992371,0.236122,0.585038,0.021679,54,282,589,5600
1644167725.465803,-0.011108,0.010681,-0.989624,0.312458,0.462901,-0.100458,55,269,569,5632
1644167725.514194,-0.012024,0.011536,-0.991455,0.281924,0.401832,-0.130992,54,277,570,5696
1644167725.562608,-0.009155,0.009583,-0.99054,0.144519,0.386565,-0.192061,48,274,571,5648
1644167725.610992,-0.009399,0.009216,-0.992249,0.388794,0.447634,-0.039389,46,281,564,5664
1644167725.659379,-0.012756,0.011597,-0.989807,0.327725,0.325496,-0.024122,48,266,564,5664
1644167725.707772,-0.009766,0.013062,-0.990173,0.129252,0.539237,-0.008855,43,274,569,5648
1644167725.75616,-0.011169,0.009888,-0.991394,0.236122,0.371298,-0.130992,53,259,583,5600
1644167725.80468,-0.009888,0.009277,-0.991943,0.373527,0.417099,-0.222595,47,277,568,5600
1644167725.852975,-0.010986,0.008728,-0.991394,0.312458,0.462901,-0.115725,43,276,573,5648
1644167725.901364,-0.01239,0.009766,-0.991028,0.281924,0.264427,-0.008855,52,273,575,5632
1644167725.949768,-0.00824,0.011414,-0.989868,0.281924,0.432366,-0.14626,58,269,578,5696
1644167725.99814,-0.012085,0.010742,-0.991516,0.205588,0.386565,0.098015,51,269,576,5648
1644167726.058662,-0.009399,0.011169,-0.990662,0.220855,0.646107,-0.100458,49,282,575,5664
1644167726.094926,-0.007751,0.010071,-0.992004,0.266656,0.401832,-0.115725,45,275,584,5696
1644167726.143599,-0.009094,0.007812,-0.990906,0.175053,0.340763,-0.161527,51,274,571,5664
1644167726.192024,-0.009216,0.014099,-0.990662,0.113985,0.478168,-0.054656,48,276,578,5648
1644167726.242467,-0.011597,0.008179,-0.991272,0.388794,0.508702,-0.192061,52,273,572,5664
1644167726.292656,-0.008789,0.01062,-0.991821,0.327725,0.493435,-0.176794,45,280,575,5664
1644167726.337544,-0.009888,0.009827,-0.990967,0.281924,0.462901,-0.222595,51,281,573,5600
1644167726.433634,-0.008728,0.009583,-0.991516,0.144519,0.356031,-0.207328,54,277,572,5600
1644167726.482009,-0.008972,0.009644,-0.989868,0.205588,0.478168,-0.039389,55,279,571,5664
1644167726.530405,-0.010437,0.010742,-0.992737,0.312458,0.539237,-0.207328,49,273,575,5648
1644167726.578782,-0.011475,0.01001,-0.989929,0.220855,0.310229,-0.14626,46,274,576,5648
1644167726.62719,-0.011658,0.00885,-0.990967,0.373527,0.646107,-0.100458,51,269,573,5664
1644167726.67557,-0.00946,0.008362,-0.99115,0.205588,0.371298,0.052214,61,275,568,5584
1644167726.723982,-0.010498,0.008667,-0.98877,0.297191,0.294962,-0.054656,48,274,578,5632
1644167726.772345,-0.012817,0.009705,-0.990417,0.175053,0.325496,-0.085191,51,269,583,5584
1644167726.820741,-0.011047,0.007202,-0.994507,0.159786,0.371298,-0.130992,59,273,579,5632
1644167726.86915,-0.009705,0.009338,-0.989685,0.251389,0.294962,-0.314198,49,277,568,5648
1644167726.917569,-0.007935,0.01062,-0.992798,0.327725,0.401832,-0.024122,49,277,591,5664
1644167726.965955,-0.010864,0.007874,-0.992188,0.327725,0.310229,-0.069924,49,277,577,5600
1644167727.014347,-0.010986,0.008545,-0.990906,0.266656,0.325496,0.082748,46,271,573,5584
1644167727.089042,-0.010742,0.011292,-0.98999,0.175053,0.554504,-0.176794,43,279,573,5600
1644167727.112181,-0.009705,0.007385,-0.99585,0.297191,0.523969,-0.085191,42,285,579,5648
1644167727.159483,-0.00885,0.010742,-0.990662,0.129252,0.478168,-0.115725,53,281,571,5648
1644167727.207854,-0.01062,0.00824,-0.990417,0.266656,0.340763,-0.161527,45,270,579,5648
1644167727.256311,-0.007568,0.013428,-0.991028,0.342992,0.386565,-0.283664,47,273,575,5648
1644167727.304683,-0.00824,0.009033,-0.991638,0.312458,0.478168,-0.207328,48,269,580,5664
1644167727.35454,-0.010315,0.010132,-0.993347,0.190321,0.539237,-0.054656,55,281,571,5648
1644167727.404865,-0.008911,0.011963,-0.994324,0.190321,0.371298,0.006412,51,281,580,5584
1644167727.449918,-0.011108,0.008789,-0.99115,0.281924,0.539237,-0.085191,51,276,578,5552
1644167727.546587,-0.010925,0.011169,-0.989075,0.220855,0.432366,-0.085191,46,279,578,5600
1644167727.595233,-0.005676,0.010437,-0.990784,0.220855,0.539237,-0.14626,46,269,573,5648
1644167727.64338,-0.008057,0.011902,-0.992065,0.08345,0.523969,-0.100458,45,270,570,5664
1644167727.691765,-0.007019,0.007751,-0.992981,0.419328,0.371298,-0.14626,51,276,580,5664
1644167727.740157,-0.008911,0.01239,-0.989014,0.35826,0.371298,-0.008855,55,271,573,5600
1644167727.788543,-0.008606,0.009216,-0.989258,0.175053,0.432366,-0.039389,51,274,571,5648
1644167727.836929,-0.009583,0.008362,-0.991516,0.327725,0.417099,-0.100458,41,279,578,5664
1644167727.885373,-0.010132,0.009827,-0.990906,0.373527,0.462901,-0.161527,46,274,573,5696
1644167727.933787,-0.011047,0.011414,-0.992615,0.08345,0.325496,-0.069924,40,275,579,5600
1644167727.982249,-0.007568,0.009583,-0.992432,0.052916,0.233893,0.006412,49,280,577,5648
1644167728.030541,-0.010315,0.01239,-0.992371,0.205588,0.386565,-0.008855,47,277,582,5648
1644167728.081322,-0.007996,0.007507,-0.991394,0.480397,0.462901,0.036947,46,276,576,5632
1644167728.127339,-0.011108,0.009521,-0.991699,0.175053,0.493435,-0.176794,46,274,571,5584
1644167728.175683,-0.01001,0.00885,-0.994324,0.159786,0.386565,-0.054656,47,280,577,5648
1644167728.22408,-0.012024,0.011169,-0.99408,0.236122,0.462901,-0.008855,40,275,565,5648
1644167728.272437,-0.007385,0.00946,-0.991333,0.144519,0.218626,-0.222595,42,277,570,5648
1644167728.320857,-0.009399,0.011597,-0.990356,0.022382,0.371298,-0.024122,43,264,576,5600
1644167728.369239,-0.010132,0.009644,-0.991943,0.266656,0.401832,-0.115725,49,277,579,5648
1644167728.417855,-0.012146,0.009033,-0.991882,0.190321,0.264427,-0.25313,53,281,576,5664
1644167728.466554,-0.010681,0.010925,-0.991943,0.236122,0.371298,-0.207328,42,280,582,5648
1644167728.517155,-0.011719,0.010071,-0.993713,0.068183,0.264427,0.006412,53,262,573,5664
1644167728.567253,-0.011963,0.01062,-0.991577,0.297191,0.447634,-0.130992,45,277,575,5664
1644167728.61224,-0.011414,0.009399,-0.991211,0.205588,0.462901,-0.237863,49,282,568,5696
1644167728.707962,-0.011047,0.011108,-0.991089,0.281924,0.432366,-0.054656,43,266,580,5696
1644167728.756343,-0.012634,0.007385,-0.991089,0.297191,0.356031,-0.008855,48,276,569,5632
1644167728.804857,-0.009827,0.009277,-0.992188,0.404061,0.356031,-0.085191,55,276,576,5632
1644167728.853143,-0.009094,0.007568,-0.992065,0.281924,0.432366,-0.161527,55,283,576,5664
1644167728.901566,-0.009766,0.01239,-0.990845,0.129252,0.356031,-0.008855,46,281,569,5632
1644167728.949943,-0.00885,0.008484,-0.990662,0.236122,0.523969,-0.130992,53,262,576,5664
1644167728.998345,-0.012268,0.011475,-0.989319,0.205588,0.401832,-0.069924,45,277,570,5648
1644167729.061368,-0.010254,0.008423,-0.992859,0.144519,0.523969,0.021679,41,279,578,5584
1644167729.09799,-0.010437,0.009949,-0.990845,0.129252,0.340763,-0.115725,53,279,580,5664
1644167729.143569,-0.007507,0.009399,-0.993958,0.175053,0.386565,0.036947,49,268,575,5664
1644167729.19188,-0.007019,0.007446,-0.992126,0.068183,0.325496,-0.100458,55,279,576,5632
1644167729.240282,-0.012695,0.007202,-0.988403,0.281924,0.554504,-0.085191,58,283,566,5648
1644167729.288659,-0.009033,0.011536,-0.989502,0.205588,0.294962,-0.130992,46,279,573,5664
1644167729.33705,-0.010742,0.007751,-0.989685,0.297191,0.264427,-0.085191,48,276,573,5696
1644167729.385441,-0.01001,0.011536,-0.989685,0.159786,0.218626,-0.085191,54,273,577,5696
1644167729.433845,-0.010559,0.008667,-0.992188,0.266656,0.447634,-0.100458,54,265,575,5664
1644167729.482233,-0.009888,0.009033,-0.988831,0.373527,0.417099,-0.25313,49,287,575,5584
1644167729.530615,-0.010071,0.009827,-0.990356,0.175053,0.356031,-0.024122,49,273,582,5648
1644167729.579082,-0.010498,0.007874,-0.990295,0.266656,0.310229,-0.130992,47,282,575,5600
1644167729.628454,-0.012573,0.010376,-0.989319,0.205588,0.325496,0.052214,36,269,587,5696
1644167729.679464,-0.009094,0.011475,-0.993103,0.251389,0.325496,-0.069924,60,274,580,5696
1644167729.729068,-0.010315,0.009399,-0.992798,0.236122,0.493435,0.006412,47,282,565,5664
1644167729.820974,-0.011597,0.010132,-0.990906,0.342992,0.569771,-0.054656,43,276,573,5632
1644167729.869337,-0.011292,0.007568,-0.98938,0.129252,0.401832,-0.008855,46,269,573,5648
1644167729.917762,-0.009277,0.009583,-0.991821,0.022382,0.371298,-0.085191,58,281,566,5664
1644167729.966163,-0.00946,0.009277,-0.990051,0.327725,0.310229,-0.054656,51,279,576,5696
1644167730.014549,-0.011169,0.009644,-0.992676,0.175053,0.340763,-0.130992,51,281,576,5600
1644167730.06308,-0.012268,0.01178,-0.991333,0.220855,0.401832,-0.008855,40,270,572,5584
1644167730.111304,-0.011902,0.008789,-0.991455,0.266656,0.264427,-0.085191,45,280,579,5632
1644167730.159684,-0.010681,0.011047,-0.99054,0.205588,0.432366,-0.024122,47,280,570,5664
1644167730.20808,-0.012512,0.012512,-0.990723,0.281924,0.478168,-0.25313,48,271,569,5632
1644167730.256462,-0.009827,0.009888,-0.991394,0.297191,0.371298,-0.161527,47,273,575,5648
1644167730.304869,-0.010071,0.009216,-0.99292,0.220855,0.462901,-0.100458,46,276,580,5552
1644167730.353235,-0.011658,0.009766,-0.989441,0.220855,0.325496,-0.130992,47,270,568,5600
1644167730.401638,-0.012024,0.010132,-0.990417,0.251389,0.371298,-0.268397,52,282,584,5648
1644167730.450025,-0.011597,0.008301,-0.989075,0.312458,0.264427,-0.069924,51,274,576,5664
1644167730.49843,-0.009155,0.009705,-0.991821,0.052916,0.523969,-0.130992,52,273,572,5632
1644167730.546813,-0.009827,0.010559,-0.991516,0.342992,0.386565,-0.085191,53,271,571,5648
1644167730.595201,-0.010498,0.012634,-0.991821,0.159786,0.279695,-0.008855,51,281,578,5664
1644167730.643592,-0.010437,0.012695,-0.991943,0.175053,0.371298,-0.14626,45,273,579,5664
1644167730.691971,-0.00885,0.009216,-0.992798,0.266656,0.264427,-0.130992,46,269,573,5600
1644167730.740508,-0.009033,0.011108,-0.990234,0.144519,0.401832,-0.085191,52,270,570,5552
1644167730.792406,-0.013,0.010803,-0.990662,0.342992,0.310229,-0.039389,51,266,578,5600
1644167730.842331,-0.010254,0.010498,-0.99176,0.35826,0.356031,-0.085191,54,280,582,5584
1644167730.886875,-0.009155,0.007141,-0.990112,0.220855,0.417099,-0.085191,51,276,571,5584
1644167730.982478,-0.00885,0.008789,-0.98999,0.205588,0.371298,-0.329466,40,290,572,5584
1644167731.030748,-0.01239,0.01062,-0.99115,0.266656,0.386565,-0.008855,47,270,575,5648
1644167731.079226,-0.009399,0.008972,-0.991516,0.113985,0.417099,-0.100458,52,270,582,5648
1644167731.127498,-0.010315,0.009644,-0.992065,0.220855,0.462901,-0.130992,57,275,568,5664
1644167731.175882,-0.009521,0.011719,-0.98999,0.159786,0.371298,-0.024122,45,277,568,5648
1644167731.224334,-0.008728,0.008545,-0.990356,0.144519,0.371298,-0.176794,54,270,572,5664
1644167731.272643,-0.009033,0.008972,-0.991455,0.175053,0.447634,-0.192061,57,268,575,5696
1644167731.321055,-0.010254,0.008606,-0.993286,0.236122,0.264427,-0.14626,52,273,572,5648
1644167731.369455,-0.012268,0.008667,-0.991882,0.205588,0.401832,-0.192061,39,269,569,5584
1644167731.41784,-0.010071,0.008606,-0.989685,0.220855,0.462901,-0.268397,60,271,585,5664
1644167731.466231,-0.012146,0.01239,-0.990112,0.175053,0.371298,-0.115725,55,266,578,5632
1644167731.514697,-0.010742,0.00885,-0.993042,0.327725,0.386565,-0.222595,43,281,569,5648
1644167731.563025,-0.011841,0.00824,-0.994934,0.159786,0.24916,-0.085191,49,273,579,5648
1644167731.611371,-0.008301,0.01001,-0.990356,0.342992,0.417099,-0.024122,62,279,569,5696
1644167731.659806,-0.008728,0.009094,-0.995056,0.052916,0.340763,-0.14626,47,280,579,5584
1644167731.708181,-0.008118,0.00769,-0.992798,0.327725,0.493435,-0.176794,49,268,586,5648
1644167731.756525,-0.010193,0.011353,-0.991333,0.08345,0.417099,-0.115725,49,280,584,5584
1644167731.805394,-0.013733,0.005798,-0.993286,0.159786,0.417099,-0.100458,64,273,572,5664
1644167731.853538,-0.011963,0.008667,-0.993164,0.129252,0.462901,-0.100458,42,280,575,5648
1644167731.903888,-0.010498,0.01062,-0.994446,0.190321,0.523969,0.021679,49,280,570,5664
1644167731.954139,-0.01062,0.008423,-0.992554,0.266656,0.432366,-0.069924,43,271,571,5648
1644167732.00445,-0.00769,0.007263,-0.991821,0.190321,0.386565,-0.024122,48,281,576,5648
1644167732.095648,-0.010132,0.011292,-0.991394,0.342992,0.310229,-0.115725,46,274,576,5648
1644167732.1437,-0.010376,0.01062,-0.990234,0.251389,0.279695,-0.054656,54,282,570,5712
1644167732.192073,-0.009277,0.006042,-0.991394,0.342992,0.417099,-0.100458,40,275,572,5664
1644167732.24044,-0.010132,0.009827,-0.992126,0.266656,0.264427,-0.069924,52,275,579,5648
1644167732.28884,-0.008667,0.011414,-0.989502,0.190321,0.447634,-0.14626,52,270,570,5648
1644167732.337246,-0.008606,0.008728,-0.988281,0.35826,0.24916,-0.115725,57,287,577,5664
1644167732.385644,-0.011536,0.009094,-0.993286,0.297191,0.417099,-0.130992,49,263,568,5648
1644167732.434039,-0.012817,0.009338,-0.990356,0.281924,0.401832,-0.069924,51,271,573,5632
1644167732.482438,-0.010498,0.00885,-0.995422,0.236122,0.356031,-0.008855,52,277,572,5584
1644167732.530818,-0.01062,0.007202,-0.995239,0.312458,0.371298,0.067481,49,270,575,5648
1644167732.579219,-0.011841,0.008667,-0.990662,0.281924,0.432366,-0.054656,53,286,578,5664
1644167732.627599,-0.009644,0.011963,-0.992493,0.281924,0.386565,-0.161527,51,279,571,5632
1644167732.675993,-0.01062,0.008789,-0.992676,0.129252,0.417099,-0.207328,51,274,573,5696
1644167732.724376,-0.009644,0.01001,-0.991272,0.327725,0.462901,-0.130992,57,273,568,5584
1644167732.772785,-0.01001,0.008301,-0.991455,0.190321,0.218626,-0.14626,41,262,573,5648
1644167732.821173,-0.014404,0.008362,-0.989807,0.312458,0.264427,-0.130992,52,273,577,5584
1644167732.869558,-0.011108,0.009949,-0.993713,0.144519,0.462901,-0.176794,53,276,576,5648
1644167732.91823,-0.010986,0.009155,-0.992493,0.281924,0.340763,-0.115725,55,269,578,5648
1644167732.966384,-0.008545,0.009644,-0.990662,0.251389,0.478168,-0.008855,48,266,583,5648
1644167733.016306,-0.009644,0.012085,-0.991821,0.220855,0.371298,-0.085191,53,276,585,5696
1644167733.08245,-0.009827,0.007446,-0.992554,0.236122,0.294962,-0.085191,52,275,572,5552
1644167733.117414,-0.008301,0.008789,-0.990906,0.404061,0.478168,-0.161527,55,266,573,5664
1644167733.161016,-0.009155,0.010193,-0.989624,0.175053,0.340763,-0.115725,47,273,575,5648
1644167733.256659,-0.008789,0.008484,-0.992126,0.281924,0.371298,-0.085191,51,262,569,5664
1644167733.305298,-0.010742,0.010254,-0.992615,0.159786,0.294962,-0.008855,61,275,569,5696
1644167733.353463,-0.006531,0.009277,-0.990723,0.098718,0.340763,-0.176794,48,276,573,5632
1644167733.401838,-0.009583,0.012085,-0.991455,0.236122,0.310229,-0.161527,57,268,572,5584
1644167733.450233,-0.007812,0.010498,-0.992065,0.144519,0.386565,0.006412,49,280,577,5584
1644167733.498594,-0.013611,0.00946,-0.991577,0.175053,0.432366,-0.039389,46,274,566,5584
1644167733.547019,-0.011536,0.007935,-0.990601,0.129252,0.386565,0.021679,48,281,573,5648
1644167733.595401,-0.012207,0.008606,-0.991211,0.175053,0.340763,-0.192061,53,264,569,5664
1644167733.643799,-0.012146,0.009033,-0.991882,0.327725,0.356031,-0.115725,48,274,573,5600
1644167733.692196,-0.008667,0.00885,-0.98999,0.266656,0.371298,-0.192061,47,268,575,5648
1644167733.740578,-0.00946,0.011902,-0.989929,0.175053,0.462901,-0.054656,46,274,573,5552
1644167733.788978,-0.009033,0.010437,-0.992371,0.281924,0.356031,-0.14626,54,265,584,5632
1644167733.837398,-0.01062,0.01001,-0.989929,0.373527,0.417099,-0.176794,57,265,579,5648
1644167733.885799,-0.011841,0.009216,-0.991516,0.190321,0.310229,-0.039389,49,265,570,5664
1644167733.934187,-0.010559,0.010559,-0.990417,0.236122,0.462901,-0.039389,51,274,571,5648
1644167733.982584,-0.010193,0.013062,-0.990356,0.281924,0.508702,0.006412,59,277,568,5648
1644167734.030954,-0.005798,0.008972,-0.994446,0.175053,0.478168,-0.176794,49,282,572,5648
1644167734.087546,-0.009583,0.007751,-0.992249,0.175053,0.447634,-0.207328,48,276,580,5664
1644167734.128011,-0.009705,0.00946,-0.992188,0.205588,0.493435,-0.069924,52,268,568,5696
1644167734.176848,-0.009277,0.010132,-0.991638,0.068183,0.325496,-0.130992,54,270,584,5664
1644167734.22772,-0.006897,0.009216,-0.994202,0.144519,0.371298,-0.024122,48,276,578,5648
1644167734.277455,-0.012024,0.008728,-0.990967,0.175053,0.401832,-0.085191,47,270,575,5696
1644167734.322423,-0.010254,0.009094,-0.990906,0.175053,0.508702,-0.268397,46,279,571,5648
1644167734.418031,-0.007568,0.009216,-0.992493,0.08345,0.310229,-0.222595,33,275,579,5712
1644167734.46642,-0.009277,0.006287,-0.990723,0.08345,0.600305,0.021679,48,269,566,5632
1644167734.514861,-0.009216,0.008179,-0.989807,0.159786,0.478168,-0.14626,49,275,584,5664
1644167734.563237,-0.010803,0.011475,-0.989563,0.342992,0.478168,-0.222595,51,264,576,5696
1644167734.611593,-0.009094,0.010681,-0.992432,0.236122,0.356031,-0.192061,39,279,566,5712
1644167734.659979,-0.008057,0.009583,-0.994324,0.220855,0.478168,-0.008855,51,274,569,5664
1644167734.708379,-0.010071,0.010437,-0.990723,0.037649,0.24916,-0.100458,40,285,582,5664
1644167734.756747,-0.01062,0.010071,-0.990784,0.236122,0.417099,-0.008855,45,282,577,5600
1644167734.805168,-0.010315,0.006653,-0.989502,0.098718,0.432366,0.006412,46,279,571,5648
1644167734.853602,-0.008301,0.009094,-0.989502,0.266656,0.356031,-0.130992,45,273,575,5600
1644167734.901991,-0.011597,0.007812,-0.992371,0.327725,0.371298,-0.024122,45,265,575,5600
1644167734.950387,-0.011414,0.006348,-0.990173,0.236122,0.615573,-0.192061,58,269,571,5696
1644167734.998775,-0.008911,0.009827,-0.991699,0.404061,0.417099,-0.161527,53,279,576,5600
1644167735.065641,-0.007568,0.012146,-0.991211,0.236122,0.569771,-0.054656,57,275,579,5648
1644167735.096005,-0.009521,0.011475,-0.992493,0.342992,0.356031,-0.069924,51,279,576,5584
1644167735.143904,-0.010925,0.010376,-0.992371,0.35826,0.401832,-0.069924,47,270,577,5648
1644167735.192353,-0.011841,0.006775,-0.990723,0.373527,0.356031,-0.14626,51,264,578,5584
1644167735.240682,-0.01001,0.007996,-0.989746,0.297191,0.462901,-0.207328,59,282,577,5648
1644167735.289073,-0.011047,0.008545,-0.991516,0.175053,0.386565,-0.237863,52,268,577,5648
1644167735.337504,-0.010681,0.008118,-0.99353,0.251389,0.401832,-0.207328,49,273,577,5632
1644167735.388123,-0.009094,0.007935,-0.989746,0.312458,0.371298,0.006412,51,269,571,5648
1644167735.438048,-0.009094,0.006531,-0.98999,0.35826,0.279695,-0.115725,51,269,576,5648
1644167735.483128,-0.010254,0.009827,-0.991089,0.266656,0.462901,-0.207328,48,274,583,5648
1644167735.579402,-0.009399,0.008362,-0.991516,0.205588,0.24916,-0.054656,48,279,571,5696
1644167735.627778,-0.009583,0.009705,-0.993042,0.220855,0.432366,-0.115725,55,271,578,5648
1644167735.676175,-0.009644,0.009399,-0.989075,0.08345,0.356031,-0.176794,48,279,571,5648
1644167735.724837,-0.010742,0.010803,-0.99176,0.297191,0.447634,-0.054656,49,263,584,5648
1644167735.772995,-0.010193,0.009338,-0.994019,0.297191,0.356031,-0.115725,51,264,576,5632
1644167735.821364,-0.010193,0.010193,-0.990784,0.190321,0.417099,-0.115725,46,274,564,5696
1644167735.869812,-0.009277,0.008301,-0.992249,0.220855,0.462901,-0.14626,48,276,573,5584
1644167735.918194,-0.009583,0.010742,-0.99115,0.266656,0.478168,-0.283664,41,276,573,5664
1644167735.96658,-0.006958,0.007996,-0.991211,0.327725,0.386565,-0.115725,52,270,586,5696
1644167736.015173,-0.010376,0.009338,-0.992371,0.388794,0.386565,-0.024122,59,263,575,5648
1644167736.066931,-0.009705,0.011658,-0.992371,0.175053,0.508702,-0.161527,52,270,584,5632
1644167736.111763,-0.010071,0.01239,-0.990051,0.312458,0.478168,-0.100458,60,279,576,5664
1644167736.16011,-0.009338,0.010437,-0.987,0.175053,0.386565,-0.085191,47,263,586,5648
1644167736.208495,-0.010559,0.012024,-0.991333,0.144519,0.325496,-0.14626,51,279,585,5584
1644167736.256864,-0.007324,0.009644,-0.990967,0.266656,0.432366,-0.14626,47,277,572,5648
1644167736.305276,-0.010132,0.009705,-0.992493,0.388794,0.386565,-0.085191,48,276,573,5696
1644167736.353666,-0.007935,0.009644,-0.991882,0.129252,0.386565,-0.054656,52,282,568,5664
1644167736.402055,-0.009094,0.011047,-0.99054,0.266656,0.340763,-0.085191,52,275,582,5600
1644167736.450442,-0.007812,0.009277,-0.99176,0.281924,0.447634,-0.207328,49,275,579,5696
1644167736.499645,-0.009644,0.010315,-0.990479,0.266656,0.401832,-0.222595,45,265,577,5648
1644167736.549339,-0.010986,0.009766,-0.991089,0.266656,0.478168,-0.130992,57,273,572,5600
1644167736.599612,-0.009216,0.01001,-0.993286,0.159786,0.493435,-0.054656,43,274,569,5648
1644167736.644784,-0.008545,0.008362,-0.990967,0.236122,0.356031,-0.085191,47,280,579,5648
1644167736.740806,-0.010254,0.009766,-0.989319,0.08345,0.447634,-0.039389,41,279,576,5648
1644167736.789186,-0.012146,0.00946,-0.990112,0.297191,0.478168,-0.268397,52,277,572,5632
1644167736.837568,-0.009399,0.009094,-0.991638,0.144519,0.386565,-0.008855,52,280,575,5648
1644167736.885999,-0.010437,0.008179,-0.99115,0.327725,0.523969,-0.14626,54,277,563,5648
1644167736.934399,-0.008728,0.010132,-0.992981,0.144519,0.386565,-0.14626,49,277,568,5696
1644167736.982802,-0.011536,0.01239,-0.989502,0.08345,0.462901,-0.069924,48,271,569,5600
1644167737.031144,-0.010193,0.008423,-0.991394,0.205588,0.325496,-0.14626,49,263,575,5648
1644167737.085433,-0.011902,0.007446,-0.993103,0.35826,0.447634,-0.054656,53,276,578,5648
1644167737.127963,-0.010132,0.008972,-0.993469,0.312458,0.371298,-0.069924,48,276,573,5664
1644167737.176304,-0.008911,0.008179,-0.991211,0.205588,0.386565,-0.085191,49,275,577,5648
1644167737.224709,-0.010376,0.009094,-0.991333,-0.053954,0.340763,-0.054656,54,275,582,5584
1644167737.273071,-0.009583,0.010925,-0.99115,0.342992,0.279695,-0.115725,47,270,572,5664
1644167737.321467,-0.011963,0.008484,-0.993774,0.205588,0.508702,-0.100458,54,270,584,5632
1644167737.37151,-0.007935,0.01001,-0.989563,0.251389,0.508702,-0.024122,48,274,566,5648
1644167737.42172,-0.010315,0.010193,-0.990845,0.129252,0.386565,-0.085191,46,274,566,5648
1644167737.471947,-0.010132,0.011047,-0.992859,0.129252,0.523969,-0.085191,51,276,573,5664
1644167737.563456,-0.010681,0.010559,-0.993042,0.098718,0.508702,-0.329466,53,271,569,5584
1644167737.611809,-0.01178,0.009949,-0.992676,0.159786,0.447634,-0.069924,46,274,571,5696
1644167737.660199,-0.010132,0.012207,-0.990662,0.129252,0.508702,-0.222595,52,277,577,5536
1644167737.708591,-0.009155,0.011841,-0.99292,0.236122,0.478168,-0.100458,55,279,564,5648
1644167737.756973,-0.010742,0.012817,-0.990295,0.236122,0.325496,0.036947,57,275,568,5648
1644167737.805375,-0.009094,0.008606,-0.990356,0.205588,0.356031,-0.054656,43,274,569,5648
1644167737.853779,-0.012695,0.009766,-0.99292,0.266656,0.310229,0.067481,47,277,579,5648
1644167737.902303,-0.007202,0.008484,-0.993347,0.113985,0.401832,-0.161527,61,277,575,5664
1644167737.950592,-0.008606,0.009216,-0.991028,0.297191,0.478168,0.052214,43,279,573,5664
1644167737.998965,-0.009705,0.007263,-0.992859,0.327725,0.508702,-0.100458,52,282,572,5600
1644167738.057999,-0.010864,0.011475,-0.993713,0.266656,0.386565,-0.314198,45,268,568,5664
1644167738.095816,-0.008911,0.013611,-0.990601,0.129252,0.218626,-0.100458,52,277,582,5648
1644167738.144152,-0.007874,0.009399,-0.98877,0.236122,0.356031,-0.130992,49,273,579,5600
1644167738.192566,-0.008911,0.009888,-0.990723,0.327725,0.478168,-0.130992,52,275,579,5600
1644167738.240926,-0.011292,0.007751,-0.990234,0.190321,0.264427,-0.100458,46,276,578,5632
1644167738.289337,-0.012695,0.012939,-0.991516,0.175053,0.417099,-0.268397,52,277,572,5664
1644167738.337689,-0.00885,0.010681,-0.989319,0.220855,0.279695,-0.268397,58,276,571,5664
1644167738.386142,-0.009583,0.010376,-0.992249,0.175053,0.386565,0.082748,52,277,579,5648
1644167738.434769,-0.008179,0.011047,-0.994507,0.281924,0.340763,-0.024122,58,276,578,5648
1644167738.48522,-0.010071,0.011108,-0.990112,0.175053,0.310229,-0.069924,57,275,586,5664
1644167738.535653,-0.011169,0.012024,-0.989502,0.205588,0.447634,0.036947,51,276,583,5696
1644167738.580144,-0.010559,0.007935,-0.991455,0.08345,0.401832,-0.207328,45,277,570,5664
1644167738.676431,-0.01239,0.009277,-0.991272,0.281924,0.447634,-0.100458,51,271,571,5696
1644167738.724889,-0.008362,0.008484,-0.99176,0.220855,0.401832,-0.085191,52,270,565,5584
1644167738.773272,-0.01001,0.010986,-0.991333,0.144519,0.401832,-0.130992,59,270,577,5696
1644167738.82161,-0.012207,0.009827,-0.99408,0.129252,0.401832,-0.207328,49,280,570,5648
1644167738.870003,-0.01001,0.007751,-0.992004,0.220855,0.386565,-0.069924,51,276,569,5664
1644167738.918408,-0.012024,0.009033,-0.989807,0.144519,0.417099,-0.207328,41,279,573,5632
1644167738.966788,-0.011292,0.011475,-0.992432,0.251389,0.294962,0.021679,59,275,575,5664
1644167739.015262,-0.008545,0.009399,-0.991577,0.327725,0.340763,-0.115725,48,276,566,5632
1644167739.066079,-0.011353,0.010681,-0.989502,0.190321,0.462901,-0.161527,53,274,571,5600
1644167739.111904,-0.009949,0.005371,-0.993042,0.190321,0.371298,0.036947,55,279,583,5648
1644167739.160334,-0.010437,0.012512,-0.99054,0.236122,0.386565,-0.176794,49,277,570,5664
1644167739.208711,-0.011108,0.013062,-0.991699,0.342992,0.294962,-0.039389,47,280,568,5664
1644167739.257094,-0.011475,0.010437,-0.99054,0.190321,0.432366,-0.207328,57,275,579,5664
1644167739.305479,-0.011536,0.009216,-0.989929,0.236122,0.523969,-0.161527,53,279,569,5584
1644167739.353857,-0.008606,0.007812,-0.991394,0.205588,0.432366,-0.054656,53,264,580,5696
1644167739.40229,-0.008362,0.010193,-0.989502,0.205588,0.386565,-0.283664,46,276,573,5664
1644167739.450626,-0.010925,0.010986,-0.989807,0.251389,0.401832,-0.008855,52,282,575,5648
1644167739.49901,-0.009827,0.007202,-0.994263,0.190321,0.432366,0.052214,48,274,580,5600
1644167739.547506,-0.011536,0.007935,-0.989624,0.220855,0.401832,-0.161527,47,268,582,5664
1644167739.596504,-0.00769,0.01178,-0.991699,0.266656,0.417099,-0.130992,45,275,565,5648
1644167739.647092,-0.00885,0.012146,-0.991455,0.159786,0.371298,0.021679,42,273,572,5632
1644167739.697217,-0.007263,0.010376,-0.992065,0.205588,0.462901,-0.192061,51,271,569,5664
1644167739.742185,-0.010376,0.009644,-0.991943,0.220855,0.508702,-0.130992,42,268,582,5664
1644167739.837811,-0.008728,0.009705,-0.99054,0.35826,0.523969,-0.192061,45,273,572,5696
1644167739.8862,-0.009827,0.010437,-0.991394,0.373527,0.432366,-0.14626,53,279,573,5632
1644167739.934881,-0.008606,0.011475,-0.990479,0.144519,0.386565,-0.054656,45,270,579,5648
1644167739.982997,-0.010925,0.009766,-0.991882,0.419328,0.478168,-0.100458,48,276,576,5648
1644167740.031366,-0.009705,0.010681,-0.991516,0.113985,0.371298,-0.024122,49,275,577,5648
1644167740.079832,-0.009888,0.010254,-0.99115,0.312458,0.447634,-0.024122,46,283,573,5664
1644167740.128112,-0.009705,0.011719,-0.993164,0.419328,0.386565,-0.298931,49,258,589,5600
1644167740.176498,-0.009399,0.010437,-0.995056,0.175053,0.523969,-0.115725,55,286,571,5712
1644167740.224888,-0.00647,0.009277,-0.990967,0.35826,0.386565,-0.024122,58,276,580,5664
1644167740.273291,-0.010071,0.009277,-0.991089,0.205588,0.493435,0.067481,40,277,572,5664
1644167740.321686,-0.009277,0.010864,-0.991882,0.342992,0.340763,0.12855,47,285,575,5648
1644167740.37007,-0.010254,0.010498,-0.991699,0.159786,0.523969,-0.039389,45,275,579,5632
1644167740.418464,-0.010864,0.011841,-0.99115,0.327725,0.356031,-0.115725,46,281,562,5584
1644167740.466838,-0.011597,0.009277,-0.990662,0.144519,0.386565,-0.008855,60,269,583,5648
1644167740.515238,-0.008423,0.009094,-0.990662,0.129252,0.401832,-0.14626,46,276,585,5696
1644167740.563636,-0.011719,0.010559,-0.990417,0.190321,0.478168,-0.130992,51,281,578,5648
1644167740.61202,-0.010803,0.010071,-0.992004,0.190321,0.447634,-0.130992,36,279,585,5600
1644167740.660414,-0.009399,0.009766,-0.992126,0.251389,0.310229,-0.054656,42,273,589,5648
1644167740.709062,-0.012695,0.01001,-0.991455,0.144519,0.417099,-0.115725,58,276,578,5712
1644167740.757879,-0.009949,0.009155,-0.991638,0.236122,0.462901,-0.161527,53,266,569,5648
1644167740.808931,-0.012024,0.01001,-0.991272,0.236122,0.371298,-0.054656,40,275,582,5696
1644167740.859421,-0.010498,0.009155,-0.990967,0.236122,0.356031,-0.054656,47,277,575,5696
1644167740.903869,-0.010498,0.008789,-0.991943,0.159786,0.432366,-0.14626,53,279,569,5648
1644167740.999175,-0.010498,0.010132,-0.992859,0.205588,0.569771,-0.069924,41,264,576,5648
1644167741.061216,-0.008789,0.010681,-0.990173,0.266656,0.447634,-0.207328,49,273,579,5584
1644167741.103127,-0.01062,0.01123,-0.992065,0.052916,0.432366,-0.14626,65,269,587,5584
1644167741.144342,-0.010925,0.008118,-0.992188,0.175053,0.294962,-0.100458,46,274,559,5664
1644167741.192739,-0.007935,0.01062,-0.990051,0.373527,0.417099,-0.069924,53,283,576,5648
1644167741.241105,-0.010864,0.010803,-0.991943,0.205588,0.478168,-0.085191,51,266,583,5648
1644167741.28949,-0.010437,0.010559,-0.990906,0.190321,0.24916,-0.115725,51,276,573,5648
1644167741.337871,-0.008606,0.009277,-0.990356,0.373527,0.585038,-0.192061,43,279,578,5648
1644167741.386276,-0.010437,0.008057,-0.98999,0.434595,0.417099,-0.100458,48,266,571,5664
1644167741.434814,-0.011902,0.009888,-0.991699,0.129252,0.508702,-0.14626,47,270,570,5648
1644167741.483297,-0.009888,0.009949,-0.990723,0.236122,0.310229,-0.100458,58,274,587,5664
1644167741.532017,-0.008667,0.00769,-0.99292,0.297191,0.523969,-0.115725,54,275,575,5664
1644167741.582554,-0.009216,0.010864,-0.988586,0.190321,0.432366,-0.130992,54,265,572,5648
1644167741.633327,-0.008057,0.008362,-0.992981,0.190321,0.508702,-0.100458,52,273,568,5584
1644167741.677862,-0.008728,0.011536,-0.991516,0.144519,0.447634,-0.054656,49,285,575,5600
1644167741.77343,-0.009033,0.009949,-0.989197,0.297191,0.417099,0.189618,51,271,578,5600
1644167741.821801,-0.009094,0.010071,-0.992615,0.159786,0.432366,-0.008855,45,268,577,5648
1644167741.87021,-0.015259,0.009888,-0.991821,0.144519,0.462901,-0.14626,51,269,573,5664
1644167741.918572,-0.008057,0.008423,-0.991333,0.205588,0.432366,-0.130992,47,273,563,5584
1644167741.966983,-0.008423,0.012817,-0.992126,0.144519,0.447634,-0.039389,60,264,578,5712
1644167742.015389,-0.008423,0.012512,-0.991211,0.281924,0.340763,-0.054656,51,276,576,5632
1644167742.066731,-0.010681,0.010315,-0.990356,0.281924,0.432366,-0.207328,53,274,580,5664
1644167742.112228,-0.010376,0.008728,-0.990967,0.281924,0.371298,-0.14626,49,270,575,5632
1644167742.160524,-0.00946,0.010315,-0.993042,0.480397,0.188092,-0.069924,52,263,568,5664
1644167742.208909,-0.010254,0.010254,-0.993164,0.220855,0.401832,-0.100458,58,281,569,5648
1644167742.257301,-0.009766,0.008972,-0.992004,0.281924,0.401832,-0.069924,47,273,579,5696
1644167742.30567,-0.010925,0.010803,-0.989929,0.175053,0.325496,-0.024122,45,265,570,5648
1644167742.354093,-0.007263,0.011047,-0.990173,0.342992,0.493435,-0.115725,48,279,564,5648
1644167742.402481,-0.006592,0.00885,-0.992004,0.281924,0.447634,-0.024122,52,273,591,5664
1644167742.450855,-0.010986,0.010254,-0.99408,0.220855,0.462901,-0.192061,43,266,580,5584
1644167742.499259,-0.006226,0.008606,-0.990845,0.297191,0.447634,-0.069924,53,274,587,5664
1644167742.547645,-0.012268,0.011292,-0.995117,0.297191,0.447634,-0.024122,49,273,572,5648
1644167742.596034,-0.010742,0.011047,-0.990234,0.236122,0.432366,-0.130992,43,274,585,5664
1644167742.644425,-0.009827,0.015564,-0.990601,0.251389,0.447634,-0.161527,46,276,583,5600
1644167742.693215,-0.012207,0.010864,-0.990845,0.236122,0.554504,-0.115725,55,262,576,5648
1644167742.743702,-0.008301,0.009399,-0.991455,0.190321,0.539237,-0.130992,46,276,566,5648
1644167742.793752,-0.010071,0.007446,-0.988586,0.220855,0.340763,-0.024122,53,274,580,5600
1644167742.838726,-0.008423,0.010925,-0.989563,0.220855,0.478168,-0.085191,46,274,576,5648
1644167742.934956,-0.008362,0.010315,-0.991699,0.281924,0.493435,-0.130992,60,274,573,5664
1644167742.983212,-0.009155,0.012939,-0.992004,0.159786,0.523969,-0.039389,48,269,564,5664
1644167743.031571,-0.009033,0.008057,-0.990967,0.159786,0.523969,-0.207328,42,277,577,5632
1644167743.084383,-0.007996,0.012451,-0.990356,0.175053,0.447634,-0.268397,47,270,572,5648
1644167743.128382,-0.010498,0.011047,-0.994812,0.281924,0.264427,-0.100458,46,274,571,5600
1644167743.176705,-0.009216,0.008179,-0.992981,0.281924,0.218626,-0.085191,51,274,583,5648
1644167743.225144,-0.010559,0.007507,-0.992615,0.297191,0.325496,-0.161527,45,275,577,5600
1644167743.273503,-0.009033,0.010193,-0.991028,0.388794,0.447634,-0.054656,52,285,582,5648
1644167743.321903,-0.009888,0.009766,-0.989807,0.327725,0.294962,0.006412,53,266,569,5696
1644167743.370245,-0.008118,0.011353,-0.988953,0.113985,0.462901,-0.024122,45,275,572,5600
1644167743.41866,-0.010315,0.010559,-0.993896,0.159786,0.386565,-0.222595,51,281,571,5648
1644167743.46705,-0.009521,0.008667,-0.992004,0.35826,0.401832,-0.161527,47,273,577,5696
1644167743.515412,-0.010376,0.008667,-0.992004,0.236122,0.386565,-0.115725,49,275,575,5648
1644167743.563842,-0.007568,0.011658,-0.991089,0.113985,0.233893,-0.161527,48,271,573,5632
1644167743.61225,-0.011597,0.006531,-0.991394,0.281924,0.401832,-0.024122,53,276,580,5664
1644167743.66062,-0.007141,0.007996,-0.990723,0.220855,0.310229,-0.069924,54,270,579,5584
1644167743.709012,-0.008301,0.011353,-0.992371,0.266656,0.279695,-0.100458,46,274,578,5648
1644167743.758145,-0.010376,0.011047,-0.991882,0.068183,0.462901,-0.039389,51,266,587,5664
1644167743.807182,-0.010498,0.010071,-0.991211,0.205588,0.447634,-0.161527,46,279,571,5664
1644167743.858307,-0.00824,0.009949,-0.992004,0.297191,0.432366,-0.100458,46,269,583,5664
1644167743.902993,-0.011353,0.007263,-0.990784,0.297191,0.508702,-0.283664,57,265,568,5664
1644167743.999368,-0.010071,0.012146,-0.990845,0.297191,0.585038,0.006412,47,275,570,5664
1644167744.061035,-0.010742,0.011536,-0.991882,0.388794,0.539237,-0.222595,46,283,571,5664
1644167744.098258,-0.007263,0.010193,-0.991455,0.037649,0.371298,-0.207328,42,277,572,5648
1644167744.144719,-0.009094,0.008972,-0.991577,0.113985,0.417099,-0.069924,55,274,566,5600
1644167744.192932,-0.011353,0.009644,-0.990723,0.388794,0.340763,-0.069924,49,277,579,5648
1644167744.241311,-0.008667,0.011658,-0.991333,0.327725,0.386565,-0.176794,48,274,580,5600
1644167744.289684,-0.00946,0.011658,-0.99176,0.205588,0.371298,-0.024122,48,262,590,5648
1644167744.338082,-0.008301,0.011047,-0.992554,0.236122,0.325496,0.036947,59,263,579,5600
1644167744.386477,-0.011536,0.011047,-0.992126,0.220855,0.417099,0.021679,48,274,573,5648
1644167744.434875,-0.009216,0.007996,-0.990906,0.297191,0.371298,-0.069924,60,279,580,5664
1644167744.483284,-0.007446,0.009399,-0.989319,0.159786,0.508702,-0.008855,49,265,579,5600
1644167744.533054,-0.006897,0.012268,-0.990662,0.205588,0.356031,0.006412,51,274,571,5648
1644167744.583344,-0.01178,0.011108,-0.990662,0.266656,0.325496,0.021679,51,271,580,5632
1644167744.633484,-0.005676,0.010803,-0.989868,0.312458,0.554504,0.021679,51,274,571,5696
1644167744.725403,-0.012085,0.010681,-0.99176,0.312458,0.417099,0.036947,46,269,569,5632
1644167744.773615,-0.012146,0.009949,-0.991455,0.266656,0.432366,-0.14626,52,270,570,5648
1644167744.821989,-0.01062,0.010803,-0.990906,0.205588,0.325496,-0.176794,38,282,575,5696
1644167744.87037,-0.010559,0.009705,-0.991211,0.190321,0.417099,-0.115725,42,287,570,5648
1644167744.91881,-0.01001,0.009583,-0.991455,0.297191,0.493435,-0.14626,58,274,566,5632
1644167744.967193,-0.013733,0.010742,-0.991211,0.08345,0.325496,0.021679,53,286,583,5664
1644167745.015586,-0.010864,0.007568,-0.992859,0.129252,0.264427,-0.069924,41,269,580,5712
1644167745.069246,-0.008606,0.011169,-0.99176,0.388794,0.539237,-0.115725,55,274,576,5632
1644167745.112372,-0.010986,0.010681,-0.989014,0.144519,0.462901,0.021679,47,280,586,5648
1644167745.160728,-0.010254,0.008301,-0.991516,0.266656,0.508702,-0.085191,46,276,580,5696
1644167745.209123,-0.008972,0.011108,-0.991272,0.159786,0.508702,-0.024122,53,276,576,5648
1644167745.257504,-0.012024,0.008728,-0.989746,0.281924,0.371298,-0.207328,48,271,569,5696
1644167745.305898,-0.010681,0.012085,-0.991333,0.312458,0.340763,-0.161527,53,276,578,5664
1644167745.354282,-0.009888,0.011475,-0.992004,0.205588,0.523969,0.082748,57,280,570,5648
1644167745.402693,-0.011292,0.010315,-0.99292,0.175053,0.432366,-0.115725,45,268,572,5648
1644167745.451069,-0.011597,0.009888,-0.993469,0.205588,0.371298,-0.14626,54,275,575,5664
1644167745.499434,-0.010742,0.01062,-0.990845,0.205588,0.447634,0.006412,46,276,578,5760
1644167745.547849,-0.008484,0.008423,-0.990112,0.342992,0.325496,-0.069924,46,271,571,5648
1644167745.596724,-0.009155,0.006897,-0.991394,0.35826,0.493435,-0.329466,53,271,578,5648
1644167745.645839,-0.01123,0.008301,-0.989746,0.205588,0.401832,-0.024122,54,270,575,5664
1644167745.696278,-0.012024,0.007446,-0.989441,0.098718,0.401832,-0.192061,47,277,582,5600
1644167745.746444,-0.00708,0.010742,-0.991577,0.098718,0.523969,-0.176794,52,268,570,5600
1644167745.838223,-0.009521,0.008911,-0.99115,0.236122,0.356031,-0.100458,52,270,575,5696
1644167745.886583,-0.009094,0.009827,-0.992126,0.068183,0.462901,-0.207328,46,283,576,5632
1644167745.935056,-0.011292,0.008972,-0.992981,0.159786,0.401832,-0.130992,46,269,573,5552
1644167745.983413,-0.011414,0.011414,-0.987915,0.251389,0.447634,-0.161527,47,275,575,5648
1644167746.031796,-0.011047,0.01001,-0.99054,0.08345,0.386565,-0.039389,51,286,578,5648
1644167746.082419,-0.010498,0.012878,-0.991882,0.220855,0.310229,-0.14626,46,271,580,5648
1644167746.128534,-0.011536,0.009888,-0.989868,0.297191,0.432366,-0.054656,54,282,582,5664
1644167746.176918,-0.011719,0.008179,-0.989624,0.266656,0.478168,-0.008855,57,277,582,5648
1644167746.225312,-0.005859,0.010437,-0.988403,0.052916,0.294962,-0.115725,53,276,576,5664
1644167746.273681,-0.010132,0.00824,-0.991821,0.266656,0.279695,-0.176794,46,269,573,5584
1644167746.32214,-0.01062,0.007996,-0.990234,0.236122,0.569771,-0.237863,52,260,572,5648
1644167746.37048,-0.009949,0.009644,-0.992004,0.281924,0.371298,-0.054656,47,280,582,5648
1644167746.418875,-0.011719,0.007202,-0.989136,0.175053,0.371298,-0.207328,51,269,564,5584
1644167746.467299,-0.009521,0.010742,-0.99115,0.159786,0.371298,0.021679,47,282,577,5664
1644167746.517283,-0.007874,0.009155,-0.989136,0.175053,0.294962,-0.161527,62,276,578,5600
1644167746.567885,-0.009155,0.010559,-0.991943,0.251389,0.462901,-0.237863,61,285,582,5648
1644167746.617785,-0.008972,0.009338,-0.990723,0.220855,0.356031,-0.069924,47,270,579,5664
1644167746.709242,-0.007568,0.010681,-0.990723,0.236122,0.417099,-0.421069,45,275,575,5648
1644167746.757588,-0.01001,0.009216,-0.994324,0.35826,0.325496,-0.008855,52,268,568,5632
1644167746.806118,-0.011047,0.010193,-0.990845,0.175053,0.310229,-0.054656,52,273,584,5648
1644167746.854437,-0.006775,0.012329,-0.99115,0.236122,0.569771,-0.14626,52,270,572,5648
1644167746.902814,-0.009583,0.00885,-0.991821,0.190321,0.371298,-0.161527,47,270,570,5696
1644167746.951223,-0.009705,0.012939,-0.991943,0.220855,0.447634,-0.130992,52,275,572,5648
1644167746.999577,-0.010559,0.013794,-0.991028,0.251389,0.523969,-0.100458,53,276,583,5632
1644167747.057623,-0.008667,0.009277,-0.989075,0.281924,0.310229,-0.024122,53,279,578,5632
1644167747.09838,-0.012695,0.008423,-0.990723,0.098718,0.432366,-0.008855,41,279,576,5664
1644167747.144759,-0.010254,0.010742,-0.992126,0.281924,0.386565,-0.192061,57,273,572,5584
1644167747.193148,-0.01239,0.007507,-0.990967,0.113985,0.523969,-0.024122,51,276,576,5664
1644167747.241512,-0.009399,0.008606,-0.992798,0.281924,0.493435,-0.115725,53,276,571,5600
1644167747.289897,-0.009155,0.012329,-0.993164,0.327725,0.432366,0.067481,46,281,569,5664
1644167747.338293,-0.007141,0.014282,-0.990784,0.159786,0.356031,-0.039389,51,279,580,5584
1644167747.386693,-0.009155,0.00885,-0.99292,0.129252,0.554504,-0.039389,66,275,577,5664
1644167747.435293,-0.009216,0.008545,-0.989441,0.297191,0.493435,-0.14626,55,276,576,5696
1644167747.483465,-0.015015,0.008301,-0.993774,0.251389,0.340763,-0.192061,48,279,573,5648
1644167747.53187,-0.008789,0.01123,-0.993774,0.281924,0.340763,-0.161527,48,269,576,5648
1644167747.580559,-0.009399,0.00946,-0.990906,0.251389,0.340763,0.006412,46,274,578,5600
1644167747.631189,-0.010376,0.010315,-0.991821,0.205588,0.325496,-0.115725,53,274,580,5600
1644167747.68153,-0.008179,0.009766,-0.992615,0.129252,0.340763,-0.130992,46,269,573,5696
1644167747.726323,-0.01062,0.009827,-0.994873,0.205588,0.569771,-0.161527,45,277,579,5600
1644167747.822437,-0.008545,0.00885,-0.991699,0.236122,0.493435,-0.207328,54,275,577,5648
1644167747.870628,-0.011841,0.007874,-0.993347,0.404061,0.264427,-0.130992,57,273,579,5648
1644167747.918985,-0.007996,0.010925,-0.98938,0.266656,0.233893,-0.25313,45,270,579,5648
1644167747.967412,-0.013245,0.01178,-0.99176,0.236122,0.294962,-0.039389,43,276,576,5648
1644167748.015768,-0.007507,0.011597,-0.99054,0.190321,0.417099,-0.130992,46,266,583,5648
1644167748.068563,-0.009521,0.007568,-0.992126,0.266656,0.417099,-0.085191,49,285,575,5696
1644167748.112641,-0.010376,0.009827,-0.990479,0.190321,0.310229,-0.14626,45,285,579,5696
1644167748.160945,-0.012634,0.006531,-0.990479,0.175053,0.63084,-0.039389,40,277,579,5584
1644167748.209326,-0.009399,0.009155,-0.991028,0.266656,0.386565,-0.14626,48,281,578,5664
1644167748.257718,-0.010132,0.009094,-0.989807,0.113985,0.386565,-0.085191,38,270,577,5696
1644167748.306076,-0.01001,0.007629,-0.993286,0.129252,0.417099,-0.100458,55,264,578,5632
1644167748.35453,-0.007751,0.00824,-0.991882,0.220855,0.417099,-0.054656,41,266,569,5712
1644167748.40291,-0.01123,0.010071,-0.992249,0.327725,0.371298,-0.176794,54,277,565,5648
1644167748.451276,-0.012207,0.009521,-0.99115,0.281924,0.493435,-0.069924,47,280,565,5552
1644167748.499673,-0.011047,0.009521,-0.988647,0.388794,0.462901,-0.085191,54,277,572,5632
1644167748.548037,-0.012512,0.010986,-0.989197,0.266656,0.386565,-0.054656,48,274,578,5600
1644167748.596447,-0.010803,0.00885,-0.99054,0.175053,0.432366,-0.085191,55,279,569,5648
1644167748.644844,-0.008423,0.010315,-0.987915,0.220855,0.462901,-0.161527,49,263,575,5648
1644167748.693233,-0.010498,0.008911,-0.993958,0.266656,0.462901,-0.085191,42,270,579,5648
1644167748.74181,-0.009888,0.010437,-0.991333,0.220855,0.462901,-0.25313,52,268,572,5696
1644167748.792424,-0.010864,0.007874,-0.99115,0.297191,0.493435,-0.024122,43,276,569,5648
1644167748.843784,-0.010986,0.007935,-0.994202,0.312458,0.340763,-0.008855,57,275,579,5600
1644167748.888263,-0.011841,0.010803,-0.988647,0.159786,0.478168,-0.130992,49,275,570,5648
1644167748.983624,-0.010803,0.011963,-0.99115,0.266656,0.340763,-0.100458,48,274,576,5600
1644167749.03201,-0.010681,0.009216,-0.992615,0.205588,0.447634,-0.100458,39,274,569,5584
1644167749.081779,-0.009521,0.00824,-0.989136,0.312458,0.432366,-0.161527,55,271,573,5648
1644167749.128778,-0.007507,0.00708,-0.990295,0.251389,0.340763,-0.176794,52,265,561,5696
1644167749.177142,-0.012695,0.009216,-0.991211,0.175053,0.356031,0.006412,60,271,571,5600
1644167749.225506,-0.010986,0.008423,-0.991089,0.373527,0.462901,-0.085191,52,273,570,5648
1644167749.273897,-0.009521,0.010376,-0.991699,-0.02342,0.294962,-0.069924,48,279,580,5664
1644167749.322323,-0.009216,0.01001,-0.991516,0.144519,0.401832,0.067481,49,268,575,5600
1644167749.370703,-0.013672,0.007141,-0.990967,0.281924,0.417099,-0.14626,51,276,573,5600
1644167749.419092,-0.008484,0.010132,-0.991089,0.266656,0.371298,-0.069924,58,262,578,5712
1644167749.467479,-0.009094,0.008972,-0.991821,0.205588,0.356031,-0.314198,60,281,571,5552
1644167749.515867,-0.012756,0.009155,-0.988831,0.266656,0.218626,-0.115725,54,270,572,5600
1644167749.564283,-0.00824,0.00946,-0.989868,0.190321,0.371298,-0.024122,49,275,565,5632
1644167749.612662,-0.009521,0.010437,-0.992493,0.159786,0.478168,-0.176794,51,271,566,5632
1644167749.661019,-0.013306,0.009705,-0.990234,0.113985,0.203359,0.036947,48,279,576,5664
1644167749.709418,-0.010254,0.010254,-0.992493,0.129252,0.432366,-0.085191,49,275,572,5648
1644167749.757786,-0.009827,0.01001,-0.991089,0.236122,0.432366,-0.115725,52,273,572,5536
1644167749.806215,-0.009827,0.012878,-0.993164,0.388794,0.447634,-0.14626,42,280,577,5648
1644167749.854678,-0.00824,0.007568,-0.993164,0.388794,0.356031,-0.161527,40,277,575,5648
1644167749.904644,-0.012878,0.010864,-0.991577,0.190321,0.523969,-0.14626,47,270,572,5648
1644167749.954785,-0.01123,0.008545,-0.991821,0.419328,0.462901,-0.268397,52,280,570,5696
1644167750.004884,-0.008301,0.00769,-0.99469,0.327725,0.325496,-0.039389,40,270,582,5584
1644167750.075622,-0.010071,0.009949,-0.993042,0.220855,0.432366,-0.192061,59,268,579,5696
1644167750.145038,-0.010681,0.009399,-0.990723,0.175053,0.478168,-0.237863,41,276,569,5584
1644167750.193341,-0.00824,0.011597,-0.990234,0.297191,0.401832,-0.100458,49,273,575,5600
1644167750.24171,-0.008972,0.007141,-0.989746,0.205588,0.356031,-0.14626,45,277,572,5648
1644167750.290121,-0.009277,0.006592,-0.991333,0.251389,0.447634,-0.069924,60,281,566,5600
1644167750.338502,-0.010925,0.012085,-0.99292,0.266656,0.417099,-0.085191,55,271,573,5664
1644167750.386903,-0.01001,0.009583,-0.991821,0.068183,0.386565,-0.085191,52,270,572,5600
1644167750.435281,-0.010437,0.008972,-0.991455,-0.038687,0.401832,-0.192061,57,280,575,5664
1644167750.483681,-0.011536,0.009277,-0.991882,0.281924,0.447634,-0.25313,49,275,570,5600
1644167750.532079,-0.007568,0.005981,-0.988892,0.266656,0.294962,-0.298931,48,281,583,5664
1644167750.58044,-0.011169,0.009155,-0.992676,0.266656,0.63084,-0.100458,61,277,572,5760
1644167750.628852,-0.00946,0.010498,-0.99176,0.281924,0.325496,0.021679,59,275,577,5584
1644167750.677245,-0.010803,0.012268,-0.990723,0.251389,0.340763,-0.069924,45,285,570,5648
1644167750.72562,-0.008789,0.013977,-0.991943,0.098718,0.371298,0.052214,53,269,573,5648
1644167750.77404,-0.011475,0.01062,-0.990601,0.205588,0.447634,-0.008855,52,280,579,5584
1644167750.822422,-0.009705,0.010254,-0.990601,0.281924,0.462901,-0.130992,52,273,572,5664
1644167750.870847,-0.009766,0.010132,-0.99115,0.281924,0.508702,-0.024122,49,282,572,5600
1644167750.919204,-0.012207,0.008484,-0.991516,0.327725,0.417099,-0.069924,51,288,571,5648
1644167750.967576,-0.010315,0.011292,-0.990173,0.190321,0.294962,-0.024122,51,271,580,5664
1644167751.016035,-0.009338,0.007141,-0.993286,0.205588,0.279695,-0.14626,46,264,578,5648
1644167751.078634,-0.009644,0.010315,-0.992615,0.129252,0.233893,-0.130992,52,273,577,5584
1644167751.113045,-0.006897,0.009094,-0.992432,0.205588,0.386565,0.036947,54,280,570,5664
1644167751.161879,-0.009766,0.00592,-0.990051,0.129252,0.401832,-0.115725,54,260,579,5648
1644167751.257904,-0.00885,0.010132,-0.992188,0.190321,0.340763,-0.192061,51,274,566,5696
1644167751.306301,-0.010376,0.008667,-0.993164,0.205588,0.371298,-0.039389,47,280,565,5648
1644167751.354848,-0.01239,0.007996,-0.990601,0.159786,0.325496,-0.176794,45,270,570,5696
1644167751.403112,-0.011414,0.008911,-0.993042,0.098718,0.401832,0.12855,52,263,591,5600
1644167751.451484,-0.007751,0.006104,-0.993286,0.434595,0.417099,0.036947,53,276,571,5696
1644167751.499883,-0.01178,0.009033,-0.990967,0.342992,0.417099,-0.192061,53,274,564,5648
1644167751.548263,-0.009155,0.008484,-0.993347,0.434595,0.310229,-0.069924,49,270,575,5600
1644167751.596628,-0.010254,0.010132,-0.99054,0.144519,0.447634,-0.130992,51,274,571,5648
1644167751.645074,-0.010803,0.00824,-0.994202,0.251389,0.493435,-0.14626,54,263,572,5648
1644167751.693415,-0.011292,0.010254,-0.991028,0.281924,0.401832,-0.115725,53,274,571,5712
1644167751.741828,-0.009033,0.007019,-0.992065,0.266656,0.401832,-0.14626,54,273,579,5728
1644167751.790224,-0.008972,0.00946,-0.991821,0.220855,0.462901,-0.054656,66,275,570,5648
1644167751.838757,-0.011841,0.014282,-0.99231,0.297191,0.447634,-0.039389,51,274,578,5664
1644167751.887049,-0.007629,0.006775,-0.994263,0.129252,0.340763,-0.085191,53,271,576,5696
1644167751.935431,-0.009644,0.009705,-0.993652,0.205588,0.401832,0.006412,53,281,580,5552
1644167751.983835,-0.010315,0.011719,-0.992371,0.236122,0.478168,-0.115725,61,275,577,5664
1644167752.032231,-0.010437,0.009277,-0.988708,0.251389,0.447634,-0.283664,42,275,575,5664
1644167752.082653,-0.009644,0.009583,-0.992126,0.113985,0.386565,-0.024122,49,270,572,5584
1644167752.128999,-0.011597,0.007935,-0.992554,0.297191,0.478168,-0.024122,47,277,568,5664
1644167752.177905,-0.009949,0.010071,-0.991516,0.113985,0.478168,0.036947,47,273,579,5664
1644167752.228229,-0.008545,0.009705,-0.989319,0.236122,0.386565,-0.161527,45,273,577,5648
1644167752.279035,-0.009949,0.011414,-0.990112,0.220855,0.24916,-0.024122,51,274,583,5712
1644167752.323263,-0.010315,0.007568,-0.991699,0.266656,0.279695,-0.207328,52,275,570,5664
1644167752.419325,-0.009338,0.010132,-0.990906,0.190321,0.432366,-0.192061,42,273,575,5600
1644167752.467719,-0.00946,0.006897,-0.990967,0.281924,0.24916,-0.115725,47,280,565,5664
1644167752.516109,-0.011597,0.011475,-0.99176,0.113985,0.386565,-0.054656,51,269,576,5648
1644167752.564512,-0.012512,0.009583,-0.990295,0.342992,0.325496,-0.192061,53,274,573,5696
1644167752.612898,-0.013245,0.010986,-0.991211,0.297191,0.401832,-0.039389,47,270,570,5648
1644167752.661276,-0.009521,0.010742,-0.993652,0.205588,0.294962,-0.054656,58,276,566,5648
1644167752.709656,-0.011658,0.010437,-0.992188,0.220855,0.478168,-0.14626,42,273,579,5648
1644167752.758073,-0.011047,0.00885,-0.99054,0.266656,0.539237,-0.008855,51,279,571,5648
1644167752.806437,-0.010193,0.007324,-0.990295,0.236122,0.585038,-0.069924,53,276,573,5696
1644167752.854871,-0.01001,0.009521,-0.990173,0.404061,0.386565,-0.100458,57,280,572,5600
1644167752.903265,-0.007446,0.01123,-0.99054,0.297191,0.508702,0.12855,43,266,573,5648
1644167752.951628,-0.010376,0.008179,-0.992065,0.236122,0.493435,-0.085191,52,273,575,5664
1644167753.000029,-0.010925,0.009949,-0.992188,0.251389,0.325496,-0.176794,53,276,573,5600
1644167753.063706,-0.008118,0.010376,-0.992371,0.098718,0.417099,-0.14626,52,270,568,5632
1644167753.096825,-0.009094,0.010437,-0.992249,0.098718,0.356031,-0.192061,51,281,573,5632
1644167753.14516,-0.007874,0.008789,-0.991211,0.220855,0.325496,-0.024122,47,270,575,5648
1644167753.193547,-0.008606,0.009888,-0.991821,0.129252,0.371298,-0.069924,51,276,573,5584
1644167753.241934,-0.00946,0.012207,-0.992798,0.205588,0.356031,-0.039389,62,266,578,5552
1644167753.290646,-0.011841,0.01123,-0.991699,0.342992,0.325496,0.082748,47,277,579,5664
1644167753.339825,-0.010864,0.008118,-0.993225,0.205588,0.462901,-0.115725,51,274,571,5648
1644167753.390079,-0.010864,0.01062,-0.989868,-0.02342,0.340763,-0.115725,47,268,575,5664
1644167753.440237,-0.011658,0.01123,-0.989258,0.159786,0.356031,-0.130992,48,274,566,5664
1644167753.48527,-0.010437,0.009644,-0.991516,0.281924,0.462901,-0.130992,55,271,578,5600
1644167753.580661,-0.009521,0.010315,-0.992615,0.266656,0.508702,-0.237863,49,280,572,5632
1644167753.62904,-0.01062,0.010864,-0.992737,0.266656,0.340763,-0.054656,52,275,575,5664
1644167753.677415,-0.011414,0.010681,-0.993835,0.327725,0.386565,-0.054656,45,270,565,5664
1644167753.725829,-0.010742,0.011963,-0.990417,0.205588,0.356031,-0.130992,55,271,571,5632
1644167753.774232,-0.009766,0.011292,-0.991455,0.281924,0.386565,-0.207328,46,274,578,5664
1644167753.822665,-0.010742,0.010681,-0.989868,0.129252,0.523969,-0.14626,53,281,573,5664
1644167753.871044,-0.012024,0.009521,-0.990417,0.251389,0.508702,-0.222595,62,276,571,5552
1644167753.919446,-0.011536,0.010132,-0.993225,0.327725,0.462901,0.006412,40,270,577,5632
1644167753.967834,-0.012146,0.010315,-0.991882,0.251389,0.417099,-0.115725,51,269,566,5584
1644167754.016236,-0.010132,0.009888,-0.990051,0.312458,0.356031,-0.115725,51,271,583,5712
1644167754.069443,-0.007019,0.009949,-0.992737,0.08345,0.401832,-0.085191,53,276,583,5648
1644167754.11299,-0.009705,0.010071,-0.993958,0.190321,0.432366,-0.039389,53,274,580,5600
1644167754.161319,-0.011047,0.010986,-0.987915,0.175053,0.432366,-0.222595,55,279,573,5648
1644167754.209748,-0.008728,0.011841,-0.99054,0.175053,0.462901,0.098015,52,265,582,5648
1644167754.258108,-0.01001,0.012329,-0.99176,0.220855,0.401832,-0.085191,59,273,577,5552
1644167754.306499,-0.010925,0.008667,-0.989868,0.281924,0.279695,-0.176794,57,270,570,5648
1644167754.354898,-0.008179,0.009827,-0.993591,0.327725,0.462901,-0.039389,51,286,566,5648
1644167754.403341,-0.01001,0.008484,-0.990234,0.205588,0.401832,-0.069924,54,280,565,5648
1644167754.452623,-0.00885,0.007324,-0.991333,0.297191,0.310229,-0.115725,53,279,571,5664
1644167754.503035,-0.011047,0.010376,-0.991577,0.052916,0.294962,0.021679,52,280,575,5664
1644167754.553188,-0.008972,0.01001,-0.990906,0.144519,0.493435,-0.100458,53,271,573,5600
1644167754.645418,-0.011536,0.008484,-0.989868,0.175053,0.340763,-0.222595,55,276,573,5696
1644167754.693653,-0.010559,0.010376,-0.990295,0.175053,0.401832,-0.008855,48,264,578,5584
1644167754.742026,-0.009949,0.00769,-0.990845,0.297191,0.24916,-0.085191,55,264,580,5648
1644167754.790429,-0.009827,0.011353,-0.990356,0.129252,0.401832,-0.008855,57,275,565,5600
1644167754.838846,-0.008667,0.008118,-0.99585,0.236122,0.371298,-0.14626,54,277,577,5664
1644167754.887246,-0.009521,0.00946,-0.989807,0.297191,0.417099,-0.024122,48,271,576,5648
1644167754.935627,-0.009766,0.012024,-0.991211,0.327725,0.401832,-0.039389,59,270,568,5664
1644167754.984034,-0.010071,0.008484,-0.989929,0.159786,0.478168,-0.054656,47,273,568,5664
1644167755.032439,-0.007751,0.010864,-0.990356,0.281924,0.310229,-0.054656,51,276,587,5648
1644167755.090914,-0.008179,0.010864,-0.991699,0.297191,0.432366,-0.161527,51,279,583,5664
1644167755.12911,-0.010559,0.010071,-0.990051,0.190321,0.386565,0.006412,46,271,580,5600
1644167755.177525,-0.011108,0.009888,-0.991455,0.281924,0.356031,-0.069924,43,281,571,5600
1644167755.22594,-0.009583,0.010071,-0.990112,0.175053,0.417099,-0.100458,53,271,569,5648
1644167755.274312,-0.010193,0.008545,-0.992188,0.373527,0.356031,-0.039389,60,264,583,5664
1644167755.32274,-0.011963,0.011353,-0.991882,0.297191,0.279695,-0.14626,47,263,575,5600
1644167755.371347,-0.009644,0.009094,-0.990662,0.190321,0.417099,-0.130992,51,279,576,5648
1644167755.421185,-0.010132,0.009705,-0.993713,0.129252,0.523969,0.021679,57,273,584,5584
1644167755.471036,-0.009521,0.00946,-0.989441,0.175053,0.371298,-0.100458,64,282,582,5664
1644167755.521155,-0.008911,0.012207,-0.994263,0.113985,0.539237,-0.314198,65,274,583,5664
1644167755.61308,-0.007751,0.011414,-0.991272,0.220855,0.508702,-0.024122,51,262,576,5632
1644167755.66145,-0.007874,0.009583,-0.990356,0.220855,0.279695,-0.237863,47,273,575,5664
1644167755.70985,-0.00885,0.011902,-0.99115,0.236122,0.447634,-0.008855,48,271,585,5584
1644167755.758212,-0.008484,0.013123,-0.991028,0.236122,0.432366,-0.130992,49,282,568,5600
1644167755.80664,-0.011536,0.009399,-0.990051,0.220855,0.386565,-0.222595,47,277,572,5648
1644167755.855082,-0.00769,0.007935,-0.992615,0.251389,0.386565,-0.069924,45,275,575,5648
1644167755.903449,-0.009766,0.010254,-0.993896,0.312458,0.279695,-0.176794,61,268,563,5664
1644167755.951845,-0.010925,0.010254,-0.990417,0.251389,0.340763,0.006412,52,277,575,5584
1644167756.000197,-0.009766,0.009888,-0.991882,0.144519,0.279695,-0.130992,53,271,573,5648
1644167756.060507,-0.009033,0.008484,-0.993408,0.159786,0.371298,-0.161527,52,277,575,5664
1644167756.099359,-0.012085,0.00708,-0.99176,0.175053,0.493435,-0.192061,52,275,577,5664
1644167756.145357,-0.009521,0.009399,-0.992493,0.175053,0.386565,-0.024122,57,280,568,5632
1644167756.193755,-0.013306,0.006958,-0.993469,0.159786,0.294962,-0.100458,52,277,577,5648
1644167756.242233,-0.009766,0.006897,-0.990784,0.052916,0.325496,0.021679,51,281,573,5600
1644167756.290519,-0.008057,0.009033,-0.990356,0.373527,0.386565,-0.024122,52,282,582,5648
1644167756.338919,-0.009766,0.010803,-0.989502,-0.02342,0.386565,-0.069924,60,269,571,5552
1644167756.387276,-0.009827,0.009766,-0.992432,0.190321,0.417099,-0.069924,49,282,572,5600
1644167756.435704,-0.010315,0.011047,-0.993042,0.342992,0.462901,-0.161527,47,273,577,5648
1644167756.484086,-0.00824,0.01062,-0.993164,0.327725,0.478168,-0.100458,42,270,572,5584
1644167756.532514,-0.00946,0.011414,-0.990479,0.297191,0.447634,-0.069924,45,270,563,5648
1644167756.582654,-0.012512,0.009094,-0.990906,0.434595,0.539237,-0.069924,49,265,575,5648
1644167756.633001,-0.011169,0.011841,-0.992859,0.236122,0.447634,-0.100458,52,273,577,5648
1644167756.678082,-0.008423,0.008728,-0.991882,0.297191,0.523969,-0.161527,48,276,573,5648
1644167756.77445,-0.011963,0.009399,-0.992432,0.159786,0.462901,-0.054656,43,269,583,5632
1644167756.822863,-0.013733,0.011047,-0.991028,0.373527,0.478168,-0.085191,51,271,576,5728
1644167756.871253,-0.01062,0.00824,-0.991699,0.159786,0.493435,-0.222595,46,276,571,5648
1644167756.919658,-0.008972,0.007935,-0.991028,0.419328,0.356031,-0.161527,40,270,579,5584
1644167756.96804,-0.009033,0.011108,-0.991455,0.281924,0.325496,-0.222595,52,277,575,5696
1644167757.016396,-0.011047,0.010376,-0.994385,0.297191,0.371298,0.021679,51,271,578,5600
1644167757.064866,-0.010925,0.008606,-0.992859,0.205588,0.279695,-0.176794,49,273,568,5600
1644167757.113252,-0.009033,0.010376,-0.991638,0.052916,0.325496,-0.024122,53,279,571,5648
1644167757.16156,-0.01178,0.01355,-0.99115,0.327725,0.478168,-0.130992,54,268,584,5664
1644167757.209955,-0.009827,0.010681,-0.992615,0.190321,0.478168,-0.100458,53,276,583,5648
1644167757.258344,-0.008362,0.010864,-0.990906,0.205588,0.447634,-0.100458,57,270,582,5664
1644167757.306738,-0.00946,0.010437,-0.989868,0.236122,0.493435,-0.039389,42,275,572,5648
1644167757.355229,-0.011902,0.008911,-0.992249,0.312458,0.523969,-0.100458,49,282,575,5632
1644167757.403529,-0.012207,0.010742,-0.991211,0.175053,0.508702,-0.008855,57,282,577,5648
1644167757.451908,-0.010315,0.009888,-0.991638,0.159786,0.294962,-0.054656,47,287,572,5664
1644167757.500284,-0.012756,0.008728,-0.991455,0.327725,0.401832,0.021679,51,276,573,5664
1644167757.548671,-0.007812,0.010315,-0.991821,0.144519,0.386565,-0.039389,49,277,570,5648
1644167757.597072,-0.010681,0.010559,-0.990479,0.236122,0.417099,-0.100458,46,262,578,5696
1644167757.645423,-0.008179,0.009094,-0.992981,0.312458,0.478168,-0.054656,51,274,569,5648
1644167757.694265,-0.008545,0.012146,-0.98877,0.404061,0.371298,-0.115725,43,271,583,5696
1644167757.744532,-0.010437,0.00946,-0.991455,0.266656,0.508702,-0.130992,47,275,582,5712
1644167757.79535,-0.011169,0.011414,-0.992981,0.08345,0.523969,-0.100458,47,280,568,5648
1644167757.839771,-0.00708,0.011536,-0.992981,0.281924,0.279695,-0.222595,51,264,566,5600
1644167757.935848,-0.010315,0.01178,-0.992859,0.297191,0.462901,0.036947,52,275,570,5648
1644167757.984233,-0.009705,0.008606,-0.990173,0.098718,0.508702,-0.14626,51,281,573,5664
1644167758.032641,-0.00885,0.010437,-0.993408,0.08345,0.356031,0.036947,47,273,563,5696
1644167758.081095,-0.009338,0.007935,-0.993225,0.175053,0.432366,-0.024122,49,270,572,5648
1644167758.129421,-0.011169,0.01123,-0.992126,0.251389,0.340763,-0.069924,42,280,582,5696
1644167758.177751,-0.007568,0.010742,-0.99054,0.190321,0.493435,-0.115725,48,274,562,5648
1644167758.226156,-0.008179,0.011475,-0.992065,0.113985,0.478168,-0.222595,57,265,570,5696
1644167758.274523,-0.012695,0.01001,-0.992126,0.35826,0.523969,0.021679,48,281,573,5600
1644167758.32293,-0.008545,0.013123,-0.992126,0.205588,0.356031,-0.085191,41,274,569,5648
1644167758.371328,-0.009888,0.008423,-0.98999,0.205588,0.401832,-0.192061,55,283,569,5664
1644167758.419713,-0.011902,0.009399,-0.99408,0.190321,0.508702,0.006412,51,271,578,5632
1644167758.468098,-0.010925,0.010681,-0.991516,0.205588,0.432366,-0.161527,48,266,578,5696
1644167758.516487,-0.008789,0.008301,-0.990784,0.266656,0.386565,-0.130992,55,269,569,5648
1644167758.564903,-0.01123,0.009399,-0.989014,0.098718,0.478168,-0.115725,49,277,572,5648
1644167758.613293,-0.007141,0.00946,-0.992798,0.342992,0.462901,-0.222595,53,266,576,5632
1644167758.661643,-0.007263,0.010254,-0.992249,0.236122,0.447634,-0.085191,49,263,579,5648
1644167758.710059,-0.010315,0.008423,-0.990723,0.159786,0.462901,-0.222595,52,275,579,5648
1644167758.758448,-0.010132,0.008667,-0.988953,0.159786,0.447634,-0.161527,46,276,578,5600
1644167758.806834,-0.012756,0.012268,-0.990662,0.312458,0.523969,-0.192061,53,283,578,5664
1644167758.856331,-0.009705,0.008301,-0.994507,0.08345,0.432366,-0.14626,46,271,571,5664
1644167758.907613,-0.009888,0.009766,-0.994019,0.205588,0.462901,-0.130992,51,281,576,5584
1644167758.958087,-0.010925,0.009705,-0.991089,0.342992,0.340763,-0.237863,59,268,568,5648
1644167759.05759,-0.011841,0.012512,-0.989868,0.159786,0.310229,-0.176794,57,268,577,5584
1644167759.097697,-0.008972,0.010742,-0.991089,0.312458,0.294962,-0.25313,48,281,590,5664
1644167759.145602,-0.008911,0.010559,-0.991638,0.220855,0.462901,-0.115725,51,274,573,5648
1644167759.193981,-0.012939,0.008057,-0.99231,0.327725,0.478168,-0.329466,52,275,579,5584
1644167759.242361,-0.008606,0.011414,-0.989502,0.159786,0.478168,0.021679,54,268,575,5696
1644167759.29072,-0.010864,0.009216,-0.989197,0.205588,0.432366,-0.008855,51,281,571,5648
1644167759.339132,-0.008728,0.008057,-0.990906,0.190321,0.356031,0.021679,47,280,572,5584
1644167759.387517,-0.011719,0.012878,-0.992126,0.113985,0.478168,-0.024122,45,275,568,5648
1644167759.435911,-0.010254,0.010437,-0.990234,0.327725,0.294962,0.052214,48,266,585,5712
1644167759.484294,-0.00946,0.009827,-0.99054,0.175053,0.508702,-0.192061,48,271,566,5648
1644167759.532695,-0.010193,0.010437,-0.992737,0.251389,0.386565,-0.176794,47,268,565,5648
1644167759.582426,-0.011963,0.012451,-0.992615,0.205588,0.310229,-0.14626,43,279,576,5648
1644167759.632751,-0.012268,0.011841,-0.988708,0.251389,0.462901,-0.115725,57,290,563,5664
1644167759.682799,-0.01123,0.010376,-0.989502,0.159786,0.386565,0.067481,48,269,576,5648
1644167759.774869,-0.007568,0.013977,-0.990417,0.342992,0.417099,-0.100458,49,280,575,5632
1644167759.823054,-0.010071,0.008179,-0.990845,0.175053,0.340763,-0.14626,53,274,569,5584
1644167759.87142,-0.007751,0.012268,-0.99292,0.266656,0.462901,-0.024122,53,274,571,5696
1644167759.919824,-0.008362,0.01062,-0.991882,0.236122,0.508702,-0.14626,41,269,566,5552
1644167759.968229,-0.006104,0.008911,-0.991516,0.236122,0.478168,-0.14626,41,274,571,5600
1644167760.016629,-0.006836,0.009521,-0.990967,0.113985,0.447634,0.082748,58,269,569,5584
1644167760.06873,-0.009827,0.007996,-0.987183,0.220855,0.417099,-0.100458,55,271,559,5664
1644167760.113402,-0.009949,0.00946,-0.990906,0.327725,0.310229,-0.069924,49,285,570,5648
1644167760.161746,-0.012451,0.009033,-0.992676,0.327725,0.447634,-0.268397,41,266,583,5664
1644167760.210159,-0.00885,0.008118,-0.991272,0.327725,0.371298,-0.100458,55,276,578,5584
1644167760.258546,-0.010986,0.00769,-0.993469,0.129252,0.310229,-0.176794,51,276,580,5648
1644167760.306947,-0.010742,0.009216,-0.993713,0.205588,0.371298,-0.115725,48,281,566,5648
1644167760.355304,-0.009094,0.006653,-0.99408,0.205588,0.447634,-0.14626,46,269,571,5632
1644167760.403724,-0.012817,0.010986,-0.990479,0.129252,0.340763,-0.192061,57,268,570,5648
1644167760.452219,-0.011108,0.010498,-0.992065,0.113985,0.554504,-0.054656,47,270,582,5648
1644167760.500501,-0.008301,0.012512,-0.992065,0.129252,0.493435,-0.008855,55,274,573,5648
1644167760.54889,-0.010681,0.008911,-0.994629,0.281924,0.417099,-0.130992,57,282,584,5664
1644167760.597283,-0.008545,0.010803,-0.991516,0.281924,0.523969,-0.100458,57,273,577,5648
1644167760.645667,-0.010925,0.007874,-0.989746,0.327725,0.447634,-0.024122,43,269,578,5664
1644167760.694331,-0.012085,0.006836,-0.996033,0.175053,0.478168,-0.008855,51,281,576,5648
1644167760.744976,-0.01239,0.00769,-0.992432,0.236122,0.340763,-0.161527,59,275,575,5664
1644167760.795636,-0.011169,0.008484,-0.992554,0.068183,0.356031,-0.069924,48,276,573,5648
1644167760.840531,-0.011047,0.011658,-0.991028,0.35826,0.386565,-0.237863,46,274,573,5648
1644167760.936034,-0.010193,0.00824,-0.990906,0.251389,0.401832,-0.130992,58,274,576,5648
1644167760.984437,-0.010986,0.010498,-0.991577,0.251389,0.340763,-0.069924,49,275,582,5584
1644167761.03284,-0.008057,0.009033,-0.99054,0.190321,0.386565,-0.207328,61,277,568,5664
1644167761.081385,-0.008911,0.011047,-0.992126,0.037649,0.462901,-0.268397,58,271,585,5648
1644167761.129579,-0.009766,0.009216,-0.992371,0.251389,0.585038,-0.054656,62,262,571,5600
1644167761.177979,-0.009705,0.010254,-0.991272,0.236122,0.340763,-0.115725,47,275,572,5696
1644167761.226347,-0.007202,0.010315,-0.989441,0.205588,0.233893,-0.085191,52,263,572,5648
1644167761.274758,-0.011536,0.010071,-0.992126,0.327725,0.325496,-0.054656,53,264,573,5632
1644167761.323125,-0.010925,0.008301,-0.993774,0.098718,0.356031,-0.100458,43,269,571,5584
1644167761.371529,-0.010254,0.010864,-0.993591,0.205588,0.386565,0.098015,48,266,573,5648
1644167761.419895,-0.007568,0.010315,-0.990906,0.190321,0.371298,0.067481,49,277,565,5600
1644167761.468307,-0.014099,0.011414,-0.992188,0.190321,0.264427,-0.100458,53,283,576,5648
1644167761.516702,-0.013489,0.007385,-0.992249,0.266656,0.432366,-0.207328,49,273,572,5584
1644167761.565131,-0.010864,0.007324,-0.989197,0.220855,0.264427,-0.115725,55,274,571,5648
1644167761.613489,-0.010559,0.008301,-0.992798,0.190321,0.371298,-0.176794,57,282,572,5664
1644167761.661879,-0.01001,0.01001,-0.993347,0.113985,0.401832,-0.069924,47,270,584,5584
1644167761.710263,-0.012329,0.008362,-0.992798,0.220855,0.386565,-0.161527,66,270,577,5600
1644167761.758652,-0.013245,0.00708,-0.992737,0.312458,0.462901,-0.130992,47,270,582,5696
1644167761.807378,-0.00946,0.01123,-0.989563,0.404061,0.203359,-0.130992,54,273,568,5648
1644167761.858114,-0.012268,0.008484,-0.992981,0.281924,0.432366,-0.130992,47,268,575,5664
1644167761.908531,-0.010803,0.008606,-0.991943,0.297191,0.462901,-0.085191,41,266,573,5600
1644167761.953135,-0.009827,0.011047,-0.990723,0.144519,0.478168,0.036947,49,285,570,5600
1644167762.058024,-0.011536,0.010864,-0.992676,0.373527,0.401832,-0.192061,48,269,578,5664
1644167762.09851,-0.00946,0.010376,-0.990173,0.190321,0.325496,-0.024122,62,271,578,5648
1644167762.145765,-0.009583,0.010071,-0.992737,0.159786,0.340763,-0.085191,48,274,576,5648
1644167762.194172,-0.007507,0.010071,-0.991638,-0.008153,0.356031,-0.130992,59,268,565,5648
1644167762.242568,-0.009338,0.007568,-0.992432,0.251389,0.294962,-0.039389,47,277,565,5600
1644167762.290956,-0.012146,0.010193,-0.989441,0.175053,0.493435,-0.008855,51,271,580,5584
1644167762.33934,-0.009644,0.010315,-0.992004,0.220855,0.478168,-0.207328,54,282,565,5664
1644167762.387725,-0.008484,0.010315,-0.991455,0.175053,0.401832,-0.176794,48,276,573,5648
1644167762.436118,-0.010376,0.010071,-0.989685,0.205588,0.356031,-0.222595,42,268,575,5648
1644167762.484493,-0.007812,0.010498,-0.992798,0.251389,0.432366,-0.069924,57,258,582,5648
1644167762.53292,-0.007935,0.008789,-0.991821,0.388794,0.279695,0.036947,53,276,573,5648
1644167762.581303,-0.013794,0.00885,-0.988708,0.251389,0.462901,-0.115725,57,282,563,5536
1644167762.629676,-0.010986,0.008545,-0.991821,0.419328,0.600305,-0.069924,45,275,577,5648
1644167762.678049,-0.010986,0.008972,-0.991089,0.388794,0.371298,-0.14626,49,275,577,5696
1644167762.726789,-0.007263,0.007812,-0.994019,0.236122,0.325496,-0.25313,58,269,571,5664
1644167762.77671,-0.008545,0.010803,-0.99292,0.251389,0.24916,-0.039389,53,271,573,5696
1644167762.827057,-0.013306,0.006165,-0.990173,0.388794,0.585038,-0.024122,53,286,576,5632
1644167762.877248,-0.010132,0.009583,-0.992615,0.266656,0.478168,-0.100458,47,270,575,5664
1644167762.968535,-0.007385,0.010803,-0.99231,0.281924,0.340763,-0.130992,49,273,572,5664
1644167763.016839,-0.009155,0.00824,-0.992188,0.144519,0.294962,-0.115725,60,279,569,5664
1644167763.065346,-0.01062,0.009644,-0.991028,0.327725,0.447634,-0.069924,53,262,587,5648
1644167763.113634,-0.01062,0.010559,-0.99115,0.281924,0.447634,-0.192061,48,279,578,5600
1644167763.161989,-0.010559,0.008118,-0.992737,0.190321,0.462901,-0.14626,47,282,570,5648
1644167763.210362,-0.007935,0.012573,-0.991272,0.388794,0.432366,-0.039389,46,274,573,5648
1644167763.258742,-0.009277,0.011169,-0.993103,0.236122,0.432366,-0.039389,48,262,583,5600
1644167763.30712,-0.009644,0.009949,-0.991943,0.266656,0.493435,-0.085191,48,274,578,5664
1644167763.355546,-0.010559,0.012207,-0.991028,0.297191,0.310229,-0.008855,55,271,571,5584
1644167763.403931,-0.009644,0.013794,-0.991028,0.190321,0.417099,-0.130992,59,270,572,5584
1644167763.452328,-0.013672,0.011536,-0.990723,0.205588,0.508702,-0.192061,54,290,570,5664
1644167763.500719,-0.011841,0.009216,-0.993652,0.159786,0.264427,-0.161527,40,275,572,5664
1644167763.549103,-0.008789,0.008606,-0.991516,0.342992,0.340763,-0.192061,46,266,580,5664
1644167763.597493,-0.004944,0.011963,-0.988525,0.190321,0.340763,-0.207328,48,274,580,5664
1644167763.645886,-0.010681,0.007751,-0.991882,0.113985,0.462901,-0.100458,49,270,570,5648
1644167763.694273,-0.009949,0.010254,-0.989014,0.251389,0.508702,-0.100458,51,271,585,5600
1644167763.74268,-0.006714,0.011108,-0.991638,0.144519,0.356031,-0.085191,59,285,577,5648
1644167763.791048,-0.011963,0.012329,-0.989807,0.281924,0.356031,-0.192061,45,268,579,5696
1644167763.839463,-0.009216,0.010193,-0.991211,0.236122,0.600305,-0.039389,48,266,576,5664
1644167763.888988,-0.011047,0.008484,-0.991211,0.220855,0.356031,-0.085191,51,271,578,5696
1644167763.939173,-0.010071,0.008423,-0.992188,0.312458,0.264427,-0.039389,45,277,568,5664
1644167763.989549,-0.011597,0.009155,-0.990845,0.281924,0.462901,-0.085191,47,270,575,5648
1644167764.034073,-0.011414,0.009583,-0.993164,0.175053,0.294962,-0.039389,48,269,573,5584
1644167764.129838,-0.00885,0.008606,-0.989746,0.159786,0.417099,-0.024122,51,274,573,5648
1644167764.178171,-0.011108,0.009216,-0.990356,0.342992,0.356031,-0.069924,49,277,577,5696
1644167764.226547,-0.010864,0.01123,-0.990234,0.205588,0.478168,-0.161527,51,269,576,5664
1644167764.275225,-0.009155,0.01001,-0.991699,0.190321,0.447634,0.052214,47,275,572,5664
1644167764.323338,-0.008423,0.011597,-0.99353,0.220855,0.340763,-0.069924,61,275,572,5664
1644167764.371735,-0.011108,0.011475,-0.991638,0.266656,0.554504,0.006412,61,280,568,5648
1644167764.420126,-0.009094,0.006592,-0.993286,0.312458,0.294962,-0.069924,49,277,577,5648
1644167764.468528,-0.009766,0.010132,-0.991577,0.404061,0.432366,-0.069924,54,270,570,5632
1644167764.516911,-0.008789,0.01062,-0.990479,0.098718,0.310229,-0.024122,55,264,580,5648
1644167764.565293,-0.00885,0.009766,-0.993713,0.266656,0.417099,-0.161527,60,281,578,5632
1644167764.6137,-0.009583,0.010681,-0.99054,0.297191,0.447634,-0.024122,54,268,575,5664
1644167764.662081,-0.009827,0.01062,-0.990479,0.236122,0.600305,0.006412,41,274,576,5648
1644167764.71048,-0.007324,0.012939,-0.989624,0.144519,0.508702,-0.039389,45,273,572,5584
1644167764.758851,-0.007141,0.010254,-0.990356,0.129252,0.325496,-0.115725,38,273,572,5664
1644167764.807246,-0.007507,0.011963,-0.99115,0.251389,0.279695,-0.25313,49,270,565,5664
1644167764.85568,-0.007996,0.008423,-0.992737,0.175053,0.432366,-0.192061,58,276,576,5648
1644167764.904072,-0.009277,0.01178,-0.989685,0.297191,0.417099,-0.176794,48,274,578,5648
1644167764.952621,-0.011169,0.009705,-0.991455,0.266656,0.417099,-0.176794,52,280,569,5600
1644167765.000844,-0.007996,0.010559,-0.992493,0.205588,0.24916,-0.069924,57,275,572,5696
1644167765.070784,-0.011108,0.009949,-0.987976,0.312458,0.386565,-0.008855,47,280,575,5584
1644167765.109311,-0.006775,0.010742,-0.990662,0.08345,0.432366,-0.115725,62,276,583,5648
1644167765.148101,-0.008118,0.009399,-0.990051,0.35826,0.356031,0.021679,48,283,578,5632
1644167765.242767,-0.00531,0.009033,-0.989868,0.236122,0.554504,-0.237863,47,263,572,5600
1644167765.291151,-0.00885,0.009583,-0.990173,0.35826,0.432366,-0.192061,54,265,570,5648
1644167765.339533,-0.010193,0.009766,-0.990051,0.419328,0.493435,-0.115725,51,271,571,5600
1644167765.387935,-0.006897,0.009033,-0.991089,0.281924,0.493435,-0.024122,52,270,579,5664
1644167765.436315,-0.009094,0.00946,-0.991394,0.251389,0.356031,-0.054656,47,273,582,5696
1644167765.484729,-0.007446,0.010132,-0.989807,0.251389,0.310229,-0.115725,46,269,576,5600
1644167765.533132,-0.008972,0.009583,-0.990417,0.205588,0.569771,-0.115725,41,276,573,5648
1644167765.58151,-0.00708,0.009705,-0.991089,0.175053,0.356031,-0.100458,48,274,573,5648
1644167765.629886,-0.010254,0.008728,-0.99292,0.052916,0.478168,-0.100458,42,268,577,5664
1644167765.67829,-0.011902,0.008362,-0.98999,0.266656,0.539237,-0.024122,45,260,572,5600
1644167765.726673,-0.008545,0.008057,-0.992432,0.373527,0.325496,-0.161527,47,268,582,5600
1644167765.775185,-0.011414,0.011047,-0.993652,0.388794,0.523969,-0.085191,45,270,582,5696
1644167765.823455,-0.010437,0.009949,-0.989868,0.312458,0.401832,-0.069924,52,275,575,5712
1644167765.871898,-0.008911,0.010254,-0.991211,0.205588,0.356031,-0.161527,51,281,566,5664
1644167765.920274,-0.007263,0.009094,-0.991821,0.251389,0.432366,-0.085191,46,283,578,5664
1644167765.968669,-0.010925,0.012085,-0.992981,0.190321,0.401832,0.021679,55,286,559,5648
1644167766.017055,-0.011047,0.010742,-0.992493,0.281924,0.371298,0.036947,46,281,576,5552
1644167766.087369,-0.007751,0.009033,-0.994385,0.342992,0.279695,-0.085191,39,266,573,5664
1644167766.114163,-0.009155,0.012329,-0.989929,0.266656,0.462901,-0.161527,51,279,578,5632
1644167766.164871,-0.010254,0.007874,-0.990845,0.327725,0.356031,0.052214,52,270,579,5664
1644167766.213781,-0.011597,0.010498,-0.992188,0.312458,0.310229,0.021679,53,274,580,5648
1644167766.26394,-0.007629,0.009033,-0.990112,0.312458,0.386565,-0.085191,45,273,572,5648
1644167766.355745,-0.005798,0.008972,-0.994446,0.251389,0.310229,-0.115725,46,279,569,5648
1644167766.404128,-0.010315,0.009399,-0.988647,0.113985,0.432366,-0.207328,49,273,572,5664
1644167766.452536,-0.010803,0.011902,-0.988892,0.190321,0.340763,-0.192061,57,280,570,5584
1644167766.50093,-0.006775,0.011597,-0.99115,0.327725,0.401832,-0.069924,49,275,575,5600
1644167766.549311,-0.01178,0.007568,-0.990784,0.297191,0.432366,-0.207328,43,274,573,5648
1644167766.597696,-0.01239,0.009521,-0.990723,0.419328,0.386565,-0.069924,49,273,570,5664
1644167766.64609,-0.007507,0.009705,-0.990173,0.327725,0.432366,-0.298931,42,275,565,5648
1644167766.694486,-0.010071,0.010437,-0.990723,0.190321,0.493435,-0.14626,54,277,575,5696
1644167766.742882,-0.009705,0.011841,-0.990051,0.419328,0.447634,-0.039389,47,270,579,5664
1644167766.791262,-0.008423,0.009888,-0.990723,0.037649,0.478168,-0.192061,40,275,579,5664
1644167766.839657,-0.01178,0.008423,-0.991638,0.510931,0.401832,-0.207328,48,266,566,5648
1644167766.88805,-0.008667,0.012207,-0.990479,0.129252,0.401832,-0.054656,47,275,575,5664
1644167766.936507,-0.008667,0.010071,-0.991699,0.113985,0.447634,-0.115725,47,275,572,5664
1644167766.984886,-0.008789,0.011353,-0.989197,0.236122,0.447634,-0.207328,54,275,586,5648
1644167767.033257,-0.00769,0.011658,-0.992798,0.220855,0.432366,0.098015,43,276,566,5648
1644167767.08435,-0.005798,0.00885,-0.991394,0.266656,0.417099,-0.085191,53,269,569,5584
1644167767.130045,-0.013489,0.012756,-0.989197,0.297191,0.371298,-0.115725,45,265,579,5664
1644167767.178387,-0.009705,0.011414,-0.991943,0.175053,0.432366,0.036947,54,273,570,5632
1644167767.227019,-0.007263,0.009338,-0.988525,0.251389,0.432366,-0.008855,42,273,570,5600
