epoch,acc_x,acc_y,acc_z,rot_x,rot_y,rot_z,mag_x,mag_y,mag_z,temp
1644168600.027349,-0.009277,0.009216,-0.99353,0.35826,0.432366,-0.008855,42,275,579,5696
1644168600.088276,-0.013,0.010803,-0.990784,0.281924,0.371298,-0.222595,60,271,580,5696
1644168600.124116,-0.010315,0.00769,-0.993042,0.144519,0.356031,-0.222595,45,275,575,5696
1644168600.172509,-0.01178,0.006348,-0.992065,0.144519,0.447634,-0.054656,48,264,559,5664
1644168600.220867,-0.009766,0.009766,-0.991821,0.205588,0.371298,-0.069924,53,271,576,5664
1644168600.269263,-0.011658,0.01062,-0.990662,0.266656,0.371298,-0.054656,58,271,578,5664
1644168600.31764,-0.01123,0.008484,-0.993286,0.007115,0.356031,-0.176794,49,275,598,5712
1644168600.366034,-0.009033,0.010925,-0.988892,0.144519,0.478168,-0.008855,45,277,582,5760
1644168600.414428,-0.00946,0.01062,-0.991272,0.175053,0.462901,-0.176794,46,279,573,5664
1644168600.462842,-0.012695,0.007263,-0.994385,0.190321,0.356031,-0.161527,53,269,573,5648
1644168600.511222,-0.010864,0.006775,-0.990784,0.312458,0.371298,-0.054656,60,262,580,5648
1644168600.559764,-0.011536,0.008118,-0.995178,0.327725,0.493435,-0.176794,57,285,577,5648
1644168600.610234,-0.011353,0.010437,-0.990723,0.449863,0.447634,-0.054656,52,275,572,5648
1644168600.66039,-0.011963,0.01001,-0.991638,0.266656,0.386565,-0.207328,47,277,582,5664
1644168600.705464,-0.010376,0.009766,-0.990479,0.251389,0.386565,-0.207328,49,277,575,5664
1644168600.801551,-0.009949,0.008362,-0.994019,0.175053,0.539237,-0.054656,52,268,577,5632
1644168600.849921,-0.012817,0.010132,-0.989868,0.35826,0.493435,-0.085191,52,275,565,5664
1644168600.898387,-0.011658,0.010254,-0.989075,0.281924,0.554504,-0.176794,54,265,586,5648
1644168600.946771,-0.008972,0.010315,-0.992737,0.159786,0.432366,-0.268397,47,280,584,5664
1644168600.9952,-0.010986,0.010254,-0.993286,0.236122,0.447634,0.021679,48,276,571,5648
1644168601.057079,-0.008484,0.008545,-0.993042,0.159786,0.294962,0.036947,58,269,573,5664
1644168601.094574,-0.011108,0.011719,-0.991699,0.190321,0.478168,-0.100458,55,286,576,5648
1644168601.140327,-0.01001,0.006958,-0.990112,0.281924,0.508702,-0.115725,57,265,575,5664
1644168601.188727,-0.009949,0.007385,-0.992004,0.373527,0.417099,-0.054656,60,271,564,5696
1644168601.237115,-0.012695,0.010864,-0.991882,0.327725,0.371298,-0.130992,48,274,566,5696
1644168601.285489,-0.007751,0.010193,-0.993286,0.220855,0.432366,-0.130992,45,280,575,5664
1644168601.333886,-0.010864,0.008362,-0.993042,0.129252,0.218626,-0.115725,47,277,577,5664
1644168601.382286,-0.013123,0.011047,-0.992432,0.159786,0.371298,-0.14626,51,269,576,5664
1644168601.430637,-0.01123,0.010315,-0.99353,0.251389,0.401832,0.082748,60,269,573,5664
1644168601.479056,-0.008972,0.009033,-0.992737,0.327725,0.203359,-0.283664,51,269,585,5648
1644168601.532874,-0.008667,0.009705,-0.991821,0.266656,0.279695,-0.176794,48,274,585,5696
1644168601.575811,-0.01062,0.007751,-0.99115,0.373527,0.462901,-0.207328,49,273,568,5696
1644168601.625426,-0.008057,0.007996,-0.99353,0.129252,0.386565,0.082748,52,265,584,5664
1644168601.675651,-0.011536,0.010315,-0.990295,0.373527,0.218626,-0.069924,52,273,598,5696
1644168601.725758,-0.010254,0.008789,-0.990601,0.251389,0.340763,-0.237863,53,264,578,5712
1644168601.770388,-0.010559,0.011353,-0.992371,0.113985,0.417099,-0.024122,60,271,585,5600
1644168601.866157,-0.010681,0.007263,-0.991333,0.098718,0.447634,-0.115725,43,279,573,5632
1644168601.914859,-0.010376,0.006958,-0.991028,0.327725,0.462901,-0.268397,41,269,583,5648
1644168601.962982,-0.01062,0.006653,-0.992493,0.220855,0.447634,-0.115725,58,271,580,5696
1644168602.011346,-0.012512,0.010315,-0.995117,0.251389,0.462901,-0.176794,57,277,575,5664
1644168602.063345,-0.011536,0.01123,-0.993225,0.236122,0.447634,-0.115725,53,266,578,5664
1644168602.108114,-0.008179,0.007996,-0.991272,0.388794,0.432366,-0.192061,57,282,577,5584
1644168602.156533,-0.008484,0.010864,-0.989197,0.251389,0.294962,0.021679,61,268,572,5664
1644168602.204949,-0.009705,0.009521,-0.990723,0.495664,0.508702,-0.130992,49,277,584,5648
1644168602.253318,-0.008362,0.008118,-0.992676,0.159786,0.310229,-0.085191,46,279,573,5632
1644168602.301704,-0.01123,0.010925,-0.993286,0.495664,0.371298,-0.130992,38,270,575,5600
1644168602.350077,-0.008728,0.006531,-0.99292,0.281924,0.432366,-0.161527,58,276,585,5664
1644168602.398479,-0.010864,0.008545,-0.99115,0.220855,0.356031,-0.085191,53,271,576,5712
1644168602.446872,-0.011902,0.012329,-0.992126,0.327725,0.24916,-0.130992,42,282,582,5696
1644168602.495267,-0.008972,0.007568,-0.993225,0.297191,0.325496,-0.039389,51,266,573,5584
1644168602.543662,-0.01239,0.010315,-0.992249,0.327725,0.340763,-0.069924,53,269,573,5696
1644168602.592042,-0.011169,0.007996,-0.98999,0.205588,0.447634,0.006412,46,269,580,5664
1644168602.640476,-0.010925,0.009155,-0.991394,0.190321,0.356031,-0.039389,49,268,563,5664
1644168602.688816,-0.009705,0.012268,-0.991943,0.205588,0.478168,-0.192061,49,280,579,5648
1644168602.73747,-0.011475,0.009827,-0.994202,0.297191,0.294962,-0.207328,54,273,575,5664
1644168602.787872,-0.011292,0.009949,-0.992004,0.205588,0.493435,-0.054656,49,273,572,5648
1644168602.838448,-0.010925,0.01062,-0.992554,0.220855,0.356031,-0.25313,51,274,580,5712
1644168602.88273,-0.00592,0.01123,-0.989441,0.220855,0.356031,0.036947,51,269,573,5648
1644168602.979196,-0.009155,0.009277,-0.991272,0.129252,0.371298,-0.176794,47,282,575,5648
1644168603.02756,-0.009338,0.011475,-0.993408,0.175053,0.432366,-0.130992,52,275,575,5600
1644168603.076013,-0.012573,0.006958,-0.99231,0.373527,0.539237,0.052214,55,281,580,5664
1644168603.124306,-0.010315,0.009521,-0.991943,0.342992,0.264427,-0.115725,42,273,582,5664
1644168603.172697,-0.00824,0.008301,-0.991516,0.175053,0.462901,-0.14626,45,280,565,5712
1644168603.221078,-0.008728,0.009216,-0.990601,0.144519,0.447634,-0.130992,53,269,573,5648
1644168603.269446,-0.008667,0.008911,-0.994019,0.098718,0.401832,0.021679,54,275,575,5664
1644168603.31784,-0.010071,0.00885,-0.991943,0.312458,0.447634,-0.008855,58,274,578,5664
1644168603.366255,-0.009766,0.010803,-0.989197,0.281924,0.417099,-0.085191,51,269,576,5648
1644168603.414681,-0.009338,0.012329,-0.994934,0.175053,0.386565,-0.115725,52,277,582,5664
1644168603.463047,-0.008545,0.006714,-0.992737,0.266656,0.401832,-0.115725,51,264,578,5728
1644168603.511408,-0.012085,0.006042,-0.993652,0.312458,0.325496,-0.192061,53,276,576,5648
1644168603.559814,-0.009521,0.012878,-0.992676,0.190321,0.325496,-0.039389,59,275,572,5696
1644168603.608233,-0.007202,0.007568,-0.993835,0.266656,0.371298,-0.054656,51,279,580,5632
1644168603.656594,-0.012024,0.00885,-0.992676,0.159786,0.615573,-0.115725,40,273,577,5664
1644168603.705032,-0.009277,0.009766,-0.992126,0.220855,0.340763,-0.085191,49,270,584,5600
1644168603.75335,-0.008667,0.007629,-0.990784,0.312458,0.371298,-0.115725,42,263,575,5664
1644168603.801806,-0.01239,0.010498,-0.992004,0.175053,0.386565,0.021679,53,271,583,5632
1644168603.850214,-0.009827,0.010681,-0.991028,0.434595,0.478168,-0.130992,54,268,579,5600
1644168603.900301,-0.011108,0.009766,-0.993835,0.236122,0.325496,0.021679,47,270,570,5664
1644168603.950795,-0.011292,0.008728,-0.99115,0.129252,0.340763,-0.192061,51,274,571,5760
1644168604.000806,-0.006897,0.010986,-0.991028,0.327725,0.401832,-0.024122,52,275,584,5584
1644168604.067326,-0.00946,0.007568,-0.990662,0.022382,0.569771,-0.039389,60,274,576,5696
1644168604.140491,-0.010254,0.008301,-0.992493,0.175053,0.493435,-0.130992,47,268,582,5664
1644168604.188896,-0.011169,0.007141,-0.990662,0.08345,0.401832,-0.069924,52,285,570,5664
1644168604.237277,-0.011353,0.007568,-0.992737,0.175053,0.401832,-0.039389,57,273,572,5584
1644168604.285659,-0.00885,0.009705,-0.99231,0.281924,0.371298,-0.054656,54,285,572,5696
1644168604.334072,-0.009277,0.012512,-0.991821,0.205588,0.310229,-0.008855,55,266,578,5648
1644168604.382463,-0.009155,0.007935,-0.991943,0.281924,0.462901,-0.192061,51,279,578,5664
1644168604.430861,-0.009705,0.008972,-0.99115,0.266656,0.478168,-0.054656,39,274,578,5712
1644168604.479234,-0.010864,0.011597,-0.992065,0.281924,0.417099,-0.008855,40,263,575,5664
1644168604.527637,-0.012939,0.008911,-0.992371,0.251389,0.325496,-0.008855,53,264,578,5632
1644168604.575999,-0.010315,0.009705,-0.995117,0.312458,0.325496,-0.085191,49,282,572,5648
1644168604.624422,-0.01593,0.009094,-0.992126,0.297191,0.432366,-0.130992,41,276,585,5664
1644168604.672817,-0.009033,0.009644,-0.991089,0.144519,0.233893,-0.039389,54,260,572,5648
1644168604.721194,-0.010803,0.009583,-0.993774,0.220855,0.264427,-0.207328,59,273,572,5632
1644168604.769575,-0.013794,0.00708,-0.994263,0.08345,0.478168,-0.176794,60,286,580,5696
1644168604.818009,-0.01178,0.008667,-0.993103,0.251389,0.539237,-0.024122,41,281,573,5696
1644168604.8664,-0.012451,0.011353,-0.990662,0.373527,0.310229,-0.024122,57,263,568,5696
1644168604.914799,-0.012268,0.007324,-0.989868,0.220855,0.24916,-0.039389,52,273,572,5728
1644168604.9634,-0.010315,0.007507,-0.992432,0.144519,0.417099,-0.039389,54,273,572,5664
1644168605.011632,-0.009766,0.010864,-0.991638,0.388794,0.417099,-0.069924,48,266,571,5584
1644168605.108264,-0.012939,0.009827,-0.991394,0.342992,0.340763,-0.039389,53,274,573,5648
1644168605.156692,-0.013,0.011292,-0.990417,0.220855,0.401832,0.067481,48,274,576,5696
1644168605.205121,-0.011475,0.007812,-0.990784,0.35826,0.386565,-0.176794,49,280,577,5664
1644168605.253463,-0.009521,0.008545,-0.989746,0.342992,0.462901,-0.024122,54,273,575,5696
1644168605.301879,-0.014099,0.008423,-0.993164,0.175053,0.310229,-0.039389,49,273,575,5648
1644168605.350269,-0.010559,0.01123,-0.991943,0.281924,0.310229,-0.14626,57,277,572,5648
1644168605.398664,-0.01123,0.008179,-0.988586,0.175053,0.401832,0.006412,52,285,568,5664
1644168605.447038,-0.008545,0.009033,-0.99054,0.236122,0.554504,-0.100458,42,268,577,5664
1644168605.495421,-0.010315,0.008362,-0.990051,0.281924,0.356031,-0.039389,47,273,579,5664
1644168605.54384,-0.009644,0.009033,-0.992126,0.35826,0.340763,-0.222595,53,281,566,5648
1644168605.592243,-0.009583,0.009338,-0.988953,0.281924,0.417099,-0.069924,43,283,569,5648
1644168605.640579,-0.011414,0.010925,-0.993713,0.281924,0.371298,-0.176794,47,277,577,5648
1644168605.689012,-0.009277,0.010803,-0.99115,0.35826,0.24916,-0.054656,52,270,589,5648
1644168605.737382,-0.010254,0.00946,-0.992859,0.052916,0.356031,-0.085191,51,271,585,5696
1644168605.78576,-0.009277,0.010925,-0.993713,0.190321,0.401832,-0.024122,47,270,586,5600
1644168605.835367,-0.009644,0.008911,-0.993774,0.342992,0.401832,-0.100458,43,266,576,5600
1644168605.88531,-0.010742,0.009399,-0.990479,0.190321,0.356031,-0.115725,53,274,573,5696
1644168605.935742,-0.008362,0.012695,-0.989929,0.144519,0.447634,-0.115725,54,273,577,5632
1644168605.980304,-0.010559,0.009399,-0.992249,0.220855,0.386565,-0.25313,52,265,575,5632
1644168606.076659,-0.010254,0.008179,-0.990967,0.144519,0.478168,-0.115725,53,269,587,5696
1644168606.124614,-0.007202,0.01001,-0.991516,0.266656,0.264427,-0.115725,52,263,575,5696
1644168606.172909,-0.010681,0.010437,-0.99054,0.281924,0.356031,-0.130992,53,264,573,5600
1644168606.22128,-0.009033,0.010193,-0.992981,0.205588,0.462901,-0.069924,49,282,579,5584
1644168606.269652,-0.011536,0.010376,-0.993408,0.342992,0.310229,-0.115725,48,269,573,5648
1644168606.318064,-0.010803,0.006714,-0.993652,0.297191,0.310229,-0.024122,49,270,582,5648
1644168606.366454,-0.011719,0.008545,-0.990479,0.220855,0.325496,-0.130992,43,276,571,5696
1644168606.414878,-0.011719,0.006348,-0.995361,0.144519,0.523969,-0.130992,52,275,579,5648
1644168606.463251,-0.010193,0.00708,-0.990967,0.281924,0.417099,-0.024122,48,274,580,5648
1644168606.511639,-0.012878,0.009033,-0.989197,0.205588,0.478168,-0.024122,47,270,579,5696
1644168606.560031,-0.009888,0.010986,-0.991638,0.175053,0.432366,-0.130992,55,276,571,5600
1644168606.608462,-0.010315,0.010376,-0.992371,0.281924,0.432366,-0.054656,54,270,572,5712
1644168606.656803,-0.010864,0.012939,-0.990417,0.129252,0.340763,-0.100458,55,283,578,5664
1644168606.705243,-0.010315,0.012085,-0.993774,0.113985,0.523969,-0.100458,53,274,576,5664
1644168606.753573,-0.009766,0.008362,-0.990479,0.068183,0.371298,-0.115725,62,276,587,5648
1644168606.801982,-0.008667,0.010559,-0.993713,0.08345,0.508702,0.067481,47,285,577,5696
1644168606.850418,-0.006897,0.007202,-0.990356,0.098718,0.432366,-0.039389,52,275,572,5696
1644168606.89916,-0.008911,0.009094,-0.990356,0.144519,0.264427,-0.054656,58,276,583,5648
1644168606.947464,-0.011047,0.009705,-0.992798,0.205588,0.325496,-0.115725,48,274,580,5648
1644168606.997586,-0.007874,0.009888,-0.991089,0.175053,0.432366,0.052214,51,276,580,5600
1644168607.06677,-0.008667,0.011475,-0.991943,0.281924,0.325496,-0.192061,47,275,582,5648
1644168607.105574,-0.012024,0.010803,-0.991394,0.190321,0.432366,-0.130992,51,274,578,5696
1644168607.189111,-0.009583,0.009949,-0.992798,-0.008153,0.325496,-0.085191,55,271,583,5664
1644168607.237483,-0.011047,0.011902,-0.990601,0.35826,0.401832,0.036947,53,266,576,5696
1644168607.28587,-0.011719,0.007874,-0.993042,0.220855,0.447634,-0.100458,47,280,572,5664
1644168607.334291,-0.00885,0.007019,-0.99054,0.404061,0.478168,-0.069924,52,275,572,5664
1644168607.38269,-0.01178,0.009949,-0.992859,0.190321,0.340763,-0.008855,55,276,578,5664
1644168607.43105,-0.010254,0.008362,-0.991028,0.220855,0.340763,0.006412,45,270,577,5648
1644168607.47945,-0.00824,0.006958,-0.989014,0.297191,0.386565,-0.207328,54,270,565,5712
1644168607.527838,-0.008911,0.013367,-0.994568,0.08345,0.462901,-0.024122,45,270,577,5664
1644168607.576235,-0.01001,0.011353,-0.990967,0.190321,0.386565,-0.176794,57,270,582,5664
1644168607.624647,-0.010559,0.008972,-0.988892,0.220855,0.462901,-0.192061,42,280,582,5648
1644168607.673034,-0.01001,0.007996,-0.992493,0.220855,0.294962,-0.024122,52,270,577,5712
1644168607.721406,-0.011169,0.010803,-0.991699,-0.038687,0.310229,-0.024122,47,277,589,5600
1644168607.769791,-0.010193,0.011414,-0.990784,0.175053,0.294962,-0.069924,49,280,586,5664
1644168607.818186,-0.009033,0.011353,-0.993896,0.266656,0.462901,-0.085191,52,270,572,5664
1644168607.86662,-0.010803,0.010254,-0.992188,0.159786,0.585038,-0.130992,51,274,576,5648
1644168607.915051,-0.009216,0.009399,-0.991028,0.266656,0.539237,0.021679,58,276,573,5648
1644168607.9634,-0.008423,0.010437,-0.993042,0.175053,0.401832,-0.054656,43,266,580,5664
1644168608.01178,-0.008972,0.007874,-0.991333,0.297191,0.386565,-0.192061,54,277,584,5664
1644168608.108557,-0.011292,0.009338,-0.992737,0.312458,0.417099,-0.100458,47,277,577,5664
1644168608.156914,-0.00769,0.010498,-0.994263,0.266656,0.417099,-0.115725,55,274,573,5664
1644168608.205399,-0.011841,0.009644,-0.993286,0.35826,0.294962,-0.115725,51,274,573,5696
1644168608.253709,-0.010193,0.008118,-0.992981,0.205588,0.447634,-0.069924,49,273,575,5712
1644168608.302086,-0.009705,0.008484,-0.990356,0.327725,0.447634,0.006412,43,279,571,5696
1644168608.350482,-0.010315,0.009888,-0.991516,0.220855,0.417099,0.036947,49,277,572,5696
1644168608.398912,-0.009827,0.010803,-0.992615,0.281924,0.371298,-0.100458,48,274,578,5760
1644168608.447263,-0.009094,0.010681,-0.994507,0.373527,0.462901,-0.115725,45,268,577,5632
1644168608.495631,-0.011841,0.009155,-0.990173,0.129252,0.432366,-0.115725,51,276,571,5648
1644168608.544054,-0.009644,0.010315,-0.992493,0.297191,0.432366,-0.25313,55,269,573,5600
1644168608.592441,-0.011414,0.010864,-0.992554,0.205588,0.340763,-0.115725,48,271,569,5648
1644168608.640798,-0.010864,0.011597,-0.991943,0.281924,0.310229,-0.100458,52,265,568,5648
1644168608.689209,-0.011414,0.010254,-0.996826,0.144519,0.340763,-0.161527,47,275,577,5696
1644168608.737602,-0.009338,0.008911,-0.989197,0.297191,0.264427,-0.024122,54,280,579,5664
1644168608.78596,-0.011353,0.012634,-0.991821,0.251389,0.585038,-0.100458,46,276,578,5664
1644168608.834388,-0.009583,0.008362,-0.992676,0.205588,0.417099,-0.115725,45,275,572,5648
1644168608.882841,-0.004639,0.010559,-0.990723,0.190321,0.325496,-0.130992,58,274,578,5648
1644168608.931199,-0.010986,0.010986,-0.991089,0.175053,0.417099,-0.14626,49,270,586,5600
1644168608.979615,-0.014587,0.009827,-0.993164,0.327725,0.432366,-0.100458,53,279,573,5712
1644168609.028969,-0.00769,0.007141,-0.994141,0.220855,0.417099,-0.130992,45,275,577,5664
1644168609.086579,-0.008484,0.011169,-0.994507,0.205588,0.447634,-0.069924,43,269,576,5632
1644168609.129198,-0.013,0.010559,-0.992004,0.220855,0.386565,-0.192061,54,263,577,5648
1644168609.173688,-0.012512,0.009827,-0.991089,0.129252,0.386565,-0.130992,57,275,575,5600
1644168609.269895,-0.01123,0.009094,-0.992493,-0.038687,0.294962,-0.069924,43,276,571,5696
1644168609.318275,-0.007568,0.008972,-0.991699,0.113985,0.462901,0.021679,46,269,573,5696
1644168609.366661,-0.009277,0.008484,-0.991577,0.266656,0.432366,-0.039389,52,275,572,5648
1644168609.415356,-0.012695,0.009705,-0.992004,0.205588,0.310229,-0.008855,49,275,575,5696
1644168609.463476,-0.007874,0.008606,-0.989929,0.052916,0.294962,-0.008855,54,270,584,5648
1644168609.511834,-0.009583,0.011719,-0.987976,0.205588,0.401832,-0.100458,47,273,570,5648
1644168609.560247,-0.010986,0.012085,-0.991455,0.159786,0.386565,-0.100458,43,276,571,5696
1644168609.608619,-0.011963,0.008484,-0.99353,0.190321,0.417099,-0.314198,42,282,579,5648
1644168609.657028,-0.010132,0.006409,-0.992493,0.251389,0.401832,-0.008855,48,274,571,5648
1644168609.705418,-0.010376,0.010498,-0.993713,0.022382,0.356031,-0.054656,59,273,589,5600
1644168609.753832,-0.008179,0.007935,-0.992432,0.037649,0.401832,-0.161527,54,270,561,5696
1644168609.802268,-0.011108,0.008606,-0.99292,0.342992,0.447634,0.006412,43,276,578,5664
1644168609.850636,-0.010803,0.008362,-0.991028,0.129252,0.508702,-0.100458,45,273,568,5696
1644168609.899013,-0.012512,0.010315,-0.992676,0.236122,0.432366,-0.039389,46,266,576,5584
1644168609.947427,-0.008179,0.009155,-0.992371,0.266656,0.264427,-0.130992,51,281,571,5696
1644168609.9958,-0.012329,0.010132,-0.991272,0.35826,0.478168,-0.100458,52,282,579,5696
1644168610.056886,-0.009338,0.009521,-0.990112,0.342992,0.294962,-0.115725,42,287,577,5696
1644168610.0928,-0.006531,0.012024,-0.991882,0.144519,0.523969,-0.207328,48,269,585,5696
1644168610.140938,-0.010498,0.010071,-0.992065,0.388794,0.294962,-0.039389,51,276,580,5632
1644168610.18964,-0.008789,0.01001,-0.991516,0.220855,0.386565,-0.024122,49,275,577,5648
1644168610.239949,-0.010742,0.007507,-0.991455,0.35826,0.447634,-0.039389,52,273,582,5664
1644168610.290355,-0.008423,0.008057,-0.995178,0.236122,0.340763,0.052214,35,275,575,5696
1644168610.33537,-0.011963,0.012939,-0.995361,0.251389,0.508702,-0.008855,49,275,570,5600
1644168610.431271,-0.013367,0.012512,-0.990662,0.220855,0.371298,-0.100458,42,273,575,5632
1644168610.47966,-0.010254,0.008667,-0.991028,0.159786,0.508702,-0.100458,52,273,572,5696
1644168610.528037,-0.012268,0.007507,-0.993225,0.281924,0.340763,-0.207328,52,277,575,5664
1644168610.576463,-0.007996,0.007935,-0.992249,0.205588,0.417099,-0.207328,42,280,572,5648
1644168610.624842,-0.012329,0.010315,-0.994873,0.266656,0.432366,-0.054656,51,274,578,5648
1644168610.673213,-0.011658,0.008179,-0.989746,0.129252,0.386565,-0.024122,40,277,577,5648
1644168610.721615,-0.011597,0.011169,-0.992554,0.113985,0.401832,-0.115725,48,264,562,5664
1644168610.770022,-0.012207,0.005188,-0.991638,0.205588,0.386565,-0.130992,46,266,578,5600
1644168610.818439,-0.008545,0.009399,-0.993896,0.220855,0.493435,-0.161527,46,271,578,5648
1644168610.866813,-0.009705,0.010193,-0.992188,0.266656,0.508702,-0.115725,35,277,565,5696
1644168610.915311,-0.011414,0.008972,-0.990967,0.159786,0.356031,-0.054656,48,279,573,5600
1644168610.963614,-0.011719,0.007568,-0.990662,0.297191,0.462901,-0.161527,45,282,570,5648
1644168611.011966,-0.008606,0.008362,-0.991577,0.220855,0.386565,-0.100458,48,283,578,5632
1644168611.06502,-0.005249,0.010864,-0.990662,0.236122,0.432366,0.067481,55,271,566,5648
1644168611.108761,-0.009033,0.010437,-0.988892,0.327725,0.615573,-0.100458,53,269,592,5696
1644168611.15714,-0.00824,0.010193,-0.990051,0.113985,0.371298,-0.14626,46,266,573,5664
1644168611.205517,-0.01001,0.009521,-0.989441,0.327725,0.340763,-0.176794,47,275,579,5600
1644168611.253882,-0.009155,0.009705,-0.991943,0.297191,0.462901,-0.069924,46,274,571,5712
1644168611.302304,-0.012573,0.008362,-0.992249,0.068183,0.371298,-0.130992,39,271,580,5584
1644168611.351038,-0.011719,0.009094,-0.991028,0.266656,0.340763,-0.100458,52,275,568,5664
1644168611.401396,-0.01123,0.009033,-0.991272,0.175053,0.310229,-0.085191,45,285,572,5648
1644168611.451959,-0.01001,0.009338,-0.99115,0.281924,0.325496,0.082748,52,275,572,5712
1644168611.496681,-0.009216,0.009033,-0.990112,0.266656,0.417099,-0.222595,45,270,577,5648
1644168611.592623,-0.012756,0.007385,-0.991943,0.327725,0.432366,0.021679,48,271,559,5648
1644168611.64101,-0.011047,0.01062,-0.987244,0.037649,0.310229,-0.008855,46,276,569,5648
1644168611.689419,-0.01178,0.012024,-0.989685,0.236122,0.523969,-0.100458,46,271,576,5648
1644168611.737809,-0.010986,0.010071,-0.990662,0.35826,0.447634,-0.100458,49,268,572,5712
1644168611.786203,-0.012512,0.010498,-0.991638,0.388794,0.417099,-0.039389,52,275,582,5648
1644168611.83464,-0.010071,0.00769,-0.989868,0.220855,0.401832,-0.008855,49,277,575,5600
1644168611.883052,-0.008911,0.008118,-0.991821,0.220855,0.386565,-0.008855,48,274,580,5696
1644168611.931396,-0.011047,0.009094,-0.993469,0.175053,0.539237,0.052214,47,287,575,5600
1644168611.979816,-0.011475,0.010681,-0.992981,0.190321,0.585038,-0.100458,52,273,579,5632
1644168612.028198,-0.01062,0.008789,-0.990967,0.251389,0.340763,-0.115725,57,273,584,5648
1644168612.088532,-0.009155,0.008179,-0.991455,0.144519,0.493435,-0.100458,51,283,580,5664
1644168612.124997,-0.012024,0.008972,-0.990051,0.159786,0.508702,-0.14626,54,280,570,5648
1644168612.173337,-0.00708,0.01062,-0.990906,0.266656,0.325496,-0.085191,48,264,580,5696
1644168612.221716,-0.010498,0.009705,-0.991943,0.190321,0.508702,-0.054656,46,271,585,5600
1644168612.27009,-0.010193,0.009888,-0.993164,0.388794,0.462901,-0.207328,51,274,573,5648
1644168612.31876,-0.010986,0.01001,-0.995117,0.159786,0.371298,-0.222595,53,274,573,5664
1644168612.368172,-0.012512,0.006836,-0.992126,0.342992,0.401832,-0.069924,52,282,591,5648
1644168612.418418,-0.006531,0.009277,-0.992859,0.175053,0.401832,-0.237863,42,265,570,5648
1644168612.468734,-0.010132,0.011169,-0.992981,0.190321,0.539237,-0.192061,54,273,575,5712
1644168612.56044,-0.009766,0.007202,-0.990784,0.205588,0.356031,-0.054656,48,266,580,5696
1644168612.608836,-0.01062,0.01001,-0.990662,0.220855,0.340763,-0.100458,51,264,571,5696
1644168612.657237,-0.010742,0.009705,-0.99231,0.175053,0.203359,-0.14626,42,277,570,5664
1644168612.705622,-0.010498,0.010254,-0.989624,0.251389,0.401832,-0.298931,55,274,566,5664
1644168612.754002,-0.009338,0.010254,-0.99176,0.144519,0.386565,-0.039389,52,268,575,5648
1644168612.802437,-0.010132,0.007507,-0.991272,0.312458,0.356031,-0.207328,40,277,575,5648
1644168612.850841,-0.009705,0.008667,-0.990662,0.373527,0.539237,-0.14626,52,275,572,5664
1644168612.89924,-0.006836,0.010864,-0.987976,0.312458,0.493435,-0.176794,48,279,573,5648
1644168612.947592,-0.010132,0.011475,-0.991638,0.281924,0.386565,-0.176794,47,277,572,5600
1644168612.995971,-0.009277,0.010437,-0.992859,0.190321,0.371298,-0.222595,49,268,570,5712
1644168613.056912,-0.011719,0.00824,-0.991333,0.281924,0.447634,-0.130992,54,275,589,5584
1644168613.09289,-0.008667,0.010864,-0.988403,0.281924,0.493435,-0.115725,49,273,584,5584
1644168613.141128,-0.011169,0.009277,-0.990356,0.327725,0.462901,-0.100458,51,279,578,5584
1644168613.189532,-0.011169,0.010193,-0.991821,0.236122,0.356031,-0.100458,57,273,579,5664
1644168613.23792,-0.01001,0.009399,-0.993958,0.022382,0.554504,-0.008855,59,282,577,5632
1644168613.286318,-0.007629,0.009399,-0.992981,0.327725,0.523969,-0.115725,47,270,570,5648
1644168613.334705,-0.013,0.007874,-0.993835,0.266656,0.356031,-0.115725,51,276,583,5664
1644168613.383108,-0.010559,0.010498,-0.990479,0.205588,0.447634,-0.069924,48,271,576,5632
1644168613.431499,-0.009216,0.007874,-0.993652,0.113985,0.325496,-0.069924,48,264,578,5664
1644168613.480221,-0.011292,0.010376,-0.990234,0.266656,0.432366,-0.192061,47,270,579,5648
1644168613.530841,-0.01178,0.010376,-0.99231,0.113985,0.294962,-0.008855,47,270,575,5696
1644168613.580834,-0.010986,0.009521,-0.991577,0.236122,0.279695,-0.024122,48,279,576,5648
1644168613.626034,-0.01178,0.014038,-0.990234,0.266656,0.371298,-0.130992,46,271,583,5648
1644168613.721824,-0.011047,0.011536,-0.991455,0.205588,0.279695,-0.192061,54,277,582,5664
1644168613.770225,-0.010559,0.010864,-0.992859,0.251389,0.401832,-0.008855,43,274,569,5664
1644168613.818601,-0.009277,0.00769,-0.991699,0.175053,0.493435,-0.14626,49,277,570,5648
1644168613.867034,-0.009033,0.009338,-0.992493,0.236122,0.371298,-0.069924,46,279,583,5664
1644168613.915424,-0.009766,0.012451,-0.994995,0.327725,0.508702,-0.100458,54,273,579,5664
1644168613.963827,-0.01123,0.010254,-0.99231,0.297191,0.417099,-0.024122,53,262,576,5664
1644168614.012261,-0.011597,0.007629,-0.988708,0.220855,0.417099,-0.14626,48,271,585,5712
1644168614.0646,-0.013611,0.009949,-0.991028,0.220855,0.386565,-0.069924,51,271,578,5696
1644168614.109,-0.009827,0.007324,-0.991821,0.281924,0.523969,0.006412,47,287,586,5696
1644168614.157394,-0.010803,0.012695,-0.989929,0.205588,0.417099,0.036947,51,281,578,5696
1644168614.205735,-0.008606,0.010193,-0.991089,0.251389,0.340763,-0.054656,45,258,572,5648
1644168614.254105,-0.011047,0.008545,-0.991516,0.312458,0.569771,-0.14626,49,285,575,5648
1644168614.302531,-0.009277,0.01001,-0.991821,0.190321,0.447634,-0.069924,42,277,582,5648
1644168614.350902,-0.010193,0.009521,-0.992371,0.312458,0.432366,0.021679,54,270,577,5664
1644168614.399302,-0.011597,0.008362,-0.991882,0.220855,0.432366,-0.161527,52,280,570,5648
1644168614.447684,-0.008667,0.011597,-0.990784,0.236122,0.417099,-0.100458,38,273,579,5712
1644168614.496078,-0.013245,0.008118,-0.99054,0.266656,0.539237,-0.237863,45,275,575,5552
1644168614.544469,-0.008545,0.010193,-0.990356,0.434595,0.523969,-0.085191,45,273,579,5648
1644168614.59287,-0.01123,0.009827,-0.991516,0.220855,0.340763,-0.176794,46,281,576,5712
1644168614.641614,-0.00885,0.011841,-0.990234,0.312458,0.401832,-0.008855,57,268,570,5648
1644168614.69228,-0.008667,0.010498,-0.99115,0.022382,0.386565,-0.024122,54,275,579,5664
1644168614.742381,-0.008972,0.009033,-0.992065,0.404061,0.432366,-0.024122,54,273,577,5664
1644168614.787439,-0.009888,0.007874,-0.99292,0.144519,0.554504,-0.085191,57,277,570,5648
1644168614.88325,-0.011169,0.010803,-0.989685,0.236122,0.24916,-0.14626,54,277,568,5664
1644168614.931618,-0.009888,0.010742,-0.988525,0.220855,0.417099,-0.161527,47,275,582,5696
1644168614.980022,-0.01001,0.00824,-0.990662,0.251389,0.523969,0.006412,42,280,582,5712
1644168615.028404,-0.008545,0.008972,-0.991882,0.251389,0.371298,-0.222595,53,274,571,5664
1644168615.076887,-0.01239,0.011108,-0.991638,0.297191,0.340763,-0.100458,57,265,579,5664
1644168615.125238,-0.007385,0.011047,-0.993408,0.251389,0.478168,-0.085191,54,268,558,5664
1644168615.173557,-0.010742,0.010132,-0.994385,0.159786,0.432366,-0.207328,60,276,576,5648
1644168615.221935,-0.009216,0.009827,-0.993042,0.037649,0.508702,-0.039389,49,280,572,5696
1644168615.27031,-0.00885,0.011414,-0.991089,0.175053,0.417099,-0.008855,46,266,580,5632
1644168615.318726,-0.007996,0.008057,-0.991455,0.220855,0.462901,-0.207328,57,273,572,5664
1644168615.367111,-0.012085,0.008606,-0.993225,0.327725,0.432366,-0.176794,48,274,571,5712
1644168615.415493,-0.009888,0.012207,-0.991394,0.266656,0.493435,-0.024122,48,274,580,5696
1644168615.463892,-0.008911,0.010071,-0.992676,0.312458,0.432366,0.021679,43,279,576,5584
1644168615.512272,-0.01178,0.010498,-0.991028,0.129252,0.493435,-0.054656,53,274,569,5664
1644168615.560663,-0.013733,0.008789,-0.991882,0.144519,0.417099,0.052214,52,270,579,5696
1644168615.609057,-0.01001,0.008911,-0.991272,0.312458,0.371298,-0.054656,41,281,578,5696
1644168615.657446,-0.007446,0.010254,-0.992004,0.373527,0.356031,-0.222595,40,275,572,5648
1644168615.70585,-0.010925,0.011597,-0.988708,0.144519,0.539237,0.113282,52,273,577,5712
1644168615.754203,-0.009888,0.009521,-0.991882,0.297191,0.417099,-0.25313,51,257,580,5648
1644168615.802958,-0.010193,0.015686,-0.991455,0.205588,0.386565,-0.115725,54,273,565,5648
1644168615.854777,-0.011658,0.009094,-0.991394,0.327725,0.294962,-0.054656,47,265,577,5632
1644168615.904757,-0.010559,0.01178,-0.989136,0.205588,0.356031,-0.085191,47,277,584,5632
1644168615.949135,-0.00592,0.00946,-0.991333,0.159786,0.310229,0.052214,46,276,580,5664
1644168616.056857,-0.009888,0.009827,-0.992126,0.068183,0.310229,-0.115725,53,279,576,5696
1644168616.095624,-0.008728,0.008606,-0.99176,0.205588,0.340763,-0.115725,47,277,586,5600
1644168616.141351,-0.011536,0.01001,-0.992004,0.35826,0.386565,-0.192061,58,266,585,5664
1644168616.189753,-0.009216,0.010071,-0.990417,0.113985,0.417099,-0.115725,60,281,583,5552
1644168616.238138,-0.008301,0.009094,-0.990356,0.068183,0.447634,-0.237863,43,283,571,5664
1644168616.286527,-0.009766,0.00946,-0.992065,0.144519,0.401832,-0.069924,45,273,570,5648
1644168616.33491,-0.010376,0.008728,-0.991272,0.08345,0.386565,-0.25313,54,273,575,5648
1644168616.383299,-0.009888,0.007141,-0.99408,0.236122,0.462901,-0.115725,42,268,579,5664
1644168616.431688,-0.008911,0.008667,-0.991272,0.037649,0.432366,-0.176794,47,275,563,5664
1644168616.480086,-0.007751,0.009583,-0.993347,0.205588,0.401832,-0.176794,52,270,589,5712
1644168616.528872,-0.011353,0.009583,-0.993042,0.190321,0.310229,-0.085191,53,281,571,5664
1644168616.579181,-0.012268,0.008972,-0.99292,0.175053,0.493435,-0.176794,48,281,564,5664
1644168616.629324,-0.01239,0.008179,-0.991028,0.236122,0.386565,-0.130992,45,270,579,5664
1644168616.674329,-0.010132,0.007751,-0.990784,0.327725,0.432366,0.006412,48,279,571,5664
1644168616.77041,-0.00946,0.012329,-0.992981,0.327725,0.447634,-0.268397,39,269,576,5664
1644168616.818808,-0.013,0.00824,-0.993835,0.251389,0.279695,0.036947,40,270,582,5664
1644168616.867191,-0.009583,0.009155,-0.990967,0.266656,0.508702,-0.207328,43,269,578,5696
1644168616.915633,-0.009827,0.011169,-0.991943,0.327725,0.462901,0.021679,40,265,572,5712
1644168616.964052,-0.008789,0.008179,-0.991272,0.35826,0.417099,-0.207328,45,282,568,5648
1644168617.012443,-0.009277,0.011597,-0.987549,0.342992,0.356031,-0.115725,52,268,575,5648
1644168617.065166,-0.010315,0.009583,-0.991211,0.266656,0.523969,-0.008855,57,265,582,5648
1644168617.109153,-0.009644,0.008423,-0.990295,0.312458,0.539237,-0.069924,62,269,594,5664
1644168617.157547,-0.00946,0.011597,-0.991943,0.327725,0.417099,-0.039389,42,275,572,5664
1644168617.205956,-0.011658,0.01001,-0.993774,0.205588,0.325496,-0.161527,52,275,570,5696
1644168617.254354,-0.013306,0.008667,-0.991211,0.175053,0.371298,-0.008855,62,271,580,5664
1644168617.302749,-0.009155,0.007812,-0.988403,0.404061,0.447634,-0.14626,51,283,569,5600
1644168617.351114,-0.011047,0.006653,-0.991943,0.251389,0.233893,-0.14626,46,279,580,5664
1644168617.399477,-0.011292,0.008118,-0.991638,0.266656,0.371298,-0.039389,57,282,577,5664
1644168617.447893,-0.009094,0.007507,-0.992188,0.281924,0.371298,-0.176794,54,275,572,5648
1644168617.4963,-0.012756,0.009888,-0.993652,0.220855,0.325496,-0.100458,58,281,571,5648
1644168617.544683,-0.009399,0.008484,-0.991943,0.251389,0.401832,-0.024122,47,268,582,5600
1644168617.593057,-0.009766,0.009338,-0.991699,0.144519,0.24916,-0.161527,51,269,564,5648
1644168617.641471,-0.009583,0.009827,-0.990112,-0.069221,0.478168,-0.130992,46,266,566,5664
1644168617.690603,-0.009399,0.008423,-0.993469,0.510931,0.401832,-0.115725,49,268,577,5648
1644168617.743389,-0.008057,0.008911,-0.993164,0.342992,0.24916,-0.115725,66,268,570,5600
1644168617.792488,-0.009216,0.010254,-0.990479,0.052916,0.371298,-0.192061,43,274,571,5728
1644168617.883476,-0.010742,0.007751,-0.992249,0.098718,0.310229,-0.100458,40,282,577,5648
1644168617.931832,-0.010376,0.008789,-0.991211,0.35826,0.447634,0.067481,52,277,577,5584
1644168617.980236,-0.009277,0.010376,-0.990173,0.373527,0.417099,-0.207328,46,281,580,5712
1644168618.028597,-0.00769,0.008118,-0.990784,0.175053,0.233893,-0.039389,48,269,580,5648
1644168618.077071,-0.011719,0.010681,-0.99176,0.251389,0.447634,-0.085191,49,275,582,5664
1644168618.125369,-0.008667,0.009766,-0.992676,0.281924,0.432366,-0.161527,47,275,575,5648
1644168618.173766,-0.010498,0.008911,-0.990662,0.312458,0.417099,-0.039389,49,275,575,5648
1644168618.22217,-0.009827,0.00946,-0.991577,0.144519,0.432366,-0.008855,48,279,569,5696
1644168618.270518,-0.01001,0.010986,-0.992004,0.205588,0.371298,-0.192061,48,281,587,5664
1644168618.318926,-0.010864,0.008484,-0.993408,0.35826,0.478168,-0.100458,48,264,578,5648
1644168618.367319,-0.011292,0.006897,-0.990845,0.175053,0.233893,-0.176794,57,273,584,5584
1644168618.415717,-0.010986,0.005798,-0.991455,0.327725,0.462901,-0.100458,58,279,571,5632
1644168618.46411,-0.012024,0.008789,-0.991394,0.251389,0.615573,-0.176794,51,274,573,5664
1644168618.512497,-0.011841,0.009827,-0.991516,0.281924,0.478168,-0.237863,57,268,577,5696
1644168618.560884,-0.009277,0.008972,-0.991211,0.129252,0.356031,-0.161527,60,271,571,5712
1644168618.609256,-0.009033,0.012085,-0.991394,0.297191,0.325496,-0.115725,47,270,572,5632
1644168618.657627,-0.007812,0.007751,-0.992737,0.129252,0.386565,-0.085191,49,270,568,5648
1644168618.706055,-0.009521,0.009216,-0.991211,0.007115,0.386565,-0.115725,45,280,577,5664
1644168618.754417,-0.012939,0.010071,-0.992981,0.144519,0.478168,-0.069924,57,282,577,5600
1644168618.804547,-0.010071,0.00885,-0.992371,0.175053,0.417099,-0.100458,40,277,572,5664
1644168618.85452,-0.007812,0.006897,-0.991821,0.220855,0.462901,-0.283664,55,281,571,5664
1644168618.905336,-0.010132,0.008728,-0.991211,0.144519,0.493435,-0.115725,58,271,576,5600
1644168618.94921,-0.008789,0.008667,-0.991882,0.220855,0.432366,-0.039389,39,271,571,5648
1644168619.05757,-0.010925,0.010498,-0.995239,0.373527,0.432366,-0.222595,48,274,573,5632
1644168619.095951,-0.012146,0.009827,-0.990723,0.297191,0.539237,-0.237863,47,277,568,5696
1644168619.141568,-0.01178,0.010559,-0.993896,0.159786,0.401832,-0.207328,46,279,578,5696
1644168619.189938,-0.012573,0.008728,-0.994263,0.190321,0.325496,0.006412,42,280,577,5648
1644168619.238351,-0.01001,0.009521,-0.992554,0.220855,0.432366,-0.222595,53,279,571,5664
1644168619.286745,-0.007568,0.008301,-0.988525,0.373527,0.417099,-0.130992,49,273,577,5664
1644168619.33523,-0.010803,0.006958,-0.993103,0.35826,0.585038,-0.039389,49,275,579,5712
1644168619.383531,-0.009644,0.009521,-0.992188,0.434595,0.356031,-0.069924,41,279,569,5632
1644168619.431908,-0.008728,0.007874,-0.991638,0.144519,0.294962,-0.14626,51,281,578,5664
1644168619.480299,-0.011902,0.008728,-0.99231,0.190321,0.371298,-0.085191,52,270,579,5648
1644168619.528695,-0.01001,0.006775,-0.991943,0.129252,0.401832,-0.024122,52,282,579,5760
1644168619.577079,-0.010559,0.006165,-0.991577,0.205588,0.325496,-0.130992,54,270,575,5648
1644168619.625568,-0.008789,0.007446,-0.990601,0.297191,0.478168,-0.222595,49,275,579,5648
1644168619.675008,-0.01239,0.011047,-0.993958,0.113985,0.386565,0.067481,48,264,571,5648
1644168619.725341,-0.01355,0.010071,-0.992493,0.449863,0.401832,0.021679,52,270,572,5696
1644168619.77565,-0.009399,0.012695,-0.991943,0.129252,0.493435,-0.207328,53,274,576,5648
1644168619.86744,-0.012207,0.008606,-0.990051,0.281924,0.356031,-0.008855,53,279,578,5712
1644168619.915831,-0.008301,0.011292,-0.993469,0.388794,0.432366,-0.161527,41,276,566,5648
1644168619.964244,-0.010559,0.007385,-0.991516,0.113985,0.462901,-0.161527,46,279,564,5584
1644168620.012622,-0.008789,0.006592,-0.992981,0.251389,0.417099,-0.054656,48,281,576,5664
1644168620.063857,-0.012085,0.011353,-0.993225,0.251389,0.401832,-0.039389,47,275,582,5648
1644168620.109402,-0.012756,0.009949,-0.995605,0.220855,0.356031,-0.115725,53,279,573,5632
1644168620.157762,-0.012695,0.008484,-0.992126,0.205588,0.371298,-0.161527,45,282,572,5600
1644168620.206158,-0.009399,0.008789,-0.991211,0.220855,0.432366,-0.069924,48,283,571,5600
1644168620.254521,-0.012512,0.00885,-0.99231,0.312458,0.417099,-0.207328,54,273,582,5696
1644168620.302945,-0.010986,0.010437,-0.991638,0.190321,0.417099,-0.085191,51,281,583,5648
1644168620.351323,-0.010315,0.006592,-0.99353,0.205588,0.340763,-0.085191,54,260,570,5648
1644168620.399714,-0.009521,0.00885,-0.992126,0.129252,0.432366,-0.130992,45,275,584,5648
1644168620.448102,-0.010559,0.01178,-0.992126,0.220855,0.294962,-0.039389,60,269,576,5664
1644168620.496507,-0.011963,0.010315,-0.993103,0.175053,0.401832,-0.039389,58,276,573,5632
1644168620.544869,-0.014343,0.010803,-0.991638,0.251389,0.386565,-0.085191,59,273,577,5648
1644168620.593285,-0.011353,0.007507,-0.992371,0.144519,0.386565,-0.176794,53,279,576,5696
1644168620.641641,-0.007751,0.007446,-0.992432,0.281924,0.310229,-0.130992,53,269,576,5648
1644168620.690068,-0.009094,0.010254,-0.991821,0.205588,0.279695,-0.039389,40,275,579,5632
1644168620.738444,-0.010681,0.010437,-0.989746,0.08345,0.310229,-0.14626,58,271,569,5712
1644168620.787082,-0.010864,0.008484,-0.993835,0.281924,0.478168,-0.207328,53,271,573,5648
1644168620.838164,-0.009766,0.01062,-0.988831,0.236122,0.447634,-0.054656,49,265,577,5632
1644168620.889157,-0.010803,0.008362,-0.992798,0.098718,0.417099,-0.14626,47,273,572,5664
1644168620.933243,-0.008606,0.010315,-0.992188,0.205588,0.432366,-0.024122,47,277,561,5696
1644168621.028849,-0.009888,0.010498,-0.992859,0.266656,0.340763,-0.14626,53,269,578,5664
1644168621.077296,-0.007324,0.00946,-0.992737,0.190321,0.432366,0.021679,55,271,583,5648
1644168621.125614,-0.009705,0.010498,-0.993835,0.129252,0.386565,-0.039389,49,263,582,5696
1644168621.173975,-0.009338,0.009766,-0.991272,0.175053,0.340763,-0.176794,54,268,577,5664
1644168621.222391,-0.010315,0.009583,-0.99176,0.205588,0.462901,-0.130992,45,275,577,5632
1644168621.27074,-0.007751,0.010986,-0.99054,0.129252,0.279695,-0.054656,49,268,582,5632
1644168621.319116,-0.011108,0.008972,-0.993347,0.251389,0.340763,-0.25313,57,273,575,5664
1644168621.367534,-0.009583,0.008484,-0.990845,0.175053,0.447634,-0.024122,55,269,583,5584
1644168621.415919,-0.010681,0.009216,-0.98938,0.144519,0.279695,-0.024122,53,276,571,5648
1644168621.46432,-0.009338,0.007874,-0.990906,0.236122,0.401832,0.036947,43,279,573,5696
1644168621.512703,-0.010071,0.009338,-0.993103,0.312458,0.340763,-0.283664,53,271,583,5712
1644168621.561092,-0.011658,0.011047,-0.991638,0.190321,0.478168,-0.283664,59,282,579,5696
1644168621.609484,-0.013123,0.00769,-0.990417,0.144519,0.539237,-0.207328,60,276,578,5648
1644168621.657847,-0.010376,0.00885,-0.990967,0.205588,0.493435,0.021679,47,255,575,5632
1644168621.70627,-0.009644,0.007629,-0.993164,0.190321,0.233893,-0.100458,47,263,572,5664
1644168621.754702,-0.00647,0.009827,-0.991882,0.190321,0.371298,-0.008855,60,274,583,5664
1644168621.80302,-0.013855,0.008423,-0.989624,0.113985,0.478168,-0.192061,39,271,571,5584
1644168621.851492,-0.009399,0.008057,-0.990845,0.297191,0.523969,-0.085191,59,277,586,5648
1644168621.899882,-0.01178,0.008545,-0.98938,0.190321,0.539237,-0.069924,46,274,573,5648
1644168621.949283,-0.013306,0.009216,-0.996216,0.159786,0.340763,-0.222595,51,271,571,5664
1644168621.999431,-0.010742,0.00708,-0.994019,0.236122,0.462901,-0.268397,51,266,578,5712
1644168622.068256,-0.011902,0.011414,-0.993164,0.190321,0.340763,-0.130992,46,269,578,5712
1644168622.141832,-0.009277,0.010193,-0.993347,0.251389,0.310229,0.006412,54,275,570,5584
1644168622.190168,-0.009949,0.010071,-0.990906,0.205588,0.478168,-0.14626,67,271,580,5648
1644168622.23856,-0.011658,0.009827,-0.993896,0.113985,0.24916,-0.069924,51,274,573,5648
1644168622.286921,-0.007507,0.008728,-0.990173,0.327725,0.493435,-0.024122,43,266,576,5648
1644168622.335344,-0.010071,0.005981,-0.991638,0.220855,0.523969,-0.039389,59,275,577,5600
1644168622.383742,-0.010254,0.010193,-0.989746,0.205588,0.462901,-0.161527,46,269,585,5664
1644168622.432264,-0.013,0.00824,-0.989929,0.236122,0.462901,-0.100458,51,269,578,5664
1644168622.480523,-0.011475,0.010132,-0.993958,0.266656,0.356031,-0.054656,49,273,572,5760
1644168622.528902,-0.010986,0.011841,-0.990723,0.236122,0.371298,-0.268397,51,269,578,5696
1644168622.577307,-0.008728,0.009155,-0.992249,0.281924,0.478168,-0.14626,57,273,577,5600
1644168622.625688,-0.013916,0.00769,-0.993591,0.236122,0.478168,-0.237863,52,282,565,5712
1644168622.674086,-0.009338,0.010071,-0.992004,0.175053,0.310229,-0.054656,52,280,572,5696
1644168622.722478,-0.011963,0.007751,-0.99353,0.205588,0.539237,-0.25313,51,266,578,5696
1644168622.770848,-0.009888,0.008911,-0.994141,0.342992,0.294962,-0.14626,49,273,582,5664
1644168622.819245,-0.011658,0.010986,-0.991821,0.159786,0.508702,-0.085191,43,276,585,5584
1644168622.867657,-0.009277,0.012085,-0.990417,0.220855,0.508702,-0.100458,53,266,585,5696
1644168622.916072,-0.009277,0.007629,-0.99176,0.129252,0.417099,-0.14626,48,274,571,5696
1644168622.96498,-0.011597,0.008972,-0.992798,0.205588,0.371298,-0.130992,46,271,578,5648
1644168623.067393,-0.009949,0.00824,-0.990662,0.190321,0.340763,-0.054656,46,276,578,5664
1644168623.109614,-0.010193,0.007507,-0.992493,0.236122,0.264427,-0.207328,49,268,575,5632
1644168623.158017,-0.00885,0.00769,-0.996277,0.281924,0.462901,-0.039389,57,277,575,5664
1644168623.206363,-0.009949,0.010071,-0.992737,0.327725,0.325496,-0.100458,45,277,575,5696
1644168623.254754,-0.009949,0.010498,-0.993286,0.342992,0.539237,-0.085191,40,277,579,5648
1644168623.303176,-0.013733,0.008484,-0.99353,0.266656,0.554504,-0.207328,47,280,568,5712
1644168623.351532,-0.013123,0.009094,-0.994263,0.190321,0.386565,-0.207328,54,280,589,5728
1644168623.39993,-0.011292,0.011719,-0.991638,0.312458,0.432366,0.021679,54,270,570,5648
1644168623.448333,-0.010254,0.011536,-0.991516,0.236122,0.310229,0.052214,49,275,572,5664
1644168623.496696,-0.008972,0.008423,-0.990601,0.08345,0.386565,-0.176794,52,275,579,5600
1644168623.545217,-0.010803,0.010376,-0.990417,0.281924,0.401832,-0.085191,52,275,582,5600
1644168623.593503,-0.010071,0.010315,-0.994385,0.480397,0.447634,-0.115725,48,274,566,5728
1644168623.641909,-0.012512,0.007385,-0.990967,0.404061,0.447634,-0.192061,46,276,580,5648
1644168623.690287,-0.011719,0.010559,-0.991333,0.281924,0.432366,-0.14626,54,263,579,5648
1644168623.738665,-0.008728,0.010193,-0.991821,0.281924,0.356031,-0.14626,45,273,577,5648
1644168623.787224,-0.010559,0.010193,-0.992493,0.113985,0.371298,-0.054656,58,276,578,5696
1644168623.836153,-0.011658,0.007385,-0.992615,0.236122,0.340763,-0.222595,62,283,576,5648
1644168623.887568,-0.012878,0.009399,-0.993042,0.281924,0.401832,-0.161527,52,275,575,5696
1644168623.938515,-0.009277,0.010254,-0.992554,0.312458,0.386565,-0.054656,58,266,578,5648
1644168623.982273,-0.010376,0.011047,-0.991089,0.220855,0.401832,-0.14626,57,273,584,5584
1644168624.07753,-0.009766,0.007996,-0.990662,0.297191,0.401832,-0.100458,46,271,580,5648
1644168624.125757,-0.01062,0.008667,-0.991882,0.129252,0.539237,-0.054656,47,268,579,5600
1644168624.174184,-0.012573,0.008789,-0.99231,0.129252,0.462901,-0.100458,46,276,571,5696
1644168624.222558,-0.009155,0.011841,-0.99231,0.312458,0.508702,-0.161527,61,277,575,5696
1644168624.270969,-0.009766,0.00769,-0.992615,0.205588,0.63084,-0.130992,47,273,575,5664
1644168624.319335,-0.009827,0.013245,-0.989929,0.159786,0.386565,-0.100458,45,270,577,5648
1644168624.367746,-0.012329,0.006714,-0.990295,0.113985,0.478168,-0.14626,52,273,568,5664
1644168624.416129,-0.008362,0.009949,-0.99054,0.404061,0.462901,-0.100458,53,271,573,5664
1644168624.46453,-0.010742,0.008545,-0.990723,0.251389,0.462901,-0.024122,57,277,570,5648
1644168624.512934,-0.011414,0.009216,-0.993164,0.236122,0.401832,0.006412,46,276,573,5648
1644168624.56132,-0.011414,0.009277,-0.989807,0.175053,0.325496,0.098015,54,277,579,5696
1644168624.609703,-0.012573,0.010681,-0.990906,0.35826,0.294962,-0.100458,57,273,577,5664
1644168624.658079,-0.010437,0.007751,-0.992371,0.190321,0.462901,-0.008855,57,275,582,5664
1644168624.706463,-0.008972,0.007507,-0.991882,0.190321,0.432366,-0.085191,57,275,575,5664
1644168624.754857,-0.006775,0.012146,-0.992065,0.113985,0.203359,-0.161527,58,271,583,5600
1644168624.803309,-0.011047,0.008057,-0.992188,0.342992,0.386565,-0.054656,43,274,576,5664
1644168624.851701,-0.008606,0.010559,-0.991272,0.159786,0.294962,0.006412,48,283,578,5664
1644168624.900161,-0.010315,0.008484,-0.992432,0.220855,0.264427,0.021679,48,269,569,5648
1644168624.948471,-0.013245,0.008728,-0.992371,0.312458,0.447634,-0.008855,52,277,579,5696
1644168624.997706,-0.012329,0.009094,-0.993591,0.190321,0.478168,-0.14626,51,276,576,5648
1644168625.067466,-0.012512,0.009888,-0.992859,0.205588,0.356031,-0.14626,49,273,570,5664
1644168625.10175,-0.010864,0.010071,-0.991577,0.281924,0.386565,-0.130992,46,266,585,5664
1644168625.142713,-0.00647,0.00769,-0.989746,0.281924,0.356031,0.006412,54,270,579,5648
1644168625.238758,-0.007812,0.008484,-0.992432,0.388794,0.371298,-0.100458,46,274,573,5648
1644168625.287151,-0.00946,0.009216,-0.992859,0.281924,0.417099,-0.069924,48,279,569,5648
1644168625.335535,-0.011047,0.010498,-0.990356,0.190321,0.554504,-0.039389,47,275,577,5648
1644168625.383929,-0.01062,0.008911,-0.990112,0.144519,0.340763,-0.069924,53,269,576,5712
1644168625.432525,-0.010681,0.008179,-0.992493,0.327725,0.386565,-0.14626,64,265,579,5600
1644168625.480727,-0.011902,0.008118,-0.990295,0.434595,0.294962,-0.100458,51,269,578,5696
1644168625.529111,-0.008972,0.010559,-0.992615,0.281924,0.447634,-0.039389,62,279,569,5696
1644168625.577493,-0.010925,0.007385,-0.989868,0.190321,0.508702,-0.008855,54,273,565,5600
1644168625.625885,-0.011719,0.008545,-0.995728,0.342992,0.340763,-0.085191,41,274,576,5664
1644168625.67429,-0.009888,0.006775,-0.992004,0.220855,0.432366,-0.085191,47,273,575,5712
1644168625.722697,-0.010132,0.008301,-0.991394,0.220855,0.386565,-0.024122,55,276,576,5648
1644168625.771078,-0.009644,0.008423,-0.991333,0.129252,0.417099,0.082748,58,266,580,5696
1644168625.819512,-0.011169,0.009399,-0.993591,0.312458,0.401832,0.021679,39,269,573,5696
1644168625.867899,-0.00946,0.011536,-0.99176,0.312458,0.24916,0.021679,58,279,578,5664
1644168625.916287,-0.009705,0.008179,-0.993774,0.159786,0.447634,-0.085191,51,286,576,5696
1644168625.96469,-0.010864,0.008423,-0.992981,0.297191,0.371298,-0.024122,51,279,573,5648
1644168626.013083,-0.006836,0.01178,-0.992004,0.312458,0.371298,-0.14626,46,279,576,5664
1644168626.08102,-0.011597,0.01001,-0.993896,0.098718,0.417099,-0.130992,58,271,576,5664
1644168626.158172,-0.009827,0.008789,-0.990051,0.251389,0.371298,-0.054656,53,264,580,5600
1644168626.206567,-0.007202,0.007202,-0.992004,0.312458,0.462901,-0.222595,58,269,573,5664
1644168626.255265,-0.007629,0.010559,-0.995483,0.312458,0.417099,-0.085191,47,275,572,5760
1644168626.30337,-0.008057,0.01178,-0.992432,0.342992,0.432366,-0.054656,51,274,571,5600
1644168626.351738,-0.008911,0.010254,-0.989502,0.327725,0.401832,-0.069924,54,273,577,5584
1644168626.400141,-0.009583,0.008484,-0.988037,0.251389,0.264427,-0.085191,49,275,565,5648
1644168626.448524,-0.011536,0.010315,-0.99292,0.251389,0.462901,0.021679,49,270,570,5648
1644168626.496933,-0.008179,0.008179,-0.993042,0.144519,0.401832,-0.100458,40,270,570,5712
1644168626.545316,-0.009094,0.007629,-0.993103,0.327725,0.508702,-0.161527,40,273,577,5648
1644168626.59371,-0.010071,0.008667,-0.990784,0.205588,0.386565,-0.069924,53,279,566,5648
1644168626.642069,-0.011841,0.009033,-0.992126,0.327725,0.279695,-0.115725,48,276,566,5696
1644168626.690481,-0.009705,0.008972,-0.989563,0.327725,0.508702,-0.115725,52,280,575,5664
1644168626.738876,-0.010681,0.008789,-0.994629,0.35826,0.508702,-0.192061,51,269,573,5648
1644168626.787268,-0.012207,0.01178,-0.99231,0.190321,0.493435,-0.222595,45,273,577,5664
1644168626.835707,-0.009155,0.011658,-0.993835,0.266656,0.539237,-0.161527,57,270,575,5696
1644168626.884099,-0.010254,0.00824,-0.992615,0.205588,0.401832,0.067481,57,270,575,5632
1644168626.932498,-0.010498,0.00824,-0.993408,0.251389,0.294962,-0.024122,60,266,580,5648
1644168626.980959,-0.007874,0.009888,-0.992737,0.08345,0.340763,-0.085191,43,276,578,5664
1644168627.029281,-0.008911,0.00885,-0.988281,0.236122,0.432366,-0.069924,51,276,566,5648
1644168627.079779,-0.012573,0.006409,-0.992615,0.220855,0.432366,-0.054656,51,266,580,5664
1644168627.129328,-0.011719,0.007812,-0.993164,0.266656,0.493435,-0.039389,55,264,573,5696
1644168627.178072,-0.007202,0.011475,-0.992432,0.297191,0.447634,-0.085191,47,270,577,5600
1644168627.223147,-0.010925,0.005859,-0.991211,0.251389,0.493435,-0.130992,52,280,568,5584
1644168627.319563,-0.012329,0.007935,-0.992371,0.281924,0.539237,-0.069924,62,264,573,5696
1644168627.367944,-0.008362,0.008545,-0.99054,0.190321,0.401832,-0.176794,41,264,578,5664
1644168627.416327,-0.010986,0.010132,-0.98999,0.342992,0.401832,-0.008855,43,274,576,5648
1644168627.464851,-0.011963,0.006958,-0.992981,0.236122,0.386565,-0.268397,40,275,570,5696
1644168627.513132,-0.009888,0.008301,-0.991882,0.266656,0.386565,-0.054656,43,271,576,5648
1644168627.561512,-0.009094,0.010742,-0.995056,0.205588,0.401832,-0.14626,51,276,571,5696
1644168627.60991,-0.010437,0.01123,-0.993408,0.205588,0.401832,0.006412,54,270,579,5600
1644168627.658296,-0.012268,0.007812,-0.99115,0.129252,0.279695,-0.039389,54,287,568,5648
1644168627.706682,-0.012695,0.009766,-0.991211,0.08345,0.401832,-0.237863,39,271,571,5664
1644168627.75521,-0.009155,0.009521,-0.992249,0.113985,0.356031,-0.192061,45,263,575,5632
1644168627.803491,-0.011292,0.012695,-0.990967,0.281924,0.279695,-0.283664,47,273,577,5696
1644168627.851921,-0.012451,0.008972,-0.989258,0.236122,0.279695,-0.115725,51,276,573,5648
1644168627.900265,-0.011475,0.00824,-0.98938,0.08345,0.294962,-0.024122,58,276,566,5648
1644168627.948685,-0.009766,0.008423,-0.990784,0.037649,0.401832,-0.069924,45,280,577,5696
1644168627.99708,-0.012695,0.008118,-0.991211,0.480397,0.432366,-0.054656,51,286,573,5648
1644168628.063009,-0.010559,0.011169,-0.991089,0.129252,0.462901,-0.039389,61,275,575,5696
1644168628.097909,-0.009583,0.009766,-0.993225,0.113985,0.386565,-0.024122,59,268,572,5712
1644168628.142241,-0.008118,0.008911,-0.993713,0.205588,0.417099,-0.100458,58,266,576,5648
1644168628.190621,-0.007996,0.010559,-0.992493,0.327725,0.493435,-0.024122,46,281,578,5712
1644168628.240358,-0.007629,0.01001,-0.990906,0.419328,0.432366,-0.207328,39,271,566,5648
1644168628.290582,-0.008545,0.012939,-0.98999,0.205588,0.417099,-0.314198,52,270,579,5664
1644168628.340953,-0.010437,0.007263,-0.991333,0.190321,0.462901,-0.100458,58,266,576,5648
1644168628.43258,-0.010132,0.010681,-0.991516,0.205588,0.356031,-0.085191,42,268,575,5696
1644168628.480942,-0.008423,0.009277,-0.992493,0.190321,0.447634,-0.054656,48,271,583,5696
1644168628.529299,-0.014526,0.011414,-0.992859,0.144519,0.386565,-0.115725,53,286,569,5632
1644168628.577717,-0.011108,0.009705,-0.990112,0.266656,0.340763,-0.25313,58,269,569,5664
1644168628.626099,-0.009705,0.008789,-0.989624,0.175053,0.432366,-0.054656,43,271,569,5664
1644168628.674514,-0.01123,0.009949,-0.98938,0.159786,0.371298,0.12855,57,285,572,5664
1644168628.72291,-0.012695,0.010742,-0.990845,0.236122,0.417099,-0.054656,51,279,571,5648
1644168628.771296,-0.010193,0.007751,-0.990723,0.312458,0.432366,-0.176794,45,273,577,5664
1644168628.819684,-0.010254,0.006104,-0.99054,0.129252,0.279695,-0.054656,57,265,575,5648
1644168628.868111,-0.009827,0.008911,-0.993652,0.144519,0.340763,-0.085191,46,279,566,5648
1644168628.916502,-0.010559,0.00885,-0.992065,0.342992,0.325496,-0.115725,42,273,584,5664
1644168628.964902,-0.011169,0.012207,-0.991577,0.144519,0.401832,-0.115725,43,281,571,5696
1644168629.013273,-0.008972,0.008728,-0.990051,0.266656,0.432366,-0.024122,54,277,582,5696
1644168629.069046,-0.010559,0.007935,-0.992188,0.220855,0.539237,0.098015,46,271,583,5600
1644168629.110044,-0.011536,0.010864,-0.992981,0.404061,0.417099,-0.176794,46,274,573,5664
1644168629.158388,-0.006897,0.009644,-0.993225,0.190321,0.340763,-0.100458,40,275,577,5664
1644168629.206799,-0.008789,0.012146,-0.989319,0.220855,0.432366,-0.161527,48,271,573,5664
1644168629.255227,-0.013245,0.009155,-0.992371,0.205588,0.340763,-0.222595,48,266,573,5600
1644168629.303583,-0.010376,0.01001,-0.992065,0.373527,0.356031,-0.161527,49,265,577,5664
1644168629.352384,-0.010498,0.010193,-0.99353,0.129252,0.462901,-0.008855,66,275,570,5648
1644168629.402897,-0.007507,0.009705,-0.992615,0.129252,0.401832,-0.100458,53,276,573,5696
1644168629.453248,-0.012085,0.008362,-0.993408,0.159786,0.386565,-0.024122,58,276,578,5696
1644168629.498303,-0.010925,0.007019,-0.992432,0.205588,0.386565,-0.237863,51,276,569,5600
1644168629.593935,-0.011475,0.009094,-0.993286,0.175053,0.325496,-0.115725,57,280,572,5664
1644168629.642391,-0.012817,0.009033,-0.992065,0.297191,0.401832,0.021679,45,268,579,5632
1644168629.690709,-0.010132,0.007202,-0.991455,0.312458,0.417099,-0.008855,46,274,571,5664
1644168629.73909,-0.009216,0.011414,-0.991699,0.266656,0.523969,-0.130992,47,265,577,5712
1644168629.787459,-0.010132,0.010376,-0.993164,0.220855,0.478168,0.098015,57,273,579,5664
1644168629.835872,-0.010376,0.006714,-0.992737,0.266656,0.432366,-0.039389,48,274,576,5664
1644168629.884323,-0.010498,0.006897,-0.990295,0.205588,0.432366,-0.115725,59,268,575,5696
1644168629.932718,-0.010925,0.008362,-0.989868,0.404061,0.340763,-0.054656,54,270,579,5664
1644168629.98109,-0.010803,0.01001,-0.991333,0.297191,0.386565,0.113282,57,275,577,5696
1644168630.029484,-0.010986,0.009644,-0.991394,0.159786,0.371298,-0.25313,53,281,578,5664
1644168630.083744,-0.01001,0.013672,-0.990845,0.129252,0.493435,-0.054656,52,268,577,5648
1644168630.126271,-0.011108,0.009949,-0.992432,0.220855,0.386565,-0.130992,57,273,572,5664
1644168630.174655,-0.013855,0.009216,-0.994141,0.098718,0.462901,-0.024122,55,274,587,5648
1644168630.223018,-0.008484,0.006958,-0.993347,0.068183,0.401832,-0.115725,58,276,576,5648
1644168630.271714,-0.010254,0.010681,-0.988953,0.266656,0.264427,-0.008855,55,266,571,5664
1644168630.321241,-0.010254,0.008606,-0.991577,0.220855,0.401832,-0.192061,53,276,580,5664
1644168630.371438,-0.00946,0.008118,-0.991455,0.327725,0.356031,-0.130992,55,259,573,5664
1644168630.416572,-0.010742,0.005981,-0.992493,0.327725,0.447634,0.036947,57,273,577,5648
1644168630.513347,-0.009827,0.009766,-0.991455,0.205588,0.325496,-0.039389,51,271,583,5648
1644168630.561722,-0.013367,0.009521,-0.991455,0.35826,0.493435,-0.039389,59,273,570,5648
1644168630.61012,-0.011292,0.012146,-0.990784,0.052916,0.340763,-0.130992,40,285,577,5664
1644168630.658509,-0.010986,0.012878,-0.99292,0.297191,0.264427,-0.115725,51,281,583,5664
1644168630.706904,-0.009583,0.010437,-0.992554,0.205588,0.340763,-0.192061,51,274,580,5696
1644168630.755277,-0.010071,0.008972,-0.990967,0.068183,0.554504,-0.14626,51,271,566,5696
1644168630.803707,-0.007507,0.009155,-0.989929,0.205588,0.585038,-0.100458,45,270,582,5648
1644168630.852089,-0.008301,0.011047,-0.991272,0.373527,0.539237,-0.085191,39,279,578,5696
1644168630.900517,-0.010254,0.010071,-0.99115,0.312458,0.294962,0.021679,48,279,578,5696
1644168630.948899,-0.012268,0.01178,-0.992554,0.35826,0.325496,0.036947,53,279,576,5600
1644168630.99726,-0.009583,0.009277,-0.99176,0.08345,0.386565,-0.008855,43,266,571,5664
1644168631.054334,-0.011841,0.007568,-0.992737,0.205588,0.386565,-0.130992,38,260,577,5632
1644168631.098664,-0.010498,0.011353,-0.993042,0.175053,0.371298,-0.069924,52,273,577,5664
1644168631.142488,-0.009338,0.010254,-0.990356,0.129252,0.432366,-0.024122,45,270,582,5664
1644168631.190859,-0.009338,0.007507,-0.991516,0.205588,0.478168,-0.085191,47,273,575,5696
1644168631.239237,-0.008911,0.008423,-0.994873,0.236122,0.310229,-0.069924,47,265,572,5696
1644168631.287633,-0.009766,0.007751,-0.991577,0.098718,0.401832,-0.237863,48,283,583,5664
1644168631.33622,-0.011108,0.009827,-0.995544,0.236122,0.417099,-0.039389,54,263,579,5648
1644168631.384448,-0.011292,0.008972,-0.991516,0.266656,0.356031,-0.130992,45,285,579,5648
1644168631.43416,-0.009033,0.009033,-0.990906,0.281924,0.508702,0.006412,48,271,564,5648
1644168631.484462,-0.010254,0.009338,-0.990601,0.266656,0.508702,-0.024122,48,271,571,5696
1644168631.534715,-0.012451,0.009399,-0.991272,0.159786,0.493435,-0.192061,46,276,573,5712
1644168631.579117,-0.010559,0.011597,-0.991821,0.236122,0.401832,-0.130992,42,270,572,5584
1644168631.674973,-0.008972,0.007263,-0.991821,0.251389,0.508702,-0.085191,46,279,578,5648
1644168631.723166,-0.008057,0.007263,-0.992126,0.175053,0.340763,0.036947,51,274,566,5664
1644168631.771535,-0.008911,0.009399,-0.993164,0.129252,0.478168,-0.192061,54,260,565,5664
1644168631.819933,-0.01123,0.010864,-0.991638,0.098718,0.462901,-0.069924,47,270,572,5664
1644168631.8683,-0.012268,0.009094,-0.99054,0.373527,0.493435,-0.069924,49,270,575,5648
1644168631.916709,-0.011902,0.00824,-0.989502,0.190321,0.371298,-0.283664,47,270,582,5664
1644168631.965129,-0.01178,0.010559,-0.992798,0.281924,0.447634,-0.14626,46,274,573,5664
1644168632.013495,-0.00946,0.009094,-0.991394,0.312458,0.462901,-0.069924,43,276,573,5664
1644168632.069212,-0.011475,0.009644,-0.991455,0.205588,0.401832,-0.100458,49,273,579,5696
1644168632.110222,-0.009766,0.00946,-0.992737,0.312458,0.432366,-0.039389,53,276,578,5648
1644168632.158631,-0.009094,0.012085,-0.993042,0.297191,0.233893,-0.054656,55,276,573,5648
1644168632.207073,-0.01239,0.00708,-0.991394,0.205588,0.386565,0.036947,51,274,580,5664
1644168632.255406,-0.012268,0.009705,-0.99176,0.236122,0.493435,-0.222595,53,279,571,5648
1644168632.303816,-0.010193,0.011047,-0.98938,0.159786,0.401832,-0.115725,46,279,569,5664
1644168632.352244,-0.010986,0.011841,-0.993103,0.297191,0.432366,-0.130992,45,285,582,5664
1644168632.400594,-0.009827,0.011963,-0.991943,0.236122,0.356031,0.098015,39,274,573,5648
1644168632.448964,-0.012512,0.007568,-0.99469,0.129252,0.356031,0.006412,52,268,577,5696
1644168632.497323,-0.01178,0.008179,-0.990356,0.266656,0.371298,-0.024122,52,277,572,5664
1644168632.545744,-0.011902,0.008118,-0.990112,0.113985,0.447634,-0.115725,47,275,568,5664
1644168632.594409,-0.00885,0.010803,-0.99115,0.236122,0.462901,-0.069924,46,269,566,5664
1644168632.644733,-0.013733,0.009766,-0.990601,0.236122,0.279695,-0.085191,40,265,563,5648
1644168632.694963,-0.009155,0.008362,-0.991699,0.342992,0.386565,-0.14626,48,274,576,5648
1644168632.740072,-0.007507,0.01123,-0.99054,0.297191,0.340763,0.082748,53,274,573,5696
1644168632.836115,-0.011719,0.010193,-0.992249,0.159786,0.417099,-0.008855,49,277,575,5664
1644168632.884504,-0.010437,0.00769,-0.99115,0.373527,0.432366,0.036947,43,276,571,5664
1644168632.93292,-0.01062,0.007629,-0.989746,0.205588,0.447634,-0.130992,55,281,573,5648
1644168632.981279,-0.014404,0.012207,-0.990234,0.190321,0.508702,-0.14626,49,273,579,5648
1644168633.029696,-0.010071,0.010193,-0.99176,0.098718,0.478168,-0.14626,49,268,575,5664
1644168633.078134,-0.010254,0.008484,-0.991638,0.144519,0.371298,0.006412,57,277,572,5648
1644168633.126438,-0.011353,0.008789,-0.992737,0.205588,0.386565,-0.130992,52,265,570,5648
1644168633.174836,-0.008423,0.010315,-0.993103,0.236122,0.417099,-0.192061,61,265,570,5696
1644168633.223224,-0.009888,0.008362,-0.993225,0.08345,0.432366,-0.115725,53,266,576,5632
1644168633.271583,-0.007629,0.008911,-0.992432,0.404061,0.478168,-0.14626,53,279,571,5584
1644168633.320004,-0.009827,0.010681,-0.991516,0.236122,0.386565,-0.237863,49,280,577,5696
1644168633.368388,-0.011597,0.009888,-0.99231,0.190321,0.417099,-0.024122,58,274,573,5648
1644168633.416789,-0.012085,0.01062,-0.992004,0.251389,0.417099,-0.039389,48,271,576,5712
1644168633.465269,-0.012024,0.009033,-0.993774,0.159786,0.24916,-0.25313,53,271,573,5664
1644168633.51356,-0.010132,0.010559,-0.989807,0.220855,0.356031,-0.192061,49,273,568,5648
1644168633.561924,-0.009094,0.009277,-0.990479,0.251389,0.325496,-0.085191,59,282,584,5696
1644168633.610364,-0.012878,0.009277,-0.990417,0.236122,0.310229,-0.207328,61,273,579,5664
1644168633.658738,-0.009583,0.008179,-0.992798,0.327725,0.188092,-0.100458,47,277,579,5696
1644168633.707126,-0.00946,0.009216,-0.992615,0.251389,0.386565,0.036947,51,281,573,5648
1644168633.755662,-0.010376,0.011047,-0.99353,0.404061,0.417099,0.036947,54,275,579,5696
1644168633.80612,-0.010864,0.008484,-0.991943,0.251389,0.493435,-0.008855,60,276,569,5600
1644168633.857205,-0.008667,0.008362,-0.991516,0.281924,0.432366,-0.130992,57,280,572,5664
1644168633.901666,-0.012634,0.009155,-0.99353,0.068183,0.417099,0.021679,46,281,578,5648
1644168633.99749,-0.010376,0.005554,-0.990173,0.144519,0.478168,-0.14626,49,280,582,5648
1644168634.058968,-0.008728,0.010986,-0.992249,0.205588,0.493435,-0.054656,42,273,582,5648
1644168634.097054,-0.013,0.00708,-0.992065,0.205588,0.371298,-0.069924,48,279,578,5664
1644168634.142659,-0.010803,0.008118,-0.994019,0.175053,0.478168,-0.192061,47,273,568,5664
1644168634.191027,-0.008057,0.007507,-0.993103,0.266656,0.356031,-0.054656,40,275,579,5664
1644168634.239421,-0.01062,0.00885,-0.994324,0.388794,0.417099,-0.054656,55,288,580,5648
1644168634.287804,-0.010376,0.008057,-0.992737,0.175053,0.340763,-0.100458,52,275,577,5664
1644168634.336191,-0.011719,0.007446,-0.994995,0.281924,0.417099,-0.069924,46,271,578,5696
1644168634.384621,-0.008972,0.007141,-0.992554,0.144519,0.432366,-0.115725,51,276,578,5648
1644168634.433196,-0.011108,0.011658,-0.993652,0.46513,0.401832,-0.115725,54,275,570,5648
1644168634.481456,-0.010559,0.009583,-0.992737,0.266656,0.401832,-0.222595,52,277,570,5696
1644168634.530864,-0.012146,0.012451,-0.991333,0.068183,0.386565,-0.069924,52,268,577,5648
1644168634.58121,-0.010254,0.010254,-0.989746,0.266656,0.310229,-0.039389,51,271,576,5648
1644168634.631473,-0.01062,0.011841,-0.994385,0.220855,0.386565,-0.069924,54,260,575,5696
1644168634.723378,-0.009155,0.007812,-0.994141,0.236122,0.417099,-0.176794,52,273,575,5712
1644168634.771698,-0.010437,0.010376,-0.992371,0.342992,0.417099,-0.100458,46,269,576,5664
1644168634.82012,-0.010193,0.010254,-0.991272,0.297191,0.523969,-0.207328,48,274,573,5664
1644168634.868521,-0.007935,0.010071,-0.991516,0.312458,0.310229,-0.207328,53,271,573,5600
1644168634.916886,-0.00885,0.007202,-0.990234,0.205588,0.386565,-0.039389,48,276,566,5648
1644168634.965306,-0.008484,0.012451,-0.993225,0.159786,0.462901,0.021679,49,273,575,5696
1644168635.013687,-0.012756,0.00946,-0.990845,0.113985,0.462901,-0.054656,52,273,577,5600
1644168635.066467,-0.011108,0.00885,-0.98999,0.266656,0.600305,-0.054656,52,282,579,5728
1644168635.110511,-0.010681,0.008667,-0.99176,0.251389,0.356031,-0.024122,47,277,577,5664
1644168635.158836,-0.010071,0.010864,-0.990479,0.342992,0.294962,-0.024122,54,275,575,5648
1644168635.207226,-0.010498,0.010498,-0.990234,0.297191,0.325496,-0.192061,52,270,575,5600
1644168635.255622,-0.010681,0.009583,-0.990295,0.281924,0.371298,-0.024122,45,277,582,5664
1644168635.304015,-0.009644,0.00946,-0.989868,0.388794,0.401832,-0.14626,55,266,576,5648
1644168635.352406,-0.011963,0.008362,-0.990051,0.220855,0.493435,-0.14626,47,273,570,5664
1644168635.400783,-0.011292,0.010498,-0.993042,0.266656,0.264427,-0.207328,46,271,580,5696
1644168635.449176,-0.010681,0.008423,-0.990479,0.144519,0.356031,-0.176794,52,270,577,5664
1644168635.497581,-0.007996,0.011292,-0.991333,0.281924,0.447634,-0.085191,60,286,578,5712
1644168635.54596,-0.009949,0.009277,-0.992432,0.404061,0.447634,-0.14626,49,273,570,5648
1644168635.594823,-0.008423,0.010376,-0.994751,0.220855,0.386565,-0.100458,49,263,584,5648
1644168635.643423,-0.009399,0.008423,-0.991211,0.327725,0.432366,-0.130992,61,270,575,5696
1644168635.694155,-0.009705,0.011902,-0.990417,0.220855,0.447634,-0.130992,47,270,575,5648
1644168635.744035,-0.010559,0.007812,-0.990723,0.266656,0.371298,-0.054656,51,274,569,5648
1644168635.789143,-0.012939,0.010742,-0.992737,0.251389,0.417099,-0.115725,45,275,582,5648
1644168635.884901,-0.007507,0.010193,-0.989807,0.144519,0.310229,-0.039389,43,276,580,5664
1644168635.933145,-0.009033,0.009766,-0.99353,0.144519,0.310229,0.052214,57,273,575,5664
1644168635.981493,-0.010376,0.011597,-0.990417,0.297191,0.447634,-0.069924,54,273,568,5648
1644168636.029906,-0.009521,0.010437,-0.988525,0.327725,0.294962,-0.100458,42,265,575,5648
1644168636.078365,-0.010925,0.009399,-0.993652,0.175053,0.356031,-0.085191,60,269,576,5664
1644168636.126683,-0.013611,0.009705,-0.994446,0.220855,0.325496,0.036947,47,260,570,5664
1644168636.175115,-0.009277,0.01178,-0.990479,0.251389,0.356031,-0.054656,60,266,587,5648
1644168636.223435,-0.008728,0.010559,-0.988708,0.342992,0.493435,-0.024122,57,273,575,5648
1644168636.271821,-0.010315,0.008728,-0.992676,0.236122,0.371298,-0.14626,49,275,577,5664
1644168636.32021,-0.008179,0.010986,-0.991394,0.388794,0.447634,-0.14626,55,266,573,5664
1644168636.368596,-0.011047,0.011292,-0.990601,0.266656,0.539237,0.021679,54,280,582,5664
1644168636.41699,-0.010986,0.008118,-0.993225,0.327725,0.432366,-0.100458,46,264,566,5664
1644168636.465379,-0.011841,0.009277,-0.991577,0.159786,0.371298,-0.100458,51,276,587,5664
1644168636.513774,-0.010132,0.010681,-0.993896,0.144519,0.478168,0.082748,41,274,573,5664
1644168636.562191,-0.010498,0.010803,-0.990479,0.327725,0.417099,-0.100458,45,275,577,5648
1644168636.61055,-0.009521,0.006409,-0.992188,0.220855,0.493435,-0.192061,47,270,570,5664
1644168636.658943,-0.011475,0.010315,-0.992615,0.297191,0.356031,-0.085191,54,260,577,5648
1644168636.707305,-0.011353,0.010315,-0.991699,0.220855,0.417099,-0.054656,59,268,572,5664
1644168636.755863,-0.01062,0.010254,-0.991577,0.205588,0.493435,-0.100458,48,276,576,5648
1644168636.806077,-0.008179,0.009521,-0.992615,0.35826,0.432366,-0.161527,55,279,585,5648
1644168636.856886,-0.010071,0.009094,-0.992249,0.266656,0.493435,-0.161527,52,270,570,5648
1644168636.901925,-0.009705,0.006531,-0.989197,0.190321,0.432366,0.036947,47,265,579,5648
1644168636.998017,-0.01178,0.011169,-0.991516,0.312458,0.371298,-0.100458,59,273,565,5664
1644168636.998017,-0.01178,0.011169,-0.991516,0.312458,0.371298,-0.100458,59,273,565,5664
1644168637.099882,-0.010193,0.010193,-0.990662,0.312458,0.371298,-0.054656,53,271,580,5664
1644168637.142874,-0.010376,0.008972,-0.990479,0.113985,0.264427,-0.085191,54,277,568,5648
1644168637.191246,-0.013367,0.009399,-0.992737,0.220855,0.310229,-0.130992,48,276,580,5664
1644168637.239643,-0.011475,0.010864,-0.992126,0.251389,0.417099,-0.054656,48,281,576,5648
1644168637.288015,-0.011902,0.009277,-0.990479,0.327725,0.371298,-0.268397,51,274,576,5648
1644168637.336417,-0.008118,0.011108,-0.988586,0.266656,0.447634,-0.039389,48,274,569,5648
1644168637.384798,-0.00708,0.009888,-0.990479,0.175053,0.417099,-0.130992,48,274,578,5648
1644168637.433474,-0.009094,0.010254,-0.993103,0.175053,0.417099,-0.069924,47,273,570,5648
1644168637.481928,-0.013,0.010864,-0.990967,0.113985,0.325496,-0.085191,55,269,578,5648
1644168637.532457,-0.007996,0.011108,-0.990784,0.205588,0.401832,-0.100458,49,265,575,5664
1644168637.582805,-0.01062,0.010864,-0.991394,0.236122,0.386565,-0.085191,48,276,580,5712
1644168637.627796,-0.008423,0.01001,-0.990051,0.220855,0.310229,-0.085191,51,281,578,5696
1644168637.723526,-0.012573,0.008911,-0.990356,0.327725,0.462901,-0.115725,43,269,566,5632
1644168637.771891,-0.011658,0.010437,-0.993225,0.327725,0.508702,0.021679,68,270,570,5696
1644168637.8203,-0.010559,0.009949,-0.994202,0.159786,0.401832,-0.054656,49,275,577,5664
1644168637.868701,-0.012024,0.009949,-0.990173,0.220855,0.356031,-0.14626,52,263,568,5648
1644168637.917101,-0.012268,0.010803,-0.993835,0.388794,0.539237,-0.176794,45,270,570,5584
1644168637.965527,-0.013062,0.010742,-0.990173,0.220855,0.462901,-0.14626,36,276,569,5664
1644168638.013915,-0.011597,0.009521,-0.98999,0.297191,0.386565,-0.024122,47,277,575,5664
1644168638.06658,-0.01001,0.013245,-0.990234,0.251389,0.447634,0.098015,49,260,577,5648
1644168638.11065,-0.008484,0.008301,-0.991882,0.266656,0.401832,-0.069924,58,274,571,5664
1644168638.159054,-0.009827,0.009583,-0.99054,0.220855,0.371298,-0.008855,54,273,579,5712
1644168638.207441,-0.008728,0.008667,-0.993408,0.327725,0.417099,-0.161527,46,262,566,5648
1644168638.25583,-0.007874,0.012817,-0.987427,0.159786,0.462901,-0.085191,53,262,578,5664
1644168638.304217,-0.011292,0.011963,-0.991394,0.113985,0.539237,0.036947,54,273,572,5696
1644168638.352629,-0.012085,0.009338,-0.991211,0.266656,0.417099,-0.130992,46,269,569,5712
1644168638.400974,-0.009521,0.009399,-0.993347,0.236122,0.401832,-0.115725,48,264,569,5696
1644168638.449391,-0.007874,0.007935,-0.992432,0.297191,0.401832,-0.161527,54,277,579,5664
1644168638.497756,-0.011841,0.010071,-0.990601,0.281924,0.386565,-0.100458,53,274,576,5664
1644168638.546175,-0.009705,0.008545,-0.991516,0.220855,0.401832,-0.207328,60,269,571,5648
1644168638.594604,-0.009705,0.008789,-0.987732,0.236122,0.371298,-0.207328,49,263,575,5648
1644168638.64322,-0.008423,0.009949,-0.989685,0.281924,0.447634,-0.207328,47,268,572,5648
1644168638.693722,-0.011597,0.007629,-0.991943,0.327725,0.340763,-0.069924,51,269,585,5664
1644168638.744029,-0.010925,0.010376,-0.992737,0.159786,0.493435,-0.14626,49,280,572,5664
1644168638.789039,-0.01062,0.009644,-0.988403,0.312458,0.539237,-0.130992,48,264,566,5664
1644168638.884955,-0.010193,0.010559,-0.991699,0.205588,0.325496,-0.069924,58,271,566,5696
1644168638.933343,-0.011475,0.010864,-0.992188,0.159786,0.401832,-0.100458,42,268,582,5696
1644168638.981727,-0.008179,0.011292,-0.991272,0.159786,0.401832,-0.237863,46,264,573,5728
1644168639.030089,-0.009521,0.011169,-0.991211,0.144519,0.386565,-0.100458,51,271,566,5696
1644168639.078672,-0.011353,0.008789,-0.99353,0.098718,0.417099,-0.161527,59,280,577,5584
1644168639.126872,-0.009399,0.010559,-0.992493,0.327725,0.371298,-0.14626,51,266,573,5648
1644168639.175241,-0.009888,0.006775,-0.992737,0.098718,0.386565,-0.054656,53,266,578,5664
1644168639.223642,-0.010376,0.009277,-0.991699,0.236122,0.432366,-0.237863,54,273,572,5664
1644168639.272041,-0.011536,0.008423,-0.989868,0.236122,0.432366,-0.008855,53,279,580,5664
1644168639.320417,-0.010498,0.008057,-0.991516,0.205588,0.356031,-0.130992,52,275,575,5696
1644168639.368821,-0.011047,0.009827,-0.994263,0.266656,0.401832,-0.039389,48,274,576,5584
1644168639.417206,-0.010864,0.009155,-0.994934,0.449863,0.310229,-0.069924,46,274,573,5664
1644168639.4656,-0.008667,0.009033,-0.992615,0.236122,0.386565,-0.024122,48,262,573,5664
1644168639.513988,-0.009888,0.012573,-0.992493,0.205588,0.417099,-0.085191,62,286,578,5600
1644168639.562392,-0.010376,0.010925,-0.992493,0.251389,0.356031,-0.115725,53,271,578,5648
1644168639.610743,-0.010437,0.009338,-0.990723,0.144519,0.432366,-0.115725,49,285,584,5648
1644168639.659113,-0.01239,0.008423,-0.990417,0.297191,0.279695,0.036947,52,280,586,5760
1644168639.707557,-0.010254,0.008972,-0.99054,0.236122,0.340763,-0.085191,49,277,579,5664
1644168639.75593,-0.009949,0.009766,-0.992981,0.144519,0.417099,-0.054656,49,273,561,5696
1644168639.805201,-0.009644,0.008362,-0.99176,0.175053,0.356031,-0.222595,53,274,578,5728
1644168639.855975,-0.011047,0.008911,-0.993225,0.098718,0.340763,-0.008855,47,270,572,5648
1644168639.90653,-0.009766,0.009094,-0.991577,0.312458,0.340763,0.067481,52,275,584,5712
1644168639.950814,-0.012695,0.011719,-0.993103,0.281924,0.371298,-0.14626,59,277,584,5632
1644168640.057568,-0.009888,0.009766,-0.993225,0.404061,0.356031,-0.222595,53,276,587,5664
1644168640.098361,-0.008972,0.012268,-0.990417,0.373527,0.432366,-0.161527,58,269,578,5584
1644168640.143131,-0.008911,0.008057,-0.99115,0.159786,0.447634,-0.161527,40,273,565,5664
1644168640.191451,-0.008118,0.008911,-0.991516,0.129252,0.340763,-0.161527,46,283,580,5712
1644168640.239844,-0.010803,0.008728,-0.993164,0.342992,0.447634,0.12855,52,273,570,5600
1644168640.288187,-0.011108,0.006287,-0.99231,0.129252,0.371298,-0.039389,49,273,584,5696
1644168640.336624,-0.011719,0.008484,-0.993835,0.236122,0.417099,-0.069924,53,276,590,5728
1644168640.38506,-0.00946,0.007629,-0.993591,0.281924,0.493435,-0.14626,52,282,579,5664
1644168640.433411,-0.010071,0.010254,-0.992432,0.297191,0.432366,-0.314198,48,271,569,5648
1644168640.481795,-0.010559,0.011414,-0.992249,0.266656,0.294962,-0.100458,48,276,576,5648
1644168640.530177,-0.008789,0.011108,-0.993286,0.190321,0.417099,-0.008855,55,276,578,5696
1644168640.580101,-0.008911,0.011536,-0.989563,0.297191,0.401832,-0.054656,54,273,582,5648
1644168640.630082,-0.014648,0.012268,-0.991333,0.175053,0.356031,-0.039389,57,275,579,5584
1644168640.680354,-0.010193,0.012512,-0.992798,0.297191,0.417099,-0.130992,64,270,570,5664
1644168640.772384,-0.009827,0.011108,-0.992676,0.312458,0.462901,-0.085191,52,268,584,5648
1644168640.820552,-0.01001,0.007507,-0.992981,0.175053,0.386565,-0.024122,42,277,572,5584
1644168640.86897,-0.009827,0.008057,-0.993835,0.129252,0.417099,-0.100458,48,276,571,5600
1644168640.917324,-0.012146,0.009705,-0.992615,0.098718,0.371298,-0.054656,51,281,583,5696
1644168640.965739,-0.010681,0.008118,-0.989441,0.297191,0.401832,-0.085191,57,268,575,5648
1644168641.014107,-0.005981,0.011047,-0.989868,0.281924,0.294962,-0.100458,46,271,571,5648
1644168641.066548,-0.011353,0.009583,-0.990234,0.327725,0.493435,-0.207328,45,275,570,5664
1644168641.110949,-0.010742,0.009949,-0.991577,0.175053,0.432366,-0.054656,57,270,575,5600
1644168641.159283,-0.012878,0.007629,-0.989502,0.281924,0.386565,-0.024122,49,282,582,5696
1644168641.207648,-0.010986,0.008911,-0.990967,0.08345,0.401832,-0.161527,55,269,585,5728
1644168641.256043,-0.009094,0.008911,-0.991089,0.312458,0.310229,-0.14626,43,274,576,5664
1644168641.30443,-0.01001,0.009644,-0.990295,0.419328,0.523969,-0.069924,53,276,585,5648
1644168641.352837,-0.00885,0.010437,-0.995239,0.007115,0.386565,-0.130992,49,282,579,5648
1644168641.401212,-0.008118,0.010742,-0.990723,0.312458,0.508702,-0.298931,48,279,569,5632
1644168641.449602,-0.008423,0.009827,-0.990723,0.098718,0.462901,-0.130992,57,277,577,5728
1644168641.498011,-0.010925,0.010681,-0.990356,0.251389,0.325496,-0.207328,48,276,571,5696
1644168641.546351,-0.008423,0.011353,-0.989563,0.281924,0.356031,-0.100458,43,279,571,5632
1644168641.594785,-0.013489,0.008606,-0.991882,0.175053,0.447634,-0.192061,53,271,580,5664
1644168641.643153,-0.007507,0.010864,-0.993774,0.251389,0.325496,-0.115725,51,266,578,5648
1644168641.691695,-0.008545,0.010254,-0.991577,0.327725,0.401832,-0.130992,52,280,565,5696
1644168641.742185,-0.011597,0.009766,-0.991699,0.129252,0.569771,0.021679,49,277,565,5648
1644168641.792277,-0.007385,0.010559,-0.994263,0.08345,0.478168,-0.161527,47,277,575,5664
1644168641.839109,-0.009399,0.012329,-0.993652,0.007115,0.401832,-0.25313,39,281,578,5648
1644168641.933613,-0.010376,0.008179,-0.990112,0.266656,0.386565,-0.192061,57,273,575,5648
1644168641.98194,-0.009521,0.008301,-0.993103,0.205588,0.371298,-0.14626,45,280,575,5648
1644168642.03033,-0.011841,0.009827,-0.994385,0.327725,0.401832,-0.130992,53,274,569,5664
1644168642.078756,-0.010925,0.00946,-0.992554,0.312458,0.371298,0.021679,48,279,585,5664
1644168642.127116,-0.00885,0.007324,-0.989319,0.236122,0.432366,0.006412,58,269,571,5648
1644168642.175436,-0.007996,0.01001,-0.991821,0.190321,0.325496,-0.161527,55,266,583,5648
1644168642.223851,-0.011963,0.008057,-0.99292,0.236122,0.447634,-0.237863,51,276,580,5696
1644168642.272272,-0.010132,0.008301,-0.992188,0.175053,0.279695,0.036947,49,277,572,5648
1644168642.320641,-0.013428,0.008606,-0.990784,0.175053,0.294962,-0.161527,43,286,569,5696
1644168642.369039,-0.010864,0.009583,-0.989624,0.297191,0.386565,-0.115725,52,275,575,5648
1644168642.417424,-0.011414,0.008545,-0.991333,0.098718,0.417099,-0.115725,52,275,572,5664
1644168642.465816,-0.011169,0.007812,-0.990784,0.205588,0.462901,-0.054656,47,277,584,5584
1644168642.51419,-0.010254,0.006592,-0.99176,0.312458,0.523969,-0.008855,51,274,585,5648
1644168642.562597,-0.009583,0.007629,-0.991211,0.144519,0.325496,0.006412,58,283,573,5696
1644168642.610982,-0.010498,0.009155,-0.992249,0.404061,0.386565,-0.024122,46,279,573,5696
1644168642.659361,-0.012878,0.00769,-0.990479,0.159786,0.386565,0.006412,52,273,579,5712
1644168642.707754,-0.009521,0.011169,-0.991394,0.251389,0.523969,-0.14626,45,275,579,5664
1644168642.756129,-0.010803,0.007996,-0.992676,0.220855,0.401832,0.036947,49,265,572,5664
1644168642.804922,-0.010742,0.008362,-0.990417,0.159786,0.432366,-0.085191,60,274,583,5664
1644168642.854819,-0.012024,0.010254,-0.990295,0.388794,0.371298,-0.054656,49,265,572,5760
1644168642.904769,-0.010742,0.011475,-0.98999,0.251389,0.264427,-0.314198,43,274,569,5632
1644168642.954886,-0.010559,0.009216,-0.992188,0.373527,0.447634,-0.085191,48,283,578,5696
1644168643.000319,-0.011658,0.006714,-0.989746,0.220855,0.585038,-0.161527,51,266,569,5696
1644168643.096477,-0.011963,0.012146,-0.99176,0.266656,0.539237,-0.085191,42,280,572,5648
1644168643.143323,-0.011292,0.010803,-0.990845,0.251389,0.340763,-0.14626,51,279,573,5648
1644168643.191665,-0.010986,0.009216,-0.991638,0.297191,0.325496,-0.100458,52,265,568,5648
1644168643.240065,-0.009705,0.009338,-0.99176,0.297191,0.401832,-0.100458,51,269,573,5648
1644168643.288451,-0.011536,0.008362,-0.991028,0.35826,0.386565,-0.207328,48,274,580,5664
1644168643.33684,-0.010498,0.011353,-0.992798,0.419328,0.462901,-0.192061,55,266,580,5600
1644168643.385418,-0.011719,0.009827,-0.993286,0.098718,0.417099,0.067481,49,273,579,5696
1644168643.433778,-0.011902,0.008728,-0.991333,0.297191,0.356031,-0.14626,51,283,585,5648
1644168643.482464,-0.00885,0.010986,-0.991211,0.312458,0.386565,-0.115725,58,281,578,5664
1644168643.532959,-0.011902,0.009094,-0.992065,0.175053,0.417099,-0.161527,38,273,572,5600
1644168643.583254,-0.009827,0.008362,-0.992004,0.205588,0.325496,-0.069924,52,275,577,5664
1644168643.628285,-0.004822,0.009277,-0.991638,0.190321,0.386565,0.082748,48,274,569,5600
1644168643.723974,-0.009705,0.00885,-0.989746,0.251389,0.447634,-0.176794,60,274,576,5648
1644168643.772393,-0.009033,0.011963,-0.992737,0.251389,0.447634,-0.100458,49,280,575,5664
1644168643.820733,-0.010132,0.007324,-0.99054,0.205588,0.294962,-0.237863,43,269,564,5696
1644168643.869153,-0.011292,0.010437,-0.994263,0.35826,0.432366,-0.069924,42,273,570,5600
1644168643.917535,-0.008789,0.011536,-0.992798,0.175053,0.371298,-0.115725,51,274,576,5600
1644168643.965918,-0.010681,0.008301,-0.993408,0.266656,0.386565,-0.085191,47,275,575,5632
1644168644.014357,-0.008972,0.007202,-0.990967,0.220855,0.340763,-0.176794,51,266,564,5648
1644168644.068088,-0.009399,0.006287,-0.992065,0.190321,0.356031,0.006412,42,275,577,5648
1644168644.11111,-0.008789,0.010803,-0.989807,0.159786,0.371298,-0.085191,49,273,577,5664
1644168644.159483,-0.00769,0.009155,-0.987793,0.327725,0.340763,-0.069924,51,266,573,5664
1644168644.207871,-0.011108,0.009521,-0.990967,0.251389,0.432366,-0.176794,58,264,576,5712
1644168644.256263,-0.007568,0.007446,-0.992493,0.327725,0.325496,0.036947,51,274,578,5648
1644168644.304704,-0.010254,0.008057,-0.992249,0.236122,0.432366,-0.237863,57,270,589,5632
1644168644.353056,-0.006104,0.007935,-0.990723,0.129252,0.218626,-0.14626,62,276,578,5664
1644168644.401431,-0.010193,0.009277,-0.992615,0.281924,0.233893,0.021679,41,271,583,5648
1644168644.449816,-0.010925,0.010986,-0.992249,0.236122,0.401832,-0.192061,51,271,576,5648
1644168644.498202,-0.008484,0.008179,-0.989929,0.220855,0.340763,0.036947,48,274,573,5600
1644168644.5466,-0.01123,0.007935,-0.990417,0.068183,0.462901,-0.054656,52,275,584,5728
1644168644.595031,-0.009521,0.008972,-0.98938,0.052916,0.478168,-0.085191,54,270,575,5664
1644168644.643417,-0.009399,0.008362,-0.990723,0.404061,0.386565,-0.100458,52,277,579,5712
1644168644.693786,-0.01001,0.009216,-0.991089,0.312458,0.447634,-0.283664,52,277,582,5712
1644168644.743879,-0.010376,0.010071,-0.99115,0.220855,0.462901,-0.130992,45,275,570,5600
1644168644.7891,-0.008423,0.007812,-0.990723,0.312458,0.600305,-0.054656,40,273,575,5648
1644168644.885511,-0.008972,0.011597,-0.99231,0.281924,0.432366,-0.298931,52,275,577,5696
1644168644.933774,-0.009705,0.01062,-0.992004,0.251389,0.508702,-0.161527,51,274,576,5696
1644168644.982411,-0.011292,0.008179,-0.991028,0.205588,0.294962,0.12855,49,277,575,5600
1644168645.030544,-0.008301,0.011597,-0.991821,0.144519,0.340763,-0.207328,49,275,570,5664
1644168645.078983,-0.00708,0.01123,-0.991394,0.342992,0.539237,-0.207328,55,276,578,5648
1644168645.12729,-0.007996,0.009827,-0.990845,0.220855,0.218626,-0.192061,48,264,569,5600
1644168645.175708,-0.010864,0.00885,-0.990967,0.297191,0.371298,-0.192061,52,273,575,5696
1644168645.224121,-0.010681,0.010559,-0.993774,0.281924,0.279695,0.036947,52,268,579,5664
1644168645.272529,-0.008179,0.009949,-0.989136,0.251389,0.172824,-0.054656,52,275,582,5664
1644168645.32087,-0.007202,0.010498,-0.994629,0.144519,0.386565,0.006412,48,269,576,5632
1644168645.369279,-0.013733,0.010498,-0.993896,0.159786,0.340763,-0.161527,46,271,576,5696
1644168645.417665,-0.013306,0.008545,-0.988586,0.205588,0.310229,-0.14626,47,280,577,5712
1644168645.466055,-0.011658,0.007629,-0.993103,0.327725,0.310229,-0.115725,58,276,564,5648
1644168645.514466,-0.010376,0.009644,-0.992065,0.190321,0.340763,0.006412,51,271,578,5664
1644168645.562854,-0.011536,0.006836,-0.991455,0.175053,0.340763,0.113282,49,273,579,5664
1644168645.611213,-0.011902,0.011292,-0.993042,0.190321,0.218626,-0.176794,52,268,579,5632
1644168645.659618,-0.01001,0.010925,-0.993896,0.098718,0.478168,-0.039389,41,281,583,5648
1644168645.708019,-0.009338,0.010376,-0.992615,-0.038687,0.447634,-0.161527,46,266,571,5728
1644168645.756817,-0.011353,0.010254,-0.991821,0.342992,0.417099,-0.14626,49,270,577,5664
1644168645.806965,-0.010803,0.009583,-0.991882,0.236122,0.340763,-0.14626,57,273,579,5664
1644168645.8573,-0.01001,0.009338,-0.988831,0.190321,0.447634,-0.100458,57,273,577,5648
1644168645.901609,-0.00769,0.009399,-0.994629,0.251389,0.417099,-0.161527,54,273,577,5600
1644168645.998337,-0.008484,0.010437,-0.992065,0.129252,0.478168,-0.115725,47,273,582,5664
1644168646.064963,-0.010986,0.010742,-0.990662,0.220855,0.401832,-0.130992,48,264,578,5664
1644168646.097284,-0.009888,0.007874,-0.991516,0.068183,0.539237,-0.130992,48,271,583,5712
1644168646.143515,-0.010376,0.010437,-0.990479,0.251389,0.371298,-0.161527,41,276,578,5600
1644168646.191886,-0.009766,0.009644,-0.990784,0.205588,0.356031,-0.085191,49,275,575,5648
1644168646.240236,-0.009521,0.010071,-0.991394,0.281924,0.401832,-0.115725,49,270,579,5664
1644168646.288652,-0.012878,0.007935,-0.992554,0.205588,0.432366,-0.115725,57,270,582,5696
1644168646.337046,-0.013123,0.006287,-0.990662,0.144519,0.478168,-0.069924,48,279,580,5712
1644168646.385445,-0.01062,0.008789,-0.990173,0.266656,0.356031,-0.207328,49,273,572,5648
1644168646.433829,-0.008789,0.009766,-0.992126,0.297191,0.340763,-0.054656,49,275,577,5696
1644168646.482325,-0.010681,0.011597,-0.990417,0.236122,0.417099,-0.130992,36,274,571,5664
1644168646.531185,-0.009705,0.010986,-0.991699,0.220855,0.356031,0.006412,55,274,573,5696
1644168646.581772,-0.009033,0.01001,-0.992493,0.388794,0.264427,-0.085191,43,266,571,5664
1644168646.631817,-0.008423,0.006958,-0.992798,0.220855,0.371298,-0.176794,52,268,582,5696
1644168646.676932,-0.013672,0.009094,-0.991455,0.08345,0.340763,-0.039389,59,275,577,5632
1644168646.772578,-0.008484,0.010193,-0.992615,0.205588,0.325496,-0.176794,46,271,571,5648
1644168646.820978,-0.009705,0.011414,-0.993225,0.327725,0.371298,-0.100458,48,269,578,5696
1644168646.869389,-0.011047,0.00769,-0.989929,0.175053,0.340763,-0.054656,49,277,570,5600
1644168646.917747,-0.010803,0.008362,-0.988953,0.251389,0.356031,-0.100458,54,273,572,5648
1644168646.966158,-0.006653,0.008057,-0.991455,0.342992,0.478168,-0.069924,47,273,579,5728
1644168647.014534,-0.009155,0.009766,-0.993042,0.236122,0.386565,-0.115725,54,265,579,5664
1644168647.068243,-0.009521,0.009827,-0.989258,0.312458,0.356031,-0.115725,51,274,580,5600
1644168647.111287,-0.010376,0.00946,-0.993652,0.113985,0.371298,-0.024122,46,279,580,5648
1644168647.159671,-0.009521,0.012817,-0.995056,0.297191,0.279695,-0.14626,42,270,572,5600
1644168647.208065,-0.006897,0.01123,-0.991089,0.35826,0.386565,-0.085191,61,275,572,5648
1644168647.256474,-0.00946,0.007996,-0.993591,0.220855,0.203359,-0.176794,53,274,585,5648
1644168647.304878,-0.011597,0.01178,-0.993225,0.205588,0.356031,-0.039389,49,270,570,5696
1644168647.353263,-0.010071,0.010254,-0.990845,0.281924,0.432366,-0.268397,51,281,573,5648
1644168647.401657,-0.010498,0.010193,-0.990234,0.205588,0.493435,-0.024122,54,277,575,5648
1644168647.45003,-0.010071,0.008057,-0.991394,0.297191,0.340763,-0.161527,60,279,583,5648
1644168647.498442,-0.011108,0.01062,-0.991821,0.236122,0.401832,-0.14626,48,279,578,5632
1644168647.546806,-0.008484,0.007385,-0.991943,0.312458,0.508702,-0.192061,57,280,577,5664
1644168647.595199,-0.010925,0.010437,-0.991699,0.220855,0.432366,-0.024122,45,273,572,5664
1644168647.643609,-0.010193,0.010864,-0.98999,0.220855,0.340763,-0.130992,48,274,580,5632
1644168647.692402,-0.011414,0.005798,-0.997498,0.175053,0.432366,-0.054656,49,273,579,5664
1644168647.742684,-0.009827,0.008362,-0.990417,0.129252,0.462901,-0.115725,47,285,575,5648
1644168647.79309,-0.010681,0.010437,-0.990479,0.327725,0.264427,-0.115725,48,266,571,5648
1644168647.838553,-0.008911,0.01123,-0.992859,0.281924,0.356031,-0.008855,60,276,576,5696
1644168647.933973,-0.010925,0.010376,-0.990723,0.144519,0.493435,-0.054656,33,270,582,5648
1644168647.982426,-0.00946,0.011414,-0.993469,0.236122,0.447634,-0.14626,53,269,583,5664
1644168648.030754,-0.009888,0.008179,-0.991516,0.205588,0.401832,0.021679,53,274,580,5728
1644168648.079194,-0.011047,0.009766,-0.991089,0.251389,0.432366,-0.100458,52,275,582,5664
1644168648.127536,-0.010071,0.011108,-0.990723,0.281924,0.294962,-0.237863,49,270,577,5600
1644168648.175888,-0.008545,0.009644,-0.989075,0.129252,0.371298,0.113282,53,269,580,5648
1644168648.224296,-0.009216,0.008972,-0.992004,0.297191,0.371298,-0.14626,47,275,582,5664
1644168648.27265,-0.010071,0.008667,-0.99408,0.129252,0.401832,-0.283664,58,276,573,5632
1644168648.321067,-0.009583,0.009216,-0.99115,0.281924,0.24916,-0.024122,47,280,570,5664
1644168648.36946,-0.009583,0.00885,-0.992493,0.190321,0.356031,-0.161527,49,277,577,5648
1644168648.417856,-0.009827,0.009094,-0.990662,0.236122,0.401832,-0.176794,45,277,570,5648
1644168648.466211,-0.008545,0.009583,-0.990356,0.266656,0.523969,-0.039389,51,271,578,5632
1644168648.514706,-0.008362,0.011169,-0.987488,0.434595,0.233893,-0.024122,39,281,576,5600
1644168648.563028,-0.011047,0.008667,-0.993713,0.266656,0.585038,-0.130992,51,269,583,5712
1644168648.611419,-0.011658,0.00824,-0.990906,0.220855,0.401832,-0.115725,55,274,573,5648
1644168648.6598,-0.010437,0.009399,-0.992676,0.297191,0.493435,0.036947,61,270,582,5648
1644168648.708175,-0.008606,0.009277,-0.991516,0.052916,0.432366,0.006412,55,264,576,5648
1644168648.756584,-0.012146,0.007446,-0.991882,0.35826,0.325496,-0.069924,55,271,583,5664
1644168648.805747,-0.008118,0.010254,-0.990845,0.144519,0.462901,-0.130992,42,275,568,5664
1644168648.855263,-0.008606,0.009277,-0.992798,0.159786,0.340763,-0.268397,53,274,580,5696
1644168648.906245,-0.01001,0.009338,-0.989258,0.098718,0.462901,-0.069924,43,271,569,5664
1644168648.950511,-0.010132,0.010437,-0.990845,0.266656,0.401832,-0.268397,57,273,584,5696
1644168649.065289,-0.012085,0.010559,-0.991333,0.236122,0.401832,-0.054656,47,270,568,5648
1644168649.100092,-0.007385,0.005554,-0.992249,0.419328,0.386565,-0.024122,42,268,575,5664
1644168649.143774,-0.007935,0.013,-0.992004,0.312458,0.462901,-0.115725,60,269,576,5664
1644168649.192169,-0.00824,0.00769,-0.990295,0.205588,0.417099,-0.024122,48,269,576,5600
1644168649.240486,-0.010803,0.009399,-0.992676,0.35826,0.508702,-0.25313,49,273,565,5664
1644168649.288877,-0.00885,0.010681,-0.989258,0.129252,0.523969,-0.130992,52,268,582,5664
1644168649.337261,-0.007812,0.00946,-0.989075,0.220855,0.356031,-0.161527,47,273,577,5648
1644168649.385652,-0.007507,0.009583,-0.991394,0.129252,0.310229,-0.054656,54,275,579,5648
1644168649.434047,-0.011719,0.009338,-0.99353,0.266656,0.493435,0.021679,53,279,573,5632
1644168649.482607,-0.009949,0.006592,-0.991272,0.205588,0.493435,-0.085191,49,277,572,5664
1644168649.532007,-0.011353,0.008972,-0.99469,0.129252,0.478168,-0.161527,41,279,583,5696
1644168649.582236,-0.008911,0.012207,-0.990601,0.129252,0.462901,-0.115725,49,270,577,5696
1644168649.632542,-0.01062,0.01062,-0.992737,0.098718,0.356031,-0.14626,54,277,565,5696
1644168649.724419,-0.010437,0.009033,-0.992249,0.159786,0.401832,-0.100458,45,273,575,5648
1644168649.772797,-0.007141,0.012146,-0.991516,0.251389,0.447634,-0.054656,53,281,576,5696
1644168649.821169,-0.011292,0.011597,-0.990906,0.266656,0.478168,-0.115725,41,274,580,5648
1644168649.869582,-0.01123,0.01123,-0.991089,0.342992,0.417099,0.006412,46,276,573,5648
1644168649.917999,-0.010315,0.010681,-0.98999,0.236122,0.462901,-0.207328,49,273,572,5648
1644168649.966338,-0.009705,0.011536,-0.992676,0.144519,0.478168,-0.14626,52,277,579,5648
1644168650.014785,-0.009644,0.009827,-0.989197,0.190321,0.294962,-0.14626,65,271,571,5696
1644168650.067482,-0.010986,0.011597,-0.989014,0.342992,0.447634,-0.14626,55,279,583,5664
1644168650.111579,-0.01001,0.008972,-0.993225,0.236122,0.417099,0.143817,58,276,571,5600
1644168650.159912,-0.009827,0.00824,-0.992798,0.281924,0.462901,0.189618,55,266,566,5712
1644168650.208334,-0.008423,0.009766,-0.989868,0.266656,0.310229,-0.069924,57,277,579,5712
1644168650.256719,-0.012451,0.008423,-0.991577,0.159786,0.371298,-0.024122,48,271,571,5648
1644168650.305147,-0.00708,0.012085,-0.990906,0.251389,0.462901,-0.085191,52,275,575,5664
1644168650.353701,-0.011353,0.007568,-0.987915,0.220855,0.279695,-0.130992,52,270,579,5696
1644168650.40192,-0.010376,0.010986,-0.992737,0.113985,0.462901,-0.085191,59,268,570,5584
1644168650.450277,-0.010132,0.007629,-0.990295,0.236122,0.340763,-0.054656,51,264,576,5664
1644168650.499066,-0.010254,0.011353,-0.991028,0.205588,0.401832,-0.176794,45,275,572,5760
1644168650.54744,-0.010803,0.01123,-0.99176,0.236122,0.432366,-0.085191,53,276,576,5664
1644168650.595473,-0.007568,0.009094,-0.992798,0.312458,0.294962,-0.069924,47,270,570,5664
1644168650.645437,-0.010254,0.01001,-0.990723,0.190321,0.264427,-0.085191,53,281,578,5632
1644168650.695596,-0.008728,0.008179,-0.992432,0.175053,0.432366,0.052214,43,271,573,5648
1644168650.745711,-0.005859,0.010376,-0.990112,0.312458,0.447634,-0.069924,51,276,571,5728
1644168650.790279,-0.010681,0.007446,-0.99231,0.297191,0.371298,-0.069924,42,280,575,5648
1644168650.885778,-0.010498,0.01001,-0.992798,0.251389,0.493435,-0.161527,51,276,564,5696
1644168650.934187,-0.010254,0.009277,-0.990417,0.175053,0.432366,-0.039389,46,274,562,5696
1644168650.982585,-0.009338,0.011597,-0.989075,0.236122,0.356031,-0.024122,57,270,575,5648
1644168651.030985,-0.009644,0.009949,-0.992676,0.190321,0.340763,-0.008855,49,275,577,5664
1644168651.079429,-0.009094,0.009216,-0.991516,0.098718,0.401832,-0.069924,54,265,577,5648
1644168651.127732,-0.010376,0.010376,-0.992371,0.236122,0.386565,-0.207328,42,265,575,5696
1644168651.176101,-0.009949,0.009705,-0.992737,0.113985,0.294962,-0.130992,52,265,582,5600
1644168651.224499,-0.010498,0.009399,-0.992188,0.08345,0.417099,-0.069924,46,279,571,5696
1644168651.272904,-0.010071,0.009216,-0.991028,0.159786,0.432366,-0.024122,48,269,578,5648
1644168651.32128,-0.013184,0.007263,-0.992554,0.098718,0.417099,-0.054656,52,265,563,5696
1644168651.36967,-0.011047,0.008667,-0.991821,0.312458,0.569771,-0.085191,53,269,578,5648
1644168651.418047,-0.009094,0.011292,-0.989258,0.297191,0.417099,-0.176794,52,280,584,5664
1644168651.466446,-0.006714,0.008972,-0.99408,0.35826,0.432366,-0.130992,47,270,589,5712
1644168651.51483,-0.008606,0.013184,-0.990234,0.144519,0.447634,-0.222595,48,269,587,5664
1644168651.563221,-0.009766,0.009521,-0.99054,0.312458,0.508702,-0.100458,57,280,582,5648
1644168651.611615,-0.01062,0.009583,-0.991699,0.373527,0.310229,-0.024122,46,271,573,5648
1644168651.660038,-0.009155,0.006409,-0.991394,0.236122,0.294962,-0.268397,46,276,564,5648
1644168651.708406,-0.010315,0.008728,-0.992737,0.312458,0.401832,-0.222595,49,273,577,5600
1644168651.756794,-0.010193,0.011475,-0.990601,0.144519,0.478168,0.174351,49,280,572,5696
1644168651.80638,-0.012817,0.010742,-0.990845,0.098718,0.340763,-0.115725,49,268,577,5728
1644168651.857278,-0.011841,0.010315,-0.991089,0.098718,0.386565,-0.14626,47,263,577,5664
1644168651.9073,-0.01062,0.010559,-0.992981,0.129252,0.417099,0.036947,51,269,573,5696
1644168651.951688,-0.012634,0.010864,-0.990479,0.297191,0.340763,0.036947,54,280,591,5696
1644168652.058617,-0.00885,0.008423,-0.989624,0.373527,0.417099,-0.024122,55,274,578,5712
1644168652.096182,-0.008728,0.008606,-0.990906,0.159786,0.401832,-0.222595,49,280,579,5648
1644168652.143925,-0.011108,0.008179,-0.990723,0.373527,0.508702,-0.237863,49,282,570,5664
1644168652.192321,-0.008362,0.007507,-0.991882,0.190321,0.432366,-0.039389,59,277,570,5712
1644168652.2407,-0.009094,0.008728,-0.991333,0.236122,0.356031,-0.085191,49,273,579,5696
1644168652.289094,-0.008179,0.010071,-0.991089,0.236122,0.325496,-0.161527,41,274,578,5696
1644168652.337489,-0.011292,0.011475,-0.993408,0.220855,0.493435,-0.069924,48,271,576,5664
1644168652.385867,-0.013,0.009216,-0.992065,0.373527,0.493435,-0.130992,55,276,576,5696
1644168652.434267,-0.008362,0.00946,-0.992249,0.297191,0.203359,-0.207328,66,282,570,5648
1644168652.482661,-0.012634,0.007141,-0.991455,0.266656,0.401832,-0.024122,47,268,575,5696
1644168652.531041,-0.012451,0.007996,-0.993408,0.220855,0.447634,-0.176794,48,279,578,5664
1644168652.579439,-0.00946,0.01001,-0.990723,0.35826,0.462901,-0.222595,61,265,575,5648
1644168652.627824,-0.009644,0.011292,-0.990417,0.144519,0.356031,-0.161527,51,276,580,5584
1644168652.676247,-0.008728,0.009888,-0.992249,0.098718,0.417099,-0.024122,60,271,566,5664
1644168652.726337,-0.010193,0.011047,-0.991577,0.129252,0.386565,-0.039389,52,273,575,5696
1644168652.776743,-0.010498,0.010803,-0.990967,0.113985,0.569771,-0.100458,61,280,572,5600
1644168652.821654,-0.009033,0.010376,-0.993225,0.281924,0.432366,0.036947,61,270,572,5696
1644168652.91818,-0.009521,0.009216,-0.992432,0.251389,0.417099,-0.115725,47,275,572,5648
1644168652.966589,-0.011414,0.010132,-0.991638,0.251389,0.447634,-0.130992,51,276,564,5648
1644168653.015037,-0.006958,0.005371,-0.991089,0.266656,0.462901,0.098015,49,270,575,5648
1644168653.06565,-0.011353,0.008911,-0.993103,0.022382,0.447634,-0.008855,53,276,571,5632
1644168653.111756,-0.008545,0.008911,-0.992493,0.251389,0.478168,-0.069924,47,270,577,5696
1644168653.160112,-0.008606,0.008118,-0.992126,0.144519,0.554504,-0.085191,53,276,580,5632
1644168653.20851,-0.013,0.010437,-0.991943,0.205588,0.401832,0.052214,59,265,575,5648
1644168653.256888,-0.008118,0.00708,-0.989075,0.159786,0.478168,-0.024122,43,266,569,5696
1644168653.305324,-0.011169,0.010681,-0.990845,0.297191,0.401832,-0.237863,58,264,569,5696
1644168653.353705,-0.009155,0.009827,-0.993469,0.251389,0.447634,-0.024122,45,268,582,5600
1644168653.402063,-0.007812,0.008972,-0.990417,0.404061,0.417099,-0.008855,47,277,579,5664
1644168653.45047,-0.008423,0.012329,-0.992188,0.175053,0.356031,0.036947,55,274,573,5584
1644168653.498857,-0.009521,0.007507,-0.991516,0.220855,0.340763,-0.115725,62,264,583,5664
1644168653.547248,-0.009399,0.011292,-0.99054,0.190321,0.386565,-0.039389,48,274,580,5696
1644168653.595633,-0.009094,0.008728,-0.994568,0.266656,0.386565,-0.207328,52,265,575,5696
1644168653.644035,-0.008179,0.011597,-0.990845,0.312458,0.554504,-0.069924,51,276,580,5664
1644168653.692418,-0.01178,0.010437,-0.993958,0.190321,0.447634,-0.207328,51,279,585,5664
1644168653.740806,-0.012634,0.011353,-0.992004,0.281924,0.523969,-0.237863,51,271,569,5584
1644168653.789176,-0.008179,0.010498,-0.992615,0.190321,0.523969,-0.192061,52,263,575,5648
1644168653.839024,-0.008728,0.008667,-0.993469,0.281924,0.310229,-0.222595,58,262,573,5648
1644168653.889778,-0.010132,0.007385,-0.992737,0.129252,0.447634,-0.008855,54,273,572,5696
1644168653.939616,-0.012146,0.010925,-0.992676,0.312458,0.325496,-0.237863,53,271,573,5696
1644168653.984107,-0.01062,0.008484,-0.990906,0.297191,0.493435,-0.176794,49,275,572,5760
1644168654.079731,-0.008423,0.009583,-0.991333,0.220855,0.417099,-0.192061,47,275,568,5664
1644168654.127963,-0.010315,0.012512,-0.993103,0.175053,0.356031,-0.039389,52,273,572,5664
1644168654.17631,-0.006775,0.012329,-0.99231,0.404061,0.218626,-0.222595,48,266,573,5632
1644168654.224724,-0.008789,0.012634,-0.991455,0.205588,0.386565,-0.192061,30,277,582,5648
1644168654.273091,-0.013916,0.009827,-0.991333,0.373527,0.417099,-0.161527,51,274,573,5664
1644168654.321484,-0.010132,0.008545,-0.990662,0.251389,0.417099,-0.161527,47,270,565,5696
1644168654.369882,-0.012512,0.007324,-0.990173,0.144519,0.386565,-0.115725,48,262,578,5696
1644168654.418262,-0.008667,0.008179,-0.990967,0.144519,0.356031,-0.054656,51,274,573,5664
1644168654.466672,-0.007263,0.00885,-0.994629,0.281924,0.310229,-0.100458,57,270,575,5648
1644168654.515153,-0.011597,0.012024,-0.989929,0.251389,0.356031,0.021679,59,270,577,5664
1644168654.563439,-0.01001,0.010803,-0.989807,0.342992,0.310229,-0.085191,55,274,569,5632
1644168654.611834,-0.009827,0.009827,-0.988464,0.236122,0.401832,0.036947,48,274,573,5696
1644168654.66024,-0.012024,0.008423,-0.990845,0.312458,0.371298,0.006412,47,275,577,5648
1644168654.70862,-0.011108,0.007446,-0.991272,0.281924,0.386565,-0.054656,58,266,580,5648
1644168654.756998,-0.008972,0.010925,-0.99115,0.266656,0.401832,-0.115725,55,264,585,5696
1644168654.805395,-0.011536,0.009277,-0.994934,0.190321,0.401832,-0.085191,52,265,572,5696
1644168654.853832,-0.010193,0.010498,-0.990784,0.312458,0.478168,-0.222595,60,274,580,5712
1644168654.902547,-0.008789,0.009094,-0.991638,0.190321,0.401832,-0.100458,49,270,579,5648
1644168654.950756,-0.008911,0.010132,-0.99176,0.205588,0.356031,-0.115725,47,275,575,5664
1644168655.001153,-0.009583,0.011108,-0.992737,0.007115,0.417099,-0.008855,47,275,589,5728
1644168655.071225,-0.010742,0.009705,-0.993408,0.312458,0.325496,-0.039389,46,279,580,5728
1644168655.099735,-0.010681,0.007874,-0.990417,0.312458,0.356031,-0.207328,61,270,570,5648
1644168655.192536,-0.01062,0.008362,-0.99353,0.144519,0.401832,0.098015,47,275,577,5536
1644168655.240904,-0.014282,0.010681,-0.994507,0.281924,0.371298,0.021679,51,276,571,5712
1644168655.289269,-0.011902,0.012024,-0.991272,0.236122,0.371298,-0.024122,57,270,577,5712
1644168655.337677,-0.012085,0.009583,-0.991455,0.297191,0.340763,-0.069924,53,279,571,5664
1644168655.386071,-0.010376,0.007141,-0.993774,0.175053,0.432366,-0.054656,52,280,582,5664
1644168655.434477,-0.010193,0.008423,-0.992676,0.175053,0.401832,0.021679,55,274,573,5664
1644168655.482879,-0.011108,0.010742,-0.992065,0.190321,0.432366,-0.115725,53,276,573,5696
1644168655.531256,-0.009216,0.008606,-0.991089,0.373527,0.371298,-0.069924,42,275,575,5664
1644168655.57965,-0.006348,0.007324,-0.993469,0.144519,0.508702,-0.283664,46,283,576,5664
1644168655.628039,-0.010986,0.009155,-0.990601,0.266656,0.569771,-0.039389,53,279,587,5648
1644168655.676425,-0.008484,0.007202,-0.99292,0.236122,0.417099,-0.14626,52,270,575,5664
1644168655.724839,-0.009644,0.012512,-0.993652,0.022382,0.432366,-0.054656,48,269,578,5664
1644168655.773222,-0.00824,0.008911,-0.991211,0.159786,0.447634,-0.024122,51,271,583,5552
1644168655.821591,-0.009033,0.010742,-0.989746,0.236122,0.523969,-0.14626,54,273,579,5664
1644168655.870016,-0.012939,0.011658,-0.992188,0.236122,0.386565,-0.130992,49,280,575,5696
1644168655.918416,-0.011658,0.009216,-0.993286,0.205588,0.294962,-0.069924,47,277,575,5664
1644168655.966809,-0.010803,0.009033,-0.992065,0.297191,0.462901,-0.161527,52,268,577,5632
1644168656.015306,-0.010193,0.010315,-0.989746,0.327725,0.432366,-0.115725,55,274,583,5696
1644168656.094548,-0.009094,0.009277,-0.994507,0.205588,0.401832,-0.115725,45,280,577,5664
1644168656.117446,-0.009766,0.009705,-0.991211,0.251389,0.447634,-0.130992,46,266,578,5600
1644168656.161701,-0.01062,0.009094,-0.990723,0.159786,0.371298,-0.008855,55,293,573,5664
1644168656.25709,-0.011292,0.007263,-0.990417,0.205588,0.325496,-0.100458,54,273,577,5664
1644168656.305481,-0.01123,0.010132,-0.994324,0.281924,0.447634,-0.069924,57,273,570,5664
1644168656.354087,-0.011719,0.011841,-0.993469,0.220855,0.340763,0.006412,58,274,569,5600
1644168656.402389,-0.009094,0.007141,-0.992493,0.205588,0.447634,-0.14626,54,270,577,5728
1644168656.450665,-0.01239,0.009033,-0.993347,0.113985,0.462901,-0.192061,47,282,568,5648
1644168656.499069,-0.009705,0.011841,-0.991333,0.312458,0.218626,-0.192061,48,274,569,5696
1644168656.547452,-0.011536,0.009949,-0.990662,0.129252,0.340763,-0.100458,53,279,569,5664
1644168656.595843,-0.007507,0.010193,-0.990295,0.159786,0.508702,-0.161527,39,274,578,5664
1644168656.644235,-0.011963,0.011475,-0.992126,0.068183,0.539237,-0.085191,47,275,575,5664
1644168656.692643,-0.008972,0.00708,-0.993896,0.129252,0.447634,-0.039389,55,271,573,5776
1644168656.741018,-0.012695,0.008484,-0.989319,0.251389,0.218626,-0.115725,55,276,578,5648
1644168656.789413,-0.009399,0.009399,-0.99231,0.236122,0.417099,-0.100458,46,271,571,5632
1644168656.837784,-0.010498,0.006592,-0.991516,0.266656,0.417099,0.006412,52,273,577,5648
1644168656.886233,-0.010681,0.009766,-0.99176,0.404061,0.417099,0.021679,59,280,565,5664
1644168656.934663,-0.009888,0.01001,-0.990967,0.144519,0.356031,0.052214,52,285,572,5648
1644168656.983032,-0.010193,0.008423,-0.990601,0.220855,0.462901,-0.130992,48,283,578,5664
1644168657.031403,-0.010132,0.008728,-0.991943,0.281924,0.24916,-0.192061,42,277,570,5696
1644168657.087594,-0.010559,0.008301,-0.994141,0.266656,0.432366,-0.100458,53,274,573,5648
1644168657.130056,-0.009521,0.010498,-0.99176,0.312458,0.356031,0.113282,46,274,580,5696
1644168657.180416,-0.011475,0.009521,-0.992554,0.404061,0.432366,-0.115725,46,279,571,5664
1644168657.230547,-0.011292,0.009888,-0.99292,0.342992,0.432366,-0.085191,39,266,571,5696
1644168657.321712,-0.008301,0.00946,-0.99292,0.251389,0.356031,-0.039389,47,275,565,5648
1644168657.370129,-0.009949,0.008667,-0.99176,0.434595,0.401832,-0.024122,57,282,575,5600
1644168657.418513,-0.010925,0.010681,-0.988647,0.388794,0.371298,-0.085191,52,273,572,5712
1644168657.466917,-0.008362,0.007446,-0.993652,0.281924,0.264427,-0.14626,51,286,576,5648
1644168657.515294,-0.010437,0.007812,-0.990417,0.159786,0.264427,-0.085191,52,270,572,5648
1644168657.563707,-0.012817,0.011963,-0.994751,0.129252,0.447634,-0.054656,39,276,564,5712
1644168657.61209,-0.009033,0.010254,-0.991943,0.068183,0.539237,-0.14626,52,268,570,5712
1644168657.660479,-0.013733,0.009277,-0.992371,0.236122,0.340763,-0.008855,47,265,579,5664
1644168657.708839,-0.010803,0.012756,-0.992798,0.312458,0.523969,-0.115725,60,286,580,5648
1644168657.757255,-0.010498,0.009399,-0.991211,0.236122,0.417099,-0.069924,48,276,569,5664
1644168657.805652,-0.008484,0.009827,-0.99115,0.175053,0.539237,-0.115725,51,281,571,5648
1644168657.854049,-0.009705,0.011475,-0.990112,0.434595,0.447634,-0.161527,51,274,583,5648
1644168657.902448,-0.011902,0.007935,-0.993347,0.266656,0.493435,-0.115725,53,271,573,5648
1644168657.950825,-0.009155,0.009277,-0.992676,0.388794,0.401832,-0.085191,42,275,577,5664
1644168657.999189,-0.008789,0.008728,-0.992065,0.388794,0.356031,-0.039389,49,273,577,5664
1644168658.05921,-0.009216,0.010681,-0.991455,0.342992,0.447634,0.067481,51,279,580,5696
1644168658.097977,-0.009583,0.011963,-0.991455,0.281924,0.447634,-0.36,55,266,580,5664
1644168658.144356,-0.013306,0.006042,-0.991699,0.205588,0.417099,-0.054656,52,270,572,5648
1644168658.19346,-0.013306,0.009583,-0.993713,0.35826,0.340763,-0.039389,49,277,561,5664
1644168658.241754,-0.008606,0.011414,-0.990417,0.266656,0.417099,-0.054656,51,279,576,5600
1644168658.29244,-0.012024,0.007141,-0.993469,0.312458,0.447634,-0.085191,52,268,577,5664
1644168658.342683,-0.007935,0.011658,-0.991028,0.190321,0.462901,-0.115725,48,266,571,5664
1644168658.434877,-0.008484,0.012573,-0.990112,0.190321,0.417099,0.098015,47,268,570,5712
1644168658.483075,-0.008667,0.010803,-0.990601,0.342992,0.432366,-0.161527,41,264,573,5648
1644168658.531462,-0.011169,0.012512,-0.992188,0.297191,0.523969,-0.085191,47,275,577,5664
1644168658.579853,-0.010498,0.009216,-0.992432,0.297191,0.386565,-0.161527,62,279,578,5728
1644168658.628246,-0.008972,0.011414,-0.991272,0.342992,0.493435,-0.024122,46,266,578,5664
1644168658.676643,-0.008911,0.008301,-0.991272,0.251389,0.310229,-0.192061,52,270,572,5696
1644168658.725054,-0.009705,0.00946,-0.989014,0.144519,0.417099,-0.237863,49,277,572,5648
1644168658.773412,-0.008667,0.008301,-0.990051,0.190321,0.569771,-0.115725,49,270,582,5664
1644168658.821872,-0.011719,0.009583,-0.990173,0.388794,0.401832,-0.008855,47,277,577,5696
1644168658.870243,-0.007507,0.00824,-0.990112,0.144519,0.508702,-0.222595,53,269,562,5648
1644168658.918634,-0.010254,0.010742,-0.993469,0.159786,0.432366,0.006412,43,271,573,5664
1644168658.967004,-0.009399,0.011047,-0.991699,0.144519,0.432366,-0.054656,41,274,573,5648
1644168659.015419,-0.009277,0.010986,-0.990112,0.175053,0.325496,-0.008855,49,273,577,5648
1644168659.073367,-0.009827,0.009155,-0.990906,0.342992,0.447634,-0.008855,51,283,573,5728
1644168659.11219,-0.010559,0.009216,-0.992126,0.281924,0.401832,-0.039389,39,279,592,5728
1644168659.160542,-0.012024,0.010803,-0.99353,0.251389,0.478168,-0.100458,38,275,563,5648
1644168659.208909,-0.013489,0.008911,-0.992676,0.190321,0.401832,-0.008855,49,273,570,5696
1644168659.257324,-0.012634,0.009216,-0.993164,0.159786,0.493435,-0.069924,52,280,582,5696
1644168659.305876,-0.010559,0.007935,-0.992065,0.098718,0.554504,-0.054656,52,270,586,5664
1644168659.354693,-0.010681,0.010925,-0.991455,0.281924,0.539237,-0.283664,55,271,573,5664
1644168659.405286,-0.014099,0.005676,-0.990601,0.236122,0.493435,-0.207328,57,265,582,5664
1644168659.455391,-0.01062,0.010254,-0.993713,0.312458,0.356031,-0.14626,58,262,580,5664
1644168659.500396,-0.011658,0.006897,-0.990295,0.281924,0.478168,0.052214,51,271,576,5648
1644168659.596058,-0.009583,0.010437,-0.992004,0.251389,0.417099,-0.085191,54,275,572,5648
1644168659.644455,-0.009705,0.009277,-0.993408,0.404061,0.264427,-0.130992,58,264,580,5664
1644168659.692849,-0.013428,0.007874,-0.99408,0.113985,0.417099,-0.237863,49,277,570,5664
1644168659.741202,-0.013184,0.008789,-0.991577,0.205588,0.432366,-0.192061,47,273,577,5696
1644168659.789623,-0.010315,0.008667,-0.991943,0.281924,0.523969,-0.161527,46,281,566,5648
1644168659.838036,-0.009949,0.010376,-0.993958,0.281924,0.401832,-0.085191,47,275,577,5664
1644168659.886448,-0.009949,0.007568,-0.992615,-0.02342,0.340763,-0.176794,49,268,579,5696
1644168659.934848,-0.012085,0.007202,-0.990967,0.037649,0.340763,-0.100458,43,269,569,5648
1644168659.983233,-0.01239,0.008423,-0.991577,0.205588,0.432366,-0.176794,46,262,583,5600
1644168660.031578,-0.009277,0.009094,-0.994507,0.251389,0.356031,0.067481,51,283,578,5696
1644168660.083231,-0.01001,0.006592,-0.991028,0.419328,0.401832,-0.054656,58,279,585,5664
1644168660.128369,-0.011658,0.008179,-0.990295,0.373527,0.356031,-0.100458,51,271,590,5600
1644168660.176737,-0.010315,0.00946,-0.990295,0.236122,0.264427,-0.14626,42,273,575,5664
1644168660.225162,-0.01123,0.011169,-0.991699,0.251389,0.24916,-0.130992,55,279,583,5712
1644168660.273497,-0.010315,0.00946,-0.99353,0.205588,0.325496,-0.161527,49,273,579,5648
1644168660.321915,-0.010986,0.010315,-0.992554,0.266656,0.493435,-0.100458,47,265,579,5712
1644168660.370643,-0.01123,0.010193,-0.98877,0.388794,0.523969,0.082748,52,275,577,5648
1644168660.419818,-0.012695,0.009521,-0.993469,0.159786,0.417099,-0.14626,55,269,578,5648
1644168660.470059,-0.010193,0.009094,-0.993713,0.251389,0.539237,-0.100458,49,273,582,5632
1644168660.5202,-0.009949,0.009888,-0.989746,0.175053,0.325496,0.021679,46,269,580,5664
1644168660.565294,-0.009583,0.009033,-0.989258,0.266656,0.447634,-0.085191,45,265,577,5632
1644168660.660623,-0.00824,0.009277,-0.990356,0.236122,0.432366,-0.14626,58,281,569,5648
1644168660.70903,-0.009949,0.010376,-0.99292,-0.02342,0.356031,-0.130992,55,279,580,5632
1644168660.757417,-0.010864,0.008606,-0.990356,0.190321,0.447634,-0.176794,53,274,571,5696
1644168660.805799,-0.011597,0.009827,-0.990417,0.113985,0.233893,-0.100458,64,277,561,5696
1644168660.854267,-0.010803,0.008789,-0.991211,0.281924,0.371298,-0.054656,46,269,578,5664
1644168660.902667,-0.010559,0.009094,-0.990784,0.08345,0.401832,-0.085191,46,269,559,5664
1644168660.951031,-0.010254,0.009155,-0.993408,0.281924,0.478168,-0.039389,47,275,575,5648
1644168660.99941,-0.00946,0.006165,-0.991516,0.251389,0.432366,-0.192061,45,275,575,5648
1644168661.065092,-0.010803,0.008057,-0.993103,0.175053,0.340763,-0.176794,53,271,578,5632
1644168661.096295,-0.011536,0.009766,-0.992859,0.251389,0.340763,-0.192061,57,275,579,5600
1644168661.144553,-0.010742,0.010498,-0.990051,0.129252,0.447634,-0.192061,61,270,570,5664
1644168661.192964,-0.010254,0.010986,-0.990356,0.113985,0.554504,-0.024122,57,273,582,5648
1644168661.241334,-0.009094,0.009155,-0.990479,0.388794,0.371298,-0.008855,47,277,565,5696
1644168661.289698,-0.007446,0.008179,-0.991638,0.266656,0.615573,-0.130992,46,269,571,5648
1644168661.338115,-0.011169,0.009155,-0.993225,0.205588,0.462901,-0.14626,48,271,576,5664
1644168661.386514,-0.011475,0.00824,-0.991943,0.297191,0.371298,-0.329466,53,281,576,5648
1644168661.434888,-0.011658,0.013306,-0.991577,0.190321,0.417099,-0.054656,52,275,577,5648
1644168661.483289,-0.011414,0.008118,-0.993774,0.205588,0.188092,-0.054656,49,268,584,5664
1644168661.531685,-0.011719,0.010437,-0.994934,0.312458,0.264427,-0.054656,51,266,571,5696
1644168661.581944,-0.009094,0.008728,-0.991211,0.205588,0.371298,-0.14626,48,269,573,5648
1644168661.631948,-0.009766,0.008606,-0.994751,0.373527,0.462901,-0.115725,41,283,566,5664
1644168661.677171,-0.011047,0.009766,-0.993469,0.068183,0.523969,-0.085191,52,260,570,5712
1644168661.773653,-0.011719,0.008118,-0.996094,0.190321,0.371298,-0.100458,47,282,570,5696
1644168661.822025,-0.008423,0.005554,-0.992798,0.281924,0.264427,-0.039389,41,269,571,5664
1644168661.870446,-0.011536,0.010864,-0.990234,0.236122,0.401832,-0.130992,55,266,576,5648
1644168661.91882,-0.008789,0.012451,-0.993408,0.220855,0.447634,-0.192061,49,273,579,5600
1644168661.96724,-0.010193,0.011719,-0.989563,0.159786,0.356031,-0.069924,40,275,579,5696
1644168662.015802,-0.00769,0.012207,-0.991821,0.297191,0.508702,-0.024122,51,274,562,5648
1644168662.064546,-0.00885,0.009827,-0.99054,0.220855,0.294962,-0.161527,51,276,578,5664
1644168662.112398,-0.008423,0.008789,-0.992432,0.312458,0.63084,-0.222595,42,280,570,5696
1644168662.160777,-0.010376,0.00769,-0.99115,0.159786,0.356031,-0.115725,60,271,576,5648
1644168662.209151,-0.009521,0.008484,-0.990479,0.175053,0.493435,0.021679,42,275,570,5712
1644168662.257541,-0.00647,0.010986,-0.990295,0.190321,0.386565,-0.039389,48,276,583,5760
1644168662.305918,-0.008972,0.011902,-0.990601,0.159786,0.340763,-0.100458,52,268,584,5696
1644168662.354341,-0.00885,0.009705,-0.990662,0.175053,0.401832,0.159084,51,279,578,5712
1644168662.402745,-0.011047,0.009521,-0.990051,0.281924,0.356031,0.021679,49,275,570,5664
1644168662.451102,-0.009705,0.012878,-0.990173,0.297191,0.356031,-0.222595,43,269,573,5648
1644168662.499508,-0.006653,0.007812,-0.993469,0.266656,0.371298,-0.222595,45,270,584,5664
1644168662.547861,-0.009705,0.007385,-0.995117,0.144519,0.447634,-0.207328,52,277,577,5648
1644168662.596266,-0.007935,0.009644,-0.991943,0.281924,0.432366,-0.024122,47,265,589,5648
1644168662.644658,-0.009216,0.010925,-0.990295,0.266656,0.401832,-0.054656,47,263,577,5664
1644168662.693409,-0.011719,0.011841,-0.99292,0.327725,0.401832,-0.069924,54,268,582,5648
1644168662.743641,-0.010803,0.00824,-0.991089,0.35826,0.340763,-0.100458,49,260,572,5664
1644168662.793917,-0.007568,0.010864,-0.991455,0.236122,0.432366,-0.054656,46,269,580,5600
1644168662.839063,-0.010498,0.009033,-0.992798,0.159786,0.386565,-0.14626,51,264,571,5696
1644168662.935327,-0.007385,0.007324,-0.991577,0.266656,0.493435,-0.085191,61,263,577,5648
1644168662.983436,-0.009033,0.008667,-0.99292,0.312458,0.447634,-0.237863,40,270,577,5664
1644168663.031833,-0.010193,0.00885,-0.993591,0.297191,0.432366,-0.176794,57,270,575,5696
1644168663.080385,-0.011963,0.010986,-0.990906,0.327725,0.462901,0.021679,47,277,582,5664
1644168663.128615,-0.010742,0.01001,-0.989929,0.236122,0.294962,-0.130992,48,262,583,5648
1644168663.176926,-0.011536,0.008545,-0.995117,0.281924,0.417099,0.052214,48,279,571,5664
1644168663.225343,-0.010742,0.010498,-0.990417,0.251389,0.447634,-0.14626,47,280,572,5664
1644168663.273746,-0.009827,0.008118,-0.990784,0.342992,0.417099,-0.069924,46,274,573,5648
1644168663.322184,-0.011841,0.010071,-0.99292,0.205588,0.24916,-0.130992,55,276,580,5648
1644168663.370522,-0.00769,0.009827,-0.990906,0.236122,0.264427,0.021679,48,276,580,5664
1644168663.418914,-0.011353,0.011108,-0.991516,0.190321,0.401832,-0.115725,54,275,577,5632
1644168663.467321,-0.009583,0.006287,-0.99292,0.159786,0.386565,-0.039389,43,269,587,5696
1644168663.515703,-0.010864,0.007568,-0.992065,0.113985,0.279695,-0.024122,49,260,584,5648
1644168663.56409,-0.009216,0.011353,-0.989807,0.098718,0.340763,0.036947,53,281,580,5664
1644168663.612494,-0.010437,0.00885,-0.993652,0.190321,0.371298,-0.176794,58,269,580,5648
1644168663.660839,-0.011292,0.009888,-0.990784,0.266656,0.401832,-0.115725,60,259,571,5632
1644168663.709709,-0.011658,0.009949,-0.992371,0.068183,0.462901,-0.115725,49,270,579,5728
1644168663.757647,-0.009399,0.01123,-0.995056,0.220855,0.401832,-0.115725,46,271,576,5648
1644168663.806032,-0.009888,0.009644,-0.990479,0.098718,0.310229,-0.14626,41,279,573,5696
1644168663.855761,-0.010376,0.010071,-0.992554,0.113985,0.294962,-0.176794,49,280,572,5600
1644168663.906396,-0.012024,0.007751,-0.992676,0.220855,0.417099,-0.115725,58,276,576,5600
1644168663.957096,-0.011047,0.011597,-0.993896,0.281924,0.523969,-0.039389,47,273,577,5648
1644168664.066098,-0.008301,0.01062,-0.991882,0.251389,0.356031,0.082748,43,274,587,5664
1644168664.099244,-0.007568,0.011597,-0.994507,0.205588,0.310229,-0.130992,41,266,573,5664
1644168664.144835,-0.010803,0.007874,-0.992249,0.251389,0.478168,0.021679,49,270,584,5664
1644168664.193178,-0.011047,0.010559,-0.99292,0.236122,0.554504,-0.14626,49,273,563,5664
1644168664.241552,-0.011841,0.012756,-0.990173,0.297191,0.462901,-0.039389,57,268,582,5696
1644168664.289938,-0.011658,0.008911,-0.993958,0.220855,0.340763,0.082748,49,270,570,5648
1644168664.338325,-0.010681,0.012878,-0.992859,0.281924,0.386565,-0.14626,52,282,575,5664
1644168664.386724,-0.008911,0.012573,-0.992249,0.205588,0.340763,-0.069924,52,277,579,5712
1644168664.435229,-0.008484,0.004639,-0.990112,0.129252,0.493435,-0.100458,48,269,571,5696
1644168664.483536,-0.00708,0.007935,-0.992249,0.175053,0.340763,-0.008855,53,276,573,5664
1644168664.532356,-0.008484,0.011719,-0.99292,0.236122,0.432366,-0.161527,51,266,573,5728
1644168664.582914,-0.007751,0.009033,-0.994873,0.297191,0.371298,-0.008855,51,276,580,5664
1644168664.633214,-0.014099,0.00885,-0.990967,0.404061,0.310229,-0.100458,43,276,576,5648
1644168664.678293,-0.011169,0.010376,-0.992493,0.281924,0.508702,0.021679,53,276,578,5648
1644168664.773865,-0.009888,0.007874,-0.991699,0.434595,0.554504,-0.100458,53,279,576,5648
1644168664.822404,-0.009766,0.008545,-0.990906,0.297191,0.432366,-0.069924,55,274,578,5648
1644168664.870629,-0.012085,0.012634,-0.991577,0.144519,0.417099,0.036947,41,274,569,5648
1644168664.919066,-0.008484,0.007385,-0.99115,0.220855,0.493435,0.067481,49,273,575,5696
1644168664.96744,-0.009644,0.01178,-0.989014,0.297191,0.371298,-0.039389,49,273,575,5664
1644168665.015821,-0.012146,0.008667,-0.990356,0.266656,0.447634,-0.039389,48,259,580,5696
1644168665.068012,-0.010071,0.009888,-0.991516,0.46513,0.340763,-0.024122,58,271,585,5600
1644168665.11258,-0.01123,0.008423,-0.994385,0.373527,0.462901,-0.069924,47,273,572,5632
1644168665.160962,-0.012329,0.009521,-0.993225,0.342992,0.340763,0.006412,49,275,565,5648
1644168665.209361,-0.006653,0.008301,-0.99054,0.205588,0.356031,-0.237863,53,271,583,5632
1644168665.257754,-0.008789,0.010376,-0.993591,0.159786,0.340763,0.082748,52,277,579,5648
1644168665.306122,-0.009705,0.009521,-0.992065,0.205588,0.203359,-0.085191,58,274,573,5712
1644168665.35454,-0.010376,0.008667,-0.993469,0.236122,0.478168,-0.039389,54,253,572,5696
1644168665.402941,-0.009644,0.007874,-0.991089,0.068183,0.386565,-0.222595,53,279,576,5712
1644168665.451322,-0.009827,0.005371,-0.991394,0.190321,0.478168,-0.14626,53,279,580,5696
1644168665.499681,-0.011475,0.009155,-0.990356,0.052916,0.356031,-0.054656,57,273,577,5584
1644168665.548092,-0.009644,0.013428,-0.991272,0.251389,0.523969,0.021679,55,271,571,5776
1644168665.596486,-0.011108,0.00946,-0.99353,0.144519,0.493435,-0.115725,61,268,577,5648
1644168665.644881,-0.006836,0.010864,-0.989319,0.297191,0.417099,-0.039389,52,275,577,5664
1644168665.693356,-0.011597,0.008423,-0.99176,0.297191,0.203359,-0.054656,48,274,576,5712
1644168665.743438,-0.012695,0.009094,-0.991516,0.098718,0.462901,0.036947,57,265,582,5648
1644168665.795295,-0.00946,0.009766,-0.990906,0.312458,0.356031,-0.008855,53,266,573,5648
1644168665.839225,-0.008606,0.010986,-0.991394,0.205588,0.340763,-0.008855,47,270,577,5648
1644168665.93547,-0.013733,0.009216,-0.992493,0.205588,0.417099,0.036947,51,279,576,5648
1644168665.983657,-0.007874,0.008606,-0.99231,0.205588,0.325496,-0.207328,46,274,571,5648
1644168666.032043,-0.011169,0.008972,-0.992249,0.281924,0.356031,0.052214,59,268,584,5584
1644168666.080488,-0.008667,0.009888,-0.99231,0.281924,0.340763,-0.085191,39,276,587,5664
1644168666.128761,-0.009399,0.008972,-0.989441,0.08345,0.310229,-0.085191,48,279,578,5664
1644168666.177168,-0.008179,0.008972,-0.991394,0.220855,0.356031,-0.130992,51,274,576,5664
1644168666.225557,-0.009705,0.008911,-0.990051,0.297191,0.386565,-0.008855,52,268,568,5648
1644168666.27396,-0.009644,0.01062,-0.990662,0.404061,0.340763,-0.14626,48,274,583,5664
1644168666.322332,-0.009399,0.009949,-0.990784,0.220855,0.401832,-0.024122,52,265,570,5648
1644168666.370728,-0.010925,0.008972,-0.991882,0.220855,0.356031,-0.085191,54,260,579,5648
1644168666.419118,-0.012451,0.010071,-0.992188,0.205588,0.325496,-0.176794,40,273,582,5696
1644168666.467507,-0.009705,0.011658,-0.991089,0.129252,0.615573,-0.222595,55,276,569,5696
1644168666.515903,-0.008301,0.010742,-0.991577,0.098718,0.310229,-0.039389,59,268,570,5664
1644168666.564296,-0.009888,0.010315,-0.992126,0.236122,0.508702,-0.176794,49,273,570,5664
1644168666.612705,-0.010864,0.009033,-0.994202,0.312458,0.462901,-0.176794,53,274,583,5648
1644168666.661074,-0.008362,0.008667,-0.991638,0.236122,0.600305,-0.008855,48,274,573,5648
1644168666.709461,-0.010803,0.010925,-0.992493,0.205588,0.340763,-0.115725,55,264,578,5648
1644168666.758198,-0.009583,0.007385,-0.993347,0.159786,0.340763,-0.25313,45,273,570,5664
1644168666.807671,-0.011536,0.009155,-0.99115,0.312458,0.462901,-0.14626,60,269,576,5648
1644168666.858551,-0.01178,0.009277,-0.992737,0.46513,0.478168,-0.008855,54,270,572,5600
1644168666.908622,-0.010193,0.009216,-0.989746,0.159786,0.539237,-0.130992,47,263,589,5696
1644168666.999882,-0.009705,0.010559,-0.993164,0.205588,0.340763,-0.085191,53,274,585,5648
1644168667.065474,-0.009338,0.009033,-0.992554,0.205588,0.294962,-0.130992,60,276,578,5696
1644168667.097781,-0.007874,0.011169,-0.993774,0.205588,0.417099,-0.085191,49,277,582,5648
1644168667.145149,-0.007996,0.008118,-0.99115,0.205588,0.417099,0.006412,52,275,570,5648
1644168667.193388,-0.009888,0.012085,-0.990662,0.220855,0.478168,-0.192061,47,282,579,5632
1644168667.241778,-0.010376,0.010254,-0.990112,0.236122,0.447634,-0.130992,49,273,572,5696
1644168667.290157,-0.011292,0.010132,-0.992126,0.175053,0.310229,-0.024122,42,265,586,5696
1644168667.338557,-0.011902,0.007446,-0.993286,0.281924,0.371298,-0.085191,58,279,573,5664
