epoch,acc_x,acc_y,acc_z,rot_x,rot_y,rot_z,mag_x,mag_y,mag_z,temp
1644188700.014152,-0.008728,0.012573,-0.989807,0.220855,0.371298,-0.237863,48,286,585,6192
1644188700.064831,-0.005005,0.011963,-0.990417,0.312458,0.310229,0.082748,48,276,585,6240
1644188700.110942,-0.009399,0.009705,-0.990173,0.068183,0.371298,-0.069924,58,281,573,6256
1644188700.159301,-0.00824,0.008789,-0.992249,0.190321,0.386565,0.067481,55,281,578,6176
1644188700.207698,-0.006897,0.012329,-0.990417,0.190321,0.310229,-0.176794,47,273,586,6224
1644188700.256071,-0.00824,0.00885,-0.990784,0.129252,0.462901,-0.069924,54,292,591,6288
1644188700.304489,-0.008545,0.011475,-0.990356,0.007115,0.386565,-0.268397,49,282,584,6160
1644188700.352889,-0.004761,0.008118,-0.991333,0.266656,0.325496,-0.222595,49,273,589,6256
1644188700.401266,-0.006958,0.01123,-0.99176,0.266656,0.371298,-0.008855,52,290,582,6240
1644188700.45038,-0.008484,0.011169,-0.991394,0.175053,0.417099,-0.115725,55,283,580,6256
1644188700.499642,-0.006836,0.010559,-0.992493,0.266656,0.539237,-0.14626,48,281,585,6240
1644188700.549458,-0.010132,0.010986,-0.991211,0.266656,0.432366,0.098015,46,276,576,6224
1644188700.59954,-0.006714,0.010559,-0.992126,0.129252,0.447634,-0.085191,48,274,583,6240
1644188700.644479,-0.007629,0.010864,-0.988342,0.175053,0.447634,-0.207328,55,279,576,6224
1644188700.740038,-0.010132,0.010376,-0.991455,0.113985,0.371298,-0.008855,48,283,578,6240
1644188700.788393,-0.007812,0.009888,-0.991028,0.175053,0.401832,-0.085191,51,271,585,6304
1644188700.836792,-0.006226,0.010315,-0.991577,0.190321,0.340763,-0.130992,53,279,578,6256
1644188700.885295,-0.010742,0.007507,-0.993225,0.159786,0.340763,-0.100458,52,265,582,6224
1644188700.933642,-0.011108,0.011841,-0.988464,0.266656,0.294962,-0.069924,51,281,573,6256
1644188700.982026,-0.00769,0.010315,-0.99231,0.312458,0.478168,-0.176794,62,279,587,6240
1644188701.030423,-0.009033,0.009521,-0.992554,0.312458,0.462901,-0.039389,49,285,584,6176
1644188701.081496,-0.008484,0.010071,-0.990417,0.190321,0.233893,-0.14626,51,271,585,6256
1644188701.127171,-0.009338,0.009644,-0.990173,0.327725,0.386565,-0.054656,55,274,583,6192
1644188701.175554,-0.006958,0.010254,-0.989197,0.220855,0.432366,-0.054656,52,268,591,6224
1644188701.223929,-0.006531,0.010803,-0.989258,0.35826,0.340763,-0.069924,57,277,577,6192
1644188701.272355,-0.007141,0.012878,-0.992981,0.129252,0.447634,-0.14626,57,273,579,6240
1644188701.320745,-0.009644,0.01001,-0.990234,0.205588,0.325496,-0.054656,38,273,589,6240
1644188701.369134,-0.008057,0.010742,-0.990906,0.220855,0.493435,0.021679,42,280,586,6224
1644188701.417529,-0.004456,0.008972,-0.993225,0.312458,0.371298,-0.115725,47,268,593,6304
1644188701.465931,-0.009521,0.010437,-0.990723,-0.02342,0.462901,-0.115725,46,276,585,6240
1644188701.514318,-0.008118,0.011047,-0.991577,0.312458,0.417099,-0.192061,55,279,592,6224
1644188701.56272,-0.006348,0.008789,-0.992126,0.098718,0.325496,-0.14626,49,277,589,6240
1644188701.611084,-0.007996,0.01062,-0.991272,0.205588,0.386565,-0.069924,51,279,580,6256
1644188701.659509,-0.008545,0.010986,-0.990845,0.113985,0.432366,-0.100458,43,291,583,6192
1644188701.709745,-0.007385,0.009705,-0.990845,0.251389,0.325496,-0.069924,57,268,582,6224
1644188701.760047,-0.005127,0.007812,-0.991699,0.175053,0.356031,-0.176794,51,269,587,6224
1644188701.804949,-0.010437,0.010437,-0.99115,0.266656,0.386565,-0.14626,45,270,577,6240
1644188701.901496,-0.009399,0.010925,-0.990601,0.35826,0.401832,-0.115725,52,273,586,6240
1644188701.949877,-0.007996,0.00769,-0.990051,0.35826,0.462901,-0.14626,46,276,573,6224
1644188701.99827,-0.007263,0.010254,-0.990356,0.327725,0.478168,-0.115725,49,285,589,6288
1644188702.060512,-0.0047,0.012207,-0.992371,0.35826,0.325496,0.036947,48,269,590,6256
1644188702.095764,-0.010437,0.011047,-0.990417,0.068183,0.371298,-0.054656,55,276,601,6240
1644188702.143454,-0.004211,0.011108,-0.988892,0.037649,0.340763,-0.130992,46,276,578,6224
1644188702.191799,-0.01062,0.009155,-0.993347,0.281924,0.325496,-0.222595,54,270,589,6224
1644188702.240197,-0.007507,0.008423,-0.991943,0.08345,0.294962,-0.222595,47,277,586,6224
1644188702.288578,-0.005859,0.01123,-0.990356,0.129252,0.401832,-0.130992,45,265,589,6256
1644188702.336998,-0.007324,0.010864,-0.992737,0.236122,0.325496,-0.039389,42,280,598,6224
1644188702.385385,-0.007507,0.010559,-0.992126,0.266656,0.325496,-0.054656,49,275,582,6224
1644188702.433773,-0.009583,0.010559,-0.990356,0.175053,0.447634,-0.100458,42,273,593,6256
1644188702.482182,-0.007874,0.011658,-0.991089,0.404061,0.294962,-0.100458,51,274,587,6224
1644188702.530566,-0.009277,0.01001,-0.989563,0.205588,0.554504,-0.008855,55,274,585,6288
1644188702.578969,-0.007202,0.010742,-0.991211,0.08345,0.523969,-0.161527,46,276,585,6288
1644188702.627547,-0.010437,0.009155,-0.992981,0.113985,0.386565,-0.115725,46,269,583,6224
1644188702.678128,-0.008606,0.005737,-0.991333,0.08345,0.554504,-0.085191,49,277,582,6288
1644188702.728151,-0.007141,0.011292,-0.987549,0.312458,0.523969,0.052214,49,265,591,6256
1644188702.773217,-0.007812,0.010803,-0.991943,0.144519,0.203359,-0.039389,48,269,585,6240
1644188702.869298,-0.00531,0.010498,-0.992004,0.251389,0.371298,-0.069924,39,274,585,6240
1644188702.917725,-0.010193,0.007996,-0.988953,0.251389,0.508702,-0.130992,52,280,577,6160
1644188702.966131,-0.009399,0.015442,-0.989746,0.205588,0.401832,0.12855,39,281,585,6224
1644188703.014525,-0.005859,0.008484,-0.990967,0.022382,0.493435,-0.054656,40,282,579,6224
1644188703.066595,-0.008301,0.010193,-0.992126,0.251389,0.401832,-0.161527,39,274,590,6224
1644188703.111295,-0.009888,0.011047,-0.992371,0.068183,0.432366,0.098015,57,277,577,6192
1644188703.159709,-0.00769,0.013306,-0.992859,0.098718,0.462901,-0.161527,48,271,580,6192
1644188703.20811,-0.007385,0.010681,-0.991211,0.190321,0.371298,-0.024122,52,275,582,6240
1644188703.256499,-0.005493,0.008972,-0.991577,0.327725,0.432366,-0.161527,54,275,575,6240
1644188703.304882,-0.006897,0.008789,-0.990112,0.327725,0.24916,-0.024122,47,268,575,6256
1644188703.353297,-0.007751,0.010376,-0.993713,0.159786,0.264427,-0.176794,46,271,587,6224
1644188703.401672,-0.007874,0.009338,-0.991638,0.175053,0.386565,-0.024122,45,270,579,6256
1644188703.450064,-0.005798,0.007751,-0.992737,0.190321,0.294962,-0.130992,48,283,583,6224
1644188703.498476,-0.008484,0.009583,-0.990112,0.251389,0.447634,-0.192061,49,275,579,6192
1644188703.546847,-0.008118,0.008728,-0.991943,-0.008153,0.371298,-0.039389,59,277,586,6240
1644188703.595282,-0.007568,0.008972,-0.991211,0.022382,0.478168,-0.054656,62,271,585,6240
1644188703.643975,-0.009277,0.009338,-0.991577,0.175053,0.325496,-0.130992,47,280,579,6240
1644188703.692195,-0.009521,0.009766,-0.991089,0.342992,0.325496,-0.100458,53,276,583,6176
1644188703.742347,-0.006714,0.006042,-0.989136,0.388794,0.417099,-0.085191,58,281,587,6224
1644188703.792654,-0.009338,0.009338,-0.993225,0.205588,0.447634,-0.100458,51,279,585,6256
1644188703.837458,-0.008118,0.010559,-0.989563,0.266656,0.417099,0.006412,49,285,577,6256
1644188703.934044,-0.005737,0.010742,-0.991455,0.190321,0.386565,-0.039389,46,279,590,6160
1644188703.982425,-0.009399,0.007446,-0.991455,0.297191,0.508702,0.006412,47,285,579,6240
1644188704.030776,-0.006592,0.00885,-0.99054,0.175053,0.310229,-0.237863,46,279,587,6304
1644188704.079242,-0.007751,0.009521,-0.992249,0.251389,0.478168,-0.008855,46,283,590,6176
1644188704.127538,-0.007385,0.010498,-0.989258,0.281924,0.325496,-0.100458,43,269,580,6224
1644188704.17591,-0.010315,0.008789,-0.988647,0.098718,0.401832,-0.130992,40,273,586,6224
1644188704.224325,-0.006958,0.009094,-0.991882,0.236122,0.432366,-0.237863,46,286,587,6256
1644188704.272724,-0.008789,0.01123,-0.987976,0.281924,0.569771,-0.130992,55,276,578,6240
1644188704.321111,-0.007996,0.010925,-0.992249,0.342992,0.447634,-0.14626,46,281,578,6192
1644188704.369494,-0.009399,0.010315,-0.992798,0.297191,0.432366,-0.069924,43,279,578,6240
1644188704.417888,-0.008606,0.007812,-0.98822,0.205588,0.340763,-0.14626,39,279,585,6256
1644188704.466284,-0.010498,0.009216,-0.990723,0.113985,0.356031,-0.039389,52,277,577,6224
1644188704.514716,-0.008057,0.01062,-0.990906,0.159786,0.508702,-0.161527,45,275,591,6192
1644188704.563067,-0.008667,0.008667,-0.991394,0.266656,0.218626,-0.039389,59,287,582,6224
1644188704.611458,-0.007996,0.011047,-0.989502,0.175053,0.493435,-0.069924,42,275,584,6256
1644188704.659856,-0.008179,0.010864,-0.992981,0.159786,0.356031,-0.222595,54,277,589,6224
1644188704.708238,-0.006897,0.007812,-0.990112,0.068183,0.233893,-0.176794,53,266,580,6224
1644188704.756613,-0.007629,0.009399,-0.993042,0.205588,0.340763,-0.207328,60,276,585,6240
1644188704.805675,-0.008484,0.01062,-0.993713,0.144519,0.493435,-0.024122,47,273,575,6224
1644188704.855518,-0.008118,0.012878,-0.991821,0.175053,0.386565,-0.130992,57,273,596,6192
1644188704.905836,-0.006287,0.012024,-0.991455,0.175053,0.478168,-0.054656,51,276,580,6224
1644188704.956307,-0.005676,0.010681,-0.992249,0.220855,0.371298,0.098015,43,281,580,6224
1644188705.047011,-0.010742,0.009583,-0.990845,0.35826,0.478168,-0.054656,52,277,589,6256
1644188705.09549,-0.009216,0.009094,-0.991943,0.312458,0.264427,-0.069924,45,268,591,6160
1644188705.143788,-0.006653,0.009338,-0.992004,0.220855,0.401832,-0.069924,53,283,590,6240
1644188705.192569,-0.007812,0.00885,-0.990784,0.129252,0.569771,-0.054656,51,274,587,6240
1644188705.240576,-0.008667,0.010254,-0.989807,0.297191,0.325496,-0.115725,59,270,584,6192
1644188705.288936,-0.008362,0.011536,-0.990173,0.251389,0.310229,-0.130992,49,268,582,6192
1644188705.337351,-0.009644,0.011353,-0.993713,0.052916,0.447634,-0.085191,46,281,580,6176
1644188705.385737,-0.00885,0.009888,-0.990967,0.129252,0.447634,-0.222595,39,276,587,6224
1644188705.434141,-0.006958,0.009644,-0.989441,0.159786,0.417099,-0.115725,46,279,580,6256
1644188705.482546,-0.008118,0.010254,-0.992004,0.190321,0.371298,-0.085191,47,273,577,6224
1644188705.53093,-0.005554,0.009827,-0.990356,0.297191,0.523969,-0.100458,48,264,576,6160
1644188705.579315,-0.006042,0.00885,-0.990479,0.266656,0.340763,-0.176794,49,277,593,6224
1644188705.627673,-0.007324,0.007385,-0.989807,0.159786,0.401832,-0.130992,47,280,579,6224
1644188705.676096,-0.008972,0.011658,-0.992798,0.205588,0.386565,-0.176794,48,264,590,6224
1644188705.724502,-0.007446,0.008179,-0.994324,0.236122,0.447634,-0.14626,54,273,589,6240
1644188705.772896,-0.009644,0.010437,-0.990417,0.007115,0.432366,-0.054656,57,280,582,6224
1644188705.821334,-0.008057,0.008728,-0.993042,0.281924,0.523969,0.067481,46,283,592,6240
1644188705.869955,-0.009644,0.010254,-0.993958,0.35826,0.478168,-0.039389,54,282,584,6240
1644188705.918126,-0.006104,0.007385,-0.993347,0.205588,0.325496,-0.14626,46,279,583,6192
1644188705.968178,-0.007019,0.009399,-0.993958,0.205588,0.310229,-0.100458,46,286,580,6224
1644188706.068599,-0.008179,0.009888,-0.989014,0.205588,0.325496,-0.069924,51,271,587,6240
1644188706.111634,-0.007324,0.008728,-0.989197,0.236122,0.356031,-0.115725,58,274,580,6176
1644188706.160036,-0.009705,0.010498,-0.99176,0.190321,0.539237,0.021679,47,277,584,6240
1644188706.208424,-0.00824,0.012939,-0.99231,0.175053,0.340763,-0.085191,47,285,579,6192
1644188706.256795,-0.007324,0.010925,-0.991211,0.190321,0.447634,-0.14626,45,273,589,6240
1644188706.305207,-0.008423,0.009033,-0.992065,0.281924,0.356031,-0.161527,52,273,584,6256
1644188706.353618,-0.008179,0.007507,-0.991699,0.220855,0.264427,0.036947,48,276,583,6256
1644188706.402004,-0.008789,0.011414,-0.991821,0.35826,0.478168,-0.085191,46,271,587,6240
1644188706.450398,-0.006653,0.010681,-0.990723,0.144519,0.401832,-0.054656,49,273,584,6256
1644188706.49876,-0.007935,0.008301,-0.989746,0.281924,0.447634,-0.14626,52,275,579,6224
1644188706.54717,-0.009155,0.011292,-0.992432,0.281924,0.417099,-0.14626,53,279,580,6256
1644188706.595574,-0.009399,0.009644,-0.98999,0.175053,0.325496,-0.085191,40,285,589,6224
1644188706.643948,-0.008362,0.010864,-0.990967,0.281924,0.493435,0.098015,58,281,597,6240
1644188706.692377,-0.01001,0.009399,-0.993042,0.251389,0.340763,-0.008855,53,281,583,6240
1644188706.740744,-0.006531,0.010925,-0.991699,0.266656,0.371298,-0.024122,43,276,585,6224
1644188706.789159,-0.010376,0.008606,-0.992493,0.159786,0.432366,-0.039389,48,269,585,6240
1644188706.838435,-0.008606,0.009827,-0.990295,0.068183,0.356031,-0.176794,51,281,590,6224
1644188706.889581,-0.008057,0.010071,-0.992065,0.190321,0.386565,0.098015,45,277,577,6176
1644188706.939637,-0.008301,0.008789,-0.991394,0.144519,0.401832,-0.054656,53,271,585,6176
1644188706.984192,-0.007874,0.010193,-0.994202,0.144519,0.508702,-0.085191,49,282,579,6224
1644188707.079597,-0.007507,0.009888,-0.993164,0.175053,0.371298,-0.161527,52,273,586,6192
1644188707.127907,-0.009705,0.006958,-0.99353,0.175053,0.569771,-0.207328,48,269,580,6224
1644188707.176287,-0.009033,0.008362,-0.992126,0.159786,0.356031,-0.039389,47,270,570,6240
1644188707.224846,-0.009583,0.009583,-0.993103,0.175053,0.401832,0.021679,49,280,582,6256
1644188707.273084,-0.008911,0.008545,-0.989807,0.251389,0.279695,-0.283664,40,277,577,6224
1644188707.321469,-0.005676,0.007751,-0.989563,0.281924,0.386565,-0.130992,54,275,579,6224
1644188707.369874,-0.007935,0.008179,-0.988647,0.068183,0.600305,-0.085191,49,275,584,6224
1644188707.418262,-0.008972,0.010254,-0.989258,0.297191,0.478168,-0.130992,43,271,585,6224
1644188707.466646,-0.008301,0.012451,-0.988098,0.113985,0.493435,-0.14626,48,279,571,6256
1644188707.515235,-0.010681,0.008118,-0.994568,0.220855,0.356031,-0.115725,48,296,576,6240
1644188707.563461,-0.008789,0.010986,-0.991699,0.281924,0.279695,0.006412,49,285,570,6304
1644188707.611828,-0.010132,0.008362,-0.993042,0.144519,0.310229,-0.176794,53,271,580,6176
1644188707.660212,-0.007385,0.008911,-0.993591,0.297191,0.508702,-0.115725,45,275,586,6240
1644188707.708617,-0.007996,0.011597,-0.989319,0.098718,0.417099,-0.130992,52,273,584,6192
1644188707.756989,-0.008789,0.009644,-0.989075,0.266656,0.294962,-0.237863,59,285,586,6224
1644188707.805402,-0.008118,0.007446,-0.99353,0.098718,0.462901,-0.085191,51,283,585,6224
1644188707.85383,-0.008606,0.010986,-0.991089,0.190321,0.478168,-0.14626,43,276,578,6224
1644188707.902236,-0.007874,0.006958,-0.990295,0.251389,0.401832,-0.100458,48,283,578,6240
1644188707.950635,-0.008911,0.009827,-0.992798,0.220855,0.508702,-0.008855,49,277,584,6224
1644188708.000104,-0.009949,0.010437,-0.991821,0.251389,0.401832,-0.085191,45,268,589,6176
1644188708.063163,-0.006958,0.009094,-0.99176,0.205588,0.386565,0.067481,54,265,584,6240
1644188708.102075,-0.011658,0.01001,-0.990662,0.266656,0.325496,-0.054656,59,275,589,6224
1644188708.145859,-0.009094,0.008789,-0.993469,0.175053,0.523969,-0.100458,51,274,587,6224
1644188708.240934,-0.009277,0.012024,-0.991577,0.297191,0.569771,-0.069924,45,287,570,6240
1644188708.289325,-0.003845,0.008789,-0.989807,0.144519,0.386565,-0.161527,48,276,590,6160
1644188708.33772,-0.007996,0.010864,-0.989319,0.266656,0.539237,-0.085191,53,266,576,6256
1644188708.386106,-0.00824,0.011353,-0.991089,0.297191,0.508702,-0.161527,40,277,584,6160
1644188708.434507,-0.009033,0.011902,-0.989807,0.144519,0.24916,0.006412,40,277,575,6304
1644188708.482917,-0.008667,0.010193,-0.990479,0.08345,0.417099,-0.054656,53,276,590,6240
1644188708.531271,-0.009338,0.009155,-0.991089,0.281924,0.371298,-0.14626,43,274,583,6256
1644188708.579683,-0.009644,0.010193,-0.990662,0.098718,0.432366,-0.192061,43,276,583,6192
1644188708.628081,-0.007263,0.011414,-0.992859,0.266656,0.447634,-0.054656,47,280,584,6240
1644188708.676511,-0.006409,0.012939,-0.98822,0.373527,0.401832,-0.100458,52,275,577,6176
1644188708.724862,-0.007385,0.009827,-0.988892,0.35826,0.478168,0.006412,51,279,590,6192
1644188708.773294,-0.010376,0.008545,-0.99292,0.159786,0.386565,-0.115725,38,277,593,6240
1644188708.821654,-0.010376,0.009644,-0.993469,0.052916,0.478168,-0.192061,49,277,572,6256
1644188708.870095,-0.007935,0.007446,-0.992737,0.434595,0.356031,-0.100458,38,280,593,6224
1644188708.918468,-0.009644,0.00946,-0.991028,0.205588,0.417099,-0.085191,59,290,579,6224
1644188708.966873,-0.005981,0.010681,-0.992432,0.052916,0.325496,-0.161527,51,274,590,6192
1644188709.015265,-0.006226,0.005981,-0.98822,0.220855,0.386565,-0.161527,62,281,585,6256
1644188709.112014,-0.007263,0.010498,-0.988464,0.251389,0.356031,-0.008855,47,273,586,6224
1644188709.160438,-0.008911,0.010498,-0.99176,0.129252,0.371298,-0.039389,48,276,578,6288
1644188709.208772,-0.007629,0.010254,-0.990723,0.220855,0.386565,-0.008855,46,271,583,6192
1644188709.257172,-0.008606,0.010437,-0.991028,0.129252,0.432366,-0.14626,51,274,576,6240
1644188709.305576,-0.010437,0.011597,-0.993958,0.236122,0.462901,-0.039389,54,282,577,6192
1644188709.353975,-0.004578,0.009888,-0.993347,0.312458,0.310229,-0.130992,39,283,585,6224
1644188709.40235,-0.008179,0.009644,-0.990112,0.220855,0.401832,-0.100458,40,268,593,6240
1644188709.450755,-0.009155,0.010376,-0.989807,0.068183,0.447634,-0.115725,48,269,576,6224
1644188709.499127,-0.005859,0.009338,-0.991394,0.175053,0.371298,-0.008855,43,276,578,6240
1644188709.547523,-0.007996,0.008484,-0.992188,0.251389,0.310229,-0.054656,55,291,583,6288
1644188709.595938,-0.006958,0.013855,-0.991394,0.220855,0.417099,0.036947,48,271,590,6224
1644188709.644349,-0.0047,0.008118,-0.99176,0.236122,0.279695,-0.085191,57,277,586,6240
1644188709.692742,-0.006897,0.010864,-0.991089,0.175053,0.401832,-0.176794,55,269,573,6176
1644188709.741122,-0.006104,0.010925,-0.991638,0.251389,0.417099,0.036947,43,269,580,6160
1644188709.789514,-0.006531,0.009338,-0.991333,0.236122,0.356031,0.067481,55,279,573,6224
1644188709.837903,-0.010742,0.009094,-0.988159,0.175053,0.310229,-0.008855,45,277,589,6256
1644188709.886328,-0.009644,0.012085,-0.991638,0.297191,0.356031,-0.14626,54,270,584,6224
1644188709.935277,-0.008423,0.009949,-0.99176,0.373527,0.371298,-0.100458,48,283,592,6192
1644188709.983135,-0.007629,0.009949,-0.992371,0.220855,0.371298,-0.115725,51,276,587,6240
1644188710.032744,-0.008545,0.009338,-0.990601,0.266656,0.356031,-0.115725,53,281,578,6240
1644188710.097658,-0.009155,0.010376,-0.991211,0.312458,0.386565,-0.100458,52,285,586,6224
1644188710.134039,-0.007568,0.009277,-0.994202,0.281924,0.569771,-0.085191,47,280,589,6240
1644188710.225397,-0.008179,0.006409,-0.990845,0.281924,0.325496,-0.085191,42,277,586,6240
1644188710.273487,-0.006958,0.009338,-0.990234,0.190321,0.401832,-0.207328,49,282,586,6224
1644188710.321862,-0.008911,0.010193,-0.990295,0.251389,0.493435,-0.054656,51,283,580,6240
1644188710.370258,-0.009338,0.009094,-0.992798,0.281924,0.279695,0.052214,53,274,576,6224
1644188710.418648,-0.007935,0.00769,-0.99176,0.190321,0.356031,0.006412,46,276,580,6256
1644188710.467049,-0.006653,0.010193,-0.990784,0.022382,0.417099,-0.100458,51,271,576,6256
1644188710.515438,-0.006531,0.007935,-0.991943,0.190321,0.325496,-0.054656,65,271,587,6256
1644188710.563838,-0.009277,0.01062,-0.991699,0.205588,0.371298,-0.008855,49,290,582,6224
1644188710.612249,-0.008667,0.00824,-0.994385,0.037649,0.24916,-0.14626,49,280,575,6224
1644188710.660601,-0.008972,0.010803,-0.992737,0.236122,0.447634,-0.100458,45,270,575,6240
1644188710.709021,-0.004822,0.010742,-0.990051,0.068183,0.432366,-0.039389,47,273,589,6176
1644188710.757396,-0.00769,0.009888,-0.992676,0.297191,0.340763,-0.115725,47,277,577,6256
1644188710.805806,-0.007812,0.008179,-0.992371,0.129252,0.294962,-0.008855,42,280,584,6240
1644188710.854199,-0.006592,0.008179,-0.99353,0.312458,0.447634,0.036947,59,282,584,6192
1644188710.902588,-0.00885,0.011292,-0.992798,0.113985,0.325496,-0.115725,38,268,589,6240
1644188710.950978,-0.010681,0.00946,-0.992249,0.35826,0.310229,-0.14626,48,279,583,6240
1644188710.999347,-0.009888,0.010254,-0.991211,0.144519,0.432366,-0.25313,42,273,582,6224
1644188711.062396,-0.009155,0.010742,-0.992188,0.297191,0.386565,-0.085191,52,277,593,6224
1644188711.102028,-0.007507,0.010437,-0.990601,0.327725,0.447634,-0.161527,45,280,584,6240
1644188711.145667,-0.007568,0.008606,-0.993225,0.373527,0.417099,-0.024122,49,273,579,6224
1644188711.196373,-0.007751,0.011536,-0.990723,0.220855,0.447634,-0.130992,45,277,582,6256
1644188711.246261,-0.008484,0.010071,-0.994446,0.220855,0.493435,-0.176794,46,274,576,6160
1644188711.338092,-0.007751,0.013794,-0.994141,0.312458,0.233893,-0.176794,43,274,578,6240
1644188711.38646,-0.007141,0.012085,-0.990356,0.236122,0.325496,-0.192061,48,281,571,6256
1644188711.434877,-0.006531,0.010864,-0.990784,0.205588,0.478168,-0.192061,42,282,593,6256
1644188711.483276,-0.005737,0.012146,-0.991272,0.220855,0.233893,-0.283664,58,281,569,6224
1644188711.531641,-0.009705,0.009277,-0.989746,0.236122,0.294962,-0.115725,57,275,579,6224
1644188711.580044,-0.007385,0.011475,-0.993103,0.297191,0.417099,-0.069924,65,279,587,6240
1644188711.628441,-0.006409,0.009033,-0.990417,0.159786,0.264427,-0.25313,39,279,583,6304
1644188711.676844,-0.008789,0.010498,-0.991455,0.220855,0.371298,-0.069924,45,280,586,6288
1644188711.725224,-0.005188,0.00824,-0.99353,0.327725,0.386565,-0.054656,58,271,583,6224
1644188711.773632,-0.007019,0.00708,-0.988708,0.266656,0.294962,-0.161527,45,275,579,6288
1644188711.822055,-0.007446,0.009705,-0.992737,0.098718,0.417099,0.006412,46,288,583,6256
1644188711.870446,-0.010254,0.007996,-0.994629,0.144519,0.356031,-0.14626,43,279,576,6176
1644188711.918842,-0.008179,0.011292,-0.99115,0.312458,0.539237,-0.14626,43,271,585,6288
1644188711.967236,-0.007751,0.010559,-0.990906,0.342992,0.523969,-0.115725,49,273,591,6224
1644188712.015637,-0.008362,0.011719,-0.991394,0.129252,0.432366,0.006412,58,283,583,6240
1644188712.080657,-0.00592,0.010071,-0.989746,0.098718,0.401832,-0.268397,53,271,592,6192
1644188712.113133,-0.008301,0.011047,-0.991577,0.190321,0.478168,-0.039389,45,273,582,6224
1644188712.209149,-0.01062,0.008301,-0.988525,0.327725,0.325496,0.021679,51,269,578,6240
1644188712.257536,-0.006897,0.006775,-0.991211,0.220855,0.417099,-0.039389,45,270,579,6240
1644188712.305925,-0.009155,0.008972,-0.990479,0.312458,0.432366,-0.222595,43,276,583,6240
1644188712.354308,-0.007568,0.010742,-0.990417,0.068183,0.401832,-0.161527,48,271,583,6224
1644188712.40275,-0.007751,0.01062,-0.992065,0.251389,0.340763,-0.008855,60,274,576,6240
1644188712.451128,-0.009583,0.008728,-0.98938,0.144519,0.493435,-0.100458,52,282,575,6240
1644188712.4995,-0.009094,0.01001,-0.991211,0.251389,0.447634,-0.25313,46,279,583,6288
1644188712.547888,-0.008484,0.009888,-0.991516,0.205588,0.478168,0.036947,46,279,576,6240
1644188712.596309,-0.009277,0.012024,-0.990601,0.312458,0.478168,-0.024122,51,281,573,6224
1644188712.644721,-0.008423,0.012268,-0.987854,0.236122,0.478168,-0.085191,41,276,580,6160
1644188712.693112,-0.007812,0.009338,-0.991638,0.327725,0.417099,0.036947,42,280,579,6176
1644188712.741482,-0.005981,0.015564,-0.99115,0.129252,0.569771,-0.176794,45,273,579,6224
1644188712.789883,-0.00885,0.010315,-0.991943,0.251389,0.279695,0.052214,60,283,583,6240
1644188712.838313,-0.00885,0.009094,-0.990479,0.220855,0.340763,-0.039389,54,268,593,6224
1644188712.8867,-0.005981,0.010071,-0.990356,0.098718,0.24916,0.098015,54,275,589,6288
1644188712.935138,-0.007996,0.009277,-0.993408,0.205588,0.432366,-0.130992,51,283,592,6240
1644188712.983487,-0.005676,0.010254,-0.990112,0.220855,0.432366,-0.115725,51,291,590,6240
1644188713.032167,-0.006409,0.009888,-0.991333,0.205588,0.432366,-0.130992,43,283,587,6224
1644188713.092277,-0.006592,0.008484,-0.989746,0.068183,0.401832,-0.039389,58,276,576,6224
1644188713.131434,-0.008911,0.010132,-0.990784,0.251389,0.371298,-0.024122,57,271,585,6240
1644188713.180498,-0.007812,0.008911,-0.98822,0.068183,0.447634,-0.008855,58,269,580,6224
1644188713.225904,-0.009399,0.010681,-0.990234,0.129252,0.401832,-0.192061,43,274,576,6224
1644188713.322392,-0.01178,0.009888,-0.992249,0.052916,0.585038,-0.14626,52,270,589,6240
1644188713.370579,-0.007446,0.011536,-0.99231,0.08345,0.508702,0.067481,55,269,597,6160
1644188713.418989,-0.010986,0.010925,-0.990906,0.144519,0.356031,-0.069924,46,281,587,6240
1644188713.467378,-0.006409,0.009338,-0.99292,0.35826,0.371298,-0.100458,51,281,585,6256
1644188713.515769,-0.009399,0.010742,-0.993835,0.220855,0.417099,-0.176794,41,279,576,6224
1644188713.564169,-0.008789,0.011536,-0.992737,0.205588,0.294962,-0.115725,51,281,576,6224
1644188713.612569,-0.007996,0.011169,-0.992798,0.327725,0.401832,0.052214,54,273,579,6160
1644188713.660965,-0.009094,0.009338,-0.99231,0.113985,0.462901,0.067481,38,280,575,6160
1644188713.709358,-0.010254,0.008118,-0.992126,0.236122,0.340763,-0.039389,59,282,575,6240
1644188713.757737,-0.005493,0.011597,-0.989197,0.159786,0.508702,0.036947,34,276,580,6224
1644188713.806111,-0.009216,0.007507,-0.992004,0.144519,0.447634,-0.085191,49,270,572,6256
1644188713.854687,-0.007019,0.010925,-0.990967,0.327725,0.493435,-0.161527,57,268,586,6224
1644188713.902986,-0.005615,0.010925,-0.993347,0.205588,0.493435,-0.085191,51,283,578,6256
1644188713.951354,-0.008789,0.01123,-0.991455,0.281924,0.523969,-0.192061,48,279,578,6224
1644188713.999751,-0.008057,0.011658,-0.990662,0.404061,0.417099,-0.130992,48,279,578,6224
1644188714.048141,-0.00708,0.008423,-0.989502,0.144519,0.432366,-0.039389,49,280,593,6224
1644188714.098766,-0.006958,0.009888,-0.990356,0.236122,0.447634,-0.024122,43,281,592,6176
1644188714.144866,-0.005432,0.010254,-0.989746,0.312458,0.401832,-0.008855,45,277,591,6224
1644188714.193279,-0.00647,0.009277,-0.99176,0.373527,0.386565,-0.207328,48,279,592,6240
1644188714.241725,-0.010315,0.008606,-0.991882,0.236122,0.478168,0.143817,49,273,586,6256
1644188714.291886,-0.01001,0.009705,-0.989685,0.08345,0.233893,-0.115725,55,276,580,6192
1644188714.342304,-0.006348,0.008545,-0.991699,0.113985,0.325496,-0.008855,52,275,591,6160
1644188714.387432,-0.009705,0.01123,-0.986938,0.190321,0.523969,-0.115725,49,277,586,6176
1644188714.483632,-0.0047,0.006958,-0.992981,0.159786,0.310229,0.021679,49,280,579,6256
1644188714.532028,-0.008667,0.010559,-0.989929,0.129252,0.371298,-0.085191,45,280,589,6176
1644188714.580412,-0.008423,0.009583,-0.990906,0.297191,0.523969,-0.25313,48,269,578,6176
1644188714.628814,-0.006958,0.009216,-0.993408,0.175053,0.447634,-0.130992,52,270,589,6256
1644188714.677199,-0.005676,0.011414,-0.989258,0.144519,0.447634,-0.115725,39,281,580,6224
1644188714.725595,-0.00885,0.006165,-0.991638,0.144519,0.478168,-0.14626,48,286,587,6240
1644188714.773989,-0.007996,0.009277,-0.99054,0.327725,0.401832,-0.024122,47,275,591,6240
1644188714.822397,-0.008484,0.008911,-0.991577,0.281924,0.493435,-0.085191,57,280,584,6224
1644188714.870819,-0.010864,0.012024,-0.989258,0.373527,0.310229,-0.054656,55,279,587,6288
1644188714.919216,-0.007263,0.007385,-0.989258,0.190321,0.462901,-0.222595,55,276,576,6224
1644188714.967602,-0.008789,0.01062,-0.991455,0.297191,0.310229,-0.176794,48,279,587,6240
1644188715.016007,-0.009338,0.01178,-0.991333,0.266656,0.447634,-0.130992,57,280,584,6224
1644188715.068746,-0.007507,0.009033,-0.990967,0.037649,0.417099,-0.161527,40,277,584,6240
1644188715.11283,-0.00824,0.01123,-0.989197,0.251389,0.371298,-0.130992,45,282,589,6240
1644188715.161113,-0.00824,0.009705,-0.989624,0.144519,0.447634,-0.054656,46,274,585,6224
1644188715.20952,-0.009644,0.01001,-0.989197,0.159786,0.401832,-0.192061,57,287,589,6192
1644188715.257893,-0.007141,0.009033,-0.989197,0.266656,0.386565,0.036947,58,271,597,6192
1644188715.306318,-0.009155,0.008362,-0.989624,0.220855,0.386565,-0.024122,40,275,584,6304
1644188715.354855,-0.008972,0.009155,-0.992615,0.220855,0.233893,-0.130992,53,271,576,6224
1644188715.403467,-0.008118,0.012268,-0.990967,0.297191,0.417099,-0.161527,52,268,586,6224
1644188715.453713,-0.005615,0.012085,-0.991516,0.251389,0.432366,-0.192061,51,288,590,6224
1644188715.504104,-0.006653,0.012939,-0.991943,0.144519,0.310229,-0.085191,45,275,591,6256
1644188715.549177,-0.00824,0.011597,-0.993225,-0.008153,0.325496,-0.054656,47,273,577,6256
1644188715.645297,-0.006287,0.010315,-0.99115,0.175053,0.401832,-0.161527,52,265,583,6224
1644188715.693461,-0.008972,0.009644,-0.989807,0.113985,0.310229,-0.192061,55,274,583,6224
1644188715.741853,-0.009277,0.011475,-0.990845,0.129252,0.569771,-0.161527,53,269,576,6160
1644188715.79023,-0.005188,0.009277,-0.992554,0.220855,0.371298,-0.14626,51,266,590,6224
1644188715.838617,-0.008728,0.010742,-0.989197,0.251389,0.508702,-0.130992,52,280,582,6240
1644188715.887069,-0.011353,0.012695,-0.993103,0.220855,0.401832,-0.115725,48,276,580,6256
1644188715.935455,-0.010742,0.010498,-0.990601,0.220855,0.310229,-0.024122,46,281,580,6240
1644188715.983868,-0.011597,0.010803,-0.990967,0.129252,0.325496,-0.085191,49,273,582,6224
1644188716.03228,-0.006653,0.009277,-0.98999,0.129252,0.279695,-0.176794,51,276,583,6256
1644188716.097892,-0.008423,0.010803,-0.989502,0.098718,0.447634,-0.192061,51,279,590,6256
1644188716.129002,-0.01001,0.012024,-0.989624,0.175053,0.325496,-0.008855,51,274,585,6240
1644188716.177365,-0.008484,0.009216,-0.990662,0.327725,0.279695,-0.008855,49,270,575,6192
1644188716.225799,-0.010864,0.011414,-0.990112,0.129252,0.401832,-0.115725,51,271,580,6224
1644188716.275692,-0.008484,0.010681,-0.991211,0.129252,0.371298,-0.024122,54,282,589,6224
1644188716.326025,-0.006592,0.012512,-0.994446,0.281924,0.401832,-0.161527,53,276,571,6256
1644188716.376229,-0.007812,0.009827,-0.989929,0.08345,0.325496,-0.192061,41,281,587,6224
1644188716.467729,-0.008484,0.007202,-0.992798,0.266656,0.279695,-0.085191,57,270,584,6224
1644188716.516127,-0.008911,0.012085,-0.990601,0.068183,0.462901,-0.176794,53,276,590,6240
1644188716.564528,-0.006287,0.011108,-0.989563,0.08345,0.493435,-0.054656,45,285,579,6192
1644188716.612936,-0.005371,0.010132,-0.990967,0.266656,0.340763,0.006412,36,276,576,6240
1644188716.661314,-0.008484,0.011108,-0.993469,0.220855,0.386565,-0.115725,47,277,586,6160
1644188716.710217,-0.006165,0.01178,-0.990784,0.190321,0.417099,-0.115725,46,271,583,6192
1644188716.75807,-0.005737,0.010315,-0.990295,0.144519,0.508702,-0.268397,52,273,582,6256
1644188716.806489,-0.009766,0.009216,-0.989563,0.129252,0.447634,-0.100458,55,279,580,6224
1644188716.854867,-0.006287,0.009949,-0.990417,0.190321,0.386565,0.052214,47,270,582,6192
1644188716.903334,-0.008301,0.009521,-0.990479,0.327725,0.447634,-0.161527,47,265,586,6240
1644188716.951714,-0.00647,0.010315,-0.990906,0.266656,0.356031,-0.024122,53,276,573,6288
1644188717.000098,-0.00708,0.009644,-0.989441,0.236122,0.356031,-0.100458,51,271,571,6240
1644188717.048502,-0.009583,0.009338,-0.991516,0.08345,0.386565,-0.130992,59,285,596,6224
1644188717.098207,-0.009583,0.011292,-0.989258,0.342992,0.264427,0.006412,55,274,585,6160
1644188717.145308,-0.008118,0.008484,-0.991089,0.312458,0.356031,-0.115725,46,288,580,6192
1644188717.193675,-0.006897,0.012085,-0.991882,0.098718,0.325496,-0.085191,55,271,585,6224
1644188717.242058,-0.005554,0.008606,-0.990051,0.159786,0.417099,0.006412,53,274,585,6224
1644188717.2908,-0.00885,0.010071,-0.987061,0.236122,0.325496,-0.085191,51,293,587,6224
1644188717.338872,-0.008911,0.009216,-0.990967,0.037649,0.294962,-0.268397,52,270,577,6224
1644188717.38909,-0.006653,0.009094,-0.992798,0.251389,0.417099,-0.161527,48,279,587,6192
1644188717.439106,-0.01001,0.011047,-0.993713,0.266656,0.294962,-0.100458,47,285,577,6176
1644188717.489646,-0.008789,0.013,-0.988892,0.175053,0.432366,-0.100458,55,274,576,6224
1644188717.533721,-0.006409,0.011047,-0.992859,0.236122,0.493435,-0.161527,48,271,578,6240
1644188717.629223,-0.00647,0.010986,-0.990051,0.205588,0.432366,-0.024122,55,274,585,6256
1644188717.677586,-0.007202,0.010132,-0.992615,0.098718,0.539237,-0.039389,52,280,579,6240
1644188717.726,-0.006531,0.009155,-0.988892,0.266656,0.447634,-0.039389,58,271,583,6224
1644188717.774402,-0.006104,0.010132,-0.992493,0.144519,0.432366,0.052214,48,276,590,6256
1644188717.822813,-0.007019,0.007629,-0.988647,0.220855,0.508702,-0.039389,53,276,583,6160
1644188717.871167,-0.007141,0.010498,-0.989563,0.08345,0.539237,-0.14626,49,273,568,6256
1644188717.919574,-0.008179,0.012878,-0.99231,0.113985,0.386565,0.006412,48,283,573,6224
1644188717.967969,-0.009888,0.010803,-0.99054,0.190321,0.447634,-0.100458,55,274,580,6240
1644188718.016405,-0.009338,0.010132,-0.99231,0.190321,0.417099,-0.14626,45,260,589,6256
1644188718.064894,-0.011719,0.010132,-0.99231,0.175053,0.447634,-0.130992,45,273,589,6224
1644188718.11311,-0.007874,0.008789,-0.98938,0.266656,0.417099,-0.268397,52,273,577,6336
1644188718.161504,-0.00708,0.008301,-0.989258,0.388794,0.386565,-0.100458,40,280,582,6192
1644188718.209886,-0.007446,0.010315,-0.990417,0.373527,0.325496,-0.192061,51,269,583,6224
1644188718.258268,-0.007629,0.010803,-0.989441,0.052916,0.371298,-0.085191,48,281,585,6240
1644188718.306675,-0.007202,0.009583,-0.992432,0.251389,0.417099,-0.130992,42,287,584,6192
1644188718.355112,-0.009033,0.009766,-0.993713,0.327725,0.340763,-0.039389,54,285,593,6256
1644188718.403471,-0.009766,0.009949,-0.991821,0.342992,0.417099,-0.054656,43,274,583,6224
1644188718.451858,-0.008362,0.009583,-0.992737,0.220855,0.432366,0.036947,59,270,596,6192
1644188718.500555,-0.00824,0.010376,-0.989868,0.190321,0.371298,-0.024122,46,281,587,6192
1644188718.54903,-0.008057,0.008484,-0.989502,0.220855,0.417099,-0.115725,52,265,584,6224
1644188718.599356,-0.009033,0.010254,-0.99292,0.220855,0.462901,-0.115725,48,279,590,6240
1644188718.649776,-0.007385,0.010681,-0.993347,0.220855,0.371298,-0.100458,40,280,579,6128
1644188718.694712,-0.008362,0.010071,-0.991699,0.266656,0.462901,-0.130992,47,287,577,6240
1644188718.790599,-0.00592,0.009766,-0.987427,0.266656,0.478168,-0.039389,53,274,576,6160
1644188718.83905,-0.006653,0.007568,-0.992126,0.281924,0.401832,-0.115725,55,276,576,6288
1644188718.887425,-0.007019,0.008301,-0.993042,0.159786,0.493435,-0.069924,45,277,582,6224
1644188718.935837,-0.006348,0.010315,-0.992737,0.297191,0.478168,-0.207328,52,270,584,6224
1644188718.984232,-0.008728,0.008911,-0.992615,0.297191,0.554504,0.006412,46,271,576,6224
1644188719.032649,-0.006958,0.009888,-0.993042,0.327725,0.401832,-0.130992,49,277,577,6176
1644188719.081471,-0.008789,0.011108,-0.992065,0.281924,0.462901,-0.130992,54,275,586,6224
1644188719.129348,-0.00885,0.010864,-0.989502,0.037649,0.432366,-0.069924,48,269,590,6224
1644188719.177743,-0.00885,0.011963,-0.990417,0.190321,0.356031,-0.085191,40,270,582,6240
1644188719.226148,-0.010254,0.011169,-0.990967,0.220855,0.325496,-0.130992,45,265,586,6240
1644188719.27465,-0.006897,0.011108,-0.98999,0.281924,0.493435,-0.085191,53,288,585,6224
1644188719.322957,-0.007751,0.009827,-0.995239,0.220855,0.386565,-0.039389,49,268,589,6224
1644188719.371329,-0.008728,0.009583,-0.991211,0.312458,0.24916,-0.100458,47,282,591,6240
1644188719.419722,-0.00708,0.008667,-0.992981,0.159786,0.462901,-0.14626,55,274,585,6240
1644188719.468115,-0.009949,0.010681,-0.989929,0.175053,0.432366,-0.085191,43,281,578,6224
1644188719.516477,-0.011475,0.011169,-0.990723,0.327725,0.356031,-0.085191,47,275,586,6176
1644188719.564896,-0.009766,0.008606,-0.990173,-0.008153,0.294962,0.098015,48,269,583,6256
1644188719.613289,-0.007507,0.010498,-0.992065,0.236122,0.585038,-0.085191,43,271,580,6224
1644188719.661689,-0.008545,0.012573,-0.991699,0.098718,0.233893,-0.115725,51,274,573,6176
1644188719.710215,-0.006104,0.010498,-0.991516,0.175053,0.432366,-0.161527,53,276,571,6256
1644188719.760795,-0.008362,0.011169,-0.989502,0.205588,0.401832,0.082748,55,281,580,6224
1644188719.812468,-0.009338,0.008789,-0.991211,0.098718,0.340763,0.052214,49,263,577,6224
1644188719.856425,-0.006897,0.01062,-0.992126,0.266656,0.340763,-0.222595,52,275,582,6256
1644188719.952173,-0.008667,0.010742,-0.991211,0.312458,0.447634,-0.130992,42,282,577,6192
1644188720.000468,-0.010254,0.006042,-0.992371,0.08345,0.462901,0.052214,43,281,580,6240
1644188720.0627,-0.010864,0.008057,-0.989868,0.159786,0.417099,-0.085191,43,279,580,6176
1644188720.104949,-0.009399,0.010437,-0.992126,0.312458,0.264427,-0.100458,48,266,580,6224
1644188720.145608,-0.009094,0.008667,-0.99176,0.113985,0.386565,-0.130992,46,271,578,6256
1644188720.194012,-0.00531,0.011597,-0.992126,0.159786,0.401832,-0.085191,49,273,589,6256
1644188720.242426,-0.005615,0.011353,-0.993896,0.220855,0.432366,-0.100458,47,273,589,6240
1644188720.290801,-0.008911,0.009338,-0.99353,0.327725,0.264427,-0.130992,46,279,590,6224
1644188720.339194,-0.009033,0.009644,-0.993774,0.129252,0.401832,-0.085191,38,268,586,6224
1644188720.387579,-0.009155,0.011963,-0.990967,0.08345,0.462901,-0.069924,48,271,585,6224
1644188720.436002,-0.008911,0.009827,-0.992859,0.190321,0.447634,-0.176794,46,276,587,6240
1644188720.486222,-0.007385,0.01239,-0.99292,0.266656,0.371298,-0.039389,51,271,590,6176
1644188720.536639,-0.009644,0.006958,-0.990967,0.220855,0.356031,0.052214,53,274,585,6176
1644188720.581781,-0.006775,0.010925,-0.993958,0.297191,0.493435,-0.085191,41,276,578,6224
1644188720.677914,-0.007935,0.011047,-0.99353,0.113985,0.432366,-0.161527,51,276,590,6256
1644188720.726358,-0.01178,0.009094,-0.991333,0.266656,0.447634,-0.115725,53,286,590,6224
1644188720.774911,-0.00769,0.008057,-0.990479,0.037649,0.447634,-0.207328,43,271,578,6224
1644188720.823146,-0.009399,0.012085,-0.990234,0.236122,0.371298,0.12855,46,276,587,6240
1644188720.87155,-0.010254,0.008545,-0.990967,0.297191,0.432366,-0.192061,54,277,584,6224
1644188720.919942,-0.009155,0.010559,-0.992371,0.175053,0.340763,-0.069924,52,277,586,6192
1644188720.968339,-0.008728,0.01001,-0.993408,0.297191,0.462901,-0.039389,41,281,583,6192
1644188721.01673,-0.010376,0.008179,-0.993835,0.190321,0.432366,-0.192061,41,271,585,6224
1644188721.069664,-0.010315,0.009827,-0.98999,0.327725,0.447634,-0.024122,52,275,589,6224
1644188721.113509,-0.011108,0.009033,-0.99054,0.220855,0.401832,-0.085191,46,266,587,6176
1644188721.161865,-0.006287,0.007324,-0.991882,0.052916,0.447634,-0.192061,36,279,573,6224
1644188721.210255,-0.007935,0.009033,-0.995789,0.129252,0.340763,-0.161527,49,282,572,6080
1644188721.258637,-0.010437,0.008057,-0.993103,0.236122,0.356031,-0.14626,42,277,577,6304
1644188721.307045,-0.007874,0.007202,-0.991455,0.251389,0.340763,-0.14626,58,281,587,6256
1644188721.355456,-0.008057,0.011963,-0.98999,0.281924,0.523969,-0.115725,41,271,592,6240
1644188721.403837,-0.005005,0.008972,-0.991455,0.220855,0.493435,-0.130992,52,275,589,6224
1644188721.452253,-0.007629,0.009705,-0.990845,0.251389,0.432366,0.12855,57,270,591,6224
1644188721.500586,-0.007935,0.011108,-0.991394,0.312458,0.462901,-0.130992,57,270,589,6128
1644188721.54919,-0.006775,0.009827,-0.990845,0.373527,0.340763,-0.024122,46,281,578,6240
1644188721.598425,-0.012146,0.010254,-0.991211,0.175053,0.386565,-0.054656,39,264,587,6192
1644188721.648453,-0.008484,0.008667,-0.990906,0.144519,0.432366,-0.069924,54,275,577,6192
1644188721.698469,-0.004395,0.008606,-0.990967,0.144519,0.432366,-0.115725,53,269,585,6224
1644188721.743592,-0.007996,0.009155,-0.994019,0.236122,0.371298,-0.115725,48,276,585,6256
1644188721.83937,-0.009216,0.009827,-0.992249,0.266656,0.432366,0.036947,51,279,576,6160
1644188721.887801,-0.009888,0.010986,-0.992554,0.159786,0.340763,-0.085191,48,276,580,6240
1644188721.936182,-0.008362,0.008667,-0.991699,0.159786,0.371298,0.006412,60,269,587,6192
1644188721.984638,-0.009521,0.011841,-0.990234,0.190321,0.340763,-0.024122,58,286,587,6256
1644188722.032995,-0.008545,0.008667,-0.992004,0.220855,0.417099,-0.085191,54,273,589,6192
1644188722.081438,-0.011963,0.011536,-0.988647,0.327725,0.325496,-0.115725,58,274,592,6176
1644188722.129782,-0.007141,0.008301,-0.99115,0.205588,0.371298,-0.192061,46,279,587,6224
1644188722.17813,-0.011536,0.010376,-0.993469,0.251389,0.432366,-0.085191,57,275,584,6288
1644188722.22651,-0.005005,0.012451,-0.990479,0.052916,0.294962,-0.130992,46,279,594,6224
1644188722.274917,-0.008362,0.010193,-0.990479,0.35826,0.325496,-0.268397,48,279,583,6256
1644188722.323315,-0.006958,0.008301,-0.991089,0.144519,0.447634,-0.054656,54,273,589,6224
1644188722.371693,-0.010193,0.010498,-0.992065,0.266656,0.585038,-0.085191,54,280,582,6224
1644188722.420089,-0.009155,0.010254,-0.990601,0.266656,0.386565,-0.024122,53,274,583,6240
1644188722.468461,-0.009216,0.009583,-0.99292,0.205588,0.386565,-0.115725,53,283,590,6192
1644188722.516877,-0.006409,0.01062,-0.990112,0.144519,0.447634,-0.069924,55,274,592,6224
1644188722.565266,-0.010437,0.012329,-0.991089,0.129252,0.294962,0.036947,65,276,585,6192
1644188722.613651,-0.007996,0.009888,-0.990845,0.342992,0.401832,-0.115725,52,277,584,6240
1644188722.662046,-0.006104,0.009644,-0.991943,0.220855,0.523969,-0.039389,52,265,584,6240
1644188722.71044,-0.010254,0.01001,-0.992188,0.144519,0.340763,-0.115725,54,268,577,6240
1644188722.760673,-0.009216,0.009094,-0.989868,0.022382,0.447634,-0.054656,51,283,587,6240
1644188722.809448,-0.007324,0.011047,-0.99115,0.144519,0.356031,-0.008855,51,266,583,6192
1644188722.860232,-0.006287,0.009766,-0.992004,0.236122,0.401832,-0.222595,55,274,587,6304
1644188722.905159,-0.011719,0.010803,-0.989746,0.281924,0.371298,-0.115725,45,270,589,6224
1644188723.000838,-0.008423,0.011719,-0.991821,0.159786,0.386565,-0.008855,48,269,583,6256
1644188723.0676,-0.008118,0.012268,-0.990967,0.251389,0.432366,-0.161527,53,279,583,6240
1644188723.099857,-0.006653,0.008728,-0.990356,0.098718,0.356031,-0.085191,47,268,596,6224
1644188723.146017,-0.009521,0.011169,-0.990662,0.251389,0.340763,-0.100458,48,283,578,6240
1644188723.194386,-0.006836,0.007996,-0.992615,0.281924,0.401832,-0.298931,51,276,583,6224
1644188723.242777,-0.009155,0.008789,-0.991577,0.281924,0.340763,-0.008855,43,271,592,6176
1644188723.291168,-0.006042,0.00946,-0.993469,0.281924,0.417099,-0.115725,47,273,586,6256
1644188723.339557,-0.007751,0.010559,-0.99115,0.068183,0.371298,-0.024122,57,273,591,6192
1644188723.387949,-0.007812,0.010498,-0.990601,0.098718,0.417099,-0.024122,49,273,584,6224
1644188723.436338,-0.006287,0.009216,-0.991699,0.312458,0.432366,0.021679,49,273,584,6224
1644188723.485096,-0.009949,0.008057,-0.991577,0.266656,0.447634,-0.069924,53,274,583,6192
1644188723.533686,-0.009583,0.012695,-0.992554,0.205588,0.356031,0.067481,49,273,598,6224
1644188723.584196,-0.008179,0.009094,-0.992615,0.312458,0.356031,-0.100458,54,273,593,6304
1644188723.634296,-0.00885,0.013794,-0.991211,0.052916,0.356031,-0.115725,55,271,580,6160
1644188723.679432,-0.007874,0.009094,-0.991455,0.266656,0.523969,0.052214,60,279,578,6192
1644188723.77533,-0.011536,0.013672,-0.994751,0.297191,0.310229,-0.207328,54,285,577,6256
1644188723.823487,-0.007385,0.010498,-0.992065,0.190321,0.462901,-0.054656,43,283,580,6192
1644188723.871882,-0.008179,0.010498,-0.989624,0.312458,0.447634,-0.024122,54,268,586,6240
1644188723.920307,-0.006958,0.009277,-0.993347,0.297191,0.371298,-0.069924,57,280,589,6176
1644188723.968706,-0.00824,0.010681,-0.992065,0.342992,0.478168,-0.100458,54,280,586,6176
1644188724.017077,-0.008911,0.011658,-0.990723,0.404061,0.539237,-0.192061,47,273,586,6256
1644188724.070151,-0.006836,0.008667,-0.992615,0.220855,0.386565,-0.024122,61,273,589,6240
1644188724.113866,-0.010742,0.010986,-0.989075,0.281924,0.340763,-0.069924,54,280,577,6240
1644188724.162315,-0.011658,0.009827,-0.994751,0.129252,0.508702,-0.100458,43,269,576,6240
1644188724.210665,-0.008545,0.008301,-0.991455,0.220855,0.294962,-0.130992,47,275,577,6192
1644188724.259039,-0.007568,0.009705,-0.992065,-0.02342,0.493435,-0.100458,52,277,579,6256
1644188724.307449,-0.00946,0.012329,-0.990967,0.190321,0.294962,0.021679,47,270,575,6256
1644188724.35584,-0.008057,0.008911,-0.990845,0.281924,0.401832,-0.176794,52,273,577,6256
1644188724.404247,-0.006653,0.008301,-0.992065,0.159786,0.432366,0.098015,60,276,585,6176
1644188724.452648,-0.009399,0.013062,-0.993164,0.190321,0.386565,-0.085191,55,279,578,6256
1644188724.500981,-0.009949,0.009338,-0.991699,0.08345,0.386565,-0.130992,48,283,576,6288
1644188724.549414,-0.009338,0.009399,-0.993225,0.190321,0.340763,-0.024122,49,277,579,6192
1644188724.598168,-0.00824,0.012634,-0.99054,0.144519,0.432366,-0.115725,41,266,592,6224
1644188724.646214,-0.005432,0.009644,-0.990234,0.08345,0.279695,-0.085191,54,280,572,6224
1644188724.696422,-0.007141,0.013062,-0.992493,0.404061,0.478168,-0.085191,46,271,585,6256
1644188724.746777,-0.008667,0.013123,-0.989807,0.190321,0.371298,-0.192061,52,275,584,6240
1644188724.797841,-0.00531,0.011719,-0.99115,0.205588,0.493435,-0.054656,52,273,598,6240
1644188724.841462,-0.009521,0.011719,-0.992554,0.190321,0.493435,-0.207328,53,281,587,6192
1644188724.936568,-0.010498,0.010071,-0.990112,0.007115,0.493435,-0.054656,46,271,580,6256
1644188724.985037,-0.007324,0.011108,-0.992188,0.251389,0.523969,-0.008855,45,277,575,6224
1644188725.033347,-0.007385,0.010803,-0.990173,0.236122,0.462901,-0.100458,47,270,582,6288
1644188725.082318,-0.006836,0.011719,-0.987915,0.159786,0.310229,0.036947,52,270,589,6240
1644188725.130103,-0.007996,0.009644,-0.990295,0.312458,0.401832,-0.008855,51,279,576,6256
1644188725.178489,-0.007996,0.009949,-0.991394,0.205588,0.569771,-0.100458,52,273,577,6224
1644188725.226886,-0.007019,0.010437,-0.990723,0.175053,0.432366,0.036947,54,277,586,6192
1644188725.275278,-0.008057,0.01178,-0.990906,0.312458,0.401832,-0.039389,45,277,586,6240
1644188725.323673,-0.007446,0.01062,-0.992737,0.190321,0.462901,-0.207328,46,274,590,6240
1644188725.372057,-0.006897,0.011597,-0.990967,0.205588,0.218626,-0.085191,49,270,584,6256
1644188725.420456,-0.007263,0.010315,-0.990356,0.281924,0.356031,0.021679,59,285,584,6160
1644188725.468842,-0.006165,0.012512,-0.991638,0.113985,0.294962,-0.130992,57,268,579,6224
1644188725.517211,-0.009827,0.012207,-0.993591,0.190321,0.585038,-0.054656,53,286,587,6240
1644188725.565606,-0.006714,0.012146,-0.990479,0.205588,0.478168,-0.100458,46,279,566,6224
1644188725.614022,-0.009705,0.010864,-0.991211,0.022382,0.417099,0.006412,51,281,585,6336
1644188725.662433,-0.011597,0.009216,-0.994324,0.08345,0.539237,-0.176794,58,276,585,6192
1644188725.710817,-0.009338,0.010437,-0.992188,0.251389,0.478168,-0.069924,48,274,583,6240
1644188725.759204,-0.007202,0.009766,-0.990723,0.175053,0.371298,0.006412,55,276,580,6256
1644188725.807639,-0.00885,0.008728,-0.991577,0.35826,0.340763,-0.008855,51,281,585,6256
1644188725.85779,-0.009094,0.007507,-0.990967,0.205588,0.462901,-0.100458,51,274,585,6224
1644188725.908075,-0.007568,0.008911,-0.990723,0.159786,0.264427,0.067481,49,273,586,6224
1644188725.959032,-0.008667,0.010437,-0.993774,0.220855,0.523969,-0.237863,41,281,583,6192
1644188726.067859,-0.005737,0.009155,-0.989746,0.266656,0.447634,0.098015,46,276,585,6224
1644188726.099723,-0.008179,0.010681,-0.990723,0.312458,0.340763,-0.192061,53,271,592,6224
1644188726.146345,-0.006409,0.007263,-0.990967,0.129252,0.371298,-0.008855,57,280,584,6256
1644188726.194748,-0.005859,0.011658,-0.990112,0.312458,0.356031,0.052214,47,282,589,6224
1644188726.243142,-0.007568,0.010681,-0.992249,0.342992,0.371298,-0.222595,58,281,597,6256
1644188726.291504,-0.009705,0.010315,-0.991333,0.205588,0.523969,-0.130992,46,279,585,6176
1644188726.339913,-0.007446,0.010681,-0.990784,0.190321,0.294962,-0.054656,47,268,589,6256
1644188726.388291,-0.009094,0.011841,-0.990356,0.129252,0.447634,-0.14626,45,270,575,6224
1644188726.436704,-0.008179,0.00885,-0.99115,0.251389,0.401832,-0.069924,47,275,582,6224
1644188726.48528,-0.006348,0.009338,-0.991455,0.159786,0.432366,-0.100458,42,275,584,6224
1644188726.53399,-0.008911,0.008911,-0.991333,0.113985,0.401832,-0.024122,55,271,587,6224
1644188726.584563,-0.008423,0.011292,-0.993286,0.175053,0.340763,-0.268397,52,273,575,6288
1644188726.634711,-0.011353,0.01001,-0.991516,0.159786,0.401832,-0.207328,46,276,592,6224
1644188726.679941,-0.010071,0.013428,-0.990662,0.297191,0.417099,-0.069924,43,283,585,6224
1644188726.775438,-0.009705,0.009888,-0.990906,0.281924,0.294962,-0.008855,58,274,585,6288
1644188726.823871,-0.005737,0.012268,-0.990906,0.129252,0.325496,-0.085191,51,279,571,6224
1644188726.872418,-0.005493,0.010193,-0.989746,0.205588,0.554504,-0.085191,51,276,583,6176
1644188726.920631,-0.007996,0.01001,-0.989441,0.266656,0.294962,-0.192061,58,276,583,6192
1644188726.969057,-0.008301,0.010559,-0.989807,0.129252,0.447634,-0.100458,47,273,584,6224
1644188727.017419,-0.008057,0.010681,-0.990479,0.159786,0.386565,-0.207328,51,281,590,6192
1644188727.070024,-0.009277,0.009766,-0.99054,0.144519,0.386565,-0.192061,59,280,586,6256
1644188727.114215,-0.008301,0.009583,-0.990967,0.281924,0.508702,-0.100458,48,269,594,6256
1644188727.162615,-0.006653,0.009766,-0.990662,0.220855,0.462901,-0.008855,48,276,580,6224
1644188727.210999,-0.007874,0.010315,-0.992432,0.220855,0.356031,-0.222595,48,281,580,6240
1644188727.259383,-0.00885,0.008545,-0.989441,0.281924,0.218626,-0.100458,59,270,579,6240
1644188727.307752,-0.007263,0.00885,-0.993225,0.281924,0.340763,-0.085191,51,283,585,6192
1644188727.356175,-0.006653,0.010803,-0.990784,0.129252,0.462901,-0.085191,52,277,586,6256
1644188727.404722,-0.00769,0.010864,-0.992493,0.266656,0.279695,0.006412,45,263,589,6224
1644188727.452961,-0.009827,0.008484,-0.992371,0.327725,0.310229,-0.161527,43,279,592,6224
1644188727.501345,-0.00708,0.009949,-0.990784,0.297191,0.356031,-0.115725,42,275,579,6240
1644188727.549725,-0.00885,0.011719,-0.988708,0.205588,0.24916,-0.085191,53,276,590,6240
1644188727.598135,-0.007324,0.01123,-0.991394,0.236122,0.447634,-0.283664,57,270,584,6256
1644188727.646533,-0.008911,0.006775,-0.991882,0.251389,0.417099,0.082748,55,269,585,6176
1644188727.695476,-0.010681,0.009827,-0.991577,0.419328,0.371298,-0.176794,48,274,592,6224
1644188727.746172,-0.010315,0.00885,-0.991821,0.220855,0.386565,0.006412,49,273,582,6256
1644188727.796285,-0.009766,0.00885,-0.99408,0.175053,0.386565,-0.024122,42,275,591,6224
1644188727.841613,-0.007507,0.009583,-0.993652,0.08345,0.462901,-0.115725,52,280,577,6224
1644188727.936887,-0.009949,0.009644,-0.989746,0.342992,0.508702,-0.192061,43,279,576,6224
1644188727.98544,-0.008911,0.011963,-0.993652,0.312458,0.508702,-0.100458,53,276,576,6240
1644188728.033729,-0.008301,0.008423,-0.993347,0.098718,0.279695,-0.161527,45,275,579,6240
1644188728.082265,-0.007019,0.010559,-0.990112,0.205588,0.539237,-0.069924,53,271,587,6240
1644188728.130502,-0.007568,0.009766,-0.992432,0.281924,0.417099,-0.024122,49,268,579,6240
1644188728.178849,-0.008545,0.007996,-0.99231,0.205588,0.478168,-0.024122,43,276,585,6160
1644188728.227247,-0.007324,0.008545,-0.989929,0.175053,0.310229,-0.054656,46,281,585,6256
1644188728.275624,-0.007446,0.011475,-0.993408,0.175053,0.340763,-0.176794,55,276,585,6240
1644188728.324037,-0.01062,0.008667,-0.990417,0.190321,0.447634,-0.115725,43,279,585,6224
1644188728.372446,-0.008606,0.011169,-0.990723,0.297191,0.417099,-0.14626,43,276,578,6256
1644188728.420812,-0.007751,0.011169,-0.990601,0.159786,0.371298,-0.054656,47,273,584,6224
1644188728.469209,-0.006592,0.011536,-0.990112,0.113985,0.508702,-0.054656,47,285,586,6176
1644188728.517576,-0.007019,0.010681,-0.989319,0.388794,0.462901,-0.115725,59,277,591,6224
1644188728.565994,-0.005554,0.008606,-0.990662,0.251389,0.462901,0.082748,52,282,579,6256
1644188728.614395,-0.007629,0.009155,-0.992615,0.220855,0.294962,-0.115725,46,281,592,6240
1644188728.662803,-0.005676,0.01062,-0.991821,0.236122,0.386565,-0.069924,53,281,583,6224
1644188728.711168,-0.00946,0.010376,-0.991943,0.190321,0.371298,-0.054656,47,273,579,6224
1644188728.759567,-0.008789,0.007629,-0.987793,0.342992,0.325496,-0.161527,46,279,592,6192
1644188728.808779,-0.009521,0.008789,-0.991638,0.266656,0.493435,-0.161527,45,268,577,6240
1644188728.859274,-0.01123,0.007996,-0.992371,0.129252,0.386565,0.006412,49,273,586,6256
1644188728.910359,-0.008728,0.009033,-0.991211,0.312458,0.462901,-0.085191,46,281,580,6256
1644188729.0016,-0.010681,0.010864,-0.991333,0.251389,0.493435,-0.130992,51,274,576,6256
1644188729.062496,-0.008118,0.007263,-0.991028,0.175053,0.447634,-0.207328,35,273,577,6256
1644188729.101911,-0.009338,0.010132,-0.993652,0.129252,0.356031,-0.085191,52,280,591,6240
1644188729.146746,-0.008667,0.010193,-0.991577,0.236122,0.401832,-0.024122,54,277,586,6304
1644188729.19528,-0.010254,0.010315,-0.99231,0.190321,0.462901,-0.100458,53,276,578,6240
1644188729.243506,-0.007751,0.011414,-0.989502,0.327725,0.447634,-0.085191,51,274,583,6224
1644188729.291886,-0.007996,0.010498,-0.990417,0.35826,0.417099,-0.14626,59,282,577,6224
1644188729.340293,-0.008728,0.00946,-0.994019,0.220855,0.340763,-0.039389,47,280,579,6128
1644188729.388679,-0.006287,0.009766,-0.992432,0.205588,0.478168,-0.161527,52,275,584,6256
1644188729.437065,-0.007935,0.011536,-0.990662,0.266656,0.310229,-0.100458,43,276,580,6256
1644188729.485458,-0.009277,0.010986,-0.98999,0.052916,0.340763,-0.054656,46,283,583,6256
1644188729.533859,-0.007629,0.011719,-0.990112,0.220855,0.386565,0.006412,51,281,576,6240
1644188729.582267,-0.009155,0.013245,-0.992065,0.175053,0.417099,-0.130992,51,281,571,6240
1644188729.630657,-0.006042,0.009949,-0.990906,0.175053,0.279695,-0.115725,53,276,583,6256
1644188729.680235,-0.007935,0.012146,-0.991089,0.190321,0.432366,-0.024122,54,280,577,6224
1644188729.730113,-0.006409,0.012146,-0.987793,0.175053,0.432366,-0.085191,45,273,582,6256
1644188729.78041,-0.009644,0.011841,-0.989075,0.129252,0.417099,-0.008855,43,281,585,6256
1644188729.825462,-0.008118,0.009888,-0.99176,0.266656,0.554504,-0.207328,43,281,578,6256
1644188729.921015,-0.007385,0.010864,-0.991333,0.266656,0.554504,-0.176794,48,283,571,6256
1644188729.969433,-0.008484,0.009521,-0.98877,0.205588,0.417099,0.067481,43,276,578,6240
1644188730.017833,-0.009766,0.007263,-0.991028,0.129252,0.417099,-0.161527,55,276,578,6128
1644188730.071099,-0.00708,0.011169,-0.990479,0.297191,0.493435,-0.176794,57,277,584,6192
1644188730.11467,-0.008484,0.010803,-0.989868,0.312458,0.325496,-0.25313,52,277,589,6224
1644188730.163024,-0.005737,0.010437,-0.991333,0.175053,0.325496,-0.100458,49,273,586,6192
1644188730.211371,-0.007996,0.011841,-0.990662,0.205588,0.386565,-0.054656,42,275,584,6240
1644188730.259759,-0.011047,0.008789,-0.990417,0.281924,0.447634,-0.069924,49,268,577,6256
1644188730.308177,-0.011047,0.008911,-0.990723,0.281924,0.218626,-0.039389,34,279,580,6240
1644188730.356527,-0.005676,0.009949,-0.990967,0.297191,0.417099,-0.161527,57,275,598,6240
1644188730.405134,-0.008606,0.008667,-0.992676,0.266656,0.432366,-0.192061,45,285,589,6256
1644188730.453331,-0.01001,0.011292,-0.989868,0.205588,0.478168,-0.283664,61,282,575,6240
1644188730.501724,-0.008972,0.006714,-0.990784,0.175053,0.356031,-0.054656,51,286,592,6256
1644188730.550112,-0.01001,0.01123,-0.992798,0.129252,0.432366,0.052214,51,281,573,6192
1644188730.598504,-0.008118,0.011108,-0.990967,0.373527,0.432366,-0.115725,59,277,589,6288
1644188730.646888,-0.008606,0.008484,-0.990295,-0.008153,0.386565,-0.115725,48,288,587,6192
1644188730.695291,-0.010132,0.01123,-0.992371,0.08345,0.417099,-0.024122,42,282,589,6288
1644188730.74368,-0.009705,0.011108,-0.988892,0.068183,0.356031,-0.069924,52,285,586,6160
1644188730.792054,-0.007324,0.00708,-0.99231,0.144519,0.371298,-0.100458,59,275,591,6224
1644188730.840814,-0.007385,0.012268,-0.988342,0.281924,0.401832,0.006412,49,268,582,6224
1644188730.892381,-0.004639,0.009705,-0.991882,0.342992,0.462901,-0.115725,51,279,594,6240
1644188730.942471,-0.005859,0.009827,-0.992493,0.144519,0.432366,0.082748,54,273,584,6224
1644188730.987433,-0.010986,0.010071,-0.99231,0.281924,0.294962,-0.14626,40,270,591,6224
1644188731.082617,-0.008789,0.007446,-0.989685,0.312458,0.478168,-0.14626,48,271,580,6224
1644188731.130826,-0.008728,0.011719,-0.991455,0.175053,0.432366,0.021679,49,290,582,6240
1644188731.179221,-0.008301,0.013306,-0.992126,0.281924,0.371298,0.021679,57,273,575,6224
1644188731.227621,-0.007751,0.009521,-0.990234,0.281924,0.462901,-0.283664,51,274,594,6256
1644188731.275997,-0.008118,0.009705,-0.992432,0.144519,0.493435,-0.130992,55,271,578,6224
1644188731.324407,-0.006409,0.00885,-0.993469,0.190321,0.401832,-0.008855,49,268,584,6288
1644188731.372803,-0.006897,0.01062,-0.990356,0.205588,0.554504,-0.024122,40,280,579,6224
1644188731.421199,-0.009033,0.011597,-0.990051,0.281924,0.371298,-0.176794,55,274,590,6224
1644188731.469578,-0.009888,0.007812,-0.990479,0.159786,0.508702,-0.176794,45,275,579,6224
1644188731.517986,-0.008484,0.011719,-0.99176,0.113985,0.371298,-0.069924,49,285,582,6256
1644188731.566378,-0.007568,0.011047,-0.990967,0.281924,0.371298,-0.039389,48,274,583,6176
1644188731.614783,-0.006836,0.009521,-0.990417,0.266656,0.432366,-0.039389,42,280,575,6224
1644188731.66316,-0.007507,0.010986,-0.993347,0.190321,0.447634,-0.039389,46,279,590,6240
1644188731.711547,-0.006287,0.011292,-0.991516,0.190321,0.417099,0.021679,52,277,579,6240
1644188731.759912,-0.00708,0.012756,-0.990479,0.190321,0.325496,0.067481,48,281,587,6176
1644188731.808366,-0.007263,0.009155,-0.991699,0.281924,0.432366,-0.039389,49,277,584,6304
1644188731.856754,-0.007629,0.010254,-0.990356,0.388794,0.294962,-0.085191,42,277,579,6192
1644188731.905469,-0.009583,0.009888,-0.992004,0.297191,0.401832,-0.161527,49,268,589,6288
1644188731.953569,-0.009033,0.009155,-0.992188,0.251389,0.371298,-0.14626,58,276,583,6256
1644188732.003837,-0.010864,0.009277,-0.99115,0.297191,0.539237,-0.161527,55,269,573,6192
1644188732.072371,-0.007141,0.010986,-0.991028,0.175053,0.386565,0.036947,43,286,587,6224
1644188732.111265,-0.006592,0.013428,-0.990051,0.175053,0.493435,-0.054656,43,279,590,6224
1644188732.19546,-0.007263,0.008728,-0.990051,0.220855,0.432366,-0.115725,60,281,580,6256
1644188732.243879,-0.005981,0.011475,-0.991455,0.236122,0.539237,-0.130992,65,264,587,6128
1644188732.292472,-0.00824,0.005798,-0.991455,0.129252,0.279695,-0.085191,48,276,583,6224
1644188732.340646,-0.009216,0.009338,-0.990295,0.220855,0.462901,-0.14626,36,276,580,6256
1644188732.389042,-0.007507,0.011169,-0.994568,0.205588,0.356031,-0.069924,52,273,584,6288
1644188732.437432,-0.009827,0.010437,-0.988403,0.205588,0.417099,-0.222595,54,265,584,6192
1644188732.485819,-0.00824,0.007935,-0.993164,0.144519,0.417099,-0.130992,51,274,569,6224
1644188732.534232,-0.008301,0.008179,-0.991821,0.113985,0.432366,-0.024122,52,277,584,6224
1644188732.582637,-0.00946,0.008301,-0.992676,0.144519,0.585038,-0.085191,45,280,582,6240
1644188732.631023,-0.009644,0.01001,-0.992432,0.266656,0.493435,-0.192061,43,288,583,6160
1644188732.679397,-0.007751,0.00592,-0.989807,0.236122,0.386565,-0.039389,47,268,586,6160
1644188732.727794,-0.011841,0.008057,-0.992004,0.266656,0.386565,-0.192061,53,283,587,6256
1644188732.776189,-0.008789,0.006653,-0.99054,0.159786,0.432366,-0.176794,53,262,585,6160
1644188732.824743,-0.010254,0.010742,-0.991638,-0.008153,0.462901,-0.100458,43,276,583,6224
1644188732.873029,-0.007935,0.010803,-0.991699,0.205588,0.310229,-0.069924,47,277,575,6192
1644188732.921371,-0.009155,0.009949,-0.991272,0.281924,0.585038,-0.069924,46,279,578,6256
1644188732.969798,-0.009338,0.009216,-0.991333,0.342992,0.356031,-0.115725,45,280,582,6192
1644188733.018194,-0.009338,0.010071,-0.993103,0.281924,0.432366,-0.115725,48,274,592,6256
1644188733.082203,-0.009155,0.008972,-0.991882,0.144519,0.417099,-0.130992,57,275,586,6192
1644188733.163325,-0.007019,0.008606,-0.990845,0.159786,0.371298,-0.25313,48,281,576,6240
1644188733.211718,-0.008667,0.009949,-0.990906,0.098718,0.478168,0.021679,51,279,592,6256
1644188733.260113,-0.009277,0.010254,-0.99353,0.236122,0.417099,0.113282,46,276,585,6160
1644188733.308497,-0.008972,0.009094,-0.989075,0.190321,0.294962,-0.024122,48,274,585,6176
1644188733.356875,-0.006836,0.009521,-0.991211,0.144519,0.401832,-0.024122,52,265,589,6240
1644188733.405298,-0.009827,0.009766,-0.993591,0.190321,0.325496,0.098015,51,279,573,6224
1644188733.453701,-0.007812,0.007935,-0.990479,0.266656,0.432366,-0.100458,45,265,589,6224
1644188733.502065,-0.009888,0.008667,-0.993652,0.190321,0.340763,-0.069924,47,275,586,6256
1644188733.550454,-0.00824,0.010315,-0.992554,0.144519,0.386565,-0.222595,47,275,575,6240
1644188733.598865,-0.010559,0.008789,-0.991455,0.144519,0.386565,-0.14626,47,270,582,6176
1644188733.647268,-0.005798,0.009766,-0.991638,0.205588,0.462901,-0.024122,47,277,591,6288
1644188733.695661,-0.008972,0.010132,-0.989319,0.297191,0.478168,-0.069924,53,281,580,6240
1644188733.74406,-0.011353,0.010559,-0.992981,0.113985,0.539237,-0.176794,54,280,600,6240
1644188733.792456,-0.009644,0.011414,-0.989807,0.08345,0.478168,-0.161527,53,281,580,6256
1644188733.840869,-0.009766,0.010132,-0.992859,0.281924,0.340763,-0.161527,46,274,585,6224
1644188733.889278,-0.007935,0.01062,-0.990723,0.251389,0.340763,-0.115725,46,276,583,6240
1644188733.93767,-0.010559,0.009399,-0.991882,0.236122,0.386565,-0.222595,39,276,585,6176
1644188733.986571,-0.006531,0.011475,-0.993591,0.175053,0.432366,-0.024122,54,273,586,6240
1644188734.034466,-0.00708,0.011658,-0.991821,0.129252,0.478168,-0.054656,49,273,584,6224
1644188734.094091,-0.008057,0.008057,-0.989746,0.144519,0.462901,-0.085191,48,276,580,6256
1644188734.134084,-0.008545,0.011841,-0.993103,0.175053,0.417099,-0.161527,41,276,587,6240
1644188734.183199,-0.012634,0.010437,-0.990967,0.159786,0.447634,-0.130992,49,273,579,6224
1644188734.228234,-0.008179,0.010986,-0.992798,0.098718,0.432366,-0.14626,45,282,577,6224
1644188734.324876,-0.008484,0.010071,-0.992188,0.251389,0.508702,-0.024122,59,265,572,6192
1644188734.373176,-0.006226,0.00946,-0.990662,0.144519,0.417099,-0.054656,38,282,572,6240
1644188734.421543,-0.010681,0.00824,-0.992798,0.205588,0.371298,-0.222595,43,271,583,6240
1644188734.469941,-0.009888,0.007629,-0.992249,0.129252,0.340763,-0.085191,49,277,579,6240
1644188734.51833,-0.009094,0.007996,-0.991943,0.236122,0.417099,-0.039389,52,275,579,6224
1644188734.566722,-0.010986,0.010376,-0.990723,0.175053,0.371298,-0.375267,48,274,576,6224
1644188734.615143,-0.007935,0.01001,-0.991028,0.251389,0.294962,-0.085191,49,277,582,6176
1644188734.663525,-0.006653,0.011719,-0.992432,0.159786,0.478168,-0.192061,45,290,582,6256
1644188734.711909,-0.008423,0.010254,-0.99176,0.175053,0.432366,-0.130992,52,275,582,6224
1644188734.760298,-0.007385,0.012207,-0.989197,0.220855,0.386565,-0.069924,47,282,582,6224
1644188734.808662,-0.007812,0.008728,-0.992432,0.190321,0.401832,-0.100458,54,270,577,6176
1644188734.857128,-0.009705,0.010986,-0.992859,0.342992,0.493435,-0.039389,58,276,583,6224
1644188734.905518,-0.009277,0.007263,-0.992615,0.220855,0.325496,-0.054656,45,277,579,6256
1644188734.953921,-0.007019,0.007629,-0.99176,0.129252,0.386565,-0.085191,49,280,591,6192
1644188735.002281,-0.005615,0.012512,-0.990601,0.205588,0.493435,-0.100458,51,276,578,6256
1644188735.069008,-0.00708,0.007751,-0.994568,0.297191,0.356031,-0.008855,49,275,586,6256
1644188735.103059,-0.005981,0.008606,-0.992554,0.144519,0.356031,-0.14626,47,275,584,6224
1644188735.147416,-0.009155,0.010498,-0.992554,0.266656,0.371298,-0.069924,46,281,583,6256
1644188735.196175,-0.008301,0.010681,-0.991638,0.08345,0.447634,-0.024122,38,285,591,6192
1644188735.245141,-0.00885,0.010254,-0.993652,0.129252,0.508702,-0.039389,53,271,592,6256
1644188735.295707,-0.007874,0.007568,-0.990234,0.251389,0.417099,-0.069924,60,281,583,6192
1644188735.345769,-0.012329,0.007751,-0.994324,0.251389,0.294962,-0.054656,55,281,583,6288
1644188735.437814,-0.007751,0.013489,-0.993896,0.297191,0.508702,-0.130992,61,270,584,6240
1644188735.486174,-0.005859,0.009766,-0.991089,0.175053,0.401832,0.082748,48,276,578,6256
1644188735.534834,-0.010803,0.010864,-0.994568,0.342992,0.493435,-0.069924,47,280,586,6192
1644188735.582994,-0.009399,0.007751,-0.991211,0.175053,0.462901,-0.069924,48,269,580,6240
1644188735.631369,-0.009277,0.011292,-0.994873,0.220855,0.264427,-0.069924,61,273,577,6224
1644188735.679762,-0.00824,0.008789,-0.990906,0.159786,0.340763,0.006412,48,279,573,6160
1644188735.728136,-0.01001,0.011536,-0.989929,0.190321,0.462901,-0.100458,47,270,575,6192
1644188735.776542,-0.008972,0.007996,-0.993774,0.220855,0.340763,-0.024122,53,266,580,6224
1644188735.824993,-0.007568,0.012573,-0.990723,0.205588,0.478168,-0.237863,49,277,579,6240
1644188735.87336,-0.006958,0.01001,-0.992004,0.281924,0.401832,-0.192061,49,270,584,6240
1644188735.921776,-0.008118,0.008606,-0.991577,0.251389,0.325496,-0.25313,61,285,582,6224
1644188735.970176,-0.006897,0.008179,-0.990051,0.129252,0.371298,-0.207328,47,273,582,6288
1644188736.018568,-0.005737,0.010254,-0.99231,0.373527,0.478168,-0.024122,41,283,585,6256
1644188736.080251,-0.007812,0.011719,-0.992493,-0.008153,0.401832,-0.069924,53,274,587,6192
1644188736.115363,-0.008972,0.007202,-0.994019,0.220855,0.340763,-0.36,47,280,584,6240
1644188736.163703,-0.00946,0.011841,-0.991699,0.129252,0.478168,0.036947,38,280,586,6224
1644188736.212083,-0.009949,0.010559,-0.990051,0.297191,0.340763,-0.25313,47,277,584,6336
1644188736.260477,-0.009521,0.008606,-0.990662,0.236122,0.523969,-0.237863,55,279,580,6176
1644188736.309096,-0.009277,0.008301,-0.992065,0.190321,0.447634,-0.14626,40,277,582,6224
1644188736.35948,-0.007019,0.009155,-0.993286,0.388794,0.417099,-0.130992,48,276,578,6304
1644188736.409839,-0.009338,0.007935,-0.992432,0.175053,0.523969,-0.130992,43,271,590,6256
1644188736.454834,-0.008728,0.008423,-0.99176,0.144519,0.356031,0.006412,49,275,582,6288
1644188736.550848,-0.007629,0.01178,-0.992859,0.068183,0.386565,-0.14626,47,285,577,6240
1644188736.599229,-0.00708,0.010071,-0.98999,0.297191,0.294962,-0.100458,55,276,583,6224
1644188736.64762,-0.005127,0.00824,-0.993164,0.342992,0.371298,-0.069924,49,280,582,6288
1644188736.696031,-0.007446,0.009583,-0.991577,0.144519,0.294962,0.113282,39,274,580,6176
1644188736.744394,-0.008789,0.009644,-0.992126,0.144519,0.417099,-0.069924,53,264,580,6224
1644188736.792816,-0.007996,0.008057,-0.99231,-0.038687,0.24916,-0.085191,58,281,573,6176
1644188736.841193,-0.008789,0.006653,-0.992249,0.205588,0.493435,-0.130992,54,285,582,6192
1644188736.88964,-0.009644,0.01001,-0.990112,0.159786,0.401832,-0.100458,47,282,584,6176
1644188736.938033,-0.007996,0.008179,-0.991882,0.327725,0.386565,-0.268397,49,273,582,6224
1644188736.986423,-0.008667,0.007874,-0.990784,0.159786,0.478168,-0.085191,53,266,590,6192
1644188737.034839,-0.009277,0.006042,-0.991089,0.266656,0.432366,-0.130992,46,276,580,6256
1644188737.094131,-0.010254,0.010986,-0.990906,0.297191,0.294962,-0.115725,54,290,593,6224
1644188737.131563,-0.007812,0.010071,-0.99231,0.236122,0.386565,-0.069924,52,268,591,6224
1644188737.179951,-0.008728,0.01001,-0.993347,0.251389,0.478168,-0.024122,55,276,597,6192
1644188737.228337,-0.007019,0.011108,-0.993042,0.327725,0.340763,-0.039389,57,268,577,6192
1644188737.276741,-0.008911,0.009033,-0.992004,0.098718,0.417099,-0.222595,48,279,594,6224
1644188737.325167,-0.008362,0.011414,-0.989624,0.251389,0.447634,-0.14626,48,274,585,6192
1644188737.373804,-0.008789,0.011292,-0.992371,0.190321,0.371298,-0.054656,51,271,580,6192
1644188737.423178,-0.010986,0.009888,-0.991028,0.159786,0.447634,-0.237863,54,275,582,6160
1644188737.47348,-0.012939,0.008972,-0.994446,0.190321,0.24916,-0.176794,52,280,584,6256
1644188737.523711,-0.009399,0.009094,-0.991882,0.175053,0.310229,-0.176794,49,275,577,6176
1644188737.615502,-0.009521,0.00946,-0.992798,0.068183,0.585038,-0.176794,41,269,566,6224
1644188737.663891,-0.007019,0.011414,-0.990417,0.205588,0.386565,-0.100458,40,265,570,6224
1644188737.712401,-0.008423,0.008179,-0.991821,0.220855,0.493435,-0.161527,48,279,573,6352
1644188737.760645,-0.008484,0.012207,-0.990845,0.205588,0.340763,-0.115725,51,274,578,6224
1644188737.809056,-0.007568,0.011536,-0.992004,0.35826,0.310229,-0.085191,59,280,577,6160
1644188737.857453,-0.008484,0.008911,-0.99292,0.281924,0.294962,-0.222595,53,271,566,6176
1644188737.905883,-0.006592,0.012024,-0.990723,0.068183,0.310229,-0.069924,42,265,584,6224
1644188737.954288,-0.008179,0.012085,-0.992371,0.144519,0.279695,-0.115725,45,285,579,6256
1644188738.002666,-0.005981,0.009399,-0.990723,0.419328,0.356031,-0.115725,49,273,579,6240
1644188738.065966,-0.010803,0.009521,-0.991028,0.236122,0.447634,0.067481,54,277,589,6224
1644188738.102341,-0.007507,0.010376,-0.989014,0.190321,0.356031,-0.054656,46,271,585,6240
1644188738.147844,-0.009277,0.007996,-0.993347,0.113985,0.386565,-0.176794,47,277,584,6256
1644188738.196231,-0.007935,0.011047,-0.990112,0.236122,0.417099,-0.024122,51,274,592,6176
1644188738.244652,-0.007812,0.010071,-0.990417,0.236122,0.386565,0.006412,43,269,573,6224
1644188738.293055,-0.007202,0.009521,-0.992371,0.159786,0.401832,-0.039389,51,276,580,6224
1644188738.341424,-0.007751,0.008606,-0.992859,0.113985,0.233893,-0.115725,41,276,585,6224
1644188738.389817,-0.006897,0.009521,-0.991211,0.159786,0.386565,-0.085191,43,271,590,6240
1644188738.438502,-0.008728,0.007751,-0.994446,0.266656,0.386565,-0.024122,43,269,587,6224
1644188738.486619,-0.007629,0.009766,-0.990479,0.251389,0.401832,-0.054656,51,281,583,6176
1644188738.536445,-0.006348,0.010315,-0.99231,0.175053,0.279695,-0.115725,52,275,584,6304
1644188738.587046,-0.006226,0.011719,-0.99176,0.251389,0.432366,-0.024122,49,277,582,6192
1644188738.6371,-0.009216,0.009705,-0.993591,0.159786,0.340763,-0.039389,46,281,576,6288
1644188738.681488,-0.008728,0.008057,-0.990845,0.312458,0.386565,-0.039389,49,280,589,6256
1644188738.776948,-0.009216,0.010681,-0.990356,0.144519,0.24916,-0.14626,54,282,579,6256
1644188738.825444,-0.00885,0.008667,-0.991028,0.220855,0.294962,-0.130992,43,274,583,6240
1644188738.873752,-0.005371,0.010132,-0.991638,0.205588,0.386565,-0.192061,62,283,580,6192
1644188738.92219,-0.008423,0.010681,-0.991333,0.068183,0.493435,0.12855,64,268,582,6176
1644188738.970544,-0.006287,0.010925,-0.990967,0.312458,0.371298,-0.14626,45,273,579,6192
1644188739.018929,-0.007935,0.009766,-0.992615,0.251389,0.417099,-0.161527,57,282,586,6256
1644188739.070922,-0.004822,0.008789,-0.993286,0.236122,0.386565,-0.008855,54,285,579,6176
1644188739.115667,-0.010986,0.009033,-0.993347,0.190321,0.417099,-0.024122,43,276,585,6224
1644188739.164064,-0.008728,0.009888,-0.993164,0.190321,0.340763,0.006412,38,287,584,6288
1644188739.212477,-0.006531,0.011902,-0.989807,0.266656,0.386565,-0.14626,47,263,579,6224
1644188739.260826,-0.007446,0.009644,-0.991699,0.35826,0.417099,-0.069924,51,274,583,6224
1644188739.309235,-0.006042,0.009216,-0.989624,0.113985,0.417099,-0.14626,47,280,591,6224
1644188739.357644,-0.00708,0.008728,-0.991272,0.068183,0.294962,0.036947,40,282,584,6256
1644188739.40603,-0.005798,0.009277,-0.992249,0.220855,0.356031,-0.298931,55,271,590,6224
1644188739.454427,-0.008972,0.011169,-0.991577,0.327725,0.462901,-0.161527,51,283,592,6240
1644188739.502799,-0.008423,0.010437,-0.99176,0.373527,0.371298,-0.176794,57,277,577,6240
1644188739.551207,-0.008911,0.011108,-0.99115,0.129252,0.432366,-0.039389,42,287,584,6240
1644188739.599601,-0.007019,0.00769,-0.990662,0.08345,0.508702,-0.161527,43,276,590,6224
1644188739.647993,-0.010498,0.010376,-0.991394,0.312458,0.462901,-0.192061,49,273,579,6240
1644188739.697141,-0.009888,0.010803,-0.989075,-0.053954,0.493435,-0.100458,43,279,583,6256
1644188739.747459,-0.009216,0.012878,-0.990234,0.159786,0.462901,-0.100458,45,280,572,6224
1644188739.798304,-0.009644,0.010681,-0.99353,0.052916,0.432366,-0.039389,53,271,583,6192
1644188739.842928,-0.00708,0.009644,-0.992249,0.220855,0.447634,-0.024122,45,275,582,6160
1644188739.938384,-0.008362,0.009399,-0.990662,0.129252,0.279695,-0.100458,41,274,580,6224
1644188739.986793,-0.008118,0.007751,-0.991333,0.46513,0.417099,-0.237863,46,283,576,6240
1644188740.035245,-0.008118,0.011292,-0.991882,0.205588,0.462901,-0.207328,43,283,587,6224
1644188740.083662,-0.010742,0.007996,-0.992981,0.175053,0.417099,-0.161527,51,286,585,6192
1644188740.131927,-0.009216,0.009277,-0.991089,0.190321,0.294962,-0.207328,48,279,576,6224
1644188740.180323,-0.006714,0.008057,-0.991333,0.35826,0.294962,-0.100458,48,279,592,6160
1644188740.228704,-0.003479,0.010803,-0.990051,0.205588,0.279695,-0.069924,45,270,572,6176
1644188740.277086,-0.008301,0.007812,-0.990173,0.342992,0.447634,-0.085191,47,270,577,6224
1644188740.325492,-0.008484,0.010498,-0.988892,0.266656,0.340763,-0.161527,58,281,585,6176
1644188740.373905,-0.008911,0.010986,-0.992249,0.251389,0.325496,-0.100458,47,273,591,6224
1644188740.422296,-0.009705,0.009094,-0.990051,0.190321,0.279695,0.036947,66,270,577,6224
1644188740.470676,-0.008606,0.011047,-0.991882,0.190321,0.462901,-0.115725,57,280,570,6240
1644188740.519073,-0.007263,0.008423,-0.992371,0.236122,0.417099,-0.192061,49,263,593,6192
1644188740.567552,-0.007141,0.01062,-0.993286,0.251389,0.432366,-0.024122,53,279,576,6176
1644188740.615851,-0.008911,0.010132,-0.989258,0.434595,0.432366,-0.024122,48,264,594,6240
1644188740.664222,-0.009216,0.009338,-0.992615,0.159786,0.447634,-0.100458,49,268,584,6224
1644188740.712658,-0.011353,0.011475,-0.995483,0.220855,0.539237,0.036947,54,277,600,6224
1644188740.761032,-0.011475,0.010803,-0.992981,0.266656,0.310229,-0.176794,48,279,590,6224
1644188740.809474,-0.010193,0.00824,-0.989136,0.281924,0.386565,-0.069924,47,275,584,6160
1644188740.859654,-0.007019,0.009949,-0.992737,0.236122,0.356031,-0.039389,53,281,585,6224
1644188740.910019,-0.007935,0.006104,-0.994141,0.205588,0.401832,-0.268397,46,279,587,6224
1644188740.960151,-0.010925,0.00946,-0.992188,0.205588,0.417099,-0.024122,49,275,591,6176
1644188741.066427,-0.007385,0.007507,-0.992737,0.175053,0.356031,0.006412,52,273,586,6224
1644188741.101063,-0.005249,0.01062,-0.993835,0.297191,0.646107,-0.192061,53,276,587,6224
1644188741.148169,-0.009033,0.009705,-0.992798,0.281924,0.432366,-0.100458,46,279,590,6256
1644188741.196583,-0.008057,0.010498,-0.99176,0.266656,0.478168,-0.069924,43,281,583,6224
1644188741.24508,-0.009644,0.009888,-0.992798,0.08345,0.340763,-0.069924,48,283,583,6128
1644188741.293354,-0.010437,0.007507,-0.989868,0.266656,0.432366,-0.100458,40,268,579,6192
1644188741.34173,-0.005798,0.009705,-0.991272,0.220855,0.325496,-0.008855,54,270,591,6224
1644188741.390159,-0.005066,0.010681,-0.992004,0.098718,0.462901,-0.161527,40,277,586,6176
1644188741.438546,-0.009521,0.007996,-0.992004,0.205588,0.417099,-0.100458,51,281,585,6240
1644188741.486943,-0.008362,0.011353,-0.990356,0.312458,0.340763,-0.069924,45,280,584,6240
1644188741.535297,-0.009399,0.011047,-0.992798,0.022382,0.325496,-0.054656,48,274,576,6224
1644188741.583953,-0.007568,0.011719,-0.991272,0.113985,0.371298,-0.130992,51,274,587,6128
1644188741.633294,-0.008972,0.009766,-0.989807,0.205588,0.294962,-0.085191,53,266,587,6240
1644188741.685266,-0.008179,0.008545,-0.990295,0.236122,0.478168,0.021679,53,274,585,6192
1644188741.733744,-0.006165,0.007874,-0.99115,0.144519,0.554504,0.021679,52,277,584,6256
1644188741.825708,-0.005859,0.00592,-0.990845,0.190321,0.310229,-0.115725,59,275,584,6176
1644188741.874134,-0.007507,0.007935,-0.993408,0.220855,0.310229,-0.069924,48,269,580,6240
1644188741.922516,-0.011719,0.008118,-0.993408,0.220855,0.462901,-0.161527,54,273,584,6240
1644188741.97089,-0.010925,0.007202,-0.991821,0.312458,0.539237,0.036947,51,283,583,6160
1644188742.019293,-0.008667,0.012512,-0.995178,0.159786,0.386565,0.036947,47,292,582,6256
1644188742.069787,-0.006592,0.010742,-0.99176,0.236122,0.356031,-0.192061,52,282,577,6192
1644188742.116038,-0.009827,0.009521,-0.993408,0.220855,0.401832,-0.207328,67,283,583,6224
1644188742.164416,-0.010681,0.008179,-0.992371,0.342992,0.340763,-0.161527,53,283,583,6256
1644188742.212841,-0.011047,0.01178,-0.991333,0.175053,0.417099,-0.008855,46,271,580,6224
1644188742.261226,-0.01123,0.009094,-0.991455,0.220855,0.417099,0.036947,43,264,601,6176
1644188742.309589,-0.005737,0.010925,-0.995056,0.266656,0.401832,-0.161527,49,273,577,6224
1644188742.358003,-0.012756,0.009399,-0.994934,0.419328,0.432366,-0.237863,48,271,578,6224
1644188742.406396,-0.007385,0.007629,-0.991211,0.297191,0.585038,-0.192061,48,269,585,6240
1644188742.45481,-0.010986,0.006165,-0.992554,0.312458,0.386565,-0.14626,55,274,573,6192
1644188742.503206,-0.008423,0.007629,-0.990784,0.220855,0.523969,-0.207328,49,285,591,6224
1644188742.551549,-0.008484,0.009094,-0.993225,0.297191,0.340763,-0.024122,58,276,578,6256
1644188742.599969,-0.00647,0.009277,-0.990479,0.266656,0.508702,-0.192061,48,281,585,6240
1644188742.648374,-0.011475,0.009766,-0.994141,0.190321,0.401832,-0.039389,57,273,591,6256
1644188742.696726,-0.00885,0.009277,-0.993042,0.159786,0.340763,-0.024122,48,274,576,6176
1644188742.745553,-0.008179,0.00885,-0.990845,0.281924,0.340763,-0.192061,47,275,579,6192
1644188742.795671,-0.007141,0.010193,-0.99231,0.312458,0.432366,-0.069924,52,273,586,6224
1644188742.846156,-0.005737,0.013489,-0.988831,0.068183,0.386565,-0.085191,43,269,578,6192
1644188742.891301,-0.008606,0.007141,-0.990417,0.144519,0.508702,0.052214,39,288,578,6288
1644188742.987161,-0.010193,0.007751,-0.992371,0.175053,0.478168,-0.130992,42,265,584,6192
1644188743.035518,-0.005981,0.010742,-0.992004,0.113985,0.371298,-0.161527,43,283,583,6224
1644188743.085597,-0.007385,0.00769,-0.992981,0.08345,0.294962,0.052214,55,271,590,6192
1644188743.132399,-0.008179,0.009705,-0.990662,0.205588,0.401832,-0.14626,47,273,579,6192
1644188743.180679,-0.007996,0.011047,-0.993103,0.220855,0.401832,-0.161527,39,274,594,6240
1644188743.229074,-0.010925,0.010498,-0.990784,0.236122,0.371298,-0.054656,52,268,591,6224
1644188743.277466,-0.007507,0.008728,-0.991943,0.175053,0.325496,0.052214,43,283,580,6192
1644188743.32586,-0.007629,0.012146,-0.991028,0.175053,0.325496,-0.024122,54,285,584,6240
1644188743.374239,-0.006714,0.010498,-0.990234,0.266656,0.356031,-0.14626,53,286,580,6192
1644188743.422652,-0.008362,0.00769,-0.992798,0.236122,0.325496,-0.115725,54,265,579,6224
1644188743.471043,-0.008179,0.010437,-0.990051,0.236122,0.310229,-0.069924,41,269,587,6224
1644188743.519423,-0.007874,0.012207,-0.991882,0.236122,0.447634,-0.237863,42,273,575,6256
1644188743.567821,-0.006958,0.008484,-0.991455,0.022382,0.493435,-0.130992,53,281,592,6224
1644188743.616229,-0.007263,0.010498,-0.993286,0.175053,0.401832,-0.024122,52,273,579,6256
1644188743.66466,-0.006836,0.007446,-0.992737,0.251389,0.493435,-0.176794,59,268,591,6256
1644188743.713029,-0.009521,0.008057,-0.990967,0.205588,0.279695,-0.130992,52,280,586,6192
1644188743.761402,-0.007629,0.010864,-0.992004,0.236122,0.462901,-0.039389,46,274,573,6224
1644188743.809796,-0.009094,0.006897,-0.991577,0.052916,0.325496,-0.069924,58,276,580,6224
1644188743.858577,-0.00708,0.008545,-0.990906,0.312458,0.508702,-0.069924,46,264,587,6176
1644188743.908847,-0.01178,0.008179,-0.995239,0.205588,0.615573,0.036947,45,277,582,6176
1644188743.958715,-0.006592,0.009949,-0.993225,0.220855,0.24916,-0.14626,49,285,577,6192
1644188744.067357,-0.009888,0.009888,-0.992249,0.113985,0.569771,-0.176794,51,271,580,6192
1644188744.103175,-0.00824,0.011169,-0.991577,0.297191,0.371298,0.006412,42,280,575,6224
1644188744.148592,-0.012085,0.009644,-0.991821,0.08345,0.554504,-0.054656,52,277,582,6256
1644188744.196944,-0.00824,0.009094,-0.99353,0.190321,0.462901,-0.161527,53,274,578,6224
1644188744.245303,-0.009705,0.010986,-0.990356,0.220855,0.432366,-0.054656,48,264,578,6224
1644188744.293714,-0.010742,0.00885,-0.99353,0.175053,0.371298,-0.069924,52,275,584,6176
1644188744.342217,-0.011902,0.009644,-0.989929,0.251389,0.356031,-0.222595,47,280,589,6240
1644188744.390506,-0.012268,0.00885,-0.992126,0.266656,0.569771,-0.054656,59,275,589,6304
1644188744.438901,-0.006775,0.005798,-0.991211,-0.02342,0.447634,-0.176794,51,283,587,6176
1644188744.487271,-0.007568,0.008423,-0.991577,0.236122,0.432366,-0.130992,49,275,589,6256
1644188744.535684,-0.007629,0.008423,-0.995605,0.266656,0.600305,-0.054656,54,280,593,6192
1644188744.584299,-0.007751,0.01239,-0.990234,0.312458,0.401832,0.036947,48,269,583,6176
1644188744.634789,-0.008606,0.007751,-0.992004,0.113985,0.279695,-0.069924,48,269,576,6240
1644188744.685158,-0.010559,0.012634,-0.994019,0.098718,0.478168,-0.100458,64,287,584,6192
1644188744.730125,-0.010193,0.009521,-0.990051,0.251389,0.417099,-0.100458,46,264,578,6176
1644188744.826035,-0.008911,0.007996,-0.992432,0.113985,0.279695,-0.100458,48,276,578,6256
1644188744.874471,-0.008423,0.00769,-0.98877,0.251389,0.340763,-0.100458,55,266,573,6224
1644188744.92289,-0.006653,0.009155,-0.993347,0.312458,0.417099,-0.192061,41,269,580,6224
1644188744.971253,-0.006775,0.011292,-0.99353,0.205588,0.493435,-0.085191,47,268,586,6240
1644188745.019662,-0.009521,0.011963,-0.991394,0.220855,0.508702,-0.115725,46,271,578,6288
1644188745.070826,-0.008911,0.009705,-0.99353,0.08345,0.447634,-0.024122,51,279,585,6240
1644188745.11641,-0.009949,0.009155,-0.991882,0.281924,0.356031,-0.130992,45,275,591,6288
1644188745.164814,-0.008972,0.009583,-0.992126,0.190321,0.447634,-0.024122,47,290,575,6224
1644188745.213212,-0.008362,0.011047,-0.995239,0.342992,0.294962,-0.085191,47,282,582,6256
1644188745.261563,-0.007812,0.009949,-0.992188,0.159786,0.432366,-0.069924,51,279,578,6256
1644188745.309982,-0.01001,0.009216,-0.994263,0.251389,0.493435,-0.161527,52,280,589,6224
1644188745.358376,-0.009155,0.008728,-0.995056,0.205588,0.432366,-0.161527,43,279,576,6240
1644188745.406765,-0.010071,0.009216,-0.992126,0.098718,0.523969,-0.039389,40,270,572,6288
1644188745.45518,-0.006531,0.011902,-0.989258,0.281924,0.432366,-0.130992,51,262,585,6192
1644188745.503532,-0.008667,0.011169,-0.993286,0.297191,0.432366,-0.14626,58,269,590,6160
1644188745.551936,-0.009155,0.008484,-0.991821,0.159786,0.233893,-0.054656,41,271,587,6240
1644188745.600335,-0.012817,0.011047,-0.991577,0.251389,0.356031,0.021679,42,268,586,6256
1644188745.649065,-0.008484,0.009705,-0.991943,0.297191,0.371298,-0.039389,49,285,582,6240
1644188745.698016,-0.008545,0.009399,-0.994141,0.144519,0.340763,-0.14626,45,270,586,6304
1644188745.748538,-0.009277,0.010681,-0.989746,0.419328,0.432366,0.052214,49,273,589,6256
1644188745.799566,-0.009705,0.012329,-0.989746,0.388794,0.386565,0.174351,45,277,577,6192
1644188745.890733,-0.009155,0.012634,-0.990967,0.08345,0.447634,-0.130992,53,271,587,6256
1644188745.939122,-0.007019,0.011658,-0.991333,0.190321,0.325496,-0.14626,45,275,577,6256
1644188745.987507,-0.006287,0.009644,-0.988953,0.052916,0.401832,-0.039389,40,282,575,6240
1644188746.035914,-0.007812,0.010193,-0.99115,0.190321,0.279695,-0.130992,57,277,584,6240
1644188746.084376,-0.008179,0.009338,-0.991455,0.205588,0.478168,-0.100458,47,265,589,6240
1644188746.132695,-0.007935,0.009216,-0.993103,0.159786,0.447634,0.113282,45,277,579,6288
1644188746.181058,-0.010498,0.009155,-0.994263,0.159786,0.493435,-0.039389,53,276,576,6224
1644188746.229449,-0.007324,0.009827,-0.991943,0.236122,0.401832,-0.192061,49,273,584,6224
1644188746.277822,-0.009094,0.010803,-0.991943,0.266656,0.233893,-0.161527,54,268,584,6240
1644188746.326238,-0.010315,0.009521,-0.992004,0.190321,0.417099,-0.192061,53,269,580,6192
1644188746.374713,-0.005554,0.009705,-0.99054,0.205588,0.371298,-0.069924,48,269,587,6256
1644188746.423034,-0.008545,0.008301,-0.99292,0.190321,0.462901,-0.085191,43,276,585,6240
1644188746.471403,-0.010864,0.007874,-0.989746,0.113985,0.294962,-0.039389,53,281,587,6176
1644188746.519813,-0.01001,0.008728,-0.993225,0.251389,0.478168,-0.130992,58,286,576,6224
1644188746.5682,-0.008545,0.011292,-0.992798,0.236122,0.401832,-0.25313,51,271,587,6240
1644188746.616596,-0.011169,0.010193,-0.991638,0.266656,0.447634,-0.130992,41,286,573,6192
1644188746.665028,-0.008301,0.00885,-0.992737,0.220855,0.356031,-0.176794,60,276,587,6224
1644188746.71388,-0.008179,0.010437,-0.992554,0.236122,0.493435,-0.130992,57,275,582,6224
1644188746.761782,-0.009277,0.008118,-0.993774,0.342992,0.310229,-0.14626,45,273,582,6176
1644188746.811625,-0.010193,0.010315,-0.990662,0.175053,0.356031,-0.115725,58,264,580,6160
1644188746.861889,-0.009888,0.008972,-0.989136,0.251389,0.523969,-0.039389,49,273,575,6288
1644188746.912308,-0.004272,0.009644,-0.991821,0.144519,0.493435,-0.192061,45,273,586,6192
1644188746.956666,-0.009094,0.010498,-0.991638,0.220855,0.264427,-0.085191,53,274,583,6176
1644188747.066383,-0.008728,0.010498,-0.990112,0.205588,0.508702,0.098015,53,269,597,6176
1644188747.102931,-0.006714,0.009033,-0.990906,0.205588,0.371298,-0.039389,51,279,594,6224
1644188747.148916,-0.010559,0.010254,-0.991882,0.175053,0.386565,0.021679,51,271,587,6240
1644188747.197284,-0.008484,0.007263,-0.992432,0.08345,0.386565,-0.14626,57,275,584,6176
1644188747.245673,-0.009399,0.010315,-0.99231,0.159786,0.386565,-0.085191,48,271,590,6288
1644188747.294083,-0.007874,0.009338,-0.991821,0.281924,0.340763,-0.054656,53,274,587,6224
1644188747.342502,-0.010254,0.009705,-0.990784,0.220855,0.279695,-0.054656,47,270,579,6224
1644188747.390874,-0.007751,0.007202,-0.989075,0.175053,0.508702,-0.024122,51,279,590,6224
1644188747.439266,-0.009216,0.012939,-0.992554,0.281924,0.310229,0.098015,48,279,583,6224
1644188747.487653,-0.007263,0.011414,-0.990173,0.281924,0.325496,-0.222595,48,271,587,6240
1644188747.536053,-0.006531,0.010742,-0.992065,0.159786,0.340763,-0.192061,61,275,596,6288
1644188747.584791,-0.007874,0.006714,-0.989929,0.236122,0.356031,-0.115725,54,277,579,6256
1644188747.633753,-0.006348,0.010254,-0.992981,0.129252,0.462901,-0.192061,52,275,584,6192
1644188747.684507,-0.008301,0.011414,-0.989685,0.113985,0.401832,-0.14626,52,275,589,6256
1644188747.734442,-0.006897,0.008911,-0.991577,0.281924,0.386565,-0.100458,51,274,573,6224
1644188747.826433,-0.005249,0.009888,-0.994202,0.404061,0.203359,-0.207328,43,271,585,6192
1644188747.874901,-0.010559,0.005859,-0.991333,0.175053,0.462901,-0.054656,48,281,580,6224
1644188747.923234,-0.008972,0.008789,-0.991516,0.175053,0.401832,0.006412,47,273,579,6224
1644188747.971609,-0.009766,0.010071,-0.992249,0.251389,0.401832,-0.054656,46,274,578,6288
1644188748.020019,-0.005737,0.010071,-0.99115,0.251389,0.371298,-0.130992,46,276,585,6192
1644188748.070242,-0.010742,0.012085,-0.99176,0.068183,0.356031,-0.176794,52,273,586,6176
1644188748.116801,-0.005554,0.009827,-0.989319,0.404061,0.401832,-0.14626,46,271,583,6224
1644188748.165156,-0.008423,0.01062,-0.991699,0.098718,0.462901,-0.039389,42,277,584,6256
1644188748.213564,-0.008789,0.010803,-0.992493,0.159786,0.371298,-0.100458,57,282,584,6192
1644188748.261952,-0.006592,0.008118,-0.989685,0.175053,0.340763,-0.008855,49,282,586,6256
1644188748.310323,-0.008789,0.012268,-0.991516,0.052916,0.523969,-0.192061,45,265,589,6192
1644188748.358743,-0.005493,0.008667,-0.990845,0.205588,0.24916,-0.14626,48,279,587,6224
1644188748.407112,-0.010559,0.012817,-0.990723,0.205588,0.508702,-0.344733,49,275,584,6192
1644188748.455491,-0.006775,0.008423,-0.992249,0.266656,0.462901,-0.085191,53,274,585,6224
1644188748.503902,-0.007935,0.009033,-0.992798,0.251389,0.325496,-0.161527,58,281,585,6224
1644188748.552321,-0.009399,0.009521,-0.993469,0.327725,0.356031,-0.130992,46,269,592,6240
1644188748.600706,-0.008789,0.011292,-0.99292,0.220855,0.340763,0.021679,52,277,579,6304
1644188748.649097,-0.009033,0.009094,-0.993103,0.190321,0.310229,-0.176794,49,282,586,6160
1644188748.697488,-0.006592,0.011414,-0.991333,0.129252,0.539237,-0.176794,46,271,590,6288
1644188748.74628,-0.008362,0.01062,-0.993286,0.251389,0.417099,-0.024122,65,274,583,6256
1644188748.79652,-0.006165,0.00885,-0.993774,0.129252,0.294962,0.082748,48,274,585,6128
1644188748.847076,-0.008911,0.008057,-0.99054,0.098718,0.432366,0.021679,46,274,597,6224
1644188748.892174,-0.007019,0.009766,-0.991638,0.022382,0.462901,-0.14626,52,277,579,6288
1644188748.987871,-0.009949,0.011169,-0.992432,0.205588,0.24916,-0.25313,49,273,582,6256
1644188749.036278,-0.008667,0.012451,-0.989929,0.068183,0.554504,-0.237863,43,266,571,6240
1644188749.084817,-0.00824,0.009766,-0.989075,0.159786,0.172824,-0.100458,46,281,583,6224
1644188749.133097,-0.006714,0.007935,-0.990967,0.205588,0.432366,0.006412,51,271,580,6224
1644188749.181417,-0.00647,0.009766,-0.989807,0.236122,0.401832,-0.054656,58,269,578,6240
1644188749.229808,-0.006775,0.009766,-0.98822,0.113985,0.356031,-0.161527,54,282,579,6240
1644188749.278203,-0.009766,0.010437,-0.992615,0.129252,0.24916,-0.115725,46,276,580,6240
1644188749.326573,-0.007446,0.013245,-0.991394,0.327725,0.294962,-0.054656,53,274,580,6224
1644188749.375114,-0.008301,0.010559,-0.987854,0.251389,0.279695,-0.039389,46,274,590,6192
1644188749.423372,-0.007141,0.011658,-0.990723,0.205588,0.371298,-0.008855,47,280,572,6240
1644188749.47178,-0.007751,0.009766,-0.990417,0.220855,0.371298,-0.192061,43,269,580,6192
1644188749.520142,-0.008728,0.007874,-0.989929,0.236122,0.508702,-0.054656,55,279,590,6304
1644188749.568568,-0.007263,0.010925,-0.991943,0.205588,0.478168,-0.176794,42,285,579,6224
1644188749.616954,-0.005005,0.009521,-0.991699,0.419328,0.294962,-0.130992,46,279,580,6240
1644188749.665348,-0.008789,0.01001,-0.987854,0.327725,0.478168,-0.024122,49,270,589,6128
1644188749.713753,-0.008362,0.009583,-0.991882,0.312458,0.523969,-0.069924,43,276,585,6224
1644188749.762193,-0.007446,0.007812,-0.992065,0.266656,0.356031,-0.100458,55,274,592,6240
1644188749.810524,-0.008728,0.009216,-0.990173,0.312458,0.417099,-0.130992,45,275,582,6192
1644188749.858976,-0.006775,0.009644,-0.991821,0.342992,0.447634,-0.161527,43,281,583,6224
1644188749.909039,-0.008118,0.012085,-0.990295,0.098718,0.569771,-0.054656,47,265,579,6224
1644188749.959126,-0.006104,0.010071,-0.99115,0.312458,0.493435,-0.161527,38,270,589,6256
1644188750.06958,-0.011353,0.008423,-0.991394,0.251389,0.401832,-0.14626,53,274,587,6224
1644188750.103113,-0.005127,0.009155,-0.992126,0.220855,0.356031,-0.085191,41,271,587,6224
1644188750.149318,-0.00708,0.007568,-0.991333,0.312458,0.401832,-0.054656,48,271,587,6224
1644188750.19767,-0.009033,0.008911,-0.99115,0.220855,0.493435,-0.192061,58,274,583,6224
1644188750.246072,-0.009888,0.010803,-0.991516,0.312458,0.417099,-0.161527,57,277,589,6224
1644188750.294465,-0.006653,0.010742,-0.99115,0.144519,0.24916,0.067481,45,290,582,6224
1644188750.342871,-0.006531,0.009888,-0.991089,0.190321,0.356031,-0.176794,53,286,583,6240
1644188750.391236,-0.007385,0.010498,-0.992554,0.007115,0.401832,0.021679,62,281,587,6240
1644188750.439639,-0.006104,0.009705,-0.990601,0.205588,0.371298,-0.130992,48,274,587,6176
1644188750.488021,-0.007935,0.012573,-0.990723,0.266656,0.371298,-0.085191,46,276,587,6128
1644188750.536613,-0.008179,0.010498,-0.992249,0.312458,0.310229,0.006412,48,276,580,6224
1644188750.586693,-0.008057,0.009399,-0.990234,0.098718,0.401832,-0.039389,53,276,580,6224
1644188750.637102,-0.008545,0.009277,-0.989319,-0.008153,0.386565,-0.192061,58,276,592,6224
1644188750.682033,-0.00885,0.011108,-0.992798,0.175053,0.401832,-0.039389,49,270,579,6224
1644188750.778372,-0.010925,0.012573,-0.992126,0.251389,0.401832,-0.115725,49,275,579,6224
1644188750.826752,-0.009888,0.007446,-0.992798,0.022382,0.554504,-0.161527,40,282,584,6224
1644188750.875621,-0.00769,0.010254,-0.991089,0.35826,0.386565,-0.008855,42,282,575,6224
1644188750.923614,-0.009644,0.009216,-0.993896,0.205588,0.310229,-0.100458,48,274,583,6256
1644188750.972004,-0.008484,0.010254,-0.993713,0.220855,0.417099,-0.161527,45,277,586,6224
1644188751.020369,-0.009949,0.009949,-0.990234,0.312458,0.417099,-0.069924,52,285,589,6240
1644188751.06967,-0.010559,0.010498,-0.991577,0.113985,0.401832,-0.25313,49,273,589,6240
1644188751.117151,-0.01001,0.006836,-0.99115,0.220855,0.340763,-0.161527,48,283,580,6224
1644188751.165547,-0.009766,0.013428,-0.991821,0.220855,0.417099,-0.192061,54,268,582,6224
1644188751.213937,-0.007996,0.009033,-0.99231,0.236122,0.386565,-0.069924,48,271,576,6240
1644188751.262315,-0.009705,0.012085,-0.991394,0.129252,0.493435,-0.14626,49,285,575,6160
1644188751.310705,-0.008179,0.01062,-0.988586,0.205588,0.325496,-0.008855,54,277,593,6288
1644188751.359112,-0.006958,0.013855,-0.990845,0.159786,0.233893,-0.085191,42,282,582,6224
1644188751.407467,-0.010376,0.007019,-0.993652,0.220855,0.493435,-0.161527,52,287,579,6288
1644188751.455903,-0.007812,0.009399,-0.991882,0.113985,0.371298,-0.024122,52,270,584,6224
1644188751.504257,-0.010681,0.010132,-0.993591,0.236122,0.417099,-0.039389,53,266,592,6240
1644188751.552688,-0.009521,0.008423,-0.990906,0.08345,0.386565,-0.069924,53,279,580,6176
1644188751.601068,-0.00946,0.007141,-0.989136,0.205588,0.417099,-0.100458,51,269,590,6224
1644188751.649457,-0.007629,0.008728,-0.992554,0.251389,0.310229,0.143817,41,276,580,6256
1644188751.698066,-0.008118,0.011169,-0.993103,0.129252,0.264427,-0.161527,42,270,582,6224
1644188751.74856,-0.006042,0.009888,-0.98999,0.190321,0.371298,-0.115725,57,282,577,6224
1644188751.798997,-0.008545,0.009094,-0.991882,0.159786,0.401832,-0.085191,42,277,579,6304
1644188751.844193,-0.006348,0.010132,-0.991638,0.220855,0.478168,-0.100458,53,276,580,6288
1644188751.939893,-0.009888,0.009583,-0.992126,0.342992,0.432366,-0.100458,49,273,582,6240
1644188751.988247,-0.008667,0.008118,-0.992615,0.236122,0.371298,-0.176794,57,268,591,6224
1644188752.036616,-0.01123,0.008057,-0.988953,0.251389,0.371298,-0.069924,47,285,586,6224
1644188752.085247,-0.007568,0.01001,-0.990845,0.220855,0.356031,0.006412,47,277,582,6240
1644188752.133411,-0.009583,0.01123,-0.993225,0.159786,0.417099,-0.115725,43,264,590,6224
1644188752.181792,-0.007446,0.009338,-0.99115,0.190321,0.523969,-0.176794,52,275,577,6256
1644188752.230179,-0.007751,0.009277,-0.990356,0.251389,0.478168,-0.237863,46,276,573,6192
1644188752.278567,-0.00531,0.012573,-0.989624,0.281924,0.447634,-0.14626,43,264,583,6240
1644188752.326966,-0.008057,0.012451,-0.993164,0.312458,0.386565,-0.161527,42,277,582,6224
1644188752.375372,-0.007751,0.011169,-0.990417,0.129252,0.493435,-0.085191,59,273,579,6256
1644188752.423766,-0.008484,0.010071,-0.992004,0.251389,0.401832,-0.222595,53,281,585,6224
1644188752.472229,-0.008606,0.011658,-0.992371,0.251389,0.432366,-0.069924,41,279,576,6224
1644188752.520537,-0.007019,0.011841,-0.990295,0.251389,0.417099,-0.069924,58,291,585,6256
1644188752.568932,-0.007324,0.008301,-0.989746,0.113985,0.401832,-0.054656,51,281,576,6160
1644188752.617321,-0.00708,0.008606,-0.991638,0.175053,0.340763,-0.176794,45,270,575,6304
1644188752.665686,-0.009888,0.011047,-0.991821,0.052916,0.371298,-0.008855,43,286,580,6224
1644188752.714118,-0.008545,0.009094,-0.990845,0.297191,0.340763,-0.176794,48,276,590,6288
1644188752.76252,-0.007935,0.008362,-0.989441,0.205588,0.386565,-0.024122,55,262,585,6176
1644188752.810935,-0.010437,0.007385,-0.99115,0.342992,0.401832,-0.054656,49,270,579,6240
1644188752.860759,-0.008118,0.008789,-0.993225,0.205588,0.310229,-0.100458,54,260,582,6176
1644188752.911297,-0.00708,0.010437,-0.992981,0.098718,0.386565,-0.008855,57,273,584,6224
1644188752.961498,-0.006836,0.010193,-0.989502,0.251389,0.386565,-0.14626,46,276,583,6160
1644188753.064548,-0.01062,0.011597,-0.991699,0.266656,0.401832,-0.161527,53,286,583,6240
1644188753.103532,-0.008118,0.006775,-0.988953,0.159786,0.371298,0.006412,57,270,577,6224
1644188753.149642,-0.007019,0.009277,-0.991577,0.08345,0.432366,-0.176794,49,270,582,6224
1644188753.198043,-0.005859,0.011108,-0.991882,0.220855,0.401832,-0.008855,40,277,584,6192
1644188753.246408,-0.009521,0.009949,-0.991211,0.098718,0.478168,-0.115725,52,268,589,6224
1644188753.294838,-0.008728,0.009705,-0.991882,0.312458,0.493435,-0.14626,47,280,584,6192
1644188753.343232,-0.009705,0.010559,-0.991821,0.312458,0.493435,-0.14626,49,273,586,6240
1644188753.391609,-0.009094,0.008484,-0.991028,0.190321,0.447634,-0.161527,46,269,587,6240
1644188753.440002,-0.006042,0.007996,-0.992249,0.281924,0.478168,-0.130992,35,268,589,6192
1644188753.488401,-0.007385,0.010071,-0.991333,0.190321,0.493435,-0.069924,47,270,596,6240
1644188753.5368,-0.010559,0.005554,-0.990845,0.175053,0.310229,-0.130992,39,281,590,6288
1644188753.585177,-0.011353,0.011658,-0.989807,0.342992,0.401832,-0.176794,48,279,585,6224
1644188753.633579,-0.010254,0.01239,-0.990906,0.022382,0.386565,-0.14626,58,276,583,6288
1644188753.682237,-0.006592,0.008667,-0.993408,0.159786,0.386565,-0.14626,54,280,586,6240
1644188753.732891,-0.009277,0.009155,-0.991821,0.281924,0.432366,-0.100458,46,274,583,6224
1644188753.783054,-0.01355,0.010925,-0.99353,0.190321,0.539237,-0.207328,55,276,585,6240
1644188753.829008,-0.008423,0.008179,-0.990234,0.052916,0.401832,-0.222595,46,281,592,6240
1644188753.923999,-0.009521,0.006897,-0.989624,0.08345,0.600305,-0.161527,36,274,583,6304
1644188753.972431,-0.006775,0.009888,-0.991516,0.175053,0.554504,-0.130992,52,273,589,6256
1644188754.020759,-0.00769,0.010803,-0.989807,0.281924,0.356031,0.021679,46,279,583,6240
1644188754.070716,-0.01001,0.011047,-0.990723,0.205588,0.508702,-0.008855,58,274,578,6240
1644188754.117493,-0.01123,0.010986,-0.990662,0.266656,0.294962,0.021679,51,271,573,6224
1644188754.16589,-0.006165,0.009827,-0.992737,0.175053,0.462901,0.067481,54,270,572,6240
1644188754.214292,-0.010437,0.013367,-0.992554,0.266656,0.340763,-0.085191,52,277,577,6288
1644188754.262698,-0.008362,0.01178,-0.990173,0.251389,0.401832,-0.161527,46,281,576,6240
1644188754.311048,-0.00885,0.010071,-0.992432,0.281924,0.371298,-0.054656,54,275,582,6224
1644188754.359467,-0.011597,0.009827,-0.990723,0.205588,0.462901,-0.14626,55,286,590,6240
1644188754.407878,-0.009338,0.008545,-0.991028,0.159786,0.493435,0.021679,48,269,587,6240
1644188754.456257,-0.008728,0.007996,-0.991516,0.129252,0.462901,-0.130992,49,270,579,6192
1644188754.504719,-0.010742,0.008484,-0.991455,0.281924,0.371298,-0.039389,54,277,584,6224
1644188754.553073,-0.006897,0.011169,-0.989807,0.297191,0.325496,-0.069924,35,273,584,6112
1644188754.601418,-0.008484,0.009521,-0.991943,0.175053,0.356031,-0.130992,59,275,582,6224
1644188754.649825,-0.007751,0.008667,-0.989868,0.297191,0.325496,-0.14626,52,270,598,6240
1644188754.698223,-0.007446,0.011047,-0.992126,0.220855,0.340763,-0.130992,55,281,583,6224
1644188754.746609,-0.011475,0.010986,-0.992371,0.129252,0.356031,-0.268397,40,282,577,6304
1644188754.795038,-0.008301,0.008484,-0.992249,0.266656,0.386565,-0.298931,47,268,589,6192
1644188754.843615,-0.00885,0.007263,-0.992981,0.236122,0.371298,-0.085191,46,271,576,6224
1644188754.894501,-0.00708,0.009644,-0.992371,0.251389,0.447634,-0.008855,38,287,568,6224
1644188754.94486,-0.005554,0.010193,-0.991882,0.129252,0.600305,-0.100458,47,277,584,6256
1644188754.989537,-0.01001,0.012329,-0.990967,0.373527,0.401832,-0.054656,41,281,576,6176
1644188755.08547,-0.010071,0.01123,-0.99176,0.419328,0.386565,-0.115725,53,274,583,6224
1644188755.133777,-0.008179,0.007874,-0.991516,0.159786,0.371298,-0.115725,45,265,586,6224
1644188755.182461,-0.008301,0.010986,-0.992981,0.312458,0.325496,0.052214,51,271,583,6176
1644188755.230533,-0.007141,0.010132,-0.993225,0.190321,0.493435,-0.069924,48,279,576,6256
1644188755.278938,-0.00824,0.010071,-0.991882,0.098718,0.432366,-0.039389,52,280,586,6224
1644188755.32732,-0.004639,0.010254,-0.994385,0.190321,0.325496,-0.054656,55,283,571,6224
1644188755.375717,-0.008423,0.011841,-0.992188,0.144519,0.417099,0.052214,51,274,573,6256
1644188755.424118,-0.006531,0.008545,-0.993042,0.205588,0.325496,-0.100458,46,274,573,6192
1644188755.472533,-0.00769,0.010864,-0.992981,0.190321,0.493435,-0.039389,46,269,585,6240
1644188755.520912,-0.00885,0.009033,-0.991333,0.266656,0.478168,-0.069924,52,260,584,6288
1644188755.569299,-0.008667,0.010803,-0.991455,0.281924,0.478168,0.006412,55,279,587,6224
1644188755.617687,-0.008789,0.009216,-0.991272,0.388794,0.493435,-0.115725,55,281,576,6176
1644188755.66606,-0.010742,0.008789,-0.991943,0.342992,0.294962,-0.069924,43,279,585,6240
1644188755.714463,-0.009521,0.008118,-0.992676,0.022382,0.493435,-0.192061,53,269,587,6240
1644188755.762856,-0.009277,0.009827,-0.992004,0.175053,0.386565,-0.039389,52,275,584,6224
1644188755.811261,-0.010071,0.008545,-0.990234,0.144519,0.371298,-0.085191,43,281,576,6224
1644188755.859689,-0.006958,0.007629,-0.987793,0.129252,0.356031,-0.130992,53,271,597,6128
1644188755.908086,-0.007568,0.009338,-0.991028,0.281924,0.401832,-0.14626,47,263,584,6224
1644188755.956465,-0.010803,0.010376,-0.992371,0.052916,0.401832,-0.039389,51,274,587,6240
1644188756.006412,-0.006714,0.01239,-0.992249,0.312458,0.340763,-0.069924,52,268,593,6176
1644188756.103283,-0.00824,0.010864,-0.989746,0.251389,0.340763,-0.085191,45,275,589,6256
1644188756.150039,-0.010193,0.009399,-0.992493,0.251389,0.340763,-0.039389,55,279,580,6224
1644188756.198401,-0.008362,0.009216,-0.990356,0.205588,0.432366,-0.100458,49,277,582,6256
1644188756.246783,-0.006653,0.010132,-0.992737,0.175053,0.371298,-0.069924,52,277,579,6256
1644188756.295217,-0.009094,0.009705,-0.991821,0.098718,0.447634,-0.161527,54,277,575,6240
1644188756.343586,-0.008484,0.009155,-0.990662,0.129252,0.371298,0.021679,51,271,583,6192
1644188756.391986,-0.004333,0.011353,-0.987976,0.190321,0.417099,-0.130992,45,275,575,6256
1644188756.440349,-0.009399,0.009521,-0.994019,0.297191,0.523969,-0.024122,46,274,594,6304
1644188756.488775,-0.006653,0.009521,-0.991577,0.220855,0.447634,-0.268397,51,281,583,6224
1644188756.537159,-0.008545,0.01062,-0.99176,0.251389,0.310229,-0.024122,46,281,590,6224
1644188756.585563,-0.008301,0.008362,-0.993713,0.327725,0.508702,0.082748,43,276,583,6256
1644188756.633962,-0.007446,0.011475,-0.992188,0.251389,0.417099,-0.176794,52,280,591,6224
1644188756.682335,-0.005676,0.007996,-0.992554,0.175053,0.447634,-0.069924,47,270,575,6224
1644188756.730718,-0.005859,0.009033,-0.990967,0.35826,0.340763,0.052214,49,285,591,6288
1644188756.779138,-0.008545,0.010681,-0.990784,0.297191,0.539237,-0.130992,52,277,584,6224
1644188756.827517,-0.008301,0.010681,-0.992554,0.175053,0.325496,-0.024122,49,277,586,6304
1644188756.875973,-0.00824,0.00769,-0.992249,0.236122,0.447634,-0.024122,55,279,599,6240
1644188756.924663,-0.006287,0.007507,-0.992676,0.220855,0.401832,-0.14626,55,279,587,6256
1644188756.97491,-0.009888,0.011719,-0.992126,0.266656,0.432366,-0.130992,48,271,578,6240
1644188757.025325,-0.007263,0.008789,-0.992188,0.236122,0.432366,-0.192061,55,283,576,6224
1644188757.090159,-0.011169,0.010376,-0.989746,0.266656,0.478168,-0.14626,51,271,597,6256
1644188757.166294,-0.008484,0.006348,-0.994019,0.281924,0.447634,0.052214,51,286,573,6224
1644188757.214847,-0.009033,0.010742,-0.991028,0.175053,0.386565,0.006412,46,276,583,6224
1644188757.263048,-0.008667,0.007996,-0.992065,0.297191,0.417099,-0.069924,46,281,576,6256
1644188757.311434,-0.011169,0.010132,-0.991943,0.052916,0.554504,-0.100458,51,276,580,6240
1644188757.359838,-0.008545,0.011108,-0.994019,0.266656,0.401832,0.006412,45,280,586,6192
1644188757.408225,-0.01001,0.008789,-0.991089,0.159786,0.310229,0.006412,46,279,576,6160
1644188757.45662,-0.008423,0.01001,-0.991211,0.190321,0.386565,-0.024122,53,283,594,6256
1644188757.505069,-0.01062,0.009949,-0.990479,0.190321,0.554504,-0.054656,58,283,578,6240
1644188757.553418,-0.008362,0.007568,-0.991272,0.144519,0.478168,0.006412,41,276,590,6224
1644188757.601811,-0.008118,0.010986,-0.992249,0.159786,0.462901,0.036947,58,281,583,6192
1644188757.650169,-0.007385,0.008911,-0.993408,0.297191,0.264427,-0.069924,46,264,580,6240
1644188757.698571,-0.009766,0.008728,-0.992126,0.098718,0.356031,-0.176794,45,287,586,6224
1644188757.746954,-0.007202,0.011902,-0.990784,0.220855,0.462901,-0.008855,53,283,580,6240
1644188757.795386,-0.007507,0.009888,-0.99231,0.251389,0.401832,-0.14626,51,257,585,6240
1644188757.84376,-0.006226,0.004517,-0.993591,0.159786,0.417099,-0.100458,45,282,582,6224
1644188757.892241,-0.006714,0.011047,-0.989746,0.098718,0.432366,0.021679,40,273,572,6224
1644188757.940591,-0.011047,0.008362,-0.990906,0.404061,0.539237,-0.054656,54,280,586,6224
1644188757.988953,-0.004639,0.010376,-0.988892,0.220855,0.417099,-0.130992,41,271,590,6240
1644188758.037396,-0.007629,0.010559,-0.991394,0.297191,0.447634,-0.069924,47,268,582,6240
1644188758.096229,-0.006226,0.009583,-0.991089,0.190321,0.554504,-0.069924,45,270,584,6192
1644188758.135991,-0.009827,0.010132,-0.993225,0.144519,0.401832,-0.039389,46,274,580,6176
1644188758.186169,-0.009094,0.009521,-0.991699,0.251389,0.417099,-0.192061,46,271,583,6224
1644188758.231235,-0.008545,0.010071,-0.993286,0.205588,0.356031,-0.039389,49,277,586,6224
1644188758.327686,-0.00708,0.010376,-0.99054,0.342992,0.386565,-0.207328,49,282,579,6160
1644188758.376068,-0.006042,0.006287,-0.991516,0.236122,0.417099,-0.222595,48,269,576,6160
1644188758.424484,-0.009155,0.011963,-0.991089,0.159786,0.63084,0.006412,53,269,587,6240
1644188758.472881,-0.01001,0.007568,-0.98999,0.327725,0.478168,-0.085191,54,270,575,6160
1644188758.521254,-0.00592,0.009094,-0.991089,0.236122,0.401832,-0.100458,51,279,590,6224
1644188758.56965,-0.006897,0.008362,-0.991882,0.266656,0.462901,0.082748,43,276,585,6240
1644188758.61805,-0.008606,0.009277,-0.990967,0.251389,0.447634,-0.054656,53,264,587,6240
1644188758.666435,-0.009949,0.011475,-0.99408,0.281924,0.432366,-0.176794,51,274,578,6240
1644188758.714856,-0.008301,0.009705,-0.991394,0.205588,0.432366,0.021679,45,282,584,6192
1644188758.763233,-0.008362,0.01001,-0.98877,0.205588,0.356031,-0.069924,48,279,573,6256
1644188758.811679,-0.007874,0.010132,-0.992371,0.281924,0.401832,-0.192061,47,282,579,6192
1644188758.860065,-0.011047,0.010559,-0.990356,0.175053,0.356031,-0.115725,51,279,580,6224
1644188758.908466,-0.007568,0.011169,-0.994934,0.236122,0.325496,-0.069924,53,269,583,6256
1644188758.956837,-0.01178,0.010315,-0.992065,0.129252,0.539237,-0.14626,49,273,579,6224
1644188759.005291,-0.008545,0.010132,-0.993713,0.236122,0.417099,-0.039389,60,266,590,6128
1644188759.064916,-0.007874,0.007751,-0.99231,0.236122,0.371298,-0.130992,48,271,597,6192
1644188759.104277,-0.011292,0.01062,-0.989319,0.205588,0.371298,-0.176794,54,290,584,6224
1644188759.150374,-0.006042,0.009338,-0.992004,0.190321,0.386565,-0.130992,51,276,576,6224
1644188759.198768,-0.007996,0.007385,-0.993225,0.266656,0.310229,-0.039389,54,275,589,6256
1644188759.24719,-0.007874,0.011414,-0.99292,0.175053,0.493435,-0.192061,54,277,582,6224
1644188759.298006,-0.008667,0.011414,-0.992737,0.281924,0.386565,-0.054656,40,280,591,6256
1644188759.34784,-0.006775,0.00769,-0.991638,0.205588,0.447634,-0.14626,52,275,584,6256
1644188759.39279,-0.007996,0.008179,-0.991455,0.113985,0.325496,-0.100458,39,276,585,6224
1644188759.489348,-0.010498,0.00824,-0.991089,0.098718,0.447634,-0.192061,41,283,583,6176
1644188759.537508,-0.00946,0.00885,-0.993652,0.281924,0.340763,-0.039389,45,275,586,6288
1644188759.585894,-0.009644,0.009827,-0.990112,0.205588,0.356031,0.067481,47,268,582,6256
1644188759.634313,-0.010315,0.007996,-0.991882,0.266656,0.294962,-0.100458,43,269,585,6288
1644188759.682708,-0.009277,0.010681,-0.992126,0.113985,0.371298,-0.054656,43,271,583,6240
1644188759.731101,-0.008362,0.009216,-0.991821,0.312458,0.569771,-0.024122,47,275,582,6224
1644188759.779485,-0.006958,0.007935,-0.989868,-0.008153,0.386565,-0.085191,49,275,582,6224
1644188759.827917,-0.008911,0.010376,-0.990173,0.190321,0.325496,-0.14626,41,271,578,6240
1644188759.876322,-0.00885,0.011902,-0.991211,0.205588,0.386565,-0.115725,49,270,577,6224
1644188759.924745,-0.006348,0.009216,-0.991455,0.220855,0.447634,-0.054656,48,283,583,6224
1644188759.973114,-0.006714,0.007996,-0.991211,0.266656,0.371298,-0.054656,49,282,584,6160
1644188760.021464,-0.008362,0.008728,-0.993469,0.266656,0.310229,-0.039389,38,275,582,6224
1644188760.085504,-0.007935,0.009583,-0.993408,0.098718,0.386565,-0.130992,43,274,587,6240
1644188760.118255,-0.008179,0.007751,-0.990234,0.190321,0.462901,-0.115725,58,283,573,6192
1644188760.166631,-0.010498,0.010437,-0.989929,0.266656,0.386565,-0.130992,54,277,589,6160
1644188760.215066,-0.006897,0.011719,-0.990417,0.190321,0.340763,-0.115725,51,279,576,6224
1644188760.263423,-0.007996,0.010498,-0.992371,0.220855,0.417099,-0.130992,57,260,586,6240
1644188760.311813,-0.007202,0.00708,-0.993164,0.159786,0.432366,-0.115725,49,280,577,6256
1644188760.360424,-0.004822,0.007385,-0.988525,0.251389,0.356031,-0.100458,35,273,586,6256
1644188760.410244,-0.009277,0.007996,-0.990845,0.08345,0.493435,-0.222595,45,280,586,6240
1644188760.460212,-0.011475,0.009216,-0.989624,0.007115,0.401832,-0.176794,45,270,577,6224
1644188760.510338,-0.007019,0.009766,-0.991272,0.312458,0.325496,-0.024122,48,276,585,6240
1644188760.60238,-0.008545,0.010437,-0.990417,0.251389,0.478168,0.006412,48,271,580,6256
1644188760.650533,-0.007996,0.008911,-0.993713,0.190321,0.432366,-0.192061,51,276,585,6240
1644188760.698951,-0.008423,0.01178,-0.99176,0.129252,0.340763,0.098015,52,280,579,6224
1644188760.747355,-0.009521,0.00885,-0.988892,0.08345,0.356031,-0.237863,45,275,577,6160
1644188760.79572,-0.006165,0.009399,-0.993164,0.08345,0.432366,-0.161527,43,276,587,6336
1644188760.844182,-0.008667,0.00769,-0.993286,0.175053,0.432366,-0.039389,42,268,584,6256
1644188760.892578,-0.011414,0.011658,-0.988403,0.236122,0.478168,-0.039389,41,271,573,6288
1644188760.940963,-0.008301,0.011902,-0.993774,0.08345,0.386565,-0.14626,53,276,580,6224
1644188760.989362,-0.00708,0.011963,-0.991089,0.113985,0.218626,-0.069924,52,277,598,6224
1644188761.037746,-0.009644,0.007568,-0.99115,0.175053,0.478168,-0.176794,49,275,584,6224
1644188761.093396,-0.010559,0.013245,-0.992493,0.159786,0.310229,-0.039389,45,275,589,6240
1644188761.1345,-0.009399,0.012878,-0.990784,0.144519,0.508702,-0.100458,45,275,584,6192
1644188761.182899,-0.007996,0.010803,-0.992432,0.159786,0.371298,-0.115725,47,273,591,6224
1644188761.231273,-0.005859,0.008484,-0.993164,0.251389,0.371298,-0.192061,48,271,587,6256
1644188761.279969,-0.010925,0.01239,-0.993896,0.159786,0.508702,-0.100458,53,281,594,6224
1644188761.328064,-0.009949,0.010193,-0.99292,0.190321,0.539237,-0.054656,47,270,584,6256
1644188761.376594,-0.008057,0.010681,-0.992126,0.312458,0.478168,0.098015,54,280,591,6176
1644188761.427119,-0.006592,0.010681,-0.989807,0.175053,0.340763,-0.100458,48,279,587,6192
1644188761.47747,-0.00824,0.012573,-0.990967,0.373527,0.356031,-0.054656,48,274,578,6256
1644188761.522348,-0.009705,0.006348,-0.990417,0.190321,0.233893,-0.085191,49,275,582,6224
1644188761.618399,-0.009094,0.007019,-0.991333,0.220855,0.371298,-0.039389,53,286,578,6240
1644188761.666844,-0.007812,0.009338,-0.989746,0.220855,0.417099,-0.008855,57,273,582,6304
1644188761.715398,-0.006714,0.008118,-0.994812,0.312458,0.478168,-0.069924,54,275,570,6224
1644188761.763586,-0.006897,0.008484,-0.992493,0.281924,0.401832,-0.024122,52,277,589,6256
1644188761.811998,-0.00708,0.009277,-0.990662,0.068183,0.340763,-0.069924,54,270,586,6304
1644188761.860425,-0.007446,0.010315,-0.99054,0.175053,0.386565,-0.085191,47,275,584,6224
1644188761.908791,-0.007751,0.011475,-0.991394,0.190321,0.386565,-0.14626,48,271,573,6256
1644188761.957208,-0.009521,0.010864,-0.99054,0.190321,0.371298,-0.069924,46,264,580,6224
1644188762.005612,-0.010803,0.009277,-0.99176,0.35826,0.371298,-0.039389,47,282,582,6240
1644188762.062312,-0.009888,0.00769,-0.993164,0.297191,0.401832,-0.008855,35,273,584,6288
1644188762.102979,-0.009888,0.011047,-0.99408,0.205588,0.310229,-0.069924,43,276,590,6176
1644188762.150745,-0.010193,0.008057,-0.991638,0.373527,0.294962,-0.085191,57,275,582,6176
1644188762.199135,-0.007874,0.011536,-0.989136,0.220855,0.371298,-0.054656,42,268,591,6224
1644188762.247503,-0.011536,0.007751,-0.989624,0.144519,0.508702,-0.085191,55,279,590,6240
1644188762.295934,-0.008057,0.008423,-0.99115,0.266656,0.386565,-0.130992,45,273,577,6160
1644188762.344324,-0.008423,0.01062,-0.989258,0.281924,0.417099,-0.14626,55,279,580,6192
1644188762.392734,-0.006531,0.009827,-0.990845,0.297191,0.478168,-0.069924,45,273,582,6224
1644188762.441106,-0.010498,0.009827,-0.991577,0.129252,0.401832,-0.069924,48,276,597,6224
1644188762.489616,-0.009094,0.008789,-0.994446,0.312458,0.294962,-0.008855,48,274,590,6176
1644188762.538222,-0.009521,0.009766,-0.994324,0.129252,0.432366,-0.115725,55,266,576,6224
1644188762.588353,-0.010803,0.008423,-0.991882,0.175053,0.264427,-0.039389,43,281,583,6336
1644188762.638543,-0.009033,0.00946,-0.990784,0.342992,0.493435,-0.069924,48,274,592,6224
1644188762.683642,-0.011658,0.012268,-0.993896,0.205588,0.325496,-0.176794,55,274,580,6192
1644188762.779829,-0.006409,0.010315,-0.994141,0.144519,0.569771,0.006412,40,280,575,6256
1644188762.828236,-0.010071,0.011108,-0.992249,0.113985,0.493435,-0.100458,48,276,583,6224
1644188762.876675,-0.008545,0.009766,-0.991821,0.129252,0.401832,-0.024122,48,274,583,6240
1644188762.925107,-0.009521,0.011169,-0.990479,0.236122,0.310229,-0.130992,47,263,584,6256
1644188762.97347,-0.006531,0.007507,-0.992126,0.113985,0.585038,-0.192061,46,271,585,6160
1644188763.021856,-0.009399,0.011292,-0.991516,0.236122,0.325496,-0.222595,57,282,582,6224
1644188763.072003,-0.006836,0.010681,-0.99353,0.068183,0.447634,-0.14626,51,274,583,6240
1644188763.11865,-0.00769,0.010864,-0.992676,0.251389,0.462901,-0.024122,42,280,577,6240
1644188763.166992,-0.008667,0.010559,-0.992126,0.251389,0.600305,-0.207328,41,279,578,6176
1644188763.215399,-0.00824,0.010986,-0.991821,0.281924,0.462901,-0.115725,45,273,591,6224
1644188763.26377,-0.007629,0.00824,-0.990906,0.266656,0.539237,-0.085191,58,264,573,6224
1644188763.312239,-0.009033,0.008606,-0.992249,0.220855,0.371298,-0.207328,45,282,596,6224
1644188763.36057,-0.006775,0.005676,-0.990723,0.190321,0.401832,-0.054656,40,273,579,6192
1644188763.408965,-0.00708,0.008545,-0.990234,0.312458,0.417099,-0.024122,54,282,584,6192
1644188763.457366,-0.008484,0.009155,-0.99115,0.144519,0.356031,-0.085191,51,279,580,6224
1644188763.505722,-0.009155,0.011475,-0.991821,0.190321,0.279695,-0.115725,58,271,580,6192
1644188763.554138,-0.006531,0.011108,-0.991272,0.220855,0.447634,-0.25313,55,271,585,6224
1644188763.602552,-0.005493,0.009583,-0.991821,0.220855,0.462901,-0.14626,53,279,585,6240
1644188763.65092,-0.008972,0.00946,-0.992188,0.220855,0.325496,-0.115725,46,271,578,6240
1644188763.699546,-0.008423,0.007568,-0.992676,0.175053,0.340763,-0.024122,40,273,584,6192
1644188763.749894,-0.008301,0.010437,-0.995544,0.236122,0.447634,0.021679,60,271,580,6256
1644188763.800264,-0.009338,0.006165,-0.992798,0.220855,0.447634,-0.237863,42,280,582,6240
1644188763.845793,-0.008789,0.009888,-0.992615,0.297191,0.401832,-0.192061,46,276,578,6224
1644188763.941331,-0.012329,0.010254,-0.992249,0.281924,0.371298,0.052214,54,273,577,6240
1644188763.989714,-0.010803,0.009705,-0.99231,0.129252,0.432366,0.052214,45,280,579,6288
1644188764.038108,-0.009705,0.009705,-0.98877,0.052916,0.401832,0.067481,45,275,582,6256
1644188764.086626,-0.012085,0.011597,-0.993896,0.220855,0.554504,-0.100458,53,283,587,6256
1644188764.1349,-0.009155,0.009155,-0.991333,0.342992,0.523969,-0.100458,46,281,571,6288
1644188764.183258,-0.007568,0.008057,-0.99292,0.312458,0.493435,-0.14626,53,269,594,6256
1644188764.231621,-0.009705,0.008545,-0.991394,0.098718,0.569771,-0.008855,54,275,582,6240
1644188764.280015,-0.007202,0.009766,-0.992798,0.144519,0.386565,-0.130992,49,280,582,6240
1644188764.328431,-0.00824,0.008057,-0.992249,0.175053,0.493435,-0.192061,49,280,586,6240
1644188764.37683,-0.007812,0.00824,-0.991516,0.342992,0.462901,-0.207328,58,291,578,6224
1644188764.425339,-0.006958,0.008362,-0.992004,0.251389,0.523969,-0.039389,51,276,580,6160
1644188764.473621,-0.009583,0.010437,-0.991028,0.388794,0.432366,-0.039389,52,287,579,6288
1644188764.521996,-0.006042,0.008789,-0.993042,0.404061,0.24916,-0.039389,48,262,594,6224
1644188764.570395,-0.008789,0.008972,-0.992737,0.266656,0.24916,0.021679,48,276,587,6240
1644188764.618796,-0.007446,0.009766,-0.991882,0.022382,0.462901,-0.039389,57,275,584,6224
1644188764.667183,-0.008545,0.008362,-0.992493,0.312458,0.386565,-0.085191,51,271,580,6192
1644188764.715553,-0.010925,0.00946,-0.991455,0.312458,0.523969,-0.176794,48,269,587,6224
1644188764.763975,-0.010925,0.009094,-0.992371,0.205588,0.356031,0.006412,41,274,590,6256
1644188764.812463,-0.00885,0.00946,-0.99292,0.129252,0.371298,-0.054656,45,280,584,6240
1644188764.8642,-0.008728,0.011719,-0.99115,0.175053,0.401832,-0.192061,54,280,582,6336
1644188764.914225,-0.010376,0.011047,-0.98938,0.266656,0.417099,-0.130992,52,275,582,6256
1644188764.958885,-0.010437,0.009827,-0.992981,0.342992,0.432366,-0.069924,42,275,584,6224
1644188765.06787,-0.011414,0.011353,-0.99292,0.220855,0.417099,-0.14626,40,280,577,6224
1644188765.108119,-0.006775,0.012451,-0.990295,0.297191,0.478168,0.006412,54,273,582,6192
1644188765.151154,-0.00824,0.009766,-0.988342,0.312458,0.539237,-0.054656,54,270,582,6256
1644188765.19951,-0.011169,0.010803,-0.990234,0.281924,0.279695,-0.054656,45,282,589,6240
1644188765.247924,-0.008301,0.007507,-0.988342,0.205588,0.371298,0.021679,54,275,579,6240
1644188765.296259,-0.007935,0.008789,-0.99115,0.129252,0.523969,-0.054656,47,273,584,6240
1644188765.344733,-0.009644,0.010132,-0.988647,0.236122,0.340763,-0.069924,48,281,585,6176
1644188765.393096,-0.010925,0.010559,-0.995911,0.220855,0.401832,0.036947,53,283,580,6240
1644188765.441459,-0.010864,0.006653,-0.993164,0.129252,0.371298,-0.115725,46,279,597,6224
1644188765.489876,-0.011169,0.009033,-0.993591,0.266656,0.523969,-0.130992,54,287,593,6224
1644188765.538254,-0.007996,0.007141,-0.992615,0.236122,0.417099,-0.161527,51,276,580,6224
1644188765.586648,-0.010864,0.009399,-0.991333,0.190321,0.417099,-0.115725,49,268,591,6240
1644188765.635898,-0.008057,0.007568,-0.993591,0.404061,0.340763,-0.024122,49,277,589,6256
1644188765.686558,-0.009644,0.008545,-0.992798,0.251389,0.417099,-0.130992,58,271,597,6336
1644188765.736489,-0.007019,0.008362,-0.992371,0.205588,0.310229,-0.130992,45,285,577,6288
1644188765.78141,-0.008057,0.008301,-0.992065,0.327725,0.340763,-0.161527,41,266,580,6176
1644188765.876993,-0.008789,0.010254,-0.98999,0.159786,0.493435,-0.298931,47,277,582,6176
1644188765.925441,-0.009644,0.01062,-0.992676,0.175053,0.493435,-0.25313,46,283,578,6240
1644188765.973832,-0.008545,0.008301,-0.99585,0.129252,0.554504,-0.024122,52,268,591,6224
1644188766.022402,-0.008423,0.010193,-0.992249,0.159786,0.600305,-0.085191,48,266,583,6288
1644188766.072947,-0.009216,0.011353,-0.992554,0.220855,0.508702,-0.100458,53,276,592,6160
1644188766.11896,-0.007507,0.007629,-0.991638,0.144519,0.356031,-0.207328,46,266,580,6256
1644188766.167341,-0.009583,0.009644,-0.994324,0.281924,0.401832,-0.100458,42,280,579,6256
1644188766.215755,-0.008057,0.007751,-0.991577,0.220855,0.447634,-0.054656,45,273,586,6224
1644188766.264162,-0.009705,0.010559,-0.99115,0.113985,0.462901,-0.130992,41,271,590,6240
1644188766.31254,-0.010559,0.008911,-0.989258,0.113985,0.264427,-0.054656,53,279,583,6256
1644188766.36095,-0.00885,0.007874,-0.990234,0.373527,0.417099,-0.054656,47,277,586,6224
1644188766.409333,-0.007629,0.006714,-0.992493,0.281924,0.310229,-0.176794,45,277,584,6256
1644188766.457727,-0.007629,0.008667,-0.992188,0.312458,0.478168,-0.100458,55,271,585,6176
1644188766.506089,-0.008179,0.01001,-0.990234,0.205588,0.462901,-0.207328,52,270,584,6304
1644188766.554522,-0.007874,0.008789,-0.992065,0.342992,0.401832,-0.069924,51,274,592,6240
1644188766.602921,-0.008789,0.010315,-0.993469,0.190321,0.371298,-0.024122,52,270,577,6176
1644188766.651303,-0.007446,0.00885,-0.990662,0.220855,0.417099,-0.024122,47,273,591,6160
1644188766.699677,-0.009399,0.009155,-0.990845,0.098718,0.432366,-0.069924,58,274,585,6176
1644188766.748059,-0.007629,0.008179,-0.99115,0.236122,0.417099,-0.14626,43,276,590,6224
1644188766.797836,-0.006592,0.01123,-0.991821,0.281924,0.401832,-0.176794,55,279,585,6240
1644188766.848131,-0.006775,0.011108,-0.991821,0.297191,0.462901,-0.085191,54,275,586,6256
1644188766.898577,-0.00708,0.009033,-0.992981,0.113985,0.478168,-0.176794,46,276,578,6256
1644188766.942908,-0.007019,0.009216,-0.991211,0.220855,0.478168,-0.039389,53,274,583,6192
1644188767.038475,-0.007629,0.011902,-0.991394,0.281924,0.462901,-0.130992,51,276,585,6160
1644188767.087646,-0.005737,0.009216,-0.992126,0.495664,0.279695,-0.222595,48,281,587,6192
1644188767.135226,-0.009583,0.011292,-0.990417,0.129252,0.294962,0.021679,38,270,575,6240
1644188767.183624,-0.008057,0.007385,-0.990356,0.129252,0.371298,-0.207328,52,280,582,6128
1644188767.232009,-0.00946,0.009094,-0.992676,0.129252,0.371298,0.082748,49,280,584,6192
1644188767.280402,-0.009705,0.009583,-0.992859,0.236122,0.478168,-0.14626,49,270,582,6240
