epoch,acc_x,acc_y,acc_z,rot_x,rot_y,rot_z,mag_x,mag_y,mag_z,temp
1644174000.036634,-0.00885,0.013367,-0.989502,0.220855,0.310229,0.036947,53,293,578,5776
1644174000.087245,-0.010498,0.010742,-0.990784,0.312458,0.310229,-0.085191,48,271,583,5728
1644174000.133355,-0.009888,0.01239,-0.993103,0.236122,0.539237,-0.085191,54,287,577,5712
1644174000.181774,-0.007507,0.007935,-0.994324,0.236122,0.493435,-0.176794,52,277,579,5728
1644174000.230143,-0.011292,0.009644,-0.990479,0.08345,0.478168,-0.14626,51,281,587,5760
1644174000.278559,-0.009644,0.00946,-0.992554,0.175053,0.478168,-0.14626,46,276,583,5712
1644174000.326926,-0.009949,0.011414,-0.991211,0.205588,0.401832,-0.115725,48,279,583,5696
1644174000.375364,-0.010376,0.008972,-0.991699,0.312458,0.340763,-0.115725,52,273,579,5648
1644174000.424073,-0.009766,0.01239,-0.989441,0.205588,0.325496,-0.100458,53,259,585,5712
1644174000.473911,-0.011047,0.005859,-0.990051,0.251389,0.508702,-0.176794,47,275,570,5664
1644174000.52414,-0.007568,0.009521,-0.99176,0.129252,0.203359,-0.130992,48,274,576,5696
1644174000.569236,-0.008972,0.010742,-0.992188,0.404061,0.386565,-0.039389,48,271,580,5728
1644174000.66566,-0.011841,0.010559,-0.991577,0.236122,0.371298,-0.176794,54,280,577,5712
1644174000.714085,-0.008789,0.010925,-0.988708,0.297191,0.478168,-0.207328,47,280,572,5696
1644174000.762447,-0.010193,0.01062,-0.992126,0.236122,0.340763,-0.161527,51,276,576,5728
1644174000.810842,-0.00647,0.010986,-0.995422,0.144519,0.493435,-0.130992,47,268,570,5664
1644174000.859281,-0.00708,0.011963,-0.989014,0.175053,0.508702,-0.14626,40,280,582,5664
1644174000.907657,-0.007507,0.010864,-0.990234,0.037649,0.279695,-0.100458,46,269,564,5696
1644174000.956052,-0.00885,0.009399,-0.990112,0.312458,0.325496,-0.222595,47,275,577,5696
1644174001.004439,-0.007874,0.008545,-0.99115,0.281924,0.371298,-0.161527,43,271,564,5664
1644174001.069446,-0.011475,0.008057,-0.991882,0.098718,0.325496,0.006412,47,275,570,5712
1644174001.104241,-0.009888,0.009094,-0.992554,0.175053,0.447634,-0.161527,41,281,580,5728
1644174001.149571,-0.009888,0.011108,-0.992615,0.342992,0.371298,-0.054656,45,273,572,5712
1644174001.197966,-0.008057,0.013855,-0.988647,0.281924,0.24916,-0.085191,48,269,573,5696
1644174001.246349,-0.007324,0.00885,-0.991211,0.495664,0.539237,-0.176794,48,262,576,5776
1644174001.294772,-0.00824,0.010254,-0.991821,0.220855,0.478168,-0.069924,58,259,585,5712
1644174001.34317,-0.006836,0.009827,-0.992004,0.281924,0.523969,-0.100458,46,276,566,5664
1644174001.391541,-0.011108,0.010681,-0.990967,0.205588,0.371298,0.006412,46,276,578,5664
1644174001.439938,-0.009766,0.009155,-0.991699,0.129252,0.417099,-0.14626,60,281,590,5728
1644174001.488311,-0.00885,0.009216,-0.990479,0.266656,0.493435,-0.161527,51,269,571,5728
1644174001.537014,-0.009338,0.009949,-0.992676,0.236122,0.356031,-0.008855,47,273,572,5808
1644174001.586415,-0.010803,0.010071,-0.988037,0.236122,0.539237,-0.25313,45,273,570,5712
1644174001.636727,-0.011719,0.007202,-0.989807,0.342992,0.371298,-0.054656,59,277,572,5728
1644174001.687003,-0.011353,0.009155,-0.991516,0.251389,0.233893,-0.130992,36,271,580,5760
1644174001.77865,-0.01062,0.011658,-0.99054,0.236122,0.417099,-0.192061,48,266,585,5696
1644174001.82703,-0.009033,0.010925,-0.990234,0.220855,0.218626,-0.176794,55,286,583,5760
1644174001.875466,-0.010315,0.009521,-0.991272,0.205588,0.340763,-0.024122,51,274,578,5664
1644174001.923873,-0.010864,0.009644,-0.994812,0.297191,0.325496,-0.085191,48,276,578,5776
1644174001.97228,-0.010498,0.009277,-0.992188,0.297191,0.447634,-0.176794,52,268,568,5712
1644174002.02066,-0.007568,0.013184,-0.99054,0.190321,0.447634,-0.039389,49,277,584,5648
1644174002.069223,-0.008484,0.009827,-0.991089,0.297191,0.325496,-0.008855,48,269,573,5760
1644174002.117409,-0.011353,0.009399,-0.989258,0.251389,0.478168,-0.176794,51,274,578,5664
1644174002.165778,-0.012207,0.010254,-0.991943,0.281924,0.462901,-0.008855,47,277,577,5648
1644174002.214178,-0.010071,0.008301,-0.991821,0.297191,0.569771,-0.085191,54,280,577,5728
1644174002.262605,-0.01178,0.010315,-0.98999,0.129252,0.310229,-0.069924,49,290,577,5712
1644174002.31097,-0.008545,0.011414,-0.994446,0.205588,0.233893,-0.161527,48,281,569,5648
1644174002.359349,-0.00946,0.008667,-0.99408,0.327725,0.417099,-0.100458,58,276,576,5760
1644174002.407756,-0.01062,0.008545,-0.99176,0.144519,0.325496,-0.054656,52,280,572,5728
1644174002.456118,-0.009949,0.010681,-0.992371,0.220855,0.508702,-0.100458,51,279,576,5696
1644174002.504694,-0.011658,0.00824,-0.991211,0.342992,0.432366,-0.14626,49,277,579,5728
1644174002.552937,-0.011475,0.009521,-0.990723,0.236122,0.401832,-0.008855,48,281,571,5728
1644174002.60131,-0.010559,0.008484,-0.994507,0.175053,0.417099,-0.130992,53,271,580,5760
1644174002.649705,-0.010315,0.006592,-0.992126,0.159786,0.600305,-0.130992,45,268,572,5696
1644174002.698148,-0.008972,0.009888,-0.992798,0.205588,0.233893,-0.008855,48,266,578,5760
1644174002.748594,-0.009033,0.008911,-0.991699,0.175053,0.432366,-0.222595,46,269,585,5696
1644174002.798749,-0.010132,0.010864,-0.989319,0.175053,0.401832,-0.176794,54,265,582,5664
1644174002.843832,-0.010803,0.009766,-0.99292,0.297191,0.432366,-0.085191,49,282,572,5712
1644174002.940087,-0.00946,0.010986,-0.994263,0.175053,0.417099,-0.008855,51,269,571,5808
1644174002.98847,-0.00769,0.009399,-0.991577,0.281924,0.462901,-0.085191,45,277,572,5696
1644174003.036874,-0.011047,0.010559,-0.992249,0.297191,0.493435,-0.207328,49,268,582,5728
1644174003.085482,-0.007751,0.01178,-0.99231,0.281924,0.371298,-0.161527,53,276,571,5776
1644174003.133652,-0.008606,0.010498,-0.99231,0.129252,0.371298,-0.085191,48,274,571,5664
1644174003.182008,-0.010132,0.007751,-0.990662,0.113985,0.401832,-0.237863,54,268,565,5712
1644174003.230389,-0.011475,0.009705,-0.993408,0.251389,0.447634,-0.161527,40,275,575,5664
1644174003.278758,-0.011597,0.011047,-0.989929,0.220855,0.371298,-0.176794,49,277,575,5696
1644174003.327164,-0.010986,0.011658,-0.991089,0.327725,0.478168,0.052214,48,279,573,5696
1644174003.375565,-0.010254,0.009888,-0.993164,0.220855,0.325496,0.036947,51,271,569,5712
1644174003.423958,-0.009155,0.007141,-0.990601,0.159786,0.371298,0.006412,57,275,570,5728
1644174003.472352,-0.010437,0.010254,-0.991821,0.434595,0.447634,-0.100458,52,270,570,5760
1644174003.520737,-0.009277,0.008972,-0.99292,0.312458,0.325496,-0.008855,53,276,576,5664
1644174003.569131,-0.013306,0.00885,-0.992432,0.297191,0.356031,-0.14626,61,275,584,5728
1644174003.617522,-0.011414,0.010559,-0.993958,0.098718,0.264427,0.021679,53,288,564,5696
1644174003.665904,-0.009277,0.007446,-0.991516,0.297191,0.279695,-0.222595,54,265,577,5712
1644174003.714302,-0.011658,0.01123,-0.992432,0.388794,0.294962,-0.222595,46,279,578,5712
1644174003.762707,-0.01178,0.008118,-0.992126,0.312458,0.325496,-0.237863,45,268,570,5728
1644174003.811091,-0.007751,0.009094,-0.99353,0.220855,0.356031,-0.100458,42,270,577,5664
1644174003.860209,-0.010803,0.009399,-0.993103,0.327725,0.432366,-0.192061,54,280,572,5712
1644174003.911106,-0.011963,0.006592,-0.992188,0.327725,0.447634,-0.207328,47,282,575,5696
1644174003.96136,-0.010925,0.007446,-0.990662,0.281924,0.432366,-0.161527,51,264,569,5728
1644174004.005939,-0.009827,0.009399,-0.99292,0.388794,0.508702,-0.130992,46,262,571,5728
1644174004.104881,-0.010742,0.009094,-0.99231,0.022382,0.493435,-0.024122,57,263,577,5728
1644174004.149862,-0.010742,0.009705,-0.994568,0.251389,0.417099,-0.237863,43,276,580,5760
1644174004.198213,-0.010742,0.007324,-0.993225,0.251389,0.325496,-0.085191,55,274,580,5696
1644174004.246581,-0.008606,0.00769,-0.993103,0.266656,0.585038,-0.054656,52,270,572,5664
1644174004.295105,-0.008362,0.007812,-0.992126,0.236122,0.264427,-0.237863,41,281,569,5648
1644174004.343383,-0.008972,0.008423,-0.991028,0.159786,0.340763,0.006412,42,280,579,5696
1644174004.391775,-0.010559,0.008545,-0.994934,0.129252,0.371298,-0.268397,54,275,572,5728
1644174004.440208,-0.009583,0.010132,-0.990356,0.037649,0.462901,-0.115725,49,282,575,5696
1644174004.488546,-0.009705,0.008484,-0.992371,0.175053,0.340763,-0.14626,48,271,578,5664
1644174004.536912,-0.009583,0.010986,-0.995178,0.281924,0.417099,-0.298931,48,271,573,5664
1644174004.58534,-0.011475,0.01001,-0.991211,0.205588,0.371298,-0.14626,48,276,573,5760
1644174004.633739,-0.008728,0.010315,-0.990723,0.297191,0.371298,-0.192061,49,268,582,5760
1644174004.682193,-0.009399,0.006836,-0.990173,0.159786,0.432366,-0.176794,45,277,582,5696
1644174004.730632,-0.00885,0.009338,-0.993835,0.08345,0.600305,-0.069924,48,279,585,5696
1644174004.78094,-0.012146,0.009949,-0.991821,0.236122,0.401832,-0.298931,53,269,580,5664
1644174004.83127,-0.008545,0.014526,-0.992432,0.098718,0.508702,-0.024122,55,264,585,5664
1644174004.877022,-0.006836,0.009338,-0.989563,0.175053,0.386565,0.098015,48,271,573,5760
1644174004.972513,-0.009338,0.006714,-0.992371,0.159786,0.401832,-0.237863,49,277,570,5648
1644174005.02088,-0.010925,0.009766,-0.992798,0.327725,0.386565,-0.085191,43,276,580,5808
1644174005.070449,-0.009766,0.011047,-0.99176,0.312458,0.432366,-0.222595,48,283,576,5728
1644174005.117655,-0.009766,0.008545,-0.99231,0.098718,0.432366,-0.161527,54,265,572,5776
1644174005.166042,-0.009705,0.009277,-0.992798,0.342992,0.386565,-0.161527,52,277,575,5712
1644174005.214425,-0.008301,0.008118,-0.991394,0.129252,0.386565,-0.14626,49,280,565,5648
1644174005.262829,-0.01001,0.007629,-0.994141,0.205588,0.615573,-0.161527,47,268,570,5712
1644174005.311168,-0.007324,0.009888,-0.990967,0.052916,0.417099,-0.192061,49,275,575,5760
1644174005.359579,-0.009033,0.012268,-0.992065,0.236122,0.478168,-0.039389,48,269,573,5728
1644174005.407983,-0.012756,0.006775,-0.99054,0.220855,0.493435,-0.176794,46,276,578,5776
1644174005.456376,-0.008118,0.01001,-0.993225,0.159786,0.432366,-0.130992,51,269,576,5712
1644174005.504798,-0.012329,0.009277,-0.99292,0.236122,0.401832,-0.039389,53,281,569,5648
1644174005.553172,-0.009033,0.011536,-0.994873,0.205588,0.310229,-0.237863,43,269,583,5664
1644174005.601544,-0.009705,0.010742,-0.992676,0.052916,0.356031,-0.176794,49,270,570,5696
1644174005.64993,-0.010132,0.012085,-0.992798,0.342992,0.325496,0.006412,49,273,575,5760
1644174005.698319,-0.008606,0.011963,-0.990906,0.175053,0.401832,-0.176794,40,268,575,5728
1644174005.74669,-0.010437,0.011536,-0.992432,0.236122,0.386565,0.006412,49,270,568,5712
1644174005.795218,-0.00647,0.008057,-0.990662,0.190321,0.478168,-0.115725,49,280,584,5664
1644174005.843455,-0.008972,0.011108,-0.993896,0.190321,0.356031,-0.069924,42,270,575,5712
1644174005.891889,-0.010803,0.010498,-0.992554,0.312458,0.493435,-0.14626,41,271,576,5712
1644174005.943231,-0.009583,0.009766,-0.993896,0.08345,0.447634,-0.237863,51,269,566,5808
1644174005.994321,-0.012573,0.008789,-0.992615,0.159786,0.432366,-0.25313,41,276,571,5776
1644174006.0383,-0.009399,0.009277,-0.99292,0.220855,0.279695,-0.085191,53,269,578,5760
1644174006.133846,-0.008911,0.00885,-0.993652,0.113985,0.493435,-0.039389,55,274,587,5728
1644174006.18222,-0.008545,0.009216,-0.991089,0.236122,0.432366,-0.069924,40,270,577,5712
1644174006.230613,-0.01123,0.009399,-0.991455,0.236122,0.401832,-0.039389,49,277,575,5760
1644174006.279004,-0.009399,0.009155,-0.992554,0.251389,0.417099,-0.008855,53,281,564,5696
1644174006.327375,-0.008972,0.012573,-0.990112,0.175053,0.371298,-0.100458,57,277,568,5696
1644174006.375793,-0.012024,0.009766,-0.991333,0.220855,0.356031,-0.192061,45,263,577,5776
1644174006.424171,-0.00885,0.010559,-0.993713,0.144519,0.401832,0.006412,54,263,568,5728
1644174006.472564,-0.010925,0.009277,-0.991699,0.266656,0.356031,-0.115725,48,266,564,5696
1644174006.520975,-0.012756,0.008057,-0.99231,0.281924,0.493435,-0.085191,54,282,579,5696
1644174006.569363,-0.012085,0.008911,-0.987793,0.342992,0.401832,-0.100458,42,275,570,5760
1644174006.617761,-0.008911,0.011719,-0.992188,0.144519,0.432366,0.082748,45,282,575,5728
1644174006.666141,-0.010986,0.007507,-0.992126,0.35826,0.294962,-0.268397,49,273,575,5664
1644174006.71454,-0.012695,0.008118,-0.992126,0.434595,0.417099,-0.024122,48,271,571,5696
1644174006.762915,-0.01123,0.00946,-0.990723,0.373527,0.478168,-0.115725,59,273,582,5728
1644174006.811345,-0.010742,0.012451,-0.99353,0.266656,0.371298,-0.100458,46,276,573,5728
1644174006.859716,-0.011169,0.010376,-0.992249,0.144519,0.310229,-0.176794,59,273,575,5664
1644174006.908127,-0.011169,0.006775,-0.991394,0.251389,0.493435,-0.069924,55,276,583,5760
1644174006.95668,-0.010071,0.00946,-0.992859,0.342992,0.371298,-0.176794,54,280,577,5696
1644174007.004941,-0.011292,0.009155,-0.988525,0.205588,0.401832,-0.069924,49,277,575,5776
1644174007.077565,-0.010376,0.008484,-0.993652,0.297191,0.386565,-0.039389,49,273,579,5696
1644174007.109263,-0.011414,0.009338,-0.993103,0.251389,0.340763,-0.085191,45,270,579,5696
1644174007.15522,-0.008301,0.011108,-0.991638,0.236122,0.340763,-0.115725,48,281,573,5712
1644174007.246801,-0.009216,0.01239,-0.992493,0.175053,0.325496,-0.222595,48,269,583,5648
1644174007.295382,-0.00885,0.011108,-0.99231,0.190321,0.386565,-0.069924,51,271,585,5712
1644174007.343614,-0.007812,0.008179,-0.990234,0.068183,0.325496,-0.054656,52,277,572,5696
1644174007.392003,-0.010132,0.007935,-0.99408,0.08345,0.279695,-0.115725,48,274,573,5728
1644174007.440388,-0.010559,0.008606,-0.990845,0.129252,0.417099,-0.192061,55,274,571,5696
1644174007.488776,-0.009033,0.009583,-0.991821,0.312458,0.310229,-0.100458,49,287,575,5696
1644174007.53716,-0.012817,0.010803,-0.991882,0.159786,0.371298,-0.176794,49,282,575,5696
1644174007.585566,-0.01123,0.007507,-0.990906,0.35826,0.386565,-0.14626,48,279,578,5712
1644174007.633961,-0.009827,0.008911,-0.992004,0.190321,0.401832,-0.008855,55,266,573,5712
1644174007.682336,-0.010315,0.006958,-0.993469,0.159786,0.310229,-0.039389,53,269,566,5648
1644174007.73073,-0.009705,0.00885,-0.992798,0.312458,0.462901,-0.298931,47,282,577,5728
1644174007.779103,-0.009949,0.009033,-0.992798,0.327725,0.432366,-0.039389,47,273,570,5760
1644174007.827556,-0.011292,0.012817,-0.99292,0.144519,0.585038,-0.100458,59,273,575,5696
1644174007.875946,-0.011841,0.008728,-0.99115,0.098718,0.218626,-0.115725,49,263,577,5696
1644174007.924342,-0.010132,0.01001,-0.992554,0.236122,0.264427,-0.100458,54,275,568,5728
1644174007.972754,-0.010071,0.010681,-0.990662,0.220855,0.279695,-0.069924,51,279,576,5728
1644174008.021129,-0.011902,0.007629,-0.992859,0.190321,0.478168,-0.130992,51,274,571,5760
1644174008.082599,-0.015137,0.008667,-0.993042,0.266656,0.325496,-0.100458,47,268,584,5664
1644174008.122916,-0.004333,0.010803,-0.992249,0.281924,0.432366,-0.085191,59,265,570,5696
1644174008.166923,-0.011719,0.008301,-0.991943,0.35826,0.417099,-0.115725,52,273,575,5760
1644174008.263031,-0.00824,0.009888,-0.989746,0.281924,0.508702,-0.237863,58,279,578,5664
1644174008.31142,-0.011902,0.012024,-0.992615,0.08345,0.417099,-0.069924,55,269,580,5696
1644174008.3598,-0.010254,0.011414,-0.993958,0.205588,0.401832,-0.207328,42,275,565,5760
1644174008.408203,-0.010559,0.009583,-0.99054,0.373527,0.417099,-0.054656,51,269,562,5696
1644174008.45659,-0.009094,0.011475,-0.99353,0.266656,0.371298,-0.100458,48,283,578,5696
1644174008.505037,-0.00647,0.011292,-0.987366,0.205588,0.447634,-0.100458,40,275,579,5696
1644174008.553377,-0.007874,0.012024,-0.991333,0.08345,0.386565,-0.115725,62,274,576,5760
1644174008.60177,-0.010864,0.010498,-0.99115,0.266656,0.432366,-0.069924,49,275,575,5696
1644174008.650161,-0.00647,0.008362,-0.991699,0.190321,0.432366,-0.207328,57,282,577,5760
1644174008.698543,-0.009094,0.012268,-0.988464,0.327725,0.401832,-0.161527,49,275,572,5776
1644174008.746907,-0.008972,0.009277,-0.993408,0.159786,0.325496,-0.069924,43,276,576,5760
1644174008.795309,-0.010193,0.007568,-0.99115,0.281924,0.340763,-0.024122,52,270,575,5696
1644174008.843783,-0.013306,0.006348,-0.99353,0.297191,0.432366,-0.176794,49,260,575,5712
1644174008.892245,-0.010803,0.011597,-0.988892,0.144519,0.478168,0.036947,43,271,576,5664
1644174008.940541,-0.008789,0.010071,-0.992004,0.236122,0.417099,-0.085191,52,287,577,5712
1644174008.988906,-0.009644,0.010864,-0.994019,0.098718,0.371298,-0.176794,48,271,578,5664
1644174009.037333,-0.009888,0.009033,-0.990967,0.205588,0.264427,-0.14626,62,269,571,5696
1644174009.085747,-0.00946,0.008057,-0.991882,0.297191,0.432366,-0.14626,41,274,583,5728
1644174009.134083,-0.012634,0.004822,-0.992004,0.297191,0.371298,-0.14626,51,281,578,5728
1644174009.182632,-0.010132,0.008484,-0.991577,-0.038687,0.493435,-0.039389,47,263,572,5696
1644174009.232593,-0.01123,0.010376,-0.993225,0.175053,0.417099,-0.085191,55,274,573,5776
1644174009.282895,-0.010559,0.009766,-0.991211,0.327725,0.340763,-0.100458,46,271,573,5728
1644174009.328044,-0.011292,0.011292,-0.992798,0.342992,0.523969,-0.176794,62,269,566,5760
1644174009.424405,-0.012085,0.007019,-0.992432,0.373527,0.356031,-0.039389,48,276,569,5712
1644174009.472811,-0.011292,0.009399,-0.990051,0.266656,0.401832,-0.085191,53,266,578,5760
1644174009.5212,-0.012817,0.00647,-0.993652,0.251389,0.432366,-0.298931,46,276,576,5728
1644174009.56958,-0.009216,0.010071,-0.992188,0.190321,0.356031,-0.207328,47,273,577,5664
1644174009.617965,-0.012024,0.009888,-0.991882,0.113985,0.340763,-0.024122,47,273,579,5712
1644174009.66635,-0.007324,0.007629,-0.994324,0.266656,0.356031,-0.130992,52,263,572,5776
1644174009.714752,-0.011658,0.004578,-0.991516,0.159786,0.417099,-0.161527,42,282,577,5712
1644174009.763153,-0.010498,0.009705,-0.992859,0.297191,0.493435,-0.008855,42,280,577,5712
1644174009.811543,-0.009949,0.007141,-0.99292,0.175053,0.447634,-0.100458,45,273,579,5696
1644174009.859975,-0.013062,0.010498,-0.992554,0.144519,0.279695,-0.161527,52,275,575,5712
1644174009.908362,-0.011719,0.011658,-0.993896,0.236122,0.478168,-0.115725,55,276,566,5712
1644174009.956753,-0.007751,0.009155,-0.990417,0.129252,0.340763,-0.161527,59,275,579,5696
1644174010.005263,-0.009583,0.008545,-0.993164,0.281924,0.294962,0.052214,43,279,576,5696
1644174010.068698,-0.011475,0.008789,-0.990845,0.205588,0.325496,-0.161527,49,273,584,5712
1644174010.103522,-0.010742,0.006104,-0.993164,0.08345,0.401832,-0.14626,47,275,582,5696
1644174010.150282,-0.011658,0.007629,-0.990417,0.220855,0.447634,-0.268397,57,273,584,5664
1644174010.198663,-0.011169,0.00708,-0.992004,0.190321,0.340763,0.021679,49,275,577,5696
1644174010.247056,-0.008484,0.009949,-0.992249,0.312458,0.478168,-0.054656,49,273,575,5712
1644174010.295448,-0.008728,0.008423,-0.989685,0.35826,0.356031,-0.069924,42,265,582,5696
1644174010.34387,-0.010376,0.013062,-0.99292,0.251389,0.447634,-0.085191,58,281,571,5728
1644174010.394035,-0.011047,0.008118,-0.99176,0.236122,0.340763,-0.100458,48,276,576,5696
1644174010.444373,-0.011597,0.009399,-0.991211,0.037649,0.386565,-0.268397,57,273,579,5712
1644174010.489473,-0.01001,0.010132,-0.991943,0.037649,0.371298,-0.222595,49,265,579,5696
1644174010.585772,-0.007996,0.008362,-0.989502,0.129252,0.294962,-0.192061,57,270,589,5664
1644174010.634164,-0.011108,0.008423,-0.992859,0.190321,0.401832,-0.237863,45,273,577,5696
1644174010.682573,-0.009033,0.007019,-0.993469,0.251389,0.340763,-0.008855,42,285,572,5760
1644174010.730953,-0.01123,0.007141,-0.99408,0.251389,0.188092,-0.207328,49,270,582,5648
1644174010.779348,-0.010864,0.010193,-0.992493,0.312458,0.386565,-0.115725,52,275,584,5728
1644174010.827733,-0.010559,0.011841,-0.993896,0.297191,0.523969,0.021679,52,265,577,5712
1644174010.876167,-0.011414,0.009155,-0.990784,0.35826,0.157557,0.082748,51,271,569,5712
1644174010.924605,-0.010315,0.009277,-0.991333,0.281924,0.340763,-0.085191,47,273,575,5712
1644174010.97298,-0.011169,0.007874,-0.993164,0.388794,0.447634,-0.039389,60,276,578,5696
1644174011.021342,-0.010925,0.008911,-0.993103,0.266656,0.325496,-0.176794,49,275,577,5808
1644174011.075484,-0.010193,0.007935,-0.991028,0.205588,0.371298,-0.161527,54,273,575,5696
1644174011.118145,-0.007324,0.010559,-0.993408,0.297191,0.371298,-0.192061,48,269,583,5712
1644174011.166479,-0.010742,0.008118,-0.992126,0.327725,0.432366,-0.192061,49,290,575,5696
1644174011.214859,-0.010742,0.006775,-0.990845,0.098718,0.432366,-0.314198,48,286,580,5728
1644174011.26325,-0.012573,0.009216,-0.993774,0.220855,0.523969,-0.14626,46,264,580,5712
1644174011.311627,-0.011902,0.011047,-0.990051,0.236122,0.356031,-0.085191,48,283,571,5696
1644174011.360051,-0.01178,0.009827,-0.991516,0.190321,0.401832,-0.054656,42,263,577,5696
1644174011.408436,-0.010254,0.007568,-0.994263,0.220855,0.401832,-0.054656,45,275,579,5664
1644174011.456799,-0.012573,0.008789,-0.994202,0.205588,0.462901,-0.039389,51,269,573,5696
1644174011.505541,-0.011169,0.00885,-0.991882,0.251389,0.447634,-0.085191,48,281,583,5696
1644174011.556231,-0.009949,0.008362,-0.991821,0.205588,0.310229,-0.161527,53,279,571,5696
1644174011.606264,-0.010925,0.009827,-0.993164,0.297191,0.279695,-0.130992,41,269,585,5760
1644174011.651295,-0.013184,0.007751,-0.990112,0.236122,0.24916,-0.14626,52,268,582,5696
1644174011.747158,-0.012634,0.009705,-0.98822,0.251389,0.478168,-0.100458,43,271,578,5760
1644174011.795538,-0.007874,0.010376,-0.991028,0.236122,0.294962,-0.069924,55,271,578,5712
1644174011.843956,-0.012329,0.00824,-0.993774,0.266656,0.371298,-0.161527,47,280,582,5728
1644174011.892418,-0.011475,0.007751,-0.991943,0.236122,0.401832,-0.069924,60,269,569,5728
1644174011.940764,-0.01001,0.006348,-0.993164,0.266656,0.523969,-0.054656,43,271,569,5760
1644174011.989171,-0.009644,0.006897,-0.992371,0.144519,0.401832,-0.130992,47,270,572,5648
1644174012.037552,-0.01062,0.00946,-0.992798,0.129252,0.432366,-0.039389,49,275,575,5712
1644174012.100116,-0.008789,0.010254,-0.993164,0.068183,0.462901,-0.192061,52,270,584,5664
1644174012.134346,-0.01123,0.00824,-0.992493,0.449863,0.539237,-0.039389,49,275,582,5776
1644174012.182692,-0.013672,0.010071,-0.993713,0.342992,0.447634,-0.054656,49,280,577,5696
1644174012.231073,-0.009705,0.006531,-0.991882,0.266656,0.401832,-0.039389,52,277,579,5696
1644174012.279444,-0.006104,0.008423,-0.992188,0.113985,0.447634,-0.344733,51,286,578,5760
1644174012.327863,-0.01178,0.007935,-0.993469,0.327725,0.417099,-0.115725,55,269,580,5696
1644174012.376588,-0.009216,0.008179,-0.993347,0.220855,0.447634,-0.314198,46,266,583,5808
1644174012.42578,-0.010986,0.009949,-0.993896,0.220855,0.462901,-0.100458,47,277,584,5712
1644174012.476338,-0.009033,0.010803,-0.991699,0.266656,0.401832,-0.054656,46,276,583,5712
1644174012.526409,-0.009277,0.010864,-0.990601,0.190321,0.386565,-0.100458,46,269,573,5664
1644174012.618182,-0.008789,0.010254,-0.99292,0.373527,0.417099,-0.069924,42,280,579,5664
1644174012.666561,-0.01062,0.010132,-0.992798,0.175053,0.432366,-0.039389,48,276,578,5728
1644174012.715238,-0.009644,0.009644,-0.99054,0.312458,0.203359,-0.100458,42,282,570,5728
1644174012.763369,-0.007263,0.009644,-0.992737,0.266656,0.310229,-0.161527,45,273,572,5648
1644174012.811767,-0.010498,0.008667,-0.99231,0.175053,0.310229,0.006412,49,265,572,5696
1644174012.860147,-0.009766,0.008789,-0.991211,0.175053,0.401832,-0.100458,55,276,580,5696
1644174012.908591,-0.010681,0.007202,-0.993225,0.327725,0.462901,0.098015,48,274,576,5728
1644174012.956976,-0.012207,0.008911,-0.992432,0.205588,0.447634,-0.039389,47,277,577,5760
1644174013.005383,-0.010864,0.011841,-0.993042,0.205588,0.24916,-0.100458,46,274,571,5696
1644174013.066929,-0.011047,0.007996,-0.992432,0.281924,0.340763,-0.100458,57,285,582,5760
1644174013.102181,-0.010681,0.008972,-0.992737,0.373527,0.401832,-0.161527,48,279,578,5696
1644174013.150499,-0.011475,0.010559,-0.990967,0.175053,0.493435,-0.14626,53,269,569,5664
1644174013.198931,-0.008423,0.010254,-0.991699,0.327725,0.478168,-0.237863,48,276,576,5712
1644174013.247319,-0.008362,0.008972,-0.991943,0.297191,0.24916,-0.039389,57,277,575,5696
1644174013.295723,-0.010376,0.01123,-0.991577,0.220855,0.356031,-0.069924,58,274,573,5728
1644174013.344108,-0.01123,0.009033,-0.994324,0.190321,0.478168,-0.054656,47,280,570,5728
1644174013.392481,-0.007385,0.009949,-0.991333,0.312458,0.279695,-0.130992,49,275,579,5712
1644174013.44098,-0.010193,0.010254,-0.987366,0.159786,0.401832,-0.085191,57,275,575,5760
1644174013.48939,-0.009888,0.010742,-0.992004,0.190321,0.310229,-0.130992,54,268,575,5760
1644174013.538932,-0.011169,0.008545,-0.992493,0.251389,0.310229,-0.130992,54,275,572,5760
1644174013.589144,-0.009583,0.01062,-0.994446,-0.008153,0.371298,-0.115725,49,275,575,5728
1644174013.639491,-0.01178,0.010437,-0.992859,0.220855,0.371298,-0.192061,51,279,583,5696
1644174013.684049,-0.010803,0.009155,-0.989197,0.175053,0.508702,0.021679,46,281,580,5728
1644174013.779594,-0.00946,0.006958,-0.991943,0.098718,0.508702,0.021679,49,275,579,5760
1644174013.828006,-0.010132,0.008911,-0.991211,0.175053,0.432366,-0.115725,54,277,575,5760
1644174013.876392,-0.009338,0.011414,-0.993408,0.144519,0.539237,-0.085191,45,273,575,5728
1644174013.924814,-0.009277,0.008545,-0.993225,0.281924,0.310229,-0.161527,46,274,564,5696
1644174013.973194,-0.01001,0.007996,-0.99054,0.205588,0.325496,-0.008855,45,282,577,5664
1644174014.021586,-0.010315,0.010071,-0.993652,0.190321,0.325496,-0.100458,48,266,573,5728
1644174014.072294,-0.010437,0.008911,-0.991272,0.281924,0.493435,-0.039389,53,269,578,5696
1644174014.118303,-0.011169,0.007874,-0.992859,0.281924,0.508702,-0.008855,47,277,575,5664
1644174014.166701,-0.012268,0.007019,-0.992065,0.159786,0.24916,-0.14626,54,268,577,5664
1644174014.215222,-0.008606,0.008545,-0.993103,0.297191,0.478168,0.082748,47,273,570,5728
1644174014.263473,-0.008545,0.009338,-0.991211,0.35826,0.386565,-0.130992,53,281,576,5664
1644174014.311886,-0.011475,0.007324,-0.99353,0.251389,0.554504,0.021679,49,273,572,5696
1644174014.360274,-0.006592,0.007812,-0.993408,0.098718,0.371298,-0.054656,58,276,573,5696
1644174014.408632,-0.00769,0.007141,-0.989502,0.35826,0.371298,-0.039389,49,277,577,5760
1644174014.457057,-0.010376,0.005859,-0.99054,0.190321,0.310229,-0.085191,49,287,579,5696
1644174014.505428,-0.010925,0.010132,-0.993042,0.220855,0.523969,-0.054656,46,279,585,5696
1644174014.553858,-0.013733,0.011047,-0.992188,0.312458,0.447634,-0.207328,52,280,577,5760
1644174014.602235,-0.010681,0.009705,-0.992798,0.312458,0.478168,-0.161527,53,271,580,5696
1644174014.650596,-0.011963,0.010559,-0.992126,0.266656,0.508702,-0.024122,55,271,576,5696
1644174014.69938,-0.010681,0.009216,-0.99292,0.327725,0.462901,-0.14626,53,274,583,5664
1644174014.749673,-0.010376,0.010803,-0.992126,0.297191,0.325496,-0.085191,42,270,579,5696
1644174014.800596,-0.01062,0.011963,-0.994507,0.220855,0.294962,-0.008855,45,273,579,5632
1644174014.84554,-0.012268,0.010498,-0.992676,0.144519,0.478168,-0.161527,53,271,573,5760
1644174014.941007,-0.00824,0.010315,-0.99231,0.251389,0.294962,-0.008855,54,270,577,5760
1644174014.989385,-0.009827,0.010925,-0.991455,0.175053,0.417099,-0.024122,48,286,573,5728
1644174015.037745,-0.008484,0.010498,-0.98938,0.297191,0.371298,-0.115725,54,275,572,5696
1644174015.086538,-0.009827,0.010986,-0.989807,0.266656,0.432366,-0.115725,53,276,580,5664
1644174015.134663,-0.010254,0.008301,-0.989319,0.251389,0.585038,-0.100458,53,271,578,5712
1644174015.182928,-0.012329,0.009094,-0.992432,0.190321,0.310229,0.098015,43,276,583,5776
1644174015.231309,-0.008301,0.009155,-0.991089,0.144519,0.417099,-0.130992,46,283,571,5696
1644174015.279698,-0.01001,0.00769,-0.992615,0.281924,0.386565,-0.115725,40,273,570,5712
1644174015.328104,-0.011292,0.010681,-0.992249,0.144519,0.386565,-0.085191,60,264,571,5696
1644174015.376478,-0.01062,0.00824,-0.992798,0.159786,0.325496,-0.115725,57,275,584,5696
1644174015.424888,-0.010498,0.00824,-0.991882,0.266656,0.569771,-0.085191,48,276,583,5776
1644174015.473271,-0.01123,0.010071,-0.992737,0.251389,0.523969,-0.085191,48,264,580,5760
1644174015.521628,-0.008789,0.009521,-0.995972,0.419328,0.447634,-0.176794,46,266,583,5712
1644174015.570031,-0.012512,0.008118,-0.99353,0.052916,0.401832,-0.14626,51,293,583,5712
1644174015.618441,-0.007446,0.00946,-0.99353,0.251389,0.203359,-0.192061,57,275,575,5728
1644174015.666788,-0.011047,0.007263,-0.991882,0.113985,0.340763,0.113282,55,271,569,5728
1644174015.715206,-0.010559,0.008484,-0.992737,0.190321,0.340763,-0.054656,49,273,589,5728
1644174015.763604,-0.011963,0.007202,-0.992981,0.251389,0.371298,-0.130992,51,274,580,5696
1644174015.813258,-0.010437,0.007568,-0.993103,0.342992,0.493435,-0.100458,53,271,576,5728
1644174015.863236,-0.014771,0.008972,-0.991943,0.190321,0.401832,-0.14626,46,279,577,5728
1644174015.913677,-0.010254,0.007263,-0.993042,0.159786,0.493435,-0.161527,59,277,582,5696
1644174015.958269,-0.013855,0.007141,-0.990723,0.281924,0.386565,-0.085191,53,281,573,5712
1644174016.06526,-0.008728,0.008606,-0.994934,0.281924,0.356031,-0.054656,36,265,586,5712
1644174016.105073,-0.013672,0.008728,-0.991211,0.266656,0.172824,-0.14626,58,276,578,5712
1644174016.150722,-0.010559,0.00824,-0.990417,0.281924,0.294962,-0.039389,66,265,577,5648
1644174016.199125,-0.010254,0.008301,-0.992676,0.281924,0.401832,-0.069924,46,274,580,5776
1644174016.247481,-0.010376,0.012085,-0.992188,0.251389,0.417099,-0.130992,51,276,587,5696
1644174016.295897,-0.009949,0.014587,-0.989685,0.342992,0.24916,-0.024122,52,270,565,5712
1644174016.344303,-0.009033,0.009766,-0.990845,0.480397,0.478168,0.006412,51,274,573,5664
1644174016.392708,-0.010681,0.009033,-0.99353,0.144519,0.386565,-0.176794,58,269,566,5776
1644174016.441075,-0.013184,0.008423,-0.989868,0.327725,0.279695,-0.039389,43,281,576,5760
1644174016.489479,-0.011292,0.011414,-0.993713,0.297191,0.310229,-0.039389,57,273,572,5728
1644174016.537857,-0.01123,0.011475,-0.994324,0.205588,0.493435,-0.100458,51,276,569,5760
1644174016.586241,-0.009705,0.008911,-0.99408,0.159786,0.447634,0.021679,53,274,569,5696
1644174016.634645,-0.009949,0.008362,-0.99115,0.190321,0.401832,-0.14626,67,269,587,5712
1644174016.683064,-0.010681,0.007812,-0.993469,0.266656,0.371298,-0.161527,52,275,579,5728
1644174016.733075,-0.009399,0.005066,-0.991516,0.205588,0.417099,-0.25313,51,276,580,5696
1644174016.783314,-0.01001,0.008362,-0.99292,0.236122,0.462901,-0.222595,48,269,585,5760
1644174016.829183,-0.008606,0.008179,-0.991089,0.251389,0.462901,-0.130992,45,275,575,5728
1644174016.925407,-0.011475,0.006714,-0.992126,0.236122,0.325496,-0.085191,47,270,565,5760
1644174016.973406,-0.010864,0.005127,-0.991028,0.404061,0.401832,-0.008855,54,273,570,5712
1644174017.021777,-0.011047,0.009155,-0.992859,0.236122,0.310229,-0.039389,49,270,575,5760
1644174017.071217,-0.009521,0.012207,-0.993042,0.373527,0.371298,0.006412,46,271,583,5728
1644174017.118562,-0.010559,0.010925,-0.995239,0.342992,0.371298,-0.039389,51,274,569,5696
1644174017.166929,-0.013062,0.010193,-0.991943,0.251389,0.417099,-0.237863,51,266,576,5696
1644174017.21532,-0.010681,0.012268,-0.989868,0.220855,0.294962,-0.100458,59,273,582,5728
1644174017.26373,-0.007629,0.006531,-0.993286,0.266656,0.508702,-0.085191,55,271,583,5712
1644174017.312084,-0.008423,0.008728,-0.99353,0.129252,0.356031,-0.176794,57,282,577,5712
1644174017.360495,-0.010559,0.008179,-0.991882,0.312458,0.447634,-0.024122,54,268,582,5664
1644174017.408885,-0.010254,0.009399,-0.992798,0.312458,0.401832,-0.054656,53,283,576,5696
1644174017.45727,-0.011169,0.00824,-0.994934,0.373527,0.371298,-0.054656,57,270,575,5760
1644174017.505666,-0.013,0.007874,-0.992249,0.220855,0.401832,-0.161527,52,268,584,5696
1644174017.554074,-0.009888,0.008301,-0.99469,0.327725,0.371298,-0.130992,52,270,584,5648
1644174017.602471,-0.010254,0.008484,-0.992065,0.419328,0.386565,-0.237863,53,276,583,5776
1644174017.650846,-0.009033,0.009155,-0.99408,0.236122,0.447634,-0.039389,43,271,573,5712
1644174017.699206,-0.012207,0.010071,-0.992981,0.281924,0.478168,-0.130992,54,268,582,5728
1644174017.747598,-0.008606,0.009033,-0.993103,0.449863,0.294962,-0.130992,49,275,582,5712
1644174017.796021,-0.011414,0.007385,-0.992798,0.220855,0.356031,-0.085191,47,260,577,5776
1644174017.844663,-0.01062,0.007507,-0.99054,0.297191,0.478168,0.006412,52,273,577,5696
1644174017.896016,-0.011047,0.011169,-0.989929,0.129252,0.554504,0.052214,53,276,569,5760
1644174017.947101,-0.008728,0.010254,-0.989807,0.08345,0.340763,-0.14626,57,268,577,5776
1644174017.990825,-0.012634,0.008301,-0.992859,0.297191,0.325496,-0.130992,42,282,572,5696
1644174018.086611,-0.011475,0.008179,-0.992188,0.190321,0.462901,-0.024122,43,276,573,5712
1644174018.134897,-0.009155,0.008484,-0.990723,0.205588,0.386565,-0.130992,51,274,580,5760
1644174018.183152,-0.01239,0.00647,-0.991394,0.281924,0.386565,-0.176794,53,269,571,5728
1644174018.231523,-0.009949,0.007507,-0.990356,0.144519,0.615573,-0.115725,55,276,578,5712
1644174018.27992,-0.011108,0.011353,-0.992737,0.419328,0.462901,-0.085191,53,271,576,5728
1644174018.328296,-0.013794,0.011353,-0.992065,0.220855,0.508702,-0.008855,45,273,577,5696
1644174018.376699,-0.012695,0.010925,-0.991455,0.266656,0.462901,-0.115725,51,274,576,5728
1644174018.425202,-0.008728,0.009705,-0.994446,0.205588,0.386565,-0.008855,58,264,573,5664
1644174018.473485,-0.011047,0.011108,-0.992371,0.129252,0.24916,-0.130992,54,268,570,5664
1644174018.521903,-0.009888,0.008057,-0.994019,0.113985,0.462901,-0.161527,68,270,575,5696
1644174018.57027,-0.008423,0.009094,-0.994019,0.46513,0.462901,-0.130992,49,265,570,5696
1644174018.618655,-0.010254,0.008972,-0.99469,0.327725,0.386565,-0.054656,49,268,577,5712
1644174018.667048,-0.009949,0.010742,-0.990967,0.388794,0.447634,-0.100458,52,270,575,5808
1644174018.715429,-0.010376,0.006165,-0.988831,0.144519,0.340763,-0.130992,54,273,586,5760
1644174018.763837,-0.010254,0.008057,-0.991821,0.251389,0.340763,-0.008855,46,283,580,5728
1644174018.812285,-0.007263,0.009521,-0.990906,0.35826,0.340763,-0.085191,45,268,575,5776
1644174018.860654,-0.010925,0.012451,-0.992004,0.312458,0.325496,-0.207328,52,270,584,5696
1644174018.909325,-0.012085,0.006714,-0.990845,0.144519,0.401832,-0.115725,53,276,578,5712
1644174018.95744,-0.009644,0.009155,-0.993103,0.190321,0.417099,-0.298931,48,271,583,5696
1644174019.006966,-0.010437,0.009094,-0.991699,0.327725,0.371298,-0.085191,60,264,583,5728
1644174019.081158,-0.009705,0.007629,-0.991272,0.205588,0.310229,-0.14626,41,283,573,5712
1644174019.11688,-0.009949,0.010559,-0.99115,0.190321,0.310229,-0.161527,51,264,580,5760
1644174019.19933,-0.010742,0.01001,-0.991943,0.251389,0.371298,-0.176794,51,269,580,5728
1644174019.247712,-0.010376,0.009338,-0.992554,0.404061,0.340763,-0.069924,49,277,575,5760
1644174019.296111,-0.011108,0.009033,-0.992126,0.205588,0.294962,-0.268397,45,275,579,5712
1644174019.344519,-0.011353,0.009399,-0.990173,0.312458,0.493435,-0.115725,51,276,580,5696
1644174019.39291,-0.008179,0.007019,-0.992188,0.327725,0.371298,-0.039389,48,274,573,5728
1644174019.441269,-0.011597,0.010925,-0.990906,0.159786,0.508702,0.021679,45,270,575,5728
1644174019.489703,-0.010803,0.00592,-0.989319,0.281924,0.493435,-0.085191,57,270,584,5664
1644174019.538089,-0.007812,0.008911,-0.995117,0.404061,0.478168,-0.085191,51,279,578,5712
1644174019.586473,-0.01062,0.008728,-0.993835,0.281924,0.478168,-0.115725,49,270,572,5696
1644174019.634882,-0.009888,0.007202,-0.991638,0.312458,0.417099,-0.085191,47,277,572,5712
1644174019.683274,-0.009521,0.010498,-0.990662,0.297191,0.401832,0.036947,48,269,585,5696
1644174019.731647,-0.011414,0.009399,-0.992859,0.327725,0.478168,-0.115725,39,283,583,5664
1644174019.780041,-0.007812,0.005859,-0.991943,0.205588,0.386565,-0.069924,55,283,583,5712
1644174019.82842,-0.011169,0.007324,-0.992493,0.190321,0.401832,-0.130992,53,274,576,5776
1644174019.876861,-0.01001,0.012573,-0.990479,0.297191,0.386565,-0.161527,55,283,578,5696
1644174019.925246,-0.008484,0.009155,-0.989807,0.190321,0.417099,-0.024122,47,280,568,5664
1644174019.973639,-0.008362,0.010071,-0.991333,0.205588,0.478168,-0.161527,49,268,584,5664
1644174020.022009,-0.01001,0.009094,-0.988831,0.220855,0.417099,-0.069924,43,283,578,5696
1644174020.094748,-0.011536,0.009155,-0.993469,0.251389,0.386565,-0.008855,57,270,577,5728
1644174020.119518,-0.009033,0.008118,-0.992493,0.175053,0.462901,-0.25313,42,273,582,5728
1644174020.21554,-0.009644,0.007446,-0.991699,0.266656,0.432366,-0.222595,47,273,572,5664
1644174020.263948,-0.009277,0.009888,-0.99408,0.251389,0.447634,-0.085191,55,264,585,5760
1644174020.312408,-0.010498,0.00946,-0.993958,0.297191,0.432366,-0.039389,51,279,573,5760
1644174020.360724,-0.011658,0.008667,-0.991882,0.373527,0.386565,-0.115725,48,274,564,5760
1644174020.409088,-0.009033,0.009277,-0.989807,0.342992,0.310229,-0.192061,51,281,578,5696
1644174020.457505,-0.008972,0.008057,-0.993042,0.190321,0.462901,-0.161527,46,276,573,5696
1644174020.505866,-0.009155,0.009766,-0.993469,0.205588,0.493435,-0.192061,54,263,570,5776
1644174020.554295,-0.009521,0.006226,-0.992493,0.190321,0.356031,-0.054656,57,275,572,5760
1644174020.602696,-0.011108,0.011536,-0.990784,0.342992,0.356031,-0.14626,53,271,573,5760
1644174020.651077,-0.011169,0.012268,-0.992126,0.175053,0.386565,-0.100458,48,279,580,5728
1644174020.699444,-0.009155,0.006958,-0.994934,0.205588,0.386565,-0.130992,55,269,580,5728
1644174020.747829,-0.013367,0.009583,-0.990417,0.251389,0.325496,0.036947,48,269,583,5664
1644174020.796242,-0.011902,0.007202,-0.992432,0.251389,0.417099,-0.298931,54,270,577,5712
1644174020.844718,-0.011658,0.007629,-0.992004,0.251389,0.523969,-0.14626,47,277,579,5712
1644174020.893073,-0.011047,0.010193,-0.994141,0.190321,0.401832,-0.100458,49,282,577,5664
1644174020.941455,-0.010742,0.004639,-0.993042,0.205588,0.447634,0.021679,64,273,584,5728
1644174020.989849,-0.011841,0.010437,-0.994934,0.220855,0.462901,-0.085191,40,280,577,5728
1644174021.038297,-0.011292,0.011108,-0.993591,0.236122,0.478168,-0.100458,43,271,592,5712
1644174021.095387,-0.010803,0.008484,-0.9953,0.113985,0.310229,-0.176794,47,282,579,5712
1644174021.137356,-0.010437,0.010437,-0.99469,0.08345,0.356031,0.006412,48,274,573,5712
1644174021.186433,-0.013,0.00769,-0.993042,0.129252,0.386565,-0.054656,49,275,579,5712
1644174021.236616,-0.010681,0.007202,-0.99292,0.281924,0.325496,-0.161527,53,269,580,5712
1644174021.281066,-0.012268,0.008728,-0.99353,0.373527,0.401832,-0.100458,49,280,577,5760
1644174021.376967,-0.014282,0.007446,-0.99707,0.327725,0.264427,-0.161527,53,266,569,5712
1644174021.425354,-0.010864,0.009277,-0.994019,0.08345,0.493435,-0.008855,42,275,586,5696
1644174021.473775,-0.013123,0.010437,-0.992126,0.266656,0.325496,-0.054656,48,276,569,5776
1644174021.522411,-0.011292,0.010742,-0.994629,0.129252,0.554504,-0.176794,43,274,576,5728
1644174021.57054,-0.010132,0.009399,-0.992615,0.373527,0.508702,-0.085191,57,273,575,5712
1644174021.618938,-0.009583,0.009033,-0.990051,0.281924,0.294962,-0.069924,52,270,568,5760
1644174021.667301,-0.012634,0.008789,-0.993225,0.052916,0.310229,-0.085191,62,271,576,5664
1644174021.715708,-0.011902,0.009277,-0.99176,0.236122,0.554504,-0.176794,52,268,584,5776
1644174021.764081,-0.012146,0.011963,-0.992615,0.236122,0.462901,-0.085191,49,280,577,5664
1644174021.812498,-0.007935,0.007996,-0.992676,0.08345,0.478168,-0.085191,46,276,583,5664
1644174021.860876,-0.008972,0.007385,-0.990356,0.205588,0.371298,-0.054656,49,268,575,5696
1644174021.909256,-0.012634,0.009949,-0.993469,0.190321,0.386565,-0.008855,53,271,576,5696
1644174021.957661,-0.00946,0.007324,-0.992798,0.190321,0.356031,-0.100458,49,273,579,5712
1644174022.006024,-0.01239,0.006531,-0.994202,0.251389,0.462901,-0.024122,59,277,582,5664
1644174022.068145,-0.009888,0.008606,-0.989502,0.312458,0.462901,-0.115725,54,273,584,5648
1644174022.105467,-0.007996,0.007507,-0.993774,0.236122,0.310229,-0.039389,46,276,583,5712
1644174022.151184,-0.008972,0.008118,-0.992859,0.220855,0.310229,0.052214,51,271,580,5712
1644174022.199573,-0.009766,0.011353,-0.993164,0.144519,0.417099,-0.054656,49,275,577,5664
1644174022.248227,-0.007141,0.007446,-0.994873,0.175053,0.386565,-0.039389,49,275,579,5760
1644174022.297078,-0.009949,0.012268,-0.992676,0.327725,0.462901,-0.192061,58,279,573,5776
1644174022.347687,-0.010071,0.008545,-0.991943,0.205588,0.462901,-0.008855,43,274,580,5712
1644174022.397789,-0.012268,0.012146,-0.991089,0.220855,0.401832,-0.100458,48,283,580,5728
1644174022.442843,-0.011597,0.009338,-0.99231,0.068183,0.417099,-0.085191,58,269,580,5728
1644174022.538297,-0.011353,0.007874,-0.992432,0.327725,0.356031,0.052214,51,279,566,5760
1644174022.586693,-0.008667,0.010315,-0.994812,0.327725,0.432366,-0.100458,49,270,584,5728
1644174022.635317,-0.00824,0.007446,-0.990784,0.251389,0.294962,-0.130992,48,276,578,5664
1644174022.683476,-0.01062,0.008179,-0.989685,0.175053,0.371298,0.021679,48,266,580,5728
1644174022.731869,-0.009888,0.008118,-0.992065,0.327725,0.340763,-0.039389,53,269,571,5696
1644174022.780262,-0.007812,0.00708,-0.992065,0.159786,0.569771,-0.237863,41,281,573,5648
1644174022.828683,-0.007324,0.009155,-0.992615,0.175053,0.356031,-0.115725,40,277,579,5696
1644174022.877081,-0.011658,0.010986,-0.99353,0.281924,0.447634,-0.024122,41,279,578,5648
1644174022.925477,-0.011047,0.008911,-0.991455,0.236122,0.432366,-0.130992,48,281,569,5696
1644174022.973893,-0.010559,0.009827,-0.989929,0.236122,0.493435,-0.054656,45,282,579,5664
1644174023.022261,-0.011597,0.01001,-0.99292,0.220855,0.294962,-0.25313,58,274,578,5696
1644174023.076908,-0.010803,0.007874,-0.991272,0.236122,0.447634,0.143817,53,279,580,5584
1644174023.119024,-0.010681,0.006592,-0.990417,0.205588,0.417099,-0.130992,52,265,582,5664
1644174023.167393,-0.010803,0.01001,-0.990479,0.220855,0.417099,-0.207328,49,265,586,5760
1644174023.215783,-0.007263,0.009766,-0.993347,0.251389,0.417099,-0.069924,55,279,566,5648
1644174023.264174,-0.010498,0.007446,-0.991455,0.129252,0.432366,0.067481,40,277,582,5760
1644174023.312575,-0.010986,0.010559,-0.990784,0.35826,0.279695,-0.039389,43,279,571,5648
1644174023.360942,-0.009033,0.00946,-0.994934,0.312458,0.386565,0.006412,45,280,579,5728
1644174023.409397,-0.007812,0.007935,-0.993225,0.159786,0.432366,-0.039389,48,271,576,5696
1644174023.458174,-0.011536,0.007874,-0.991394,0.297191,0.340763,-0.207328,43,266,585,5696
1644174023.508791,-0.010864,0.011047,-0.993713,0.175053,0.493435,-0.115725,51,276,573,5664
1644174023.558806,-0.009888,0.010681,-0.992004,0.35826,0.401832,0.036947,43,281,571,5712
1644174023.603825,-0.010132,0.009399,-0.991272,0.113985,0.401832,0.006412,46,266,578,5664
1644174023.699677,-0.011475,0.008057,-0.994812,0.220855,0.371298,-0.085191,51,274,583,5760
1644174023.748058,-0.009094,0.009827,-0.99231,0.312458,0.417099,-0.085191,49,265,577,5696
1644174023.796445,-0.007507,0.009338,-0.988647,0.098718,0.462901,-0.14626,49,265,582,5728
1644174023.844887,-0.009521,0.010376,-0.989624,0.342992,0.401832,-0.054656,45,277,575,5696
1644174023.89331,-0.012817,0.008484,-0.990417,0.220855,0.508702,-0.115725,61,280,570,5760
1644174023.941679,-0.010193,0.010437,-0.992676,0.113985,0.310229,-0.069924,51,274,571,5712
1644174023.990077,-0.008911,0.012573,-0.989624,0.190321,0.356031,-0.008855,48,274,578,5696
1644174024.038469,-0.008789,0.009705,-0.991638,0.144519,0.432366,-0.100458,58,266,576,5712
1644174024.092915,-0.008545,0.009338,-0.991882,0.175053,0.493435,0.159084,54,280,568,5696
1644174024.135319,-0.008789,0.008484,-0.992126,0.281924,0.371298,-0.25313,46,274,573,5760
1644174024.183615,-0.010803,0.009827,-0.989136,0.312458,0.340763,-0.14626,45,268,577,5728
1644174024.231992,-0.008789,0.011719,-0.988159,0.297191,0.356031,-0.024122,53,279,580,5760
1644174024.280386,-0.012024,0.009949,-0.991577,0.236122,0.356031,-0.25313,49,270,568,5696
1644174024.328765,-0.010986,0.008423,-0.992554,0.297191,0.417099,-0.008855,35,280,582,5728
1644174024.377185,-0.010437,0.007874,-0.993469,0.251389,0.340763,-0.069924,49,282,572,5712
1644174024.42572,-0.009644,0.007507,-0.993713,0.190321,0.386565,-0.176794,47,265,582,5712
1644174024.47613,-0.010498,0.006592,-0.995117,0.312458,0.371298,-0.115725,52,268,575,5696
1644174024.526404,-0.011047,0.012085,-0.994202,0.220855,0.371298,-0.100458,52,275,572,5696
1644174024.571412,-0.010742,0.009705,-0.990723,0.037649,0.264427,-0.161527,51,271,590,5696
1644174024.667487,-0.009888,0.008789,-0.991333,0.312458,0.386565,-0.039389,59,275,577,5728
1644174024.715879,-0.008789,0.010986,-0.99115,0.266656,0.417099,-0.130992,48,274,569,5712
1644174024.764263,-0.01178,0.010254,-0.991394,0.144519,0.310229,-0.008855,46,274,569,5728
1644174024.812698,-0.01062,0.008728,-0.991089,0.113985,0.325496,-0.069924,49,275,570,5760
1644174024.861106,-0.011414,0.008911,-0.98999,0.342992,0.340763,-0.008855,42,270,582,5728
1644174024.909494,-0.012695,0.009827,-0.99231,0.190321,0.356031,-0.192061,42,280,584,5728
1644174024.957889,-0.006958,0.009949,-0.99231,0.205588,0.340763,-0.008855,47,275,584,5760
1644174025.006278,-0.00946,0.009155,-0.993164,0.220855,0.371298,0.006412,46,281,585,5712
1644174025.064806,-0.010742,0.00885,-0.990112,0.098718,0.401832,0.067481,51,279,573,5728
1644174025.103068,-0.009705,0.00946,-0.991821,0.113985,0.447634,-0.176794,49,275,586,5696
1644174025.151413,-0.009155,0.006653,-0.99353,0.236122,0.554504,0.052214,51,286,571,5712
1644174025.199812,-0.010071,0.010803,-0.991821,0.220855,0.554504,0.021679,53,274,573,5760
1644174025.248177,-0.012939,0.011047,-0.994019,0.297191,0.325496,-0.14626,51,279,580,5664
1644174025.296587,-0.011292,0.007812,-0.991699,0.251389,0.401832,-0.054656,48,276,571,5728
1644174025.345016,-0.009583,0.009521,-0.992004,0.220855,0.310229,-0.222595,45,273,575,5776
1644174025.393382,-0.010986,0.009827,-0.991699,0.251389,0.386565,-0.039389,42,280,570,5728
1644174025.441754,-0.008972,0.00647,-0.995117,0.388794,0.417099,-0.008855,46,271,578,5728
1644174025.490167,-0.010315,0.011169,-0.99353,0.052916,0.386565,-0.100458,58,269,578,5712
1644174025.538538,-0.012268,0.007324,-0.991638,0.312458,0.600305,0.006412,55,281,578,5664
1644174025.586949,-0.012207,0.011292,-0.99115,0.022382,0.508702,-0.069924,62,276,576,5728
1644174025.63736,-0.008362,0.009766,-0.990479,0.220855,0.493435,-0.024122,47,268,575,5696
1644174025.687763,-0.008484,0.010925,-0.994873,0.205588,0.401832,-0.161527,52,277,579,5648
1644174025.732499,-0.00946,0.009705,-0.993713,0.190321,0.478168,-0.100458,41,274,576,5664
1644174025.828872,-0.007812,0.010803,-0.993164,0.144519,0.432366,-0.161527,45,275,572,5664
1644174025.877307,-0.010071,0.010925,-0.990723,0.220855,0.233893,-0.100458,49,282,575,5648
1644174025.925702,-0.011047,0.01001,-0.99115,0.35826,0.356031,-0.130992,52,280,579,5696
1644174025.974087,-0.012512,0.012878,-0.992432,0.129252,0.325496,-0.085191,43,271,580,5696
1644174026.022503,-0.011169,0.008789,-0.991943,0.236122,0.417099,-0.237863,54,285,586,5712
1644174026.071123,-0.009521,0.01239,-0.991028,0.144519,0.356031,-0.039389,45,275,572,5760
1644174026.119253,-0.011475,0.008911,-0.99176,0.495664,0.478168,-0.14626,43,288,576,5696
1644174026.167589,-0.008606,0.00885,-0.994019,0.236122,0.417099,-0.115725,45,265,579,5712
1644174026.216014,-0.012207,0.009827,-0.990723,0.312458,0.447634,-0.100458,55,266,571,5712
1644174026.264372,-0.012451,0.007874,-0.993286,0.220855,0.371298,-0.024122,55,276,578,5664
1644174026.312819,-0.013489,0.01123,-0.992065,0.236122,0.294962,-0.115725,45,265,570,5664
1644174026.36118,-0.011536,0.010254,-0.99585,0.190321,0.585038,-0.207328,43,279,578,5728
1644174026.409583,-0.010376,0.009033,-0.993164,0.312458,0.462901,-0.115725,47,268,570,5728
1644174026.457956,-0.011047,0.009644,-0.992798,0.297191,0.432366,-0.14626,52,273,575,5808
1644174026.506338,-0.010742,0.00769,-0.992065,0.220855,0.462901,-0.176794,38,282,575,5728
1644174026.554757,-0.009949,0.006165,-0.994507,0.266656,0.340763,0.006412,55,269,578,5696
1644174026.603151,-0.012024,0.00647,-0.993103,0.297191,0.493435,-0.100458,51,281,583,5760
1644174026.651564,-0.008911,0.006958,-0.993042,0.236122,0.340763,-0.192061,47,280,565,5712
1644174026.699965,-0.012207,0.010254,-0.992615,0.342992,0.432366,0.006412,57,275,575,5664
1644174026.74869,-0.010376,0.008057,-0.991089,0.297191,0.386565,-0.192061,55,274,576,5728
1644174026.799123,-0.010742,0.009521,-0.994324,0.220855,0.371298,-0.069924,51,281,573,5760
1644174026.849924,-0.008667,0.007385,-0.991333,0.159786,0.539237,-0.039389,48,276,580,5712
1644174026.894738,-0.011902,0.009521,-0.992249,0.312458,0.233893,-0.14626,51,271,566,5696
1644174026.990303,-0.009216,0.010071,-0.991882,0.251389,0.417099,-0.25313,47,275,575,5696
1644174027.038696,-0.009155,0.008484,-0.993103,0.404061,0.462901,-0.14626,55,276,571,5712
1644174027.087158,-0.011047,0.008667,-0.992615,0.098718,0.478168,-0.176794,48,281,583,5696
1644174027.135465,-0.010315,0.009949,-0.98999,0.220855,0.401832,0.006412,39,283,578,5696
1644174027.183829,-0.008972,0.008362,-0.992615,0.388794,0.340763,-0.14626,48,274,585,5712
1644174027.23239,-0.009827,0.008301,-0.990479,0.205588,0.233893,-0.14626,40,280,572,5728
1644174027.280576,-0.011047,0.008606,-0.993286,0.08345,0.325496,0.021679,48,269,578,5712
1644174027.328997,-0.011108,0.009277,-0.993835,0.129252,0.493435,0.006412,38,275,577,5776
1644174027.377388,-0.00946,0.011475,-0.994507,0.205588,0.432366,-0.130992,47,273,582,5728
1644174027.42576,-0.011353,0.009827,-0.992126,0.327725,0.401832,-0.008855,53,283,566,5664
1644174027.474172,-0.014343,0.007935,-0.991577,0.342992,0.371298,-0.161527,53,281,573,5760
1644174027.522578,-0.011108,0.006653,-0.990601,0.205588,0.356031,-0.207328,53,269,580,5776
1644174027.570946,-0.007019,0.012268,-0.994446,0.35826,0.294962,-0.039389,49,287,575,5712
1644174027.619349,-0.009277,0.008362,-0.990845,0.129252,0.310229,-0.130992,51,269,571,5712
1644174027.667731,-0.011536,0.007935,-0.992371,0.159786,0.340763,-0.069924,53,271,578,5728
1644174027.716117,-0.007324,0.009399,-0.991455,0.266656,0.493435,-0.130992,52,265,577,5664
1644174027.764513,-0.009949,0.008423,-0.990234,0.266656,0.417099,-0.085191,52,277,579,5664
1644174027.81292,-0.011902,0.009033,-0.994141,0.251389,0.554504,-0.161527,48,274,571,5808
1644174027.861343,-0.010132,0.006348,-0.994141,0.098718,0.371298,-0.024122,52,268,586,5728
1644174027.911211,-0.008545,0.011597,-0.993164,0.327725,0.508702,-0.085191,35,275,582,5728
1644174027.961435,-0.01001,0.006775,-0.992859,0.297191,0.508702,-0.024122,46,274,590,5696
1644174028.064322,-0.009888,0.009644,-0.99176,0.175053,0.356031,-0.039389,53,274,580,5760
1644174028.104719,-0.008118,0.010925,-0.993652,0.113985,0.447634,-0.100458,55,281,585,5664
1644174028.15165,-0.009277,0.012085,-0.990295,0.113985,0.386565,-0.100458,49,280,582,5728
1644174028.200037,-0.010254,0.010864,-0.994446,0.266656,0.554504,-0.069924,52,280,575,5664
1644174028.24839,-0.008789,0.009766,-0.988953,0.190321,0.462901,-0.054656,55,269,578,5696
1644174028.296813,-0.010925,0.008789,-0.991577,0.175053,0.401832,-0.069924,58,276,571,5712
1644174028.345302,-0.010681,0.010071,-0.992249,0.220855,0.264427,-0.085191,53,271,573,5664
1644174028.393603,-0.009033,0.009338,-0.992676,0.175053,0.447634,-0.161527,47,265,586,5664
1644174028.441986,-0.009949,0.00885,-0.991577,0.251389,0.447634,-0.161527,49,280,584,5696
1644174028.490392,-0.010376,0.007202,-0.991516,0.342992,0.478168,-0.085191,48,274,580,5664
1644174028.538774,-0.012878,0.008362,-0.98999,0.373527,0.356031,-0.039389,53,276,583,5648
1644174028.587159,-0.011597,0.012268,-0.990417,0.190321,0.508702,-0.176794,43,274,573,5696
1644174028.635547,-0.008789,0.011658,-0.991089,0.129252,0.401832,-0.054656,52,273,582,5776
1644174028.683907,-0.010437,0.009033,-0.99353,0.236122,0.493435,0.021679,52,275,577,5664
1644174028.732518,-0.012878,0.010315,-0.992493,0.159786,0.310229,0.006412,43,266,576,5712
1644174028.782928,-0.00885,0.005981,-0.992432,0.236122,0.478168,-0.207328,57,273,579,5728
1644174028.833267,-0.009094,0.009766,-0.992737,0.220855,0.356031,-0.130992,49,268,572,5712
1644174028.879174,-0.011475,0.007874,-0.990723,0.190321,0.462901,-0.069924,49,268,584,5760
1644174028.974337,-0.010254,0.011169,-0.992859,0.205588,0.371298,-0.054656,45,273,577,5776
1644174029.022737,-0.009705,0.011719,-0.994568,0.068183,0.417099,-0.161527,55,276,573,5712
1644174029.071174,-0.01001,0.00885,-0.991333,0.312458,0.539237,0.113282,57,273,589,5712
1644174029.119407,-0.011902,0.009155,-0.99054,0.052916,0.371298,-0.130992,54,282,575,5712
1644174029.16783,-0.010132,0.011353,-0.993164,0.251389,0.233893,-0.115725,49,268,570,5664
1644174029.216233,-0.010071,0.006104,-0.993347,0.144519,0.325496,-0.115725,43,279,576,5728
1644174029.264629,-0.011902,0.010132,-0.995117,0.266656,0.340763,-0.039389,48,283,578,5728
1644174029.313006,-0.009521,0.010925,-0.993042,0.205588,0.417099,-0.069924,51,276,587,5664
1644174029.361403,-0.008667,0.008179,-0.994995,0.251389,0.401832,-0.100458,53,276,580,5776
1644174029.409805,-0.010803,0.010254,-0.991821,0.159786,0.371298,-0.024122,53,274,583,5712
1644174029.458197,-0.011902,0.00885,-0.990723,0.190321,0.340763,-0.039389,47,270,575,5664
1644174029.506588,-0.009277,0.008423,-0.992126,0.251389,0.417099,-0.176794,55,271,580,5760
1644174029.5551,-0.010193,0.009827,-0.994568,0.052916,0.401832,-0.085191,59,280,584,5696
1644174029.603375,-0.007629,0.009827,-0.991577,0.266656,0.554504,-0.054656,55,283,583,5664
1644174029.651759,-0.010193,0.008972,-0.993347,0.220855,0.401832,-0.100458,57,265,577,5760
1644174029.700134,-0.01062,0.008667,-0.992859,0.08345,0.417099,-0.100458,46,274,580,5712
1644174029.748533,-0.01001,0.010071,-0.991333,0.281924,0.279695,-0.069924,51,279,580,5664
1644174029.797357,-0.012024,0.008545,-0.991821,0.373527,0.371298,-0.176794,47,280,582,5760
1644174029.845403,-0.009338,0.010376,-0.992859,0.190321,0.340763,-0.115725,55,274,576,5760
1644174029.89562,-0.007935,0.00946,-0.994934,0.129252,0.462901,-0.161527,51,279,573,5696
1644174029.944857,-0.011292,0.010193,-0.991943,0.281924,0.371298,-0.176794,51,286,569,5696
1644174029.99553,-0.010071,0.008911,-0.990845,0.251389,0.401832,-0.115725,46,276,585,5728
1644174030.039926,-0.011536,0.010742,-0.991943,0.236122,0.386565,-0.069924,54,273,565,5696
1644174030.135652,-0.011963,0.010254,-0.994507,0.297191,0.386565,-0.100458,58,276,580,5712
1644174030.184053,-0.011353,0.011719,-0.992432,0.281924,0.447634,-0.008855,51,269,576,5664
1644174030.232446,-0.00946,0.006836,-0.994995,0.113985,0.386565,0.036947,52,268,575,5664
1644174030.280828,-0.009216,0.009827,-0.991943,0.190321,0.371298,-0.008855,53,276,573,5760
1644174030.329205,-0.007935,0.008972,-0.990906,0.220855,0.340763,-0.069924,43,276,578,5664
1644174030.377607,-0.011414,0.010071,-0.994324,0.159786,0.569771,-0.130992,51,274,578,5728
1644174030.426013,-0.008789,0.00824,-0.993591,0.281924,0.432366,-0.130992,51,266,576,5760
1644174030.474401,-0.011597,0.006775,-0.991516,0.251389,0.508702,-0.268397,57,273,575,5664
1644174030.522818,-0.010742,0.01001,-0.992554,0.205588,0.386565,-0.25313,59,275,577,5776
1644174030.571158,-0.012878,0.007751,-0.991943,0.205588,0.432366,0.006412,52,270,577,5696
1644174030.619566,-0.010376,0.011841,-0.99408,0.190321,0.523969,-0.085191,55,264,578,5760
1644174030.667959,-0.011719,0.008118,-0.993591,0.251389,0.523969,-0.130992,49,277,575,5696
1644174030.716354,-0.01001,0.010986,-0.991516,0.220855,0.371298,-0.192061,51,281,564,5664
1644174030.764745,-0.011597,0.009521,-0.990479,0.388794,0.569771,-0.069924,54,282,570,5776
1644174030.813193,-0.010559,0.008057,-0.990723,0.220855,0.478168,-0.14626,54,285,579,5760
1644174030.861564,-0.011597,0.007568,-0.992004,0.281924,0.432366,-0.085191,53,269,578,5776
1644174030.909954,-0.008484,0.010071,-0.991333,0.251389,0.340763,-0.008855,52,275,582,5696
1644174030.958347,-0.010132,0.011108,-0.994385,0.281924,0.340763,0.006412,49,277,591,5712
1644174031.00675,-0.008545,0.008362,-0.991272,0.190321,0.386565,-0.161527,54,275,568,5824
1644174031.074749,-0.008301,0.009583,-0.994507,0.220855,0.371298,-0.069924,49,275,577,5728
1644174031.116107,-0.009521,0.008728,-0.993286,0.312458,0.417099,-0.176794,53,281,578,5728
1644174031.156124,-0.008667,0.009888,-0.991272,0.144519,0.508702,-0.100458,52,277,579,5776
1644174031.201125,-0.012634,0.007812,-0.992737,0.312458,0.401832,-0.115725,57,277,575,5648
1644174031.297018,-0.009338,0.008179,-0.991516,0.266656,0.401832,-0.207328,57,273,577,5728
1644174031.345419,-0.012939,0.011292,-0.994202,0.251389,0.386565,-0.024122,54,277,575,5728
1644174031.393829,-0.007019,0.009277,-0.989197,0.388794,0.432366,-0.054656,54,270,579,5712
1644174031.442234,-0.011169,0.009216,-0.991455,0.098718,0.478168,-0.192061,45,270,572,5728
1644174031.490616,-0.013184,0.009338,-0.991821,0.297191,0.493435,-0.054656,54,273,577,5712
1644174031.538981,-0.012085,0.008057,-0.993042,0.388794,0.432366,-0.192061,60,271,580,5712
1644174031.587376,-0.010925,0.011353,-0.990967,0.342992,0.340763,-0.008855,42,280,584,5696
1644174031.635772,-0.010376,0.010803,-0.992615,0.098718,0.371298,-0.176794,43,281,578,5696
1644174031.684172,-0.009766,0.007629,-0.993225,0.251389,0.462901,-0.100458,54,282,572,5696
1644174031.732583,-0.012085,0.009155,-0.993103,0.281924,0.340763,-0.14626,51,269,573,5712
1644174031.780947,-0.009094,0.009766,-0.992432,0.251389,0.310229,-0.085191,51,271,578,5760
1644174031.829382,-0.010864,0.010376,-0.995667,0.342992,0.386565,-0.130992,51,286,573,5760
1644174031.877769,-0.01001,0.006897,-0.992065,0.159786,0.432366,-0.085191,61,277,579,5696
1644174031.926157,-0.01355,0.006775,-0.994263,0.266656,0.340763,-0.008855,57,273,579,5728
1644174031.974548,-0.010559,0.009338,-0.992065,0.098718,0.325496,-0.207328,52,268,570,5728
1644174032.022953,-0.008667,0.008545,-0.993408,0.129252,0.447634,-0.085191,54,282,577,5776
1644174032.093179,-0.009583,0.008118,-0.995361,0.266656,0.371298,-0.054656,51,274,578,5712
1644174032.124714,-0.011108,0.007935,-0.992065,0.251389,0.340763,-0.100458,41,274,585,5696
1644174032.168607,-0.008728,0.007874,-0.993774,0.098718,0.356031,-0.192061,33,270,572,5760
1644174032.264925,-0.010315,0.01001,-0.990051,0.236122,0.462901,-0.039389,47,268,582,5696
1644174032.313262,-0.011169,0.009827,-0.99115,0.205588,0.401832,-0.344733,48,269,573,5728
1644174032.36164,-0.007019,0.009644,-0.994141,0.312458,0.233893,-0.130992,46,279,569,5648
1644174032.410024,-0.010925,0.008057,-0.990662,0.251389,0.417099,-0.115725,45,270,584,5760
1644174032.458415,-0.013184,0.008423,-0.994568,0.098718,0.386565,-0.039389,41,274,578,5760
1644174032.506799,-0.010193,0.011902,-0.989685,0.312458,0.523969,-0.161527,55,274,571,5712
1644174032.555194,-0.009644,0.008789,-0.991089,0.144519,0.371298,-0.100458,57,277,577,5712
1644174032.603595,-0.009155,0.007507,-0.996094,0.251389,0.386565,-0.115725,53,266,583,5696
1644174032.651989,-0.00885,0.012146,-0.991028,0.342992,0.600305,-0.176794,55,269,578,5648
1644174032.700374,-0.008667,0.011902,-0.992737,0.175053,0.356031,-0.115725,59,270,575,5696
1644174032.748745,-0.007996,0.011475,-0.990234,0.251389,0.386565,-0.222595,49,280,570,5760
1644174032.797159,-0.011353,0.009705,-0.991638,0.251389,0.371298,-0.085191,49,275,572,5696
1644174032.845589,-0.009277,0.008301,-0.992371,0.205588,0.493435,-0.161527,57,275,575,5712
1644174032.893976,-0.014343,0.008362,-0.991638,0.251389,0.508702,-0.176794,49,282,575,5696
1644174032.942392,-0.011902,0.010071,-0.994019,0.266656,0.386565,-0.024122,61,270,572,5696
1644174032.990761,-0.010742,0.00946,-0.991394,0.159786,0.371298,-0.069924,36,269,564,5728
1644174033.039144,-0.012207,0.010559,-0.993652,0.159786,0.264427,-0.024122,54,273,579,5760
1644174033.09065,-0.009644,0.008362,-0.989502,0.175053,0.462901,-0.039389,48,274,585,5728
1644174033.136074,-0.011108,0.009827,-0.990723,0.220855,0.478168,-0.130992,49,277,570,5776
1644174033.184964,-0.008972,0.009888,-0.993408,0.312458,0.447634,0.006412,48,269,580,5728
1644174033.235313,-0.010559,0.006042,-0.993347,0.205588,0.417099,-0.100458,53,276,569,5664
1644174033.285456,-0.009277,0.008789,-0.994568,0.113985,0.432366,-0.222595,57,277,577,5760
1644174033.330442,-0.010132,0.008362,-0.993896,0.251389,0.279695,-0.192061,52,277,565,5728
1644174033.426238,-0.008789,0.011047,-0.988525,0.190321,0.432366,0.036947,61,273,572,5696
1644174033.474858,-0.013611,0.008667,-0.99353,0.266656,0.432366,-0.085191,52,270,582,5760
1644174033.522995,-0.009644,0.009033,-0.990051,0.175053,0.356031,-0.085191,53,266,578,5712
1644174033.571395,-0.009216,0.007568,-0.991089,0.220855,0.371298,-0.039389,47,275,568,5760
1644174033.619789,-0.008789,0.009583,-0.990845,0.236122,0.493435,-0.085191,52,273,575,5808
1644174033.668185,-0.00885,0.006653,-0.990112,0.281924,0.585038,-0.024122,60,281,583,5712
1644174033.716574,-0.011963,0.007202,-0.993774,0.35826,0.371298,-0.054656,51,279,578,5728
1644174033.765013,-0.012207,0.009705,-0.992737,0.175053,0.233893,-0.100458,38,290,577,5728
1644174033.813371,-0.012268,0.008423,-0.993103,0.129252,0.401832,-0.054656,45,270,577,5728
1644174033.861808,-0.009827,0.009277,-0.992188,0.113985,0.432366,0.021679,43,269,576,5664
1644174033.910158,-0.01239,0.008911,-0.98999,0.236122,0.417099,-0.085191,49,275,572,5776
1644174033.958577,-0.010803,0.008057,-0.993103,0.190321,0.462901,-0.100458,55,283,576,5696
1644174034.006937,-0.011963,0.010315,-0.992493,0.266656,0.447634,-0.161527,51,281,576,5648
1644174034.065413,-0.008057,0.011292,-0.992554,0.373527,0.432366,-0.115725,51,274,580,5760
1644174034.106146,-0.009766,0.007629,-0.990906,0.342992,0.447634,-0.161527,46,276,576,5664
1644174034.152156,-0.009216,0.007751,-0.99231,0.220855,0.447634,-0.024122,47,277,575,5696
1644174034.200488,-0.009644,0.011475,-0.991211,0.144519,0.386565,-0.054656,47,277,575,5776
1644174034.248858,-0.008728,0.007812,-0.991455,0.175053,0.386565,-0.008855,51,279,578,5696
1644174034.297248,-0.011902,0.009888,-0.992126,0.220855,0.279695,-0.14626,47,282,589,5696
1644174034.346097,-0.011169,0.007629,-0.990356,0.129252,0.401832,-0.14626,59,265,570,5664
1644174034.396656,-0.009583,0.01001,-0.991882,0.052916,0.447634,-0.054656,54,275,577,5664
1644174034.446843,-0.010925,0.008972,-0.991699,0.175053,0.279695,0.021679,49,273,572,5760
1644174034.492195,-0.011475,0.008301,-0.992737,0.312458,0.386565,-0.069924,48,276,571,5760
1644174034.587592,-0.010437,0.008301,-0.994324,0.08345,0.417099,-0.100458,57,277,568,5712
1644174034.635984,-0.008484,0.007935,-0.992615,0.281924,0.401832,0.082748,52,273,577,5728
1644174034.684393,-0.009766,0.008545,-0.99115,0.190321,0.585038,-0.268397,45,280,563,5776
1644174034.732793,-0.011841,0.01062,-0.994019,0.236122,0.340763,-0.115725,58,274,566,5632
1644174034.781155,-0.011658,0.010315,-0.991333,0.297191,0.478168,-0.130992,48,264,573,5696
1644174034.829566,-0.010315,0.006714,-0.992126,0.113985,0.325496,-0.14626,49,280,568,5664
1644174034.877998,-0.011292,0.00769,-0.991211,0.190321,0.417099,-0.069924,62,279,571,5728
1644174034.926388,-0.011353,0.007446,-0.990723,0.129252,0.432366,-0.069924,57,268,570,5712
1644174034.974774,-0.008911,0.009155,-0.991455,0.205588,0.401832,-0.024122,49,270,572,5712
1644174035.023177,-0.01001,0.008789,-0.990051,0.190321,0.24916,-0.130992,55,271,585,5712
1644174035.083227,-0.009949,0.011292,-0.993286,0.190321,0.386565,0.067481,46,276,578,5712
1644174035.119967,-0.009338,0.011963,-0.992981,0.281924,0.447634,-0.054656,52,275,579,5712
1644174035.168316,-0.010376,0.00708,-0.992737,0.113985,0.432366,-0.008855,49,273,579,5664
1644174035.2167,-0.01123,0.009399,-0.990479,0.205588,0.356031,-0.176794,46,286,576,5760
1644174035.265128,-0.010986,0.012085,-0.99231,0.220855,0.371298,-0.14626,53,269,576,5664
1644174035.31348,-0.010803,0.008606,-0.992615,0.129252,0.356031,-0.069924,51,279,576,5728
1644174035.361876,-0.009094,0.008972,-0.993103,0.129252,0.325496,-0.161527,61,275,575,5712
1644174035.410652,-0.010376,0.009705,-0.991211,0.388794,0.432366,-0.130992,57,285,568,5728
1644174035.458655,-0.009399,0.010559,-0.99353,0.113985,0.401832,-0.115725,58,283,585,5712
1644174035.507138,-0.013123,0.007812,-0.988708,0.266656,0.371298,-0.024122,51,281,585,5664
1644174035.557733,-0.011963,0.009216,-0.993896,0.236122,0.447634,-0.25313,52,273,575,5760
1644174035.607788,-0.012207,0.007812,-0.993347,0.236122,0.386565,0.006412,45,270,579,5696
1644174035.652892,-0.009094,0.008789,-0.991028,-0.008153,0.371298,-0.024122,43,283,569,5712
1644174035.748975,-0.009766,0.009033,-0.99054,0.08345,0.386565,-0.069924,58,271,580,5760
1644174035.79737,-0.011414,0.00824,-0.992798,0.144519,0.432366,-0.115725,52,270,575,5712
1644174035.84575,-0.011475,0.009521,-0.993835,0.281924,0.356031,-0.054656,52,275,563,5664
1644174035.894221,-0.012634,0.008972,-0.990356,0.236122,0.447634,-0.100458,49,263,577,5664
1644174035.94258,-0.008423,0.009583,-0.991455,0.205588,0.24916,0.052214,53,271,566,5728
1644174035.99095,-0.006165,0.006958,-0.992371,0.327725,0.386565,-0.192061,43,283,576,5696
1644174036.039367,-0.011902,0.009583,-0.995667,0.144519,0.325496,0.036947,53,271,580,5728
1644174036.08785,-0.011536,0.009338,-0.990295,0.266656,0.340763,-0.176794,47,280,582,5648
1644174036.136158,-0.013245,0.008301,-0.996765,0.144519,0.523969,-0.130992,53,276,580,5648
1644174036.184521,-0.01355,0.009277,-0.993958,0.236122,0.371298,-0.054656,54,268,584,5760
1644174036.232905,-0.010498,0.008423,-0.994934,0.236122,0.340763,-0.008855,51,274,562,5760
1644174036.281287,-0.011719,0.01001,-0.993164,0.388794,0.462901,-0.069924,45,268,577,5712
1644174036.329674,-0.008179,0.008484,-0.992126,0.236122,0.462901,-0.161527,51,271,576,5728
1644174036.378532,-0.011719,0.008972,-0.993286,0.144519,0.371298,-0.100458,57,280,584,5664
1644174036.426451,-0.010132,0.010132,-0.992859,0.113985,0.371298,-0.085191,49,273,577,5760
1644174036.475016,-0.010986,0.008667,-0.99231,0.327725,0.432366,-0.054656,55,281,576,5760
1644174036.524302,-0.011169,0.01001,-0.99231,0.419328,0.401832,-0.161527,48,274,580,5696
1644174036.575,-0.01062,0.009705,-0.992249,0.144519,0.310229,-0.039389,58,276,573,5696
1644174036.624896,-0.010742,0.009583,-0.992981,0.175053,0.356031,-0.085191,41,271,576,5696
1644174036.716857,-0.011597,0.010315,-0.991516,0.175053,0.523969,-0.100458,54,280,575,5728
1644174036.76539,-0.010437,0.009033,-0.990417,0.098718,0.401832,-0.176794,55,279,583,5728
1644174036.813594,-0.009888,0.00885,-0.992554,0.190321,0.310229,-0.069924,48,269,580,5760
1644174036.861959,-0.01001,0.007568,-0.992065,0.251389,0.386565,-0.054656,55,279,564,5712
1644174036.910397,-0.009521,0.009766,-0.995117,0.251389,0.539237,-0.054656,52,270,572,5760
1644174036.958784,-0.011414,0.00885,-0.993652,0.297191,0.325496,-0.130992,41,274,566,5664
1644174037.007184,-0.009521,0.007385,-0.994873,0.159786,0.478168,-0.176794,59,270,579,5808
1644174037.066339,-0.008545,0.009583,-0.993286,0.266656,0.401832,-0.14626,55,269,585,5712
1644174037.103961,-0.008118,0.009766,-0.993591,0.281924,0.294962,-0.207328,55,274,576,5728
1644174037.152378,-0.013611,0.008301,-0.990662,0.190321,0.447634,-0.100458,48,271,571,5712
1644174037.200745,-0.011169,0.012451,-0.993164,0.404061,0.447634,-0.100458,51,266,578,5808
1644174037.249113,-0.010864,0.008789,-0.994385,0.266656,0.447634,-0.069924,49,273,575,5664
1644174037.297507,-0.009094,0.009521,-0.993591,0.220855,0.340763,-0.069924,49,280,579,5728
1644174037.345931,-0.011902,0.009705,-0.990906,0.190321,0.432366,-0.008855,39,269,576,5696
1644174037.394324,-0.009705,0.009277,-0.993408,0.281924,0.462901,-0.115725,52,268,577,5760
1644174037.44272,-0.012939,0.007996,-0.992615,0.220855,0.356031,-0.085191,62,276,580,5664
1644174037.491105,-0.009827,0.007996,-0.993164,0.159786,0.432366,-0.069924,46,276,576,5776
1644174037.539814,-0.01178,0.006714,-0.991821,0.281924,0.447634,-0.176794,48,276,576,5712
1644174037.587869,-0.013855,0.009338,-0.993408,0.205588,0.478168,-0.115725,48,264,578,5696
1644174037.637834,-0.008362,0.007019,-0.993774,0.190321,0.340763,-0.115725,43,283,573,5712
1644174037.688154,-0.012085,0.010559,-0.991516,0.220855,0.294962,-0.222595,51,283,569,5728
1644174037.738507,-0.010681,0.009521,-0.995239,0.251389,0.417099,-0.115725,49,270,579,5712
1644174037.782846,-0.007568,0.009277,-0.993103,0.35826,0.371298,-0.085191,54,275,577,5760
1644174037.878218,-0.008606,0.01001,-0.993286,0.113985,0.401832,-0.176794,57,280,570,5600
1644174037.926577,-0.011475,0.00824,-0.994629,0.205588,0.478168,-0.100458,48,269,590,5712
1644174037.975047,-0.011597,0.007996,-0.992249,0.08345,0.340763,-0.100458,52,273,577,5664
1644174038.023404,-0.013855,0.011658,-0.990723,0.342992,0.340763,-0.222595,43,274,571,5696
1644174038.071849,-0.011963,0.010681,-0.992676,0.281924,0.386565,-0.115725,60,281,571,5712
1644174038.120109,-0.011963,0.008179,-0.992065,0.251389,0.539237,-0.115725,52,280,575,5760
1644174038.168522,-0.011475,0.009583,-0.993713,0.297191,0.432366,-0.130992,48,269,573,5696
1644174038.216914,-0.013733,0.009949,-0.991272,0.022382,0.401832,-0.054656,47,273,575,5728
1644174038.265299,-0.010315,0.010864,-0.99408,0.266656,0.356031,-0.100458,51,276,573,5696
1644174038.313714,-0.00946,0.009155,-0.995117,0.144519,0.493435,-0.054656,55,276,566,5696
1644174038.362081,-0.011353,0.009949,-0.99408,0.404061,0.371298,-0.115725,43,279,569,5808
1644174038.410484,-0.008301,0.007507,-0.993469,0.220855,0.401832,-0.008855,52,277,577,5760
1644174038.458869,-0.009033,0.00769,-0.992859,0.052916,0.478168,-0.161527,51,276,578,5712
1644174038.507242,-0.010315,0.010559,-0.991943,0.113985,0.508702,0.036947,46,271,583,5728
1644174038.555624,-0.009338,0.009705,-0.994568,0.266656,0.356031,-0.054656,52,282,577,5760
1644174038.604047,-0.010254,0.005493,-0.99408,0.236122,0.493435,-0.161527,51,269,578,5712
1644174038.652455,-0.010315,0.007996,-0.992981,0.205588,0.569771,-0.14626,47,273,579,5696
1644174038.700824,-0.009399,0.008362,-0.991638,0.175053,0.294962,-0.14626,58,279,571,5776
1644174038.749194,-0.01355,0.00946,-0.991211,0.312458,0.462901,-0.069924,52,277,577,5712
1644174038.798968,-0.013,0.009644,-0.995056,0.266656,0.478168,-0.115725,49,275,579,5696
1644174038.849705,-0.012329,0.008667,-0.991272,0.281924,0.371298,-0.130992,43,271,576,5760
1644174038.899617,-0.011536,0.009583,-0.995789,0.297191,0.523969,-0.039389,57,277,586,5712
1644174038.944042,-0.007568,0.011169,-0.992798,0.236122,0.340763,-0.268397,49,273,586,5696
1644174039.039611,-0.010132,0.010498,-0.99176,0.220855,0.386565,-0.085191,54,280,579,5664
1644174039.088101,-0.012207,0.010254,-0.993225,0.327725,0.386565,-0.008855,49,270,572,5712
1644174039.136336,-0.009216,0.008972,-0.995483,0.159786,0.401832,0.006412,55,276,564,5712
1644174039.184766,-0.012573,0.008667,-0.991577,0.205588,0.279695,-0.024122,51,276,573,5760
1644174039.23315,-0.008972,0.009766,-0.993225,0.35826,0.569771,-0.14626,41,271,576,5696
1644174039.281503,-0.01001,0.009155,-0.991882,0.373527,0.478168,-0.008855,47,273,575,5728
1644174039.329914,-0.010315,0.01001,-0.989746,0.205588,0.386565,-0.207328,54,270,579,5696
1644174039.378299,-0.011536,0.006348,-0.991211,0.220855,0.401832,-0.192061,53,276,578,5776
1644174039.426693,-0.009338,0.010681,-0.992676,0.236122,0.600305,-0.222595,54,268,572,5728
1644174039.475199,-0.010132,0.006104,-0.990784,0.266656,0.417099,-0.100458,58,271,585,5728
1644174039.523469,-0.011902,0.00885,-0.99292,0.342992,0.493435,-0.069924,49,280,582,5648
1644174039.571864,-0.014282,0.00769,-0.992737,0.113985,0.325496,-0.039389,58,279,583,5712
1644174039.620254,-0.011963,0.009277,-0.992493,0.098718,0.417099,-0.115725,51,274,571,5728
1644174039.668651,-0.012878,0.00885,-0.991638,0.129252,0.371298,-0.008855,41,271,573,5664
1644174039.717036,-0.012878,0.007996,-0.993103,0.327725,0.432366,-0.100458,47,277,577,5696
1644174039.765434,-0.009888,0.008118,-0.991638,0.342992,0.340763,-0.14626,47,277,586,5760
1644174039.813839,-0.008118,0.008728,-0.991943,0.35826,0.462901,-0.008855,43,271,578,5728
1644174039.862474,-0.010315,0.007568,-0.993042,0.327725,0.569771,-0.14626,43,274,569,5696
1644174039.910624,-0.013,0.009155,-0.993652,0.205588,0.493435,-0.207328,55,266,576,5728
1644174039.960474,-0.010925,0.008972,-0.991577,0.068183,0.371298,-0.207328,53,276,569,5712
1644174040.064822,-0.007629,0.007935,-0.990906,0.08345,0.325496,-0.024122,49,273,570,5712
1644174040.105359,-0.009521,0.007507,-0.99231,0.175053,0.462901,-0.100458,55,269,585,5712
1644174040.152589,-0.009033,0.007812,-0.993591,0.297191,0.401832,-0.222595,46,274,580,5600
1644174040.200951,-0.011902,0.009155,-0.99292,0.190321,0.462901,-0.14626,45,270,570,5696
1644174040.249303,-0.009827,0.010315,-0.99115,0.35826,0.371298,-0.039389,48,274,573,5760
1644174040.297735,-0.011292,0.008545,-0.992676,0.297191,0.279695,-0.192061,52,280,572,5696
1644174040.346112,-0.009888,0.008118,-0.991882,0.266656,0.310229,-0.054656,54,265,582,5696
1644174040.394526,-0.009094,0.010132,-0.991089,0.266656,0.340763,-0.130992,49,275,572,5728
1644174040.442916,-0.013245,0.007935,-0.992004,0.312458,0.401832,0.021679,51,276,571,5728
1644174040.491308,-0.012268,0.008423,-0.991333,0.220855,0.371298,-0.024122,52,277,568,5696
1644174040.539664,-0.011169,0.007141,-0.992065,0.205588,0.447634,-0.024122,51,269,583,5760
1644174040.588063,-0.009399,0.008972,-0.992432,0.236122,0.462901,-0.085191,59,275,577,5760
1644174040.636471,-0.009155,0.008362,-0.993958,0.236122,0.386565,-0.115725,51,274,583,5696
1644174040.684857,-0.013,0.011841,-0.991028,0.251389,0.508702,-0.039389,48,274,571,5696
1644174040.733315,-0.009094,0.009888,-0.993896,0.449863,0.432366,-0.100458,55,276,585,5760
1644174040.782669,-0.010254,0.007996,-0.993347,0.373527,0.310229,-0.069924,57,280,575,5696
1644174040.834444,-0.011108,0.005432,-0.990967,0.327725,0.523969,0.036947,60,269,576,5728
1644174040.878658,-0.009583,0.007019,-0.992371,0.510931,0.24916,-0.268397,48,281,583,5712
1644174040.975464,-0.007629,0.007202,-0.994507,0.251389,0.401832,0.021679,52,282,582,5728
1644174041.023638,-0.008545,0.008728,-0.993042,0.113985,0.294962,-0.100458,51,271,569,5728
1644174041.072052,-0.010681,0.011292,-0.992188,0.144519,0.432366,-0.069924,54,275,584,5712
1644174041.120354,-0.011536,0.007935,-0.991699,0.175053,0.432366,-0.008855,59,275,582,5760
1644174041.168757,-0.006287,0.00647,-0.993408,0.236122,0.356031,-0.069924,48,269,571,5728
1644174041.217134,-0.009338,0.008118,-0.992126,0.251389,0.493435,0.067481,66,282,577,5696
1644174041.265539,-0.009033,0.010132,-0.994507,0.08345,0.493435,-0.115725,49,268,584,5712
1644174041.313912,-0.011963,0.008728,-0.995239,0.098718,0.279695,0.021679,47,280,577,5728
1644174041.362335,-0.009399,0.00824,-0.993408,0.266656,0.279695,0.006412,51,274,578,5696
1644174041.410727,-0.010376,0.009583,-0.992432,0.297191,0.462901,-0.14626,53,269,578,5696
1644174041.459105,-0.012085,0.010193,-0.992065,0.281924,0.417099,-0.054656,58,271,578,5776
1644174041.507499,-0.014465,0.008484,-0.993774,0.159786,0.386565,-0.085191,43,274,571,5648
1644174041.555889,-0.011902,0.006042,-0.990295,0.404061,0.340763,0.082748,49,287,570,5696
1644174041.604298,-0.011292,0.009644,-0.993774,0.236122,0.447634,-0.024122,53,271,576,5696
1644174041.65269,-0.010193,0.007751,-0.993408,0.236122,0.432366,-0.176794,35,277,575,5696
1644174041.701035,-0.013733,0.010986,-0.991943,0.144519,0.554504,-0.14626,34,271,580,5760
1644174041.749423,-0.009949,0.007446,-0.990906,0.312458,0.401832,-0.039389,52,268,579,5696
1644174041.797827,-0.009033,0.009827,-0.991089,0.159786,0.233893,-0.085191,47,265,570,5648
1644174041.846308,-0.012024,0.008911,-0.994812,0.251389,0.462901,-0.161527,51,271,576,5664
1644174041.896477,-0.009827,0.010986,-0.992249,0.190321,0.279695,0.067481,45,268,577,5696
1644174041.946725,-0.009521,0.008057,-0.988831,0.236122,0.401832,-0.069924,60,271,587,5696
1644174041.997027,-0.011536,0.010132,-0.990601,0.251389,0.294962,-0.176794,51,269,580,5648
1644174042.088331,-0.010864,0.009399,-0.990906,0.113985,0.371298,-0.115725,49,275,570,5664
1644174042.136583,-0.011292,0.009766,-0.992371,0.251389,0.539237,-0.115725,52,273,582,5712
1644174042.185205,-0.012451,0.009644,-0.993835,0.449863,0.493435,-0.054656,55,269,580,5728
1644174042.233372,-0.008606,0.006958,-0.992981,0.266656,0.493435,-0.085191,46,274,566,5696
1644174042.281733,-0.010437,0.008911,-0.994141,0.251389,0.401832,-0.161527,52,280,582,5712
1644174042.330121,-0.01123,0.01001,-0.991211,0.129252,0.340763,-0.100458,49,260,575,5728
1644174042.378513,-0.012451,0.008667,-0.994324,0.220855,0.432366,-0.25313,48,271,576,5712
1644174042.426925,-0.01123,0.008423,-0.99054,0.266656,0.325496,0.021679,55,276,576,5824
1644174042.475314,-0.009583,0.010803,-0.992004,0.236122,0.508702,-0.054656,43,271,580,5696
1644174042.523725,-0.010437,0.010681,-0.989685,0.251389,0.447634,-0.283664,64,285,572,5696
1644174042.572088,-0.009155,0.008606,-0.990479,0.373527,0.294962,-0.100458,46,271,569,5632
1644174042.620497,-0.009949,0.010559,-0.993469,0.190321,0.310229,-0.024122,57,280,565,5760
1644174042.668869,-0.009155,0.008484,-0.992798,0.098718,0.203359,0.021679,52,285,572,5776
1644174042.717282,-0.009033,0.009888,-0.992737,0.144519,0.340763,-0.222595,48,276,573,5728
1644174042.765644,-0.010986,0.006714,-0.990479,0.220855,0.310229,-0.100458,48,271,578,5728
1644174042.814049,-0.010315,0.009216,-0.993103,0.08345,0.447634,0.113282,58,269,587,5728
1644174042.862494,-0.011658,0.008301,-0.991028,0.312458,0.523969,-0.115725,55,281,573,5728
1644174042.911209,-0.010376,0.009155,-0.989929,0.205588,0.325496,-0.268397,36,269,569,5696
1644174042.959244,-0.01239,0.008057,-0.991089,0.236122,0.447634,-0.085191,51,259,576,5648
1644174043.009367,-0.010437,0.008057,-0.991577,0.327725,0.554504,-0.130992,57,268,577,5664
1644174043.082835,-0.013,0.009338,-0.993835,0.205588,0.447634,-0.008855,49,273,584,5808
1644174043.116356,-0.010986,0.009705,-0.992798,0.266656,0.386565,-0.192061,55,279,573,5776
1644174043.154483,-0.01001,0.010193,-0.991516,0.220855,0.523969,-0.039389,54,273,575,5664
1644174043.249557,-0.00824,0.011047,-0.992188,0.236122,0.432366,-0.130992,49,277,563,5664
1644174043.29792,-0.008728,0.008911,-0.991821,0.098718,0.386565,-0.222595,49,280,577,5664
1644174043.346324,-0.012573,0.008423,-0.994812,0.236122,0.432366,-0.024122,52,273,568,5728
1644174043.394863,-0.011536,0.00946,-0.992859,0.098718,0.371298,-0.130992,43,271,571,5696
1644174043.443146,-0.009033,0.00885,-0.992981,0.281924,0.279695,-0.130992,54,275,563,5760
1644174043.491818,-0.009033,0.008972,-0.994019,0.251389,0.325496,-0.100458,51,271,573,5776
1644174043.539903,-0.011597,0.007324,-0.992065,0.297191,0.218626,-0.100458,52,265,579,5760
1644174043.588281,-0.007446,0.01062,-0.992126,0.236122,0.371298,-0.054656,42,277,582,5712
1644174043.636686,-0.012634,0.006836,-0.991638,0.236122,0.264427,-0.176794,40,270,568,5728
1644174043.685191,-0.010193,0.010803,-0.98938,0.175053,0.569771,-0.14626,54,268,586,5712
1644174043.733485,-0.008484,0.007324,-0.990784,0.190321,0.508702,-0.069924,52,275,579,5696
1644174043.781852,-0.012634,0.007385,-0.995911,0.236122,0.462901,-0.069924,52,273,577,5728
1644174043.830249,-0.008484,0.009644,-0.992798,0.144519,0.523969,-0.115725,62,281,564,5712
1644174043.878687,-0.013,0.007568,-0.994141,0.342992,0.539237,-0.085191,51,269,573,5712
1644174043.927075,-0.009033,0.009033,-0.99054,0.159786,0.386565,-0.100458,40,277,579,5712
1644174043.975469,-0.009888,0.010559,-0.991394,0.205588,0.462901,-0.039389,58,276,571,5664
1644174044.02386,-0.01123,0.01001,-0.994934,0.175053,0.432366,-0.069924,49,265,577,5696
1644174044.092609,-0.010681,0.008667,-0.99115,0.281924,0.478168,-0.176794,55,291,573,5728
1644174044.126433,-0.010071,0.008423,-0.993286,0.404061,0.401832,-0.085191,55,269,578,5712
1644174044.170572,-0.011353,0.007446,-0.994873,0.266656,0.432366,0.021679,42,268,575,5632
1644174044.265742,-0.00946,0.009033,-0.990967,0.266656,0.294962,-0.115725,36,286,571,5648
1644174044.31417,-0.011963,0.010986,-0.992371,0.388794,0.325496,-0.161527,51,271,564,5712
1644174044.362561,-0.007019,0.010193,-0.989258,0.144519,0.386565,-0.25313,49,268,572,5776
1644174044.410933,-0.013245,0.011169,-0.992004,0.266656,0.325496,-0.192061,45,273,577,5728
1644174044.45932,-0.010742,0.011536,-0.990173,0.205588,0.432366,-0.161527,51,271,571,5696
1644174044.507708,-0.007385,0.012451,-0.991943,0.281924,0.371298,-0.268397,40,273,565,5728
1644174044.556098,-0.014221,0.009521,-0.992676,0.175053,0.432366,-0.130992,48,276,571,5664
1644174044.604505,-0.009155,0.008606,-0.991577,0.281924,0.356031,0.006412,47,265,586,5696
1644174044.652898,-0.007202,0.010803,-0.988892,0.327725,0.356031,-0.069924,51,274,573,5696
1644174044.701287,-0.009399,0.010803,-0.991699,0.08345,0.325496,-0.069924,54,275,577,5712
1644174044.74965,-0.008789,0.010803,-0.993652,0.266656,0.478168,-0.115725,61,275,577,5728
1644174044.798062,-0.010376,0.007935,-0.991455,0.297191,0.310229,-0.100458,48,269,573,5696
1644174044.846435,-0.01178,0.007324,-0.993408,0.251389,0.447634,-0.069924,46,271,576,5664
1644174044.894896,-0.012207,0.005493,-0.990234,0.205588,0.493435,-0.176794,45,273,575,5728
1644174044.943293,-0.011719,0.004761,-0.99469,0.144519,0.417099,-0.161527,46,276,576,5760
1644174044.991672,-0.009277,0.009216,-0.994141,0.190321,0.585038,-0.085191,54,275,584,5696
1644174045.040059,-0.008667,0.00946,-0.99292,0.236122,0.432366,-0.161527,51,271,580,5712
1644174045.090428,-0.008362,0.011475,-0.991821,0.144519,0.447634,-0.192061,41,264,580,5728
1644174045.13678,-0.009644,0.010132,-0.990173,0.236122,0.294962,-0.069924,48,264,585,5728
1644174045.185271,-0.009583,0.009583,-0.994202,0.236122,0.401832,-0.268397,47,273,572,5728
1644174045.235705,-0.010498,0.008606,-0.991333,0.404061,0.386565,-0.176794,47,277,579,5760
1644174045.285987,-0.012146,0.008606,-0.991699,0.205588,0.386565,-0.176794,58,271,576,5712
1644174045.331056,-0.009766,0.008972,-0.992676,0.251389,0.356031,-0.085191,49,282,563,5760
1644174045.427142,-0.009521,0.009155,-0.992065,0.251389,0.615573,-0.054656,49,270,565,5664
1644174045.475525,-0.009949,0.008179,-0.992676,0.068183,0.462901,-0.192061,45,275,577,5696
1644174045.523938,-0.01178,0.011047,-0.991272,0.129252,0.371298,-0.14626,49,277,577,5664
1644174045.572397,-0.010193,0.009277,-0.991089,0.129252,0.539237,-0.024122,45,270,579,5664
1644174045.620704,-0.008362,0.010559,-0.991699,0.144519,0.356031,0.021679,40,270,577,5696
1644174045.669101,-0.009766,0.009766,-0.994324,0.327725,0.340763,-0.054656,53,276,585,5696
1644174045.717467,-0.010132,0.008179,-0.993164,0.205588,0.462901,-0.268397,52,273,577,5664
1644174045.765867,-0.008667,0.00824,-0.988892,0.129252,0.539237,-0.085191,55,276,576,5696
1644174045.814317,-0.009827,0.010132,-0.990479,0.08345,0.371298,-0.329466,61,280,579,5776
1644174045.862718,-0.013123,0.008728,-0.995117,0.205588,0.447634,-0.130992,49,277,582,5728
1644174045.911065,-0.008728,0.01062,-0.994751,0.266656,0.233893,-0.115725,47,273,577,5712
1644174045.959488,-0.012268,0.009583,-0.992676,0.266656,0.432366,-0.054656,58,274,573,5696
1644174046.007845,-0.00647,0.00824,-0.991394,0.281924,0.325496,-0.085191,49,277,577,5664
1644174046.068066,-0.009583,0.009705,-0.994202,0.220855,0.386565,-0.222595,53,274,576,5728
1644174046.105083,-0.009338,0.010742,-0.990234,0.08345,0.493435,-0.130992,55,259,580,5712
1644174046.15302,-0.01178,0.01001,-0.991028,0.251389,0.401832,-0.085191,46,274,578,5696
1644174046.201389,-0.010864,0.009888,-0.990662,0.251389,0.432366,0.021679,43,269,583,5776
1644174046.249755,-0.010376,0.008057,-0.993286,0.129252,0.401832,-0.054656,65,274,573,5760
1644174046.298171,-0.012695,0.009155,-0.991638,0.144519,0.310229,-0.161527,45,268,568,5696
1644174046.346845,-0.01123,0.012939,-0.990845,0.281924,0.508702,-0.36,57,268,577,5664
1644174046.397606,-0.011047,0.009155,-0.993408,0.236122,0.356031,-0.100458,47,263,575,5712
1644174046.447804,-0.011292,0.009644,-0.993347,0.159786,0.279695,-0.115725,49,270,570,5728
1644174046.492955,-0.012634,0.008972,-0.993164,0.022382,0.462901,-0.192061,52,270,572,5696
1644174046.588516,-0.010315,0.009888,-0.994141,0.342992,0.447634,-0.008855,61,273,568,5664
1644174046.636904,-0.010681,0.008301,-0.992737,0.220855,0.569771,-0.039389,60,276,578,5648
1644174046.685403,-0.010254,0.008728,-0.991882,0.113985,0.493435,-0.14626,53,269,573,5664
1644174046.733694,-0.008118,0.009033,-0.992859,0.251389,0.325496,0.006412,58,279,578,5696
1644174046.782083,-0.008728,0.008179,-0.992065,0.205588,0.356031,-0.207328,45,265,572,5712
1644174046.830526,-0.01001,0.010681,-0.991943,0.129252,0.447634,-0.161527,46,274,569,5760
1644174046.878909,-0.008118,0.008118,-0.992126,0.281924,0.356031,0.052214,46,269,576,5696
1644174046.927299,-0.011108,0.009644,-0.990234,0.159786,0.14229,0.021679,61,277,568,5664
1644174046.975686,-0.01239,0.008179,-0.993469,0.205588,0.371298,-0.25313,43,271,580,5760
1644174047.024096,-0.008728,0.009399,-0.992737,0.205588,0.447634,-0.069924,48,281,587,5760
1644174047.077938,-0.009277,0.008667,-0.993591,0.175053,0.386565,-0.237863,45,275,591,5696
1644174047.120788,-0.008362,0.008179,-0.992493,0.266656,0.478168,-0.039389,49,282,582,5696
1644174047.169198,-0.009766,0.008057,-0.993347,0.251389,0.356031,-0.100458,59,280,577,5648
1644174047.217595,-0.010681,0.008545,-0.994812,0.35826,0.340763,-0.207328,48,279,583,5696
1644174047.265995,-0.007629,0.008118,-0.993225,0.35826,0.310229,-0.115725,42,277,579,5728
1644174047.314382,-0.010071,0.006897,-0.994385,0.251389,0.447634,-0.008855,40,280,584,5712
1644174047.36279,-0.010071,0.01062,-0.990967,0.266656,0.417099,-0.192061,40,273,582,5728
1644174047.411221,-0.010986,0.009644,-0.991577,0.159786,0.401832,-0.115725,53,276,578,5696
1644174047.45957,-0.006592,0.008484,-0.99292,0.266656,0.462901,-0.039389,42,287,572,5712
1644174047.5081,-0.010376,0.009155,-0.993408,0.251389,0.569771,-0.14626,46,271,573,5696
1644174047.558698,-0.011597,0.00885,-0.993286,0.205588,0.554504,-0.024122,42,273,570,5712
1644174047.608772,-0.011597,0.010437,-0.991882,0.312458,0.539237,0.082748,42,273,575,5664
1644174047.653815,-0.009888,0.009399,-0.993103,0.220855,0.447634,-0.130992,49,275,584,5696
1644174047.749904,-0.012024,0.008545,-0.993408,0.35826,0.417099,-0.161527,54,280,586,5728
1644174047.798274,-0.00824,0.007751,-0.991272,0.388794,0.432366,-0.085191,58,271,576,5664
1644174047.846736,-0.011292,0.008789,-0.993835,0.144519,0.417099,-0.085191,46,269,580,5712
1644174047.895144,-0.011597,0.011169,-0.991882,0.281924,0.478168,-0.100458,51,281,569,5728
1644174047.943528,-0.013611,0.007446,-0.993042,0.205588,0.523969,-0.085191,51,274,573,5728
1644174047.991873,-0.01178,0.010376,-0.993103,0.327725,0.386565,-0.14626,48,274,578,5728
1644174048.040296,-0.010071,0.010864,-0.992493,0.312458,0.371298,-0.115725,46,271,580,5664
1644174048.088808,-0.010437,0.008179,-0.994202,0.144519,0.386565,-0.115725,53,274,578,5760
1644174048.137015,-0.011414,0.012329,-0.993042,0.113985,0.325496,-0.115725,51,276,566,5728
1644174048.185417,-0.010498,0.010742,-0.991577,0.190321,0.386565,-0.069924,47,270,577,5696
1644174048.233821,-0.010193,0.009094,-0.990356,0.388794,0.340763,-0.039389,52,287,577,5760
1644174048.282242,-0.009338,0.009949,-0.994934,0.266656,0.462901,-0.054656,57,268,575,5760
1644174048.330599,-0.010132,0.00824,-0.99408,0.388794,0.585038,-0.069924,48,274,576,5760
1644174048.378991,-0.00946,0.009827,-0.993347,0.404061,0.386565,-0.161527,54,268,575,5712
1644174048.427346,-0.010254,0.008606,-0.993164,0.190321,0.310229,-0.192061,52,285,582,5696
1644174048.475758,-0.010559,0.008545,-0.991882,0.266656,0.401832,-0.085191,51,283,566,5696
1644174048.524156,-0.008484,0.00885,-0.992371,0.297191,0.401832,-0.14626,51,276,573,5712
1644174048.572563,-0.011719,0.009888,-0.992798,0.266656,0.508702,0.067481,48,266,587,5728
1644174048.621295,-0.009705,0.007263,-0.991272,0.251389,0.508702,-0.14626,48,279,587,5696
1644174048.671636,-0.009277,0.010254,-0.990051,0.220855,0.401832,-0.024122,60,271,578,5712
1644174048.721634,-0.012329,0.010986,-0.989563,0.297191,0.539237,-0.207328,55,262,571,5760
1644174048.766919,-0.011292,0.00824,-0.992493,0.129252,0.447634,-0.130992,54,277,575,5696
1644174048.862944,-0.009033,0.007446,-0.992126,0.129252,0.401832,-0.024122,43,276,580,5728
1644174048.911317,-0.010742,0.009033,-0.99353,0.220855,0.401832,-0.085191,47,275,561,5664
1644174048.959719,-0.01123,0.011292,-0.992493,0.342992,0.24916,-0.024122,48,269,569,5776
1644174049.008089,-0.012085,0.007996,-0.991699,0.205588,0.447634,-0.130992,46,266,578,5712
1644174049.06656,-0.011658,0.007446,-0.991516,0.281924,0.356031,0.006412,52,268,568,5664
1644174049.104903,-0.01001,0.009949,-0.991333,0.236122,0.264427,-0.237863,46,276,583,5776
1644174049.153243,-0.011658,0.009521,-0.989929,0.159786,0.386565,-0.14626,40,273,570,5760
1644174049.201627,-0.009705,0.007935,-0.98999,0.205588,0.447634,-0.115725,48,274,566,5760
1644174049.250003,-0.008179,0.008057,-0.991577,0.159786,0.294962,-0.054656,54,275,572,5712
1644174049.29841,-0.012268,0.00885,-0.988281,0.220855,0.432366,-0.039389,51,269,585,5760
1644174049.346805,-0.007629,0.009705,-0.992065,0.251389,0.432366,-0.100458,53,269,578,5696
1644174049.39519,-0.010559,0.011353,-0.990784,0.35826,0.493435,-0.176794,49,277,579,5696
1644174049.443572,-0.010681,0.010803,-0.992981,0.266656,0.356031,-0.024122,45,287,577,5712
1644174049.492322,-0.013489,0.010132,-0.991516,0.312458,0.340763,-0.130992,46,269,580,5664
1644174049.540362,-0.010315,0.007385,-0.99408,0.35826,0.417099,-0.192061,54,280,575,5712
1644174049.588746,-0.012268,0.006226,-0.991638,0.220855,0.401832,-0.115725,43,266,571,5728
1644174049.637138,-0.011353,0.007019,-0.990051,0.251389,0.417099,0.021679,53,279,571,5696
1644174049.685508,-0.013184,0.009399,-0.992859,0.281924,0.417099,0.006412,57,260,579,5712
1644174049.733972,-0.010681,0.00769,-0.994812,0.281924,0.325496,-0.100458,53,271,569,5728
1644174049.784389,-0.012756,0.008362,-0.992737,0.144519,0.401832,-0.14626,48,279,580,5664
1644174049.834532,-0.010864,0.009277,-0.993286,0.281924,0.279695,-0.115725,46,271,573,5760
1644174049.880202,-0.011719,0.009094,-0.99115,0.144519,0.447634,-0.008855,49,275,572,5808
1644174049.975909,-0.009216,0.009644,-0.993164,0.052916,0.401832,-0.085191,45,277,577,5664
1644174050.024324,-0.011902,0.008057,-0.992432,0.266656,0.554504,-0.14626,46,276,580,5760
1644174050.072744,-0.008667,0.008179,-0.989746,0.113985,0.432366,-0.161527,45,273,568,5664
1644174050.12106,-0.010437,0.008362,-0.991943,0.251389,0.539237,-0.054656,58,281,578,5712
1644174050.169451,-0.008606,0.008667,-0.991394,0.266656,0.554504,0.082748,47,275,586,5696
1644174050.217833,-0.01123,0.011597,-0.99408,0.266656,0.340763,-0.008855,39,274,585,5664
1644174050.266218,-0.010803,0.007507,-0.991516,0.342992,0.417099,-0.069924,47,280,575,5728
1644174050.314749,-0.010498,0.006592,-0.992981,0.175053,0.432366,-0.115725,53,269,578,5664
1644174050.36303,-0.01178,0.009766,-0.989685,0.159786,0.386565,-0.100458,55,281,576,5648
1644174050.411401,-0.007019,0.007141,-0.994263,0.190321,0.340763,-0.085191,47,282,570,5664
1644174050.459802,-0.007874,0.009277,-0.995056,0.404061,0.340763,-0.207328,57,277,572,5696
1644174050.508189,-0.008179,0.008911,-0.993103,0.220855,0.432366,-0.130992,54,282,572,5664
1644174050.556554,-0.011047,0.011047,-0.991699,0.251389,0.401832,0.082748,48,271,571,5696
1644174050.605085,-0.009766,0.00946,-0.990784,0.190321,0.401832,-0.14626,55,266,573,5712
1644174050.653337,-0.010254,0.010681,-0.991882,0.281924,0.310229,-0.115725,45,268,575,5760
1644174050.70172,-0.006653,0.011536,-0.991638,0.220855,0.325496,-0.207328,42,265,579,5696
1644174050.75011,-0.009644,0.008423,-0.991089,0.281924,0.417099,0.006412,52,273,575,5648
1644174050.798523,-0.009399,0.006287,-0.989807,0.266656,0.386565,-0.130992,47,280,577,5728
1644174050.846958,-0.009033,0.010559,-0.991638,0.175053,0.371298,0.006412,43,269,578,5712
1644174050.896202,-0.010681,0.00592,-0.991638,0.281924,0.401832,-0.14626,53,266,571,5712
1644174050.946715,-0.006409,0.009033,-0.992004,0.098718,0.417099,0.067481,52,268,577,5696
1644174050.99675,-0.01178,0.009644,-0.989258,0.205588,0.615573,-0.024122,48,269,578,5776
1644174051.041146,-0.011719,0.011414,-0.990967,0.373527,0.432366,-0.008855,53,274,571,5712
1644174051.137278,-0.010437,0.008423,-0.993164,0.175053,0.417099,-0.054656,46,281,580,5648
1644174051.185632,-0.010803,0.01062,-0.994934,0.190321,0.417099,0.006412,41,274,585,5664
1644174051.234044,-0.009216,0.008728,-0.990967,0.251389,0.340763,0.021679,58,271,569,5696
1644174051.282451,-0.010193,0.010986,-0.99054,0.281924,0.462901,-0.054656,47,268,579,5712
1644174051.330816,-0.010132,0.012817,-0.991821,0.220855,0.340763,-0.008855,58,279,566,5696
1644174051.379213,-0.008423,0.009277,-0.992981,0.236122,0.340763,-0.192061,51,279,573,5712
1644174051.427607,-0.010559,0.009338,-0.993774,0.190321,0.508702,-0.024122,42,287,579,5712
1644174051.476003,-0.009827,0.008057,-0.991882,0.297191,0.478168,-0.176794,40,273,579,5648
1644174051.524386,-0.011169,0.008911,-0.990845,0.129252,0.356031,-0.115725,48,271,571,5696
1644174051.572801,-0.01062,0.011353,-0.993164,0.266656,0.401832,0.036947,48,276,576,5696
1644174051.621166,-0.010864,0.009827,-0.992676,0.159786,0.539237,-0.161527,45,265,577,5728
1644174051.669602,-0.009277,0.010681,-0.991821,0.35826,0.356031,-0.130992,53,276,578,5696
1644174051.717944,-0.007935,0.008789,-0.991394,0.281924,0.523969,-0.008855,49,285,589,5696
1644174051.76634,-0.012329,0.011108,-0.992065,0.312458,0.371298,-0.024122,42,270,575,5712
1644174051.814734,-0.010986,0.008667,-0.99176,0.220855,0.462901,-0.039389,45,277,582,5728
1644174051.863174,-0.010925,0.009888,-0.990662,0.175053,0.356031,-0.161527,58,279,578,5712
1644174051.91155,-0.010376,0.00708,-0.994934,0.190321,0.417099,-0.268397,59,268,577,5664
1644174051.960201,-0.010742,0.008484,-0.993774,0.068183,0.432366,0.098015,51,281,573,5712
1644174052.061267,-0.00946,0.007812,-0.99292,0.205588,0.386565,-0.222595,60,269,576,5728
1644174052.105145,-0.010742,0.008057,-0.991211,0.373527,0.340763,-0.054656,55,276,578,5664
1644174052.153762,-0.01001,0.008972,-0.994507,0.098718,0.401832,0.021679,53,274,578,5760
1644174052.201836,-0.009766,0.010193,-0.993347,0.08345,0.493435,-0.039389,61,285,572,5776
1644174052.250223,-0.011414,0.009583,-0.991821,0.144519,0.371298,-0.039389,49,270,572,5648
1644174052.298634,-0.010864,0.011169,-0.991699,0.129252,0.417099,-0.115725,40,282,579,5712
1644174052.347032,-0.012268,0.008789,-0.994324,0.388794,0.493435,-0.039389,53,257,571,5776
1644174052.395425,-0.009949,0.007874,-0.993652,0.220855,0.417099,-0.100458,52,277,570,5712
1644174052.443813,-0.009094,0.010132,-0.992798,0.236122,0.264427,-0.024122,51,279,573,5696
1644174052.492362,-0.010925,0.009949,-0.993347,0.312458,0.279695,-0.161527,49,268,579,5808
1644174052.540589,-0.011475,0.007385,-0.99292,0.220855,0.371298,-0.008855,46,274,571,5696
1644174052.588982,-0.012817,0.008728,-0.991455,0.251389,0.386565,-0.024122,59,273,584,5760
1644174052.637369,-0.01178,0.009888,-0.991699,0.205588,0.371298,-0.115725,60,269,573,5760
1644174052.685761,-0.010925,0.008545,-0.991455,0.281924,0.356031,-0.14626,55,274,571,5760
1644174052.734151,-0.010681,0.010193,-0.994141,0.266656,0.417099,-0.024122,49,270,579,5664
1644174052.782568,-0.008911,0.00885,-0.992065,0.434595,0.371298,-0.054656,45,280,572,5712
1644174052.830922,-0.010376,0.009827,-0.992615,0.08345,0.447634,-0.222595,53,274,580,5808
1644174052.880802,-0.010132,0.00946,-0.991943,0.281924,0.386565,-0.039389,47,268,586,5664
1644174052.931303,-0.008911,0.009888,-0.991028,0.373527,0.371298,-0.008855,51,266,578,5696
1644174052.981713,-0.01178,0.010498,-0.992676,0.312458,0.401832,-0.085191,53,274,583,5696
1644174053.026168,-0.007935,0.007324,-0.993347,0.144519,0.432366,-0.130992,51,281,583,5760
1644174053.12128,-0.008606,0.012634,-0.990356,0.098718,0.386565,-0.100458,43,281,564,5696
1644174053.169648,-0.010132,0.00946,-0.989563,0.236122,0.523969,-0.115725,53,276,569,5728
1644174053.218064,-0.009277,0.012207,-0.992615,0.373527,0.462901,-0.085191,49,260,575,5728
1644174053.266438,-0.009033,0.008057,-0.992065,0.251389,0.447634,-0.14626,58,269,585,5712
1644174053.314823,-0.011108,0.008667,-0.994751,0.388794,0.493435,-0.115725,49,275,577,5760
1644174053.363238,-0.009033,0.009033,-0.99292,0.327725,0.279695,-0.100458,54,270,568,5712
1644174053.41163,-0.009705,0.007019,-0.992493,0.327725,0.371298,-0.085191,54,275,575,5728
1644174053.459985,-0.009766,0.010803,-0.992371,0.327725,0.340763,-0.100458,51,279,573,5712
1644174053.508406,-0.008545,0.006592,-0.993225,0.236122,0.24916,0.082748,53,276,578,5696
1644174053.556791,-0.013245,0.008057,-0.991516,0.220855,0.462901,-0.008855,54,273,563,5632
1644174053.605286,-0.01123,0.012085,-0.991638,0.251389,0.447634,-0.085191,42,290,582,5664
1644174053.653594,-0.008362,0.010498,-0.98938,0.236122,0.386565,-0.024122,52,263,575,5712
1644174053.70197,-0.010071,0.008545,-0.990295,0.236122,0.386565,0.021679,51,269,583,5712
1644174053.750358,-0.011658,0.00885,-0.994507,0.175053,0.386565,-0.100458,46,274,566,5696
1644174053.798761,-0.009644,0.006653,-0.98938,0.220855,0.356031,-0.14626,42,277,582,5712
1644174053.847192,-0.009277,0.008423,-0.991211,0.190321,0.294962,-0.283664,52,282,582,5712
1644174053.895575,-0.011108,0.01001,-0.990723,0.113985,0.356031,0.021679,51,274,566,5776
1644174053.943956,-0.01001,0.008667,-0.99176,0.159786,0.447634,-0.054656,52,275,582,5696
1644174053.992382,-0.009583,0.010254,-0.994263,0.312458,0.493435,-0.100458,52,270,575,5712
1644174054.04226,-0.010803,0.013062,-0.994019,0.373527,0.340763,-0.161527,57,273,584,5760
1644174054.10208,-0.009827,0.007324,-0.991394,0.205588,0.447634,-0.130992,48,269,583,5728
1644174054.141603,-0.009338,0.008667,-0.991333,0.129252,0.462901,0.036947,51,274,578,5712
1644174054.186497,-0.01001,0.008606,-0.991516,0.220855,0.401832,-0.176794,54,265,575,5760
1644174054.282667,-0.010559,0.011963,-0.993347,0.297191,0.264427,-0.192061,51,276,576,5712
1644174054.331038,-0.010132,0.005798,-0.991882,0.159786,0.493435,-0.085191,48,274,573,5728
1644174054.379433,-0.009766,0.011414,-0.991272,0.342992,0.417099,-0.25313,47,273,572,5696
1644174054.427825,-0.008484,0.010925,-0.992981,0.098718,0.279695,-0.008855,41,279,573,5712
1644174054.476206,-0.010681,0.00647,-0.990906,0.129252,0.264427,-0.024122,47,270,577,5648
1644174054.52464,-0.008484,0.010742,-0.991333,0.037649,0.386565,0.021679,52,273,570,5776
1644174054.57303,-0.012024,0.008972,-0.993774,0.281924,0.432366,-0.054656,46,276,580,5760
1644174054.621398,-0.011353,0.007935,-0.991272,0.297191,0.386565,0.036947,51,276,573,5760
1644174054.66979,-0.013062,0.009033,-0.991089,0.297191,0.401832,-0.024122,41,274,576,5760
1644174054.718157,-0.010193,0.008728,-0.991699,0.220855,0.462901,-0.14626,47,268,579,5664
1644174054.766571,-0.010925,0.009277,-0.991943,0.312458,0.478168,-0.14626,52,265,586,5696
1644174054.815163,-0.012451,0.010681,-0.993652,0.190321,0.447634,-0.130992,54,273,586,5728
1644174054.863406,-0.011292,0.008179,-0.989685,0.266656,0.325496,-0.100458,49,275,579,5664
1644174054.91178,-0.010315,0.00708,-0.991882,0.098718,0.447634,-0.115725,57,275,586,5664
1644174054.960161,-0.009155,0.008972,-0.993774,0.220855,0.417099,-0.161527,54,268,582,5712
1644174055.008527,-0.009766,0.01062,-0.98999,0.220855,0.447634,-0.039389,41,279,583,5664
1644174055.068811,-0.009888,0.009338,-0.990601,0.236122,0.386565,-0.100458,46,266,585,5664
1644174055.109793,-0.009644,0.007446,-0.991333,0.236122,0.585038,-0.054656,53,279,578,5712
1644174055.153783,-0.00592,0.009216,-0.990295,0.266656,0.417099,-0.069924,40,277,572,5664
1644174055.202302,-0.008179,0.009094,-0.992188,0.175053,0.401832,-0.192061,48,266,580,5728
1644174055.252914,-0.010376,0.009888,-0.994385,0.373527,0.478168,-0.085191,57,273,575,5728
1644174055.302965,-0.013,0.010925,-0.990662,0.068183,0.432366,-0.176794,51,274,573,5728
1644174055.348276,-0.010681,0.008728,-0.992798,0.388794,0.401832,-0.069924,49,280,572,5728
1644174055.444055,-0.009888,0.006042,-0.99353,0.251389,0.615573,-0.192061,48,274,573,5696
1644174055.492417,-0.009277,0.008728,-0.992249,0.220855,0.447634,-0.14626,54,270,575,5728
1644174055.540826,-0.013977,0.007935,-0.989807,0.281924,0.493435,-0.222595,57,280,579,5696
1644174055.589205,-0.012878,0.00946,-0.990906,0.175053,0.447634,0.12855,55,286,571,5696
1644174055.637628,-0.010864,0.008423,-0.991455,0.190321,0.478168,-0.008855,51,271,566,5696
1644174055.685988,-0.012329,0.008057,-0.990356,0.35826,0.615573,-0.024122,43,264,564,5696
1644174055.734395,-0.009216,0.013611,-0.98938,0.35826,0.417099,-0.024122,46,276,580,5696
1644174055.782787,-0.008423,0.01178,-0.992249,0.251389,0.279695,-0.130992,47,268,570,5696
1644174055.831182,-0.011414,0.006226,-0.991943,0.312458,0.340763,-0.039389,49,270,584,5664
1644174055.879601,-0.008606,0.008545,-0.990173,0.35826,0.386565,-0.054656,46,271,576,5712
1644174055.927981,-0.012451,0.010193,-0.990356,0.419328,0.386565,0.098015,53,283,571,5696
1644174055.97634,-0.007996,0.010803,-0.992615,0.220855,0.600305,-0.130992,55,283,573,5760
1644174056.024769,-0.012695,0.013245,-0.990601,0.266656,0.371298,0.021679,55,276,580,5648
1644174056.091058,-0.012634,0.007812,-0.99353,0.190321,0.508702,-0.039389,51,279,573,5648
1644174056.122087,-0.008911,0.008362,-0.992188,0.144519,0.386565,0.052214,55,281,580,5760
1644174056.170678,-0.012878,0.010132,-0.994385,0.144519,0.279695,-0.14626,64,277,584,5696
1644174056.221278,-0.011169,0.009033,-0.991455,0.35826,0.508702,-0.237863,53,276,580,5696
1644174056.271377,-0.011841,0.009094,-0.992371,0.266656,0.340763,-0.14626,49,268,572,5776
1644174056.316525,-0.008484,0.011108,-0.992859,0.297191,0.386565,-0.130992,53,264,569,5728
1644174056.411832,-0.011902,0.010376,-0.991821,0.266656,0.371298,-0.054656,55,279,569,5664
1644174056.460231,-0.01123,0.012756,-0.992065,0.159786,0.310229,-0.054656,52,277,570,5696
1644174056.508618,-0.011597,0.009277,-0.99231,0.220855,0.401832,0.006412,57,270,572,5696
1644174056.557024,-0.010559,0.007568,-0.990356,0.266656,0.386565,-0.115725,52,270,575,5728
1644174056.605421,-0.008057,0.007141,-0.994019,0.175053,0.356031,-0.115725,40,275,572,5648
1644174056.65381,-0.009644,0.008423,-0.992432,0.297191,0.447634,0.082748,53,271,576,5728
1644174056.702223,-0.011047,0.010193,-0.992615,0.266656,0.24916,0.067481,49,280,570,5776
1644174056.750567,-0.007874,0.008789,-0.993042,0.251389,0.325496,-0.100458,55,266,578,5696
1644174056.798986,-0.010071,0.008911,-0.993225,0.175053,0.417099,-0.176794,48,274,580,5760
1644174056.847388,-0.011108,0.009521,-0.99231,0.312458,0.462901,-0.161527,47,282,582,5664
1644174056.895799,-0.009888,0.010071,-0.99292,0.205588,0.447634,-0.100458,53,271,580,5712
1644174056.944205,-0.01062,0.007202,-0.990479,0.220855,0.417099,-0.161527,54,265,589,5776
1644174056.992588,-0.008362,0.011169,-0.990845,0.144519,0.386565,-0.024122,49,277,577,5760
1644174057.040935,-0.010315,0.009705,-0.99176,0.281924,0.432366,-0.069924,53,276,587,5712
1644174057.093094,-0.00708,0.009216,-0.991028,0.266656,0.447634,-0.115725,46,279,569,5776
1644174057.137735,-0.006775,0.009644,-0.993103,0.037649,0.478168,-0.14626,47,277,577,5728
1644174057.186115,-0.00885,0.007629,-0.992004,0.098718,0.478168,-0.14626,51,283,578,5808
1644174057.234499,-0.011963,0.009155,-0.992676,0.205588,0.401832,-0.115725,45,275,572,5696
1644174057.282901,-0.010742,0.008362,-0.991638,0.113985,0.310229,-0.039389,53,269,576,5664
1644174057.331397,-0.010193,0.008667,-0.992493,0.190321,0.478168,-0.14626,54,268,575,5728
1644174057.381865,-0.006042,0.008301,-0.99176,0.190321,0.386565,-0.176794,52,277,568,5712
1644174057.432472,-0.00769,0.010498,-0.990906,0.236122,0.264427,-0.024122,61,285,577,5664
1644174057.477268,-0.00824,0.010132,-0.990295,0.281924,0.264427,-0.314198,57,273,572,5696
1644174057.573241,-0.011902,0.008362,-0.991272,0.159786,0.325496,-0.115725,47,280,577,5664
1644174057.62162,-0.009033,0.007385,-0.992065,0.220855,0.432366,-0.054656,53,283,566,5760
1644174057.669981,-0.011475,0.012146,-0.991577,0.175053,0.417099,0.021679,39,274,571,5664
1644174057.71841,-0.012207,0.006836,-0.992371,0.266656,0.294962,-0.100458,46,274,578,5760
1644174057.76677,-0.00708,0.010559,-0.990356,0.220855,0.462901,-0.192061,54,270,572,5728
1644174057.815192,-0.010437,0.010315,-0.99115,0.281924,0.386565,-0.115725,47,270,572,5728
1644174057.863622,-0.008057,0.011536,-0.992981,0.251389,0.386565,0.067481,52,270,570,5728
1644174057.911988,-0.007385,0.009644,-0.994629,0.373527,0.401832,-0.100458,46,281,573,5648
1644174057.960398,-0.009033,0.011902,-0.98999,0.266656,0.325496,-0.130992,46,271,562,5712
1644174058.008795,-0.00885,0.006714,-0.99408,0.175053,0.310229,-0.161527,46,274,573,5648
1644174058.064493,-0.010254,0.008301,-0.992371,0.098718,0.401832,-0.054656,52,258,582,5696
1644174058.105596,-0.012695,0.006958,-0.992188,0.144519,0.401832,-0.115725,60,276,585,5760
1644174058.153943,-0.010376,0.011658,-0.990601,0.129252,0.417099,-0.130992,55,276,573,5776
1644174058.202326,-0.010864,0.010193,-0.993469,0.327725,0.401832,-0.100458,52,270,584,5712
1644174058.2507,-0.009949,0.011292,-0.991516,0.342992,0.478168,-0.161527,45,280,575,5712
1644174058.299064,-0.009888,0.010254,-0.992126,0.236122,0.478168,-0.054656,52,265,579,5696
1644174058.34748,-0.009644,0.011475,-0.989624,0.281924,0.401832,-0.054656,32,269,578,5696
1644174058.395978,-0.010132,0.011536,-0.992493,0.068183,0.523969,-0.115725,42,275,568,5648
1644174058.444264,-0.008667,0.009766,-0.990295,0.052916,0.371298,-0.039389,53,269,576,5664
1644174058.493119,-0.008545,0.007507,-0.992737,0.266656,0.356031,-0.130992,49,280,577,5712
1644174058.542883,-0.01178,0.007324,-0.992004,0.190321,0.294962,-0.176794,59,268,577,5760
1644174058.593231,-0.012817,0.009399,-0.99176,0.266656,0.432366,-0.069924,47,265,577,5808
1644174058.638323,-0.008728,0.00885,-0.990723,0.297191,0.600305,-0.085191,52,273,570,5696
1644174058.734851,-0.011719,0.01239,-0.990662,0.312458,0.417099,-0.161527,48,274,571,5712
1644174058.783021,-0.007996,0.010254,-0.991272,-0.038687,0.539237,-0.115725,48,276,580,5664
1644174058.831389,-0.011841,0.011475,-0.99176,0.175053,0.554504,-0.100458,35,275,568,5696
1644174058.879806,-0.012329,0.012024,-0.991272,0.190321,0.386565,-0.130992,47,277,577,5712
1644174058.928181,-0.009705,0.009033,-0.991272,0.190321,0.508702,-0.100458,49,273,577,5696
1644174058.976597,-0.010681,0.007324,-0.993347,0.205588,0.340763,-0.100458,46,286,566,5760
1644174059.025052,-0.012634,0.007446,-0.994385,0.342992,0.325496,-0.130992,49,277,575,5696
1644174059.073482,-0.012329,0.011719,-0.993225,0.159786,0.539237,-0.130992,54,285,584,5712
1644174059.121812,-0.009338,0.008484,-0.991089,0.098718,0.356031,-0.008855,53,274,562,5696
1644174059.170132,-0.009766,0.008728,-0.992859,0.312458,0.447634,-0.069924,47,268,579,5696
1644174059.219096,-0.010986,0.012329,-0.990417,0.312458,0.233893,0.006412,53,269,580,5712
1644174059.266908,-0.010498,0.009155,-0.993958,0.251389,0.432366,-0.085191,47,275,579,5696
1644174059.31527,-0.008911,0.013062,-0.990906,0.190321,0.356031,-0.222595,47,287,570,5664
1644174059.363697,-0.011841,0.008606,-0.992798,0.236122,0.508702,-0.008855,49,273,579,5824
1644174059.412086,-0.009033,0.009644,-0.994751,0.144519,0.523969,-0.008855,48,274,580,5712
1644174059.460477,-0.010803,0.012329,-0.994507,0.35826,0.539237,-0.283664,58,269,580,5664
1644174059.508844,-0.012451,0.006592,-0.991821,0.327725,0.478168,-0.069924,51,271,578,5600
1644174059.557221,-0.008606,0.008911,-0.992798,0.205588,0.356031,-0.161527,49,280,591,5728
1644174059.605684,-0.013184,0.010437,-0.993042,0.419328,0.432366,-0.115725,55,274,576,5712
1644174059.65448,-0.013,0.00531,-0.991455,0.205588,0.401832,-0.115725,59,282,584,5760
1644174059.705042,-0.01355,0.008606,-0.991211,0.220855,0.615573,-0.14626,52,273,577,5712
1644174059.755746,-0.012512,0.008606,-0.992065,0.159786,0.417099,-0.069924,52,277,582,5776
1644174059.800215,-0.009155,0.009705,-0.989746,0.251389,0.356031,-0.054656,49,260,577,5696
1644174059.89601,-0.008972,0.008118,-0.991638,0.342992,0.432366,-0.115725,51,274,576,5712
1644174059.944429,-0.008911,0.01001,-0.992981,0.220855,0.417099,-0.161527,54,273,579,5712
1644174059.992808,-0.009583,0.008423,-0.994873,0.144519,0.340763,-0.222595,52,280,570,5728
1644174060.0412,-0.010193,0.01062,-0.989136,0.373527,0.493435,-0.008855,49,265,579,5696
1644174060.09397,-0.009155,0.010498,-0.993042,0.159786,0.447634,0.006412,42,280,570,5760
1644174060.137994,-0.010254,0.006165,-0.995361,0.281924,0.24916,-0.207328,53,288,576,5712
1644174060.186336,-0.008728,0.00647,-0.991028,0.129252,0.310229,-0.085191,49,268,584,5776
1644174060.234757,-0.010071,0.00708,-0.993347,0.159786,0.371298,-0.100458,53,281,573,5712
1644174060.283103,-0.010254,0.009338,-0.992249,0.373527,0.401832,-0.115725,48,269,576,5664
1644174060.331509,-0.013184,0.012329,-0.991333,0.236122,0.432366,-0.024122,42,280,589,5664
1644174060.379894,-0.008972,0.010254,-0.994995,0.236122,0.386565,-0.176794,51,274,578,5712
1644174060.428276,-0.013184,0.011841,-0.992004,0.342992,0.417099,-0.115725,53,286,578,5664
1644174060.476646,-0.007629,0.005188,-0.991821,0.129252,0.554504,-0.085191,53,271,578,5776
1644174060.525101,-0.013428,0.011353,-0.992432,0.175053,0.386565,-0.085191,47,265,584,5696
1644174060.573469,-0.011719,0.008728,-0.987671,0.190321,0.340763,-0.115725,42,275,584,5648
1644174060.622261,-0.006714,0.009216,-0.992371,0.190321,0.417099,0.006412,51,271,573,5776
1644174060.672708,-0.009338,0.012085,-0.996643,0.297191,0.432366,-0.069924,57,280,572,5696
1644174060.722984,-0.01123,0.010742,-0.995605,0.281924,0.432366,-0.054656,58,262,573,5728
1644174060.768031,-0.007812,0.008972,-0.994141,0.281924,0.401832,-0.207328,54,277,579,5712
1644174060.863834,-0.009155,0.00946,-0.99115,0.373527,0.356031,-0.100458,49,270,575,5664
1644174060.912413,-0.011597,0.008118,-0.994873,0.098718,0.493435,-0.314198,62,274,580,5728
1644174060.960617,-0.011353,0.007629,-0.992432,0.220855,0.356031,-0.039389,42,268,577,5808
1644174061.008997,-0.010071,0.009033,-0.993835,0.175053,0.371298,-0.054656,48,266,580,5712
1644174061.063045,-0.011719,0.010742,-0.991943,0.266656,0.188092,-0.115725,40,282,579,5696
1644174061.105769,-0.012695,0.010681,-0.990662,0.220855,0.371298,-0.085191,54,280,579,5712
1644174061.154221,-0.008179,0.008667,-0.991089,0.175053,0.310229,-0.085191,64,268,570,5728
1644174061.202593,-0.008911,0.007141,-0.990845,0.281924,0.356031,-0.069924,52,260,582,5728
1644174061.250937,-0.010132,0.008179,-0.992371,0.220855,0.600305,-0.222595,58,274,583,5648
1644174061.299332,-0.007629,0.010376,-0.993347,0.281924,0.264427,-0.161527,52,275,577,5728
1644174061.347759,-0.012207,0.00769,-0.993652,0.236122,0.493435,-0.25313,49,280,572,5696
1644174061.396145,-0.008789,0.006775,-0.993408,0.281924,0.478168,-0.176794,48,279,580,5728
1644174061.444539,-0.009949,0.008728,-0.992249,0.205588,0.447634,-0.25313,46,271,571,5776
1644174061.492958,-0.008972,0.008606,-0.993225,0.342992,0.310229,-0.069924,62,269,580,5760
1644174061.541314,-0.012268,0.007446,-0.991577,0.205588,0.447634,-0.054656,51,276,576,5664
1644174061.589705,-0.010681,0.00885,-0.990967,0.159786,0.386565,-0.115725,60,271,566,5760
1644174061.638099,-0.012207,0.009277,-0.99292,0.266656,0.462901,-0.069924,53,266,583,5696
1644174061.686761,-0.012817,0.009827,-0.991516,0.205588,0.508702,0.052214,59,280,589,5728
1644174061.734973,-0.009338,0.00946,-0.991455,0.205588,0.417099,-0.085191,53,269,585,5712
1644174061.785114,-0.010376,0.008057,-0.991516,0.205588,0.432366,-0.130992,46,271,569,5664
1644174061.835261,-0.008118,0.012817,-0.993286,0.144519,0.478168,-0.039389,54,268,577,5696
1644174061.885505,-0.011597,0.010193,-0.992188,0.08345,0.340763,-0.115725,52,263,577,5696
1644174061.976832,-0.012817,0.009583,-0.991821,0.068183,0.417099,-0.14626,51,279,571,5696
1644174062.02543,-0.008362,0.009216,-0.990295,0.419328,0.340763,-0.008855,52,275,575,5664
1644174062.073696,-0.010498,0.009766,-0.992676,0.297191,0.401832,-0.176794,55,271,576,5760
1644174062.121936,-0.012085,0.007568,-0.989807,0.373527,0.493435,-0.054656,53,269,569,5696
1644174062.170351,-0.013184,0.006653,-0.991699,0.098718,0.340763,0.036947,58,271,573,5760
1644174062.218735,-0.010437,0.010498,-0.992249,0.35826,0.508702,-0.039389,40,275,572,5760
1644174062.267123,-0.009949,0.008545,-0.994812,0.312458,0.386565,-0.222595,51,271,576,5712
1644174062.315506,-0.01178,0.009399,-0.993347,0.220855,0.356031,-0.085191,49,270,575,5728
1644174062.363934,-0.011414,0.010193,-0.994385,0.144519,0.264427,-0.192061,48,276,578,5728
1644174062.41233,-0.011536,0.009094,-0.993713,0.159786,0.325496,-0.069924,51,271,569,5696
1644174062.460682,-0.012329,0.010132,-0.989929,0.159786,0.523969,-0.130992,41,281,580,5696
1644174062.509091,-0.01239,0.007263,-0.988831,0.220855,0.325496,0.021679,48,276,578,5728
1644174062.557484,-0.008911,0.009644,-0.993713,0.236122,0.401832,-0.130992,48,271,576,5664
1644174062.605859,-0.009399,0.008789,-0.991516,0.312458,0.447634,-0.024122,57,275,579,5696
1644174062.654273,-0.010376,0.006836,-0.993774,0.251389,0.264427,-0.176794,47,275,568,5664
1644174062.702637,-0.009338,0.009033,-0.990906,0.251389,0.294962,-0.130992,43,271,580,5664
1644174062.751009,-0.011963,0.011902,-0.991089,0.46513,0.371298,-0.207328,53,269,578,5696
1644174062.799471,-0.006653,0.013428,-0.99115,0.434595,0.386565,-0.008855,43,271,573,5712
1644174062.847879,-0.009705,0.007385,-0.992737,0.281924,0.493435,-0.024122,55,271,571,5728
1644174062.897454,-0.011108,0.011414,-0.990845,0.312458,0.371298,0.006412,47,275,572,5728
1644174062.947401,-0.012329,0.009277,-0.992615,0.205588,0.447634,-0.207328,54,260,584,5712
1644174062.997737,-0.010681,0.011658,-0.993835,0.205588,0.356031,-0.130992,58,276,571,5760
1644174063.042304,-0.008301,0.010803,-0.991272,0.175053,0.356031,-0.100458,45,277,575,5696
1644174063.138173,-0.012329,0.009338,-0.990601,0.190321,0.386565,0.082748,47,270,579,5664
1644174063.18654,-0.008179,0.01062,-0.99054,0.220855,0.417099,-0.36,53,269,576,5808
1644174063.235054,-0.011719,0.010559,-0.992004,0.35826,0.417099,-0.054656,53,274,573,5728
1644174063.283327,-0.011169,0.009583,-0.991455,0.08345,0.340763,-0.130992,52,270,577,5648
1644174063.331716,-0.011414,0.007568,-0.993408,0.190321,0.340763,-0.054656,49,277,570,5664
1644174063.380101,-0.011963,0.00824,-0.993591,0.236122,0.432366,-0.024122,54,277,570,5696
1644174063.428522,-0.010376,0.006714,-0.995483,0.297191,0.432366,-0.115725,52,273,563,5696
1644174063.476879,-0.011841,0.014343,-0.991577,0.281924,0.523969,-0.130992,48,274,573,5712
1644174063.525297,-0.011841,0.010803,-0.99176,0.022382,0.432366,-0.085191,53,269,573,5776
1644174063.573719,-0.008118,0.009277,-0.993225,0.220855,0.371298,0.006412,51,266,569,5648
1644174063.622072,-0.010559,0.008728,-0.994507,0.251389,0.340763,-0.024122,65,276,576,5664
1644174063.670467,-0.009033,0.008423,-0.991577,0.35826,0.386565,-0.176794,45,275,584,5696
1644174063.718851,-0.012573,0.008118,-0.993286,0.175053,0.386565,-0.14626,48,274,576,5712
1644174063.767241,-0.014343,0.006653,-0.992004,0.297191,0.493435,-0.039389,54,282,575,5728
1644174063.81569,-0.00946,0.009705,-0.992432,0.312458,0.325496,-0.039389,46,276,571,5776
1644174063.864068,-0.00708,0.007507,-0.992493,0.129252,0.340763,-0.039389,52,265,565,5696
1644174063.912481,-0.007751,0.012207,-0.991333,0.434595,0.401832,-0.024122,53,271,583,5664
1644174063.960999,-0.011292,0.008301,-0.992554,0.220855,0.264427,-0.161527,51,276,580,5712
1644174064.065759,-0.00885,0.01001,-0.991943,0.327725,0.401832,-0.14626,49,270,570,5712
1644174064.105962,-0.009216,0.008728,-0.992493,0.236122,0.386565,-0.054656,51,271,578,5664
1644174064.154368,-0.010132,0.009644,-0.99469,0.236122,0.356031,-0.161527,43,283,576,5664
1644174064.202779,-0.009888,0.006958,-0.993103,0.404061,0.294962,-0.130992,48,269,580,5760
1644174064.251131,-0.014526,0.011047,-0.992188,0.35826,0.462901,-0.085191,49,277,572,5760
1644174064.299544,-0.009155,0.009705,-0.992798,0.297191,0.371298,-0.115725,54,275,572,5664
1644174064.347949,-0.008606,0.009338,-0.992188,0.068183,0.63084,-0.115725,42,290,584,5648
1644174064.396338,-0.011536,0.009827,-0.992676,0.312458,0.386565,-0.085191,52,270,575,5696
1644174064.444749,-0.010315,0.007812,-0.991516,0.037649,0.356031,-0.14626,42,273,572,5728
1644174064.493098,-0.011353,0.009827,-0.991089,0.236122,0.417099,-0.14626,55,283,592,5664
1644174064.541507,-0.010315,0.010681,-0.991882,0.236122,0.462901,-0.268397,47,287,575,5664
1644174064.589895,-0.009705,0.008118,-0.993225,0.251389,0.462901,0.082748,45,280,582,5728
1644174064.638253,-0.010376,0.011414,-0.992554,0.281924,0.462901,0.021679,48,276,585,5728
1644174064.686671,-0.00946,0.007751,-0.992004,0.144519,0.523969,-0.039389,52,273,582,5712
1644174064.735406,-0.00824,0.010803,-0.991638,0.312458,0.432366,-0.222595,51,274,583,5760
1644174064.783834,-0.008484,0.007629,-0.992004,0.312458,0.233893,-0.115725,52,277,582,5696
1644174064.834816,-0.010315,0.007202,-0.990234,0.251389,0.462901,-0.008855,54,273,582,5696
1644174064.885164,-0.009888,0.005554,-0.992981,0.312458,0.478168,0.052214,54,282,572,5728
1644174064.929751,-0.012207,0.009338,-0.991211,0.35826,0.340763,-0.130992,53,269,590,5696
1644174065.025451,-0.012634,0.008972,-0.994385,0.220855,0.325496,-0.161527,47,275,579,5712
1644174065.073946,-0.010254,0.007751,-0.991028,0.190321,0.386565,-0.192061,55,271,571,5712
1644174065.122372,-0.011475,0.008545,-0.991333,0.251389,0.386565,0.052214,52,268,577,5760
1644174065.17058,-0.01062,0.010315,-0.992554,0.205588,0.447634,-0.115725,51,266,580,5664
1644174065.218952,-0.012756,0.013489,-0.993958,0.159786,0.432366,-0.054656,46,274,566,5760
1644174065.267373,-0.008057,0.01001,-0.989868,0.144519,0.401832,0.174351,47,270,579,5712
1644174065.315736,-0.009216,0.009521,-0.991943,0.266656,0.340763,-0.085191,46,276,585,5776
1644174065.364158,-0.01001,0.01001,-0.994812,0.205588,0.401832,-0.176794,51,264,585,5712
1644174065.412522,-0.011047,0.007568,-0.993225,0.205588,0.401832,-0.085191,49,280,565,5648
1644174065.460939,-0.011536,0.012085,-0.992126,0.236122,0.432366,-0.008855,54,282,572,5728
1644174065.509329,-0.009277,0.010742,-0.989563,0.35826,0.386565,-0.14626,54,275,575,5728
1644174065.557708,-0.009888,0.009521,-0.987793,0.281924,0.325496,-0.130992,54,273,586,5808
1644174065.606098,-0.009155,0.009033,-0.993835,0.251389,0.401832,0.006412,54,265,579,5696
1644174065.654466,-0.00824,0.007263,-0.992981,0.297191,0.447634,-0.069924,49,273,568,5760
1644174065.702893,-0.010742,0.009766,-0.989807,0.175053,0.294962,-0.054656,45,273,579,5712
1644174065.751331,-0.012756,0.010376,-0.990723,0.342992,0.340763,-0.130992,57,268,570,5712
1644174065.799662,-0.01123,0.009644,-0.992798,0.312458,0.447634,-0.130992,43,279,583,5664
1644174065.848129,-0.01001,0.009888,-0.992798,0.35826,0.294962,-0.085191,47,275,575,5760
1644174065.896503,-0.009155,0.008057,-0.991516,0.312458,0.371298,-0.192061,47,285,563,5760
1644174065.94596,-0.01001,0.007385,-0.993286,0.159786,0.325496,-0.222595,46,276,573,5664
1644174065.996184,-0.007996,0.009338,-0.99054,0.266656,0.462901,-0.161527,51,279,571,5712
1644174066.090129,-0.010315,0.009949,-0.992126,0.205588,0.447634,-0.161527,43,266,583,5696
1644174066.138421,-0.008301,0.009033,-0.992493,0.007115,0.432366,-0.25313,52,273,568,5728
1644174066.186782,-0.012939,0.008789,-0.992859,0.159786,0.340763,-0.192061,49,275,582,5664
1644174066.235325,-0.012268,0.01178,-0.994019,0.342992,0.356031,-0.207328,53,274,569,5648
1644174066.283557,-0.009644,0.006348,-0.991638,0.266656,0.447634,0.052214,53,269,566,5696
1644174066.331968,-0.008423,0.010254,-0.991333,0.297191,0.356031,-0.100458,53,274,580,5760
1644174066.380364,-0.011475,0.009094,-0.993347,0.205588,0.447634,-0.054656,40,277,575,5696
1644174066.428723,-0.008545,0.010925,-0.990051,0.251389,0.417099,-0.14626,53,286,578,5712
1644174066.477122,-0.00824,0.007629,-0.991638,0.342992,0.401832,0.067481,53,276,580,5712
1644174066.525531,-0.01001,0.008545,-0.991821,0.327725,0.310229,-0.100458,52,265,579,5728
1644174066.573942,-0.010925,0.012085,-0.994019,0.327725,0.432366,-0.14626,45,275,575,5776
1644174066.622322,-0.01062,0.009705,-0.990295,0.251389,0.478168,-0.069924,49,275,570,5712
1644174066.670699,-0.010193,0.009644,-0.990356,0.297191,0.508702,-0.039389,45,285,577,5712
1644174066.719062,-0.011169,0.010742,-0.993408,0.144519,0.447634,-0.008855,51,276,576,5808
1644174066.767481,-0.010071,0.011475,-0.993469,0.144519,0.417099,-0.130992,47,277,579,5664
1644174066.815873,-0.010376,0.010376,-0.993103,0.144519,0.340763,-0.161527,53,279,583,5664
1644174066.864681,-0.010376,0.010315,-0.993164,0.342992,0.432366,-0.069924,52,280,584,5728
1644174066.912704,-0.009277,0.010193,-0.992737,0.236122,0.264427,-0.161527,52,268,584,5696
1644174066.962739,-0.009644,0.009705,-0.98999,0.342992,0.462901,0.006412,55,279,583,5760
1644174067.060559,-0.011841,0.01123,-0.99231,0.342992,0.478168,-0.207328,55,266,580,5696
1644174067.10623,-0.012756,0.011658,-0.991028,0.35826,0.386565,-0.14626,55,279,578,5760
1644174067.154955,-0.009644,0.011047,-0.99469,0.266656,0.539237,-0.222595,47,265,575,5728
1644174067.203011,-0.010498,0.009399,-0.990662,0.35826,0.401832,-0.14626,52,273,570,5696
