epoch,acc_x,acc_y,acc_z,rot_x,rot_y,rot_z,mag_x,mag_y,mag_z,temp
1644172200.06627,-0.012512,0.009521,-0.993042,0.35826,0.554504,-0.085191,46,281,578,5664
1644172200.098973,-0.010437,0.008423,-0.993164,0.266656,0.340763,-0.207328,47,282,579,5664
1644172200.143106,-0.010864,0.009155,-0.992554,0.419328,0.401832,-0.054656,49,282,572,5696
1644172200.191428,-0.01062,0.010132,-0.992126,0.266656,0.447634,0.082748,43,276,583,5664
1644172200.239812,-0.011353,0.006287,-0.990601,0.236122,0.371298,-0.100458,51,274,578,5696
1644172200.288224,-0.011108,0.009583,-0.993469,0.266656,0.371298,-0.207328,45,275,579,5696
1644172200.33662,-0.010498,0.010193,-0.992859,0.373527,0.356031,0.021679,55,276,576,5648
1644172200.385057,-0.010132,0.011047,-0.990723,0.266656,0.432366,-0.008855,53,262,587,5728
1644172200.433679,-0.013062,0.009399,-0.992188,0.220855,0.386565,0.006412,51,269,585,5696
1644172200.482636,-0.01001,0.008423,-0.992676,0.113985,0.646107,-0.115725,47,275,577,5776
1644172200.5332,-0.009094,0.009277,-0.992432,0.113985,0.493435,-0.115725,48,279,576,5760
1644172200.583378,-0.013306,0.009521,-0.994019,0.251389,0.478168,-0.008855,43,269,576,5728
1644172200.675418,-0.009949,0.009521,-0.992249,0.113985,0.340763,-0.054656,48,274,573,5696
1644172200.723753,-0.009705,0.008789,-0.991211,0.129252,0.539237,-0.039389,62,276,576,5712
1644172200.772368,-0.011841,0.008423,-0.994202,0.190321,0.554504,-0.039389,46,274,571,5648
1644172200.82053,-0.013184,0.009155,-0.990967,0.190321,0.386565,-0.069924,48,266,571,5760
1644172200.868923,-0.011658,0.004517,-0.991455,0.190321,0.340763,0.006412,52,275,572,5664
1644172200.917342,-0.012085,0.012573,-0.993591,0.327725,0.371298,-0.192061,45,270,579,5728
1644172200.965697,-0.011963,0.01001,-0.99054,0.190321,0.264427,0.052214,47,273,572,5696
1644172201.014128,-0.009705,0.010315,-0.992004,0.175053,0.462901,-0.100458,51,271,578,5696
1644172201.063914,-0.011108,0.010376,-0.992065,0.220855,0.371298,-0.085191,49,280,589,5728
1644172201.110862,-0.007324,0.00885,-0.990906,-0.008153,0.493435,-0.085191,55,269,585,5760
1644172201.159277,-0.010864,0.008057,-0.99231,0.190321,0.661374,-0.039389,49,263,570,5664
1644172201.207647,-0.010986,0.010681,-0.991821,0.327725,0.325496,0.006412,49,280,572,5728
1644172201.256029,-0.010925,0.009216,-0.992798,0.08345,0.432366,-0.085191,64,275,575,5760
1644172201.304428,-0.009949,0.005859,-0.992493,0.342992,0.401832,-0.115725,52,282,579,5648
1644172201.352825,-0.01123,0.010559,-0.994934,0.281924,0.279695,-0.069924,54,277,582,5648
1644172201.40122,-0.012817,0.00946,-0.991211,0.144519,0.401832,-0.069924,42,285,582,5664
1644172201.449573,-0.010986,0.008911,-0.992065,0.220855,0.386565,-0.176794,45,277,579,5712
1644172201.497966,-0.012268,0.008728,-0.994568,0.220855,0.264427,-0.085191,39,274,578,5776
1644172201.546381,-0.011963,0.009888,-0.992798,0.312458,0.325496,-0.024122,48,266,580,5696
1644172201.595436,-0.010803,0.008606,-0.991577,0.373527,0.310229,0.082748,47,277,577,5696
1644172201.646159,-0.011169,0.00592,-0.993408,0.175053,0.401832,-0.100458,54,273,575,5696
1644172201.696214,-0.010681,0.006287,-0.990479,0.297191,0.432366,0.052214,57,282,579,5728
1644172201.741257,-0.010986,0.00769,-0.994568,0.175053,0.447634,-0.130992,51,262,576,5728
1644172201.836717,-0.009827,0.011169,-0.990417,0.327725,0.386565,-0.14626,54,280,572,5712
1644172201.885484,-0.009094,0.012756,-0.993347,0.205588,0.401832,-0.054656,46,257,585,5648
1644172201.933558,-0.012451,0.00946,-0.99231,0.220855,0.432366,-0.192061,54,273,584,5760
1644172201.9819,-0.012329,0.011963,-0.992798,0.312458,0.401832,0.036947,49,273,575,5664
1644172202.030322,-0.011169,0.00769,-0.991699,0.266656,0.462901,-0.176794,48,279,580,5696
1644172202.079706,-0.012024,0.007568,-0.992188,0.251389,0.478168,-0.039389,54,270,584,5696
1644172202.127101,-0.010132,0.011169,-0.993652,0.205588,0.447634,-0.100458,45,275,579,5696
1644172202.175474,-0.009705,0.00946,-0.992676,0.175053,0.523969,0.021679,45,273,582,5728
1644172202.223901,-0.01001,0.007141,-0.989502,0.220855,0.508702,0.12855,49,268,575,5664
1644172202.272285,-0.009155,0.009155,-0.990479,0.113985,0.478168,-0.176794,52,277,584,5760
1644172202.320678,-0.011353,0.00946,-0.99054,0.342992,0.371298,-0.008855,49,275,572,5696
1644172202.369052,-0.011108,0.00592,-0.990723,0.236122,0.493435,-0.268397,52,280,570,5728
1644172202.417466,-0.008545,0.008545,-0.993164,0.205588,0.447634,0.052214,59,282,570,5696
1644172202.465841,-0.010742,0.009094,-0.992615,0.236122,0.508702,-0.100458,54,273,575,5728
1644172202.51421,-0.00946,0.010315,-0.991516,0.251389,0.417099,-0.054656,48,279,583,5712
1644172202.562637,-0.01178,0.01001,-0.993103,0.129252,0.386565,-0.069924,51,266,571,5696
1644172202.611001,-0.013123,0.004333,-0.991699,0.342992,0.447634,-0.100458,53,274,585,5648
1644172202.659418,-0.010132,0.011719,-0.99408,0.388794,0.340763,-0.237863,53,271,578,5712
1644172202.708101,-0.013062,0.007446,-0.993164,0.236122,0.417099,-0.130992,51,269,576,5808
1644172202.758567,-0.012451,0.006775,-0.99353,0.175053,0.340763,-0.176794,47,268,584,5696
1644172202.808906,-0.008545,0.009705,-0.989319,0.388794,0.447634,0.006412,48,274,580,5760
1644172202.853341,-0.011353,0.008972,-0.995178,0.297191,0.462901,-0.100458,47,273,579,5696
1644172202.949771,-0.008972,0.010437,-0.991394,0.266656,0.432366,-0.024122,49,263,575,5712
1644172202.998102,-0.01178,0.012329,-0.994141,0.144519,0.218626,-0.100458,48,283,569,5664
1644172203.061058,-0.010376,0.008301,-0.991821,0.159786,0.447634,-0.207328,47,268,570,5664
1644172203.095585,-0.010193,0.006348,-0.993286,0.342992,0.264427,-0.100458,43,276,580,5808
1644172203.143253,-0.012695,0.009399,-0.993347,0.190321,0.371298,0.082748,58,281,571,5632
1644172203.191663,-0.012878,0.01001,-0.991089,0.205588,0.340763,-0.008855,54,273,584,5696
1644172203.240063,-0.010437,0.009583,-0.994751,0.388794,0.340763,-0.039389,52,285,586,5712
1644172203.28844,-0.011414,0.009705,-0.992493,0.281924,0.493435,-0.054656,47,273,575,5696
1644172203.336842,-0.010986,0.010742,-0.994507,0.327725,0.447634,-0.024122,51,279,578,5728
1644172203.385231,-0.014709,0.007812,-0.992065,0.327725,0.508702,-0.176794,57,268,572,5696
1644172203.433599,-0.015564,0.009399,-0.993835,0.342992,0.356031,-0.039389,51,283,573,5664
1644172203.482005,-0.010742,0.009033,-0.993835,0.312458,0.432366,-0.176794,51,264,578,5696
1644172203.530388,-0.01001,0.008606,-0.992004,0.327725,0.310229,-0.039389,51,269,571,5728
1644172203.578791,-0.012268,0.006531,-0.993958,0.373527,0.310229,-0.100458,42,277,575,5696
1644172203.628302,-0.011292,0.008118,-0.99115,0.281924,0.294962,-0.008855,54,275,577,5712
1644172203.678693,-0.011536,0.008362,-0.992432,0.144519,0.478168,-0.115725,55,266,573,5728
1644172203.728845,-0.013855,0.011047,-0.992737,0.342992,0.294962,-0.054656,58,271,580,5712
1644172203.820787,-0.012207,0.01001,-0.992126,0.175053,0.417099,-0.039389,54,275,582,5696
1644172203.86917,-0.008423,0.006775,-0.994202,0.281924,0.401832,-0.024122,58,266,578,5664
1644172203.91753,-0.012634,0.00946,-0.992859,0.35826,0.493435,-0.115725,54,273,575,5696
1644172203.965946,-0.011353,0.007446,-0.994507,0.404061,0.24916,-0.130992,53,264,573,5712
1644172204.014321,-0.009033,0.009644,-0.990723,0.190321,0.279695,-0.024122,52,275,577,5696
1644172204.066509,-0.013,0.009399,-0.991272,0.419328,0.447634,0.036947,47,282,579,5696
1644172204.11107,-0.01001,0.008118,-0.992981,0.312458,0.432366,0.036947,47,273,586,5648
1644172204.159471,-0.01178,0.008057,-0.991943,0.373527,0.401832,-0.100458,43,274,573,5728
1644172204.207872,-0.008972,0.007324,-0.990051,0.404061,0.508702,-0.207328,46,271,571,5712
1644172204.256259,-0.011047,0.010071,-0.992249,0.220855,0.478168,-0.298931,53,276,583,5712
1644172204.304704,-0.010132,0.008911,-0.992249,0.266656,0.417099,-0.069924,52,275,577,5664
1644172204.353051,-0.009827,0.008423,-0.990845,0.190321,0.386565,-0.130992,53,276,578,5696
1644172204.401423,-0.009521,0.008728,-0.989807,0.068183,0.371298,-0.008855,43,266,578,5664
1644172204.449821,-0.011536,0.007324,-0.99115,0.251389,0.294962,-0.100458,45,275,579,5696
1644172204.498213,-0.009155,0.009705,-0.992188,0.251389,0.417099,-0.115725,51,283,576,5664
1644172204.546596,-0.013977,0.007629,-0.993103,0.297191,0.508702,0.098015,51,274,583,5696
1644172204.59503,-0.012268,0.007202,-0.992615,0.35826,0.417099,-0.024122,46,276,578,5696
1644172204.643384,-0.009949,0.006042,-0.99115,0.327725,0.508702,-0.130992,51,271,576,5760
1644172204.691788,-0.01239,0.009766,-0.99353,0.113985,0.356031,-0.100458,43,271,578,5664
1644172204.740285,-0.01001,0.01062,-0.991394,0.312458,0.294962,-0.115725,48,274,573,5776
1644172204.790682,-0.008667,0.009583,-0.989929,0.190321,0.386565,-0.14626,43,283,580,5648
1644172204.842565,-0.007996,0.009705,-0.992188,0.327725,0.325496,-0.054656,53,269,571,5712
1644172204.88648,-0.014038,0.007751,-0.995483,0.251389,0.371298,-0.024122,45,273,579,5696
1644172204.9824,-0.01123,0.010925,-0.993713,0.236122,0.462901,-0.283664,52,273,584,5696
1644172205.030515,-0.012207,0.009216,-0.995605,0.266656,0.462901,-0.054656,48,269,576,5664
1644172205.082864,-0.011475,0.008057,-0.992676,0.175053,0.432366,-0.008855,54,265,582,5696
1644172205.127314,-0.011414,0.010193,-0.991028,0.068183,0.539237,-0.115725,43,281,580,5728
1644172205.175686,-0.009583,0.008789,-0.993652,0.327725,0.447634,0.067481,60,266,578,5664
1644172205.224073,-0.011353,0.009094,-0.990845,0.236122,0.371298,-0.085191,52,280,575,5648
1644172205.272445,-0.013184,0.007629,-0.992798,0.35826,0.508702,-0.161527,62,279,566,5728
1644172205.32085,-0.011169,0.010803,-0.994446,0.251389,0.417099,-0.054656,57,277,579,5728
1644172205.369244,-0.011292,0.009216,-0.994446,0.297191,0.462901,-0.207328,46,264,580,5664
1644172205.417647,-0.00708,0.010071,-0.990601,0.281924,0.523969,0.052214,41,281,585,5760
1644172205.466014,-0.011292,0.009216,-0.994324,0.190321,0.310229,-0.085191,48,279,571,5760
1644172205.514403,-0.007507,0.010803,-0.993774,0.144519,0.493435,-0.008855,52,280,575,5712
1644172205.562816,-0.010376,0.007812,-0.994446,0.281924,0.401832,-0.085191,51,279,569,5728
1644172205.611197,-0.007507,0.007568,-0.990967,0.327725,0.417099,-0.14626,45,282,579,5696
1644172205.659585,-0.010132,0.007629,-0.99231,0.419328,0.371298,0.052214,51,279,580,5664
1644172205.707978,-0.013672,0.007446,-0.992554,0.113985,0.386565,-0.085191,48,276,585,5664
1644172205.756345,-0.010315,0.011719,-0.989441,0.281924,0.401832,-0.237863,53,271,569,5712
1644172205.804764,-0.011475,0.008606,-0.990784,0.266656,0.356031,-0.176794,55,271,580,5664
1644172205.85322,-0.009827,0.009644,-0.993835,0.327725,0.432366,-0.039389,53,269,571,5760
1644172205.903228,-0.010132,0.008118,-0.991516,0.08345,0.340763,-0.039389,38,275,570,5664
1644172205.953465,-0.010193,0.01001,-0.993835,0.327725,0.432366,-0.130992,49,280,577,5760
1644172206.004087,-0.009094,0.008484,-0.98877,0.404061,0.294962,-0.176794,49,273,584,5696
1644172206.072953,-0.01001,0.006348,-0.993713,0.220855,0.401832,0.021679,45,280,582,5696
1644172206.14355,-0.009338,0.008301,-0.995605,0.205588,0.417099,-0.176794,42,273,570,5728
1644172206.191876,-0.010742,0.009583,-0.99231,0.266656,0.401832,-0.130992,46,281,571,5728
1644172206.240264,-0.00946,0.010132,-0.993896,0.297191,0.401832,-0.161527,57,275,579,5712
1644172206.288665,-0.012573,0.011536,-0.993408,0.236122,0.539237,-0.069924,41,281,580,5728
1644172206.33706,-0.012085,0.007202,-0.99408,0.327725,0.508702,-0.085191,48,266,566,5712
1644172206.385444,-0.010437,0.009888,-0.990234,0.266656,0.218626,-0.207328,57,277,572,5648
1644172206.433846,-0.009155,0.007019,-0.993896,0.205588,0.462901,-0.176794,59,270,577,5664
1644172206.482236,-0.014404,0.009949,-0.993042,0.175053,0.493435,-0.14626,54,275,577,5696
1644172206.530622,-0.009033,0.009644,-0.991943,0.35826,0.371298,-0.100458,52,270,575,5712
1644172206.579014,-0.013916,0.007812,-0.995117,0.297191,0.585038,-0.085191,48,269,585,5728
1644172206.627382,-0.010803,0.009521,-0.992126,0.251389,0.371298,0.036947,43,279,569,5664
1644172206.675792,-0.01239,0.010071,-0.992798,0.236122,0.233893,0.006412,51,279,578,5696
1644172206.724168,-0.009094,0.006348,-0.994568,0.251389,0.417099,-0.192061,53,271,573,5712
1644172206.772591,-0.008301,0.009216,-0.993225,0.327725,0.417099,-0.024122,55,283,576,5664
1644172206.820965,-0.010132,0.008057,-0.991882,0.434595,0.432366,0.067481,46,271,573,5664
1644172206.8694,-0.012939,0.006775,-0.993896,0.434595,0.508702,-0.207328,49,282,579,5760
1644172206.917755,-0.014465,0.010681,-0.992432,0.251389,0.432366,-0.085191,54,268,572,5728
1644172206.966514,-0.01001,0.008789,-0.993408,0.205588,0.432366,-0.085191,48,271,587,5760
1644172207.014637,-0.011047,0.00708,-0.994324,0.342992,0.554504,-0.100458,49,275,577,5696
1644172207.094377,-0.012085,0.009338,-0.994324,0.113985,0.432366,-0.008855,57,275,572,5728
1644172207.11155,-0.011719,0.010986,-0.992798,0.220855,0.386565,-0.161527,47,280,584,5728
1644172207.208104,-0.008118,0.006714,-0.994324,0.190321,0.356031,-0.085191,57,277,575,5712
1644172207.256465,-0.010803,0.009094,-0.992249,0.190321,0.371298,-0.192061,48,269,580,5648
1644172207.304857,-0.013977,0.010315,-0.994629,0.281924,0.279695,-0.130992,35,270,568,5696
1644172207.353253,-0.010132,0.006226,-0.991394,0.113985,0.188092,-0.039389,45,270,565,5728
1644172207.401647,-0.010925,0.009521,-0.99353,0.175053,0.340763,-0.039389,43,271,571,5696
1644172207.450033,-0.01062,0.009766,-0.992126,0.297191,0.432366,-0.115725,39,276,571,5696
1644172207.498426,-0.011108,0.008911,-0.988647,0.281924,0.401832,-0.100458,45,280,582,5760
1644172207.546811,-0.01062,0.010803,-0.990662,0.312458,0.432366,0.052214,45,277,568,5760
1644172207.595225,-0.012756,0.009094,-0.993408,0.281924,0.554504,-0.069924,45,275,572,5776
1644172207.643607,-0.010925,0.007996,-0.990601,0.236122,0.356031,-0.161527,42,282,575,5664
1644172207.691995,-0.010742,0.009216,-0.991943,0.281924,0.462901,-0.085191,42,273,575,5696
1644172207.740384,-0.010254,0.007629,-0.992798,0.190321,0.371298,-0.115725,47,282,577,5648
1644172207.788771,-0.01123,0.007141,-0.99231,0.159786,0.493435,-0.039389,46,266,576,5728
1644172207.837168,-0.01178,0.009827,-0.99115,0.190321,0.539237,-0.161527,54,273,572,5648
1644172207.885607,-0.009216,0.007629,-0.991333,0.251389,0.462901,-0.130992,59,285,572,5664
1644172207.933981,-0.010254,0.008606,-0.992554,0.205588,0.386565,-0.039389,48,279,571,5664
1644172207.982391,-0.008789,0.008545,-0.991577,0.266656,0.432366,-0.314198,49,273,584,5664
1644172208.030785,-0.01001,0.007568,-0.99231,0.220855,0.539237,-0.085191,49,273,577,5664
1644172208.081439,-0.011719,0.00885,-0.993347,0.220855,0.386565,-0.161527,48,276,578,5728
1644172208.128538,-0.010559,0.010193,-0.991943,0.159786,0.325496,0.021679,48,274,564,5712
1644172208.178825,-0.01123,0.009094,-0.994385,0.404061,0.478168,-0.024122,47,275,582,5664
1644172208.228939,-0.012512,0.009399,-0.991821,0.175053,0.432366,-0.085191,42,282,582,5664
1644172208.273495,-0.010681,0.008972,-0.991394,0.113985,0.386565,-0.14626,46,274,585,5664
1644172208.369519,-0.010742,0.011658,-0.992981,0.373527,0.585038,-0.237863,58,274,569,5728
1644172208.417887,-0.012146,0.007874,-0.995911,0.236122,0.462901,0.082748,42,258,577,5648
1644172208.466279,-0.012878,0.008789,-0.992554,0.281924,0.417099,0.036947,46,274,578,5760
1644172208.514689,-0.011902,0.010559,-0.990356,0.205588,0.569771,-0.100458,49,273,577,5808
1644172208.563099,-0.012268,0.007263,-0.995056,0.190321,0.447634,-0.207328,42,270,591,5696
1644172208.611453,-0.012939,0.008362,-0.993286,0.266656,0.188092,-0.085191,55,279,583,5760
1644172208.659862,-0.009033,0.008667,-0.990967,0.297191,0.310229,-0.085191,51,279,573,5760
1644172208.708219,-0.010193,0.010681,-0.993164,0.297191,0.447634,-0.085191,47,275,584,5760
1644172208.756645,-0.010376,0.009705,-0.993042,0.297191,0.417099,-0.085191,47,273,577,5760
1644172208.805142,-0.009399,0.006836,-0.990601,0.281924,0.340763,-0.039389,48,266,571,5632
1644172208.853429,-0.012756,0.006042,-0.993408,0.266656,0.294962,-0.100458,45,277,575,5760
1644172208.901805,-0.009277,0.011108,-0.99408,0.35826,0.310229,0.067481,40,282,575,5696
1644172208.950197,-0.012268,0.00946,-0.99231,0.175053,0.325496,0.021679,46,276,573,5696
1644172208.99859,-0.009338,0.007507,-0.993103,0.205588,0.203359,-0.14626,52,273,577,5696
1644172209.063899,-0.01239,0.008118,-0.993958,0.159786,0.325496,0.021679,52,275,579,5760
1644172209.096146,-0.012085,0.011414,-0.990845,0.312458,0.356031,-0.130992,60,279,585,5728
1644172209.143721,-0.014038,0.008484,-0.991272,0.175053,0.294962,-0.115725,55,274,583,5760
1644172209.192436,-0.012817,0.007874,-0.992188,0.190321,0.386565,-0.130992,48,279,578,5760
1644172209.240527,-0.011414,0.01001,-0.993286,0.297191,0.462901,-0.085191,53,266,576,5696
1644172209.290405,-0.010925,0.009888,-0.991333,0.175053,0.462901,0.006412,51,279,590,5648
1644172209.340714,-0.011658,0.008667,-0.993042,0.312458,0.356031,-0.085191,45,273,584,5696
1644172209.390696,-0.00769,0.006287,-0.993103,0.113985,0.24916,-0.054656,49,275,568,5712
1644172209.482476,-0.009766,0.007385,-0.991028,0.220855,0.478168,-0.069924,57,275,586,5696
1644172209.530823,-0.012817,0.007568,-0.992493,0.373527,0.447634,-0.192061,41,271,583,5760
1644172209.579232,-0.010925,0.006287,-0.98938,0.205588,0.462901,-0.14626,45,275,577,5696
1644172209.627625,-0.012207,0.006897,-0.991333,0.266656,0.386565,-0.14626,57,282,572,5696
1644172209.676012,-0.009216,0.005981,-0.991577,0.175053,0.294962,0.006412,49,268,570,5664
1644172209.724411,-0.009094,0.008484,-0.99054,0.281924,0.432366,-0.176794,49,265,579,5728
1644172209.772824,-0.015015,0.006348,-0.994019,0.159786,0.447634,-0.054656,45,275,572,5696
1644172209.821232,-0.013062,0.009399,-0.993042,0.251389,0.462901,-0.100458,52,273,572,5712
1644172209.869612,-0.007874,0.008057,-0.99176,0.388794,0.417099,-0.054656,45,270,586,5696
1644172209.918003,-0.011108,0.006592,-0.994141,0.098718,0.462901,-0.130992,54,270,582,5712
1644172209.966385,-0.01123,0.008545,-0.991943,0.113985,0.478168,-0.14626,52,270,577,5728
1644172210.014788,-0.010742,0.007263,-0.991577,0.312458,0.462901,-0.008855,51,271,571,5712
1644172210.065516,-0.009766,0.009094,-0.993591,0.281924,0.264427,0.067481,40,273,586,5712
1644172210.111557,-0.009766,0.009583,-0.992615,0.312458,0.371298,-0.054656,45,277,582,5760
1644172210.159904,-0.008972,0.007202,-0.991638,0.205588,0.371298,-0.130992,49,270,582,5712
1644172210.208317,-0.009399,0.008667,-0.994019,0.327725,0.279695,0.021679,43,274,576,5760
1644172210.256682,-0.008484,0.010193,-0.992615,0.35826,0.401832,-0.222595,46,276,569,5728
1644172210.305129,-0.009033,0.009644,-0.994446,0.266656,0.478168,-0.115725,48,274,585,5664
1644172210.353493,-0.011353,0.009094,-0.991516,0.236122,0.401832,0.052214,45,260,575,5712
1644172210.402035,-0.011658,0.008545,-0.992004,0.266656,0.508702,-0.069924,43,279,571,5664
1644172210.452492,-0.012146,0.008911,-0.995605,0.220855,0.294962,-0.039389,52,258,579,5712
1644172210.502736,-0.012024,0.007385,-0.99231,0.190321,0.371298,-0.100458,47,277,572,5696
1644172210.547605,-0.012756,0.007202,-0.992249,0.312458,0.523969,-0.130992,49,275,575,5712
1644172210.64383,-0.012817,0.005981,-0.992432,0.266656,0.508702,-0.008855,51,274,587,5712
1644172210.692392,-0.009521,0.006836,-0.992554,0.205588,0.386565,-0.161527,45,273,579,5696
1644172210.740604,-0.01123,0.006958,-0.993896,0.281924,0.325496,0.12855,41,288,578,5664
1644172210.78901,-0.01062,0.00824,-0.993835,0.342992,0.386565,-0.069924,53,281,569,5664
1644172210.837414,-0.012451,0.009338,-0.992493,0.113985,0.325496,0.098015,43,279,578,5696
1644172210.885819,-0.013489,0.00769,-0.990662,0.266656,0.356031,-0.069924,43,276,580,5696
1644172210.934221,-0.013245,0.00885,-0.99353,0.281924,0.417099,-0.008855,40,273,577,5712
1644172210.982635,-0.013489,0.007996,-0.993896,0.297191,0.371298,-0.024122,55,276,583,5696
1644172211.031,-0.009521,0.008423,-0.993958,0.175053,0.432366,-0.14626,54,275,572,5696
1644172211.089532,-0.011658,0.007935,-0.991638,0.220855,0.264427,0.052214,48,274,580,5712
1644172211.127698,-0.01239,0.009949,-0.995972,0.312458,0.401832,-0.237863,48,274,580,5728
1644172211.176145,-0.008484,0.008606,-0.993164,0.205588,0.493435,0.082748,51,279,580,5712
1644172211.224525,-0.010925,0.009338,-0.992554,0.342992,0.417099,-0.085191,47,282,586,5712
1644172211.272889,-0.008545,0.01001,-0.993225,0.08345,0.356031,-0.069924,52,280,579,5728
1644172211.321303,-0.010132,0.009644,-0.992188,0.175053,0.340763,-0.100458,62,274,571,5664
1644172211.36977,-0.011475,0.00769,-0.993225,0.190321,0.279695,-0.222595,57,265,586,5728
1644172211.42031,-0.014343,0.009155,-0.991882,0.220855,0.386565,0.159084,58,266,585,5696
1644172211.470214,-0.011963,0.006409,-0.992249,0.297191,0.447634,0.036947,55,276,578,5648
1644172211.515413,-0.012207,0.007385,-0.992371,0.098718,0.493435,-0.008855,46,271,578,5728
1644172211.611653,-0.009888,0.006836,-0.990906,0.236122,0.508702,-0.100458,51,279,578,5728
1644172211.660014,-0.012695,0.010498,-0.991272,0.327725,0.401832,-0.115725,53,286,566,5696
1644172211.708426,-0.007385,0.01001,-0.990479,0.35826,0.539237,-0.100458,45,273,582,5760
1644172211.756783,-0.012146,0.009216,-0.993286,0.220855,0.371298,-0.024122,45,273,577,5696
1644172211.805197,-0.010803,0.007141,-0.992249,0.327725,0.417099,-0.008855,60,276,576,5648
1644172211.853627,-0.012207,0.008484,-0.990051,0.236122,0.432366,-0.100458,53,269,573,5664
1644172211.902032,-0.009949,0.00708,-0.994141,0.312458,0.478168,-0.14626,53,266,580,5664
1644172211.950425,-0.011169,0.009888,-0.992798,0.312458,0.508702,-0.008855,46,276,571,5664
1644172211.998793,-0.012573,0.008362,-0.992432,0.205588,0.24916,-0.176794,40,273,570,5760
1644172212.064129,-0.012878,0.007202,-0.992493,0.297191,0.493435,-0.192061,55,274,580,5760
1644172212.099468,-0.012512,0.009033,-0.99292,0.281924,0.294962,-0.100458,47,270,582,5664
1644172212.143956,-0.009155,0.00885,-0.992798,0.205588,0.218626,-0.14626,40,277,582,5760
1644172212.192363,-0.009888,0.009521,-0.993164,0.220855,0.401832,-0.100458,41,281,571,5696
1644172212.240697,-0.008728,0.008545,-0.992371,0.404061,0.340763,-0.192061,54,260,572,5696
1644172212.289119,-0.009949,0.009766,-0.993164,0.190321,0.24916,-0.14626,47,285,586,5696
1644172212.337482,-0.012451,0.008728,-0.993713,0.113985,0.401832,-0.024122,53,281,580,5664
1644172212.385894,-0.009705,0.01001,-0.992432,0.159786,0.356031,-0.069924,47,277,582,5696
1644172212.434286,-0.012207,0.006531,-0.992676,0.129252,0.386565,-0.14626,48,283,583,5696
1644172212.482694,-0.009338,0.006714,-0.992493,0.220855,0.371298,-0.039389,45,280,570,5712
1644172212.531223,-0.012024,0.009033,-0.991333,0.190321,0.447634,-0.024122,46,274,578,5696
1644172212.581672,-0.01532,0.011047,-0.993103,0.281924,0.401832,-0.069924,48,271,573,5664
1644172212.631848,-0.00946,0.010071,-0.99469,0.342992,0.371298,0.052214,48,274,573,5648
1644172212.677022,-0.013367,0.008972,-0.992737,0.220855,0.371298,-0.039389,46,271,580,5664
1644172212.773025,-0.012146,0.007629,-0.989563,0.327725,0.432366,-0.192061,53,279,583,5712
1644172212.821394,-0.007446,0.010315,-0.99115,0.404061,0.569771,-0.069924,54,292,577,5664
1644172212.869831,-0.010986,0.011353,-0.993225,0.297191,0.508702,-0.130992,49,277,563,5696
1644172212.918231,-0.010864,0.009399,-0.993591,0.205588,0.539237,-0.069924,53,269,585,5648
1644172212.966626,-0.014099,0.005493,-0.995605,0.236122,0.386565,-0.039389,53,276,569,5712
1644172213.015178,-0.010559,0.007263,-0.994263,0.220855,0.264427,-0.14626,43,279,583,5696
1644172213.067922,-0.009338,0.009094,-0.994324,0.312458,0.508702,-0.176794,47,273,577,5712
1644172213.111821,-0.010803,0.009521,-0.992615,0.068183,0.356031,0.006412,58,269,587,5664
1644172213.160151,-0.013611,0.012817,-0.991638,0.342992,0.417099,-0.115725,49,277,579,5712
1644172213.208544,-0.010254,0.010437,-0.992676,0.159786,0.447634,0.052214,46,264,573,5696
1644172213.256917,-0.010132,0.011047,-0.993652,0.312458,0.432366,-0.069924,62,281,580,5696
1644172213.305297,-0.012024,0.010986,-0.990906,0.220855,0.615573,-0.008855,61,273,582,5648
1644172213.35373,-0.009399,0.007568,-0.993164,0.342992,0.493435,-0.054656,52,282,572,5664
1644172213.402161,-0.012146,0.010071,-0.991577,0.312458,0.371298,-0.054656,47,275,568,5728
1644172213.450498,-0.011169,0.009094,-0.992371,0.159786,0.432366,-0.069924,47,273,579,5664
1644172213.498901,-0.010986,0.009583,-0.989746,0.236122,0.447634,-0.069924,53,266,583,5648
1644172213.547277,-0.010376,0.008545,-0.992981,0.220855,0.417099,-0.085191,55,276,576,5696
1644172213.59568,-0.01001,0.00708,-0.993103,0.175053,0.401832,0.052214,47,263,589,5728
1644172213.644042,-0.011597,0.008057,-0.992188,0.342992,0.569771,0.098015,51,259,583,5664
1644172213.69277,-0.010803,0.008545,-0.991394,0.190321,0.371298,-0.14626,53,266,571,5712
1644172213.743497,-0.009644,0.009583,-0.990845,0.281924,0.356031,-0.024122,47,275,575,5696
1644172213.793575,-0.010315,0.008301,-0.991089,0.205588,0.14229,-0.130992,54,270,577,5664
1644172213.839442,-0.011108,0.009888,-0.99231,0.388794,0.386565,-0.039389,41,271,576,5664
1644172213.934459,-0.009705,0.006531,-0.992554,0.434595,0.340763,-0.115725,49,275,572,5648
1644172213.982816,-0.010254,0.009766,-0.99292,0.236122,0.478168,-0.14626,48,266,573,5648
1644172214.031202,-0.009949,0.011597,-0.993042,0.266656,0.371298,-0.085191,39,279,576,5664
1644172214.079702,-0.011475,0.008118,-0.992249,0.220855,0.600305,-0.115725,55,281,578,5648
1644172214.127997,-0.011597,0.01001,-0.994629,0.175053,0.401832,-0.069924,48,274,576,5664
1644172214.176344,-0.010132,0.007263,-0.994141,0.236122,0.585038,-0.039389,46,269,580,5664
1644172214.224745,-0.013306,0.006653,-0.991028,0.266656,0.523969,-0.039389,58,274,578,5760
1644172214.273111,-0.010864,0.008118,-0.994568,0.266656,0.401832,0.021679,53,276,573,5760
1644172214.321525,-0.013489,0.009094,-0.994385,0.190321,0.539237,-0.176794,46,274,569,5696
1644172214.369917,-0.008972,0.007263,-0.991699,0.236122,0.401832,0.006412,49,277,579,5712
1644172214.418308,-0.01001,0.005798,-0.993103,0.373527,0.294962,0.021679,54,265,579,5728
1644172214.466691,-0.009949,0.008423,-0.994202,0.327725,0.447634,-0.14626,52,275,582,5760
1644172214.515189,-0.009827,0.008789,-0.991882,0.266656,0.340763,-0.085191,53,271,578,5664
1644172214.563468,-0.011841,0.007996,-0.994873,0.159786,0.356031,-0.039389,59,270,579,5712
1644172214.611868,-0.008301,0.009155,-0.992249,0.266656,0.325496,0.006412,42,275,575,5712
1644172214.660265,-0.011169,0.007996,-0.995361,0.129252,0.371298,-0.085191,57,275,577,5648
1644172214.70862,-0.007996,0.009583,-0.994446,0.236122,0.401832,-0.024122,58,269,583,5696
1644172214.757032,-0.011963,0.010742,-0.994263,0.144519,0.371298,0.036947,45,265,565,5712
1644172214.805503,-0.009644,0.009827,-0.991699,0.281924,0.417099,-0.130992,46,281,571,5760
1644172214.856091,-0.010864,0.01001,-0.993591,0.205588,0.340763,-0.054656,51,271,571,5712
1644172214.907402,-0.009521,0.009094,-0.990723,0.281924,0.325496,-0.100458,54,282,582,5696
1644172214.951622,-0.009094,0.00885,-0.992432,0.175053,0.539237,-0.115725,46,271,585,5760
1644172215.065075,-0.009949,0.009216,-0.992065,0.220855,0.294962,-0.161527,42,292,582,5696
1644172215.096305,-0.012512,0.008789,-0.993347,0.35826,0.386565,-0.207328,55,279,580,5696
1644172215.144191,-0.009949,0.00946,-0.993469,0.08345,0.325496,0.006412,54,280,577,5664
1644172215.19257,-0.009277,0.007202,-0.994873,0.266656,0.478168,-0.008855,55,266,578,5712
1644172215.240938,-0.011719,0.006104,-0.995789,0.129252,0.310229,-0.024122,59,273,579,5696
1644172215.289337,-0.012085,0.011108,-0.994385,0.144519,0.600305,-0.115725,58,266,583,5712
1644172215.337737,-0.011292,0.009766,-0.993591,0.236122,0.340763,0.12855,58,276,573,5696
1644172215.386128,-0.009949,0.007446,-0.991943,0.205588,0.325496,-0.192061,41,276,576,5664
1644172215.434519,-0.014526,0.009277,-0.993286,0.480397,0.401832,-0.130992,36,266,585,5664
1644172215.482911,-0.00946,0.007874,-0.992432,0.129252,0.432366,0.052214,53,274,592,5696
1644172215.531337,-0.011353,0.006592,-0.990662,0.297191,0.523969,-0.054656,45,275,589,5664
1644172215.581566,-0.011719,0.008728,-0.993164,0.129252,0.325496,-0.25313,59,265,577,5664
1644172215.631853,-0.011963,0.008362,-0.992737,0.068183,0.539237,-0.085191,59,265,582,5696
1644172215.677028,-0.011353,0.010559,-0.994934,0.35826,0.401832,-0.161527,52,275,575,5728
1644172215.773242,-0.01178,0.007324,-0.99054,0.236122,0.432366,-0.115725,54,275,579,5712
1644172215.821642,-0.012512,0.006653,-0.993164,0.159786,0.417099,-0.008855,47,268,575,5712
1644172215.870041,-0.010193,0.012085,-0.991272,0.236122,0.401832,-0.069924,43,276,566,5760
1644172215.918457,-0.012756,0.007141,-0.99353,0.251389,0.325496,-0.024122,52,275,582,5728
1644172215.96681,-0.012573,0.008362,-0.992676,0.251389,0.447634,-0.069924,48,264,578,5648
1644172216.015298,-0.010315,0.00708,-0.986816,0.342992,0.386565,0.021679,46,269,578,5696
1644172216.068545,-0.010315,0.012451,-0.992493,0.312458,0.432366,-0.085191,46,266,578,5728
1644172216.112017,-0.012695,0.009399,-0.991577,0.220855,0.340763,-0.161527,59,268,572,5696
1644172216.160383,-0.012329,0.010132,-0.994629,0.281924,0.264427,-0.085191,43,264,571,5664
1644172216.208754,-0.01123,0.008972,-0.990967,0.144519,0.279695,-0.008855,48,264,583,5760
1644172216.257144,-0.010803,0.010132,-0.992493,0.388794,0.447634,-0.100458,46,274,573,5696
1644172216.305524,-0.009094,0.009827,-0.994385,0.236122,0.478168,-0.054656,51,269,569,5728
1644172216.353946,-0.012634,0.00946,-0.992126,0.236122,0.356031,-0.130992,59,282,577,5664
1644172216.402349,-0.01062,0.007568,-0.993591,0.113985,0.401832,-0.054656,59,277,582,5696
1644172216.450713,-0.010254,0.010803,-0.994141,0.281924,0.340763,-0.176794,64,268,577,5712
1644172216.499112,-0.008789,0.010681,-0.990723,0.266656,0.462901,-0.207328,60,271,576,5696
1644172216.547496,-0.008911,0.009521,-0.991943,0.098718,0.493435,-0.192061,49,268,579,5696
1644172216.595886,-0.01001,0.010071,-0.992737,0.190321,0.371298,-0.192061,47,277,582,5664
1644172216.644272,-0.013062,0.009644,-0.99231,0.281924,0.432366,-0.25313,49,270,579,5712
1644172216.693067,-0.010864,0.014099,-0.992126,0.342992,0.554504,-0.054656,34,271,585,5696
1644172216.743159,-0.011108,0.006714,-0.994019,0.159786,0.478168,-0.130992,45,270,586,5696
1644172216.793555,-0.008484,0.010681,-0.99231,0.159786,0.401832,-0.054656,48,281,573,5696
1644172216.838687,-0.009949,0.00885,-0.989258,0.190321,0.600305,-0.100458,38,282,579,5696
1644172216.934891,-0.011047,0.008118,-0.992004,0.297191,0.462901,-0.161527,42,273,577,5664
1644172216.983039,-0.00946,0.008667,-0.992676,0.297191,0.279695,-0.054656,57,277,577,5696
1644172217.031444,-0.010681,0.007324,-0.993042,0.220855,0.462901,0.113282,54,282,579,5648
1644172217.0799,-0.01001,0.00769,-0.992981,0.190321,0.478168,-0.115725,48,279,583,5712
1644172217.128242,-0.009399,0.008362,-0.989319,0.236122,0.523969,-0.039389,55,266,578,5664
1644172217.176575,-0.012695,0.009094,-0.992737,0.144519,0.371298,-0.069924,48,264,576,5728
1644172217.225108,-0.011353,0.009277,-0.992615,0.297191,0.264427,-0.069924,48,269,583,5712
1644172217.273421,-0.010132,0.010498,-0.99231,0.190321,0.386565,0.036947,55,281,576,5648
1644172217.321777,-0.010498,0.005127,-0.992798,0.159786,0.462901,0.021679,51,266,571,5712
1644172217.370176,-0.010132,0.010742,-0.993225,0.08345,0.447634,-0.207328,43,274,576,5696
1644172217.418583,-0.008789,0.006958,-0.992615,0.205588,0.493435,-0.115725,48,262,578,5664
1644172217.466956,-0.013855,0.009827,-0.99353,0.144519,0.478168,-0.176794,52,277,584,5712
1644172217.515346,-0.010315,0.011658,-0.993652,0.236122,0.401832,-0.054656,52,282,575,5712
1644172217.563739,-0.011963,0.009888,-0.991577,0.129252,0.432366,-0.268397,54,280,582,5664
1644172217.612178,-0.011169,0.008789,-0.99408,0.388794,0.554504,-0.039389,53,283,580,5728
1644172217.660516,-0.011353,0.009888,-0.994141,0.220855,0.447634,-0.054656,57,277,568,5696
1644172217.709044,-0.011047,0.008484,-0.9953,0.144519,0.325496,-0.085191,39,276,580,5696
1644172217.757585,-0.011719,0.008545,-0.993469,0.220855,0.462901,-0.161527,49,270,572,5664
1644172217.807833,-0.009399,0.010559,-0.992065,0.205588,0.310229,-0.115725,45,280,577,5664
1644172217.858146,-0.01001,0.010803,-0.991699,0.281924,0.493435,-0.115725,54,270,582,5664
1644172217.908278,-0.009705,0.010437,-0.992432,0.098718,0.401832,-0.008855,45,282,586,5696
1644172217.999232,-0.009277,0.010071,-0.992859,0.342992,0.310229,-0.069924,54,282,582,5648
1644172218.067343,-0.012573,0.006226,-0.993652,0.159786,0.539237,-0.161527,51,274,583,5696
1644172218.097988,-0.011353,0.008362,-0.990601,0.312458,0.417099,0.052214,55,286,569,5696
1644172218.144412,-0.011292,0.008362,-0.99353,0.175053,0.371298,-0.115725,48,274,580,5664
1644172218.192789,-0.012268,0.010254,-0.992737,0.220855,0.279695,-0.115725,53,281,583,5696
1644172218.24117,-0.00824,0.006714,-0.991516,0.052916,0.447634,0.006412,48,274,585,5664
1644172218.289536,-0.00708,0.007935,-0.992249,0.175053,0.371298,-0.161527,49,282,579,5648
1644172218.337946,-0.010864,0.006226,-0.989807,0.236122,0.340763,-0.207328,45,268,582,5728
1644172218.387032,-0.009644,0.010254,-0.992188,0.297191,0.340763,-0.008855,42,277,579,5712
1644172218.434746,-0.010559,0.007996,-0.992493,0.404061,0.264427,-0.176794,54,260,577,5648
1644172218.483396,-0.007812,0.013489,-0.993713,0.480397,0.508702,-0.069924,49,277,575,5664
1644172218.533617,-0.011475,0.007324,-0.992371,0.113985,0.356031,0.052214,54,268,579,5664
1644172218.583867,-0.013245,0.008728,-0.991516,0.129252,0.340763,-0.069924,53,274,559,5696
1644172218.629039,-0.011047,0.006042,-0.994141,0.205588,0.371298,-0.115725,45,282,577,5648
1644172218.725311,-0.008728,0.00769,-0.99292,0.281924,0.417099,-0.14626,43,269,573,5696
1644172218.773477,-0.010437,0.010864,-0.996948,0.190321,0.447634,-0.115725,51,266,573,5696
1644172218.821873,-0.010742,0.007324,-0.993774,0.007115,0.203359,-0.039389,49,270,577,5776
1644172218.870291,-0.011292,0.00946,-0.991821,0.068183,0.417099,-0.14626,47,275,579,5728
1644172218.918649,-0.010925,0.008362,-0.994568,0.220855,0.386565,-0.069924,54,265,579,5664
1644172218.967067,-0.01123,0.009338,-0.990051,0.052916,0.386565,0.006412,52,280,572,5696
1644172219.01543,-0.011475,0.008606,-0.992676,0.266656,0.417099,-0.024122,43,264,569,5712
1644172219.064812,-0.012695,0.011475,-0.993958,0.404061,0.478168,-0.161527,41,276,580,5760
1644172219.112757,-0.011414,0.007141,-0.991516,0.419328,0.523969,-0.130992,54,270,568,5696
1644172219.16059,-0.009644,0.007446,-0.991943,0.266656,0.554504,-0.14626,47,270,582,5648
1644172219.208966,-0.008545,0.009155,-0.992493,0.404061,0.569771,-0.14626,48,266,571,5696
1644172219.257376,-0.010193,0.007141,-0.993835,0.175053,0.294962,-0.161527,58,274,578,5728
1644172219.305747,-0.012573,0.008728,-0.993652,0.175053,0.493435,-0.25313,52,273,579,5760
1644172219.354181,-0.010803,0.008911,-0.99292,0.205588,0.264427,-0.115725,62,279,573,5696
1644172219.402562,-0.013184,0.007385,-0.992493,0.159786,0.310229,-0.176794,60,281,590,5664
1644172219.450937,-0.008423,0.008484,-0.993286,0.480397,0.294962,-0.069924,60,276,580,5648
1644172219.49933,-0.00946,0.008362,-0.991455,0.190321,0.310229,-0.130992,52,268,579,5696
1644172219.547727,-0.013611,0.007874,-0.99469,0.190321,0.417099,0.082748,54,275,579,5696
1644172219.596106,-0.010315,0.01001,-0.994751,0.144519,0.279695,0.021679,55,271,583,5728
1644172219.644526,-0.009949,0.009521,-0.992981,0.35826,0.325496,-0.069924,53,274,580,5664
1644172219.694759,-0.011841,0.007019,-0.991577,0.190321,0.356031,-0.054656,48,276,571,5648
1644172219.745132,-0.010376,0.00824,-0.989014,0.220855,0.508702,-0.069924,49,280,582,5648
1644172219.790237,-0.009033,0.007568,-0.99292,0.266656,0.386565,-0.192061,48,271,571,5760
1644172219.886482,-0.012451,0.010071,-0.993103,0.205588,0.310229,-0.039389,43,274,576,5696
1644172219.934895,-0.00824,0.009705,-0.992004,0.205588,0.432366,-0.207328,54,268,575,5696
1644172219.983285,-0.009766,0.008545,-0.993042,0.373527,0.417099,-0.100458,54,268,563,5664
1644172220.031638,-0.010681,0.008728,-0.992676,0.251389,0.478168,0.021679,58,281,571,5712
1644172220.080111,-0.00769,0.009338,-0.992554,0.342992,0.401832,-0.054656,54,270,582,5728
1644172220.12842,-0.009766,0.009277,-0.99115,0.327725,0.294962,-0.176794,58,269,578,5664
1644172220.176793,-0.009949,0.009766,-0.995972,0.129252,0.294962,-0.130992,40,273,579,5648
1644172220.225185,-0.010132,0.009277,-0.991577,0.449863,0.432366,-0.024122,48,283,583,5584
1644172220.27359,-0.010071,0.009705,-0.992126,0.08345,0.417099,-0.176794,55,269,571,5712
1644172220.321947,-0.010376,0.007996,-0.990417,0.266656,0.340763,-0.115725,43,269,571,5696
1644172220.370356,-0.01239,0.008667,-0.991394,0.220855,0.325496,-0.100458,52,275,572,5664
1644172220.418758,-0.009338,0.009949,-0.994019,0.205588,0.447634,0.082748,52,275,570,5728
1644172220.467144,-0.009644,0.007141,-0.992432,0.190321,0.462901,-0.268397,42,285,582,5664
1644172220.515543,-0.010864,0.006714,-0.993164,0.190321,0.462901,-0.192061,51,279,573,5696
1644172220.563921,-0.011047,0.00769,-0.990417,0.098718,0.508702,0.006412,46,271,573,5728
1644172220.612326,-0.012451,0.008606,-0.990845,0.220855,0.478168,-0.069924,51,271,576,5712
1644172220.660702,-0.010071,0.009338,-0.989685,0.08345,0.264427,-0.069924,59,273,575,5664
1644172220.709096,-0.009827,0.007263,-0.993652,0.251389,0.447634,0.006412,54,280,582,5664
1644172220.757486,-0.012268,0.010925,-0.991699,0.312458,0.386565,-0.039389,59,270,584,5728
1644172220.80597,-0.012512,0.010681,-0.991028,0.236122,0.371298,0.067481,54,280,579,5696
1644172220.856629,-0.011169,0.006226,-0.993408,0.281924,0.188092,0.006412,54,273,584,5760
1644172220.907734,-0.011902,0.011963,-0.99408,0.129252,0.264427,-0.192061,42,273,582,5696
1644172220.952041,-0.010986,0.009338,-0.992981,0.281924,0.386565,-0.054656,48,279,573,5664
1644172221.067154,-0.01239,0.007446,-0.992065,0.190321,0.371298,-0.100458,47,265,577,5664
1644172221.099722,-0.010071,0.010376,-0.992615,0.205588,0.493435,-0.008855,54,277,582,5712
1644172221.144745,-0.009766,0.008484,-0.995178,0.281924,0.310229,-0.100458,52,265,589,5776
1644172221.19302,-0.012085,0.009949,-0.992188,0.175053,0.432366,-0.130992,49,270,589,5696
1644172221.241399,-0.00885,0.007874,-0.991028,0.35826,0.371298,-0.14626,53,276,578,5728
1644172221.289774,-0.010559,0.008118,-0.992188,0.220855,0.523969,-0.054656,41,274,583,5712
1644172221.338177,-0.013,0.007263,-0.992065,0.068183,0.340763,-0.024122,52,268,591,5760
1644172221.386574,-0.010498,0.009216,-0.992554,0.175053,0.279695,0.082748,42,277,584,5728
1644172221.435009,-0.010132,0.005615,-0.993713,0.220855,0.233893,-0.344733,53,276,580,5696
1644172221.48337,-0.010071,0.007507,-0.992493,0.159786,0.447634,-0.100458,48,274,571,5760
1644172221.533288,-0.011475,0.00824,-0.992249,0.190321,0.310229,-0.100458,43,269,585,5712
1644172221.58357,-0.009155,0.010681,-0.990906,0.373527,0.462901,0.098015,45,273,572,5696
1644172221.633692,-0.009338,0.007996,-0.991272,0.144519,0.294962,-0.085191,55,276,576,5696
1644172221.72545,-0.011536,0.010315,-0.991882,0.281924,0.386565,-0.054656,57,282,570,5696
1644172221.773688,-0.010803,0.010803,-0.991577,0.220855,0.294962,0.082748,51,279,583,5712
1644172221.822082,-0.01239,0.013489,-0.993591,0.144519,0.478168,-0.069924,52,280,586,5712
1644172221.870487,-0.010803,0.009216,-0.990601,0.297191,0.478168,-0.237863,45,270,579,5648
1644172221.918901,-0.010986,0.008362,-0.991516,0.373527,0.539237,-0.130992,54,277,575,5648
1644172221.967268,-0.011475,0.010437,-0.995178,0.007115,0.325496,-0.161527,47,273,575,5760
1644172222.015674,-0.009094,0.007568,-0.990845,0.297191,0.462901,-0.054656,60,279,583,5696
1644172222.069352,-0.00946,0.009155,-0.991211,0.312458,0.356031,-0.054656,43,269,583,5728
1644172222.112437,-0.012329,0.009155,-0.993469,0.236122,0.554504,-0.14626,53,266,585,5696
1644172222.160856,-0.010986,0.009033,-0.992798,0.281924,0.279695,0.036947,51,262,578,5760
1644172222.209215,-0.013977,0.008301,-0.993896,0.266656,0.325496,0.006412,48,276,569,5664
1644172222.257599,-0.008423,0.013123,-0.99176,0.266656,0.462901,-0.039389,40,273,575,5728
1644172222.305971,-0.010925,0.009155,-0.988342,0.175053,0.340763,0.159084,49,282,577,5712
1644172222.354378,-0.012146,0.007874,-0.992188,0.281924,0.386565,0.021679,48,269,587,5664
1644172222.402783,-0.009644,0.009094,-0.991699,0.052916,0.417099,-0.14626,47,285,577,5760
1644172222.451138,-0.010864,0.007629,-0.991211,0.175053,0.157557,-0.100458,51,271,573,5664
1644172222.49953,-0.014526,0.010803,-0.99292,0.175053,0.493435,-0.14626,51,274,578,5664
1644172222.547929,-0.006775,0.008179,-0.992432,0.205588,0.310229,-0.222595,43,271,578,5760
1644172222.596333,-0.014282,0.008545,-0.991516,0.205588,0.417099,0.021679,49,270,579,5712
1644172222.644981,-0.012817,0.00708,-0.991638,0.281924,0.294962,-0.192061,51,262,583,5808
1644172222.695176,-0.009827,0.00946,-0.992554,0.159786,0.554504,0.021679,49,268,582,5648
1644172222.745415,-0.012573,0.00946,-0.99231,0.312458,0.493435,0.067481,51,269,578,5712
1644172222.790517,-0.011353,0.008057,-0.995422,0.297191,0.539237,0.006412,55,271,583,5664
1644172222.886653,-0.011475,0.00946,-0.993591,0.526198,0.417099,-0.085191,51,269,566,5664
1644172222.935363,-0.014099,0.006409,-0.992615,0.220855,0.340763,0.021679,45,265,572,5728
1644172222.983504,-0.011108,0.006714,-0.992676,0.220855,0.325496,-0.14626,59,287,584,5712
1644172223.031878,-0.010498,0.010376,-0.993408,0.205588,0.493435,-0.130992,51,276,580,5712
1644172223.080347,-0.010132,0.00769,-0.994324,0.312458,0.386565,-0.008855,39,276,590,5696
1644172223.128601,-0.013611,0.009094,-0.99469,0.175053,0.478168,-0.024122,54,280,570,5696
1644172223.177024,-0.011292,0.006653,-0.993042,0.144519,0.340763,-0.100458,55,271,562,5664
1644172223.225409,-0.008972,0.009521,-0.993591,0.220855,0.508702,-0.130992,57,273,575,5696
1644172223.273798,-0.011353,0.005798,-0.990906,0.312458,0.218626,-0.039389,51,274,576,5760
1644172223.322207,-0.011169,0.008423,-0.991699,0.144519,0.493435,-0.024122,49,273,579,5728
1644172223.370594,-0.010376,0.007202,-0.995056,0.327725,0.264427,-0.085191,48,266,576,5664
1644172223.418985,-0.010925,0.010132,-0.992981,0.190321,0.371298,-0.085191,48,276,590,5696
1644172223.467416,-0.011841,0.008606,-0.992798,0.388794,0.325496,-0.039389,47,280,575,5728
1644172223.515745,-0.010071,0.007751,-0.992798,0.098718,0.462901,-0.192061,48,274,587,5600
1644172223.56416,-0.012573,0.008606,-0.993042,0.205588,0.356031,0.082748,51,283,576,5696
1644172223.612553,-0.014099,0.010803,-0.993164,0.251389,0.432366,-0.100458,53,274,583,5712
1644172223.660943,-0.010315,0.008301,-0.992554,0.159786,0.447634,0.021679,47,282,586,5664
1644172223.709322,-0.011292,0.00824,-0.994568,0.297191,0.447634,-0.14626,57,277,579,5728
1644172223.757711,-0.011902,0.009644,-0.99231,0.297191,0.294962,-0.161527,46,269,569,5664
1644172223.806891,-0.010559,0.006592,-0.993103,0.175053,0.462901,-0.130992,60,274,573,5584
1644172223.857224,-0.010071,0.009644,-0.989563,0.236122,0.417099,-0.100458,55,271,578,5648
1644172223.907501,-0.010681,0.006775,-0.99176,0.388794,0.386565,0.052214,49,275,577,5696
1644172223.952024,-0.011597,0.008667,-0.990723,0.281924,0.493435,-0.14626,42,263,582,5696
1644172224.060228,-0.010437,0.008667,-0.990417,0.297191,0.294962,-0.008855,62,274,585,5760
1644172224.099232,-0.010254,0.011047,-0.99115,0.342992,0.325496,-0.130992,49,282,575,5648
1644172224.144819,-0.008362,0.009705,-0.989624,0.113985,0.371298,-0.115725,54,268,572,5696
1644172224.193238,-0.008972,0.011536,-0.992188,0.052916,0.585038,-0.176794,54,268,582,5696
1644172224.241611,-0.009338,0.007935,-0.990784,0.312458,0.371298,0.052214,52,273,584,5728
1644172224.289995,-0.01062,0.008911,-0.994263,0.251389,0.371298,-0.176794,49,275,572,5696
1644172224.3384,-0.007874,0.009094,-0.994141,0.129252,0.432366,-0.176794,51,286,571,5696
1644172224.386791,-0.010925,0.008972,-0.992798,0.098718,0.356031,-0.085191,47,277,579,5664
1644172224.43517,-0.010986,0.007019,-0.993469,0.266656,0.279695,-0.069924,45,282,577,5808
1644172224.483557,-0.010864,0.010071,-0.992188,0.190321,0.447634,-0.161527,45,275,589,5712
1644172224.531956,-0.010071,0.007812,-0.991699,0.205588,0.356031,0.006412,51,271,585,5664
1644172224.580355,-0.009705,0.011108,-0.991821,0.251389,0.356031,-0.069924,53,279,576,5664
1644172224.628831,-0.012817,0.008789,-0.992249,0.281924,0.417099,-0.115725,52,277,579,5696
1644172224.677689,-0.008728,0.010254,-0.994202,0.205588,0.478168,-0.054656,48,276,569,5712
1644172224.728199,-0.009521,0.009216,-0.993225,0.190321,0.417099,-0.207328,51,274,571,5728
1644172224.778368,-0.009705,0.008728,-0.992798,0.175053,0.356031,-0.054656,46,259,578,5728
1644172224.823257,-0.01062,0.006775,-0.993042,0.373527,0.294962,-0.14626,55,274,569,5648
1644172224.919109,-0.012634,0.005371,-0.991882,0.220855,0.325496,-0.069924,54,270,575,5712
1644172224.967506,-0.008728,0.009827,-0.992249,0.419328,0.356031,-0.054656,51,269,585,5664
1644172225.01589,-0.011047,0.00769,-0.991882,0.373527,0.401832,-0.115725,48,274,571,5712
1644172225.067926,-0.01355,0.007935,-0.993225,0.251389,0.523969,-0.115725,51,286,580,5760
1644172225.112692,-0.009277,0.009949,-0.991333,0.281924,0.371298,-0.25313,47,275,575,5728
1644172225.161036,-0.011536,0.009888,-0.994202,0.175053,0.371298,-0.008855,54,273,572,5664
1644172225.209427,-0.010681,0.008484,-0.991516,0.129252,0.508702,-0.054656,52,273,579,5696
1644172225.257833,-0.010986,0.011841,-0.994507,0.190321,0.493435,-0.024122,47,273,582,5696
1644172225.306194,-0.012634,0.00769,-0.990784,0.35826,0.478168,-0.069924,54,270,575,5696
1644172225.355005,-0.011475,0.00824,-0.991638,0.205588,0.523969,-0.237863,54,263,582,5712
1644172225.403022,-0.010986,0.010437,-0.993469,0.236122,0.447634,-0.176794,57,282,579,5664
1644172225.451379,-0.009644,0.009766,-0.992737,0.08345,0.325496,-0.192061,52,277,586,5712
1644172225.499777,-0.011353,0.009094,-0.992981,0.220855,0.340763,-0.161527,58,274,578,5696
1644172225.548168,-0.010254,0.005859,-0.992676,0.251389,0.417099,0.021679,57,280,582,5664
1644172225.596559,-0.011658,0.01001,-0.992737,0.327725,0.356031,0.021679,46,276,583,5696
1644172225.644994,-0.009949,0.009766,-0.989441,0.251389,0.447634,-0.130992,42,273,586,5728
1644172225.69334,-0.008545,0.005249,-0.992981,0.205588,0.63084,0.006412,41,276,585,5728
1644172225.741724,-0.010803,0.00885,-0.995056,0.297191,0.340763,-0.161527,48,279,583,5712
1644172225.790112,-0.012451,0.009644,-0.989929,0.220855,0.356031,-0.085191,55,269,585,5728
1644172225.83916,-0.008789,0.009094,-0.992493,0.312458,0.386565,-0.115725,49,265,579,5760
1644172225.890241,-0.011841,0.009277,-0.991028,0.342992,0.356031,-0.130992,54,277,586,5776
1644172225.940594,-0.010559,0.011353,-0.994324,0.205588,0.310229,-0.268397,57,275,579,5696
1644172225.985091,-0.013489,0.008423,-0.99292,0.342992,0.294962,-0.115725,43,266,576,5696
1644172226.080586,-0.009705,0.011169,-0.991821,0.129252,0.493435,-0.130992,43,274,580,5760
1644172226.12886,-0.010376,0.008484,-0.992065,0.144519,0.401832,-0.14626,43,269,576,5712
1644172226.177223,-0.013611,0.00824,-0.992981,0.281924,0.508702,-0.14626,52,268,579,5760
1644172226.225635,-0.010193,0.009033,-0.995544,0.129252,0.523969,-0.161527,55,276,578,5664
1644172226.274029,-0.010742,0.010803,-0.992188,0.129252,0.386565,-0.130992,45,275,582,5664
1644172226.32244,-0.010742,0.009888,-0.993713,0.068183,0.508702,-0.14626,49,268,579,5760
1644172226.370819,-0.008728,0.007324,-0.996338,0.113985,0.340763,-0.085191,48,279,578,5712
1644172226.4192,-0.012268,0.006592,-0.99353,0.342992,0.554504,-0.14626,49,277,568,5760
1644172226.467579,-0.013367,0.009277,-0.99408,0.434595,0.493435,-0.085191,47,275,584,5696
1644172226.515986,-0.011108,0.010864,-0.990112,0.144519,0.279695,-0.192061,54,277,586,5728
1644172226.564386,-0.010559,0.006226,-0.989624,0.052916,0.279695,-0.069924,43,276,576,5776
1644172226.612779,-0.011597,0.009949,-0.993591,0.236122,0.417099,-0.115725,49,282,575,5696
1644172226.661156,-0.009521,0.009521,-0.991211,0.251389,0.264427,-0.085191,49,273,582,5728
1644172226.709544,-0.011536,0.008301,-0.992737,0.236122,0.386565,-0.069924,53,257,573,5712
1644172226.757911,-0.00946,0.004761,-0.991943,0.144519,0.478168,-0.130992,36,264,569,5696
1644172226.806327,-0.011292,0.008057,-0.993408,0.266656,0.523969,-0.115725,45,260,579,5712
1644172226.854775,-0.007263,0.008606,-0.990906,0.159786,0.356031,-0.130992,48,269,585,5696
1644172226.903205,-0.008789,0.010559,-0.99292,0.266656,0.310229,-0.176794,48,281,576,5712
1644172226.951564,-0.011902,0.003784,-0.988464,0.373527,0.371298,-0.100458,51,271,580,5664
1644172227.001143,-0.013367,0.010437,-0.992554,0.266656,0.264427,-0.14626,54,270,586,5696
1644172227.075223,-0.009155,0.008301,-0.993652,0.35826,0.447634,-0.100458,51,276,592,5728
1644172227.10809,-0.010132,0.009399,-0.991516,0.205588,0.493435,-0.069924,47,277,579,5696
1644172227.193472,-0.012146,0.00769,-0.993286,0.113985,0.279695,-0.130992,48,266,576,5728
1644172227.241832,-0.010803,0.008118,-0.991882,0.281924,0.462901,0.067481,48,279,580,5664
1644172227.290225,-0.008362,0.011902,-0.993896,0.159786,0.417099,-0.024122,53,276,580,5664
1644172227.338618,-0.013184,0.008972,-0.991516,0.312458,0.340763,0.021679,49,263,579,5696
1644172227.387006,-0.012329,0.006409,-0.994019,0.220855,0.401832,-0.25313,41,276,576,5760
1644172227.435424,-0.013184,0.009033,-0.991882,0.113985,0.493435,-0.115725,54,273,577,5664
1644172227.483788,-0.012085,0.006836,-0.99176,0.327725,0.417099,0.036947,49,270,579,5664
1644172227.532201,-0.007385,0.007629,-0.993225,0.312458,0.294962,-0.298931,45,277,589,5760
1644172227.58058,-0.01062,0.009888,-0.992432,0.327725,0.371298,-0.100458,55,276,583,5696
1644172227.62897,-0.010498,0.009155,-0.990479,0.312458,0.523969,-0.161527,41,276,576,5696
1644172227.67736,-0.009583,0.007812,-0.993469,0.159786,0.340763,-0.039389,46,276,580,5696
1644172227.725744,-0.010864,0.011108,-0.995117,0.190321,0.356031,-0.054656,53,281,578,5696
1644172227.774152,-0.013489,0.007812,-0.992554,0.388794,0.279695,-0.069924,49,277,579,5696
1644172227.822539,-0.011902,0.006409,-0.992065,0.342992,0.401832,-0.069924,54,270,572,5760
1644172227.870957,-0.010254,0.009033,-0.995361,0.129252,0.340763,-0.115725,55,271,573,5696
1644172227.919334,-0.011047,0.008789,-0.993774,0.266656,0.203359,-0.115725,54,280,584,5696
1644172227.96771,-0.009644,0.007935,-0.990967,0.342992,0.432366,-0.039389,39,274,580,5728
1644172228.016143,-0.008545,0.008118,-0.992676,0.236122,0.340763,-0.100458,60,269,583,5664
1644172228.09031,-0.010193,0.008057,-0.992371,0.159786,0.386565,-0.207328,48,274,578,5600
1644172228.118731,-0.012512,0.007568,-0.992981,0.159786,0.432366,-0.085191,47,273,584,5664
1644172228.209642,-0.012329,0.009033,-0.994751,0.281924,0.447634,-0.100458,43,269,580,5648
1644172228.258022,-0.010132,0.007935,-0.991211,0.190321,0.417099,-0.130992,53,281,573,5712
1644172228.306423,-0.009338,0.007141,-0.994629,0.129252,0.340763,-0.085191,47,282,570,5728
1644172228.354856,-0.010437,0.009766,-0.993652,0.266656,0.386565,0.006412,54,270,570,5760
1644172228.403229,-0.009521,0.007507,-0.991516,0.236122,0.447634,-0.207328,45,277,575,5696
1644172228.451611,-0.01178,0.009583,-0.992126,0.175053,0.462901,-0.222595,45,275,577,5696
1644172228.499982,-0.013245,0.010315,-0.994202,0.220855,0.432366,-0.054656,62,276,566,5712
1644172228.548371,-0.012146,0.00946,-0.993652,0.297191,0.401832,-0.192061,58,276,578,5664
1644172228.596791,-0.010132,0.008911,-0.993469,0.129252,0.401832,-0.085191,46,279,583,5696
1644172228.645256,-0.007874,0.006714,-0.993713,0.098718,0.371298,-0.069924,47,270,575,5712
1644172228.693576,-0.012085,0.008484,-0.99231,0.190321,0.523969,-0.085191,51,269,576,5712
1644172228.741956,-0.010803,0.006531,-0.994263,0.205588,0.356031,-0.008855,54,270,579,5664
1644172228.790348,-0.00885,0.006226,-0.994934,0.327725,0.432366,-0.024122,52,285,572,5648
1644172228.83873,-0.009888,0.010193,-0.99353,0.266656,0.371298,-0.100458,48,276,576,5696
1644172228.887156,-0.011292,0.00824,-0.99176,0.159786,0.371298,-0.024122,36,279,578,5712
1644172228.935559,-0.00824,0.008606,-0.995728,0.113985,0.447634,-0.161527,41,276,580,5664
1644172228.983948,-0.009888,0.005676,-0.992371,0.159786,0.462901,-0.085191,47,273,570,5648
1644172229.033049,-0.008301,0.010071,-0.992981,0.281924,0.371298,-0.024122,51,269,590,5760
1644172229.092259,-0.011353,0.007812,-0.990601,0.281924,0.325496,-0.192061,49,275,577,5696
1644172229.130888,-0.009216,0.009155,-0.991882,0.342992,0.462901,-0.176794,48,274,569,5696
1644172229.181199,-0.010376,0.008362,-0.993103,0.266656,0.462901,-0.14626,51,274,576,5728
1644172229.231713,-0.010132,0.008484,-0.991516,0.205588,0.417099,-0.207328,47,285,582,5728
1644172229.322686,-0.012268,0.007629,-0.992188,0.098718,0.279695,-0.069924,47,277,577,5648
1644172229.371069,-0.011658,0.009277,-0.993835,0.175053,0.554504,-0.069924,51,271,585,5728
1644172229.41945,-0.010986,0.005737,-0.993774,0.129252,0.447634,-0.024122,55,269,580,5696
1644172229.467846,-0.008606,0.008545,-0.993042,0.327725,0.279695,-0.008855,51,279,573,5760
1644172229.516217,-0.009705,0.007812,-0.990356,0.251389,0.447634,-0.161527,49,268,572,5696
1644172229.564646,-0.008789,0.00885,-0.991333,0.220855,0.325496,-0.283664,52,273,575,5712
1644172229.613043,-0.009766,0.00824,-0.989746,0.175053,0.432366,-0.130992,48,266,580,5712
1644172229.661421,-0.009338,0.00824,-0.990723,0.266656,0.447634,-0.069924,64,270,572,5664
1644172229.709814,-0.012024,0.007202,-0.990967,0.205588,0.401832,-0.14626,49,273,568,5728
1644172229.758202,-0.010742,0.008484,-0.993042,0.266656,0.478168,0.006412,54,270,565,5760
1644172229.80656,-0.010437,0.009705,-0.991638,0.236122,0.294962,-0.024122,52,270,586,5776
1644172229.855113,-0.010925,0.007751,-0.991211,0.205588,0.401832,-0.176794,47,282,570,5696
1644172229.903389,-0.012024,0.011108,-0.992981,0.266656,0.432366,-0.14626,59,282,584,5600
1644172229.951761,-0.012451,0.008423,-0.992981,0.205588,0.371298,-0.100458,48,281,578,5712
1644172230.000134,-0.009094,0.008179,-0.993286,0.327725,0.432366,-0.085191,49,263,579,5664
1644172230.067557,-0.010803,0.009705,-0.991699,0.08345,0.356031,0.082748,54,275,579,5648
1644172230.099656,-0.00885,0.006775,-0.992065,0.373527,0.371298,-0.039389,52,273,577,5696
1644172230.145283,-0.010315,0.005615,-0.995056,0.251389,0.325496,-0.268397,45,268,572,5664
1644172230.193672,-0.01001,0.005554,-0.991882,0.236122,0.386565,-0.100458,47,277,577,5696
1644172230.242598,-0.011597,0.008301,-0.987976,0.220855,0.508702,-0.024122,49,275,565,5696
1644172230.292915,-0.009705,0.010193,-0.993225,0.251389,0.432366,-0.176794,48,271,587,5696
1644172230.343137,-0.011108,0.011841,-0.994019,0.08345,0.279695,0.036947,54,263,579,5600
1644172230.388149,-0.013062,0.008911,-0.994812,0.281924,0.294962,-0.14626,54,275,577,5760
1644172230.484024,-0.012756,0.010193,-0.992615,0.129252,0.386565,-0.268397,57,268,584,5728
1644172230.532403,-0.011108,0.005798,-0.993958,0.281924,0.432366,-0.039389,42,273,572,5664
1644172230.580785,-0.013428,0.008606,-0.990601,0.312458,0.325496,-0.085191,51,262,569,5728
1644172230.629193,-0.010498,0.007629,-0.991394,0.236122,0.340763,-0.130992,49,275,579,5600
1644172230.677575,-0.012512,0.010254,-0.993103,0.144519,0.24916,-0.039389,45,273,577,5712
1644172230.725974,-0.013184,0.009277,-0.993713,0.388794,0.493435,-0.008855,45,275,577,5760
1644172230.774363,-0.012085,0.010254,-0.992371,0.342992,0.462901,-0.069924,55,269,573,5696
1644172230.82281,-0.012207,0.005554,-0.990906,0.236122,0.462901,0.067481,54,275,579,5664
1644172230.871174,-0.007629,0.009827,-0.994019,0.220855,0.310229,-0.115725,48,274,573,5728
1644172230.919581,-0.008301,0.011169,-0.990173,0.144519,0.432366,-0.176794,48,271,573,5664
1644172230.967977,-0.008789,0.006653,-0.989319,0.297191,0.447634,-0.024122,55,269,576,5760
1644172231.016377,-0.010864,0.009949,-0.99292,0.236122,0.447634,-0.130992,55,274,569,5712
1644172231.068733,-0.010864,0.009949,-0.991882,0.312458,0.462901,-0.222595,52,275,584,5760
1644172231.113153,-0.00946,0.006958,-0.991028,0.251389,0.371298,-0.207328,46,283,592,5760
1644172231.161493,-0.014099,0.011719,-0.992737,0.205588,0.371298,-0.024122,45,285,584,5664
1644172231.209885,-0.009583,0.010681,-0.993896,0.190321,0.401832,-0.085191,42,270,572,5696
1644172231.258243,-0.007141,0.008972,-0.993408,0.205588,0.279695,-0.008855,54,270,582,5712
1644172231.306654,-0.014954,0.008301,-0.992859,0.236122,0.264427,-0.192061,49,268,575,5712
1644172231.355083,-0.010742,0.007568,-0.994202,0.098718,0.340763,-0.14626,55,269,576,5696
1644172231.403512,-0.013794,0.006775,-0.991089,0.175053,0.386565,-0.039389,47,273,577,5664
1644172231.453934,-0.013062,0.010376,-0.989441,0.190321,0.478168,-0.176794,51,271,590,5696
1644172231.504067,-0.010925,0.008057,-0.993286,0.281924,0.401832,0.036947,46,271,573,5664
1644172231.549177,-0.01123,0.009277,-0.995178,0.175053,0.508702,-0.14626,65,271,580,5696
1644172231.645406,-0.007629,0.010315,-0.98938,0.205588,0.386565,-0.069924,45,275,577,5760
1644172231.693792,-0.010986,0.008606,-0.993652,0.190321,0.462901,-0.207328,55,271,583,5696
1644172231.742385,-0.01001,0.011108,-0.992371,0.266656,0.462901,-0.054656,59,280,575,5760
1644172231.790548,-0.010498,0.006287,-0.991638,0.266656,0.24916,-0.14626,51,269,583,5696
1644172231.838995,-0.010498,0.006897,-0.992737,0.190321,0.462901,-0.14626,48,271,576,5664
1644172231.887387,-0.012329,0.007446,-0.994019,0.35826,0.356031,-0.115725,45,273,584,5712
1644172231.935773,-0.013672,0.006653,-0.995117,0.220855,0.523969,-0.008855,54,287,579,5648
1644172231.984177,-0.009949,0.008545,-0.993286,0.251389,0.340763,-0.115725,45,290,575,5696
1644172232.032582,-0.009766,0.011414,-0.992493,0.281924,0.462901,-0.024122,47,270,565,5696
1644172232.09188,-0.011536,0.009644,-0.993103,0.35826,0.24916,-0.100458,54,275,582,5728
1644172232.129287,-0.007935,0.009766,-0.994629,0.190321,0.508702,-0.161527,42,277,577,5696
1644172232.177763,-0.00946,0.009521,-0.993042,0.297191,0.340763,-0.115725,52,275,579,5664
1644172232.227027,-0.012512,0.012146,-0.99115,0.144519,0.462901,-0.039389,53,269,576,5664
1644172232.27761,-0.010437,0.009766,-0.992676,0.266656,0.356031,-0.085191,58,274,580,5648
1644172232.327655,-0.012817,0.009033,-0.991394,0.190321,0.447634,-0.069924,59,275,584,5728
1644172232.419681,-0.010437,0.010925,-0.993713,0.159786,0.386565,-0.130992,45,285,577,5712
1644172232.468028,-0.012756,0.010498,-0.993347,0.190321,0.356031,-0.176794,54,277,582,5648
1644172232.516413,-0.010864,0.009827,-0.991882,0.113985,0.356031,-0.069924,43,279,583,5696
1644172232.564879,-0.012939,0.008118,-0.99469,0.190321,0.401832,-0.024122,58,266,578,5648
1644172232.613219,-0.008057,0.010437,-0.989685,0.190321,0.325496,-0.008855,53,274,573,5808
1644172232.661597,-0.010132,0.009216,-0.992615,0.327725,0.24916,-0.024122,46,271,583,5712
1644172232.709989,-0.012329,0.010071,-0.99115,-0.053954,0.569771,-0.14626,45,270,584,5664
1644172232.758374,-0.008179,0.008423,-0.991882,0.251389,0.508702,-0.115725,51,274,576,5696
1644172232.80677,-0.009033,0.010925,-0.993591,0.175053,0.279695,-0.008855,51,262,578,5696
1644172232.855295,-0.01355,0.010864,-0.993225,0.08345,0.294962,-0.039389,52,273,584,5728
1644172232.903609,-0.012024,0.012756,-0.989868,0.190321,0.417099,-0.130992,48,266,578,5696
1644172232.951987,-0.01239,0.008057,-0.994263,0.159786,0.432366,0.006412,51,271,580,5664
1644172233.000381,-0.009766,0.010315,-0.991333,0.144519,0.340763,-0.054656,43,283,585,5696
1644172233.062921,-0.00946,0.009705,-0.992493,0.312458,0.340763,-0.130992,34,276,587,5776
1644172233.100853,-0.011292,0.008423,-0.992554,0.342992,0.417099,-0.14626,54,270,575,5664
1644172233.145523,-0.011597,0.009583,-0.993591,0.236122,0.539237,-0.115725,48,271,587,5600
1644172233.193954,-0.008118,0.011597,-0.991638,0.205588,0.340763,-0.085191,49,277,582,5760
1644172233.242304,-0.009888,0.006592,-0.990967,0.281924,0.386565,-0.085191,54,268,570,5648
1644172233.290671,-0.011963,0.009094,-0.993042,0.266656,0.432366,-0.039389,51,269,573,5760
1644172233.339161,-0.011719,0.012878,-0.991455,0.251389,0.340763,0.021679,49,270,589,5728
1644172233.389941,-0.010925,0.009705,-0.991089,0.175053,0.356031,0.006412,49,280,572,5664
1644172233.440309,-0.010559,0.00824,-0.994507,0.312458,0.233893,-0.222595,43,276,569,5664
1644172233.484885,-0.010254,0.012146,-0.991516,0.281924,0.310229,-0.14626,45,273,570,5712
1644172233.581026,-0.010498,0.009155,-0.989685,0.266656,0.340763,-0.176794,48,264,580,5696
1644172233.629414,-0.012451,0.005615,-0.992554,0.281924,0.371298,-0.298931,52,280,565,5696
1644172233.677774,-0.011475,0.009277,-0.992371,0.327725,0.417099,-0.054656,47,277,584,5728
1644172233.726183,-0.007568,0.009644,-0.992004,0.342992,0.401832,-0.115725,43,279,573,5712
1644172233.774622,-0.010681,0.008789,-0.98938,0.175053,0.340763,-0.085191,51,276,571,5760
1644172233.822988,-0.010803,0.01001,-0.991882,0.312458,0.356031,-0.100458,48,269,578,5712
1644172233.871417,-0.009949,0.011108,-0.993774,0.35826,0.417099,-0.130992,46,279,571,5760
1644172233.9198,-0.010315,0.01001,-0.990051,0.08345,0.478168,0.052214,55,283,576,5696
1644172233.968187,-0.009277,0.00946,-0.991638,0.159786,0.478168,-0.039389,55,274,578,5712
1644172234.016578,-0.010315,0.009338,-0.992554,0.205588,0.432366,-0.130992,53,276,573,5696
1644172234.06865,-0.01178,0.011841,-0.99469,0.220855,0.539237,-0.161527,40,280,579,5728
1644172234.113395,-0.007202,0.011658,-0.993713,0.205588,0.264427,-0.069924,45,277,577,5760
1644172234.16172,-0.007629,0.008179,-0.993103,0.08345,0.356031,-0.008855,51,271,585,5664
1644172234.210103,-0.011169,0.008545,-0.991638,0.175053,0.539237,-0.100458,51,271,578,5664
1644172234.258462,-0.009827,0.010193,-0.992371,0.113985,0.371298,0.036947,58,279,590,5664
1644172234.306859,-0.010803,0.008423,-0.993591,0.190321,0.386565,-0.207328,51,271,580,5696
1644172234.355269,-0.009949,0.008484,-0.991333,0.190321,0.462901,-0.130992,43,283,585,5712
1644172234.403684,-0.010986,0.00946,-0.993408,0.129252,0.325496,-0.130992,51,266,578,5696
1644172234.452405,-0.008728,0.008789,-0.994202,0.312458,0.417099,0.12855,53,271,583,5712
1644172234.501033,-0.012634,0.008118,-0.993774,0.175053,0.340763,-0.115725,46,276,571,5664
1644172234.551656,-0.012634,0.007507,-0.993347,0.251389,0.523969,-0.207328,53,276,580,5664
1644172234.601752,-0.012695,0.007019,-0.989441,0.312458,0.447634,-0.069924,57,275,570,5712
1644172234.646922,-0.010254,0.007935,-0.990234,0.129252,0.417099,-0.100458,55,276,578,5696
1644172234.742409,-0.010376,0.00946,-0.992554,0.220855,0.508702,-0.192061,52,263,565,5696
1644172234.790785,-0.010132,0.008667,-0.992188,0.190321,0.264427,0.036947,46,281,578,5728
1644172234.839182,-0.011658,0.005981,-0.990662,0.037649,0.523969,-0.039389,51,262,578,5728
1644172234.887603,-0.009216,0.010681,-0.99231,0.266656,0.447634,-0.008855,47,265,582,5728
1644172234.935995,-0.009521,0.008728,-0.992676,0.205588,0.401832,-0.207328,48,283,571,5728
1644172234.984438,-0.013733,0.006775,-0.993774,0.190321,0.371298,-0.161527,45,268,577,5696
1644172235.032802,-0.013855,0.006287,-0.990845,0.281924,0.493435,-0.008855,41,276,573,5728
1644172235.089378,-0.011414,0.007507,-0.993469,0.342992,0.264427,0.006412,58,279,585,5760
1644172235.129596,-0.012207,0.010437,-0.98999,0.251389,0.233893,-0.115725,51,266,583,5664
1644172235.17791,-0.011719,0.010986,-0.994202,0.281924,0.279695,-0.115725,51,271,576,5696
1644172235.226302,-0.01062,0.006653,-0.993164,0.281924,0.371298,-0.222595,42,277,582,5696
1644172235.274787,-0.011169,0.008484,-0.991638,0.175053,0.356031,-0.207328,43,281,583,5664
1644172235.323105,-0.012207,0.010681,-0.99231,0.205588,0.447634,0.021679,54,273,568,5712
1644172235.371486,-0.010986,0.009521,-0.995056,0.281924,0.478168,-0.14626,55,266,576,5760
1644172235.419882,-0.008667,0.00647,-0.994873,0.190321,0.401832,-0.130992,53,269,580,5648
1644172235.468261,-0.009766,0.008606,-0.994019,0.342992,0.508702,-0.192061,48,274,585,5696
1644172235.516661,-0.011597,0.008667,-0.993713,0.098718,0.523969,0.021679,48,269,578,5648
1644172235.565082,-0.01239,0.008667,-0.992432,0.266656,0.417099,-0.130992,45,280,572,5728
1644172235.613669,-0.011108,0.00824,-0.991516,0.220855,0.447634,-0.039389,46,274,576,5648
1644172235.66292,-0.012146,0.008911,-0.990295,0.129252,0.523969,-0.085191,45,280,584,5760
1644172235.713207,-0.012146,0.008667,-0.99054,0.266656,0.386565,-0.100458,47,263,572,5712
1644172235.763747,-0.010742,0.009766,-0.993896,0.205588,0.447634,-0.192061,48,266,576,5728
1644172235.855416,-0.008606,0.008545,-0.990234,0.236122,0.356031,-0.069924,49,280,579,5696
1644172235.903845,-0.01001,0.007446,-0.992004,0.281924,0.279695,-0.14626,48,271,580,5712
1644172235.952422,-0.008606,0.008911,-0.992249,0.373527,0.356031,0.036947,58,274,578,5664
1644172236.000583,-0.011597,0.01001,-0.993286,0.190321,0.447634,0.006412,43,274,573,5696
1644172236.064174,-0.011536,0.010254,-0.989441,0.205588,0.493435,-0.069924,49,285,577,5664
1644172236.097448,-0.008728,0.008484,-0.991943,0.205588,0.279695,-0.176794,53,269,576,5664
1644172236.145774,-0.009521,0.012451,-0.992859,0.205588,0.371298,-0.115725,51,281,576,5728
1644172236.19413,-0.011353,0.009338,-0.992493,0.236122,0.493435,-0.130992,45,273,575,5696
1644172236.242521,-0.00824,0.010681,-0.992126,0.480397,0.386565,-0.085191,46,271,578,5696
1644172236.29088,-0.010559,0.010315,-0.992065,0.266656,0.386565,-0.054656,47,277,584,5728
1644172236.339297,-0.012329,0.010986,-0.98999,0.266656,0.340763,-0.344733,48,281,580,5760
1644172236.387687,-0.013062,0.00885,-0.992615,0.190321,0.371298,-0.039389,48,279,583,5760
1644172236.436076,-0.012939,0.01062,-0.9953,0.129252,0.340763,-0.054656,52,285,565,5696
1644172236.484462,-0.010681,0.007996,-0.992493,0.220855,0.447634,0.067481,49,270,582,5760
1644172236.532846,-0.009827,0.007324,-0.993774,0.449863,0.554504,0.006412,47,273,575,5664
1644172236.581481,-0.01178,0.008606,-0.991821,0.312458,0.371298,0.021679,41,269,576,5664
1644172236.632029,-0.012146,0.008362,-0.992249,0.129252,0.401832,-0.25313,47,268,565,5648
1644172236.682158,-0.007996,0.005981,-0.992493,0.220855,0.264427,-0.085191,46,266,569,5648
1644172236.727318,-0.011963,0.006897,-0.992981,0.236122,0.401832,-0.024122,45,275,577,5648
1644172236.823208,-0.009949,0.007812,-0.990295,0.220855,0.478168,-0.207328,58,281,564,5648
1644172236.87159,-0.008972,0.009094,-0.993896,0.175053,0.462901,-0.25313,51,271,585,5696
1644172236.920024,-0.009399,0.010864,-0.991699,0.159786,0.432366,-0.176794,47,273,579,5696
1644172236.968413,-0.011902,0.009827,-0.993408,0.144519,0.432366,-0.054656,61,273,584,5712
1644172237.016804,-0.009583,0.006836,-0.993164,0.236122,0.310229,-0.008855,45,275,568,5696
1644172237.067565,-0.010498,0.010193,-0.992737,0.297191,0.432366,-0.176794,57,275,589,5728
1644172237.113532,-0.013916,0.008606,-0.99353,0.35826,0.401832,-0.115725,52,282,577,5696
1644172237.161958,-0.012085,0.008545,-0.993591,0.236122,0.523969,-0.161527,40,280,575,5696
1644172237.210372,-0.012878,0.010376,-0.991577,0.205588,0.417099,-0.130992,49,277,582,5728
1644172237.258765,-0.012207,0.007019,-0.992249,0.129252,0.356031,-0.085191,40,275,577,5760
1644172237.307132,-0.012268,0.009827,-0.992676,0.205588,0.310229,-0.024122,55,283,569,5648
1644172237.35554,-0.010803,0.010254,-0.993469,0.312458,0.371298,-0.161527,48,274,580,5696
1644172237.403943,-0.010742,0.008301,-0.993103,0.327725,0.493435,-0.14626,49,275,589,5728
1644172237.452357,-0.009949,0.007263,-0.991089,0.266656,0.264427,-0.161527,53,279,580,5728
1644172237.50069,-0.012085,0.007507,-0.992432,0.129252,0.325496,-0.069924,51,274,571,5712
1644172237.549085,-0.008057,0.009521,-0.992432,0.281924,0.294962,0.082748,46,271,580,5696
1644172237.597484,-0.011292,0.010132,-0.991394,0.205588,0.325496,-0.069924,57,290,570,5728
1644172237.646245,-0.009827,0.010071,-0.989868,0.129252,0.417099,-0.100458,60,279,576,5696
1644172237.694293,-0.011658,0.007446,-0.994202,0.342992,0.478168,-0.054656,54,273,579,5712
1644172237.74425,-0.009827,0.010986,-0.990417,0.220855,0.264427,-0.161527,61,270,579,5712
1644172237.794776,-0.011902,0.009766,-0.990234,0.388794,0.386565,-0.069924,51,274,583,5696
1644172237.844946,-0.010376,0.009827,-0.990784,0.251389,0.340763,-0.161527,45,273,577,5728
1644172237.889153,-0.012695,0.007751,-0.993103,0.251389,0.325496,-0.237863,51,266,583,5712
1644172237.984883,-0.009949,0.011963,-0.990479,0.144519,0.462901,-0.069924,38,277,577,5712
1644172238.033018,-0.01178,0.007874,-0.990723,0.297191,0.356031,-0.069924,48,276,576,5664
1644172238.081505,-0.011597,0.010498,-0.991577,0.281924,0.462901,0.067481,58,274,578,5664
1644172238.129735,-0.011902,0.013245,-0.98999,0.236122,0.340763,-0.069924,57,263,579,5760
1644172238.17812,-0.008179,0.007507,-0.991333,0.266656,0.447634,-0.085191,42,275,570,5696
1644172238.226518,-0.011597,0.00946,-0.992859,0.205588,0.325496,0.052214,47,287,575,5696
1644172238.274925,-0.011108,0.007507,-0.994141,0.373527,0.417099,0.021679,52,268,575,5664
1644172238.323325,-0.011047,0.006409,-0.992737,0.236122,0.371298,-0.008855,45,273,577,5696
1644172238.371717,-0.011047,0.008118,-0.990112,0.220855,0.279695,-0.130992,53,279,576,5712
1644172238.420105,-0.011169,0.010437,-0.991455,0.236122,0.554504,-0.222595,51,283,573,5696
1644172238.468492,-0.011414,0.006836,-0.99231,0.281924,0.401832,-0.176794,55,274,580,5696
1644172238.516881,-0.010132,0.009155,-0.991882,0.297191,0.371298,-0.176794,43,269,571,5760
1644172238.565301,-0.011658,0.010986,-0.991821,0.220855,0.356031,-0.069924,52,285,579,5664
1644172238.613665,-0.014099,0.006775,-0.990173,0.266656,0.401832,-0.069924,59,268,577,5696
1644172238.662057,-0.007141,0.009949,-0.99292,0.205588,0.401832,-0.130992,47,275,577,5728
1644172238.710428,-0.010498,0.008362,-0.992737,0.297191,0.371298,-0.130992,42,280,579,5728
1644172238.758812,-0.012329,0.006836,-0.989746,0.236122,0.340763,-0.100458,67,279,580,5696
1644172238.807609,-0.007751,0.011536,-0.990845,0.266656,0.523969,-0.100458,53,266,585,5712
1644172238.855667,-0.009338,0.008606,-0.994141,0.236122,0.401832,-0.100458,51,274,573,5712
1644172238.906872,-0.009949,0.007996,-0.989563,0.037649,0.371298,0.036947,53,274,576,5696
1644172238.956091,-0.009399,0.011047,-0.99585,0.342992,0.356031,-0.130992,53,271,580,5696
1644172239.006394,-0.015991,0.007507,-0.994019,0.281924,0.432366,-0.176794,57,273,584,5696
1644172239.10009,-0.008911,0.008728,-0.990723,0.220855,0.539237,-0.14626,46,274,585,5712
1644172239.145926,-0.011536,0.007019,-0.991272,0.312458,0.432366,-0.130992,46,279,576,5696
1644172239.194329,-0.011047,0.009155,-0.99469,0.327725,0.340763,-0.085191,47,277,582,5696
1644172239.242759,-0.009583,0.005737,-0.99408,0.190321,0.24916,-0.085191,39,266,578,5648
1644172239.29113,-0.009705,0.009949,-0.990356,0.037649,0.447634,-0.14626,60,266,578,5712
1644172239.33952,-0.00885,0.00885,-0.993713,0.205588,0.264427,-0.039389,58,281,576,5696
1644172239.387925,-0.009033,0.009216,-0.991333,0.342992,0.478168,-0.130992,53,274,576,5776
1644172239.436303,-0.007141,0.009888,-0.990662,0.281924,0.478168,-0.115725,51,276,573,5760
1644172239.484721,-0.012207,0.009399,-0.992493,0.266656,0.401832,-0.130992,60,269,576,5664
1644172239.533092,-0.008667,0.009949,-0.992249,0.342992,0.417099,-0.100458,54,275,570,5664
1644172239.581467,-0.01001,0.008484,-0.991882,0.266656,0.401832,-0.115725,49,275,591,5728
1644172239.629864,-0.011719,0.009888,-0.993469,0.190321,0.356031,-0.14626,47,273,582,5664
1644172239.678258,-0.008484,0.008484,-0.990784,0.388794,0.310229,0.12855,52,273,577,5664
1644172239.726645,-0.01178,0.008972,-0.992188,0.251389,0.356031,-0.130992,57,273,582,5648
1644172239.775072,-0.011047,0.011475,-0.989319,0.113985,0.386565,-0.039389,53,269,566,5648
1644172239.823488,-0.005493,0.010193,-0.991882,0.297191,0.371298,-0.14626,46,274,590,5696
1644172239.873353,-0.010864,0.006531,-0.990112,0.144519,0.340763,-0.14626,51,279,578,5728
1644172239.923705,-0.014221,0.006042,-0.993469,0.205588,0.401832,-0.192061,47,275,575,5728
1644172239.96904,-0.01062,0.006714,-0.992798,0.113985,0.310229,-0.100458,49,280,575,5696
1644172240.070717,-0.011353,0.009338,-0.992737,0.190321,0.508702,-0.192061,58,274,571,5648
1644172240.113753,-0.006775,0.010742,-0.993713,0.342992,0.340763,-0.222595,57,277,577,5696
1644172240.162367,-0.011292,0.010071,-0.992859,0.236122,0.310229,-0.115725,48,269,571,5696
1644172240.21053,-0.010193,0.009644,-0.992065,0.281924,0.462901,0.006412,53,271,583,5760
1644172240.258932,-0.011719,0.009277,-0.993591,0.388794,0.264427,-0.115725,59,275,586,5696
1644172240.307316,-0.012146,0.010254,-0.992859,0.190321,0.356031,-0.069924,46,281,576,5664
1644172240.355718,-0.012634,0.008484,-0.990356,0.098718,0.340763,-0.085191,51,271,576,5664
1644172240.404131,-0.008423,0.010559,-0.992371,0.190321,0.432366,-0.207328,53,286,573,5664
1644172240.45253,-0.014404,0.009766,-0.995239,0.144519,0.401832,0.021679,43,279,573,5664
1644172240.500901,-0.01001,0.008667,-0.994812,0.144519,0.386565,-0.130992,55,274,580,5712
1644172240.549288,-0.00946,0.009705,-0.994446,0.236122,0.340763,-0.14626,40,270,565,5728
1644172240.597676,-0.007263,0.011047,-0.992615,0.327725,0.401832,-0.115725,51,283,576,5760
1644172240.646061,-0.008728,0.010193,-0.992126,0.297191,0.371298,-0.100458,51,276,576,5712
1644172240.694455,-0.011292,0.00769,-0.992615,0.129252,0.417099,-0.130992,42,285,584,5760
1644172240.742868,-0.010193,0.010559,-0.992432,0.068183,0.508702,-0.14626,53,283,583,5712
1644172240.791237,-0.011414,0.006897,-0.990601,0.220855,0.401832,-0.130992,47,275,584,5664
1644172240.840106,-0.008057,0.010681,-0.992859,0.327725,0.310229,-0.085191,60,274,576,5696
1644172240.89083,-0.010437,0.011169,-0.991699,0.251389,0.478168,-0.222595,47,269,566,5696
1644172240.941183,-0.009888,0.009766,-0.992432,0.220855,0.386565,-0.130992,48,266,573,5696
1644172240.985725,-0.009705,0.008606,-0.99353,0.129252,0.264427,-0.085191,53,274,585,5712
1644172241.08563,-0.010742,0.006409,-0.992493,0.220855,0.417099,-0.008855,54,273,584,5712
1644172241.130021,-0.012085,0.006775,-0.993591,0.342992,0.432366,-0.024122,46,279,576,5728
1644172241.178362,-0.00946,0.00708,-0.992798,0.297191,0.371298,-0.085191,48,281,578,5696
1644172241.226752,-0.010437,0.008545,-0.991882,0.144519,0.356031,0.036947,48,271,573,5728
1644172241.27518,-0.008728,0.00708,-0.992188,0.388794,0.340763,-0.008855,55,274,566,5760
1644172241.323541,-0.012512,0.007935,-0.99176,0.113985,0.371298,0.006412,49,277,579,5712
1644172241.372007,-0.011536,0.00708,-0.992065,0.220855,0.447634,0.067481,54,280,582,5664
1644172241.420326,-0.011108,0.009521,-0.993408,0.251389,0.24916,-0.069924,41,276,585,5664
1644172241.468707,-0.010925,0.007629,-0.992065,0.144519,0.325496,-0.008855,51,264,580,5728
1644172241.517098,-0.011353,0.008484,-0.990845,0.205588,0.417099,-0.268397,55,274,585,5696
1644172241.565459,-0.011169,0.009644,-0.994202,0.251389,0.462901,-0.283664,57,263,589,5648
1644172241.613885,-0.011169,0.010864,-0.990723,0.281924,0.432366,-0.161527,52,275,575,5632
1644172241.662299,-0.012756,0.009216,-0.992126,0.251389,0.462901,0.052214,49,280,575,5712
1644172241.710663,-0.009766,0.00885,-0.994751,0.159786,0.417099,-0.192061,45,268,575,5728
1644172241.759053,-0.010803,0.011169,-0.991028,0.266656,0.478168,-0.130992,42,270,572,5664
1644172241.807447,-0.011047,0.007324,-0.995422,0.190321,0.523969,-0.14626,43,264,576,5664
1644172241.856349,-0.009094,0.00769,-0.992981,0.113985,0.523969,0.052214,52,273,577,5696
1644172241.907648,-0.009888,0.007263,-0.994995,0.08345,0.462901,-0.207328,52,273,582,5696
1644172241.957204,-0.010681,0.008972,-0.992676,0.251389,0.356031,-0.268397,47,273,575,5696
1644172242.001621,-0.010254,0.010071,-0.993347,0.129252,0.356031,-0.024122,51,279,578,5696
1644172242.10098,-0.008362,0.007324,-0.994385,0.236122,0.386565,-0.069924,51,291,573,5648
1644172242.146213,-0.013367,0.011414,-0.990417,0.281924,0.386565,-0.161527,41,279,573,5696
1644172242.194624,-0.01123,0.007141,-0.992676,0.251389,0.356031,-0.130992,55,271,583,5728
1644172242.242976,-0.008911,0.011169,-0.991211,0.220855,0.493435,-0.054656,55,271,571,5728
1644172242.291365,-0.012024,0.007812,-0.991577,0.175053,0.371298,-0.054656,53,274,583,5712
1644172242.339742,-0.012268,0.009338,-0.993347,0.342992,0.371298,-0.161527,45,263,568,5696
1644172242.388156,-0.011536,0.009949,-0.993835,0.373527,0.371298,-0.237863,51,276,569,5712
1644172242.436527,-0.010681,0.007385,-0.992249,0.281924,0.371298,-0.14626,47,285,575,5696
1644172242.484913,-0.009216,0.007996,-0.993286,0.144519,0.447634,-0.100458,46,274,580,5760
1644172242.533309,-0.012817,0.011414,-0.992004,0.159786,0.417099,-0.207328,60,276,573,5696
1644172242.581694,-0.008972,0.01062,-0.995422,0.220855,0.447634,-0.207328,52,287,582,5728
1644172242.63005,-0.011108,0.008728,-0.993347,0.175053,0.508702,-0.100458,45,275,577,5664
1644172242.678452,-0.00824,0.007751,-0.991028,0.052916,0.432366,-0.25313,51,269,578,5760
1644172242.726866,-0.013,0.009155,-0.991333,0.236122,0.447634,-0.176794,52,277,582,5696
1644172242.775254,-0.01416,0.010437,-0.992554,0.144519,0.478168,-0.237863,51,264,587,5696
1644172242.82371,-0.010559,0.00946,-0.993164,0.175053,0.371298,-0.085191,42,270,575,5712
1644172242.874015,-0.012878,0.010742,-0.989136,0.129252,0.432366,-0.039389,45,268,584,5696
1644172242.924084,-0.011475,0.008606,-0.992249,0.236122,0.325496,-0.130992,57,280,579,5696
1644172242.974341,-0.010071,0.008484,-0.991821,0.236122,0.447634,0.12855,53,266,583,5696
1644172243.018962,-0.006348,0.007751,-0.990662,0.098718,0.310229,0.006412,42,275,568,5696
1644172243.114017,-0.008667,0.007263,-0.992859,0.281924,0.356031,0.021679,49,275,593,5664
1644172243.162415,-0.00885,0.006287,-0.993591,0.342992,0.264427,-0.024122,48,279,580,5712
1644172243.210787,-0.010132,0.009155,-0.992371,0.419328,0.554504,-0.115725,45,263,582,5696
1644172243.259166,-0.01178,0.008667,-0.993958,0.205588,0.478168,-0.161527,53,269,578,5664
1644172243.307571,-0.010925,0.008301,-0.99292,0.434595,0.325496,-0.130992,45,275,582,5760
1644172243.35594,-0.011841,0.008911,-0.991394,0.236122,0.417099,0.036947,58,269,571,5696
1644172243.404367,-0.010498,0.010498,-0.991272,0.251389,0.356031,-0.085191,52,273,577,5776
1644172243.452732,-0.011108,0.010742,-0.994507,0.373527,0.279695,0.098015,62,276,583,5696
1644172243.501133,-0.013611,0.007385,-0.99408,0.327725,0.493435,-0.085191,46,279,580,5696
1644172243.549504,-0.01062,0.010315,-0.993774,0.236122,0.401832,0.067481,51,279,576,5664
1644172243.597908,-0.012085,0.01123,-0.993958,0.190321,0.569771,-0.085191,48,279,571,5648
1644172243.646289,-0.010986,0.010132,-0.992371,0.266656,0.417099,-0.039389,41,281,569,5696
1644172243.694732,-0.010864,0.007324,-0.98999,0.236122,0.371298,-0.161527,52,277,579,5696
1644172243.743093,-0.010925,0.009705,-0.990234,0.205588,0.356031,0.036947,45,273,586,5696
1644172243.791458,-0.008667,0.006653,-0.991516,0.236122,0.569771,-0.176794,60,276,590,5648
1644172243.840028,-0.010071,0.008057,-0.993408,0.175053,0.188092,-0.130992,51,271,578,5696
1644172243.889166,-0.009033,0.008423,-0.989197,0.236122,0.371298,-0.100458,48,274,580,5760
1644172243.940058,-0.013794,0.004456,-0.993164,0.205588,0.493435,-0.14626,49,285,582,5712
1644172243.990468,-0.012329,0.01062,-0.993286,0.281924,0.325496,0.006412,52,258,575,5696
1644172244.035131,-0.010376,0.009644,-0.993469,0.220855,0.432366,-0.130992,52,282,584,5648
1644172244.130204,-0.009155,0.009521,-0.992188,0.266656,0.478168,-0.192061,48,266,578,5696
1644172244.178564,-0.010559,0.009521,-0.992371,0.236122,0.386565,0.067481,57,270,575,5664
1644172244.226967,-0.010925,0.008606,-0.993286,0.144519,0.478168,-0.069924,54,275,577,5696
1644172244.275396,-0.008728,0.006348,-0.990967,0.098718,0.233893,-0.115725,55,274,576,5712
1644172244.323768,-0.010925,0.007935,-0.993774,0.190321,0.462901,-0.115725,52,280,577,5712
1644172244.372164,-0.008667,0.009521,-0.990906,0.190321,0.24916,-0.069924,52,273,577,5760
1644172244.420544,-0.01001,0.007507,-0.990784,0.144519,0.310229,0.098015,51,279,585,5664
1644172244.468932,-0.01355,0.008301,-0.992676,0.037649,0.539237,-0.161527,55,279,573,5696
1644172244.517327,-0.01123,0.008057,-0.993774,0.159786,0.401832,-0.054656,40,277,577,5728
1644172244.565712,-0.012024,0.006165,-0.995544,0.373527,0.432366,-0.161527,51,271,576,5728
1644172244.61413,-0.009521,0.010193,-0.992493,0.297191,0.340763,-0.161527,54,280,575,5712
1644172244.662512,-0.00946,0.007812,-0.992798,0.251389,0.310229,0.021679,51,271,585,5728
1644172244.710895,-0.009705,0.008118,-0.993408,0.159786,0.24916,-0.054656,52,277,582,5648
1644172244.759261,-0.012756,0.010071,-0.99176,0.266656,0.417099,-0.054656,47,270,577,5712
1644172244.807693,-0.011597,0.008972,-0.991821,0.297191,0.264427,-0.100458,57,265,570,5664
1644172244.856101,-0.010925,0.012024,-0.991211,0.35826,0.340763,-0.039389,46,269,578,5728
1644172244.904488,-0.008728,0.011841,-0.992432,0.312458,0.401832,-0.085191,51,269,573,5664
1644172244.952897,-0.012207,0.010193,-0.991028,0.297191,0.600305,-0.100458,39,269,583,5712
1644172245.001266,-0.011047,0.00885,-0.995544,0.449863,0.401832,-0.14626,48,269,578,5664
1644172245.069641,-0.009216,0.007935,-0.991577,0.327725,0.478168,0.021679,52,282,586,5760
1644172245.102336,-0.010742,0.006531,-0.99408,0.251389,0.432366,-0.115725,46,276,585,5712
1644172245.147466,-0.012451,0.006592,-0.993347,0.312458,0.340763,-0.161527,48,264,578,5696
1644172245.243196,-0.013184,0.007507,-0.993408,0.312458,0.478168,-0.130992,47,282,589,5728
1644172245.291564,-0.010437,0.008179,-0.993225,0.35826,0.401832,0.082748,49,275,575,5696
1644172245.33996,-0.009888,0.009399,-0.993958,0.312458,0.478168,-0.054656,48,271,573,5664
1644172245.388354,-0.012756,0.010498,-0.993835,0.266656,0.371298,-0.161527,58,274,585,5712
1644172245.436739,-0.013367,0.008972,-0.993164,0.159786,0.478168,-0.176794,49,277,582,5696
1644172245.485166,-0.008728,0.007751,-0.992859,0.251389,0.478168,-0.054656,55,271,564,5712
1644172245.533538,-0.009216,0.010132,-0.994385,0.510931,0.386565,-0.069924,49,282,584,5648
1644172245.581919,-0.011963,0.008667,-0.993164,0.220855,0.508702,-0.054656,48,271,573,5696
1644172245.63032,-0.010315,0.010193,-0.993958,0.297191,0.462901,-0.161527,45,277,579,5712
1644172245.678703,-0.012573,0.008301,-0.992554,0.098718,0.371298,-0.115725,51,279,576,5728
1644172245.727068,-0.009521,0.007812,-0.990845,0.281924,0.371298,-0.024122,47,268,579,5664
1644172245.775476,-0.008911,0.008362,-0.992371,0.373527,0.340763,-0.008855,47,282,579,5648
1644172245.823931,-0.011475,0.011475,-0.994446,0.266656,0.447634,-0.008855,52,275,579,5808
1644172245.872301,-0.011658,0.006409,-0.990112,0.175053,0.279695,-0.085191,53,276,585,5696
1644172245.920693,-0.012268,0.010132,-0.992493,0.297191,0.401832,0.082748,54,280,577,5712
1644172245.969091,-0.01001,0.007812,-0.990173,0.220855,0.401832,0.067481,42,282,584,5696
1644172246.017488,-0.010254,0.009766,-0.992493,0.266656,0.417099,-0.14626,36,276,580,5712
1644172246.095344,-0.012085,0.010498,-0.992493,0.220855,0.279695,0.006412,58,269,590,5728
1644172246.119699,-0.011047,0.008911,-0.993042,0.205588,0.447634,-0.115725,60,269,585,5728
1644172246.211022,-0.009521,0.010254,-0.991516,0.236122,0.279695,0.067481,54,265,579,5728
1644172246.259376,-0.010681,0.007629,-0.990906,0.251389,0.279695,0.006412,59,275,575,5648
1644172246.307775,-0.00885,0.008057,-0.992249,0.190321,0.371298,-0.100458,47,290,584,5664
1644172246.356154,-0.010193,0.009705,-0.99292,0.297191,0.508702,-0.14626,53,274,578,5648
1644172246.404551,-0.01001,0.011292,-0.990295,0.144519,0.325496,-0.085191,52,268,575,5664
1644172246.452967,-0.011536,0.008606,-0.994202,0.35826,0.356031,-0.192061,53,279,578,5664
1644172246.501317,-0.011841,0.01001,-0.992371,0.342992,0.325496,-0.069924,46,276,569,5712
1644172246.549735,-0.008179,0.009277,-0.991272,0.113985,0.478168,0.006412,54,285,586,5760
1644172246.598131,-0.00769,0.010681,-0.993286,0.281924,0.401832,-0.192061,42,273,577,5696
1644172246.646525,-0.01239,0.006042,-0.993347,0.46513,0.371298,-0.207328,53,283,578,5728
1644172246.694928,-0.010132,0.007629,-0.991455,0.388794,0.432366,-0.085191,60,274,576,5696
1644172246.743301,-0.011414,0.011597,-0.991516,0.220855,0.401832,0.082748,59,277,577,5664
1644172246.791688,-0.008545,0.010132,-0.991516,0.342992,0.371298,-0.115725,45,285,589,5664
1644172246.840119,-0.010315,0.006958,-0.991211,0.266656,0.462901,-0.085191,52,277,586,5696
1644172246.888503,-0.012573,0.009644,-0.993591,0.236122,0.462901,-0.100458,51,269,580,5696
1644172246.936895,-0.011597,0.008667,-0.992859,0.175053,0.340763,-0.176794,59,277,579,5664
1644172246.985291,-0.01123,0.00769,-0.993652,0.404061,0.447634,-0.161527,57,277,582,5776
1644172247.03447,-0.009949,0.011414,-0.990845,0.312458,0.340763,-0.283664,54,273,572,5712
1644172247.092504,-0.012451,0.009644,-0.995239,0.236122,0.386565,-0.192061,55,279,578,5728
1644172247.133673,-0.00531,0.010498,-0.990479,0.281924,0.233893,-0.100458,51,276,571,5760
1644172247.183103,-0.011292,0.011658,-0.992188,0.297191,0.279695,-0.298931,51,281,573,5648
1644172247.228405,-0.011536,0.009583,-0.993286,0.266656,0.478168,-0.008855,42,265,586,5712
1644172247.323982,-0.009338,0.009094,-0.992188,0.251389,0.371298,-0.14626,58,259,576,5648
1644172247.372396,-0.011475,0.008789,-0.994019,0.205588,0.340763,-0.14626,52,275,582,5712
1644172247.420766,-0.009949,0.009399,-0.992981,0.236122,0.447634,-0.054656,59,270,579,5648
1644172247.469145,-0.01001,0.011475,-0.991638,0.327725,0.493435,-0.039389,48,279,580,5664
1644172247.517529,-0.010864,0.008728,-0.990356,0.220855,0.569771,0.006412,47,277,575,5712
1644172247.565928,-0.008484,0.007324,-0.992737,0.159786,0.279695,-0.222595,61,273,577,5728
1644172247.614325,-0.008972,0.009033,-0.99176,0.327725,0.401832,-0.100458,43,274,585,5712
1644172247.662714,-0.008423,0.008789,-0.992065,0.419328,0.417099,-0.176794,53,271,576,5664
1644172247.711109,-0.01239,0.01001,-0.992981,0.312458,0.356031,-0.024122,48,276,590,5760
1644172247.759501,-0.007385,0.007202,-0.991577,0.342992,0.432366,-0.100458,52,285,582,5664
1644172247.807887,-0.011536,0.00647,-0.993347,0.281924,0.294962,-0.008855,54,270,575,5696
1644172247.85629,-0.011841,0.011169,-0.99408,0.236122,0.493435,-0.054656,43,281,590,5664
1644172247.904742,-0.010254,0.007874,-0.996521,0.266656,0.432366,-0.130992,57,277,577,5648
1644172247.953097,-0.011963,0.005981,-0.991028,0.205588,0.432366,-0.161527,59,275,579,5664
1644172248.001461,-0.009766,0.009949,-0.990967,0.266656,0.462901,0.082748,48,276,585,5712
1644172248.064914,-0.011353,0.010498,-0.991516,0.373527,0.310229,-0.115725,57,277,591,5728
1644172248.101877,-0.013428,0.010742,-0.991699,0.236122,0.386565,-0.14626,57,273,589,5664
1644172248.146619,-0.012207,0.009766,-0.992554,0.297191,0.401832,0.006412,48,281,578,5696
1644172248.195051,-0.006348,0.00769,-0.993286,0.266656,0.478168,-0.176794,45,275,579,5696
1644172248.243762,-0.011536,0.005676,-0.992126,0.205588,0.310229,-0.069924,49,273,572,5696
1644172248.293844,-0.010986,0.004639,-0.992004,0.327725,0.401832,-0.14626,45,280,579,5712
1644172248.344114,-0.009766,0.008972,-0.993225,0.297191,0.432366,-0.100458,48,276,571,5712
1644172248.389279,-0.013123,0.008972,-0.992737,0.388794,0.432366,-0.115725,51,264,583,5664
1644172248.48539,-0.010681,0.007324,-0.991699,0.205588,0.600305,-0.085191,49,277,589,5712
1644172248.533765,-0.008362,0.007751,-0.992432,0.266656,0.478168,-0.130992,61,277,575,5728
1644172248.582374,-0.011536,0.009094,-0.994019,0.220855,0.401832,-0.14626,51,274,571,5760
1644172248.63053,-0.012024,0.01001,-0.992676,0.404061,0.356031,-0.085191,49,268,570,5664
1644172248.67891,-0.009827,0.007812,-0.994141,0.281924,0.508702,-0.161527,43,271,578,5760
1644172248.727297,-0.009338,0.010132,-0.990479,0.327725,0.493435,-0.130992,51,271,573,5760
1644172248.775692,-0.011169,0.007874,-0.991211,0.205588,0.356031,-0.039389,53,276,583,5696
1644172248.8241,-0.009399,0.011902,-0.991638,0.404061,0.432366,-0.192061,46,283,580,5728
1644172248.872536,-0.009399,0.008484,-0.991821,0.205588,0.356031,-0.024122,60,279,578,5712
1644172248.920894,-0.013306,0.00824,-0.992249,0.098718,0.386565,0.021679,51,274,569,5760
1644172248.969311,-0.010376,0.011902,-0.992126,0.144519,0.447634,-0.161527,60,281,576,5728
1644172249.017702,-0.011108,0.007996,-0.992249,0.236122,0.462901,-0.069924,40,265,579,5824
1644172249.076151,-0.010925,0.008972,-0.99292,0.281924,0.386565,-0.222595,54,275,586,5664
1644172249.114463,-0.012695,0.009644,-0.995972,0.175053,0.539237,-0.039389,58,266,585,5696
1644172249.162852,-0.010742,0.011169,-0.988953,0.052916,0.417099,-0.222595,43,286,585,5696
1644172249.2112,-0.00946,0.007629,-0.995361,0.327725,0.417099,-0.161527,45,277,589,5664
1644172249.259585,-0.010193,0.009521,-0.993958,0.190321,0.294962,0.067481,53,279,578,5760
1644172249.307999,-0.013062,0.00769,-0.995544,0.236122,0.386565,0.006412,58,274,587,5728
1644172249.356385,-0.010376,0.007935,-0.991882,0.419328,0.462901,0.052214,52,268,579,5648
1644172249.405475,-0.010132,0.009827,-0.991333,0.159786,0.386565,0.036947,55,271,580,5696
1644172249.456363,-0.009827,0.007935,-0.991272,0.159786,0.401832,-0.115725,48,279,578,5712
1644172249.506366,-0.010498,0.009094,-0.990906,0.266656,0.523969,0.006412,47,277,577,5696
1644172249.551192,-0.010071,0.006409,-0.991577,0.388794,0.539237,-0.192061,46,279,578,5696
1644172249.646728,-0.010376,0.010559,-0.992798,0.266656,0.218626,-0.039389,46,269,578,5664
1644172249.695339,-0.010315,0.008667,-0.991699,0.373527,0.432366,0.113282,42,273,570,5760
1644172249.743524,-0.009644,0.010254,-0.993652,0.266656,0.325496,-0.085191,54,270,572,5728
1644172249.791894,-0.009583,0.008301,-0.992981,0.190321,0.432366,-0.176794,52,270,582,5696
1644172249.840295,-0.011658,0.010803,-0.992065,0.373527,0.462901,-0.207328,49,277,582,5696
1644172249.888731,-0.008057,0.007751,-0.99292,0.220855,0.310229,-0.192061,41,271,580,5760
1644172249.937132,-0.012146,0.009338,-0.992981,0.236122,0.371298,-0.161527,53,274,573,5696
1644172249.985506,-0.009766,0.008118,-0.995117,0.251389,0.447634,-0.008855,49,282,582,5712
1644172250.033903,-0.010925,0.010742,-0.994385,0.144519,0.447634,-0.14626,48,271,573,5712
1644172250.092434,-0.009888,0.008057,-0.992249,0.129252,0.432366,-0.14626,52,270,582,5696
1644172250.130706,-0.009155,0.007812,-0.990967,0.159786,0.264427,-0.024122,55,274,576,5696
1644172250.179042,-0.007874,0.008911,-0.993469,0.220855,0.386565,-0.207328,54,268,582,5664
1644172250.227423,-0.013062,0.009338,-0.992249,0.342992,0.294962,-0.161527,51,271,580,5712
1644172250.275788,-0.010437,0.00647,-0.990356,0.175053,0.325496,-0.085191,48,264,573,5696
1644172250.324174,-0.011963,0.007996,-0.991821,0.297191,0.386565,-0.069924,46,279,576,5696
1644172250.37337,-0.010742,0.008118,-0.991699,0.159786,0.310229,-0.085191,39,274,573,5696
1644172250.422037,-0.010681,0.008423,-0.991455,0.266656,0.371298,-0.069924,54,265,575,5696
1644172250.472483,-0.010986,0.01001,-0.991394,0.266656,0.478168,-0.207328,45,270,572,5712
1644172250.52275,-0.01001,0.007812,-0.993408,0.190321,0.539237,-0.054656,57,263,582,5712
1644172250.567559,-0.010254,0.006775,-0.990234,0.220855,0.264427,-0.100458,47,282,570,5696
1644172250.66296,-0.011292,0.01001,-0.991943,0.175053,0.294962,-0.115725,55,266,569,5712
1644172250.711323,-0.010437,0.00647,-0.992981,0.129252,0.340763,-0.130992,48,288,573,5696
1644172250.759709,-0.011902,0.00946,-0.992432,0.312458,0.447634,-0.283664,52,275,577,5696
1644172250.808101,-0.007996,0.007751,-0.995117,0.236122,0.493435,-0.130992,49,268,572,5728
1644172250.856515,-0.010864,0.01001,-0.993286,0.251389,0.432366,-0.085191,35,270,579,5760
1644172250.904926,-0.010803,0.007263,-0.991333,0.404061,0.356031,-0.008855,45,275,579,5696
1644172250.953341,-0.009827,0.007629,-0.994995,0.388794,0.356031,0.082748,48,274,580,5696
1644172251.001704,-0.011841,0.007446,-0.992004,0.220855,0.371298,-0.085191,54,265,584,5728
1644172251.066207,-0.009094,0.010498,-0.992554,0.297191,0.447634,-0.207328,43,264,585,5664
1644172251.101413,-0.01123,0.008179,-0.992371,0.129252,0.233893,-0.069924,55,276,580,5664
1644172251.146896,-0.01239,0.010315,-0.99176,0.220855,0.569771,-0.024122,52,275,575,5776
1644172251.195339,-0.00885,0.007019,-0.992249,0.159786,0.462901,-0.161527,52,280,584,5664
1644172251.243637,-0.011963,0.011108,-0.990601,0.342992,0.325496,-0.237863,51,281,585,5696
1644172251.292059,-0.011597,0.009644,-0.99231,0.175053,0.432366,-0.085191,49,277,586,5712
1644172251.340425,-0.014404,0.007202,-0.993958,0.266656,0.310229,-0.268397,47,270,577,5728
1644172251.389472,-0.010132,0.010742,-0.992493,0.068183,0.325496,0.036947,54,275,575,5664
1644172251.437207,-0.010803,0.006653,-0.995728,0.297191,0.356031,-0.085191,53,271,597,5776
1644172251.485659,-0.011597,0.007996,-0.992126,0.175053,0.478168,-0.268397,49,270,579,5712
1644172251.534078,-0.010193,0.00592,-0.996094,0.159786,0.447634,-0.085191,49,265,572,5664
1644172251.584499,-0.011475,0.009155,-0.992371,0.159786,0.356031,-0.085191,48,271,564,5808
1644172251.634934,-0.009338,0.007751,-0.990662,0.342992,0.386565,-0.069924,42,277,572,5696
1644172251.685142,-0.010437,0.00592,-0.992188,0.205588,0.310229,-0.25313,48,269,566,5696
1644172251.775989,-0.010498,0.009094,-0.994446,0.236122,0.447634,-0.085191,49,275,575,5760
1644172251.824358,-0.009521,0.009399,-0.991943,0.220855,0.279695,-0.085191,54,273,584,5648
1644172251.872729,-0.008972,0.009399,-0.994812,0.098718,0.447634,-0.085191,54,273,579,5696
1644172251.921136,-0.012817,0.009766,-0.990417,0.190321,0.462901,-0.207328,48,274,576,5664
1644172251.969536,-0.013,0.007874,-0.991882,0.205588,0.356031,-0.14626,49,277,582,5696
1644172252.01793,-0.011047,0.009155,-0.994995,0.205588,0.401832,0.006412,51,283,571,5648
1644172252.069266,-0.010742,0.008423,-0.993103,0.419328,0.478168,-0.039389,54,280,575,5664
1644172252.114723,-0.010498,0.011047,-0.993469,0.236122,0.371298,-0.069924,45,265,575,5728
1644172252.163074,-0.012268,0.01062,-0.993713,0.205588,0.401832,-0.085191,45,280,565,5712
1644172252.211442,-0.009644,0.010742,-0.992737,0.312458,0.432366,-0.130992,47,280,577,5664
1644172252.259839,-0.011169,0.009155,-0.990295,0.113985,0.447634,0.052214,45,273,579,5664
1644172252.308212,-0.010193,0.009399,-0.993408,0.327725,0.325496,0.006412,53,266,587,5696
1644172252.356601,-0.008545,0.00769,-0.993408,0.037649,0.432366,-0.008855,41,271,583,5696
1644172252.405056,-0.008972,0.010864,-0.992798,0.220855,0.340763,-0.222595,55,271,578,5696
1644172252.453381,-0.012085,0.008301,-0.990356,0.159786,0.325496,-0.100458,47,268,579,5664
1644172252.501764,-0.012268,0.009277,-0.991089,0.190321,0.493435,-0.176794,53,283,583,5664
1644172252.550154,-0.011597,0.009888,-0.995544,0.266656,0.356031,-0.100458,53,274,576,5712
1644172252.598573,-0.011292,0.009399,-0.992615,0.175053,0.325496,-0.161527,46,274,571,5664
1644172252.64697,-0.01123,0.010803,-0.992676,0.220855,0.356031,-0.008855,41,279,580,5728
1644172252.695662,-0.009216,0.008362,-0.993652,0.266656,0.371298,-0.115725,55,271,590,5696
1644172252.746278,-0.010315,0.011169,-0.990356,0.175053,0.493435,-0.14626,51,281,562,5696
1644172252.796695,-0.009888,0.009827,-0.993042,0.220855,0.386565,-0.008855,46,281,573,5696
1644172252.841827,-0.008911,0.008301,-0.990295,0.342992,0.356031,-0.192061,45,277,568,5664
1644172252.937335,-0.007202,0.007446,-0.98938,0.175053,0.386565,0.052214,54,275,584,5760
1644172252.985724,-0.010437,0.009033,-0.989868,0.251389,0.462901,-0.207328,49,273,579,5712
1644172253.034185,-0.011353,0.010071,-0.994324,0.373527,0.386565,-0.100458,53,274,585,5712
1644172253.082585,-0.009644,0.009888,-0.99408,0.236122,0.417099,-0.100458,48,269,580,5664
1644172253.130866,-0.010864,0.008423,-0.991882,0.159786,0.462901,-0.14626,42,280,572,5632
1644172253.179254,-0.009766,0.009277,-0.99292,0.159786,0.432366,-0.25313,57,268,579,5712
1644172253.227645,-0.012146,0.009766,-0.993103,0.327725,0.401832,-0.024122,59,270,575,5728
1644172253.276045,-0.008301,0.00946,-0.990479,0.144519,0.264427,-0.130992,49,285,570,5664
1644172253.324412,-0.012573,0.009094,-0.992554,0.190321,0.417099,-0.008855,51,279,573,5728
1644172253.372839,-0.011292,0.008667,-0.992188,0.373527,0.432366,0.12855,48,266,566,5728
1644172253.421213,-0.011353,0.007507,-0.992798,0.251389,0.447634,0.006412,66,275,572,5808
1644172253.469603,-0.009949,0.006653,-0.993774,0.113985,0.432366,-0.115725,54,275,584,5696
1644172253.517989,-0.006897,0.008911,-0.993408,0.190321,0.371298,-0.161527,53,274,580,5648
1644172253.566382,-0.01123,0.007812,-0.995605,0.251389,0.447634,-0.069924,42,277,577,5664
1644172253.614785,-0.010681,0.008545,-0.992554,0.266656,0.417099,-0.054656,58,281,585,5696
1644172253.663193,-0.012634,0.010498,-0.992737,0.175053,0.172824,-0.085191,61,270,568,5664
1644172253.711548,-0.010742,0.005554,-0.992798,0.144519,0.432366,-0.130992,46,262,587,5712
1644172253.759946,-0.010071,0.007568,-0.99231,0.220855,0.386565,-0.054656,47,273,586,5760
1644172253.808376,-0.011963,0.008667,-0.993896,0.281924,0.24916,-0.100458,58,281,583,5664
1644172253.858788,-0.012573,0.008911,-0.994141,0.251389,0.386565,-0.176794,64,277,575,5776
1644172253.908542,-0.011597,0.009888,-0.994141,0.327725,0.508702,0.021679,51,271,576,5808
1644172253.958784,-0.010498,0.008179,-0.994202,0.312458,0.294962,-0.085191,48,262,573,5664
1644172254.063413,-0.012634,0.010132,-0.992065,0.312458,0.447634,-0.085191,51,276,580,5664
1644172254.098711,-0.012451,0.007202,-0.994751,0.190321,0.340763,-0.130992,48,276,583,5712
1644172254.147073,-0.012451,0.007446,-0.991943,0.098718,0.432366,-0.222595,39,281,583,5696
1644172254.195463,-0.011047,0.004395,-0.993286,0.159786,0.401832,0.036947,53,276,583,5696
1644172254.243859,-0.010986,0.006836,-0.992615,0.251389,0.356031,-0.100458,48,279,576,5776
1644172254.292256,-0.011475,0.006653,-0.994202,0.220855,0.432366,-0.237863,48,281,576,5664
1644172254.340638,-0.009216,0.010376,-0.993042,0.297191,0.371298,0.067481,47,268,563,5728
1644172254.389013,-0.009766,0.006165,-0.9953,0.327725,0.340763,-0.222595,47,277,575,5712
1644172254.437413,-0.010864,0.009216,-0.994873,0.236122,0.462901,-0.14626,42,268,568,5648
1644172254.485805,-0.010864,0.007202,-0.993958,0.327725,0.493435,-0.100458,57,270,579,5712
1644172254.534199,-0.010925,0.00824,-0.995422,0.281924,0.554504,-0.115725,52,273,568,5712
1644172254.582603,-0.011963,0.00885,-0.994751,0.190321,0.462901,-0.237863,54,268,579,5728
1644172254.63115,-0.010132,0.00647,-0.993225,0.373527,0.478168,-0.100458,46,269,585,5760
1644172254.681699,-0.010986,0.006958,-0.990295,0.205588,0.417099,-0.192061,45,270,579,5760
1644172254.731807,-0.012085,0.010559,-0.991211,0.159786,0.478168,-0.100458,46,276,576,5760
1644172254.777008,-0.010498,0.010437,-0.994568,0.373527,0.417099,-0.039389,40,287,577,5664
1644172254.872999,-0.010376,0.009277,-0.988892,0.297191,0.279695,0.021679,39,281,573,5696
1644172254.92134,-0.011475,0.009033,-0.99176,0.251389,0.478168,-0.085191,52,265,572,5696
1644172254.969753,-0.010681,0.012024,-0.9953,0.190321,0.417099,-0.14626,60,274,585,5696
1644172255.018113,-0.008301,0.00824,-0.994751,0.220855,0.294962,-0.100458,58,279,576,5664
1644172255.06661,-0.010376,0.012146,-0.992737,0.236122,0.478168,-0.115725,42,275,579,5712
1644172255.114915,-0.008423,0.007324,-0.992737,0.236122,0.432366,-0.085191,49,287,565,5696
1644172255.163283,-0.011414,0.008484,-0.98938,0.113985,0.508702,-0.008855,53,266,580,5664
1644172255.211673,-0.010193,0.008667,-0.993652,0.175053,0.478168,0.052214,53,269,578,5776
1644172255.26006,-0.009521,0.007446,-0.992676,0.129252,0.432366,-0.283664,52,270,579,5712
1644172255.308424,-0.009399,0.008972,-0.993591,0.129252,0.462901,-0.100458,41,279,576,5696
1644172255.35685,-0.00824,0.012024,-0.99054,0.159786,0.417099,-0.100458,48,279,578,5664
1644172255.405287,-0.010254,0.010315,-0.99176,0.281924,0.386565,-0.085191,48,276,585,5696
1644172255.453648,-0.008362,0.008972,-0.993042,0.266656,0.279695,-0.039389,47,280,584,5696
1644172255.502027,-0.013428,0.009705,-0.991638,0.342992,0.310229,0.021679,58,271,576,5696
1644172255.550404,-0.01062,0.006836,-0.993713,0.388794,0.432366,-0.100458,41,269,576,5712
1644172255.598779,-0.009033,0.007812,-0.992798,0.266656,0.386565,-0.008855,53,271,590,5696
1644172255.647149,-0.009399,0.009827,-0.992859,0.08345,0.325496,-0.069924,46,283,578,5696
1644172255.695573,-0.010864,0.007812,-0.99469,0.129252,0.371298,-0.100458,47,285,575,5760
1644172255.743964,-0.010498,0.01001,-0.992126,0.220855,0.401832,-0.207328,51,276,576,5664
1644172255.792525,-0.010803,0.007263,-0.992065,0.205588,0.478168,-0.054656,47,277,586,5712
1644172255.842737,-0.012451,0.007385,-0.989197,0.175053,0.371298,-0.008855,54,275,582,5760
1644172255.894236,-0.013306,0.009277,-0.991699,0.129252,0.432366,-0.085191,45,275,584,5696
1644172255.938853,-0.009277,0.008057,-0.992493,0.312458,0.310229,-0.36,48,264,566,5696
1644172256.034341,-0.01123,0.008362,-0.990906,0.220855,0.310229,-0.024122,57,285,582,5696
1644172256.082797,-0.01001,0.008545,-0.993286,0.236122,0.447634,-0.024122,47,270,572,5664
1644172256.131134,-0.008057,0.010498,-0.992126,0.113985,0.417099,-0.115725,53,276,583,5712
1644172256.179472,-0.010132,0.007263,-0.994446,0.266656,0.478168,-0.115725,43,283,573,5696
1644172256.227865,-0.013062,0.00824,-0.993469,0.266656,0.340763,-0.268397,58,274,576,5696
1644172256.276232,-0.008301,0.008362,-0.991577,0.251389,0.24916,-0.100458,52,270,572,5728
1644172256.324669,-0.011108,0.011536,-0.990723,0.236122,0.417099,-0.161527,40,275,565,5664
1644172256.373068,-0.011597,0.00769,-0.99231,0.312458,0.462901,-0.024122,53,274,578,5696
1644172256.421436,-0.010864,0.007202,-0.994629,0.236122,0.310229,0.006412,42,277,577,5712
1644172256.469827,-0.010193,0.008545,-0.993347,0.205588,0.371298,-0.161527,46,269,578,5696
1644172256.518218,-0.01239,0.009827,-0.993896,0.236122,0.386565,-0.176794,52,285,579,5728
1644172256.5666,-0.011597,0.010376,-0.993591,0.220855,0.493435,-0.207328,62,283,583,5712
1644172256.61512,-0.009888,0.008972,-0.993591,0.144519,0.493435,-0.115725,55,274,564,5696
1644172256.663404,-0.013672,0.004517,-0.991516,0.266656,0.340763,-0.14626,47,268,582,5776
1644172256.711781,-0.010132,0.008911,-0.992371,0.144519,0.401832,-0.008855,52,268,579,5776
1644172256.760155,-0.012085,0.006958,-0.993835,0.297191,0.356031,-0.130992,51,271,576,5664
1644172256.80856,-0.008423,0.008789,-0.991028,0.175053,0.356031,-0.039389,36,274,571,5712
1644172256.856993,-0.00946,0.007568,-0.99353,0.35826,0.432366,-0.069924,55,271,573,5728
1644172256.905556,-0.011841,0.00946,-0.994019,0.388794,0.493435,-0.069924,60,276,576,5776
1644172256.956073,-0.01178,0.011536,-0.992249,0.236122,0.432366,-0.024122,53,266,573,5696
1644172257.060032,-0.012207,0.006836,-0.990723,0.08345,0.310229,-0.14626,48,276,578,5664
1644172257.100783,-0.010193,0.009827,-0.991638,0.068183,0.233893,-0.085191,59,273,584,5712
1644172257.147324,-0.016968,0.004456,-0.992432,0.098718,0.478168,-0.207328,41,279,573,5760
1644172257.195695,-0.01001,0.008789,-0.991699,0.312458,0.462901,-0.054656,57,275,584,5664
1644172257.244088,-0.009888,0.007935,-0.990173,0.373527,0.371298,-0.115725,53,269,576,5760
1644172257.292501,-0.009094,0.008972,-0.992432,0.373527,0.478168,-0.161527,48,274,583,5712
1644172257.340862,-0.009888,0.007935,-0.992981,0.327725,0.371298,-0.085191,47,280,584,5712
1644172257.38927,-0.008789,0.008301,-0.991455,0.220855,0.310229,-0.085191,47,275,579,5712
1644172257.437638,-0.012451,0.007019,-0.994019,0.297191,0.386565,-0.100458,62,271,583,5712
1644172257.486032,-0.010315,0.00885,-0.991699,0.297191,0.539237,-0.054656,53,279,578,5728
1644172257.534401,-0.008972,0.009644,-0.992493,0.251389,0.401832,-0.069924,53,269,590,5712
1644172257.582826,-0.010193,0.009766,-0.994263,0.220855,0.325496,0.021679,45,273,572,5664
1644172257.631192,-0.008423,0.010742,-0.993591,0.342992,0.447634,-0.237863,59,275,582,5696
1644172257.679914,-0.009094,0.007812,-0.991333,0.144519,0.417099,-0.14626,47,275,577,5664
1644172257.728777,-0.009705,0.008057,-0.991516,0.098718,0.432366,0.036947,47,280,582,5760
1644172257.779413,-0.01062,0.007202,-0.992493,0.08345,0.371298,-0.069924,51,281,580,5648
1644172257.829487,-0.01239,0.009888,-0.994446,0.190321,0.340763,0.021679,43,274,585,5696
1644172257.921591,-0.010864,0.00946,-0.993225,0.220855,0.478168,-0.176794,46,274,580,5696
1644172257.969977,-0.012695,0.010193,-0.995056,0.068183,0.462901,0.021679,48,281,576,5776
1644172258.018365,-0.010742,0.010742,-0.993713,0.342992,0.432366,-0.008855,55,274,578,5696
1644172258.067165,-0.009155,0.007629,-0.990417,0.175053,0.447634,-0.14626,48,276,576,5664
1644172258.115163,-0.011353,0.007812,-0.992798,0.205588,0.386565,-0.100458,43,276,583,5696
1644172258.163513,-0.009827,0.012085,-0.991089,0.236122,0.24916,0.006412,46,274,576,5696
1644172258.211899,-0.012329,0.006409,-0.990479,0.35826,0.539237,-0.130992,46,271,573,5696
1644172258.260288,-0.012634,0.00769,-0.99231,0.373527,0.371298,-0.14626,49,265,577,5696
1644172258.308658,-0.011658,0.007629,-0.992859,0.175053,0.386565,-0.115725,53,274,576,5760
1644172258.357064,-0.013306,0.009766,-0.992554,0.159786,0.294962,-0.115725,51,271,569,5696
1644172258.405468,-0.006958,0.008179,-0.988403,0.297191,0.478168,-0.024122,42,277,572,5728
1644172258.453867,-0.009338,0.007263,-0.990234,0.327725,0.401832,-0.085191,53,274,583,5808
1644172258.50228,-0.009216,0.010803,-0.990173,0.129252,0.478168,-0.008855,55,274,571,5712
1644172258.550624,-0.012268,0.008972,-0.994202,0.342992,0.462901,-0.008855,55,271,578,5712
1644172258.599023,-0.012329,0.008484,-0.991455,0.342992,0.508702,-0.008855,49,273,577,5712
1644172258.647402,-0.010193,0.008606,-0.993835,0.388794,0.340763,0.006412,52,270,579,5712
1644172258.695802,-0.010193,0.010315,-0.993042,0.190321,0.340763,-0.207328,54,273,582,5776
1644172258.744199,-0.01062,0.008972,-0.992493,0.220855,0.371298,-0.176794,55,274,580,5776
1644172258.792851,-0.009033,0.006836,-0.992065,0.220855,0.340763,-0.130992,54,265,582,5696
1644172258.842916,-0.012695,0.005798,-0.994507,0.342992,0.371298,-0.069924,43,271,571,5728
1644172258.893519,-0.008789,0.009033,-0.994568,0.297191,0.24916,-0.192061,55,271,576,5728
1644172258.93782,-0.009705,0.01001,-0.993958,0.35826,0.386565,-0.024122,46,276,573,5712
1644172259.034877,-0.01178,0.007935,-0.992737,0.220855,0.356031,-0.054656,54,277,577,5728
1644172259.083062,-0.010681,0.00592,-0.992737,0.190321,0.493435,-0.100458,46,271,580,5712
1644172259.131312,-0.01123,0.00708,-0.992249,0.281924,0.432366,-0.14626,43,269,573,5696
1644172259.179691,-0.011902,0.007996,-0.99176,0.327725,0.523969,-0.024122,49,273,572,5728
1644172259.228096,-0.009766,0.005005,-0.987671,0.327725,0.508702,-0.054656,53,271,578,5664
1644172259.276477,-0.010925,0.007751,-0.993164,0.220855,0.523969,0.021679,59,268,582,5760
1644172259.324883,-0.010315,0.006897,-0.99408,0.342992,0.432366,-0.085191,46,274,583,5728
1644172259.373276,-0.013062,0.00708,-0.99176,0.236122,0.401832,-0.039389,38,273,584,5696
1644172259.421645,-0.007141,0.007141,-0.993347,0.236122,0.401832,-0.115725,40,270,572,5648
1644172259.470055,-0.010376,0.008789,-0.992981,0.35826,0.386565,-0.008855,46,271,571,5664
1644172259.51844,-0.010864,0.00946,-0.992676,0.175053,0.340763,-0.024122,53,276,578,5696
1644172259.566826,-0.010803,0.008728,-0.99231,0.266656,0.478168,-0.161527,54,273,575,5664
1644172259.615308,-0.010071,0.01178,-0.994324,0.159786,0.462901,-0.14626,51,266,573,5712
1644172259.663627,-0.011536,0.010925,-0.993774,0.327725,0.340763,-0.115725,45,280,572,5696
1644172259.712017,-0.008484,0.008606,-0.993896,0.297191,0.417099,-0.14626,45,275,586,5760
1644172259.760372,-0.010193,0.008789,-0.992249,0.190321,0.417099,-0.039389,53,279,576,5808
1644172259.808835,-0.009705,0.00885,-0.994507,0.312458,0.493435,-0.25313,58,291,578,5664
1644172259.857559,-0.011658,0.009155,-0.993652,0.312458,0.371298,-0.085191,43,271,583,5696
1644172259.905656,-0.008545,0.008118,-0.989014,0.175053,0.493435,-0.054656,48,276,583,5648
1644172259.955648,-0.011475,0.009521,-0.993652,0.236122,0.478168,-0.222595,52,275,579,5648
1644172260.005835,-0.013,0.009949,-0.987854,0.35826,0.462901,0.006412,46,271,585,5728
1644172260.102267,-0.013245,0.009949,-0.992737,0.205588,0.493435,-0.130992,58,271,583,5664
1644172260.147521,-0.00885,0.008362,-0.992249,0.190321,0.386565,0.006412,48,259,578,5712
1644172260.195918,-0.012024,0.008606,-0.991943,0.129252,0.371298,-0.085191,42,287,575,5760
1644172260.244303,-0.011047,0.010376,-0.996521,0.08345,0.371298,0.006412,43,271,573,5664
1644172260.292716,-0.009583,0.008972,-0.992249,0.312458,0.356031,-0.130992,55,271,571,5696
1644172260.341085,-0.009583,0.009888,-0.994629,0.342992,0.523969,-0.085191,48,274,580,5712
1644172260.389475,-0.013,0.005432,-0.990173,0.342992,0.417099,0.021679,49,280,577,5760
1644172260.437872,-0.011475,0.00708,-0.993896,0.220855,0.478168,-0.024122,41,271,580,5712
1644172260.486248,-0.009888,0.009583,-0.994263,0.144519,0.447634,-0.085191,49,277,584,5712
1644172260.534647,-0.010071,0.007141,-0.993103,0.327725,0.401832,-0.100458,40,275,586,5664
1644172260.583079,-0.012085,0.007568,-0.992798,0.251389,0.340763,-0.008855,55,279,578,5664
1644172260.632991,-0.007568,0.010193,-0.991699,0.266656,0.493435,-0.14626,38,275,575,5712
1644172260.6833,-0.012207,0.010254,-0.992859,0.205588,0.523969,-0.054656,57,275,575,5696
1644172260.733519,-0.01001,0.009399,-0.993896,0.404061,0.432366,-0.237863,55,269,590,5664
1644172260.825332,-0.010864,0.008301,-0.991577,0.35826,0.432366,-0.161527,41,274,576,5664
1644172260.873436,-0.014282,0.005371,-0.995117,0.175053,0.447634,-0.024122,54,275,582,5760
1644172260.921779,-0.010071,0.009033,-0.993408,0.144519,0.325496,-0.161527,48,281,578,5696
1644172260.970236,-0.011963,0.009155,-0.990051,0.037649,0.508702,-0.192061,52,280,579,5648
1644172261.018555,-0.012146,0.007263,-0.991577,0.281924,0.294962,-0.008855,61,273,582,5696
1644172261.067246,-0.010498,0.00824,-0.993225,0.327725,0.432366,-0.039389,53,274,583,5696
1644172261.115422,-0.012634,0.006958,-0.99054,0.236122,0.310229,0.036947,49,273,572,5728
1644172261.163737,-0.010681,0.008789,-0.992188,0.297191,0.508702,-0.115725,61,273,579,5760
1644172261.212164,-0.013123,0.005798,-0.992554,0.266656,0.493435,0.006412,47,273,572,5696
1644172261.260512,-0.008972,0.01001,-0.992371,0.327725,0.325496,-0.008855,41,281,571,5728
1644172261.308872,-0.012146,0.010437,-0.991333,0.098718,0.340763,0.036947,53,271,573,5648
1644172261.357285,-0.01178,0.008667,-0.990601,0.159786,0.340763,-0.008855,48,271,578,5712
1644172261.405692,-0.011963,0.011597,-0.992493,0.312458,0.447634,0.036947,45,275,572,5696
1644172261.454078,-0.007202,0.007141,-0.990173,0.480397,0.447634,-0.085191,48,276,587,5760
1644172261.502471,-0.007996,0.007385,-0.992188,0.022382,0.432366,0.006412,55,276,571,5712
1644172261.550828,-0.010498,0.01062,-0.992493,0.205588,0.493435,-0.115725,45,280,593,5696
1644172261.599214,-0.010376,0.010071,-0.99054,0.297191,0.356031,-0.115725,49,277,577,5712
1644172261.647632,-0.007751,0.010986,-0.991455,0.251389,0.478168,-0.054656,51,271,578,5664
1644172261.696033,-0.009888,0.006653,-0.996216,0.327725,0.478168,-0.222595,57,273,584,5696
1644172261.74481,-0.011841,0.007202,-0.991943,0.373527,0.401832,-0.130992,47,270,577,5696
1644172261.795077,-0.01001,0.009583,-0.992126,0.113985,0.294962,-0.176794,49,277,575,5728
1644172261.846258,-0.009521,0.006042,-0.994324,0.297191,0.432366,0.036947,55,262,573,5664
1644172261.890785,-0.009155,0.008179,-0.991028,0.220855,0.401832,-0.100458,51,264,578,5760
1644172261.986392,-0.012878,0.010742,-0.991028,0.175053,0.417099,-0.268397,57,280,572,5712
1644172262.034954,-0.012939,0.008606,-0.989746,0.266656,0.432366,-0.14626,47,275,572,5776
1644172262.083283,-0.010498,0.005676,-0.992371,0.266656,0.371298,-0.130992,43,279,583,5712
1644172262.131595,-0.00946,0.008179,-0.994934,0.190321,0.371298,-0.192061,51,288,571,5648
1644172262.179925,-0.011108,0.008057,-0.994141,0.08345,0.356031,-0.024122,49,285,570,5776
1644172262.228326,-0.011658,0.007507,-0.992798,0.251389,0.340763,0.036947,49,268,582,5760
1644172262.276705,-0.013184,0.011353,-0.991577,0.098718,0.325496,-0.161527,47,277,584,5664
1644172262.325141,-0.010437,0.00592,-0.993591,0.312458,0.432366,-0.069924,52,277,579,5648
1644172262.373501,-0.01062,0.011536,-0.991882,0.190321,0.447634,-0.054656,54,282,579,5648
1644172262.421886,-0.010071,0.008606,-0.992188,0.144519,0.310229,-0.14626,54,275,579,5696
1644172262.470263,-0.009949,0.008728,-0.993103,0.251389,0.432366,-0.222595,52,273,570,5712
1644172262.518668,-0.009583,0.009094,-0.994202,0.404061,0.401832,-0.100458,42,273,579,5696
1644172262.567035,-0.008484,0.011353,-0.992493,0.159786,0.294962,-0.130992,52,265,565,5696
1644172262.615447,-0.010925,0.008545,-0.993103,0.281924,0.218626,-0.192061,48,283,573,5664
1644172262.663844,-0.009705,0.009644,-0.992676,0.266656,0.462901,-0.115725,51,281,580,5712
1644172262.712347,-0.014648,0.012512,-0.992249,0.587267,0.325496,-0.024122,43,271,583,5664
1644172262.76063,-0.009827,0.00885,-0.994019,0.251389,0.310229,-0.115725,51,281,580,5664
1644172262.80901,-0.009583,0.009216,-0.992249,0.342992,0.325496,-0.069924,47,275,579,5696
1644172262.85746,-0.01123,0.00708,-0.988342,0.175053,0.356031,-0.161527,57,268,584,5648
1644172262.907045,-0.008972,0.006653,-0.991089,0.434595,0.386565,-0.14626,59,273,572,5696
1644172262.957166,-0.013062,0.009766,-0.99176,0.297191,0.523969,-0.039389,42,280,575,5696
1644172263.064607,-0.012695,0.009949,-0.992432,0.327725,0.310229,-0.085191,47,268,579,5664
1644172263.100416,-0.012207,0.010498,-0.991577,0.175053,0.432366,-0.054656,55,286,576,5728
1644172263.14777,-0.008118,0.011658,-0.990234,0.342992,0.447634,-0.115725,42,275,575,5664
1644172263.19612,-0.012512,0.007568,-0.991333,0.342992,0.417099,-0.039389,58,283,573,5712
1644172263.244539,-0.010437,0.008606,-0.99353,0.312458,0.462901,-0.222595,47,273,577,5696
1644172263.292939,-0.009888,0.009827,-0.993286,0.251389,0.417099,-0.024122,46,281,576,5712
1644172263.341313,-0.00769,0.008423,-0.990723,0.159786,0.523969,0.082748,53,283,573,5776
1644172263.389693,-0.012878,0.007812,-0.991943,0.144519,0.493435,-0.161527,62,276,573,5728
1644172263.438092,-0.007385,0.007812,-0.993774,0.052916,0.417099,0.006412,53,269,576,5648
1644172263.486485,-0.011719,0.00824,-0.993774,0.144519,0.417099,-0.192061,54,280,586,5776
1644172263.53488,-0.009766,0.008606,-0.991882,0.266656,0.294962,-0.085191,52,270,570,5696
1644172263.583237,-0.009705,0.009155,-0.993408,0.236122,0.508702,0.036947,55,283,583,5696
1644172263.631743,-0.011169,0.007996,-0.992981,0.175053,0.432366,-0.069924,39,279,590,5648
1644172263.681888,-0.009949,0.008057,-0.992981,0.312458,0.386565,-0.115725,57,275,591,5712
1644172263.732265,-0.009705,0.009705,-0.990356,0.098718,0.493435,-0.054656,62,269,578,5696
1644172263.77733,-0.010559,0.011047,-0.992126,0.388794,0.310229,-0.039389,48,264,580,5760
1644172263.873628,-0.010559,0.007751,-0.991394,0.266656,0.462901,-0.069924,46,281,583,5728
1644172263.922023,-0.007812,0.008972,-0.99408,0.281924,0.523969,-0.054656,48,266,578,5728
1644172263.970389,-0.011597,0.00946,-0.989136,0.175053,0.508702,-0.161527,43,266,580,5696
1644172264.018814,-0.013,0.007568,-0.993408,0.327725,0.478168,-0.222595,53,264,587,5664
1644172264.068275,-0.012024,0.009888,-0.99176,0.129252,0.539237,-0.207328,54,277,582,5696
1644172264.115547,-0.009338,0.012024,-0.992554,0.327725,0.340763,-0.008855,53,271,580,5712
1644172264.163981,-0.006714,0.009277,-0.992249,0.236122,0.401832,-0.085191,58,281,578,5696
1644172264.212357,-0.012146,0.007874,-0.992737,0.220855,0.462901,-0.085191,47,273,582,5760
1644172264.260729,-0.008667,0.011414,-0.988647,0.236122,0.310229,-0.069924,47,260,570,5600
1644172264.309109,-0.01123,0.012085,-0.993103,0.205588,0.325496,-0.008855,47,268,575,5648
1644172264.357509,-0.009155,0.008911,-0.990479,0.251389,0.478168,-0.176794,46,276,580,5712
1644172264.405905,-0.01062,0.00708,-0.989624,0.190321,0.371298,-0.085191,45,280,572,5728
1644172264.454289,-0.009888,0.009888,-0.993774,0.190321,0.401832,-0.161527,49,285,582,5712
1644172264.502709,-0.010315,0.011414,-0.993591,0.129252,0.371298,-0.069924,46,283,576,5760
1644172264.551128,-0.009338,0.011108,-0.992493,0.266656,0.432366,-0.039389,53,276,587,5760
1644172264.599461,-0.007202,0.011902,-0.992493,0.297191,0.447634,-0.14626,48,274,578,5664
1644172264.647865,-0.008606,0.009338,-0.992371,0.098718,0.554504,-0.024122,41,281,569,5696
1644172264.696225,-0.008179,0.007812,-0.990356,0.129252,0.462901,-0.130992,55,274,590,5696
1644172264.744638,-0.008545,0.00824,-0.992676,0.35826,0.386565,-0.268397,54,273,575,5712
1644172264.79341,-0.011108,0.011353,-0.99353,0.312458,0.417099,-0.069924,64,282,586,5696
1644172264.843637,-0.011353,0.009155,-0.990845,0.342992,0.371298,-0.130992,45,265,586,5664
1644172264.894916,-0.010437,0.009094,-0.993103,0.037649,0.417099,-0.130992,57,275,575,5648
1644172264.939716,-0.012817,0.009644,-0.994507,0.434595,0.325496,-0.008855,40,273,579,5696
1644172265.035292,-0.012085,0.007874,-0.992981,0.205588,0.508702,-0.130992,42,270,577,5664
1644172265.083433,-0.011719,0.00708,-0.99408,0.129252,0.523969,-0.069924,42,287,591,5664
1644172265.131763,-0.012634,0.009033,-0.995361,0.159786,0.386565,-0.069924,51,269,576,5696
1644172265.180145,-0.011841,0.009888,-0.993286,0.159786,0.310229,-0.054656,48,271,585,5664
1644172265.22854,-0.011047,0.007935,-0.992981,0.342992,0.493435,-0.039389,54,277,565,5728
1644172265.276921,-0.011841,0.007141,-0.991638,0.281924,0.417099,-0.25313,46,279,573,5648
1644172265.32531,-0.011047,0.010986,-0.990967,0.098718,0.310229,-0.054656,47,273,577,5760
1644172265.373716,-0.009949,0.009644,-0.991699,0.281924,0.356031,-0.14626,55,276,578,5712
1644172265.422216,-0.011292,0.009583,-0.994507,0.052916,0.432366,-0.161527,38,273,589,5696
1644172265.470496,-0.008911,0.010193,-0.994995,0.388794,0.340763,-0.115725,54,270,577,5712
1644172265.51889,-0.01062,0.008911,-0.990295,0.159786,0.24916,-0.039389,43,281,578,5712
1644172265.567287,-0.008728,0.008545,-0.992981,0.113985,0.401832,-0.14626,49,282,575,5728
1644172265.61565,-0.012268,0.010315,-0.990784,0.190321,0.462901,-0.115725,49,270,579,5728
1644172265.664068,-0.010742,0.009521,-0.989868,0.312458,0.417099,-0.069924,43,274,578,5696
1644172265.712444,-0.008362,0.011292,-0.995667,0.327725,0.340763,-0.024122,51,271,590,5664
1644172265.760851,-0.00946,0.007935,-0.994934,0.098718,0.554504,0.021679,53,271,583,5712
1644172265.809321,-0.009521,0.009277,-0.992371,0.297191,0.386565,-0.008855,54,268,584,5664
1644172265.85777,-0.010437,0.00824,-0.990234,0.190321,0.371298,-0.176794,59,258,584,5696
1644172265.90764,-0.011658,0.007446,-0.994629,0.205588,0.371298,-0.008855,57,270,579,5712
1644172265.957875,-0.011536,0.008728,-0.993286,0.251389,0.447634,-0.14626,61,273,572,5664
1644172266.008328,-0.010925,0.010315,-0.991455,0.113985,0.417099,-0.054656,54,285,572,5712
1644172266.101832,-0.010193,0.00885,-0.992981,0.236122,0.508702,-0.008855,55,271,583,5760
1644172266.14798,-0.013245,0.007629,-0.991089,0.159786,0.340763,-0.14626,49,275,579,5760
1644172266.196365,-0.012329,0.008667,-0.989807,0.297191,0.401832,-0.222595,52,277,582,5664
1644172266.244795,-0.009766,0.010376,-0.994812,0.159786,0.478168,-0.268397,48,262,573,5664
1644172266.293153,-0.012024,0.008484,-0.990784,0.159786,0.447634,-0.130992,55,269,573,5696
1644172266.341567,-0.011292,0.01123,-0.992798,0.297191,0.401832,-0.008855,54,268,572,5760
1644172266.389958,-0.010315,0.0047,-0.99176,0.159786,0.432366,-0.115725,45,273,582,5728
1644172266.438359,-0.010498,0.009766,-0.994995,0.281924,0.356031,0.006412,46,266,571,5760
1644172266.48674,-0.010559,0.007019,-0.992676,0.388794,0.264427,-0.069924,49,270,582,5664
1644172266.535261,-0.009277,0.009338,-0.991211,0.175053,0.356031,-0.085191,45,282,577,5712
1644172266.58353,-0.012268,0.007751,-0.992004,0.297191,0.356031,-0.14626,51,266,578,5712
1644172266.631913,-0.011414,0.010742,-0.993042,0.08345,0.371298,-0.237863,46,266,576,5712
1644172266.680312,-0.01123,0.006958,-0.991943,0.007115,0.493435,-0.207328,55,271,587,5712
1644172266.728678,-0.010864,0.009338,-0.992615,0.281924,0.340763,-0.085191,54,277,575,5696
1644172266.777157,-0.01239,0.009155,-0.992981,0.35826,0.493435,-0.130992,45,273,589,5696
1644172266.825498,-0.013,0.010315,-0.992188,0.373527,0.371298,-0.192061,54,277,570,5728
1644172266.874987,-0.010803,0.009521,-0.990662,0.220855,0.447634,-0.25313,49,282,575,5712
1644172266.924793,-0.008179,0.008972,-0.99408,0.266656,0.447634,-0.085191,51,274,580,5760
1644172266.975244,-0.009827,0.011047,-0.992371,0.220855,0.508702,-0.207328,52,280,582,5664
1644172267.019879,-0.011475,0.007812,-0.991882,0.312458,0.508702,-0.222595,53,271,566,5648
1644172267.115808,-0.00824,0.008118,-0.990723,0.220855,0.401832,-0.054656,51,271,569,5648
1644172267.164168,-0.008728,0.00708,-0.992126,0.159786,0.478168,-0.14626,47,280,586,5712
1644172267.212574,-0.009155,0.00885,-0.994934,0.251389,0.310229,-0.054656,43,281,576,5648
1644172267.260941,-0.010681,0.009155,-0.992371,0.236122,0.493435,-0.100458,47,265,584,5696
1644172267.309321,-0.010864,0.012268,-0.993958,0.342992,0.294962,-0.14626,47,277,572,5712
1644172267.357733,-0.008972,0.007874,-0.994019,0.297191,0.508702,-0.237863,58,266,587,5664
