epoch,acc_x,acc_y,acc_z,rot_x,rot_y,rot_z,mag_x,mag_y,mag_z,temp
1644190800.028584,-0.008362,0.009827,-0.991272,0.297191,0.478168,-0.207328,45,275,589,6192
1644190800.080247,-0.010315,0.011108,-0.991211,0.251389,0.539237,-0.14626,38,277,589,6176
1644190800.125313,-0.00647,0.009338,-0.993591,0.251389,0.432366,-0.268397,57,280,575,6256
1644190800.173728,-0.009338,0.010193,-0.994995,0.342992,0.371298,-0.024122,39,281,583,6256
1644190800.222089,-0.008179,0.010132,-0.991516,0.251389,0.279695,0.021679,54,270,579,6240
1644190800.270504,-0.008667,0.012207,-0.99054,0.220855,0.417099,-0.130992,47,273,577,6256
1644190800.318866,-0.010437,0.009094,-0.993896,0.175053,0.523969,-0.176794,55,286,585,6256
1644190800.367279,-0.010132,0.008606,-0.991638,0.251389,0.340763,0.036947,47,275,579,6240
1644190800.415689,-0.006592,0.009583,-0.993652,0.236122,0.462901,-0.176794,52,265,591,6224
1644190800.464076,-0.007568,0.01001,-0.989807,0.281924,0.447634,0.052214,46,274,597,6224
1644190800.512485,-0.008728,0.008118,-0.991821,0.159786,0.279695,-0.024122,55,281,587,6224
1644190800.561571,-0.009888,0.008606,-0.990479,0.220855,0.371298,-0.192061,49,275,579,6224
1644190800.609268,-0.010254,0.00885,-0.994019,0.312458,0.356031,-0.115725,49,275,589,6192
1644190800.65844,-0.008362,0.008362,-0.990051,0.175053,0.554504,-0.039389,45,270,568,6224
1644190800.708976,-0.006042,0.006653,-0.993774,0.159786,0.432366,-0.100458,43,271,585,6240
1644190800.759122,-0.007385,0.009766,-0.991577,0.220855,0.493435,0.006412,48,274,585,6192
1644190800.804085,-0.010376,0.010681,-0.992371,0.113985,0.417099,-0.039389,53,283,592,6224
1644190800.899651,-0.00824,0.008545,-0.994385,0.175053,0.340763,-0.115725,49,268,575,6224
1644190800.948053,-0.007629,0.012573,-0.992249,0.175053,0.233893,0.067481,45,270,579,6224
1644190800.996431,-0.011719,0.01062,-0.992981,0.144519,0.478168,-0.085191,55,281,576,6224
1644190801.057763,-0.00769,0.007935,-0.991699,0.297191,0.386565,-0.054656,48,269,583,6112
1644190801.094331,-0.007568,0.01123,-0.990906,0.236122,0.417099,-0.069924,51,281,587,6224
1644190801.141625,-0.009033,0.006592,-0.989563,0.190321,0.462901,-0.085191,51,281,576,6192
1644190801.189979,-0.010498,0.011414,-0.989624,0.175053,0.447634,-0.085191,45,287,584,6240
1644190801.238357,-0.008606,0.009644,-0.989197,0.434595,0.417099,-0.115725,48,288,576,6224
1644190801.28676,-0.007935,0.010315,-0.991577,0.175053,0.508702,-0.176794,51,276,578,6240
1644190801.335239,-0.006775,0.011719,-0.990479,0.281924,0.432366,-0.130992,46,283,583,6176
1644190801.38355,-0.008728,0.008667,-0.990845,0.190321,0.432366,0.052214,43,279,594,6240
1644190801.431937,-0.009583,0.010742,-0.993591,0.281924,0.371298,-0.207328,49,277,589,6256
1644190801.480323,-0.008606,0.008789,-0.992126,0.175053,0.356031,-0.14626,57,277,598,6224
1644190801.528695,-0.009644,0.008545,-0.993042,0.35826,0.417099,-0.069924,43,274,585,6192
1644190801.577109,-0.010498,0.008118,-0.993164,-0.069221,0.386565,-0.069924,45,277,586,6224
1644190801.625854,-0.007446,0.010559,-0.991455,0.098718,0.508702,-0.024122,52,270,584,6224
1644190801.67499,-0.007568,0.011475,-0.990417,0.190321,0.279695,-0.024122,47,282,577,6256
1644190801.725333,-0.009216,0.01178,-0.989929,0.327725,0.462901,-0.161527,42,285,596,6192
1644190801.77551,-0.007568,0.012268,-0.993103,0.205588,0.294962,-0.237863,46,271,585,6176
1644190801.867488,-0.009216,0.010315,-0.992737,0.159786,0.417099,0.036947,52,273,579,6224
1644190801.915888,-0.008972,0.008911,-0.992493,0.251389,0.523969,-0.054656,55,276,580,6176
1644190801.964314,-0.01001,0.006836,-0.994812,0.113985,0.493435,-0.024122,54,285,582,6240
1644190802.012682,-0.008057,0.00946,-0.992554,0.175053,0.585038,-0.222595,53,279,583,6224
1644190802.065914,-0.010498,0.009155,-0.990356,0.297191,0.478168,0.052214,55,274,594,6176
1644190802.109444,-0.007935,0.009827,-0.988831,0.236122,0.432366,-0.100458,59,275,593,6240
1644190802.157871,-0.00824,0.010132,-0.990723,0.068183,0.340763,-0.069924,48,283,592,6224
1644190802.206264,-0.011169,0.010132,-0.990356,0.175053,0.325496,-0.054656,45,273,589,6224
1644190802.254757,-0.010193,0.010498,-0.993591,0.236122,0.539237,-0.161527,48,274,583,6176
1644190802.303051,-0.009521,0.007141,-0.993896,0.312458,0.462901,-0.130992,48,269,587,6224
1644190802.351451,-0.008606,0.008179,-0.990601,0.08345,0.233893,-0.008855,49,275,579,6240
1644190802.399797,-0.008179,0.011597,-0.992615,-0.053954,0.401832,-0.222595,53,281,587,6224
1644190802.448232,-0.008545,0.010315,-0.99054,0.175053,0.371298,-0.130992,46,286,576,6288
1644190802.496582,-0.006836,0.00885,-0.990479,0.113985,0.233893,-0.100458,45,277,589,6192
1644190802.545065,-0.009583,0.009766,-0.990662,0.129252,0.386565,-0.115725,53,279,590,6224
1644190802.593406,-0.00946,0.010193,-0.992798,0.327725,0.447634,-0.176794,43,274,580,6256
1644190802.642002,-0.009216,0.010376,-0.992981,0.159786,0.447634,-0.024122,52,268,582,6240
1644190802.690205,-0.010742,0.009155,-0.993713,0.129252,0.325496,-0.085191,48,274,585,6192
1644190802.740449,-0.008179,0.008911,-0.992493,0.007115,0.340763,-0.14626,46,271,590,6224
1644190802.790056,-0.00647,0.009277,-0.993591,0.175053,0.310229,-0.024122,55,276,573,6176
1644190802.840369,-0.010803,0.007751,-0.992554,0.327725,0.417099,-0.085191,48,271,580,6256
1644190802.885233,-0.008118,0.01001,-0.991272,0.251389,0.340763,0.082748,53,281,587,6224
1644190802.980558,-0.008118,0.008545,-0.99176,0.205588,0.478168,-0.024122,59,273,584,6192
1644190803.02894,-0.008728,0.010864,-0.98999,0.159786,0.371298,-0.008855,54,275,600,6224
1644190803.077967,-0.006653,0.011292,-0.994141,0.098718,0.356031,-0.115725,43,279,585,6224
1644190803.125679,-0.009216,0.010193,-0.99176,0.175053,0.325496,-0.039389,52,277,577,6256
1644190803.174091,-0.008057,0.008911,-0.99231,0.175053,0.371298,-0.192061,53,279,580,6240
1644190803.222487,-0.006958,0.009399,-0.990784,0.175053,0.340763,-0.115725,52,275,582,6240
1644190803.270863,-0.005188,0.010681,-0.991638,0.251389,0.203359,-0.069924,58,271,585,6192
1644190803.319258,-0.004578,0.011414,-0.989807,0.327725,0.401832,-0.161527,47,277,591,6224
1644190803.367651,-0.007019,0.009094,-0.994385,0.205588,0.401832,-0.039389,40,277,582,6240
1644190803.416055,-0.005981,0.009888,-0.991943,0.175053,0.539237,0.098015,52,280,589,6128
1644190803.464444,-0.0047,0.016052,-0.990967,0.236122,0.447634,-0.207328,49,280,591,6240
1644190803.51285,-0.006958,0.01001,-0.991394,0.297191,0.569771,-0.130992,42,273,586,6240
1644190803.561447,-0.006409,0.009888,-0.992554,0.08345,0.462901,-0.039389,49,275,589,6224
1644190803.61186,-0.010559,0.011841,-0.989197,0.266656,0.523969,-0.192061,49,275,589,6176
1644190803.662191,-0.007507,0.008667,-0.991333,0.113985,0.340763,-0.115725,57,270,584,6224
1644190803.70718,-0.009338,0.011475,-0.990784,0.205588,0.356031,-0.054656,48,274,580,6240
1644190803.803251,-0.008423,0.009277,-0.991272,0.342992,0.432366,-0.024122,57,277,589,6192
1644190803.851613,-0.008057,0.012878,-0.992371,0.266656,0.432366,-0.039389,55,281,580,6192
1644190803.900016,-0.007019,0.007935,-0.991516,0.175053,0.462901,-0.192061,57,275,575,6256
1644190803.948405,-0.009521,0.009766,-0.992554,0.236122,0.356031,0.021679,52,268,584,6288
1644190803.996794,-0.010315,0.009277,-0.991516,0.281924,0.371298,-0.008855,51,276,583,6224
1644190804.056952,-0.010742,0.010315,-0.992004,0.342992,0.447634,-0.054656,47,275,582,6288
1644190804.094905,-0.008423,0.010681,-0.990845,0.205588,0.401832,-0.054656,53,276,590,6256
1644190804.142016,-0.006409,0.010315,-0.992737,0.251389,0.523969,-0.115725,51,281,587,6256
1644190804.190323,-0.006592,0.009521,-0.989197,0.419328,0.569771,-0.115725,59,282,593,6256
1644190804.238722,-0.010193,0.009827,-0.990601,0.297191,0.447634,-0.222595,46,276,585,6192
1644190804.287328,-0.009766,0.010437,-0.992249,0.281924,0.356031,-0.008855,47,285,579,6256
1644190804.335541,-0.008606,0.009521,-0.993408,0.327725,0.310229,-0.130992,55,274,587,6224
1644190804.384297,-0.008606,0.010742,-0.988708,0.312458,0.478168,-0.085191,59,277,589,6224
1644190804.434878,-0.007446,0.010315,-0.98938,0.35826,0.417099,-0.085191,46,271,597,6224
1644190804.485073,-0.010376,0.010315,-0.989441,0.129252,0.462901,0.006412,57,280,579,6224
1644190804.530149,-0.007446,0.010376,-0.991943,0.159786,0.462901,0.006412,51,274,578,6224
1644190804.625859,-0.009583,0.011902,-0.990967,0.052916,0.401832,0.052214,48,279,576,6240
1644190804.67428,-0.011108,0.009277,-0.992493,0.129252,0.478168,-0.207328,47,273,591,6240
1644190804.722643,-0.005432,0.010071,-0.991333,0.190321,0.310229,-0.054656,46,283,580,6192
1644190804.771049,-0.008911,0.011963,-0.990723,0.236122,0.340763,-0.069924,45,263,582,6224
1644190804.819431,-0.009521,0.008728,-0.991882,-0.008153,0.462901,-0.161527,51,274,587,6240
1644190804.867879,-0.00946,0.007141,-0.993042,0.129252,0.493435,0.052214,42,273,582,6176
1644190804.916271,-0.010132,0.010925,-0.991272,0.251389,0.417099,-0.069924,55,271,587,6224
1644190804.964686,-0.010498,0.008301,-0.991699,0.251389,0.264427,-0.039389,53,276,583,6192
1644190805.013047,-0.008728,0.008667,-0.991516,0.251389,0.401832,-0.069924,36,276,583,6160
1644190805.063635,-0.010559,0.010132,-0.991577,0.327725,0.386565,-0.085191,55,274,599,6256
1644190805.109837,-0.010437,0.008484,-0.991272,0.312458,0.356031,0.021679,51,274,592,6192
1644190805.158184,-0.008728,0.008728,-0.992493,0.35826,0.462901,-0.100458,49,270,589,6240
1644190805.206585,-0.010498,0.009216,-0.990417,0.098718,0.371298,-0.054656,54,277,584,6224
1644190805.255037,-0.007568,0.006836,-0.991638,0.327725,0.401832,-0.161527,49,268,577,6288
1644190805.303367,-0.008667,0.009216,-0.991272,0.159786,0.432366,-0.14626,55,271,576,6240
1644190805.351765,-0.005798,0.011719,-0.991638,0.342992,0.386565,-0.039389,51,281,578,6192
1644190805.400152,-0.009033,0.009766,-0.990906,-0.008153,0.310229,0.021679,45,273,589,6240
1644190805.448698,-0.009094,0.009338,-0.991272,0.08345,0.233893,-0.085191,41,281,583,6224
1644190805.4985,-0.008667,0.007629,-0.991577,0.159786,0.432366,-0.192061,43,274,587,6176
1644190805.548559,-0.009216,0.010254,-0.991638,0.129252,0.325496,-0.024122,51,266,583,6128
1644190805.598658,-0.009399,0.008362,-0.98877,0.190321,0.386565,-0.008855,48,281,571,6192
1644190805.690542,-0.007263,0.013245,-0.990662,0.144519,0.325496,-0.192061,45,275,586,6224
1644190805.738881,-0.009094,0.008484,-0.992188,0.266656,0.523969,-0.039389,57,268,579,6224
1644190805.787292,-0.006287,0.009216,-0.993774,0.129252,0.310229,0.159084,51,279,576,6224
1644190805.835696,-0.007812,0.011658,-0.992981,0.159786,0.386565,-0.176794,57,287,584,6192
1644190805.884136,-0.007996,0.008789,-0.99176,0.190321,0.310229,-0.192061,46,276,580,6224
1644190805.932546,-0.008484,0.007507,-0.992615,0.098718,0.340763,-0.024122,39,283,583,6224
1644190805.980923,-0.006775,0.009338,-0.990723,0.205588,0.356031,-0.237863,60,274,583,6192
1644190806.029314,-0.00824,0.007874,-0.993408,0.281924,0.462901,-0.115725,51,276,580,6256
1644190806.088044,-0.007141,0.012573,-0.994629,0.236122,0.478168,-0.085191,58,274,585,6176
1644190806.126096,-0.011047,0.008728,-0.993835,0.236122,0.386565,-0.268397,45,275,586,6240
1644190806.174448,-0.010437,0.008423,-0.992065,0.266656,0.340763,-0.115725,51,269,587,6224
1644190806.223117,-0.008057,0.010437,-0.991089,0.266656,0.386565,-0.115725,49,270,593,6240
1644190806.271873,-0.007019,0.010986,-0.990906,0.159786,0.386565,0.006412,51,269,583,6160
1644190806.322665,-0.007935,0.009705,-0.992249,0.007115,0.386565,-0.085191,45,290,582,6224
1644190806.372562,-0.006714,0.011841,-0.989563,0.297191,0.462901,-0.25313,59,273,589,6256
1644190806.417742,-0.00824,0.008118,-0.992249,0.190321,0.523969,-0.100458,45,282,577,6176
1644190806.513196,-0.008118,0.008728,-0.991516,0.281924,0.279695,-0.237863,35,275,586,6224
1644190806.561559,-0.010803,0.010315,-0.990845,0.236122,0.294962,0.189618,45,268,579,6224
1644190806.609973,-0.008545,0.010132,-0.992004,0.159786,0.447634,-0.039389,48,281,583,6192
1644190806.65837,-0.009033,0.011047,-0.993713,0.190321,0.432366,-0.130992,40,275,589,6256
1644190806.70677,-0.00824,0.00824,-0.991333,0.08345,0.417099,0.067481,51,281,578,6224
1644190806.755196,-0.009827,0.008789,-0.99292,-0.069221,0.356031,-0.024122,43,283,576,6240
1644190806.803555,-0.007751,0.007996,-0.991211,0.144519,0.523969,-0.085191,54,280,586,6240
1644190806.851952,-0.007935,0.011963,-0.991333,0.327725,0.462901,-0.100458,43,264,592,6240
1644190806.900365,-0.007812,0.008545,-0.992249,0.266656,0.417099,0.067481,49,275,584,6224
1644190806.948783,-0.008484,0.009827,-0.992859,0.190321,0.508702,0.098015,46,276,578,6240
1644190806.997143,-0.008728,0.009277,-0.99115,0.236122,0.447634,-0.069924,47,280,586,6224
1644190807.058879,-0.008423,0.009766,-0.990967,0.113985,0.386565,-0.085191,41,264,587,6240
1644190807.097208,-0.008789,0.009949,-0.992371,0.449863,0.401832,-0.069924,49,273,586,6304
1644190807.142368,-0.011841,0.005981,-0.993042,0.35826,0.340763,-0.039389,52,275,591,6192
1644190807.190735,-0.005676,0.01062,-0.990601,0.495664,0.371298,-0.008855,60,274,583,6224
1644190807.239137,-0.011719,0.009766,-0.99292,0.251389,0.279695,-0.161527,54,285,584,6224
1644190807.287537,-0.00708,0.009338,-0.993958,0.175053,0.401832,-0.115725,47,268,593,6240
1644190807.336158,-0.00885,0.011108,-0.992493,0.052916,0.417099,-0.085191,51,281,585,6240
1644190807.384336,-0.007141,0.006897,-0.991882,0.175053,0.294962,-0.069924,45,277,586,6256
1644190807.433999,-0.007935,0.008911,-0.99231,0.068183,0.401832,-0.054656,49,270,589,6224
1644190807.484383,-0.00946,0.009827,-0.991699,0.236122,0.417099,-0.192061,54,280,591,6256
1644190807.534544,-0.008667,0.008423,-0.992249,0.190321,0.493435,-0.085191,53,276,587,6256
1644190807.579137,-0.009399,0.011169,-0.993591,0.236122,0.432366,-0.100458,57,280,577,6288
1644190807.674881,-0.009583,0.007507,-0.991211,0.312458,0.371298,-0.207328,53,281,580,6128
1644190807.723061,-0.008972,0.00885,-0.991821,0.113985,0.264427,-0.008855,49,277,584,6192
1644190807.771443,-0.008728,0.008484,-0.989502,0.175053,0.401832,-0.008855,39,276,583,6192
1644190807.819852,-0.010071,0.011597,-0.99292,0.205588,0.356031,-0.024122,64,270,582,6224
1644190807.868223,-0.009888,0.007568,-0.990112,0.175053,0.386565,-0.25313,52,275,577,6160
1644190807.916625,-0.007324,0.010315,-0.991943,0.281924,0.401832,-0.085191,39,264,573,6176
1644190807.965064,-0.00769,0.011475,-0.991089,0.297191,0.478168,-0.008855,52,280,596,6192
1644190808.013427,-0.007996,0.011047,-0.991882,0.251389,0.386565,-0.069924,57,282,582,6192
1644190808.064807,-0.00824,0.006531,-0.991455,0.220855,0.401832,-0.237863,59,277,596,6224
1644190808.110138,-0.010559,0.009644,-0.993835,0.144519,0.356031,-0.039389,45,280,584,6256
1644190808.158529,-0.01001,0.011475,-0.990479,0.297191,0.432366,-0.100458,46,276,580,6192
1644190808.206956,-0.009583,0.009338,-0.992432,0.281924,0.462901,-0.207328,47,280,586,6288
1644190808.255351,-0.009827,0.008423,-0.992676,0.281924,0.493435,0.052214,54,273,591,6224
1644190808.30375,-0.00824,0.010986,-0.991455,0.312458,0.569771,-0.085191,39,279,578,6224
1644190808.352229,-0.008301,0.010193,-0.994263,0.175053,0.508702,-0.085191,49,287,596,6240
1644190808.400522,-0.007751,0.007935,-0.991943,0.297191,0.417099,-0.36,52,268,579,6240
1644190808.448918,-0.009521,0.008606,-0.99292,0.251389,0.523969,-0.100458,58,274,587,6240
1644190808.497286,-0.006287,0.010742,-0.993347,0.281924,0.356031,0.006412,49,275,582,6304
1644190808.545693,-0.008057,0.008423,-0.989868,0.190321,0.63084,-0.14626,51,276,587,6256
1644190808.594149,-0.009949,0.007446,-0.990417,0.373527,0.417099,-0.085191,51,274,592,6288
1644190808.644633,-0.010864,0.01062,-0.990784,0.236122,0.417099,-0.161527,55,276,576,6224
1644190808.694985,-0.010681,0.010071,-0.991638,0.220855,0.462901,-0.14626,42,282,575,6176
1644190808.739944,-0.007141,0.009216,-0.992188,0.297191,0.279695,-0.024122,58,276,578,6224
1644190808.836079,-0.007751,0.008545,-0.992371,0.220855,0.417099,-0.298931,55,274,585,6192
1644190808.88448,-0.009399,0.007507,-0.992859,0.113985,0.294962,-0.039389,43,269,578,6224
1644190808.932899,-0.008057,0.010193,-0.993774,0.266656,0.447634,-0.130992,47,282,586,6256
1644190808.981271,-0.006409,0.010254,-0.991882,0.113985,0.371298,0.082748,48,269,585,6192
1644190809.029667,-0.004578,0.00824,-0.992859,0.113985,0.24916,-0.100458,51,283,578,6192
1644190809.078118,-0.009155,0.009521,-0.989685,0.129252,0.371298,-0.085191,42,275,589,6192
1644190809.12641,-0.008728,0.008728,-0.990784,0.373527,0.340763,-0.161527,45,268,582,6240
1644190809.174815,-0.008301,0.006531,-0.990234,0.251389,0.462901,-0.115725,47,268,593,6160
1644190809.223188,-0.007324,0.010071,-0.992615,0.236122,0.432366,-0.024122,51,279,580,6224
1644190809.271598,-0.00946,0.010071,-0.991455,0.220855,0.279695,-0.192061,57,273,584,6224
1644190809.319995,-0.009766,0.010376,-0.992981,0.205588,0.325496,-0.192061,51,276,583,6240
1644190809.368387,-0.004944,0.012329,-0.989075,0.190321,0.401832,-0.192061,40,277,584,6256
1644190809.41678,-0.008362,0.008423,-0.991455,0.342992,0.264427,-0.024122,47,275,586,6224
1644190809.465168,-0.006287,0.009521,-0.994324,0.266656,0.569771,-0.192061,43,281,578,6192
1644190809.513564,-0.010559,0.012146,-0.993103,0.068183,0.523969,-0.054656,48,279,590,6256
1644190809.561949,-0.010986,0.009705,-0.993347,0.281924,0.340763,0.052214,51,276,590,6192
1644190809.610344,-0.008484,0.009033,-0.992859,0.220855,0.417099,0.021679,43,271,583,6192
1644190809.659057,-0.007996,0.008484,-0.992676,0.35826,0.539237,-0.176794,51,276,583,6256
1644190809.707954,-0.007263,0.011475,-0.994141,0.266656,0.325496,-0.207328,48,288,585,6240
1644190809.758473,-0.010986,0.009094,-0.99176,0.129252,0.371298,-0.115725,51,281,587,6192
1644190809.809918,-0.008545,0.010437,-0.991882,0.205588,0.508702,-0.176794,45,277,584,6256
1644190809.854072,-0.007141,0.009583,-0.987488,0.236122,0.417099,-0.039389,52,275,584,6240
1644190809.949137,-0.004395,0.011658,-0.990295,0.175053,0.371298,0.006412,36,271,576,6256
1644190809.99753,-0.011292,0.009705,-0.992493,0.236122,0.356031,-0.130992,45,275,589,6176
1644190810.05873,-0.006287,0.010681,-0.990662,0.159786,0.401832,-0.115725,49,280,582,6304
1644190810.096869,-0.01239,0.008484,-0.992493,0.419328,0.386565,-0.008855,46,269,592,6240
1644190810.142688,-0.011597,0.008057,-0.990845,0.190321,0.478168,-0.039389,60,276,578,6224
1644190810.191055,-0.005737,0.008911,-0.991455,0.251389,0.493435,-0.14626,45,263,589,6192
1644190810.239455,-0.011353,0.008606,-0.990601,0.281924,0.417099,-0.054656,54,282,579,6224
1644190810.287865,-0.007874,0.006287,-0.992065,0.175053,0.539237,-0.039389,54,275,589,6224
1644190810.336242,-0.007874,0.010986,-0.992737,0.220855,0.356031,-0.344733,48,276,585,6224
1644190810.384646,-0.009399,0.010925,-0.992065,0.266656,0.478168,-0.008855,48,271,580,6304
1644190810.433054,-0.006897,0.011414,-0.990479,0.052916,0.462901,-0.100458,54,277,591,6224
1644190810.481421,-0.008667,0.010742,-0.992615,0.190321,0.356031,-0.085191,38,282,586,6192
1644190810.529808,-0.007568,0.009155,-0.991455,0.251389,0.386565,-0.054656,48,274,580,6304
1644190810.578509,-0.009521,0.010437,-0.991455,0.404061,0.493435,-0.054656,45,270,589,6240
1644190810.627388,-0.009155,0.007019,-0.991577,0.266656,0.462901,-0.069924,46,276,590,6224
1644190810.678143,-0.00769,0.010864,-0.991943,0.297191,0.386565,0.067481,45,273,586,6192
1644190810.728148,-0.008606,0.013245,-0.991821,0.251389,0.554504,0.021679,39,283,576,6240
1644190810.773057,-0.007629,0.007751,-0.991211,0.236122,0.294962,-0.176794,41,269,594,6240
1644190810.868597,-0.009033,0.010315,-0.993774,0.159786,0.432366,-0.085191,47,273,579,6176
1644190810.916993,-0.006958,0.010315,-0.988342,0.113985,0.401832,-0.054656,53,276,580,6224
1644190810.965386,-0.005554,0.009888,-0.990479,0.251389,0.356031,0.098015,57,275,584,6192
1644190811.013791,-0.010559,0.010376,-0.992004,0.190321,0.356031,-0.024122,47,285,575,6240
1644190811.066642,-0.008484,0.00708,-0.987976,0.236122,0.462901,-0.100458,48,281,583,6224
1644190811.110517,-0.008728,0.009155,-0.989502,0.175053,0.447634,-0.192061,52,270,575,6112
1644190811.158917,-0.00885,0.008606,-0.993164,0.266656,0.386565,-0.008855,54,285,586,6240
1644190811.207335,-0.007446,0.008667,-0.989868,0.08345,0.478168,-0.054656,49,270,582,6224
1644190811.255719,-0.01062,0.012085,-0.99231,0.175053,0.264427,-0.130992,51,266,576,6256
1644190811.304094,-0.008301,0.01001,-0.990906,0.129252,0.340763,0.021679,51,274,583,6224
1644190811.352506,-0.01123,0.008118,-0.990662,0.220855,0.279695,-0.161527,47,285,589,6192
1644190811.400886,-0.007568,0.009338,-0.989685,0.266656,0.432366,0.006412,53,279,590,6224
1644190811.449288,-0.008423,0.009338,-0.990967,0.251389,0.432366,-0.085191,48,279,576,6240
1644190811.497676,-0.005798,0.010193,-0.992676,0.373527,0.554504,0.006412,45,270,589,6240
1644190811.54606,-0.00769,0.007874,-0.993591,0.35826,0.417099,-0.161527,52,285,589,6224
1644190811.594465,-0.007996,0.010193,-0.991699,0.251389,0.478168,-0.054656,40,275,596,6256
1644190811.642869,-0.008179,0.010071,-0.992798,0.35826,0.523969,-0.115725,47,277,582,6224
1644190811.691251,-0.007812,0.006042,-0.991089,0.159786,0.417099,-0.039389,53,269,592,6256
1644190811.739687,-0.007202,0.009338,-0.992493,0.08345,0.417099,-0.008855,48,276,592,6224
1644190811.788052,-0.007629,0.009033,-0.990723,0.068183,0.493435,-0.085191,47,277,584,6176
1644190811.838613,-0.006958,0.013123,-0.989929,0.251389,0.417099,-0.024122,53,279,585,6240
1644190811.889591,-0.008423,0.010437,-0.992371,0.220855,0.432366,-0.069924,48,276,590,6224
1644190811.934111,-0.007019,0.009216,-0.990112,0.159786,0.432366,-0.176794,42,282,593,6224
1644190812.03003,-0.011536,0.010071,-0.992188,0.190321,0.417099,0.067481,45,277,586,6224
1644190812.078899,-0.006287,0.01123,-0.990845,0.068183,0.325496,-0.176794,49,273,589,6224
1644190812.126813,-0.007446,0.00946,-0.990784,0.098718,0.386565,0.143817,47,277,582,6176
1644190812.175174,-0.010071,0.008118,-0.991882,0.159786,0.432366,-0.207328,46,288,583,6256
1644190812.223588,-0.008362,0.008179,-0.992615,0.312458,0.523969,-0.14626,49,273,586,6240
1644190812.271943,-0.010986,0.012085,-0.992615,0.190321,0.462901,-0.14626,54,280,584,6256
1644190812.320375,-0.008728,0.01001,-0.991211,0.297191,0.447634,0.006412,53,274,587,6176
1644190812.368748,-0.007751,0.009033,-0.990601,0.236122,0.493435,-0.237863,48,279,583,6240
1644190812.417141,-0.006958,0.007874,-0.990723,0.113985,0.356031,-0.039389,49,273,577,6224
1644190812.465534,-0.008789,0.013611,-0.993896,0.266656,0.24916,0.021679,43,274,594,6192
1644190812.513919,-0.010925,0.009827,-0.991638,0.220855,0.432366,-0.176794,47,280,577,6176
1644190812.562329,-0.008484,0.011047,-0.991821,0.175053,0.523969,-0.085191,45,277,586,6176
1644190812.610718,-0.00946,0.007202,-0.987976,0.281924,0.325496,-0.039389,47,285,589,6288
1644190812.659105,-0.009583,0.012878,-0.992249,0.251389,0.356031,-0.069924,57,280,584,6128
1644190812.707503,-0.009766,0.007935,-0.990479,0.205588,0.310229,-0.039389,40,277,584,6224
1644190812.755873,-0.007263,0.009766,-0.992737,0.190321,0.401832,-0.054656,40,285,593,6240
1644190812.80429,-0.007324,0.008789,-0.992065,0.220855,0.264427,-0.207328,59,275,584,6224
1644190812.852748,-0.006775,0.012207,-0.992737,0.251389,0.371298,-0.054656,46,279,580,6240
1644190812.901128,-0.011719,0.008545,-0.993164,0.175053,0.432366,-0.085191,57,270,591,6224
1644190812.951123,-0.010437,0.011902,-0.991943,0.175053,0.447634,-0.085191,54,282,591,6176
1644190813.001296,-0.00708,0.012207,-0.991455,0.236122,0.554504,-0.100458,54,275,593,6240
1644190813.073899,-0.007751,0.008484,-0.988464,0.266656,0.386565,-0.054656,55,276,592,6224
1644190813.101631,-0.005615,0.007385,-0.993652,0.281924,0.417099,0.006412,42,280,600,6240
1644190813.191427,-0.0047,0.007263,-0.994141,0.342992,0.478168,-0.130992,46,283,587,6224
1644190813.239828,-0.007324,0.012146,-0.991028,0.129252,0.569771,-0.222595,49,275,589,6224
1644190813.288211,-0.010071,0.011902,-0.990479,0.190321,0.386565,-0.100458,45,268,589,6240
1644190813.336613,-0.009949,0.009033,-0.990784,0.297191,0.233893,-0.054656,49,280,589,6224
1644190813.385041,-0.009644,0.009949,-0.994873,0.098718,0.340763,0.036947,52,273,577,6160
1644190813.433394,-0.005981,0.010742,-0.991455,0.175053,0.371298,-0.237863,53,279,578,6224
1644190813.481785,-0.010803,0.00946,-0.98938,0.251389,0.432366,-0.054656,41,266,576,6240
1644190813.530185,-0.009277,0.010315,-0.989563,0.236122,0.417099,0.021679,45,273,582,6224
1644190813.578574,-0.00946,0.010437,-0.989929,0.281924,0.462901,-0.130992,52,270,582,6304
1644190813.626969,-0.010864,0.01178,-0.990112,0.281924,0.325496,-0.024122,42,282,591,6224
1644190813.67537,-0.00769,0.00824,-0.992188,0.327725,0.417099,-0.085191,43,279,587,6256
1644190813.723781,-0.009033,0.008667,-0.993713,0.113985,0.356031,-0.222595,47,280,593,6288
1644190813.772228,-0.009338,0.00708,-0.99231,0.251389,0.325496,-0.085191,53,291,585,6304
1644190813.820543,-0.005798,0.007935,-0.989929,0.266656,0.356031,-0.085191,45,277,591,6256
1644190813.868983,-0.007996,0.010315,-0.991333,0.312458,0.493435,-0.130992,52,277,582,6176
1644190813.917363,-0.008301,0.010132,-0.994263,0.281924,0.569771,-0.268397,45,285,582,6224
1644190813.965751,-0.010132,0.01001,-0.990112,0.251389,0.462901,-0.085191,45,273,593,6128
1644190814.014489,-0.012085,0.010132,-0.989807,0.281924,0.371298,-0.069924,51,271,592,6256
1644190814.081506,-0.009033,0.012634,-0.992554,0.022382,0.539237,0.082748,52,270,584,6224
1644190814.159317,-0.008667,0.010681,-0.991394,0.098718,0.493435,-0.100458,58,276,580,6192
1644190814.207662,-0.011292,0.007629,-0.990845,0.312458,0.340763,-0.14626,48,288,578,6224
1644190814.25605,-0.009644,0.010193,-0.991943,0.220855,0.539237,0.006412,47,273,584,6176
1644190814.304465,-0.008972,0.009094,-0.994141,0.098718,0.386565,-0.115725,41,276,585,6240
1644190814.352862,-0.008179,0.008545,-0.990112,0.220855,0.371298,-0.14626,43,276,583,6304
1644190814.401244,-0.008301,0.009766,-0.991638,0.281924,0.432366,-0.14626,51,281,583,6224
1644190814.449659,-0.009033,0.010498,-0.992065,0.236122,0.432366,-0.054656,58,266,580,6176
1644190814.498012,-0.010376,0.011475,-0.994751,0.175053,0.233893,-0.130992,39,271,580,6256
1644190814.546443,-0.006592,0.009399,-0.990967,0.190321,0.462901,-0.085191,54,280,589,6192
1644190814.594843,-0.007568,0.009338,-0.990479,0.175053,0.401832,-0.115725,43,279,578,6256
1644190814.643213,-0.00885,0.010986,-0.992554,0.297191,0.462901,0.052214,51,276,580,6256
1644190814.691615,-0.007202,0.011963,-0.991516,0.037649,0.462901,-0.115725,57,280,570,6192
1644190814.74002,-0.009338,0.008728,-0.992615,0.251389,0.371298,-0.039389,57,275,596,6160
1644190814.788398,-0.008606,0.010071,-0.990967,0.342992,0.233893,-0.054656,45,285,579,6240
1644190814.836806,-0.011047,0.01178,-0.989502,0.113985,0.432366,-0.192061,47,280,582,6224
1644190814.885312,-0.006592,0.010071,-0.992676,0.220855,0.523969,-0.039389,45,270,575,6224
1644190814.933627,-0.010071,0.008789,-0.98822,0.251389,0.478168,0.036947,49,282,584,6192
1644190814.98236,-0.009155,0.009888,-0.991699,-0.02342,0.264427,0.113282,53,279,580,6224
1644190815.030424,-0.009033,0.011597,-0.994385,0.251389,0.340763,-0.130992,43,271,594,6176
1644190815.088777,-0.008362,0.010071,-0.990784,0.129252,0.585038,-0.130992,55,266,594,6224
1644190815.131624,-0.00293,0.01123,-0.993225,0.297191,0.523969,-0.039389,43,269,580,6240
1644190815.176183,-0.010742,0.005554,-0.994263,0.159786,0.371298,-0.14626,54,275,584,6256
1644190815.272485,-0.008545,0.007935,-0.99054,0.205588,0.539237,-0.14626,54,280,582,6192
1644190815.320741,-0.009705,0.008118,-0.992126,0.251389,0.462901,-0.176794,41,271,587,6192
1644190815.369134,-0.008728,0.012573,-0.990662,0.220855,0.432366,-0.085191,53,271,587,6240
1644190815.417539,-0.009827,0.010254,-0.992126,0.175053,0.325496,-0.054656,38,282,579,6192
1644190815.465922,-0.009094,0.010315,-0.992981,0.068183,0.386565,-0.054656,42,265,593,6224
1644190815.514323,-0.007996,0.008728,-0.991516,0.175053,0.310229,0.082748,53,281,580,6240
1644190815.562749,-0.00769,0.010254,-0.99176,0.266656,0.356031,-0.100458,43,276,590,6192
1644190815.61113,-0.009155,0.009338,-0.991638,0.190321,0.478168,-0.100458,52,285,589,6192
1644190815.659521,-0.007874,0.010742,-0.990662,0.327725,0.462901,-0.100458,51,269,585,6256
1644190815.70791,-0.009583,0.010254,-0.990906,0.205588,0.462901,-0.222595,49,273,575,6256
1644190815.756312,-0.009216,0.010925,-0.994202,0.266656,0.340763,-0.039389,49,270,593,6224
1644190815.804739,-0.009583,0.010132,-0.991028,0.266656,0.386565,0.021679,45,273,593,6224
1644190815.853109,-0.010132,0.009583,-0.99292,0.327725,0.478168,-0.161527,48,279,590,6240
1644190815.901468,-0.007263,0.01001,-0.991455,0.327725,0.523969,-0.100458,36,276,578,6224
1644190815.949867,-0.008911,0.011658,-0.990417,0.251389,0.493435,-0.14626,54,273,586,6224
1644190815.998264,-0.005371,0.008911,-0.994263,0.144519,0.493435,-0.130992,58,279,590,6176
1644190816.064794,-0.010376,0.010437,-0.991516,0.342992,0.386565,-0.039389,49,270,593,6240
1644190816.098713,-0.006897,0.007324,-0.990601,0.480397,0.371298,-0.069924,48,269,592,6288
1644190816.143471,-0.010803,0.008972,-0.989441,0.388794,0.462901,-0.054656,45,275,579,6224
1644190816.192274,-0.011414,0.008667,-0.992065,0.480397,0.478168,-0.176794,59,277,593,6256
1644190816.24286,-0.008423,0.012939,-0.988708,0.251389,0.462901,-0.100458,51,269,578,6224
1644190816.293102,-0.010681,0.009644,-0.991577,0.266656,0.447634,0.021679,48,271,594,6192
1644190816.338203,-0.011719,0.010193,-0.989624,0.159786,0.386565,-0.115725,53,279,580,6224
1644190816.433763,-0.010498,0.01001,-0.991028,0.312458,0.447634,0.006412,59,265,582,6240
1644190816.482367,-0.007263,0.012817,-0.992615,0.35826,0.340763,-0.25313,46,271,585,6240
1644190816.53054,-0.01001,0.011169,-0.990906,0.159786,0.371298,-0.161527,47,277,579,6192
1644190816.578931,-0.007507,0.010071,-0.989197,0.266656,0.478168,0.098015,47,270,586,6240
1644190816.627323,-0.00769,0.010803,-0.989868,0.220855,0.539237,-0.14626,47,275,589,6192
1644190816.675716,-0.007874,0.01001,-0.993347,0.113985,0.432366,0.006412,47,285,579,6288
1644190816.724124,-0.010498,0.007385,-0.989868,0.236122,0.188092,-0.161527,46,281,583,6176
1644190816.772495,-0.007751,0.00946,-0.989258,0.236122,0.401832,-0.130992,43,281,578,6256
1644190816.820954,-0.00824,0.008484,-0.991211,0.236122,0.371298,-0.115725,54,282,586,6288
1644190816.869337,-0.007507,0.010376,-0.99292,0.236122,0.401832,-0.069924,54,277,582,6240
1644190816.917724,-0.008423,0.01062,-0.991516,0.098718,0.371298,-0.192061,47,258,589,6224
1644190816.966122,-0.009827,0.010315,-0.993042,0.205588,0.371298,0.006412,49,273,586,6224
1644190817.014507,-0.007812,0.009277,-0.994507,0.297191,0.493435,-0.100458,52,268,582,6288
1644190817.071046,-0.006836,0.009888,-0.991638,0.266656,0.432366,-0.054656,49,275,579,6192
1644190817.111289,-0.009583,0.010254,-0.992737,0.281924,0.24916,-0.14626,53,281,578,6256
1644190817.159659,-0.009644,0.010742,-0.990967,0.281924,0.554504,-0.115725,52,277,593,6160
1644190817.208045,-0.009583,0.011719,-0.990295,0.113985,0.356031,-0.039389,60,283,585,6240
1644190817.256423,-0.007751,0.009521,-0.991638,0.236122,0.294962,-0.115725,52,282,577,6224
1644190817.304845,-0.010559,0.010315,-0.99115,0.037649,0.462901,-0.024122,43,274,576,6224
1644190817.353509,-0.011292,0.010864,-0.991516,0.373527,0.310229,-0.024122,46,274,583,6224
1644190817.403911,-0.01178,0.009766,-0.989502,0.266656,0.478168,-0.039389,52,275,589,6256
1644190817.454133,-0.008118,0.010742,-0.993042,0.266656,0.585038,-0.237863,47,280,584,6256
1644190817.499217,-0.008118,0.008057,-0.989441,0.190321,0.294962,-0.024122,42,270,586,6288
1644190817.595391,-0.008118,0.010742,-0.991516,0.190321,0.417099,-0.069924,46,279,590,6192
1644190817.643592,-0.008545,0.01001,-0.99176,0.205588,0.432366,-0.008855,43,281,569,6224
1644190817.691971,-0.008911,0.009216,-0.991699,0.220855,0.447634,-0.039389,45,275,586,6176
1644190817.740365,-0.008484,0.00824,-0.987976,0.190321,0.401832,-0.192061,52,275,584,6224
1644190817.788756,-0.006775,0.010132,-0.993225,0.312458,0.340763,-0.085191,40,277,589,6224
1644190817.837163,-0.009033,0.007263,-0.992249,0.052916,0.340763,-0.100458,41,281,590,6224
1644190817.885572,-0.006592,0.006165,-0.994324,0.220855,0.325496,-0.054656,45,282,586,6192
1644190817.933992,-0.008545,0.008057,-0.990906,0.144519,0.417099,0.036947,43,279,576,6304
1644190817.982391,-0.009583,0.00885,-0.992676,0.175053,0.432366,-0.008855,48,283,583,6240
1644190818.03076,-0.009216,0.010132,-0.990173,0.312458,0.356031,-0.130992,35,270,586,6224
1644190818.079249,-0.009155,0.009155,-0.991943,0.419328,0.386565,-0.054656,49,270,589,6240
1644190818.127512,-0.009277,0.00885,-0.993652,0.251389,0.478168,-0.008855,47,273,586,6240
1644190818.175909,-0.006348,0.011719,-0.990784,0.251389,0.462901,-0.069924,48,281,590,6240
1644190818.224315,-0.006592,0.012329,-0.991211,0.129252,0.432366,-0.054656,46,269,594,6192
1644190818.272683,-0.007263,0.009827,-0.990417,0.266656,0.417099,-0.115725,43,293,583,6192
1644190818.321077,-0.009705,0.00769,-0.990173,0.159786,0.203359,-0.039389,45,275,586,6224
1644190818.369472,-0.007263,0.010315,-0.994141,0.144519,0.356031,-0.192061,46,281,583,6224
1644190818.417846,-0.007812,0.009338,-0.991516,0.327725,0.325496,-0.100458,39,283,583,6240
1644190818.466256,-0.007263,0.008301,-0.991699,0.327725,0.432366,-0.008855,49,270,586,6224
1644190818.516225,-0.006775,0.008179,-0.993103,0.113985,0.417099,-0.024122,42,273,577,6192
1644190818.566492,-0.006165,0.012085,-0.991333,0.129252,0.233893,-0.039389,51,279,587,6192
1644190818.61655,-0.007507,0.012207,-0.993469,0.35826,0.462901,-0.085191,52,287,584,6256
1644190818.708234,-0.010925,0.010681,-0.992798,0.266656,0.447634,-0.085191,45,263,589,6192
1644190818.756615,-0.009827,0.007324,-0.988892,0.236122,0.371298,-0.130992,58,276,585,6256
1644190818.805258,-0.011292,0.011658,-0.992493,0.175053,0.386565,-0.176794,48,281,597,6256
1644190818.853446,-0.011475,0.00946,-0.990967,0.113985,0.325496,0.098015,40,277,584,6256
1644190818.901838,-0.009094,0.009888,-0.99231,0.08345,0.432366,-0.115725,42,285,572,6256
1644190818.950241,-0.009155,0.008545,-0.993225,0.190321,0.478168,-0.192061,43,264,578,6176
1644190818.998612,-0.009766,0.010742,-0.991638,0.266656,0.478168,-0.14626,51,281,580,6240
1644190819.066876,-0.006958,0.010864,-0.990173,0.220855,0.325496,-0.008855,55,279,604,6224
1644190819.095449,-0.009216,0.009216,-0.99176,0.159786,0.523969,-0.130992,59,275,582,6240
1644190819.143803,-0.011963,0.009583,-0.988647,0.068183,0.554504,-0.008855,47,280,586,6240
1644190819.192233,-0.010742,0.007812,-0.991638,0.251389,0.63084,-0.100458,51,276,585,6160
1644190819.240556,-0.008301,0.009949,-0.98999,0.129252,0.462901,-0.130992,46,266,585,6224
1644190819.288936,-0.009033,0.007751,-0.993347,0.251389,0.340763,0.006412,52,273,584,6224
1644190819.337328,-0.006897,0.009888,-0.992371,0.037649,0.432366,-0.176794,46,269,585,6192
1644190819.385734,-0.009888,0.009277,-0.993103,0.236122,0.569771,0.021679,46,271,580,6160
1644190819.434178,-0.009216,0.00824,-0.991638,0.449863,0.371298,-0.14626,48,279,576,6224
1644190819.482965,-0.009216,0.009949,-0.990356,0.205588,0.508702,-0.192061,48,271,578,6224
1644190819.533568,-0.00769,0.007812,-0.989258,0.312458,0.493435,-0.024122,52,273,589,6240
1644190819.583849,-0.012146,0.011108,-0.991638,0.190321,0.539237,0.021679,53,271,573,6224
1644190819.628791,-0.009949,0.009949,-0.989868,0.327725,0.447634,-0.237863,58,274,583,6256
1644190819.724473,-0.007141,0.008606,-0.992126,0.266656,0.508702,-0.130992,42,275,582,6240
1644190819.7729,-0.007568,0.00946,-0.989929,0.205588,0.386565,-0.069924,42,280,584,6224
1644190819.821255,-0.006653,0.010254,-0.989868,0.266656,0.340763,-0.100458,61,277,584,6256
1644190819.869699,-0.006897,0.009888,-0.989075,0.312458,0.386565,-0.100458,53,286,576,6224
1644190819.918086,-0.006958,0.010742,-0.989014,0.281924,0.325496,-0.130992,43,276,585,6224
1644190819.966494,-0.008362,0.012024,-0.991089,0.297191,0.371298,-0.222595,49,282,577,6224
1644190820.01491,-0.010071,0.006165,-0.991211,0.175053,0.340763,-0.130992,49,280,579,6256
1644190820.06669,-0.009644,0.008728,-0.99292,0.281924,0.417099,0.021679,52,270,586,6224
1644190820.111656,-0.007202,0.011597,-0.992859,0.281924,0.371298,-0.039389,49,273,579,6224
1644190820.160021,-0.007568,0.009277,-0.993225,0.312458,0.462901,-0.039389,52,275,586,6224
1644190820.208418,-0.008118,0.008667,-0.993774,0.129252,0.371298,-0.100458,52,275,579,6192
1644190820.256802,-0.00946,0.007629,-0.990601,0.129252,0.356031,-0.100458,53,276,594,6256
1644190820.305453,-0.010315,0.012451,-0.989197,0.297191,0.371298,0.006412,51,279,590,6256
1644190820.353568,-0.007629,0.008301,-0.991089,0.266656,0.340763,-0.039389,46,281,594,6192
1644190820.401974,-0.00769,0.008545,-0.992065,0.159786,0.523969,-0.14626,54,273,582,6256
1644190820.450381,-0.00946,0.008789,-0.991943,0.220855,0.417099,-0.161527,55,269,585,6224
1644190820.498774,-0.007629,0.007507,-0.9953,0.098718,0.386565,-0.130992,51,286,590,6224
1644190820.547167,-0.007385,0.009705,-0.993164,0.46513,0.24916,-0.237863,54,273,582,6192
1644190820.595555,-0.007996,0.008667,-0.990967,0.220855,0.493435,-0.237863,49,275,593,6256
1644190820.644144,-0.008606,0.008423,-0.992004,0.190321,0.325496,-0.130992,46,271,583,6224
1644190820.694541,-0.010376,0.011169,-0.990662,0.297191,0.432366,0.098015,43,276,580,6256
1644190820.7447,-0.00824,0.012024,-0.98822,0.205588,0.371298,-0.222595,55,276,580,6192
1644190820.789862,-0.008484,0.011292,-0.992859,0.159786,0.447634,-0.054656,42,277,586,6128
1644190820.885935,-0.008545,0.010254,-0.99054,0.159786,0.294962,-0.130992,48,271,580,6256
1644190820.934363,-0.011658,0.00946,-0.990601,0.205588,0.386565,-0.192061,51,281,580,6160
1644190820.982733,-0.010559,0.009583,-0.990906,0.266656,0.233893,-0.176794,43,276,592,6240
1644190821.031134,-0.009033,0.007385,-0.992249,0.373527,0.432366,-0.115725,47,275,582,6224
1644190821.079592,-0.009705,0.008911,-0.992188,0.251389,0.447634,-0.054656,45,275,593,6240
1644190821.127907,-0.01239,0.009155,-0.990784,0.297191,0.569771,-0.14626,54,270,591,6176
1644190821.176301,-0.008667,0.010376,-0.992798,0.159786,0.508702,-0.130992,49,277,586,6176
1644190821.224674,-0.005432,0.006287,-0.992493,0.297191,0.600305,-0.069924,47,273,582,6192
1644190821.273078,-0.006531,0.007751,-0.992798,0.281924,0.661374,0.006412,47,277,584,6256
1644190821.321452,-0.011047,0.009644,-0.990845,0.404061,0.356031,-0.100458,38,273,582,6256
1644190821.369843,-0.008423,0.007812,-0.989441,0.236122,0.356031,-0.008855,49,285,589,6240
1644190821.418246,-0.00592,0.014832,-0.990601,0.159786,0.340763,-0.039389,53,274,594,6224
1644190821.466636,-0.010925,0.009705,-0.991455,0.175053,0.401832,-0.100458,49,290,582,6224
1644190821.51908,-0.009277,0.012878,-0.99292,0.220855,0.447634,-0.008855,51,269,587,6240
1644190821.563413,-0.007385,0.012573,-0.991821,0.098718,0.264427,-0.039389,49,273,575,6192
1644190821.61181,-0.006653,0.009888,-0.989624,0.236122,0.279695,-0.115725,48,279,587,6192
1644190821.660208,-0.007568,0.008911,-0.988525,0.159786,0.523969,-0.085191,49,270,582,6176
1644190821.708589,-0.007263,0.009338,-0.990601,0.342992,0.386565,-0.024122,46,279,587,6176
1644190821.756989,-0.007446,0.01062,-0.991699,0.251389,0.356031,-0.115725,47,273,577,6288
1644190821.805769,-0.01123,0.009277,-0.990356,0.129252,0.508702,-0.085191,53,274,585,6176
1644190821.856263,-0.009705,0.00647,-0.993042,0.266656,0.493435,-0.222595,42,273,584,6176
1644190821.907191,-0.006592,0.007996,-0.991394,0.312458,0.294962,-0.192061,57,275,586,6192
1644190821.951704,-0.010742,0.009583,-0.989624,0.312458,0.325496,-0.115725,48,281,592,6240
1644190822.057659,-0.009033,0.011292,-0.992371,0.35826,0.356031,-0.14626,57,285,586,6256
1644190822.097344,-0.006409,0.009949,-0.992859,0.159786,0.264427,-0.192061,46,271,585,6240
1644190822.144197,-0.009277,0.009766,-0.992371,0.312458,0.340763,-0.130992,59,268,584,6240
1644190822.192543,-0.00769,0.00885,-0.994629,-0.008153,0.310229,0.052214,46,276,583,6224
1644190822.24088,-0.008423,0.008423,-0.993713,0.159786,0.294962,-0.161527,48,276,585,6240
1644190822.28931,-0.009644,0.009094,-0.99115,0.297191,0.478168,-0.222595,53,279,585,6224
1644190822.337715,-0.010315,0.009644,-0.99408,0.251389,0.401832,-0.069924,57,263,584,6256
1644190822.386112,-0.012024,0.010254,-0.991638,0.266656,0.371298,-0.100458,42,277,596,6176
1644190822.434489,-0.009277,0.010193,-0.990845,0.08345,0.478168,-0.024122,38,277,582,6192
1644190822.482901,-0.008179,0.011963,-0.992737,0.281924,0.493435,-0.25313,58,276,599,6224
1644190822.531288,-0.007446,0.011902,-0.994507,0.297191,0.615573,-0.039389,46,274,583,6128
1644190822.580529,-0.009033,0.010376,-0.991394,0.266656,0.523969,-0.100458,45,292,584,6240
1644190822.631438,-0.009338,0.008484,-0.990234,0.190321,0.310229,0.006412,51,274,585,6224
1644190822.68109,-0.011047,0.008667,-0.994934,0.281924,0.417099,-0.024122,52,280,582,6224
1644190822.72618,-0.00769,0.010071,-0.991577,0.281924,0.264427,-0.054656,53,283,590,6256
1644190822.82164,-0.008606,0.010437,-0.990173,0.342992,0.478168,0.036947,46,279,580,6240
1644190822.869995,-0.010254,0.007141,-0.99176,0.236122,0.356031,0.021679,48,281,576,6192
1644190822.918454,-0.007263,0.008057,-0.992859,0.281924,0.478168,-0.14626,46,274,587,6224
1644190822.966854,-0.007996,0.01123,-0.99469,0.205588,0.356031,0.006412,54,273,589,6224
1644190823.015305,-0.009644,0.009094,-0.992554,0.159786,0.539237,-0.008855,49,273,586,6256
1644190823.066693,-0.009216,0.009399,-0.989685,0.08345,0.462901,-0.069924,52,268,586,6224
1644190823.111983,-0.009033,0.013245,-0.990784,0.281924,0.264427,-0.176794,42,282,584,6128
1644190823.160362,-0.009888,0.01239,-0.989136,0.144519,0.462901,-0.161527,60,271,580,6224
1644190823.208775,-0.011414,0.010925,-0.992371,0.175053,0.432366,-0.024122,53,283,578,6256
1644190823.257166,-0.007751,0.011597,-0.990845,0.327725,0.325496,-0.039389,46,291,590,6176
1644190823.305542,-0.009583,0.010559,-0.995911,0.312458,0.325496,0.098015,48,283,592,6192
1644190823.353969,-0.010742,0.008362,-0.994995,0.342992,0.371298,-0.237863,42,273,579,6192
1644190823.402375,-0.00946,0.00824,-0.990295,0.251389,0.386565,0.052214,41,274,583,6192
1644190823.450747,-0.01062,0.008118,-0.990112,0.251389,0.294962,-0.192061,41,276,573,6224
1644190823.499107,-0.009521,0.006653,-0.990601,0.113985,0.279695,0.052214,40,277,579,6240
1644190823.547529,-0.008057,0.010193,-0.993469,0.205588,0.386565,-0.100458,43,271,599,6288
1644190823.595932,-0.009033,0.009644,-0.993347,0.08345,0.508702,-0.039389,45,277,593,6176
1644190823.644314,-0.007812,0.009155,-0.99469,0.144519,0.188092,-0.069924,48,274,585,6304
1644190823.692729,-0.007996,0.009033,-0.992249,0.297191,0.340763,-0.100458,41,269,585,6192
1644190823.741269,-0.009094,0.011108,-0.992493,0.281924,0.325496,-0.115725,54,275,582,6192
1644190823.792846,-0.007141,0.010376,-0.990112,0.251389,0.172824,-0.14626,46,276,592,6240
1644190823.843265,-0.009277,0.008911,-0.992493,0.342992,0.264427,0.006412,51,288,580,6128
1644190823.887775,-0.00885,0.00769,-0.993835,0.266656,0.386565,-0.069924,47,277,586,6224
1644190823.983126,-0.008728,0.00885,-0.991211,0.159786,0.462901,-0.14626,45,282,589,6240
1644190824.031494,-0.008728,0.010132,-0.991028,0.068183,0.356031,-0.008855,54,265,582,6160
1644190824.08006,-0.007751,0.011353,-0.991821,0.266656,0.447634,-0.192061,59,285,591,6256
1644190824.128219,-0.007751,0.010864,-0.992432,0.251389,0.401832,-0.130992,46,279,583,6240
1644190824.17662,-0.009644,0.01001,-0.990173,0.373527,0.371298,-0.161527,43,276,590,6224
1644190824.22506,-0.009705,0.009521,-0.99292,-0.02342,0.462901,-0.115725,53,276,583,6224
1644190824.273401,-0.006958,0.007935,-0.992126,0.297191,0.462901,-0.039389,47,277,577,6192
1644190824.321826,-0.009521,0.009949,-0.989136,0.373527,0.401832,-0.008855,48,279,578,6304
1644190824.370222,-0.009705,0.011597,-0.992249,0.220855,0.279695,0.021679,46,274,592,6288
1644190824.418605,-0.010315,0.011169,-0.991638,0.35826,0.447634,-0.024122,57,270,586,6224
1644190824.466982,-0.007507,0.010864,-0.990479,0.113985,0.493435,-0.130992,49,260,584,6224
1644190824.515392,-0.007996,0.008606,-0.991455,0.205588,0.585038,-0.069924,42,273,577,6224
1644190824.563799,-0.01239,0.01001,-0.993958,0.266656,0.432366,-0.130992,45,270,577,6176
1644190824.612234,-0.00824,0.010071,-0.990356,0.297191,0.508702,-0.069924,45,277,600,6176
1644190824.660565,-0.010254,0.009705,-0.991882,0.251389,0.401832,-0.069924,45,285,589,6240
1644190824.708957,-0.009827,0.010132,-0.992065,0.190321,0.462901,-0.054656,48,281,597,6176
1644190824.757324,-0.006714,0.01062,-0.992249,0.037649,0.447634,0.082748,48,266,580,6192
1644190824.806096,-0.00824,0.007935,-0.993591,0.266656,0.340763,-0.176794,42,277,586,6304
1644190824.854196,-0.008789,0.008423,-0.990906,0.220855,0.462901,-0.100458,49,282,593,6224
1644190824.903991,-0.011414,0.008423,-0.992554,0.297191,0.447634,-0.054656,40,280,586,6160
1644190824.954179,-0.010376,0.008179,-0.992554,0.342992,0.325496,-0.039389,60,286,587,6288
1644190825.004516,-0.009766,0.009277,-0.991394,0.007115,0.294962,0.006412,54,285,584,6176
1644190825.075995,-0.009583,0.012146,-0.994141,0.159786,0.554504,-0.024122,43,274,594,6176
1644190825.1445,-0.009705,0.010132,-0.991821,0.266656,0.432366,-0.008855,51,271,594,6192
1644190825.192888,-0.011047,0.008606,-0.992371,0.373527,0.417099,-0.024122,42,273,579,6304
1644190825.241274,-0.008606,0.00708,-0.99176,0.312458,0.417099,0.12855,52,275,584,6192
1644190825.289667,-0.01123,0.007874,-0.988953,0.297191,0.356031,0.021679,55,281,585,6256
1644190825.338062,-0.005249,0.009644,-0.993774,0.205588,0.310229,-0.054656,54,277,591,6224
1644190825.386434,-0.009338,0.009033,-0.99115,0.098718,0.386565,-0.100458,57,270,582,6224
1644190825.434861,-0.008057,0.009949,-0.992249,0.404061,0.600305,-0.207328,47,273,589,6224
1644190825.483256,-0.010132,0.010132,-0.992188,0.144519,0.386565,-0.054656,52,280,591,6176
1644190825.531649,-0.008423,0.009033,-0.990051,0.281924,0.447634,-0.130992,46,281,594,6224
1644190825.580038,-0.009583,0.009277,-0.990723,0.220855,0.523969,-0.207328,53,274,578,6256
1644190825.628421,-0.007141,0.009216,-0.99115,0.129252,0.386565,-0.130992,53,271,585,6256
1644190825.676816,-0.008545,0.009521,-0.99408,0.251389,0.432366,0.021679,53,262,587,6224
1644190825.72526,-0.008118,0.010681,-0.992737,0.251389,0.432366,-0.14626,54,282,582,6240
1644190825.773678,-0.009766,0.008972,-0.993286,0.159786,0.447634,-0.039389,49,268,586,6256
1644190825.822041,-0.009766,0.010864,-0.989624,0.159786,0.401832,0.006412,51,276,580,6256
1644190825.870434,-0.011108,0.008484,-0.992798,0.190321,0.462901,0.036947,53,283,578,6256
1644190825.91883,-0.010315,0.007751,-0.992981,0.327725,0.508702,-0.054656,54,285,582,6240
1644190825.967505,-0.010193,0.010376,-0.993103,0.266656,0.279695,-0.192061,57,280,591,6224
1644190826.015603,-0.007751,0.011292,-0.992615,0.281924,0.294962,-0.130992,55,279,599,6176
1644190826.08113,-0.009155,0.007202,-0.990845,0.236122,0.294962,-0.161527,49,270,596,6224
1644190826.11293,-0.008667,0.008606,-0.992004,0.281924,0.310229,0.006412,51,276,590,6224
1644190826.209134,-0.006958,0.009888,-0.99469,0.159786,0.523969,0.159084,48,283,587,6192
1644190826.257514,-0.006897,0.012024,-0.989929,0.251389,0.478168,-0.054656,49,277,579,6176
1644190826.305912,-0.008423,0.009155,-0.995789,0.205588,0.493435,-0.008855,55,276,578,6224
1644190826.354323,-0.009705,0.011414,-0.993286,0.327725,0.447634,-0.024122,47,282,582,6192
1644190826.402726,-0.011536,0.011475,-0.992004,0.327725,0.325496,-0.008855,48,286,585,6288
1644190826.451096,-0.010986,0.011963,-0.991333,0.068183,0.401832,-0.024122,52,275,589,6240
1644190826.499504,-0.00824,0.007996,-0.992065,0.236122,0.371298,-0.130992,53,276,587,6224
1644190826.547878,-0.009399,0.008545,-0.992798,0.205588,0.279695,-0.039389,55,279,583,6224
1644190826.59628,-0.006897,0.01001,-0.98999,0.312458,0.325496,-0.039389,52,282,586,6224
1644190826.644782,-0.00885,0.010681,-0.991333,0.159786,0.401832,-0.054656,55,274,578,6224
1644190826.693085,-0.009399,0.010864,-0.989441,0.144519,0.447634,-0.085191,48,274,590,6176
1644190826.741442,-0.00769,0.007568,-0.990234,0.159786,0.279695,0.036947,51,271,578,6240
1644190826.789856,-0.009033,0.009949,-0.992615,0.190321,0.493435,-0.054656,53,276,590,6160
1644190826.838297,-0.008606,0.010071,-0.988464,0.281924,0.233893,-0.222595,46,276,590,6240
1644190826.886685,-0.006592,0.009949,-0.993164,0.327725,0.401832,-0.176794,54,268,586,6224
1644190826.935118,-0.006958,0.007446,-0.993225,0.312458,0.386565,0.006412,40,280,584,6224
1644190826.983476,-0.00946,0.008911,-0.993347,0.144519,0.447634,-0.054656,60,276,594,6224
1644190827.031869,-0.00885,0.009155,-0.989624,0.251389,0.294962,-0.039389,46,274,590,6192
1644190827.085389,-0.009644,0.009155,-0.995056,0.052916,0.417099,-0.024122,61,270,579,6176
1644190827.131958,-0.007935,0.008484,-0.992126,0.190321,0.447634,-0.024122,43,281,585,6192
1644190827.180184,-0.010742,0.007935,-0.992798,0.175053,0.386565,-0.024122,46,269,580,6176
1644190827.230253,-0.011169,0.009949,-0.991333,0.220855,0.401832,-0.237863,52,273,591,6240
1644190827.3224,-0.008118,0.012146,-0.990479,0.129252,0.401832,-0.069924,48,279,585,6224
1644190827.37057,-0.006287,0.008484,-0.993713,0.236122,0.386565,0.006412,48,274,585,6256
1644190827.418974,-0.009583,0.01062,-0.990906,0.144519,0.508702,-0.100458,59,275,584,6224
1644190827.467354,-0.010254,0.00885,-0.991516,0.159786,0.462901,-0.100458,46,276,571,6240
1644190827.515757,-0.006287,0.011475,-0.990906,0.251389,0.340763,-0.054656,40,273,582,6224
1644190827.564156,-0.009949,0.010864,-0.990906,0.251389,0.279695,-0.039389,43,271,580,6224
1644190827.612548,-0.008789,0.010071,-0.994446,0.098718,0.371298,-0.054656,51,286,583,6160
1644190827.660933,-0.008667,0.010925,-0.993042,0.159786,0.600305,-0.115725,54,273,579,6240
1644190827.709326,-0.008789,0.010681,-0.989319,0.281924,0.447634,-0.222595,40,270,584,6256
1644190827.75773,-0.011658,0.010986,-0.991577,0.190321,0.279695,-0.115725,52,270,570,6192
1644190827.80611,-0.006958,0.009827,-0.991028,0.205588,0.432366,0.036947,52,285,582,6240
1644190827.854685,-0.008423,0.007751,-0.990784,0.251389,0.493435,-0.085191,49,270,584,6240
1644190827.902972,-0.007446,0.009399,-0.993591,0.266656,0.462901,0.159084,46,269,590,6160
1644190827.951324,-0.008423,0.007874,-0.991943,0.266656,0.356031,-0.115725,48,281,587,6256
1644190827.999727,-0.009094,0.010254,-0.99176,0.342992,0.264427,-0.176794,64,273,589,6240
1644190828.064263,-0.009155,0.006958,-0.992126,0.297191,0.386565,-0.008855,47,282,586,6176
1644190828.099493,-0.010559,0.010498,-0.990295,0.175053,0.401832,-0.039389,47,275,584,6256
1644190828.144883,-0.008484,0.010742,-0.992249,0.373527,0.325496,-0.100458,55,281,583,6240
1644190828.193248,-0.01355,0.011169,-0.989807,0.236122,0.462901,0.036947,51,276,585,6192
1644190828.241698,-0.009888,0.011169,-0.991089,0.404061,0.386565,-0.100458,49,285,591,6128
1644190828.292198,-0.008057,0.011108,-0.994873,0.175053,0.447634,0.006412,55,281,585,6240
1644190828.342604,-0.008667,0.009583,-0.993164,0.35826,0.340763,-0.008855,49,275,582,6176
1644190828.3877,-0.00769,0.009521,-0.991821,0.266656,0.417099,0.036947,57,270,589,6224
1644190828.483623,-0.009583,0.012024,-0.990173,0.266656,0.386565,-0.100458,47,287,582,6288
1644190828.532005,-0.007935,0.009644,-0.992432,0.129252,0.386565,-0.176794,45,280,600,6224
1644190828.58039,-0.008484,0.009155,-0.993225,0.190321,0.325496,-0.039389,51,271,580,6224
1644190828.629306,-0.005737,0.01062,-0.990845,0.144519,0.401832,-0.069924,48,276,580,6192
1644190828.677172,-0.01178,0.008301,-0.993958,0.297191,0.310229,-0.115725,42,277,598,6224
1644190828.725587,-0.008057,0.009277,-0.993286,0.190321,0.401832,-0.222595,48,276,583,6192
1644190828.773957,-0.007202,0.010132,-0.992615,0.175053,0.356031,-0.069924,53,279,573,6224
1644190828.822382,-0.008301,0.010315,-0.990906,0.236122,0.401832,-0.024122,47,268,589,6224
1644190828.870808,-0.011108,0.010742,-0.991516,0.220855,0.310229,-0.069924,46,281,583,6176
1644190828.919193,-0.011902,0.009521,-0.989929,0.144519,0.462901,-0.085191,51,279,590,6192
1644190828.967583,-0.008545,0.010925,-0.991333,0.220855,0.386565,-0.085191,45,277,577,6160
1644190829.015978,-0.008057,0.010559,-0.992676,0.495664,0.462901,-0.100458,51,269,578,6256
1644190829.070932,-0.009888,0.005615,-0.992126,0.251389,0.24916,-0.115725,53,266,592,6224
1644190829.112797,-0.008484,0.010559,-0.994202,0.312458,0.447634,-0.192061,47,275,584,6240
1644190829.161114,-0.007507,0.006897,-0.990295,0.190321,0.478168,-0.024122,60,279,587,6240
1644190829.209508,-0.006592,0.010681,-0.99231,0.098718,0.447634,-0.008855,55,286,594,6192
1644190829.257876,-0.00946,0.009399,-0.991882,0.236122,0.340763,-0.192061,48,288,585,6288
1644190829.306294,-0.011108,0.010071,-0.992188,0.052916,0.340763,0.052214,52,285,582,6256
1644190829.35474,-0.009644,0.010071,-0.993408,0.312458,0.493435,-0.054656,59,275,584,6240
1644190829.403327,-0.008667,0.010437,-0.992065,0.190321,0.539237,-0.054656,48,283,590,6224
1644190829.453794,-0.008972,0.008423,-0.991577,0.190321,0.447634,-0.085191,51,281,585,6224
1644190829.504327,-0.00824,0.008301,-0.993652,0.266656,0.478168,-0.069924,52,285,579,6224
1644190829.549063,-0.008118,0.012268,-0.992004,0.419328,0.523969,-0.25313,53,274,594,6336
1644190829.645354,-0.007141,0.010925,-0.992065,0.281924,0.325496,-0.100458,51,279,587,6192
1644190829.693447,-0.008118,0.009216,-0.990479,0.175053,0.478168,-0.039389,38,270,582,6240
1644190829.741845,-0.009583,0.012024,-0.992065,0.205588,0.340763,-0.115725,49,280,579,6224
1644190829.790219,-0.008789,0.01062,-0.99292,0.205588,0.432366,-0.069924,59,268,586,6192
1644190829.838623,-0.006348,0.008179,-0.992737,0.266656,0.325496,-0.176794,48,276,587,6256
1644190829.887044,-0.006836,0.010376,-0.992432,0.281924,0.508702,-0.100458,59,277,589,6240
1644190829.935446,-0.008362,0.007446,-0.991882,0.373527,0.401832,-0.192061,57,263,586,6160
1644190829.983838,-0.009155,0.009949,-0.990173,0.266656,0.340763,-0.130992,46,269,585,6240
1644190830.03225,-0.009949,0.010925,-0.992859,0.266656,0.417099,-0.085191,47,277,582,6224
1644190830.085327,-0.00769,0.011169,-0.993103,0.144519,0.386565,-0.100458,48,276,583,6192
1644190830.129002,-0.010559,0.009705,-0.989807,0.236122,0.417099,0.143817,42,277,584,6240
1644190830.17737,-0.009949,0.007812,-0.991272,0.266656,0.340763,-0.008855,45,275,582,6256
1644190830.225763,-0.005554,0.011841,-0.991699,0.312458,0.432366,-0.130992,53,283,583,6176
1644190830.274136,-0.008606,0.00592,-0.990295,0.35826,0.371298,-0.100458,55,269,585,6256
1644190830.322899,-0.008545,0.007996,-0.991638,0.297191,0.401832,0.021679,51,274,583,6224
1644190830.371636,-0.008362,0.00885,-0.99054,0.251389,0.447634,-0.085191,45,275,575,6176
1644190830.422307,-0.007629,0.010254,-0.99176,0.404061,0.386565,-0.054656,58,281,580,6224
1644190830.472282,-0.009644,0.009583,-0.993713,0.205588,0.447634,-0.130992,53,283,585,6256
1644190830.517358,-0.007812,0.009155,-0.991821,0.129252,0.447634,-0.176794,45,273,589,6192
1644190830.612911,-0.007141,0.008484,-0.991089,0.205588,0.493435,-0.008855,55,264,583,6240
1644190830.661294,-0.006653,0.009338,-0.989929,0.205588,0.310229,-0.130992,55,266,580,6224
1644190830.709689,-0.008789,0.013611,-0.99231,0.129252,0.417099,-0.115725,48,262,580,6192
1644190830.758074,-0.008057,0.011902,-0.990906,0.159786,0.233893,-0.176794,47,285,591,6224
1644190830.80647,-0.007019,0.009888,-0.993408,-0.038687,0.432366,-0.130992,45,280,591,6176
1644190830.854882,-0.010925,0.007874,-0.993225,0.281924,0.401832,-0.130992,45,268,582,6240
1644190830.90332,-0.006836,0.010498,-0.990234,0.220855,0.340763,-0.161527,41,276,580,6288
1644190830.951684,-0.009216,0.011292,-0.993225,0.404061,0.508702,-0.100458,54,268,589,6128
1644190831.000059,-0.009155,0.011292,-0.992859,0.236122,0.554504,-0.085191,45,277,582,6256
1644190831.057124,-0.010132,0.010681,-0.993347,0.312458,0.233893,-0.176794,59,277,586,6256
1644190831.097475,-0.011108,0.012329,-0.99176,0.08345,0.585038,0.006412,46,274,585,6256
1644190831.145367,-0.008301,0.008362,-0.992004,0.190321,0.401832,-0.100458,59,273,591,6240
1644190831.193678,-0.007141,0.011292,-0.991333,0.159786,0.356031,0.143817,47,273,582,6256
1644190831.242069,-0.010254,0.008179,-0.989685,0.251389,0.417099,-0.130992,54,277,584,6224
1644190831.290449,-0.008118,0.009521,-0.993103,0.098718,0.294962,-0.008855,46,274,583,6224
1644190831.338846,-0.009644,0.007751,-0.991577,0.281924,0.508702,-0.054656,43,281,585,6192
1644190831.387206,-0.011658,0.00824,-0.99176,0.35826,0.462901,-0.069924,40,268,586,6176
1644190831.435623,-0.012207,0.011658,-0.991333,0.327725,0.340763,-0.054656,48,269,585,6224
1644190831.484025,-0.009766,0.010681,-0.990173,0.266656,0.401832,-0.222595,45,270,582,6256
1644190831.533836,-0.011475,0.00824,-0.992859,0.205588,0.417099,-0.069924,46,274,592,6192
1644190831.584085,-0.006531,0.010071,-0.990662,0.220855,0.417099,-0.054656,52,277,589,6224
1644190831.634257,-0.009277,0.010254,-0.989502,0.129252,0.508702,-0.054656,49,273,575,6256
1644190831.678927,-0.007751,0.009277,-0.99231,0.205588,0.386565,-0.054656,46,286,576,6224
1644190831.774382,-0.00946,0.011414,-0.989868,0.35826,0.386565,-0.100458,45,270,586,6160
1644190831.822763,-0.004089,0.010864,-0.992737,0.113985,0.478168,-0.054656,41,271,578,6240
1644190831.871165,-0.00769,0.013245,-0.992859,0.236122,0.294962,0.021679,51,269,578,6240
1644190831.919561,-0.008667,0.009644,-0.992981,0.281924,0.432366,-0.14626,40,285,589,6256
1644190831.967941,-0.008911,0.010071,-0.990356,0.35826,0.447634,-0.024122,49,275,582,6192
1644190832.016335,-0.009827,0.010071,-0.992004,0.404061,0.432366,-0.192061,49,277,589,6224
1644190832.068119,-0.00824,0.010681,-0.990845,0.159786,0.493435,-0.14626,46,283,576,6240
1644190832.11325,-0.007385,0.010071,-0.991821,0.08345,0.493435,-0.054656,40,277,582,6224
1644190832.161488,-0.008667,0.008667,-0.991882,0.159786,0.539237,-0.024122,51,283,583,6160
1644190832.209882,-0.009705,0.010437,-0.990479,0.113985,0.294962,-0.268397,54,270,586,6160
1644190832.258275,-0.01001,0.011047,-0.99353,0.251389,0.462901,-0.283664,54,280,584,6128
1644190832.306647,-0.00824,0.010254,-0.991516,0.205588,0.615573,0.006412,41,281,583,6240
1644190832.35517,-0.006897,0.008789,-0.992188,0.098718,0.356031,-0.008855,46,283,592,6224
1644190832.403461,-0.007996,0.008484,-0.991882,0.159786,0.539237,-0.039389,46,276,578,6224
1644190832.451843,-0.005615,0.010864,-0.992737,0.220855,0.356031,-0.329466,41,279,592,6224
1644190832.500231,-0.008057,0.008728,-0.991028,0.190321,0.462901,-0.100458,52,268,598,6224
1644190832.548636,-0.009827,0.008545,-0.989014,0.175053,0.478168,-0.115725,46,276,594,6224
1644190832.59701,-0.009521,0.01123,-0.991089,0.113985,0.432366,0.052214,39,274,578,6160
1644190832.645414,-0.006653,0.010132,-0.991089,0.220855,0.371298,-0.039389,45,273,584,6240
1644190832.693855,-0.007996,0.009155,-0.992554,0.159786,0.508702,-0.14626,49,270,579,6224
1644190832.743997,-0.007019,0.009888,-0.99054,0.342992,0.401832,-0.130992,52,270,589,6176
1644190832.794355,-0.008789,0.006287,-0.990967,0.144519,0.417099,-0.069924,41,281,580,6224
1644190832.839954,-0.008667,0.009949,-0.991211,0.281924,0.325496,-0.069924,54,280,586,6224
1644190832.935777,-0.009521,0.011292,-0.99231,0.266656,0.340763,-0.039389,46,266,576,6224
1644190832.984195,-0.011536,0.008606,-0.994202,0.220855,0.417099,-0.115725,46,274,583,6240
1644190833.032602,-0.00946,0.008911,-0.98999,0.266656,0.417099,-0.14626,46,274,583,6240
1644190833.081061,-0.009277,0.012573,-0.990906,0.220855,0.447634,-0.039389,49,275,586,6256
1644190833.129327,-0.009705,0.009888,-0.989807,0.251389,0.401832,-0.100458,54,273,582,6304
1644190833.177726,-0.007751,0.01062,-0.993713,0.098718,0.371298,-0.008855,48,279,587,6192
1644190833.226126,-0.009521,0.010681,-0.992188,0.159786,0.218626,-0.054656,45,265,589,6240
1644190833.274539,-0.008545,0.012756,-0.992432,0.129252,0.386565,-0.130992,47,273,582,6176
1644190833.322916,-0.00769,0.011414,-0.992981,0.144519,0.325496,-0.100458,57,285,589,6240
1644190833.371278,-0.008606,0.009827,-0.992859,0.129252,0.401832,-0.115725,45,287,582,6224
1644190833.419688,-0.006348,0.009766,-0.993958,0.144519,0.417099,-0.207328,51,281,573,6192
1644190833.468104,-0.007202,0.010193,-0.989075,0.175053,0.294962,-0.054656,41,283,580,6240
1644190833.516486,-0.008728,0.009094,-0.99231,0.068183,0.340763,0.052214,45,270,591,6288
1644190833.564878,-0.011475,0.009949,-0.98877,0.388794,0.478168,-0.176794,49,285,598,6176
1644190833.613275,-0.00885,0.008057,-0.992004,0.113985,0.294962,-0.25313,55,274,585,6224
1644190833.661673,-0.011292,0.007812,-0.992554,0.35826,0.447634,-0.115725,52,273,586,6224
1644190833.710064,-0.004639,0.008911,-0.991089,0.236122,0.447634,-0.085191,57,280,586,6080
1644190833.758784,-0.008301,0.006653,-0.994751,0.236122,0.447634,-0.024122,54,270,586,6192
1644190833.80859,-0.007507,0.009399,-0.993958,0.251389,0.401832,0.021679,53,274,590,6240
1644190833.858967,-0.006897,0.012024,-0.990479,0.434595,0.432366,-0.054656,47,280,584,6224
1644190833.909285,-0.007202,0.010559,-0.992065,0.159786,0.371298,-0.115725,47,268,582,6176
1644190834.000456,-0.007812,0.009216,-0.990479,-0.008153,0.417099,0.036947,51,286,576,6224
1644190834.067054,-0.009399,0.009277,-0.992554,0.281924,0.585038,-0.039389,54,273,586,6288
1644190834.102362,-0.008789,0.009583,-0.991394,0.251389,0.386565,-0.25313,47,275,591,6224
1644190834.145591,-0.008606,0.009949,-0.995544,0.266656,0.264427,-0.024122,54,277,593,6240
1644190834.193988,-0.008972,0.009216,-0.990845,0.190321,0.493435,-0.14626,57,273,584,6256
1644190834.242365,-0.009644,0.009155,-0.992554,0.205588,0.493435,0.036947,54,263,589,6256
1644190834.290773,-0.008057,0.010681,-0.993774,0.342992,0.386565,-0.100458,54,270,589,6256
1644190834.339164,-0.008789,0.007874,-0.99176,0.236122,0.417099,-0.054656,41,274,594,6176
1644190834.387528,-0.005676,0.011169,-0.989868,0.129252,0.478168,-0.039389,41,266,578,6224
1644190834.435942,-0.009949,0.008301,-0.993225,0.281924,0.462901,0.006412,51,271,592,6224
1644190834.484351,-0.008362,0.008789,-0.992493,0.388794,0.432366,-0.039389,42,280,579,6240
1644190834.533463,-0.008484,0.009949,-0.994629,0.251389,0.447634,-0.115725,53,271,585,6240
1644190834.584219,-0.00824,0.008911,-0.989807,0.175053,0.523969,-0.069924,48,279,583,6256
1644190834.634104,-0.009888,0.005066,-0.99115,0.35826,0.432366,-0.100458,48,283,583,6224
1644190834.679139,-0.007629,0.010071,-0.992126,0.327725,0.493435,0.021679,61,265,596,6224
1644190834.774863,-0.008301,0.009888,-0.992554,0.281924,0.371298,-0.161527,53,281,583,6192
1644190834.823132,-0.012024,0.011475,-0.992676,0.312458,0.462901,-0.14626,46,276,573,6128
1644190834.871533,-0.010193,0.011902,-0.989258,0.327725,0.340763,-0.329466,51,269,585,6224
1644190834.919904,-0.005981,0.008423,-0.991211,0.35826,0.401832,-0.130992,54,275,589,6192
1644190834.968308,-0.006409,0.009399,-0.988892,0.251389,0.615573,-0.024122,40,275,579,6224
1644190835.016711,-0.006042,0.009583,-0.99176,0.022382,0.493435,-0.085191,48,276,583,6224
1644190835.067489,-0.009888,0.009888,-0.991821,0.236122,0.417099,-0.024122,52,277,575,6192
1644190835.11353,-0.009521,0.009888,-0.99408,0.220855,0.356031,-0.008855,51,281,578,6288
1644190835.161845,-0.008362,0.011047,-0.993774,0.297191,0.447634,-0.222595,48,279,583,6224
1644190835.210246,-0.009338,0.00946,-0.988586,0.220855,0.585038,-0.100458,52,270,589,6224
1644190835.258634,-0.010742,0.009277,-0.992188,0.175053,0.340763,-0.008855,58,276,583,6192
1644190835.307005,-0.006409,0.00824,-0.99231,0.236122,0.478168,-0.039389,46,269,592,6176
1644190835.355415,-0.012695,0.009277,-0.990662,0.08345,0.356031,-0.054656,40,277,579,6240
1644190835.403812,-0.006409,0.010193,-0.989807,0.236122,0.447634,-0.115725,51,274,597,6224
1644190835.452233,-0.00824,0.012024,-0.992676,0.236122,0.371298,-0.14626,48,269,587,6240
1644190835.500607,-0.011108,0.010376,-0.990356,0.220855,0.508702,-0.054656,46,274,576,6256
1644190835.548992,-0.010315,0.008301,-0.991211,0.35826,0.432366,-0.115725,53,281,587,6288
1644190835.597381,-0.009277,0.011108,-0.991638,0.236122,0.554504,-0.192061,43,266,587,6288
1644190835.645754,-0.009644,0.010376,-0.987915,0.266656,0.432366,-0.008855,49,270,582,6192
1644190835.694186,-0.010986,0.008789,-0.989746,0.266656,0.478168,0.036947,57,280,586,6224
1644190835.744384,-0.010254,0.011353,-0.993042,0.144519,0.539237,0.113282,47,277,582,6176
1644190835.794765,-0.009399,0.009521,-0.989258,0.098718,0.264427,-0.069924,51,269,583,6240
1644190835.839842,-0.00824,0.009521,-0.994263,0.251389,0.462901,-0.039389,54,273,579,6240
1644190835.93614,-0.005066,0.00946,-0.991638,0.251389,0.294962,-0.039389,47,265,591,6224
1644190835.984845,-0.008606,0.008972,-0.993408,0.373527,0.386565,-0.207328,59,273,584,6240
1644190836.032987,-0.009338,0.012268,-0.991394,0.129252,0.539237,-0.008855,47,275,591,6240
1644190836.082331,-0.009827,0.00885,-0.989746,0.404061,0.371298,0.036947,55,274,592,6224
1644190836.129742,-0.009888,0.011841,-0.991821,0.297191,0.356031,-0.14626,48,279,583,6288
1644190836.17811,-0.010254,0.010132,-0.992676,0.281924,0.325496,-0.069924,46,271,592,6256
1644190836.226488,-0.009216,0.010376,-0.992737,0.281924,0.432366,-0.176794,51,279,583,6240
1644190836.274874,-0.010864,0.011047,-0.992371,0.205588,0.310229,-0.207328,51,274,583,6240
1644190836.32329,-0.00946,0.013062,-0.991028,0.327725,0.676641,-0.069924,54,275,591,6240
1644190836.371668,-0.006348,0.011353,-0.993164,0.129252,0.356031,-0.054656,48,286,576,6192
1644190836.420048,-0.007568,0.011475,-0.992188,0.175053,0.493435,-0.085191,49,268,584,6224
1644190836.468461,-0.007324,0.008423,-0.992554,0.220855,0.294962,-0.039389,55,281,578,6160
1644190836.516844,-0.009033,0.009521,-0.99115,0.129252,0.417099,0.098015,49,273,579,6224
1644190836.56528,-0.007996,0.014221,-0.991943,0.327725,0.325496,-0.115725,46,279,585,6160
1644190836.613648,-0.008545,0.007019,-0.990112,0.327725,0.447634,-0.024122,57,270,579,6160
1644190836.662029,-0.007751,0.008728,-0.992004,0.266656,0.310229,-0.130992,53,276,585,6256
1644190836.710417,-0.009766,0.008972,-0.991211,0.190321,0.478168,-0.14626,45,275,586,6224
1644190836.758818,-0.009277,0.010559,-0.98999,0.08345,0.432366,-0.039389,52,280,593,6192
1644190836.807207,-0.006653,0.007385,-0.991333,0.236122,0.585038,-0.161527,48,286,585,6192
1644190836.856314,-0.010193,0.012146,-0.993225,0.205588,0.462901,0.082748,53,279,585,6240
1644190836.90687,-0.007019,0.010254,-0.989258,0.113985,0.417099,-0.100458,49,268,584,6128
1644190836.957383,-0.011841,0.011169,-0.990417,0.144519,0.371298,0.006412,49,277,582,6224
1644190837.001741,-0.009094,0.010071,-0.992493,0.08345,0.218626,-0.130992,49,273,582,6192
1644190837.102756,-0.00946,0.010986,-0.993347,0.190321,0.386565,-0.085191,60,279,585,6224
1644190837.145961,-0.008423,0.008606,-0.992126,0.297191,0.417099,-0.130992,57,265,586,6240
1644190837.194367,-0.00769,0.008484,-0.991394,0.236122,0.478168,-0.008855,55,271,587,6176
1644190837.242762,-0.007324,0.011047,-0.990234,0.175053,0.417099,-0.237863,42,282,577,6160
1644190837.291127,-0.008423,0.01178,-0.991577,0.144519,0.539237,-0.115725,49,268,572,6160
1644190837.339535,-0.006287,0.012512,-0.992065,0.251389,0.432366,0.021679,49,282,579,6160
1644190837.387922,-0.006897,0.008606,-0.99176,0.281924,0.386565,-0.268397,46,279,592,6160
1644190837.436297,-0.008179,0.009583,-0.991577,0.175053,0.356031,-0.085191,47,275,579,6224
1644190837.484715,-0.010132,0.008911,-0.991272,0.205588,0.371298,0.036947,49,273,584,6160
1644190837.533129,-0.008972,0.011536,-0.992249,0.236122,0.523969,-0.176794,46,286,592,6224
1644190837.581503,-0.007996,0.009583,-0.990906,0.175053,0.233893,-0.069924,49,273,586,6176
1644190837.629892,-0.009216,0.009277,-0.99231,0.175053,0.310229,0.052214,43,274,583,6240
1644190837.678272,-0.008789,0.011047,-0.992615,0.129252,0.325496,-0.054656,49,265,584,6256
1644190837.726676,-0.009155,0.009766,-0.990112,0.144519,0.462901,-0.161527,48,283,580,6224
1644190837.775195,-0.008362,0.008972,-0.99353,0.08345,0.462901,-0.130992,55,283,583,6160
1644190837.823454,-0.008911,0.009155,-0.989075,0.35826,0.356031,-0.115725,46,274,587,6240
1644190837.872251,-0.011902,0.01062,-0.993347,0.129252,0.478168,-0.130992,51,281,580,6224
1644190837.922774,-0.009033,0.009949,-0.989685,0.190321,0.539237,-0.207328,52,277,589,6224
1644190837.972986,-0.007629,0.011047,-0.993286,0.220855,0.264427,-0.176794,42,287,591,6240
1644190838.017596,-0.008362,0.009949,-0.990234,0.175053,0.462901,-0.039389,52,275,577,6240
1644190838.1139,-0.010986,0.008179,-0.991943,0.434595,0.371298,-0.161527,47,280,584,6240
1644190838.162272,-0.011902,0.009155,-0.98999,0.220855,0.325496,-0.100458,38,282,579,6240
1644190838.210599,-0.00824,0.011475,-0.990662,0.144519,0.340763,-0.085191,52,280,577,6224
1644190838.258978,-0.006714,0.009033,-0.990295,0.236122,0.294962,-0.161527,42,277,575,6304
1644190838.307386,-0.010132,0.00946,-0.993164,0.281924,0.447634,0.036947,41,276,585,6256
1644190838.355765,-0.007935,0.009644,-0.992493,0.159786,0.432366,-0.14626,43,279,580,6224
1644190838.404168,-0.010498,0.010681,-0.992737,0.190321,0.340763,-0.161527,52,275,584,6224
1644190838.452595,-0.007446,0.007385,-0.991455,0.159786,0.310229,0.052214,49,277,584,6176
1644190838.500945,-0.00647,0.010986,-0.98877,0.205588,0.508702,-0.024122,61,277,577,6256
1644190838.549359,-0.007629,0.009094,-0.992004,0.205588,0.325496,-0.069924,54,277,589,6128
1644190838.597754,-0.007629,0.007385,-0.991699,0.159786,0.417099,-0.100458,54,280,591,6240
1644190838.64615,-0.007935,0.00824,-0.991272,0.205588,0.340763,-0.008855,49,270,577,6256
1644190838.694631,-0.008606,0.008789,-0.990967,0.342992,0.539237,-0.115725,60,279,578,6288
1644190838.74294,-0.007385,0.005859,-0.990051,0.266656,0.432366,0.052214,57,275,586,6224
1644190838.791317,-0.008728,0.007568,-0.991272,0.129252,0.310229,-0.14626,54,268,586,6240
1644190838.839701,-0.01062,0.012024,-0.993347,0.297191,0.310229,-0.161527,46,286,592,6240
1644190838.888145,-0.008118,0.007568,-0.991028,0.175053,0.386565,0.052214,48,264,587,6224
1644190838.93689,-0.006348,0.006042,-0.990356,0.312458,0.386565,-0.039389,55,271,590,6256
1644190838.984961,-0.006897,0.009033,-0.98938,0.266656,0.508702,0.021679,47,280,589,6256
1644190839.035048,-0.005737,0.008057,-0.990051,0.144519,0.340763,-0.130992,47,268,577,6192
1644190839.089503,-0.009399,0.009644,-0.991211,0.205588,0.386565,0.052214,52,270,579,6224
1644190839.134345,-0.008545,0.012512,-0.990845,0.266656,0.310229,-0.192061,48,271,576,6256
1644190839.179329,-0.006104,0.011292,-0.994263,0.327725,0.356031,-0.222595,42,273,586,6224
1644190839.275401,-0.01001,0.009705,-0.990601,0.175053,0.447634,-0.024122,49,263,591,6224
1644190839.323634,-0.008728,0.009033,-0.991211,0.266656,0.294962,-0.024122,47,273,586,6240
1644190839.372031,-0.009583,0.007263,-0.992188,0.251389,0.417099,-0.085191,47,277,584,6176
1644190839.420429,-0.007507,0.010071,-0.992554,0.159786,0.523969,-0.100458,53,271,578,6256
1644190839.468817,-0.00769,0.009644,-0.990723,0.037649,0.554504,0.067481,49,277,584,6224
1644190839.517223,-0.009277,0.008484,-0.989929,0.190321,0.478168,-0.008855,54,285,579,6128
1644190839.565606,-0.008057,0.011963,-0.992126,0.281924,0.447634,-0.039389,52,273,579,6256
1644190839.614007,-0.008667,0.011169,-0.99115,0.052916,0.325496,-0.161527,57,280,589,6224
1644190839.662389,-0.009705,0.010498,-0.990662,0.373527,0.264427,-0.14626,42,265,586,6112
1644190839.710793,-0.010132,0.010803,-0.993591,0.159786,0.417099,0.082748,51,276,587,6288
1644190839.759185,-0.005371,0.01062,-0.990784,0.190321,0.340763,0.036947,52,270,582,6256
1644190839.807611,-0.009399,0.008972,-0.992859,0.220855,0.417099,0.006412,49,275,572,6176
1644190839.855992,-0.007935,0.005859,-0.989746,0.220855,0.493435,-0.14626,48,281,576,6224
1644190839.904436,-0.005005,0.007874,-0.989807,0.327725,0.294962,-0.024122,48,281,587,6160
1644190839.952807,-0.007812,0.008789,-0.991333,0.220855,0.523969,0.006412,51,269,583,6192
1644190840.001163,-0.00592,0.011719,-0.991577,0.159786,0.279695,-0.054656,48,274,585,6224
1644190840.068537,-0.005066,0.008545,-0.989441,0.35826,0.447634,-0.14626,43,279,578,6256
1644190840.09922,-0.008667,0.011292,-0.990723,0.190321,0.478168,-0.069924,54,285,584,6224
1644190840.14634,-0.006592,0.011719,-0.99353,0.159786,0.432366,0.036947,52,277,584,6224
1644190840.195381,-0.008301,0.010132,-0.987854,0.327725,0.478168,-0.008855,39,274,587,6304
1644190840.246315,-0.005249,0.010681,-0.987671,0.205588,0.386565,-0.115725,45,275,593,6256
1644190840.296566,-0.007568,0.01178,-0.990906,0.266656,0.310229,-0.192061,49,260,582,6256
1644190840.388281,-0.007568,0.009277,-0.989563,0.190321,0.478168,-0.069924,51,276,583,6176
1644190840.436658,-0.006409,0.01123,-0.992126,0.144519,0.417099,-0.283664,61,280,577,6336
1644190840.485306,-0.009705,0.010376,-0.991516,0.236122,0.539237,-0.161527,52,273,586,6192
1644190840.533475,-0.007629,0.009827,-0.993164,0.037649,0.523969,-0.069924,47,275,575,6192
1644190840.581855,-0.007385,0.011169,-0.989868,0.342992,0.356031,-0.054656,38,280,582,6240
1644190840.630258,-0.009033,0.010559,-0.992065,0.190321,0.417099,-0.161527,52,290,586,6256
1644190840.678639,-0.006897,0.012207,-0.988831,0.327725,0.508702,-0.085191,61,270,584,6240
1644190840.727026,-0.007629,0.011414,-0.990784,0.190321,0.356031,-0.161527,54,270,593,6224
1644190840.775428,-0.010559,0.008545,-0.989685,0.129252,0.478168,-0.207328,43,281,583,6224
1644190840.823879,-0.007202,0.007996,-0.990967,0.220855,0.24916,-0.024122,53,276,587,6224
1644190840.872353,-0.008667,0.009338,-0.99469,0.144519,0.478168,-0.100458,58,283,590,6256
1644190840.920662,-0.008362,0.009949,-0.993042,0.159786,0.432366,-0.222595,45,277,586,6288
1644190840.96905,-0.00769,0.009949,-0.992188,0.144519,0.356031,-0.115725,57,275,584,6240
1644190841.017418,-0.009094,0.011169,-0.99115,0.205588,0.264427,0.036947,45,285,589,6240
1644190841.07297,-0.007385,0.010193,-0.991821,0.175053,0.371298,-0.100458,45,275,577,6240
1644190841.114786,-0.009277,0.008423,-0.992249,0.098718,0.310229,-0.207328,47,273,582,6240
1644190841.162598,-0.008484,0.01001,-0.991394,0.190321,0.478168,-0.161527,48,279,576,6224
1644190841.210968,-0.007141,0.007263,-0.990662,0.281924,0.432366,-0.069924,51,276,590,6192
1644190841.25936,-0.009277,0.010071,-0.992126,0.236122,0.401832,-0.008855,49,268,591,6160
1644190841.308001,-0.010986,0.008118,-0.989807,0.205588,0.325496,-0.130992,48,274,585,6192
1644190841.358535,-0.007202,0.008911,-0.990845,0.08345,0.417099,-0.192061,49,275,582,6256
1644190841.408628,-0.01062,0.012329,-0.991211,0.434595,0.447634,-0.100458,57,275,584,6224
1644190841.453689,-0.010437,0.008179,-0.990845,0.205588,0.264427,-0.100458,57,273,582,6176
1644190841.549722,-0.007629,0.010071,-0.993958,0.220855,0.508702,-0.192061,57,280,582,6192
1644190841.598094,-0.007629,0.009155,-0.993042,0.205588,0.401832,-0.222595,47,287,582,6240
1644190841.646529,-0.007568,0.008362,-0.994202,0.129252,0.294962,-0.024122,57,280,582,6224
1644190841.694891,-0.01178,0.010498,-0.991577,0.190321,0.356031,-0.069924,47,275,577,6176
1644190841.743287,-0.009216,0.009766,-0.990051,0.281924,0.493435,-0.085191,48,274,578,6224
1644190841.791688,-0.008362,0.011047,-0.991272,0.190321,0.386565,0.067481,45,275,575,6240
1644190841.840119,-0.009888,0.00885,-0.992554,0.175053,0.478168,-0.085191,48,276,583,6224
1644190841.88852,-0.008484,0.009033,-0.988953,0.098718,0.356031,-0.054656,42,268,589,6240
1644190841.936907,-0.011047,0.00885,-0.99231,0.266656,0.432366,-0.085191,40,268,575,6176
1644190841.985305,-0.00769,0.012634,-0.98877,0.098718,0.386565,-0.008855,49,273,584,6240
1644190842.033699,-0.00647,0.010864,-0.994385,0.312458,0.447634,-0.14626,40,275,577,6192
1644190842.090602,-0.00708,0.01062,-0.987305,0.266656,0.478168,0.021679,42,273,579,6240
1644190842.130455,-0.007507,0.010498,-0.990784,0.251389,0.447634,-0.039389,43,279,573,6256
1644190842.178835,-0.008057,0.008728,-0.990662,0.236122,0.386565,-0.161527,48,262,597,6224
1644190842.227211,-0.007996,0.008606,-0.991943,0.175053,0.447634,-0.115725,49,282,589,6176
1644190842.275608,-0.009155,0.008789,-0.990112,0.236122,0.310229,-0.008855,57,273,591,6240
1644190842.324205,-0.006775,0.012085,-0.992432,0.342992,0.294962,-0.085191,54,277,589,6288
1644190842.374588,-0.009949,0.007935,-0.991394,0.175053,0.493435,-0.069924,49,277,586,6224
1644190842.424988,-0.009155,0.008362,-0.990967,0.236122,0.539237,0.052214,49,268,586,6256
1644190842.469884,-0.01062,0.010071,-0.990356,0.312458,0.371298,-0.176794,48,276,578,6224
1644190842.565954,-0.006165,0.013123,-0.990967,0.342992,0.340763,-0.069924,45,270,586,6176
1644190842.614356,-0.010132,0.012024,-0.992737,0.190321,0.401832,0.021679,46,274,590,6304
1644190842.662765,-0.009399,0.011719,-0.990601,0.205588,0.417099,-0.100458,52,277,579,6256
1644190842.711138,-0.011414,0.010071,-0.991211,0.175053,0.462901,-0.008855,49,273,582,6240
1644190842.759516,-0.006897,0.010254,-0.991028,0.098718,0.371298,-0.085191,55,279,592,6192
1644190842.807926,-0.009949,0.01001,-0.990173,0.190321,0.478168,-0.14626,51,279,578,6240
1644190842.856361,-0.00885,0.010071,-0.991272,0.159786,0.264427,-0.085191,54,277,589,6224
1644190842.904746,-0.010925,0.00946,-0.993347,0.113985,0.401832,-0.115725,51,276,583,6176
1644190842.953163,-0.011353,0.009277,-0.992065,0.08345,0.462901,-0.039389,49,275,589,6224
1644190843.001545,-0.009644,0.008484,-0.990967,0.236122,0.340763,-0.130992,49,277,586,6224
1644190843.069955,-0.006409,0.01062,-0.992188,0.312458,0.279695,-0.161527,55,283,578,6224
1644190843.098646,-0.007141,0.008057,-0.98938,0.190321,0.325496,0.113282,48,279,585,6224
1644190843.146688,-0.008301,0.009338,-0.991638,0.251389,0.356031,-0.069924,55,276,585,6224
1644190843.195281,-0.009277,0.013123,-0.992065,0.08345,0.432366,-0.039389,43,274,590,6288
1644190843.243472,-0.008972,0.009216,-0.99231,0.312458,0.310229,-0.039389,51,276,587,6256
1644190843.291873,-0.008301,0.009827,-0.993347,0.266656,0.447634,-0.115725,52,277,584,6224
1644190843.340255,-0.011047,0.010986,-0.992004,0.190321,0.508702,-0.14626,52,275,582,6192
1644190843.388654,-0.008545,0.008362,-0.993286,0.434595,0.478168,0.113282,52,273,584,6224
1644190843.437075,-0.009033,0.011658,-0.992004,0.022382,0.432366,-0.192061,40,270,586,6192
1644190843.485966,-0.010681,0.009949,-0.994019,0.236122,0.417099,-0.024122,57,265,593,6128
1644190843.536546,-0.006592,0.010315,-0.993408,0.129252,0.478168,-0.130992,51,271,592,6240
1644190843.586655,-0.009399,0.010437,-0.990356,0.35826,0.279695,0.021679,52,258,586,6240
1644190843.631615,-0.007935,0.011169,-0.993835,0.129252,0.493435,-0.008855,49,275,572,6256
1644190843.727387,-0.010254,0.010986,-0.991821,0.113985,0.340763,-0.085191,52,270,593,6160
1644190843.775779,-0.010254,0.009216,-0.992004,0.144519,0.386565,-0.008855,55,276,580,6224
1644190843.824195,-0.006775,0.011841,-0.991943,0.251389,0.386565,-0.100458,51,279,583,6256
1644190843.872604,-0.007263,0.011841,-0.991943,0.220855,0.356031,-0.069924,49,270,577,6240
1644190843.92101,-0.007996,0.01062,-0.99054,0.144519,0.325496,-0.100458,51,279,583,6176
1644190843.969416,-0.007385,0.011536,-0.991272,0.175053,0.294962,-0.130992,55,283,587,6192
1644190844.017806,-0.00592,0.006287,-0.990112,0.068183,0.493435,-0.100458,49,280,579,6256
1644190844.066391,-0.008179,0.012695,-0.993286,0.190321,0.386565,-0.130992,34,279,590,6176
1644190844.114634,-0.008606,0.011169,-0.992798,0.312458,0.508702,-0.069924,51,271,578,6224
1644190844.162957,-0.009399,0.012268,-0.991272,0.388794,0.493435,-0.069924,51,286,592,6240
1644190844.211316,-0.007568,0.01123,-0.991638,0.220855,0.233893,-0.161527,40,280,575,6224
1644190844.259701,-0.009766,0.00885,-0.990845,0.175053,0.310229,0.159084,54,275,582,6224
1644190844.30812,-0.005981,0.008057,-0.992737,0.297191,0.447634,-0.069924,41,279,576,6240
1644190844.356519,-0.008057,0.009705,-0.99231,0.266656,0.478168,-0.207328,58,276,585,6240
1644190844.404891,-0.011414,0.009766,-0.991699,0.175053,0.401832,0.006412,53,276,585,6224
1644190844.453296,-0.01001,0.010925,-0.990112,0.098718,0.279695,-0.085191,45,275,586,6224
1644190844.501666,-0.007874,0.01001,-0.990967,0.281924,0.508702,-0.069924,54,273,589,6192
1644190844.550084,-0.008911,0.010132,-0.993164,0.175053,0.493435,0.052214,46,262,583,6224
1644190844.598799,-0.009827,0.007629,-0.991211,0.113985,0.432366,-0.069924,47,275,584,6240
1644190844.647929,-0.009644,0.012085,-0.992676,0.144519,0.310229,-0.085191,51,274,592,6176
1644190844.698804,-0.010193,0.007751,-0.99408,0.175053,0.386565,-0.115725,41,279,587,6224
1644190844.748529,-0.008789,0.007141,-0.992065,0.236122,0.417099,-0.237863,59,275,584,6192
1644190844.84047,-0.009216,0.006836,-0.994934,0.297191,0.447634,-0.115725,47,270,584,6176
1644190844.888881,-0.007874,0.009521,-0.99353,0.220855,0.371298,0.052214,47,275,582,6192
1644190844.937268,-0.009888,0.006775,-0.991821,0.312458,0.401832,-0.069924,47,287,589,6224
1644190844.985657,-0.00824,0.009888,-0.990784,0.572,0.401832,0.021679,40,275,584,6240
1644190845.03407,-0.008911,0.006653,-0.993469,0.266656,0.386565,-0.008855,46,276,585,6240
1644190845.082546,-0.009399,0.010132,-0.992432,0.373527,0.386565,0.021679,52,282,589,6224
1644190845.130801,-0.008789,0.010071,-0.993347,0.113985,0.478168,-0.054656,42,268,591,6224
1644190845.179193,-0.005981,0.011353,-0.990723,0.220855,0.279695,-0.054656,43,279,580,6224
1644190845.227622,-0.009766,0.011414,-0.990112,0.434595,0.386565,0.021679,51,281,578,6224
1644190845.275979,-0.008606,0.011414,-0.990479,0.159786,0.539237,-0.085191,48,274,585,6256
1644190845.324378,-0.006409,0.01178,-0.991638,0.312458,0.356031,-0.039389,47,277,582,6176
1644190845.372781,-0.006958,0.009399,-0.990051,0.297191,0.233893,-0.054656,43,274,585,6224
1644190845.421161,-0.010437,0.010437,-0.992676,0.068183,0.462901,-0.069924,54,285,575,6256
1644190845.469558,-0.009338,0.011719,-0.990356,0.159786,0.401832,0.006412,42,277,582,6240
1644190845.51795,-0.006592,0.01001,-0.992188,0.373527,0.493435,-0.085191,46,279,590,6304
1644190845.566339,-0.008728,0.011108,-0.990723,0.281924,0.508702,0.006412,49,275,586,6304
1644190845.614732,-0.009216,0.008545,-0.991272,0.342992,0.401832,-0.039389,55,279,594,6224
1644190845.663127,-0.011963,0.00946,-0.990906,0.266656,0.401832,0.021679,45,273,584,6256
1644190845.711777,-0.004761,0.00769,-0.991882,0.220855,0.356031,0.006412,45,273,579,6256
1644190845.760665,-0.008667,0.010254,-0.99353,0.236122,0.493435,-0.024122,53,279,587,6192
1644190845.81111,-0.009155,0.009033,-0.989319,0.205588,0.676641,-0.100458,51,271,578,6240
1644190845.862218,-0.007141,0.01123,-0.990234,0.297191,0.523969,-0.054656,52,280,577,6224
1644190845.906873,-0.008789,0.010925,-0.990051,0.098718,0.356031,0.082748,47,273,589,6176
1644190846.001906,-0.008301,0.010437,-0.990479,0.312458,0.417099,-0.039389,43,279,587,6256
1644190846.067246,-0.007751,0.008301,-0.991638,0.220855,0.523969,-0.115725,52,292,586,6224
1644190846.102586,-0.007202,0.012268,-0.993713,0.236122,0.600305,-0.100458,52,277,589,6256
1644190846.147096,-0.008911,0.011719,-0.990784,0.220855,0.401832,-0.115725,49,273,584,6192
1644190846.195451,-0.006714,0.010376,-0.991577,0.266656,0.417099,-0.054656,49,280,582,6224
1644190846.243869,-0.008972,0.009766,-0.993225,0.129252,0.310229,0.006412,54,275,586,6240
1644190846.292239,-0.011414,0.007263,-0.992676,0.312458,0.310229,0.021679,55,279,585,6240
1644190846.340613,-0.01355,0.010803,-0.992981,0.342992,0.279695,0.036947,49,273,582,6224
1644190846.388988,-0.008484,0.009338,-0.990662,0.159786,0.478168,-0.115725,49,273,577,6256
1644190846.437413,-0.008545,0.007324,-0.989258,0.175053,0.371298,-0.069924,55,281,576,6176
1644190846.485805,-0.010559,0.009216,-0.990662,0.205588,0.386565,-0.008855,53,269,587,6192
1644190846.534475,-0.009094,0.010498,-0.992126,0.159786,0.432366,-0.100458,43,271,587,6240
1644190846.583689,-0.010437,0.00946,-0.990601,0.144519,0.417099,0.067481,51,279,583,6192
1644190846.634015,-0.009216,0.011353,-0.99231,0.251389,0.371298,0.052214,52,280,586,6224
1644190846.684295,-0.00708,0.008972,-0.992981,0.220855,0.462901,-0.054656,58,283,580,6256
1644190846.776154,-0.008484,0.009827,-0.991943,0.251389,0.340763,-0.130992,46,274,583,6160
1644190846.824637,-0.008545,0.009949,-0.98938,0.266656,0.523969,-0.222595,48,266,580,6256
1644190846.872971,-0.007996,0.008606,-0.991943,0.190321,0.493435,-0.14626,41,281,578,6192
1644190846.921379,-0.012207,0.008118,-0.991455,0.175053,0.279695,-0.115725,41,283,580,6224
1644190846.969777,-0.009827,0.01178,-0.992004,-0.008153,0.340763,-0.039389,51,271,583,6224
1644190847.018144,-0.007324,0.010071,-0.993652,0.297191,0.523969,-0.222595,55,274,592,6224
1644190847.068916,-0.009033,0.008606,-0.992126,0.297191,0.325496,-0.14626,48,281,587,6192
1644190847.114915,-0.008545,0.008301,-0.994141,0.342992,0.523969,-0.069924,60,271,587,6240
1644190847.163319,-0.011902,0.009766,-0.993164,0.205588,0.386565,-0.069924,48,281,585,6224
1644190847.211701,-0.006165,0.008728,-0.991028,0.312458,0.462901,0.006412,47,277,582,6240
1644190847.260105,-0.012817,0.009033,-0.994873,0.113985,0.447634,-0.054656,53,271,590,6176
1644190847.308469,-0.008911,0.009216,-0.990112,0.220855,0.371298,-0.207328,49,273,579,6240
1644190847.356849,-0.009827,0.007996,-0.991882,0.159786,0.14229,-0.039389,47,285,586,6224
1644190847.40529,-0.00824,0.009338,-0.992676,0.159786,0.432366,-0.069924,51,279,587,6240
1644190847.453662,-0.008545,0.009583,-0.992432,0.190321,0.325496,-0.100458,43,276,597,6256
1644190847.502038,-0.010254,0.012695,-0.990967,0.175053,0.478168,0.036947,46,279,587,6224
1644190847.550455,-0.007568,0.010559,-0.992798,0.312458,0.447634,0.021679,55,271,587,6256
1644190847.598836,-0.008423,0.009521,-0.990051,0.175053,0.493435,-0.024122,57,277,582,6224
1644190847.64723,-0.010132,0.010132,-0.990967,0.251389,0.386565,0.036947,46,269,585,6224
1644190847.69586,-0.008728,0.008545,-0.991089,0.205588,0.508702,-0.100458,55,276,585,6224
1644190847.74635,-0.008057,0.011902,-0.992249,0.052916,0.325496,-0.024122,42,285,584,6224
1644190847.797004,-0.00531,0.009583,-0.99292,0.190321,0.371298,0.006412,54,273,589,6240
1644190847.841997,-0.009338,0.01123,-0.992432,0.297191,0.447634,-0.161527,53,281,583,6224
1644190847.937629,-0.009399,0.011169,-0.991455,0.236122,0.447634,-0.115725,45,285,589,6224
1644190847.986012,-0.008545,0.008423,-0.991699,0.220855,0.478168,-0.085191,42,273,582,6224
1644190848.034415,-0.007874,0.012268,-0.994385,0.175053,0.523969,-0.039389,55,276,576,6240
1644190848.082896,-0.007996,0.010498,-0.992249,0.144519,0.401832,-0.069924,45,275,582,6192
1644190848.131171,-0.007141,0.010376,-0.994324,0.175053,0.493435,-0.085191,52,280,582,6192
1644190848.179569,-0.009216,0.010193,-0.991577,0.190321,0.356031,-0.298931,49,270,577,6240
1644190848.227952,-0.010193,0.008545,-0.990356,0.190321,0.386565,0.082748,46,279,580,6160
1644190848.27632,-0.008057,0.00885,-0.992859,0.266656,0.417099,-0.100458,60,274,590,6224
1644190848.32472,-0.008301,0.008606,-0.99231,0.251389,0.432366,-0.054656,51,274,576,6288
1644190848.373149,-0.011536,0.009033,-0.992493,0.251389,0.310229,0.067481,48,279,580,6240
1644190848.421526,-0.009705,0.00769,-0.993408,0.266656,0.478168,-0.069924,51,271,583,6224
1644190848.469924,-0.009766,0.010681,-0.992615,0.007115,0.356031,-0.176794,49,275,582,6224
1644190848.518289,-0.007996,0.010986,-0.990723,0.144519,0.356031,-0.024122,64,280,586,6224
1644190848.566711,-0.012146,0.009155,-0.993347,0.159786,0.340763,-0.008855,48,286,583,6256
1644190848.615128,-0.00647,0.008484,-0.993408,0.266656,0.417099,-0.130992,49,280,586,6240
1644190848.663481,-0.008667,0.008789,-0.988525,0.175053,0.508702,-0.069924,54,282,579,6224
1644190848.711883,-0.008606,0.009705,-0.992493,0.220855,0.294962,0.021679,47,273,586,6224
1644190848.760282,-0.009216,0.008667,-0.990967,0.312458,0.508702,-0.039389,40,282,582,6224
1644190848.808718,-0.008789,0.012085,-0.993896,0.129252,0.264427,-0.054656,52,282,593,6176
1644190848.85875,-0.007202,0.009216,-0.994812,0.159786,0.447634,-0.130992,49,273,575,6240
1644190848.909024,-0.007446,0.012329,-0.993469,0.266656,0.508702,-0.161527,53,281,583,6224
1644190848.959204,-0.005554,0.010132,-0.992615,0.220855,0.386565,-0.130992,54,275,582,6160
1644190849.003687,-0.009155,0.01001,-0.990967,0.220855,0.432366,-0.176794,53,279,592,6240
1644190849.099096,-0.011536,0.010681,-0.991333,0.266656,0.325496,-0.130992,40,273,589,6304
1644190849.147407,-0.008423,0.010803,-0.991272,0.159786,0.340763,-0.14626,46,283,585,6224
1644190849.195798,-0.010986,0.010986,-0.990723,0.113985,0.401832,-0.054656,47,273,589,6224
1644190849.244205,-0.005737,0.009888,-0.990662,0.266656,0.523969,-0.115725,54,273,591,6224
1644190849.292594,-0.005615,0.01062,-0.992798,0.205588,0.432366,-0.192061,52,270,586,6240
1644190849.340977,-0.007935,0.009399,-0.990173,0.098718,0.539237,0.006412,54,270,589,6224
1644190849.389395,-0.007263,0.011047,-0.990723,0.404061,0.401832,-0.069924,42,282,589,6224
1644190849.437774,-0.009705,0.01355,-0.99231,0.052916,0.356031,0.067481,60,269,585,6288
1644190849.486164,-0.009705,0.012085,-0.988098,0.236122,0.554504,-0.100458,53,266,583,6224
1644190849.534781,-0.006653,0.008118,-0.992126,0.190321,0.371298,-0.14626,54,277,582,6240
1644190849.582962,-0.009766,0.010559,-0.990967,0.205588,0.615573,0.006412,47,275,572,6256
1644190849.631353,-0.008179,0.01062,-0.990601,0.388794,0.462901,-0.039389,51,286,583,6224
1644190849.679749,-0.005127,0.009888,-0.992004,0.220855,0.508702,-0.039389,57,282,586,6288
1644190849.72814,-0.007202,0.011597,-0.991577,0.205588,0.356031,-0.161527,55,274,585,6256
1644190849.776536,-0.010925,0.010376,-0.993347,0.388794,0.462901,-0.14626,51,279,583,6256
1644190849.825018,-0.010803,0.010315,-0.991943,0.404061,0.493435,0.036947,52,273,584,6240
1644190849.873356,-0.009949,0.006104,-0.990967,0.312458,0.386565,-0.085191,43,266,583,6240
1644190849.922081,-0.00769,0.01001,-0.98761,0.236122,0.386565,-0.100458,48,274,583,6224
1644190849.970157,-0.008606,0.00708,-0.991943,0.175053,0.478168,-0.100458,48,271,590,6224
1644190850.019908,-0.011719,0.008667,-0.990601,0.159786,0.401832,-0.130992,51,276,583,6224
1644190850.092794,-0.009338,0.009583,-0.991699,0.312458,0.462901,-0.100458,47,275,582,6256
1644190850.116265,-0.007874,0.010254,-0.989685,0.205588,0.356031,-0.100458,42,285,600,6176
1644190850.212341,-0.008728,0.009094,-0.99054,0.281924,0.279695,-0.130992,40,275,577,6240
1644190850.260437,-0.009766,0.007141,-0.990417,0.175053,0.417099,-0.130992,52,280,582,6240
1644190850.308846,-0.009827,0.009766,-0.992249,0.205588,0.523969,-0.085191,52,282,577,6256
1644190850.357244,-0.009399,0.009888,-0.990112,0.266656,0.554504,-0.130992,49,280,584,6256
1644190850.405635,-0.010742,0.010681,-0.989807,0.220855,0.371298,-0.039389,42,273,572,6256
1644190850.454037,-0.008728,0.009949,-0.990723,0.175053,0.401832,-0.115725,38,275,589,6256
1644190850.502403,-0.008911,0.012329,-0.991638,0.251389,0.401832,-0.100458,47,273,586,6192
1644190850.550786,-0.012207,0.008789,-0.989197,0.098718,0.462901,-0.130992,46,274,585,6176
1644190850.599216,-0.008057,0.010315,-0.989868,0.144519,0.508702,-0.100458,53,283,578,6224
1644190850.647601,-0.006897,0.009827,-0.992371,0.35826,0.386565,-0.14626,41,269,585,6240
1644190850.695971,-0.011169,0.010071,-0.993164,0.220855,0.661374,-0.100458,52,270,593,6224
1644190850.744408,-0.010376,0.009033,-0.993652,0.068183,0.432366,-0.115725,48,283,585,6192
1644190850.792805,-0.008606,0.012878,-0.991699,0.266656,0.661374,-0.130992,42,287,586,6224
1644190850.841216,-0.008301,0.007507,-0.993347,0.281924,0.386565,-0.039389,57,282,593,6304
1644190850.889617,-0.005615,0.006104,-0.992188,0.068183,0.478168,-0.024122,43,279,576,6288
1644190850.938003,-0.009338,0.009155,-0.991821,0.159786,0.294962,-0.115725,46,288,597,6224
1644190850.986392,-0.009644,0.00885,-0.991089,0.281924,0.24916,-0.161527,46,279,585,6224
1644190851.035072,-0.009094,0.010681,-0.990479,0.327725,0.493435,0.036947,49,280,586,6224
1644190851.084867,-0.008728,0.009399,-0.991455,0.159786,0.386565,-0.100458,62,269,592,6240
1644190851.132885,-0.009705,0.010559,-0.992554,0.190321,0.432366,0.006412,52,270,582,6224
1644190851.182328,-0.007935,0.009033,-0.99115,0.373527,0.447634,-0.054656,48,266,585,6176
1644190851.232434,-0.007629,0.010071,-0.992188,0.190321,0.401832,-0.192061,47,277,591,6224
1644190851.277754,-0.006958,0.007629,-0.994263,0.175053,0.356031,-0.054656,41,279,573,6192
1644190851.373559,-0.008972,0.011353,-0.993103,0.312458,0.218626,-0.268397,48,279,585,6304
1644190851.421879,-0.007507,0.011658,-0.991516,0.113985,0.432366,0.036947,39,274,592,6160
1644190851.470266,-0.010071,0.00824,-0.990479,0.266656,0.447634,-0.100458,51,271,594,6160
1644190851.518639,-0.007568,0.01178,-0.990173,0.281924,0.417099,-0.115725,43,276,573,6192
1644190851.567065,-0.008362,0.011597,-0.99408,0.175053,0.386565,-0.14626,52,273,584,6224
1644190851.615454,-0.00885,0.009766,-0.993042,0.281924,0.279695,-0.069924,45,287,579,6240
1644190851.663856,-0.006592,0.009644,-0.992004,0.129252,0.188092,-0.085191,54,277,586,6224
1644190851.712262,-0.00946,0.011536,-0.990173,0.251389,0.325496,-0.130992,47,285,586,6240
1644190851.760648,-0.009033,0.010559,-0.990295,0.297191,0.310229,0.052214,51,274,585,6224
1644190851.809028,-0.009827,0.011414,-0.99292,0.159786,0.340763,-0.115725,45,280,575,6224
1644190851.857472,-0.00946,0.007812,-0.991272,0.159786,0.600305,-0.054656,55,274,583,6240
1644190851.905864,-0.009277,0.007568,-0.994019,0.08345,0.478168,-0.008855,49,275,591,6224
1644190851.954261,-0.005493,0.00824,-0.989746,0.251389,0.493435,-0.130992,48,269,587,6176
1644190852.002659,-0.006653,0.011414,-0.993164,0.205588,0.401832,-0.130992,40,277,589,6224
1644190852.068752,-0.00824,0.008789,-0.991028,0.297191,0.340763,-0.192061,54,275,591,6224
1644190852.100389,-0.009216,0.014221,-0.992004,0.251389,0.432366,-0.176794,54,268,596,6240
1644190852.147793,-0.006714,0.009888,-0.991333,0.327725,0.447634,0.006412,35,275,591,6240
1644190852.196172,-0.007568,0.007935,-0.994019,0.266656,0.401832,-0.130992,42,275,584,6224
1644190852.244611,-0.010742,0.012451,-0.990173,0.266656,0.417099,-0.085191,52,280,589,6176
1644190852.293344,-0.008789,0.009277,-0.990845,0.404061,0.493435,-0.008855,43,276,585,6224
1644190852.343844,-0.012695,0.010315,-0.994934,0.281924,0.24916,-0.039389,54,280,584,6288
1644190852.393856,-0.012207,0.011108,-0.99176,0.388794,0.432366,-0.115725,53,276,580,6176
1644190852.43907,-0.010925,0.009827,-0.990967,0.113985,0.508702,-0.054656,46,276,590,6224
1644190852.535027,-0.006592,0.012024,-0.992126,0.113985,0.539237,-0.024122,53,271,576,6256
1644190852.583324,-0.011597,0.011353,-0.993774,0.220855,0.462901,-0.054656,42,275,584,6224
1644190852.631706,-0.008972,0.010498,-0.991699,0.205588,0.447634,-0.161527,58,269,583,6224
1644190852.680097,-0.011047,0.009888,-0.990356,0.327725,0.554504,-0.130992,53,286,583,6256
1644190852.728493,-0.009705,0.009277,-0.989746,0.144519,0.401832,-0.085191,55,271,578,6256
1644190852.776886,-0.010071,0.010315,-0.99353,0.159786,0.417099,-0.069924,43,279,587,6240
1644190852.825284,-0.010254,0.007812,-0.993896,0.144519,0.340763,-0.14626,32,281,585,6256
1644190852.873728,-0.009827,0.009521,-0.989685,0.144519,0.432366,-0.069924,53,276,585,6240
1644190852.922156,-0.00946,0.012756,-0.992676,0.266656,0.401832,-0.14626,45,280,584,6304
1644190852.970505,-0.009827,0.009888,-0.99408,0.190321,0.386565,-0.054656,42,282,575,6176
1644190853.01891,-0.009827,0.012817,-0.992371,0.281924,0.386565,-0.100458,61,270,589,6224
1644190853.072613,-0.010315,0.009888,-0.99231,0.205588,0.493435,-0.130992,54,268,591,6224
1644190853.115681,-0.007874,0.010071,-0.990906,0.190321,0.386565,-0.008855,49,275,593,6224
1644190853.164052,-0.012573,0.01001,-0.990479,0.190321,0.462901,-0.192061,41,276,578,6240
1644190853.212449,-0.009766,0.011902,-0.992554,0.266656,0.371298,-0.069924,49,268,582,6240
1644190853.260818,-0.007263,0.009583,-0.993042,0.297191,0.264427,-0.069924,53,274,578,6256
1644190853.309195,-0.007507,0.008423,-0.989014,0.220855,0.279695,-0.115725,40,287,589,6160
1644190853.357604,-0.01001,0.009521,-0.992004,0.388794,0.432366,0.021679,52,275,586,6176
1644190853.406175,-0.009338,0.011169,-0.990845,0.113985,0.417099,0.052214,45,277,584,6256
1644190853.456705,-0.008179,0.007996,-0.993713,0.052916,0.325496,-0.161527,48,288,587,6176
1644190853.506837,-0.004639,0.011719,-0.992798,0.236122,0.432366,-0.100458,45,280,589,6240
1644190853.552157,-0.009521,0.009033,-0.99353,0.190321,0.447634,-0.039389,49,280,584,6224
1644190853.647952,-0.005554,0.011353,-0.989441,0.236122,0.523969,0.113282,54,270,582,6192
1644190853.696345,-0.005798,0.009521,-0.98822,0.205588,0.310229,-0.115725,46,274,594,6192
1644190853.744864,-0.011658,0.007812,-0.992188,0.35826,0.508702,0.052214,49,282,568,6192
1644190853.793157,-0.010986,0.010254,-0.991577,0.251389,0.371298,-0.085191,42,275,577,6192
1644190853.841536,-0.009705,0.01062,-0.993225,0.297191,0.432366,0.006412,46,274,587,6240
1644190853.889964,-0.005676,0.010376,-0.989014,0.220855,0.386565,-0.14626,42,280,586,6192
1644190853.938335,-0.007751,0.010681,-0.993408,0.281924,0.462901,-0.024122,47,280,586,6224
1644190853.986749,-0.008911,0.008057,-0.98999,0.175053,0.462901,-0.024122,45,277,586,6240
1644190854.035257,-0.009399,0.009521,-0.991516,0.388794,0.356031,-0.14626,52,277,589,6224
1644190854.094127,-0.008789,0.009399,-0.993835,0.449863,0.447634,-0.069924,49,280,579,6224
1644190854.131944,-0.004761,0.011597,-0.990845,0.266656,0.508702,-0.14626,48,266,580,6224
1644190854.180295,-0.006409,0.007996,-0.990295,0.236122,0.264427,-0.14626,48,271,587,6176
1644190854.228684,-0.009827,0.008301,-0.991455,0.251389,0.493435,0.006412,48,274,578,6240
1644190854.277057,-0.006775,0.008911,-0.990662,0.144519,0.417099,-0.054656,47,263,586,6192
1644190854.325477,-0.007812,0.01062,-0.990479,0.08345,0.447634,-0.176794,51,276,585,6224
1644190854.373857,-0.010681,0.011963,-0.994385,0.175053,0.371298,-0.054656,57,280,586,6240
1644190854.422265,-0.007019,0.012939,-0.99054,0.175053,0.462901,-0.054656,46,276,585,6192
1644190854.470643,-0.010071,0.010559,-0.991028,0.342992,0.356031,-0.222595,43,281,585,6224
1644190854.519205,-0.00885,0.011414,-0.993225,0.251389,0.508702,-0.085191,60,282,591,6240
1644190854.569577,-0.007812,0.007141,-0.992371,0.251389,0.401832,0.113282,62,279,594,6192
1644190854.619922,-0.008118,0.00824,-0.98938,0.175053,0.432366,-0.085191,58,276,583,6224
1644190854.664869,-0.006897,0.010132,-0.989441,0.266656,0.447634,-0.024122,52,270,589,6224
1644190854.760993,-0.011414,0.008789,-0.990051,0.098718,0.340763,-0.283664,55,279,578,6176
1644190854.809403,-0.008789,0.013611,-0.989258,0.175053,0.356031,-0.069924,54,275,586,6256
1644190854.857782,-0.00946,0.00824,-0.990295,0.236122,0.462901,-0.024122,57,265,591,6240
1644190854.906216,-0.006714,0.007385,-0.994507,0.037649,0.493435,-0.161527,48,281,583,6192
1644190854.954666,-0.008728,0.007629,-0.992554,0.327725,0.310229,-0.024122,51,264,585,6192
1644190855.002993,-0.008484,0.011108,-0.989868,0.220855,0.432366,-0.039389,36,279,587,6224
1644190855.067337,-0.010254,0.010376,-0.991028,0.297191,0.356031,-0.100458,49,265,591,6192
1644190855.103564,-0.00824,0.008911,-0.990173,0.022382,0.279695,-0.054656,55,281,592,6224
1644190855.14819,-0.008545,0.008667,-0.991272,0.297191,0.371298,-0.039389,48,286,585,6256
1644190855.196578,-0.008362,0.005676,-0.990906,0.159786,0.432366,-0.039389,47,273,582,6224
1644190855.245027,-0.01062,0.009827,-0.989929,0.220855,0.478168,0.067481,45,282,584,6192
1644190855.293367,-0.008301,0.009338,-0.989075,0.113985,0.340763,-0.024122,47,275,586,6192
1644190855.341735,-0.009399,0.013184,-0.991882,0.281924,0.493435,0.067481,45,273,582,6224
1644190855.390143,-0.009094,0.010315,-0.989746,0.251389,0.417099,0.006412,49,277,582,6240
1644190855.438536,-0.007385,0.008911,-0.991699,0.281924,0.386565,-0.069924,57,273,582,6304
1644190855.48724,-0.008789,0.011475,-0.990234,0.449863,0.401832,-0.100458,59,287,584,6224
1644190855.535546,-0.008423,0.009827,-0.993591,0.373527,0.386565,-0.024122,47,282,584,6224
1644190855.58613,-0.005676,0.006775,-0.99115,0.144519,0.523969,-0.192061,40,275,582,6240
1644190855.636505,-0.007812,0.009888,-0.991943,0.312458,0.356031,0.082748,46,276,580,6224
1644190855.680667,-0.00946,0.007812,-0.992798,0.281924,0.233893,-0.14626,51,271,586,6224
1644190855.777284,-0.009583,0.010681,-0.99292,0.190321,0.401832,-0.100458,39,271,587,6160
1644190855.825671,-0.006287,0.009277,-0.990356,0.190321,0.462901,0.036947,48,283,590,6256
1644190855.874071,-0.008972,0.010376,-0.991028,0.190321,0.478168,-0.222595,51,288,576,6224
1644190855.922489,-0.008667,0.013062,-0.992432,0.144519,0.569771,-0.039389,51,276,592,6128
1644190855.970878,-0.009033,0.008362,-0.990906,0.266656,0.447634,-0.069924,49,273,591,6160
1644190856.019268,-0.008972,0.012207,-0.99176,0.327725,0.325496,-0.115725,45,287,579,6256
1644190856.068834,-0.008606,0.00885,-0.991455,0.205588,0.569771,-0.100458,47,270,579,6224
1644190856.116021,-0.008484,0.00708,-0.991394,0.251389,0.417099,-0.207328,58,269,585,6240
1644190856.164389,-0.009277,0.010376,-0.990173,0.251389,0.386565,-0.14626,55,281,592,6304
1644190856.212821,-0.007568,0.007507,-0.992615,0.251389,0.386565,-0.039389,55,279,583,6192
1644190856.261162,-0.008972,0.008545,-0.993713,0.236122,0.233893,-0.024122,49,275,584,6224
1644190856.309587,-0.007996,0.007202,-0.993591,0.251389,0.386565,-0.100458,47,270,579,6256
1644190856.357971,-0.009277,0.010315,-0.992554,0.113985,0.386565,-0.024122,46,279,580,6224
1644190856.406352,-0.008057,0.010254,-0.990112,0.297191,0.310229,0.006412,51,271,576,6240
1644190856.45477,-0.008667,0.009521,-0.991882,0.205588,0.371298,-0.069924,48,286,594,6256
1644190856.503131,-0.00824,0.009277,-0.990173,0.297191,0.371298,0.067481,54,260,589,6192
1644190856.551543,-0.006714,0.009338,-0.989746,0.205588,0.417099,-0.069924,57,273,586,6224
1644190856.599941,-0.01001,0.00885,-0.990479,0.190321,0.325496,0.006412,48,274,585,6256
1644190856.648735,-0.010376,0.009583,-0.992249,0.175053,0.432366,-0.085191,46,269,590,6224
1644190856.697216,-0.011597,0.009644,-0.989075,0.205588,0.478168,-0.100458,47,270,577,6224
1644190856.747828,-0.008789,0.009399,-0.994324,0.312458,0.417099,-0.14626,45,277,598,6176
1644190856.799367,-0.006836,0.008545,-0.990051,0.236122,0.340763,-0.054656,43,266,580,6160
1644190856.843291,-0.00824,0.005737,-0.991455,0.35826,0.371298,-0.222595,57,268,584,6240
1644190856.938731,-0.009888,0.009644,-0.991455,0.113985,0.554504,-0.161527,51,279,583,6224
1644190856.987111,-0.006836,0.009094,-0.992126,0.251389,0.417099,-0.100458,39,279,578,6224
1644190857.035524,-0.013062,0.010559,-0.990784,0.08345,0.401832,-0.207328,45,268,591,6176
1644190857.085112,-0.00824,0.011292,-0.99176,0.266656,0.310229,-0.054656,55,281,587,6240
1644190857.132301,-0.008545,0.010315,-0.989807,0.251389,0.447634,-0.14626,32,281,580,6224
1644190857.18064,-0.012573,0.008911,-0.994812,0.159786,0.462901,-0.085191,54,280,579,6224
1644190857.229055,-0.008423,0.01062,-0.992737,0.281924,0.417099,-0.161527,48,276,576,6192
1644190857.277452,-0.009033,0.010437,-0.990112,0.266656,0.325496,-0.176794,45,270,584,6192
1644190857.32581,-0.007324,0.009277,-0.991882,0.190321,0.508702,-0.207328,47,285,582,6224
1644190857.374237,-0.007202,0.010376,-0.99115,0.129252,0.401832,-0.130992,48,271,585,6176
1644190857.422643,-0.003967,0.009155,-0.991882,0.312458,0.432366,-0.14626,47,280,589,6192
1644190857.471023,-0.009094,0.007812,-0.99054,0.266656,0.401832,0.052214,42,270,593,6288
1644190857.519409,-0.00946,0.008972,-0.99176,0.220855,0.417099,-0.039389,47,275,577,6128
1644190857.567801,-0.006531,0.008972,-0.990234,0.312458,0.371298,-0.115725,52,270,591,6240
1644190857.616196,-0.010315,0.010071,-0.991577,0.281924,0.264427,-0.039389,46,281,601,6160
1644190857.664629,-0.008057,0.009155,-0.990356,0.220855,0.417099,0.021679,45,270,589,6224
1644190857.712999,-0.006775,0.00824,-0.992249,0.037649,0.493435,-0.085191,46,281,585,6192
1644190857.761364,-0.007324,0.008057,-0.992432,0.281924,0.417099,-0.192061,42,282,593,6240
1644190857.809819,-0.009949,0.008301,-0.989807,0.388794,0.356031,-0.115725,46,274,573,6224
1644190857.860173,-0.008484,0.008362,-0.990112,0.113985,0.523969,-0.130992,46,274,583,6176
1644190857.909954,-0.006592,0.010132,-0.989197,0.205588,0.432366,-0.008855,46,276,587,6240
1644190857.960156,-0.008728,0.008911,-0.991516,0.205588,0.478168,-0.024122,38,275,584,6256
1644190858.004811,-0.009521,0.011719,-0.991821,0.205588,0.294962,-0.054656,48,274,583,6224
1644190858.100817,-0.008362,0.009949,-0.990601,0.251389,0.462901,0.021679,55,274,590,6240
1644190858.148509,-0.009827,0.008789,-0.990295,0.236122,0.462901,-0.069924,57,277,589,6288
1644190858.196893,-0.011108,0.008789,-0.990173,0.220855,0.325496,-0.130992,52,280,586,6224
1644190858.24528,-0.011169,0.007507,-0.992249,0.175053,0.356031,-0.039389,48,271,585,6224
1644190858.293695,-0.006714,0.010315,-0.994324,0.220855,0.401832,-0.14626,41,266,585,6176
1644190858.342083,-0.007568,0.012512,-0.993958,0.190321,0.371298,-0.008855,52,287,579,6176
1644190858.390477,-0.009888,0.008911,-0.990906,0.373527,0.462901,-0.100458,51,279,592,6240
1644190858.438875,-0.008057,0.01178,-0.992737,0.159786,0.218626,-0.115725,51,271,592,6256
1644190858.487258,-0.008789,0.005798,-0.993835,0.144519,0.356031,-0.054656,55,274,592,6256
1644190858.535851,-0.009338,0.010193,-0.992188,0.236122,0.340763,-0.100458,36,279,585,6224
1644190858.586368,-0.01062,0.008179,-0.989807,0.190321,0.432366,-0.130992,42,270,584,6256
1644190858.637151,-0.008362,0.008362,-0.992615,0.297191,0.447634,-0.054656,54,277,591,6304
1644190858.681556,-0.010193,0.009155,-0.992798,0.175053,0.447634,0.098015,47,273,589,6240
1644190858.7776,-0.008423,0.010498,-0.989014,0.159786,0.371298,-0.115725,51,274,583,6256
1644190858.825994,-0.008362,0.009216,-0.992249,0.190321,0.401832,-0.054656,41,276,585,6224
1644190858.874441,-0.005859,0.009827,-0.989319,0.312458,0.447634,-0.024122,62,281,580,6224
1644190858.922847,-0.009888,0.010071,-0.990784,0.175053,0.356031,-0.314198,52,273,591,6256
1644190858.971232,-0.008789,0.008911,-0.990662,0.144519,0.356031,-0.024122,51,271,590,6256
1644190859.019636,-0.006042,0.008606,-0.98938,0.312458,0.386565,-0.14626,48,274,587,6224
1644190859.071326,-0.005127,0.008911,-0.99292,0.068183,0.340763,-0.222595,52,275,584,6256
1644190859.116404,-0.007202,0.010864,-0.993103,0.113985,0.356031,-0.039389,47,270,589,6192
1644190859.164778,-0.008728,0.010986,-0.991821,0.113985,0.462901,-0.069924,53,271,590,6240
1644190859.213172,-0.008606,0.011353,-0.992126,0.129252,0.417099,-0.192061,47,285,568,6240
1644190859.261526,-0.007324,0.009094,-0.989807,0.251389,0.340763,-0.14626,38,270,589,6176
1644190859.30994,-0.007568,0.010254,-0.991638,0.297191,0.294962,-0.283664,49,277,586,6224
1644190859.358348,-0.008972,0.011108,-0.990601,0.175053,0.371298,-0.069924,46,281,585,6192
1644190859.4067,-0.007263,0.01062,-0.990479,0.175053,0.386565,-0.14626,48,288,587,6224
1644190859.455161,-0.00885,0.010498,-0.992615,0.281924,0.371298,-0.192061,42,282,582,6224
1644190859.503493,-0.008972,0.010681,-0.991638,0.251389,0.340763,-0.054656,58,279,585,6192
1644190859.551913,-0.009033,0.011047,-0.990723,0.251389,0.554504,-0.207328,61,275,584,6224
1644190859.600302,-0.006897,0.012085,-0.992065,0.312458,0.401832,-0.14626,46,286,587,6224
1644190859.648702,-0.005615,0.006775,-0.992859,0.144519,0.462901,-0.192061,51,271,578,6224
1644190859.697492,-0.008179,0.011169,-0.990051,0.220855,0.371298,0.052214,51,271,580,6256
1644190859.747527,-0.0047,0.008606,-0.990356,0.388794,0.356031,-0.008855,47,275,584,6128
1644190859.798222,-0.007629,0.007935,-0.991089,0.297191,0.340763,0.052214,42,273,577,6224
1644190859.842857,-0.008606,0.010315,-0.990601,0.236122,0.371298,-0.039389,43,269,580,6192
1644190859.939101,-0.006653,0.008423,-0.990112,0.190321,0.279695,-0.176794,43,283,573,6240
1644190859.987474,-0.005615,0.009766,-0.990479,0.220855,0.432366,-0.039389,61,275,584,6240
1644190860.035853,-0.01062,0.012207,-0.992676,0.251389,0.340763,-0.069924,47,273,586,6192
1644190860.084352,-0.008118,0.012939,-0.990173,0.327725,0.478168,0.082748,48,274,590,6256
1644190860.132695,-0.00946,0.008728,-0.991821,0.175053,0.508702,0.021679,53,262,587,6240
1644190860.181024,-0.00946,0.011414,-0.990417,0.281924,0.417099,-0.085191,49,273,584,6192
1644190860.229414,-0.006592,0.011841,-0.989929,0.220855,0.417099,-0.130992,47,275,591,6176
1644190860.277772,-0.008362,0.008301,-0.991882,0.113985,0.447634,0.052214,52,282,579,6240
1644190860.326202,-0.007446,0.009399,-0.990112,0.144519,0.325496,-0.054656,54,273,572,6240
1644190860.374707,-0.00824,0.008789,-0.991638,-0.008153,0.508702,-0.069924,54,270,575,6192
1644190860.423002,-0.009827,0.010925,-0.989868,0.373527,0.478168,-0.054656,52,282,586,6224
1644190860.471386,-0.010803,0.011353,-0.992798,0.175053,0.493435,-0.14626,48,288,587,6192
1644190860.519776,-0.010315,0.010498,-0.991577,0.236122,0.539237,-0.207328,57,270,582,6224
1644190860.568164,-0.007935,0.011841,-0.991394,0.144519,0.356031,-0.268397,48,274,585,6128
1644190860.616561,-0.011047,0.009705,-0.991333,0.35826,0.417099,-0.161527,47,275,589,6224
1644190860.664932,-0.006226,0.010498,-0.990906,0.342992,0.401832,-0.085191,48,276,587,6176
1644190860.713339,-0.008118,0.011414,-0.99054,0.266656,0.386565,-0.085191,52,275,593,6224
1644190860.761728,-0.008972,0.010376,-0.99054,0.404061,0.447634,-0.054656,49,275,589,6224
1644190860.810454,-0.008301,0.01123,-0.990417,0.327725,0.493435,-0.085191,51,279,594,6192
1644190860.860005,-0.008057,0.009705,-0.992188,0.144519,0.447634,-0.069924,55,276,573,6224
1644190860.91081,-0.008606,0.01001,-0.991943,0.236122,0.523969,-0.115725,52,280,584,6192
1644190860.960773,-0.009399,0.010864,-0.990784,0.159786,0.569771,-0.039389,57,287,584,6256
1644190861.067731,-0.008179,0.012024,-0.989807,0.220855,0.417099,-0.054656,51,279,580,6240
1644190861.108057,-0.009399,0.008911,-0.989563,0.419328,0.371298,-0.192061,41,264,587,6192
1644190861.148935,-0.008057,0.011597,-0.991699,0.266656,0.371298,-0.054656,58,281,587,6128
1644190861.197269,-0.010559,0.009949,-0.992493,0.220855,0.386565,-0.161527,52,275,589,6240
1644190861.245645,-0.007996,0.010071,-0.993408,0.175053,0.478168,-0.069924,52,275,591,6192
1644190861.294053,-0.013245,0.009949,-0.992798,0.08345,0.493435,-0.069924,54,275,584,6224
1644190861.342471,-0.010071,0.009216,-0.99353,0.312458,0.325496,-0.054656,43,276,594,6256
1644190861.390846,-0.007324,0.008667,-0.993713,0.220855,0.462901,-0.207328,45,277,586,6224
1644190861.439237,-0.007874,0.009399,-0.990112,0.251389,0.356031,-0.039389,53,266,590,6192
1644190861.487616,-0.00708,0.012451,-0.993103,0.220855,0.432366,0.006412,48,269,590,6240
1644190861.536027,-0.00647,0.00824,-0.993042,0.220855,0.371298,-0.008855,48,276,590,6224
1644190861.584711,-0.009399,0.009216,-0.990051,0.312458,0.340763,-0.054656,55,283,580,6192
1644190861.63517,-0.006226,0.012756,-0.991516,0.297191,0.325496,-0.039389,55,271,578,6240
1644190861.685338,-0.006958,0.01062,-0.993408,0.312458,0.386565,-0.024122,47,273,582,6224
1644190861.730452,-0.008118,0.011902,-0.990845,0.144519,0.478168,0.006412,47,258,584,6176
1644190861.826369,-0.008667,0.009827,-0.99231,0.205588,0.432366,0.036947,53,269,580,6176
1644190861.875155,-0.009644,0.009155,-0.990234,0.220855,0.417099,0.052214,59,282,586,6192
1644190861.923227,-0.008789,0.009277,-0.994629,0.327725,0.539237,-0.161527,53,269,590,6336
1644190861.971603,-0.009399,0.007507,-0.992432,0.266656,0.340763,-0.390534,45,277,582,6176
1644190862.019996,-0.007751,0.010376,-0.993469,0.144519,0.539237,-0.054656,48,264,585,6192
1644190862.070455,-0.008118,0.010193,-0.989014,0.205588,0.356031,-0.192061,49,282,582,6224
1644190862.116724,-0.00946,0.009277,-0.992981,0.236122,0.523969,-0.069924,46,266,580,6224
1644190862.165155,-0.00885,0.008911,-0.991943,0.08345,0.386565,-0.176794,43,271,592,6224
1644190862.213524,-0.008301,0.010803,-0.990479,0.175053,0.233893,-0.14626,51,281,580,6224
1644190862.26192,-0.009949,0.009094,-0.993042,0.388794,0.279695,-0.100458,54,275,586,6224
1644190862.310292,-0.009949,0.011475,-0.991455,0.205588,0.371298,-0.085191,51,269,580,6224
1644190862.358708,-0.009399,0.008423,-0.992065,0.373527,0.447634,0.021679,53,279,590,6192
1644190862.407102,-0.008606,0.010254,-0.991638,0.236122,0.401832,-0.130992,48,281,580,6192
1644190862.455496,-0.010742,0.009705,-0.990662,0.312458,0.554504,-0.039389,51,279,592,6224
1644190862.503865,-0.00946,0.011902,-0.990356,0.159786,0.432366,-0.14626,51,271,583,6288
1644190862.552295,-0.008362,0.008667,-0.993042,0.175053,0.203359,0.021679,47,277,586,6224
1644190862.600667,-0.007874,0.009705,-0.988647,0.236122,0.340763,-0.161527,48,279,585,6240
1644190862.649065,-0.007446,0.009033,-0.993713,0.144519,0.508702,-0.14626,57,268,589,6176
1644190862.697449,-0.009338,0.007507,-0.991882,0.205588,0.417099,-0.100458,49,270,575,6240
1644190862.74595,-0.007202,0.01001,-0.992676,0.220855,0.417099,-0.085191,42,280,586,6304
1644190862.797107,-0.00946,0.010559,-0.992981,0.205588,0.386565,-0.069924,57,277,584,6240
1644190862.847561,-0.008179,0.010681,-0.993164,0.052916,0.432366,-0.176794,45,280,582,6224
1644190862.892082,-0.007019,0.006958,-0.991272,0.327725,0.478168,0.12855,40,273,584,6224
1644190862.987851,-0.007629,0.00946,-0.991028,0.281924,0.493435,-0.054656,41,274,583,6256
1644190863.036233,-0.008118,0.007629,-0.991272,0.251389,0.432366,-0.14626,54,268,596,6288
1644190863.084789,-0.008545,0.013245,-0.993652,0.144519,0.401832,-0.024122,45,275,586,6192
1644190863.132989,-0.007874,0.01001,-0.990173,0.190321,0.356031,-0.039389,55,276,587,6288
1644190863.181362,-0.006165,0.010803,-0.995056,0.236122,0.462901,-0.115725,51,271,587,6192
1644190863.229773,-0.01178,0.010742,-0.99176,0.098718,0.325496,0.006412,53,279,580,6240
1644190863.278152,-0.008545,0.011414,-0.992554,0.144519,0.539237,-0.085191,59,275,584,6192
1644190863.326563,-0.011841,0.010925,-0.993835,0.175053,0.508702,-0.115725,51,283,578,6240
1644190863.375092,-0.009766,0.011292,-0.989563,0.159786,0.508702,0.12855,42,275,579,6224
1644190863.423368,-0.006348,0.010193,-0.99231,0.297191,0.508702,-0.024122,54,294,598,6240
1644190863.471753,-0.011414,0.011536,-0.988892,0.205588,0.401832,-0.024122,43,281,583,6256
1644190863.520141,-0.008484,0.009888,-0.991699,0.175053,0.401832,0.006412,49,270,582,6224
1644190863.568542,-0.007874,0.009644,-0.991699,0.129252,0.401832,0.052214,42,270,586,6288
1644190863.616921,-0.007141,0.009583,-0.991638,0.220855,0.279695,-0.008855,43,286,576,6176
1644190863.66532,-0.004883,0.009399,-0.990479,0.205588,0.462901,-0.039389,49,275,589,6224
1644190863.713701,-0.008606,0.010376,-0.991089,0.037649,0.493435,-0.054656,47,275,586,6224
1644190863.762153,-0.008118,0.008484,-0.991882,0.205588,0.462901,-0.008855,47,277,586,6224
1644190863.810555,-0.009583,0.011536,-0.992004,0.251389,0.539237,-0.100458,46,279,585,6224
1644190863.860533,-0.007141,0.011841,-0.991089,0.129252,0.462901,-0.130992,51,262,585,6192
1644190863.910763,-0.007629,0.010132,-0.992737,0.327725,0.417099,0.006412,55,288,587,6176
1644190863.961247,-0.009277,0.008118,-0.992554,0.266656,0.478168,-0.069924,47,290,591,6256
1644190864.006003,-0.012268,0.010071,-0.990906,0.251389,0.356031,-0.161527,47,277,586,6256
1644190864.102811,-0.007446,0.009338,-0.991089,0.327725,0.356031,0.006412,59,280,579,6224
1644190864.149237,-0.009338,0.01239,-0.990356,0.342992,0.478168,0.006412,40,275,582,6224
1644190864.197627,-0.005981,0.009399,-0.992065,0.144519,0.478168,-0.161527,47,277,591,6256
1644190864.246029,-0.007446,0.009705,-0.991638,0.175053,0.493435,-0.069924,47,273,589,6256
1644190864.294436,-0.008118,0.011047,-0.992249,0.08345,0.432366,-0.176794,53,288,576,6256
1644190864.342834,-0.008484,0.008423,-0.991333,0.281924,0.401832,-0.085191,47,277,596,6176
1644190864.391211,-0.007263,0.009705,-0.991455,0.312458,0.325496,0.052214,47,282,584,6224
1644190864.439571,-0.008057,0.008972,-0.992188,0.312458,0.371298,-0.024122,43,276,590,6192
1644190864.488237,-0.00885,0.010254,-0.993225,0.144519,0.417099,-0.085191,51,271,590,6240
1644190864.538732,-0.008118,0.010376,-0.992249,0.327725,0.508702,-0.192061,46,276,594,6192
1644190864.588845,-0.010071,0.008789,-0.989868,0.159786,0.508702,-0.054656,57,270,582,6224
1644190864.633892,-0.010071,0.008423,-0.992737,0.205588,0.493435,-0.054656,54,277,586,6160
1644190864.729954,-0.010254,0.008362,-0.994385,0.220855,0.615573,-0.054656,47,273,591,6224
1644190864.778336,-0.006897,0.009949,-0.990479,0.175053,0.478168,0.036947,52,277,582,6176
1644190864.826771,-0.007385,0.01062,-0.990356,0.144519,0.371298,-0.008855,58,286,592,6240
1644190864.875216,-0.010071,0.013489,-0.990662,0.068183,0.356031,-0.024122,46,276,585,6224
1644190864.923556,-0.009949,0.009644,-0.99115,0.297191,0.493435,-0.100458,47,280,582,6240
1644190864.971978,-0.009888,0.011353,-0.99176,0.144519,0.523969,0.021679,45,273,572,6240
1644190865.020338,-0.012634,0.009644,-0.99292,0.113985,0.371298,-0.207328,54,275,593,6224
1644190865.069601,-0.009277,0.012085,-0.99054,0.205588,0.508702,-0.039389,55,276,585,6192
1644190865.117162,-0.008972,0.011536,-0.991943,0.236122,0.447634,-0.115725,48,288,583,6256
1644190865.16548,-0.006653,0.007812,-0.988586,0.175053,0.417099,-0.039389,42,273,577,6288
1644190865.213908,-0.007568,0.009521,-0.988708,-0.02342,0.340763,0.036947,49,273,584,6240
1644190865.26227,-0.007935,0.008484,-0.990417,0.159786,0.401832,-0.069924,41,274,587,6224
1644190865.310675,-0.006042,0.008362,-0.990723,0.281924,0.356031,-0.100458,51,279,578,6224
1644190865.359047,-0.00885,0.011047,-0.992737,0.236122,0.569771,-0.069924,52,282,586,6224
1644190865.407462,-0.009033,0.010742,-0.991699,0.236122,0.294962,0.067481,47,282,586,6240
1644190865.455861,-0.007812,0.009888,-0.990051,0.159786,0.569771,0.006412,51,264,585,6288
1644190865.504221,-0.009644,0.004761,-0.990479,0.08345,0.386565,-0.008855,52,277,589,6224
1644190865.552657,-0.007812,0.008606,-0.990723,0.113985,0.539237,-0.161527,52,280,584,6240
1644190865.601018,-0.008728,0.012085,-0.99231,0.129252,0.356031,-0.222595,54,270,589,6192
1644190865.649472,-0.009094,0.009033,-0.994812,0.312458,0.508702,-0.130992,46,279,585,6256
1644190865.699803,-0.007324,0.010559,-0.989807,0.312458,0.386565,-0.085191,57,275,586,6224
1644190865.750009,-0.005737,0.009521,-0.994019,0.236122,0.356031,-0.161527,45,280,593,6192
1644190865.795148,-0.005859,0.010071,-0.992981,0.159786,0.371298,0.052214,53,283,590,6224
1644190865.891446,-0.010986,0.008423,-0.988525,0.220855,0.356031,0.098015,49,290,579,6240
1644190865.939796,-0.009827,0.00708,-0.989136,0.205588,0.386565,-0.176794,60,276,580,6240
1644190865.988227,-0.01178,0.009949,-0.992859,0.098718,0.432366,-0.008855,55,271,587,6192
1644190866.036577,-0.007507,0.007874,-0.992554,0.098718,0.523969,0.006412,59,275,577,6224
1644190866.085133,-0.009949,0.008667,-0.993103,0.251389,0.569771,-0.069924,54,273,579,6160
1644190866.13352,-0.009521,0.007568,-0.991577,0.220855,0.310229,0.021679,48,279,585,6224
1644190866.181754,-0.006958,0.010132,-0.990723,0.175053,0.432366,-0.14626,40,275,577,6192
1644190866.230125,-0.00769,0.009399,-0.993103,0.312458,0.371298,-0.085191,58,276,585,6256
1644190866.278527,-0.010925,0.010315,-0.989563,0.129252,0.432366,-0.130992,51,283,580,6224
1644190866.326906,-0.008423,0.012512,-0.990417,0.312458,0.340763,0.052214,41,288,580,6224
1644190866.375344,-0.009216,0.008789,-0.991821,0.190321,0.371298,0.021679,46,281,587,6224
1644190866.423731,-0.006042,0.013184,-0.993042,0.297191,0.447634,-0.14626,47,277,582,6224
1644190866.472216,-0.006409,0.010742,-0.991028,0.281924,0.356031,-0.115725,41,281,585,6224
1644190866.520478,-0.008911,0.013855,-0.990906,0.052916,0.371298,-0.039389,54,268,593,6224
1644190866.568886,-0.007568,0.012268,-0.990906,0.220855,0.432366,0.082748,61,275,596,6224
1644190866.617285,-0.008362,0.010559,-0.992432,0.190321,0.523969,-0.14626,43,279,590,6176
1644190866.665678,-0.009766,0.01062,-0.990845,0.266656,0.417099,0.006412,54,275,589,6256
1644190866.714075,-0.007629,0.01001,-0.990356,0.236122,0.294962,-0.054656,46,271,583,6256
1644190866.762518,-0.007996,0.010498,-0.993103,0.220855,0.478168,0.067481,46,276,587,6224
1644190866.811241,-0.008484,0.008667,-0.992859,0.037649,0.493435,0.204885,47,277,575,6224
1644190866.862949,-0.009155,0.009216,-0.991516,0.220855,0.401832,-0.161527,52,265,586,6240
1644190866.91315,-0.009583,0.011047,-0.989258,0.281924,0.447634,-0.085191,52,273,579,6256
1644190866.957772,-0.006592,0.011047,-0.992004,0.220855,0.279695,-0.069924,43,274,585,6224
1644190867.060611,-0.008423,0.010559,-0.991333,0.404061,0.386565,-0.085191,46,266,585,6224
1644190867.101203,-0.008423,0.011292,-0.991699,0.281924,0.432366,-0.207328,49,280,586,6240
1644190867.14964,-0.00946,0.009583,-0.991394,0.068183,0.478168,-0.115725,46,279,590,6128
1644190867.198009,-0.007019,0.008606,-0.994202,0.159786,0.386565,-0.039389,43,276,587,6256
1644190867.246405,-0.009277,0.011047,-0.990906,0.205588,0.478168,-0.100458,51,279,580,6224
