epoch,acc_x,acc_y,acc_z,rot_x,rot_y,rot_z,mag_x,mag_y,mag_z,temp
1644171000.00594,-0.010254,0.009583,-0.99353,0.297191,0.478168,-0.192061,45,277,584,5632
1644171000.079727,-0.009705,0.011719,-0.991516,0.327725,0.417099,-0.024122,57,275,577,5696
1644171000.114135,-0.009033,0.007935,-0.990112,0.144519,0.432366,-0.008855,47,275,584,5696
1644171000.156954,-0.009949,0.010437,-0.994385,0.190321,0.325496,-0.130992,45,275,579,5728
1644171000.200386,-0.007996,0.010315,-0.989136,0.205588,0.325496,-0.176794,64,275,570,5728
1644171000.296217,-0.011047,0.010437,-0.991577,0.236122,0.432366,-0.237863,46,271,578,5648
1644171000.344866,-0.010254,0.006531,-0.99231,0.236122,0.371298,-0.039389,48,274,578,5664
1644171000.393025,-0.011169,0.008423,-0.993469,0.251389,0.447634,-0.054656,41,271,571,5664
1644171000.441392,-0.011414,0.013062,-0.990356,0.251389,0.417099,0.021679,42,265,572,5664
1644171000.489809,-0.012024,0.007385,-0.99115,0.236122,0.432366,-0.100458,53,271,571,5664
1644171000.538185,-0.009827,0.010376,-0.993103,0.373527,0.340763,0.052214,51,264,580,5664
1644171000.586577,-0.01178,0.007751,-0.99176,0.404061,0.432366,-0.085191,49,268,572,5664
1644171000.635024,-0.007629,0.008972,-0.990112,0.327725,0.523969,-0.268397,48,281,580,5712
1644171000.683352,-0.010925,0.009338,-0.99176,0.190321,0.356031,-0.039389,41,271,573,5712
1644171000.731765,-0.008789,0.008911,-0.99231,0.236122,0.432366,-0.14626,59,270,575,5648
1644171000.780144,-0.010254,0.009338,-0.992371,0.159786,0.386565,-0.069924,54,268,575,5648
1644171000.828551,-0.010986,0.009583,-0.989563,0.052916,0.386565,-0.14626,55,274,573,5600
1644171000.87696,-0.012695,0.008972,-0.99115,0.205588,0.356031,-0.14626,48,283,576,5664
1644171000.925349,-0.00885,0.008362,-0.991272,0.35826,0.340763,-0.100458,58,271,578,5648
1644171000.973746,-0.010193,0.010925,-0.991699,0.510931,0.478168,-0.008855,55,274,576,5696
1644171001.022174,-0.00769,0.009277,-0.99054,0.281924,0.371298,-0.130992,67,276,587,5696
1644171001.085696,-0.008911,0.007935,-0.992676,0.220855,0.447634,-0.008855,43,279,583,5696
1644171001.119126,-0.008484,0.00824,-0.992065,0.297191,0.340763,0.052214,47,270,577,5664
1644171001.169586,-0.010925,0.00824,-0.99115,0.144519,0.279695,-0.130992,46,266,580,5696
1644171001.219371,-0.010132,0.009888,-0.991943,0.281924,0.310229,-0.008855,41,283,576,5696
1644171001.268954,-0.009338,0.009033,-0.992615,0.236122,0.417099,-0.100458,55,281,578,5664
1644171001.360859,-0.008911,0.011841,-0.99115,0.327725,0.478168,-0.115725,47,277,575,5632
1644171001.409218,-0.011108,0.007629,-0.992615,0.220855,0.417099,-0.054656,38,268,570,5696
1644171001.457607,-0.010315,0.01178,-0.991943,0.220855,0.340763,-0.176794,60,266,583,5648
1644171001.505975,-0.010559,0.010742,-0.989685,0.297191,0.401832,0.052214,59,273,570,5648
1644171001.554404,-0.010559,0.009766,-0.990906,0.236122,0.386565,-0.115725,45,280,575,5648
1644171001.602809,-0.008423,0.010864,-0.989746,0.098718,0.493435,-0.069924,49,277,572,5664
1644171001.651187,-0.011475,0.010376,-0.989502,0.327725,0.478168,-0.054656,47,275,584,5696
1644171001.699575,-0.011047,0.011292,-0.991577,0.373527,0.615573,-0.054656,55,266,573,5664
1644171001.747936,-0.01001,0.009033,-0.994568,0.327725,0.325496,-0.14626,58,269,576,5664
1644171001.796357,-0.009583,0.009399,-0.992371,0.205588,0.523969,-0.085191,54,275,582,5696
1644171001.844738,-0.01178,0.01123,-0.99231,0.266656,0.462901,-0.161527,51,262,580,5664
1644171001.893194,-0.011169,0.010254,-0.98999,0.327725,0.447634,-0.085191,47,282,577,5664
1644171001.941566,-0.010803,0.010925,-0.990601,0.113985,0.478168,-0.100458,46,276,578,5696
1644171001.989946,-0.01062,0.010132,-0.989014,0.159786,0.279695,0.006412,57,275,584,5712
1644171002.038341,-0.008179,0.00946,-0.991394,0.144519,0.462901,-0.069924,57,275,579,5712
1644171002.086786,-0.013977,0.007446,-0.992493,0.144519,0.310229,-0.054656,52,273,579,5648
1644171002.135177,-0.011597,0.007141,-0.991211,0.281924,0.356031,-0.268397,45,273,577,5696
1644171002.183515,-0.008484,0.013,-0.990173,0.144519,0.432366,-0.069924,53,276,576,5696
1644171002.231975,-0.011841,0.008545,-0.991577,0.46513,0.264427,0.021679,51,276,569,5648
1644171002.281861,-0.010437,0.010315,-0.991089,0.251389,0.386565,-0.054656,54,263,589,5712
1644171002.332035,-0.009521,0.011902,-0.991516,0.175053,0.340763,-0.130992,47,277,577,5584
1644171002.382439,-0.010071,0.009827,-0.991211,0.159786,0.478168,-0.039389,51,276,573,5648
1644171002.426965,-0.011047,0.00946,-0.992188,0.297191,0.371298,-0.115725,45,280,577,5648
1644171002.52242,-0.009949,0.011902,-0.990845,0.129252,0.325496,-0.14626,57,275,579,5712
1644171002.570636,-0.009338,0.009277,-0.993774,0.190321,0.386565,0.006412,53,291,578,5664
1644171002.619019,-0.012207,0.008057,-0.992065,0.205588,0.310229,-0.085191,58,274,569,5664
1644171002.667419,-0.011108,0.009338,-0.992493,0.144519,0.432366,-0.14626,49,275,577,5664
1644171002.715812,-0.010559,0.008484,-0.992981,0.312458,0.417099,-0.039389,55,271,576,5664
1644171002.76421,-0.012207,0.012085,-0.99176,0.327725,0.478168,-0.069924,55,274,580,5696
1644171002.812602,-0.008667,0.010559,-0.991943,0.297191,0.371298,-0.115725,41,271,576,5696
1644171002.860993,-0.008423,0.01123,-0.990845,0.08345,0.371298,-0.054656,51,276,578,5696
1644171002.90937,-0.009399,0.008179,-0.991089,0.251389,0.417099,0.021679,51,283,569,5600
1644171002.957768,-0.011841,0.012207,-0.990051,0.220855,0.432366,0.036947,42,270,570,5664
1644171003.006155,-0.009827,0.007751,-0.990234,0.373527,0.401832,-0.069924,48,274,578,5760
1644171003.063621,-0.010681,0.009521,-0.992676,0.175053,0.508702,0.113282,53,281,573,5600
1644171003.102904,-0.012268,0.009399,-0.992493,0.35826,0.279695,-0.115725,57,280,579,5696
1644171003.151299,-0.012329,0.008972,-0.992065,0.175053,0.340763,-0.115725,59,265,577,5776
1644171003.199691,-0.010559,0.01239,-0.989929,0.35826,0.615573,-0.008855,53,274,578,5648
1644171003.24807,-0.008545,0.010315,-0.992981,0.129252,0.417099,-0.130992,46,274,578,5648
1644171003.296458,-0.008728,0.007751,-0.991272,0.205588,0.279695,-0.207328,38,273,584,5664
1644171003.34486,-0.008545,0.011169,-0.992493,0.129252,0.447634,-0.115725,51,271,580,5728
1644171003.393564,-0.010742,0.009338,-0.990906,0.220855,0.371298,-0.069924,49,273,584,5712
1644171003.442592,-0.009521,0.012146,-0.990112,0.281924,0.401832,-0.25313,41,271,571,5648
1644171003.493336,-0.011414,0.010193,-0.989807,0.297191,0.386565,-0.039389,54,268,589,5648
1644171003.543101,-0.011536,0.009521,-0.993774,0.281924,0.356031,-0.130992,55,266,573,5648
1644171003.588263,-0.011047,0.007385,-0.992065,0.297191,0.386565,0.052214,55,271,578,5664
1644171003.683597,-0.006714,0.009583,-0.991821,0.35826,0.447634,-0.161527,53,283,580,5712
1644171003.731971,-0.012024,0.010254,-0.992432,0.373527,0.447634,-0.115725,48,269,576,5664
1644171003.780364,-0.011292,0.008667,-0.988098,0.266656,0.386565,0.052214,47,275,584,5696
1644171003.828801,-0.006836,0.007568,-0.992371,0.220855,0.554504,-0.176794,46,269,580,5696
1644171003.877157,-0.010254,0.010925,-0.98938,0.236122,0.401832,-0.039389,53,271,583,5664
1644171003.925557,-0.010193,0.011169,-0.993896,0.251389,0.294962,-0.115725,47,265,582,5696
1644171003.973976,-0.008972,0.012207,-0.990967,0.434595,0.432366,-0.085191,60,274,569,5728
1644171004.022422,-0.014099,0.011047,-0.99115,0.205588,0.371298,-0.115725,47,268,579,5760
1644171004.072731,-0.007263,0.012634,-0.98999,0.35826,0.493435,-0.024122,54,263,584,5696
1644171004.119108,-0.008545,0.012085,-0.990845,0.037649,0.447634,-0.085191,51,279,580,5664
1644171004.167494,-0.010071,0.00824,-0.988892,0.297191,0.401832,-0.207328,45,277,575,5632
1644171004.215884,-0.00946,0.010193,-0.99115,0.297191,0.401832,-0.069924,58,276,585,5696
1644171004.264256,-0.011108,0.007202,-0.99176,0.205588,0.401832,-0.176794,52,282,572,5664
1644171004.312657,-0.009888,0.010376,-0.993835,0.35826,0.386565,-0.085191,42,270,572,5664
1644171004.361059,-0.012024,0.011169,-0.991943,0.175053,0.401832,-0.100458,51,279,569,5664
1644171004.40944,-0.01239,0.006165,-0.991455,0.190321,0.462901,-0.115725,46,276,585,5648
1644171004.457817,-0.011841,0.008667,-0.991882,0.281924,0.417099,0.021679,54,273,584,5664
1644171004.506537,-0.010376,0.011414,-0.991089,0.342992,0.508702,-0.054656,48,276,587,5664
1644171004.555576,-0.009888,0.008911,-0.99176,0.113985,0.493435,-0.192061,55,266,580,5728
1644171004.606149,-0.010132,0.009827,-0.989502,0.35826,0.417099,-0.039389,48,266,583,5760
1644171004.656146,-0.010193,0.006165,-0.990906,0.190321,0.401832,-0.085191,55,276,587,5648
1644171004.748173,-0.012329,0.008301,-0.991394,0.312458,0.523969,-0.222595,49,273,577,5696
1644171004.796544,-0.010986,0.01062,-0.987732,0.098718,0.356031,-0.115725,55,274,580,5664
1644171004.845028,-0.009827,0.011047,-0.990784,0.190321,0.294962,0.021679,49,275,575,5696
1644171004.893354,-0.011475,0.010498,-0.991394,0.220855,0.432366,-0.024122,42,277,582,5664
1644171004.941773,-0.010864,0.007935,-0.992126,0.144519,0.432366,-0.161527,49,258,579,5664
1644171004.990165,-0.006592,0.010681,-0.991272,0.220855,0.539237,-0.130992,53,274,576,5648
1644171005.038567,-0.013062,0.011414,-0.990234,0.404061,0.279695,-0.054656,48,283,576,5696
1644171005.090701,-0.009216,0.010315,-0.989868,0.175053,0.478168,0.036947,57,270,582,5696
1644171005.135322,-0.010437,0.010559,-0.991455,0.205588,0.478168,-0.054656,47,273,577,5648
1644171005.183702,-0.00885,0.010071,-0.992432,0.35826,0.371298,-0.100458,45,273,582,5696
1644171005.232206,-0.01123,0.008972,-0.993164,0.266656,0.340763,-0.115725,42,277,572,5728
1644171005.280448,-0.011108,0.010254,-0.991089,0.388794,0.508702,-0.039389,53,269,576,5696
1644171005.328853,-0.010071,0.006531,-0.990356,0.251389,0.493435,-0.039389,47,268,586,5696
1644171005.377259,-0.006592,0.007324,-0.989075,0.236122,0.493435,-0.054656,52,273,582,5696
1644171005.425645,-0.009277,0.010437,-0.992065,0.373527,0.554504,-0.14626,51,262,580,5696
1644171005.474032,-0.008728,0.008423,-0.992798,0.35826,0.417099,-0.069924,46,286,578,5712
1644171005.522607,-0.01178,0.008667,-0.993347,0.144519,0.539237,-0.054656,59,276,576,5664
1644171005.57084,-0.010559,0.011658,-0.993042,0.297191,0.417099,-0.237863,54,277,579,5712
1644171005.62062,-0.008545,0.008911,-0.989929,0.052916,0.462901,-0.130992,49,273,577,5696
1644171005.671109,-0.009827,0.01062,-0.992981,0.251389,0.447634,-0.069924,43,281,580,5632
1644171005.716003,-0.006531,0.006897,-0.991699,0.342992,0.432366,-0.039389,49,277,572,5600
1644171005.812829,-0.009888,0.010864,-0.990906,0.251389,0.386565,-0.14626,43,274,573,5712
1644171005.861185,-0.008972,0.008179,-0.991028,0.220855,0.508702,-0.237863,48,266,573,5696
1644171005.909584,-0.00885,0.010254,-0.991577,0.46513,0.340763,-0.008855,49,260,575,5648
1644171005.957969,-0.009827,0.009949,-0.992554,0.281924,0.478168,-0.085191,48,274,576,5648
1644171006.006353,-0.00946,0.010437,-0.991516,0.129252,0.585038,-0.14626,54,268,584,5760
1644171006.060985,-0.012329,0.009949,-0.989929,0.495664,0.371298,-0.069924,57,275,582,5696
1644171006.103122,-0.010559,0.010315,-0.992798,0.205588,0.523969,-0.115725,48,281,583,5664
1644171006.151501,-0.009705,0.009399,-0.993896,0.205588,0.356031,-0.024122,52,287,577,5632
1644171006.19992,-0.010315,0.007507,-0.992493,0.35826,0.325496,-0.283664,48,271,583,5648
1644171006.248267,-0.009521,0.008728,-0.992493,0.236122,0.417099,-0.161527,54,273,570,5664
1644171006.296644,-0.00946,0.01001,-0.990356,0.297191,0.371298,-0.14626,51,274,576,5648
1644171006.345155,-0.009338,0.009338,-0.989929,0.190321,0.279695,-0.222595,43,276,578,5760
1644171006.393463,-0.010193,0.01123,-0.99176,0.388794,0.508702,-0.115725,41,264,571,5648
1644171006.441847,-0.007812,0.011963,-0.991577,0.35826,0.386565,-0.161527,41,271,585,5632
1644171006.490258,-0.013306,0.007324,-0.989441,0.159786,0.417099,-0.085191,51,271,578,5664
1644171006.538633,-0.005981,0.012268,-0.99176,0.220855,0.462901,0.006412,48,276,585,5664
1644171006.587025,-0.01178,0.008911,-0.994019,0.35826,0.539237,-0.069924,54,277,570,5648
1644171006.635413,-0.007568,0.009155,-0.991943,0.159786,0.310229,-0.054656,52,270,568,5696
1644171006.683809,-0.01178,0.01123,-0.993713,0.35826,0.447634,-0.130992,46,271,580,5664
1644171006.732225,-0.011963,0.009949,-0.992065,0.220855,0.371298,-0.024122,53,271,576,5664
1644171006.782787,-0.009521,0.012207,-0.992126,0.190321,0.401832,-0.161527,49,273,577,5696
1644171006.833178,-0.009033,0.00824,-0.993347,0.281924,0.478168,-0.008855,54,268,577,5664
1644171006.878511,-0.009155,0.010681,-0.991882,0.022382,0.401832,-0.130992,47,273,577,5648
1644171006.974205,-0.010803,0.010925,-0.993469,0.297191,0.417099,-0.008855,55,262,576,5696
1644171007.022583,-0.00824,0.007629,-0.990662,0.373527,0.386565,-0.115725,52,265,572,5664
1644171007.071013,-0.010193,0.013306,-0.989868,0.327725,0.432366,-0.069924,46,269,576,5664
1644171007.119345,-0.007996,0.009399,-0.990723,0.342992,0.356031,-0.085191,59,270,563,5696
1644171007.167714,-0.011353,0.008545,-0.992554,0.373527,0.493435,-0.100458,57,280,582,5696
1644171007.216082,-0.009521,0.00647,-0.992065,0.342992,0.478168,-0.069924,48,269,578,5696
1644171007.264506,-0.01001,0.009766,-0.990295,0.205588,0.401832,-0.069924,53,283,569,5648
1644171007.312853,-0.008606,0.009644,-0.993103,0.281924,0.310229,-0.039389,47,268,579,5664
1644171007.361278,-0.011719,0.013306,-0.992554,0.220855,0.356031,-0.100458,48,271,573,5648
1644171007.409639,-0.009216,0.011047,-0.993469,0.205588,0.386565,-0.100458,55,276,583,5648
1644171007.45805,-0.008728,0.009705,-0.990479,0.220855,0.233893,0.036947,43,271,576,5648
1644171007.506422,-0.009033,0.013306,-0.991516,0.312458,0.356031,-0.130992,48,279,576,5728
1644171007.55485,-0.01001,0.00824,-0.993347,0.404061,0.478168,-0.054656,47,273,568,5696
1644171007.603233,-0.012756,0.010132,-0.98761,0.098718,0.356031,-0.207328,42,273,579,5648
1644171007.651616,-0.010376,0.007996,-0.992126,0.022382,0.447634,-0.130992,53,271,594,5664
1644171007.699983,-0.009827,0.007812,-0.990051,0.175053,0.386565,-0.115725,54,270,568,5648
1644171007.74836,-0.012634,0.010925,-0.989807,0.220855,0.447634,-0.024122,54,275,582,5648
1644171007.796778,-0.012329,0.00885,-0.99176,0.205588,0.417099,-0.039389,52,275,584,5664
1644171007.845757,-0.01239,0.008789,-0.990906,0.281924,0.493435,-0.222595,40,273,568,5696
1644171007.896153,-0.010437,0.010254,-0.989929,0.251389,0.447634,-0.14626,48,271,587,5664
1644171007.946513,-0.009094,0.010071,-0.991455,0.281924,0.325496,-0.024122,48,271,578,5664
1644171007.990758,-0.009888,0.013367,-0.992004,0.113985,0.508702,0.036947,54,270,572,5664
1644171008.08723,-0.008118,0.011108,-0.992371,0.312458,0.401832,-0.176794,39,271,569,5808
1644171008.135556,-0.010132,0.007812,-0.991333,0.266656,0.432366,-0.039389,43,274,573,5712
1644171008.183921,-0.012085,0.010437,-0.990112,0.312458,0.325496,-0.192061,42,282,575,5664
1644171008.232386,-0.010071,0.007996,-0.992065,0.159786,0.417099,-0.161527,52,275,579,5696
1644171008.280669,-0.011169,0.009949,-0.993652,0.098718,0.417099,-0.085191,49,268,572,5712
1644171008.329064,-0.009155,0.01001,-0.995361,0.236122,0.554504,-0.115725,41,274,587,5664
1644171008.377464,-0.009521,0.009216,-0.991577,0.129252,0.478168,-0.115725,48,276,571,5728
1644171008.425869,-0.011475,0.011108,-0.989014,0.388794,0.554504,-0.100458,46,264,578,5664
1644171008.474261,-0.011475,0.010559,-0.991699,0.129252,0.386565,0.098015,64,275,584,5648
1644171008.522664,-0.013855,0.010376,-0.992432,0.327725,0.294962,-0.176794,52,277,570,5648
1644171008.571031,-0.012085,0.008728,-0.993042,0.266656,0.432366,-0.130992,53,279,583,5664
1644171008.61943,-0.013184,0.008179,-0.994324,0.281924,0.356031,-0.268397,49,277,572,5664
1644171008.667789,-0.011108,0.007812,-0.993042,0.220855,0.310229,-0.115725,39,271,573,5664
1644171008.71619,-0.011108,0.011169,-0.990845,0.266656,0.24916,-0.14626,47,275,575,5648
1644171008.764637,-0.009949,0.00946,-0.993408,0.266656,0.432366,-0.085191,51,271,580,5648
1644171008.812997,-0.010498,0.009766,-0.992004,0.327725,0.432366,-0.024122,51,281,580,5664
1644171008.861416,-0.011841,0.00824,-0.990845,0.342992,0.447634,0.021679,49,277,589,5696
1644171008.909812,-0.011414,0.009705,-0.992615,0.236122,0.401832,0.006412,51,269,576,5696
1644171008.958231,-0.012573,0.010315,-0.989807,0.159786,0.569771,-0.100458,48,279,583,5696
1644171009.06246,-0.007507,0.007446,-0.992432,0.144519,0.493435,-0.222595,49,275,570,5664
1644171009.103367,-0.011108,0.009949,-0.991577,0.236122,0.585038,-0.100458,52,285,572,5696
1644171009.151775,-0.011536,0.010376,-0.990234,0.190321,0.432366,-0.008855,45,282,575,5648
1644171009.200123,-0.008423,0.010132,-0.990845,0.190321,0.294962,-0.14626,49,275,570,5648
1644171009.248466,-0.01355,0.009827,-0.990295,0.297191,0.432366,0.067481,52,280,577,5648
1644171009.296857,-0.010742,0.006592,-0.990479,0.281924,0.401832,-0.161527,49,275,577,5696
1644171009.345289,-0.009705,0.008484,-0.991577,0.205588,0.401832,-0.192061,46,271,587,5664
1644171009.393691,-0.009216,0.01001,-0.991211,0.098718,0.218626,0.006412,49,282,577,5696
1644171009.442068,-0.009216,0.013367,-0.99231,0.373527,0.218626,-0.14626,45,268,579,5648
1644171009.490475,-0.009827,0.009949,-0.990356,0.068183,0.401832,-0.085191,46,283,573,5696
1644171009.539156,-0.008118,0.010193,-0.995972,0.175053,0.417099,-0.024122,49,268,584,5648
1644171009.587967,-0.013123,0.008911,-0.992371,0.129252,0.554504,-0.192061,52,263,582,5696
1644171009.638566,-0.007568,0.009155,-0.99176,0.251389,0.386565,-0.100458,48,269,571,5664
1644171009.688652,-0.010193,0.01001,-0.99176,0.159786,0.417099,-0.100458,52,277,570,5696
1644171009.733594,-0.012451,0.008667,-0.992249,0.251389,0.356031,-0.054656,48,269,578,5648
1644171009.829183,-0.011902,0.010132,-0.990906,0.205588,0.554504,0.082748,52,280,563,5664
1644171009.877559,-0.009094,0.008118,-0.993103,0.327725,0.325496,-0.024122,40,263,575,5696
1644171009.925985,-0.011292,0.010498,-0.990906,0.175053,0.554504,-0.069924,46,279,569,5696
1644171009.974404,-0.012878,0.009949,-0.992249,0.281924,0.371298,-0.130992,49,275,584,5712
1644171010.022814,-0.011658,0.007446,-0.992004,0.297191,0.432366,-0.176794,49,277,579,5712
1644171010.071251,-0.009216,0.010315,-0.990906,0.312458,0.447634,0.067481,60,276,587,5696
1644171010.119532,-0.010254,0.011108,-0.991089,0.434595,0.462901,-0.069924,58,271,578,5664
1644171010.167923,-0.009644,0.00946,-0.992188,0.297191,0.325496,-0.161527,53,274,585,5664
1644171010.216317,-0.010864,0.010193,-0.990601,0.022382,0.264427,0.006412,53,274,571,5664
1644171010.264707,-0.01001,0.012329,-0.993103,0.297191,0.462901,-0.054656,55,283,583,5776
1644171010.313127,-0.01178,0.007874,-0.992065,0.266656,0.417099,-0.008855,57,273,577,5664
1644171010.361491,-0.011841,0.010803,-0.994385,0.327725,0.340763,-0.25313,55,279,571,5696
1644171010.409886,-0.008057,0.011475,-0.992493,0.205588,0.386565,-0.054656,60,264,573,5696
1644171010.458266,-0.009949,0.009094,-0.991333,0.35826,0.356031,-0.207328,47,277,577,5664
1644171010.506631,-0.009827,0.008545,-0.990479,0.098718,0.493435,-0.039389,58,274,573,5664
1644171010.555181,-0.00885,0.00885,-0.991516,0.205588,0.356031,0.036947,47,268,575,5696
1644171010.603443,-0.012939,0.010498,-0.993774,0.220855,0.432366,-0.14626,49,273,575,5648
1644171010.652184,-0.009399,0.013,-0.991211,0.022382,0.371298,-0.192061,47,275,577,5664
1644171010.700981,-0.008057,0.008667,-0.993408,0.327725,0.447634,-0.207328,47,265,579,5696
1644171010.751516,-0.010437,0.010437,-0.991577,0.129252,0.432366,0.006412,59,268,589,5696
1644171010.802613,-0.010193,0.010254,-0.990784,0.251389,0.478168,-0.130992,59,268,575,5696
1644171010.893827,-0.009338,0.008423,-0.991943,0.205588,0.325496,-0.054656,55,276,585,5648
1644171010.942425,-0.00769,0.00946,-0.993103,0.251389,0.462901,-0.085191,52,270,572,5664
1644171010.9906,-0.008179,0.008484,-0.993652,0.175053,0.569771,-0.115725,52,270,572,5696
1644171011.03899,-0.008179,0.010132,-0.993164,0.205588,0.447634,0.052214,48,279,578,5664
1644171011.092455,-0.009705,0.007812,-0.99353,0.220855,0.432366,-0.008855,43,286,583,5664
1644171011.135735,-0.009277,0.008667,-0.987915,0.190321,0.508702,0.021679,51,269,573,5712
1644171011.184143,-0.011719,0.008057,-0.992188,0.236122,0.401832,-0.054656,54,280,577,5664
1644171011.232526,-0.009338,0.01001,-0.994446,0.312458,0.325496,-0.069924,54,287,570,5648
1644171011.280884,-0.013062,0.009277,-0.991394,0.266656,0.585038,-0.024122,53,281,583,5712
1644171011.329296,-0.007629,0.007141,-0.991699,0.144519,0.371298,-0.222595,48,274,583,5664
1644171011.377699,-0.009644,0.011108,-0.991394,0.281924,0.523969,0.021679,51,276,583,5648
1644171011.426078,-0.010498,0.009827,-0.990234,0.220855,0.371298,-0.176794,55,266,578,5760
1644171011.474473,-0.009155,0.009338,-0.989258,0.220855,0.310229,-0.054656,49,273,572,5664
1644171011.523005,-0.010254,0.009277,-0.989502,0.205588,0.417099,-0.100458,47,285,586,5696
1644171011.57184,-0.010193,0.007446,-0.992676,0.205588,0.417099,-0.176794,41,283,573,5696
1644171011.622442,-0.009827,0.012024,-0.989929,0.159786,0.371298,-0.054656,47,268,577,5664
1644171011.672636,-0.011108,0.011902,-0.991516,0.281924,0.356031,-0.192061,45,273,572,5664
1644171011.717547,-0.009033,0.009644,-0.990295,0.342992,0.386565,0.021679,57,268,572,5696
1644171011.813246,-0.010315,0.009644,-0.991028,0.281924,0.493435,-0.039389,51,274,580,5664
1644171011.861637,-0.007568,0.00946,-0.991211,0.297191,0.417099,0.021679,54,273,582,5664
1644171011.910023,-0.011597,0.009521,-0.993591,0.312458,0.508702,-0.25313,45,268,572,5648
1644171011.958422,-0.008728,0.011353,-0.992554,0.144519,0.523969,0.006412,46,264,573,5728
1644171012.006799,-0.011108,0.010742,-0.989258,0.190321,0.371298,-0.024122,41,269,583,5760
1644171012.059489,-0.008728,0.01001,-0.990784,0.068183,0.447634,0.098015,42,277,575,5664
1644171012.103585,-0.011292,0.009277,-0.991028,0.190321,0.356031,-0.069924,55,271,578,5696
1644171012.151933,-0.008911,0.008606,-0.994019,0.236122,0.569771,0.067481,57,270,577,5664
1644171012.200327,-0.009277,0.008545,-0.99115,0.373527,0.585038,-0.237863,42,260,570,5648
1644171012.248696,-0.009583,0.010925,-0.990784,0.113985,0.63084,-0.085191,59,273,577,5696
1644171012.29711,-0.008789,0.008484,-0.991821,0.205588,0.386565,0.036947,53,279,576,5664
1644171012.345498,-0.006348,0.010376,-0.992126,0.434595,0.417099,0.021679,52,275,575,5696
1644171012.393881,-0.011658,0.010925,-0.986877,0.190321,0.386565,-0.008855,48,286,578,5664
1644171012.442296,-0.00708,0.009644,-0.992065,0.266656,0.310229,-0.192061,49,268,570,5664
1644171012.490687,-0.01178,0.011108,-0.991577,0.159786,0.371298,-0.039389,47,287,586,5648
1644171012.539039,-0.010559,0.009888,-0.993408,0.434595,0.539237,-0.176794,48,279,573,5648
1644171012.587452,-0.009766,0.007446,-0.990906,0.297191,0.432366,-0.024122,54,275,582,5712
1644171012.635856,-0.00946,0.01001,-0.993103,0.052916,0.478168,0.021679,52,273,572,5664
1644171012.685716,-0.01062,0.010132,-0.992615,0.266656,0.401832,-0.14626,48,276,583,5664
1644171012.736643,-0.00885,0.009338,-0.993713,0.236122,0.294962,-0.024122,60,276,576,5712
1644171012.781051,-0.008057,0.014709,-0.995483,0.113985,0.539237,0.021679,54,268,572,5664
1644171012.877829,-0.008301,0.009277,-0.991333,0.342992,0.401832,-0.14626,48,281,564,5696
1644171012.926217,-0.012268,0.010071,-0.991699,0.297191,0.340763,0.067481,49,275,575,5696
1644171012.974867,-0.009644,0.010864,-0.993591,0.205588,0.462901,-0.207328,45,268,577,5712
1644171013.023042,-0.012512,0.010559,-0.992188,0.052916,0.401832,-0.054656,45,275,572,5728
1644171013.071457,-0.007568,0.009277,-0.992432,0.312458,0.371298,-0.161527,47,273,586,5664
1644171013.119792,-0.009277,0.012268,-0.991943,0.266656,0.386565,-0.008855,52,277,568,5664
1644171013.168137,-0.011353,0.011475,-0.990845,0.220855,0.554504,-0.161527,59,275,575,5696
1644171013.21654,-0.008301,0.006104,-0.991638,0.144519,0.401832,-0.14626,48,271,571,5696
1644171013.264908,-0.008911,0.008362,-0.993225,0.236122,0.417099,-0.100458,57,280,577,5696
1644171013.313308,-0.009033,0.012695,-0.98877,0.236122,0.462901,-0.039389,58,276,566,5664
1644171013.361691,-0.008362,0.00769,-0.992126,0.144519,0.356031,-0.100458,60,271,573,5648
1644171013.410101,-0.012146,0.012634,-0.991638,0.266656,0.340763,-0.100458,51,269,569,5696
1644171013.458491,-0.012939,0.011169,-0.989624,0.312458,0.356031,-0.14626,54,275,577,5648
1644171013.506857,-0.011658,0.010254,-0.992432,0.220855,0.386565,-0.115725,42,273,582,5648
1644171013.555265,-0.010986,0.009827,-0.991211,0.251389,0.371298,-0.130992,55,276,583,5664
1644171013.60365,-0.008972,0.007812,-0.992859,0.266656,0.508702,-0.14626,43,262,576,5696
1644171013.652014,-0.00885,0.008972,-0.990845,0.312458,0.417099,-0.008855,60,269,585,5552
1644171013.700406,-0.011536,0.007568,-0.991821,0.190321,0.310229,0.082748,49,275,577,5664
1644171013.748809,-0.008057,0.007568,-0.99231,0.175053,0.386565,-0.100458,52,277,582,5664
1644171013.797597,-0.009705,0.01062,-0.99231,0.175053,0.478168,-0.100458,51,262,578,5664
1644171013.848761,-0.00769,0.00824,-0.988953,0.297191,0.478168,-0.054656,57,263,586,5712
1644171013.899177,-0.008789,0.009033,-0.991333,0.129252,0.233893,-0.054656,48,281,573,5712
1644171013.943681,-0.010498,0.010193,-0.992493,0.236122,0.508702,-0.008855,51,274,576,5664
1644171014.039225,-0.009338,0.009094,-0.993347,0.373527,0.523969,-0.024122,43,274,566,5696
1644171014.088303,-0.009399,0.010132,-0.995911,0.236122,0.493435,-0.115725,64,280,579,5648
1644171014.135981,-0.01001,0.008179,-0.992126,0.129252,0.417099,-0.161527,38,285,582,5696
1644171014.184355,-0.010193,0.008728,-0.991882,0.113985,0.523969,0.036947,58,274,578,5712
1644171014.232762,-0.012207,0.008911,-0.989685,0.175053,0.493435,-0.100458,52,270,582,5696
1644171014.281132,-0.009644,0.009155,-0.993042,0.205588,0.462901,-0.207328,59,273,575,5600
1644171014.329501,-0.011841,0.009155,-0.992065,0.434595,0.432366,-0.085191,49,270,577,5696
1644171014.377905,-0.011536,0.011047,-0.992737,0.327725,0.432366,-0.039389,52,273,572,5664
1644171014.426307,-0.009644,0.008911,-0.992432,0.251389,0.24916,-0.130992,47,270,577,5632
1644171014.474721,-0.007812,0.007507,-0.991272,0.068183,0.24916,-0.161527,46,276,573,5664
1644171014.523093,-0.010315,0.010193,-0.990601,0.236122,0.401832,-0.039389,60,269,580,5696
1644171014.571468,-0.012146,0.007874,-0.992554,0.08345,0.539237,-0.069924,47,275,579,5664
1644171014.619853,-0.012268,0.009094,-0.993958,0.35826,0.447634,-0.085191,49,265,582,5664
1644171014.668249,-0.010742,0.009155,-0.99353,0.281924,0.462901,-0.115725,45,275,572,5648
1644171014.716645,-0.011108,0.010132,-0.991333,0.281924,0.462901,-0.130992,53,279,573,5664
1644171014.765067,-0.010864,0.009888,-0.992737,0.35826,0.24916,-0.14626,45,270,579,5664
1644171014.813419,-0.009766,0.011963,-0.992676,0.449863,0.417099,-0.008855,52,273,579,5696
1644171014.861872,-0.009583,0.011658,-0.993591,0.297191,0.386565,-0.054656,52,275,579,5648
1644171014.910513,-0.008301,0.010132,-0.990173,0.236122,0.462901,-0.222595,53,276,564,5696
1644171014.961473,-0.008484,0.006592,-0.992859,0.266656,0.386565,-0.039389,53,274,571,5728
1644171015.057543,-0.010254,0.009399,-0.991943,0.342992,0.371298,-0.100458,61,268,577,5664
1644171015.103785,-0.011169,0.009888,-0.992249,0.144519,0.508702,0.036947,43,279,583,5648
1644171015.152227,-0.00885,0.005798,-0.991638,0.113985,0.310229,-0.130992,42,277,572,5664
1644171015.200588,-0.00885,0.008667,-0.990723,0.159786,0.371298,-0.161527,49,268,575,5712
1644171015.248956,-0.011169,0.009399,-0.989502,0.312458,0.371298,-0.024122,53,271,573,5664
1644171015.297349,-0.010864,0.010132,-0.991211,0.312458,0.432366,-0.085191,59,273,575,5696
1644171015.345742,-0.009583,0.008362,-0.992554,0.297191,0.432366,-0.161527,46,283,573,5696
1644171015.394169,-0.007446,0.010498,-0.992554,0.220855,0.493435,-0.008855,47,275,575,5664
1644171015.442565,-0.011292,0.01001,-0.991394,0.08345,0.493435,0.067481,46,266,571,5728
1644171015.49095,-0.010315,0.010437,-0.993103,0.281924,0.432366,-0.130992,47,275,584,5664
1644171015.539324,-0.008972,0.011353,-0.988403,0.098718,0.493435,-0.161527,52,285,575,5696
1644171015.587709,-0.012207,0.011658,-0.991699,0.205588,0.554504,-0.024122,51,269,576,5696
1644171015.636109,-0.010193,0.010498,-0.992981,0.205588,0.218626,-0.100458,51,271,583,5696
1644171015.684848,-0.00885,0.010254,-0.991821,0.297191,0.340763,-0.024122,51,276,580,5664
1644171015.732928,-0.011047,0.010559,-0.989075,0.312458,0.523969,0.036947,53,269,585,5728
1644171015.782897,-0.00647,0.009033,-0.99408,0.190321,0.569771,0.006412,51,269,576,5648
1644171015.833285,-0.010071,0.011169,-0.989502,0.388794,0.478168,-0.25313,47,270,582,5696
1644171015.883585,-0.007446,0.009399,-0.993286,0.327725,0.417099,-0.115725,49,268,572,5648
1644171015.927954,-0.007507,0.010315,-0.990356,0.251389,0.233893,-0.130992,54,277,565,5648
1644171016.023217,-0.012085,0.008667,-0.996216,0.419328,0.325496,-0.069924,53,274,578,5712
1644171016.071684,-0.009827,0.009338,-0.993225,0.220855,0.340763,-0.039389,46,266,585,5696
1644171016.119922,-0.010864,0.009094,-0.99115,0.266656,0.646107,-0.085191,57,270,577,5648
1644171016.168341,-0.009583,0.012146,-0.993347,0.205588,0.386565,-0.100458,46,276,571,5696
1644171016.216744,-0.008118,0.010864,-0.990479,0.388794,0.508702,-0.192061,45,285,579,5712
1644171016.265173,-0.009644,0.006836,-0.991333,0.251389,0.523969,-0.085191,57,273,579,5696
1644171016.313524,-0.010559,0.010742,-0.994507,0.297191,0.218626,-0.222595,54,270,575,5648
1644171016.361931,-0.008728,0.006775,-0.99408,0.190321,0.310229,-0.024122,49,265,570,5712
1644171016.410323,-0.010925,0.00769,-0.99115,0.190321,0.371298,0.006412,46,271,576,5648
1644171016.458714,-0.010559,0.00885,-0.993164,0.281924,0.279695,-0.161527,51,276,578,5728
1644171016.507101,-0.012146,0.012146,-0.993958,0.113985,0.279695,0.006412,51,279,569,5664
1644171016.555482,-0.011719,0.010559,-0.994507,0.251389,0.401832,-0.069924,55,271,580,5664
1644171016.603886,-0.010315,0.010803,-0.994934,0.159786,0.539237,-0.115725,53,276,569,5664
1644171016.652242,-0.007507,0.008179,-0.99115,0.312458,0.386565,-0.161527,41,271,578,5648
1644171016.700648,-0.007507,0.01178,-0.990173,0.159786,0.417099,-0.176794,55,269,578,5696
1644171016.749048,-0.008911,0.010559,-0.990906,0.266656,0.478168,-0.085191,48,274,587,5664
1644171016.797485,-0.01001,0.01001,-0.993103,0.098718,0.417099,-0.161527,54,275,586,5664
1644171016.846225,-0.011292,0.009888,-0.993042,0.159786,0.264427,-0.085191,49,270,577,5696
1644171016.894283,-0.007996,0.009766,-0.987671,0.327725,0.371298,-0.069924,55,266,578,5648
1644171016.94392,-0.010742,0.010437,-0.992493,0.266656,0.172824,-0.115725,49,277,582,5648
1644171016.994273,-0.009216,0.006348,-0.990784,0.236122,0.325496,-0.069924,54,277,575,5648
1644171017.056761,-0.012756,0.011169,-0.993286,0.220855,0.447634,-0.115725,57,277,577,5664
1644171017.092909,-0.01062,0.008484,-0.991699,0.144519,0.447634,-0.237863,51,274,576,5664
1644171017.184827,-0.011292,0.009583,-0.99353,0.327725,0.386565,0.021679,49,277,575,5712
1644171017.232956,-0.010376,0.010559,-0.989441,0.113985,0.386565,-0.161527,52,263,572,5696
1644171017.281313,-0.009094,0.01178,-0.991333,0.388794,0.569771,-0.176794,45,273,570,5696
1644171017.329737,-0.009766,0.010254,-0.99176,0.373527,0.447634,0.098015,53,283,580,5696
1644171017.378123,-0.008301,0.008484,-0.992737,0.266656,0.447634,-0.207328,53,283,578,5712
1644171017.426518,-0.008057,0.010986,-0.993469,0.266656,0.462901,0.006412,47,270,577,5648
1644171017.474901,-0.010132,0.006409,-0.991333,0.281924,0.340763,-0.115725,49,277,577,5664
1644171017.523301,-0.007935,0.011169,-0.993347,0.205588,0.447634,-0.115725,58,266,571,5664
1644171017.571682,-0.012878,0.010437,-0.989929,0.068183,0.508702,-0.176794,51,269,583,5664
1644171017.620082,-0.008301,0.008911,-0.99054,0.327725,0.417099,-0.069924,53,276,580,5696
1644171017.668473,-0.01123,0.010925,-0.990906,0.35826,0.493435,0.021679,49,268,579,5648
1644171017.716875,-0.009338,0.010498,-0.991516,0.251389,0.493435,-0.085191,45,265,572,5696
1644171017.765309,-0.009338,0.009399,-0.99054,0.35826,0.432366,-0.069924,46,266,580,5664
1644171017.81369,-0.008972,0.011475,-0.990723,0.159786,0.401832,0.036947,51,274,583,5712
1644171017.862076,-0.010559,0.010864,-0.992859,0.113985,0.401832,-0.008855,45,263,577,5648
1644171017.910437,-0.01123,0.008789,-0.989319,0.266656,0.371298,0.067481,45,275,572,5648
1644171017.958855,-0.011963,0.011597,-0.992981,0.205588,0.478168,-0.161527,52,280,570,5664
1644171018.007979,-0.010376,0.011414,-0.990662,0.144519,0.417099,0.006412,39,276,583,5696
1644171018.080012,-0.009705,0.010071,-0.990051,0.251389,0.462901,-0.130992,60,274,585,5696
1644171018.112613,-0.009094,0.009705,-0.992432,0.281924,0.356031,-0.115725,41,274,576,5728
1644171018.15517,-0.010742,0.008423,-0.992249,0.327725,0.432366,-0.192061,54,265,577,5600
1644171018.205227,-0.008057,0.007629,-0.98999,0.236122,0.356031,-0.100458,47,270,582,5696
1644171018.250282,-0.009094,0.008606,-0.992981,0.129252,0.401832,-0.115725,51,283,569,5696
1644171018.345912,-0.006104,0.008728,-0.991028,0.205588,0.294962,-0.024122,45,268,582,5696
1644171018.394335,-0.010986,0.009338,-0.988647,0.159786,0.371298,-0.024122,43,271,573,5696
1644171018.442728,-0.009583,0.006287,-0.993225,0.373527,0.356031,0.067481,57,280,575,5648
1644171018.491109,-0.009583,0.010254,-0.99176,0.35826,0.447634,-0.14626,48,271,573,5648
1644171018.539466,-0.01062,0.009155,-0.99054,0.297191,0.432366,-0.130992,38,287,577,5728
1644171018.587886,-0.007202,0.011841,-0.992004,0.373527,0.371298,-0.054656,47,275,589,5648
1644171018.63628,-0.007324,0.011841,-0.990112,0.266656,0.447634,-0.207328,52,277,570,5664
1644171018.684692,-0.011353,0.009827,-0.991394,0.297191,0.432366,-0.069924,54,270,575,5664
1644171018.733075,-0.009583,0.009399,-0.990906,0.159786,0.310229,-0.085191,52,282,577,5664
1644171018.781467,-0.008423,0.009277,-0.990662,0.220855,0.325496,-0.115725,52,263,582,5648
1644171018.829881,-0.010864,0.008789,-0.991028,0.190321,0.371298,-0.130992,43,276,573,5664
1644171018.878278,-0.006836,0.010742,-0.990906,0.342992,0.386565,-0.085191,60,274,571,5648
1644171018.926665,-0.009155,0.008667,-0.992126,0.297191,0.478168,0.052214,55,276,573,5664
1644171018.975084,-0.009277,0.008667,-0.991943,0.159786,0.493435,-0.024122,49,273,575,5664
1644171019.023444,-0.010681,0.007935,-0.994568,0.404061,0.478168,-0.130992,47,270,582,5664
1644171019.083974,-0.009705,0.010132,-0.991028,0.388794,0.264427,0.006412,47,275,591,5664
1644171019.120196,-0.011597,0.00769,-0.991394,0.052916,0.401832,-0.069924,45,268,579,5664
1644171019.168555,-0.009644,0.010681,-0.99054,0.190321,0.325496,-0.008855,52,285,582,5664
1644171019.217229,-0.008118,0.008545,-0.991638,0.251389,0.600305,-0.176794,54,270,586,5696
1644171019.267871,-0.008484,0.010071,-0.991821,0.342992,0.386565,0.113282,46,269,576,5664
1644171019.317896,-0.01178,0.009827,-0.990662,0.281924,0.371298,-0.024122,47,273,579,5696
1644171019.362995,-0.010498,0.009827,-0.993286,0.251389,0.508702,-0.085191,49,277,565,5696
1644171019.458909,-0.009705,0.010803,-0.990845,0.220855,0.371298,-0.130992,46,279,571,5696
1644171019.507291,-0.010498,0.006165,-0.99353,0.190321,0.539237,-0.237863,45,285,579,5664
1644171019.555687,-0.01178,0.007202,-0.990356,0.220855,0.371298,-0.207328,46,269,573,5648
1644171019.604095,-0.01178,0.010498,-0.991699,0.220855,0.493435,-0.100458,53,281,576,5696
1644171019.652503,-0.008972,0.007874,-0.992493,0.205588,0.417099,-0.054656,57,273,577,5648
1644171019.700871,-0.008118,0.009888,-0.990356,0.205588,0.279695,-0.039389,42,277,565,5664
1644171019.749256,-0.007446,0.012695,-0.989685,0.297191,0.478168,-0.024122,45,277,577,5648
1644171019.797664,-0.007568,0.007751,-0.991699,0.236122,0.508702,-0.039389,60,274,576,5696
1644171019.846093,-0.010437,0.011047,-0.990601,0.205588,0.371298,0.006412,47,265,579,5760
1644171019.894555,-0.010254,0.008301,-0.991333,0.175053,0.340763,-0.054656,46,279,564,5696
1644171019.94288,-0.012695,0.010986,-0.992249,0.098718,0.432366,0.006412,41,276,583,5664
1644171019.991254,-0.011597,0.010498,-0.992188,0.175053,0.493435,-0.115725,55,271,564,5648
1644171020.039654,-0.010315,0.008789,-0.990845,0.373527,0.447634,-0.069924,49,282,577,5664
1644171020.088155,-0.009521,0.012756,-0.993652,0.251389,0.417099,-0.100458,48,269,585,5696
1644171020.136395,-0.011963,0.006348,-0.990173,0.205588,0.432366,0.006412,53,266,587,5664
1644171020.184788,-0.012085,0.010864,-0.991638,0.205588,0.462901,-0.024122,49,273,572,5664
1644171020.233187,-0.007324,0.008606,-0.991943,0.373527,0.417099,-0.14626,47,287,579,5648
1644171020.281544,-0.010742,0.009094,-0.991272,0.251389,0.493435,-0.039389,57,282,582,5728
1644171020.329949,-0.012146,0.007996,-0.994019,0.220855,0.386565,-0.130992,57,268,575,5648
1644171020.378607,-0.011963,0.008972,-0.988953,0.281924,0.24916,-0.039389,48,274,573,5696
1644171020.428951,-0.012024,0.01001,-0.991333,0.373527,0.554504,-0.100458,52,265,584,5664
1644171020.47924,-0.011963,0.010864,-0.990784,0.312458,0.371298,-0.054656,49,277,572,5728
1644171020.524292,-0.010803,0.007996,-0.991333,0.144519,0.371298,-0.085191,48,274,576,5664
1644171020.620298,-0.008911,0.009644,-0.990295,0.144519,0.401832,-0.100458,45,265,577,5648
1644171020.668682,-0.00824,0.008057,-0.99176,0.220855,0.264427,-0.008855,51,283,578,5664
1644171020.717061,-0.012085,0.010925,-0.990784,0.297191,0.417099,-0.008855,62,269,580,5728
1644171020.765471,-0.010132,0.009399,-0.990234,0.159786,0.508702,0.006412,48,274,583,5664
1644171020.813868,-0.011841,0.008179,-0.990601,0.205588,0.600305,-0.024122,46,269,583,5696
1644171020.862314,-0.008606,0.010803,-0.990906,0.129252,0.325496,-0.283664,49,273,577,5696
1644171020.910681,-0.011536,0.008484,-0.992615,0.220855,0.523969,0.021679,57,263,577,5696
1644171020.959071,-0.010498,0.012756,-0.992615,0.220855,0.417099,0.021679,53,283,578,5696
1644171021.007468,-0.010132,0.01239,-0.991211,0.129252,0.432366,-0.008855,46,274,578,5664
1644171021.066623,-0.01178,0.005798,-0.99176,0.236122,0.371298,-0.161527,57,265,575,5648
1644171021.104235,-0.008545,0.009399,-0.988831,0.404061,0.386565,-0.14626,58,271,578,5664
1644171021.152612,-0.010803,0.008911,-0.992188,0.251389,0.432366,-0.100458,51,269,573,5664
1644171021.200987,-0.01001,0.011658,-0.990845,0.251389,0.401832,-0.222595,49,273,584,5648
1644171021.249382,-0.011414,0.011169,-0.993225,0.312458,0.478168,-0.069924,48,296,571,5648
1644171021.297768,-0.010559,0.008972,-0.99231,0.205588,0.386565,0.036947,49,277,572,5696
1644171021.346157,-0.011719,0.007019,-0.993591,0.281924,0.462901,-0.069924,55,279,580,5664
1644171021.394543,-0.01001,0.008606,-0.990723,0.190321,0.356031,-0.039389,53,286,571,5664
1644171021.442945,-0.011169,0.009521,-0.991211,0.327725,0.325496,-0.069924,41,283,585,5648
1644171021.491339,-0.011597,0.010498,-0.990662,0.159786,0.294962,-0.069924,48,276,576,5664
1644171021.540107,-0.006775,0.01178,-0.990784,0.297191,0.447634,-0.237863,55,274,573,5712
1644171021.590174,-0.012024,0.008728,-0.991394,0.327725,0.447634,-0.207328,48,266,580,5712
1644171021.64048,-0.011475,0.011047,-0.990723,0.175053,0.478168,-0.024122,46,276,562,5664
1644171021.685762,-0.00885,0.012573,-0.991211,0.312458,0.371298,-0.283664,49,268,575,5664
1644171021.781683,-0.011719,0.009155,-0.992859,0.312458,0.462901,-0.039389,45,277,570,5664
1644171021.830069,-0.010315,0.009827,-0.994263,0.388794,0.432366,-0.008855,48,279,576,5728
1644171021.878489,-0.007935,0.011414,-0.991333,0.144519,0.325496,-0.115725,48,279,571,5664
1644171021.92687,-0.007385,0.005493,-0.990967,0.297191,0.264427,-0.008855,51,269,571,5696
1644171021.975271,-0.010864,0.00769,-0.991211,0.236122,0.386565,-0.115725,59,273,579,5696
1644171022.023674,-0.011169,0.010193,-0.993408,0.312458,0.523969,-0.14626,42,277,577,5664
1644171022.072894,-0.009399,0.009888,-0.990845,0.266656,0.508702,-0.039389,48,271,576,5648
1644171022.120443,-0.009216,0.009155,-0.991638,0.08345,0.310229,-0.069924,55,271,576,5664
1644171022.168802,-0.008362,0.008118,-0.992188,0.220855,0.340763,-0.008855,48,283,571,5696
1644171022.217191,-0.008789,0.011719,-0.991699,0.281924,0.325496,-0.115725,55,266,578,5696
1644171022.265561,-0.008118,0.009216,-0.991272,0.175053,0.340763,-0.024122,54,275,582,5648
1644171022.313952,-0.010986,0.012756,-0.99115,0.220855,0.478168,0.082748,49,275,584,5648
1644171022.362367,-0.009705,0.00946,-0.991943,0.113985,0.432366,-0.176794,51,266,583,5760
1644171022.410752,-0.010132,0.008484,-0.991211,0.144519,0.294962,-0.314198,52,265,575,5760
1644171022.459135,-0.008606,0.006775,-0.990173,0.190321,0.462901,0.067481,53,271,583,5696
1644171022.50751,-0.010681,0.010559,-0.990479,0.434595,0.218626,-0.115725,57,282,575,5696
1644171022.555923,-0.010559,0.011841,-0.993286,0.236122,0.585038,-0.039389,49,275,584,5664
1644171022.60431,-0.010986,0.008728,-0.993225,0.159786,0.493435,-0.130992,49,280,575,5696
1644171022.65295,-0.009949,0.011414,-0.99231,0.129252,0.447634,-0.130992,43,269,566,5760
1644171022.703417,-0.008301,0.011292,-0.993958,0.129252,0.478168,-0.14626,54,270,577,5696
1644171022.75387,-0.010742,0.008301,-0.993347,0.175053,0.371298,-0.207328,55,276,580,5696
1644171022.798813,-0.009216,0.007935,-0.992432,0.251389,0.539237,-0.085191,45,273,577,5664
1644171022.894889,-0.008728,0.006531,-0.98999,0.327725,0.294962,-0.192061,53,276,576,5696
1644171022.943114,-0.00946,0.008118,-0.990479,0.373527,0.279695,-0.14626,46,283,583,5664
1644171022.991485,-0.008484,0.008484,-0.993652,0.342992,0.218626,-0.100458,52,273,575,5712
1644171023.039869,-0.012878,0.009827,-0.989319,0.312458,0.371298,-0.008855,52,270,582,5664
1644171023.090718,-0.010254,0.010559,-0.992249,0.266656,0.356031,-0.024122,51,269,576,5696
1644171023.136654,-0.011353,0.009155,-0.990845,0.297191,0.523969,-0.024122,46,276,573,5728
1644171023.185144,-0.010315,0.008423,-0.98938,0.190321,0.432366,-0.069924,43,276,576,5648
1644171023.233429,-0.01001,0.009521,-0.993347,0.312458,0.310229,-0.054656,54,273,575,5664
1644171023.281759,-0.009216,0.006042,-0.991272,0.297191,0.386565,-0.130992,48,279,576,5664
1644171023.330171,-0.009216,0.009399,-0.990784,0.266656,0.218626,-0.085191,48,283,571,5776
1644171023.378563,-0.006042,0.010986,-0.990356,0.159786,0.462901,-0.100458,49,270,579,5712
1644171023.426956,-0.00946,0.011841,-0.992065,0.129252,0.279695,-0.054656,59,280,575,5648
1644171023.475343,-0.01123,0.010498,-0.991455,0.297191,0.371298,-0.008855,47,273,584,5696
1644171023.523856,-0.009094,0.010864,-0.991882,0.281924,0.417099,-0.115725,43,286,573,5712
1644171023.572666,-0.011536,0.008911,-0.993103,0.251389,0.508702,-0.069924,49,270,582,5728
1644171023.623219,-0.013794,0.00647,-0.992859,0.327725,0.432366,-0.237863,42,273,579,5696
1644171023.673471,-0.010742,0.01001,-0.99115,0.190321,0.493435,-0.008855,54,280,584,5712
1644171023.71851,-0.011047,0.00885,-0.99231,0.266656,0.462901,-0.039389,48,281,580,5600
1644171023.81409,-0.011169,0.006714,-0.990479,0.35826,0.279695,-0.298931,52,275,584,5696
1644171023.862676,-0.010376,0.008057,-0.993347,0.205588,0.401832,0.036947,54,273,572,5648
1644171023.910901,-0.011047,0.011169,-0.990356,0.342992,0.340763,-0.085191,57,277,575,5712
1644171023.959285,-0.009644,0.009521,-0.990051,0.236122,0.554504,0.174351,49,275,575,5696
1644171024.00766,-0.01001,0.009399,-0.991211,0.159786,0.325496,-0.14626,54,268,579,5696
1644171024.057734,-0.009766,0.010376,-0.991089,0.113985,0.325496,-0.008855,40,282,572,5760
1644171024.104447,-0.008362,0.009888,-0.992981,0.220855,0.417099,-0.085191,57,275,589,5664
1644171024.152846,-0.009705,0.010254,-0.992371,0.144519,0.310229,-0.039389,48,276,573,5664
1644171024.201229,-0.00946,0.009338,-0.992615,0.190321,0.462901,-0.192061,47,277,570,5696
1644171024.249623,-0.007751,0.009033,-0.992676,0.342992,0.432366,-0.024122,57,268,565,5648
1644171024.298001,-0.009521,0.011292,-0.99353,0.159786,0.340763,-0.024122,49,265,582,5664
1644171024.346413,-0.010193,0.009949,-0.992737,0.342992,0.493435,0.006412,43,276,578,5648
1644171024.394837,-0.010193,0.008362,-0.992981,0.342992,0.340763,-0.207328,42,277,579,5664
1644171024.443195,-0.009583,0.010559,-0.995117,0.113985,0.325496,-0.222595,48,269,583,5696
1644171024.491898,-0.00885,0.010071,-0.992737,0.159786,0.585038,-0.115725,40,275,577,5712
1644171024.539981,-0.011292,0.009644,-0.989563,0.251389,0.294962,-0.100458,42,280,584,5632
1644171024.588372,-0.010376,0.009949,-0.995239,0.159786,0.340763,-0.024122,48,274,576,5696
1644171024.636832,-0.009766,0.005127,-0.993042,0.251389,0.294962,-0.024122,41,276,576,5664
1644171024.685239,-0.010376,0.009888,-0.993652,0.220855,0.493435,-0.008855,57,273,584,5664
1644171024.734982,-0.008118,0.011475,-0.990051,0.159786,0.417099,-0.069924,55,274,573,5664
1644171024.78538,-0.011292,0.008789,-0.99292,0.236122,0.493435,-0.192061,53,271,585,5648
1644171024.835598,-0.011902,0.008606,-0.992188,0.312458,0.294962,-0.024122,46,271,573,5696
1644171024.880131,-0.009033,0.008789,-0.992188,0.327725,0.386565,-0.14626,40,273,577,5696
1644171024.975485,-0.011902,0.008118,-0.991821,0.236122,0.401832,-0.085191,54,268,577,5760
1644171025.023899,-0.008606,0.009277,-0.991882,0.266656,0.478168,-0.161527,38,268,572,5664
1644171025.072325,-0.010315,0.009766,-0.991211,0.190321,0.417099,-0.130992,54,270,584,5664
1644171025.120639,-0.00824,0.009705,-0.993164,0.205588,0.417099,0.036947,55,266,571,5664
1644171025.169017,-0.010254,0.01001,-0.99176,0.434595,0.24916,-0.314198,54,273,570,5760
1644171025.217398,-0.010803,0.00824,-0.990662,0.175053,0.432366,-0.192061,47,280,570,5712
1644171025.265781,-0.010193,0.010925,-0.993164,0.342992,0.401832,-0.054656,48,271,573,5648
1644171025.314198,-0.009155,0.010254,-0.99231,0.281924,0.401832,-0.14626,51,271,571,5696
1644171025.362596,-0.009521,0.008789,-0.993896,0.327725,0.432366,-0.176794,53,281,576,5696
1644171025.410985,-0.010193,0.009583,-0.993286,0.220855,0.493435,0.036947,43,276,578,5712
1644171025.459336,-0.006409,0.011353,-0.990356,0.190321,0.493435,-0.237863,55,276,580,5664
1644171025.507736,-0.013428,0.00885,-0.993103,0.281924,0.310229,-0.039389,57,268,572,5712
1644171025.556142,-0.009094,0.009644,-0.994141,0.08345,0.356031,-0.207328,55,281,587,5664
1644171025.604662,-0.010071,0.010803,-0.99292,0.312458,0.493435,0.143817,49,268,584,5648
1644171025.652946,-0.008606,0.006226,-0.992126,0.297191,0.554504,0.067481,48,266,576,5712
1644171025.701331,-0.008606,0.01123,-0.991333,0.205588,0.325496,-0.085191,54,270,579,5648
1644171025.749684,-0.010864,0.011414,-0.989441,0.220855,0.539237,-0.100458,49,277,572,5696
1644171025.798108,-0.011353,0.012268,-0.98999,0.388794,0.386565,-0.176794,48,281,573,5712
1644171025.846536,-0.011108,0.007202,-0.99231,0.175053,0.462901,-0.054656,52,275,577,5712
1644171025.896096,-0.009827,0.008423,-0.989807,0.342992,0.508702,-0.115725,54,282,579,5632
1644171025.946266,-0.009827,0.010864,-0.989136,0.022382,0.523969,-0.100458,41,274,573,5760
1644171025.99716,-0.009033,0.010925,-0.991699,0.236122,0.493435,-0.024122,52,270,577,5664
1644171026.041172,-0.009521,0.010498,-0.991699,0.08345,0.417099,-0.069924,34,279,580,5696
1644171026.136836,-0.011047,0.011169,-0.991516,0.220855,0.371298,-0.039389,53,266,571,5696
1644171026.185396,-0.010559,0.00647,-0.989441,0.312458,0.462901,-0.237863,41,283,580,5664
1644171026.233619,-0.01062,0.010193,-0.992188,0.251389,0.478168,-0.115725,53,281,580,5712
1644171026.281979,-0.01178,0.008118,-0.992432,0.312458,0.417099,-0.054656,51,269,580,5696
1644171026.330365,-0.009766,0.011597,-0.992798,0.388794,0.279695,-0.130992,47,268,579,5664
1644171026.378771,-0.010315,0.01239,-0.990906,0.236122,0.401832,-0.039389,53,269,573,5664
1644171026.427178,-0.009521,0.010315,-0.993835,0.373527,0.417099,-0.115725,41,274,576,5664
1644171026.475558,-0.00946,0.00946,-0.995117,0.373527,0.539237,-0.069924,47,280,568,5696
1644171026.523955,-0.010437,0.011841,-0.989807,0.297191,0.432366,0.006412,51,274,583,5712
1644171026.572364,-0.010376,0.009094,-0.990234,0.312458,0.478168,-0.100458,41,262,573,5648
1644171026.620746,-0.011414,0.009277,-0.992371,0.113985,0.493435,-0.268397,58,266,580,5696
1644171026.669129,-0.008484,0.008057,-0.988342,0.236122,0.462901,-0.14626,48,271,583,5696
1644171026.717499,-0.008789,0.010376,-0.992859,0.404061,0.371298,-0.085191,47,280,582,5760
1644171026.765902,-0.013306,0.009827,-0.992249,0.373527,0.523969,0.052214,54,285,579,5712
1644171026.814352,-0.011169,0.007874,-0.98999,0.190321,0.340763,-0.054656,54,273,591,5728
1644171026.862743,-0.011841,0.011475,-0.992249,0.312458,0.356031,0.036947,51,266,580,5664
1644171026.911094,-0.00946,0.007751,-0.990234,0.205588,0.493435,0.006412,41,271,573,5712
1644171026.959509,-0.011292,0.009033,-0.989624,0.098718,0.294962,0.036947,51,283,578,5712
1644171027.060712,-0.009888,0.00531,-0.992554,0.205588,0.325496,-0.039389,54,268,582,5600
1644171027.104861,-0.009399,0.007751,-0.993286,0.251389,0.462901,0.052214,43,288,578,5712
1644171027.153044,-0.011108,0.008728,-0.991882,0.098718,0.508702,-0.039389,39,276,578,5696
1644171027.201431,-0.01062,0.008423,-0.98999,0.159786,0.447634,-0.085191,49,273,579,5696
1644171027.249789,-0.009766,0.009094,-0.992676,0.098718,0.478168,-0.039389,49,265,572,5696
1644171027.298205,-0.010315,0.010498,-0.990906,0.266656,0.371298,-0.085191,49,280,575,5712
1644171027.346577,-0.008423,0.008972,-0.992737,0.236122,0.432366,-0.161527,51,266,569,5712
1644171027.395031,-0.009033,0.009216,-0.992065,0.205588,0.401832,-0.115725,42,277,579,5728
1644171027.443391,-0.009216,0.008972,-0.989563,0.144519,0.371298,-0.115725,47,273,582,5648
1644171027.492239,-0.012451,0.010864,-0.990845,0.236122,0.478168,-0.192061,53,279,583,5664
1644171027.540159,-0.007141,0.009827,-0.990112,0.220855,0.478168,-0.161527,42,280,572,5696
1644171027.588551,-0.01062,0.012878,-0.990295,0.266656,0.340763,-0.192061,47,280,586,5696
1644171027.636942,-0.008972,0.011597,-0.991089,0.205588,0.447634,0.021679,66,275,582,5664
1644171027.685334,-0.010132,0.007812,-0.991943,0.281924,0.111756,-0.161527,51,269,585,5808
1644171027.733849,-0.00946,0.008545,-0.991821,0.113985,0.447634,-0.161527,58,271,585,5664
1644171027.784333,-0.010132,0.008179,-0.990479,0.068183,0.371298,-0.008855,62,264,578,5696
1644171027.83695,-0.008301,0.010132,-0.991028,0.327725,0.432366,-0.130992,49,273,568,5664
1644171027.880071,-0.007629,0.011108,-0.99176,0.266656,0.493435,-0.207328,53,281,583,5760
1644171027.975696,-0.010315,0.009949,-0.995117,0.220855,0.447634,-0.024122,53,276,573,5648
1644171028.024101,-0.009949,0.007568,-0.991943,0.312458,0.340763,-0.130992,43,269,580,5696
1644171028.072564,-0.012634,0.009277,-0.992615,0.220855,0.356031,-0.176794,49,273,579,5600
1644171028.120881,-0.010315,0.010437,-0.99231,0.236122,0.432366,-0.176794,48,271,571,5648
1644171028.16924,-0.009583,0.007568,-0.99176,0.113985,0.325496,-0.024122,51,274,573,5696
1644171028.217622,-0.010315,0.008667,-0.993713,-0.008153,0.401832,-0.115725,54,273,584,5712
1644171028.266009,-0.005798,0.009644,-0.993652,0.205588,0.310229,-0.115725,47,273,586,5696
1644171028.314392,-0.010132,0.012024,-0.996155,0.327725,0.493435,-0.100458,48,276,571,5696
1644171028.362818,-0.012024,0.007874,-0.993103,0.312458,0.294962,-0.054656,54,268,575,5712
1644171028.411164,-0.011719,0.010681,-0.993042,0.342992,0.279695,-0.024122,47,268,577,5712
1644171028.459585,-0.008118,0.009949,-0.993408,0.175053,0.264427,-0.085191,46,269,580,5648
1644171028.507977,-0.009399,0.011841,-0.993652,0.190321,0.417099,-0.161527,40,282,568,5664
1644171028.556362,-0.009155,0.008667,-0.994385,0.205588,0.447634,0.082748,52,270,575,5696
1644171028.604748,-0.010254,0.008545,-0.992249,0.342992,0.386565,-0.008855,53,283,573,5664
1644171028.653142,-0.010315,0.004761,-0.993225,0.236122,0.462901,-0.039389,49,275,579,5648
1644171028.701522,-0.009216,0.009644,-0.992798,0.342992,0.340763,-0.130992,49,280,577,5712
1644171028.749891,-0.011414,0.006409,-0.989563,0.190321,0.401832,-0.176794,52,273,589,5648
1644171028.798311,-0.008606,0.009338,-0.993835,0.327725,0.386565,0.052214,54,258,579,5696
1644171028.846761,-0.01178,0.007141,-0.994019,0.205588,0.356031,-0.024122,52,260,582,5696
1644171028.896718,-0.008972,0.009033,-0.991211,0.205588,0.386565,-0.14626,47,270,575,5632
1644171028.94731,-0.009399,0.012329,-0.992188,0.159786,0.432366,0.021679,54,273,586,5712
1644171028.997291,-0.008789,0.009766,-0.995544,0.190321,0.401832,-0.130992,36,276,583,5648
1644171029.041756,-0.008545,0.00824,-0.993042,0.236122,0.371298,-0.024122,53,269,590,5648
1644171029.137097,-0.009705,0.009338,-0.993835,0.251389,0.417099,-0.054656,48,283,578,5696
1644171029.185433,-0.010742,0.011292,-0.990051,0.297191,0.523969,-0.069924,53,274,578,5648
1644171029.233825,-0.013123,0.010498,-0.992615,0.190321,0.417099,-0.192061,52,282,584,5664
1644171029.282381,-0.009399,0.009338,-0.989929,0.251389,0.279695,0.006412,65,274,580,5664
1644171029.330615,-0.00769,0.009155,-0.990967,0.022382,0.371298,-0.100458,53,269,566,5696
1644171029.378974,-0.010803,0.010132,-0.996338,0.251389,0.478168,-0.115725,43,276,580,5648
1644171029.427405,-0.011047,0.010742,-0.99115,0.281924,0.325496,0.052214,55,279,573,5728
1644171029.475769,-0.01123,0.011169,-0.992676,0.266656,0.279695,-0.222595,49,277,572,5648
1644171029.524183,-0.010559,0.009338,-0.990967,0.098718,0.447634,-0.024122,43,281,578,5696
1644171029.572582,-0.010437,0.010681,-0.992126,0.312458,0.340763,-0.100458,53,276,573,5664
1644171029.620974,-0.012146,0.009277,-0.98938,0.068183,0.447634,-0.14626,51,274,573,5760
1644171029.669333,-0.009155,0.013489,-0.989014,0.220855,0.447634,0.098015,46,274,578,5760
1644171029.717723,-0.007996,0.010071,-0.992188,0.159786,0.432366,-0.100458,47,282,584,5600
1644171029.766125,-0.006958,0.010742,-0.991272,0.404061,0.356031,-0.100458,48,279,573,5696
1644171029.814526,-0.01001,0.008362,-0.992615,0.159786,0.340763,-0.069924,53,279,594,5648
1644171029.862969,-0.008728,0.012207,-0.993835,0.175053,0.432366,-0.207328,49,273,586,5696
1644171029.911307,-0.010071,0.009521,-0.990845,0.175053,0.462901,-0.14626,58,283,585,5696
1644171029.959792,-0.010925,0.008179,-0.992798,0.297191,0.325496,-0.115725,48,281,587,5664
1644171030.061675,-0.011475,0.010193,-0.992065,0.373527,0.447634,-0.024122,49,270,572,5664
1644171030.104877,-0.009399,0.006592,-0.99176,0.113985,0.386565,-0.237863,52,265,584,5648
1644171030.1533,-0.01123,0.009705,-0.98938,0.175053,0.356031,-0.207328,47,277,570,5664
1644171030.201638,-0.009277,0.009521,-0.993408,0.251389,0.371298,-0.192061,57,265,575,5648
1644171030.250019,-0.00769,0.00885,-0.992798,0.220855,0.417099,-0.207328,42,275,575,5696
1644171030.298417,-0.007935,0.013184,-0.993958,0.175053,0.478168,0.006412,54,263,577,5664
1644171030.346823,-0.007751,0.008728,-0.990906,0.281924,0.24916,-0.192061,57,270,579,5648
1644171030.395467,-0.012146,0.011902,-0.990417,0.342992,0.462901,-0.008855,53,274,569,5664
1644171030.443624,-0.012146,0.010681,-0.991882,0.266656,0.294962,-0.130992,46,274,578,5696
1644171030.49231,-0.013916,0.010315,-0.993408,0.236122,0.356031,-0.237863,55,274,580,5696
1644171030.540392,-0.011047,0.010559,-0.991882,0.190321,0.340763,-0.161527,52,275,575,5664
1644171030.588769,-0.012268,0.011047,-0.992065,0.144519,0.462901,-0.069924,60,279,576,5664
1644171030.637161,-0.011169,0.011475,-0.98761,0.251389,0.371298,-0.054656,53,271,585,5664
1644171030.685542,-0.007019,0.009277,-0.991455,0.190321,0.401832,-0.222595,53,274,578,5664
1644171030.733945,-0.009216,0.010437,-0.989807,0.159786,0.294962,-0.161527,51,269,585,5664
1644171030.782369,-0.011414,0.010498,-0.992371,0.220855,0.294962,-0.222595,41,269,583,5648
1644171030.830736,-0.011353,0.010498,-0.990173,0.251389,0.478168,-0.085191,53,274,569,5648
1644171030.880794,-0.008972,0.011597,-0.991882,0.236122,0.462901,-0.100458,54,273,577,5712
1644171030.931832,-0.01062,0.011414,-0.991333,0.220855,0.539237,0.036947,48,264,573,5696
1644171030.976294,-0.009766,0.013123,-0.991211,0.281924,0.356031,-0.100458,49,268,565,5648
1644171031.073138,-0.009277,0.008362,-0.993958,0.236122,0.401832,-0.207328,48,279,583,5664
1644171031.121045,-0.010681,0.013062,-0.99176,0.312458,0.417099,-0.25313,57,277,582,5712
1644171031.169449,-0.009338,0.006775,-0.992493,0.281924,0.356031,-0.054656,47,270,577,5712
1644171031.217839,-0.009277,0.008423,-0.993408,0.312458,0.493435,-0.008855,41,271,580,5648
1644171031.266223,-0.009216,0.011414,-0.989502,0.297191,0.493435,-0.161527,47,273,565,5712
1644171031.314637,-0.01062,0.006897,-0.992371,0.297191,0.447634,-0.130992,53,274,571,5648
1644171031.363032,-0.009949,0.010315,-0.990845,0.037649,0.432366,-0.14626,48,271,571,5664
1644171031.411392,-0.008606,0.009521,-0.989685,0.281924,0.386565,-0.237863,49,275,584,5664
1644171031.459803,-0.009216,0.008789,-0.990234,0.205588,0.325496,-0.115725,52,263,577,5664
1644171031.508195,-0.012146,0.004944,-0.991394,0.220855,0.523969,-0.085191,49,273,568,5696
1644171031.556585,-0.01178,0.009705,-0.989807,0.35826,0.417099,-0.192061,54,277,577,5648
1644171031.605092,-0.010559,0.010376,-0.992798,0.205588,0.401832,-0.085191,66,275,577,5648
1644171031.653374,-0.012085,0.007996,-0.990295,0.266656,0.508702,-0.192061,58,271,576,5664
1644171031.701753,-0.010071,0.01123,-0.98938,0.190321,0.417099,-0.207328,60,266,578,5696
1644171031.750142,-0.01123,0.012146,-0.991821,0.281924,0.462901,0.006412,49,270,572,5712
1644171031.798627,-0.011658,0.009766,-0.992737,0.236122,0.539237,-0.161527,43,271,580,5664
1644171031.84695,-0.009888,0.009583,-0.991211,0.373527,0.493435,-0.176794,57,268,582,5648
1644171031.89539,-0.010071,0.008179,-0.991028,0.35826,0.310229,0.082748,54,273,575,5728
1644171031.943949,-0.009399,0.010132,-0.990173,0.434595,0.508702,-0.054656,65,269,583,5808
1644171031.994347,-0.01239,0.009949,-0.993042,0.190321,0.310229,-0.222595,52,275,579,5760
1644171032.064733,-0.011414,0.010742,-0.989197,0.08345,0.478168,-0.039389,58,269,587,5696
1644171032.097276,-0.008789,0.007996,-0.990234,0.266656,0.310229,-0.207328,51,262,580,5664
1644171032.185652,-0.010376,0.011353,-0.990173,0.327725,0.356031,0.067481,55,279,571,5664
1644171032.234054,-0.011169,0.01062,-0.991272,0.144519,0.371298,-0.039389,43,276,576,5696
1644171032.282442,-0.009705,0.009949,-0.991455,0.266656,0.523969,-0.130992,47,270,577,5648
1644171032.33082,-0.013367,0.006836,-0.99353,0.175053,0.340763,-0.207328,52,280,579,5664
1644171032.379214,-0.013611,0.009949,-0.993591,0.251389,0.401832,-0.176794,55,269,566,5696
1644171032.42759,-0.010254,0.011292,-0.991638,0.113985,0.493435,-0.024122,45,280,572,5664
1644171032.475973,-0.00885,0.010803,-0.992432,0.251389,0.462901,-0.085191,52,280,570,5664
1644171032.524379,-0.011475,0.007874,-0.991943,0.159786,0.462901,-0.207328,49,273,577,5664
1644171032.572799,-0.008301,0.009583,-0.992004,0.175053,0.523969,-0.069924,46,271,585,5712
1644171032.621165,-0.012573,0.01001,-0.992065,0.205588,0.386565,-0.024122,45,282,565,5728
1644171032.669568,-0.012817,0.008545,-0.990417,0.281924,0.340763,-0.222595,53,283,580,5696
1644171032.717957,-0.01001,0.009644,-0.992981,0.251389,0.386565,-0.115725,51,279,571,5712
1644171032.766357,-0.012268,0.01062,-0.992371,0.419328,0.417099,-0.161527,47,277,582,5696
1644171032.814796,-0.012512,0.011108,-0.993652,0.251389,0.401832,-0.100458,57,277,577,5696
1644171032.863187,-0.011169,0.012146,-0.992493,0.266656,0.447634,-0.100458,54,275,584,5728
1644171032.911546,-0.008118,0.008972,-0.990479,0.419328,0.371298,-0.054656,43,279,590,5648
1644171032.959947,-0.009216,0.008423,-0.992249,0.297191,0.356031,-0.085191,49,265,579,5664
1644171033.05803,-0.01001,0.010071,-0.993286,0.144519,0.462901,-0.100458,54,275,579,5696
1644171033.105196,-0.007874,0.011597,-0.991394,0.144519,0.523969,-0.130992,55,269,573,5648
1644171033.153478,-0.009766,0.011475,-0.990356,0.236122,0.585038,-0.222595,42,275,577,5664
1644171033.201864,-0.011658,0.008911,-0.99353,0.35826,0.493435,-0.115725,53,271,585,5696
1644171033.250252,-0.010864,0.006104,-0.992004,0.266656,0.523969,-0.192061,49,270,579,5664
1644171033.298637,-0.011536,0.009705,-0.992615,0.297191,0.371298,-0.115725,54,277,572,5664
1644171033.347033,-0.010986,0.010254,-0.992615,0.205588,0.371298,-0.069924,46,271,576,5712
1644171033.39543,-0.009949,0.011292,-0.992188,0.098718,0.340763,0.052214,53,269,573,5648
1644171033.443822,-0.00824,0.009155,-0.992065,0.068183,0.340763,-0.25313,53,276,571,5648
1644171033.492369,-0.009827,0.010071,-0.989197,0.220855,0.478168,-0.161527,58,283,571,5696
1644171033.540581,-0.007996,0.008911,-0.990173,0.251389,0.325496,-0.115725,46,279,576,5632
1644171033.588983,-0.010498,0.009338,-0.989807,0.159786,0.371298,-0.161527,55,274,585,5664
1644171033.637377,-0.008545,0.010071,-0.990967,0.190321,0.447634,-0.024122,41,283,573,5648
1644171033.685768,-0.00769,0.010315,-0.990784,0.312458,0.401832,-0.085191,46,271,592,5648
1644171033.734158,-0.010803,0.009827,-0.992676,0.175053,0.493435,-0.085191,53,281,571,5696
1644171033.782566,-0.012146,0.011902,-0.989197,0.266656,0.401832,-0.14626,51,264,571,5712
1644171033.830989,-0.011475,0.008667,-0.991516,-0.008153,0.508702,-0.085191,52,268,575,5648
1644171033.879383,-0.01178,0.009521,-0.993042,0.327725,0.340763,-0.100458,46,274,569,5696
1644171033.928473,-0.009094,0.00824,-0.989441,0.342992,0.462901,-0.222595,45,285,565,5648
1644171033.978926,-0.007568,0.010315,-0.990967,0.297191,0.294962,-0.161527,52,275,575,5664
1644171034.029146,-0.010559,0.009888,-0.991943,0.220855,0.569771,-0.054656,48,271,569,5696
1644171034.075057,-0.011353,0.008972,-0.993042,0.480397,0.401832,-0.237863,51,281,573,5664
1644171034.169649,-0.011658,0.007385,-0.994873,0.35826,0.356031,-0.085191,54,270,579,5696
1644171034.218048,-0.010254,0.006653,-0.990601,0.098718,0.371298,-0.085191,53,283,562,5664
1644171034.266437,-0.00946,0.012451,-0.990356,0.281924,0.310229,0.067481,45,277,579,5648
1644171034.314858,-0.009155,0.010803,-0.989197,0.312458,0.386565,-0.14626,51,274,580,5664
1644171034.363249,-0.007568,0.012146,-0.991943,0.388794,0.447634,-0.268397,54,270,582,5648
1644171034.411637,-0.010376,0.009338,-0.98999,0.220855,0.340763,-0.085191,47,277,572,5712
1644171034.460042,-0.00885,0.012817,-0.990479,0.129252,0.523969,-0.039389,48,274,573,5696
1644171034.508405,-0.008789,0.010254,-0.991699,0.251389,0.600305,-0.100458,54,282,589,5712
1644171034.556761,-0.008301,0.011414,-0.992004,0.434595,0.356031,-0.115725,47,280,568,5600
1644171034.605265,-0.009277,0.011047,-0.991333,0.35826,0.432366,-0.130992,51,276,576,5696
1644171034.653595,-0.011169,0.009583,-0.992493,0.327725,0.493435,-0.192061,51,276,580,5664
1644171034.701979,-0.008057,0.010132,-0.993042,0.205588,0.371298,-0.039389,45,275,570,5648
1644171034.75037,-0.010193,0.008301,-0.989868,0.281924,0.432366,0.006412,51,271,569,5648
1644171034.798761,-0.008667,0.010071,-0.992554,0.190321,0.386565,-0.085191,53,281,592,5648
1644171034.847185,-0.00885,0.008545,-0.986572,0.419328,0.417099,-0.069924,52,270,586,5584
1644171034.895578,-0.010193,0.00946,-0.993774,0.175053,0.401832,-0.207328,60,276,583,5664
1644171034.943971,-0.01001,0.009766,-0.992188,0.236122,0.401832,-0.085191,51,274,580,5712
1644171034.992537,-0.007874,0.011536,-0.992065,0.159786,0.310229,-0.069924,41,279,575,5600
1644171035.040878,-0.010681,0.01239,-0.990906,0.220855,0.401832,-0.069924,43,264,576,5664
1644171035.096164,-0.011292,0.008972,-0.991394,0.159786,0.356031,-0.161527,52,285,582,5696
1644171035.14114,-0.008911,0.008972,-0.990479,0.266656,0.417099,-0.085191,48,271,569,5728
1644171035.189997,-0.01123,0.011353,-0.989441,0.251389,0.523969,-0.222595,57,270,579,5712
1644171035.235165,-0.00946,0.010437,-0.993103,0.159786,0.386565,0.021679,54,265,577,5712
1644171035.331048,-0.011963,0.009766,-0.992188,0.297191,0.554504,-0.115725,52,265,572,5760
1644171035.379446,-0.010925,0.009277,-0.992371,0.144519,0.432366,-0.039389,53,279,571,5664
1644171035.427832,-0.013733,0.009705,-0.993958,0.190321,0.493435,-0.054656,46,276,571,5648
1644171035.476224,-0.013062,0.009277,-0.990662,0.327725,0.417099,-0.176794,42,277,572,5696
1644171035.524646,-0.009644,0.00946,-0.994568,0.236122,0.447634,-0.069924,46,279,569,5696
1644171035.573024,-0.009094,0.008301,-0.992798,0.175053,0.356031,-0.069924,49,270,568,5696
1644171035.621395,-0.009766,0.009155,-0.991882,0.297191,0.417099,-0.008855,55,281,583,5648
1644171035.66979,-0.01178,0.01123,-0.990112,0.159786,0.478168,-0.100458,38,275,575,5664
1644171035.718178,-0.00885,0.008484,-0.990356,0.144519,0.401832,-0.207328,60,279,583,5648
1644171035.766618,-0.010986,0.009521,-0.991638,0.236122,0.493435,-0.161527,49,280,570,5632
1644171035.815089,-0.011963,0.010498,-0.991333,0.220855,0.310229,-0.176794,54,273,577,5648
1644171035.863385,-0.010559,0.007996,-0.992188,0.220855,0.508702,-0.100458,57,270,577,5712
1644171035.911774,-0.010132,0.011047,-0.991394,0.144519,0.462901,-0.14626,41,283,583,5664
1644171035.960168,-0.010437,0.009644,-0.989868,0.220855,0.417099,-0.069924,51,281,585,5664
1644171036.008526,-0.010864,0.009949,-0.993652,0.342992,0.325496,-0.161527,49,273,589,5664
1644171036.058464,-0.009827,0.010681,-0.992981,0.175053,0.478168,-0.008855,53,276,583,5648
1644171036.108296,-0.008179,0.008606,-0.990417,0.129252,0.417099,-0.100458,54,282,579,5712
1644171036.153677,-0.008972,0.009583,-0.992554,0.236122,0.462901,-0.161527,59,275,577,5664
1644171036.202417,-0.011169,0.011353,-0.993774,0.266656,0.279695,0.021679,51,274,573,5696
1644171036.251276,-0.009094,0.009949,-0.989563,0.312458,0.371298,-0.115725,51,279,571,5808
1644171036.301912,-0.009705,0.00824,-0.991943,0.159786,0.386565,-0.024122,43,274,580,5696
1644171036.351979,-0.010498,0.010071,-0.992615,0.205588,0.340763,0.052214,53,274,573,5760
1644171036.397093,-0.01062,0.009155,-0.995789,0.159786,0.417099,0.006412,51,274,576,5712
1644171036.492424,-0.008118,0.010498,-0.991638,0.297191,0.447634,-0.115725,51,274,587,5760
1644171036.5408,-0.009155,0.008667,-0.992249,0.449863,0.356031,0.021679,49,273,570,5760
1644171036.589201,-0.012512,0.007385,-0.990784,0.236122,0.493435,-0.069924,48,279,578,5664
1644171036.637567,-0.007874,0.010803,-0.993591,0.297191,0.447634,-0.100458,54,263,577,5696
1644171036.685992,-0.010925,0.011902,-0.99054,0.373527,0.600305,-0.130992,40,275,577,5712
1644171036.734383,-0.010681,0.006592,-0.986755,0.129252,0.600305,-0.069924,46,274,576,5712
1644171036.782798,-0.01178,0.009338,-0.993591,0.266656,0.432366,-0.069924,48,266,583,5712
1644171036.831159,-0.012573,0.00946,-0.992798,0.373527,0.462901,-0.130992,45,270,575,5696
1644171036.879603,-0.010498,0.008545,-0.990356,0.35826,0.447634,-0.069924,53,276,576,5664
1644171036.927987,-0.011536,0.010498,-0.992737,0.251389,0.478168,-0.069924,51,271,587,5712
1644171036.97638,-0.010132,0.011841,-0.992432,0.175053,0.310229,-0.054656,55,276,578,5696
1644171037.024793,-0.009583,0.009155,-0.991577,0.205588,0.447634,-0.222595,42,270,572,5696
1644171037.084431,-0.009033,0.012756,-0.992981,0.404061,0.493435,0.021679,55,274,569,5760
1644171037.121527,-0.012085,0.007812,-0.991272,0.220855,0.371298,-0.069924,58,276,576,5696
1644171037.1699,-0.012512,0.010742,-0.992249,0.373527,0.356031,-0.222595,49,275,570,5696
1644171037.218256,-0.014404,0.01178,-0.992249,0.159786,0.447634,-0.069924,55,266,578,5664
1644171037.267075,-0.008789,0.010864,-0.992493,0.449863,0.356031,-0.054656,41,271,585,5600
1644171037.316645,-0.010986,0.009155,-0.99176,0.175053,0.417099,-0.207328,43,269,583,5664
1644171037.366971,-0.010925,0.008301,-0.993591,0.251389,0.371298,-0.192061,48,276,580,5712
1644171037.417227,-0.010254,0.006592,-0.990479,0.342992,0.371298,-0.100458,46,279,571,5664
1644171037.508602,-0.009155,0.009766,-0.992981,0.281924,0.417099,-0.100458,51,271,571,5648
1644171037.557002,-0.011108,0.008118,-0.99231,0.175053,0.554504,-0.161527,53,281,576,5696
1644171037.605389,-0.010315,0.008972,-0.990173,0.281924,0.371298,-0.100458,60,269,566,5648
1644171037.653769,-0.010803,0.008667,-0.991699,0.052916,0.478168,-0.176794,48,276,585,5600
1644171037.702376,-0.01062,0.009033,-0.991516,0.388794,0.493435,0.036947,52,277,577,5632
1644171037.750576,-0.012268,0.008057,-0.992188,0.175053,0.447634,-0.039389,49,265,575,5696
1644171037.798975,-0.009521,0.008789,-0.99231,0.205588,0.523969,-0.207328,47,265,575,5648
1644171037.847363,-0.013,0.008179,-0.99115,0.052916,0.356031,-0.008855,49,280,579,5664
1644171037.895794,-0.010437,0.009644,-0.989746,0.220855,0.386565,-0.130992,51,276,583,5648
1644171037.944183,-0.010254,0.010864,-0.990601,0.205588,0.386565,-0.100458,53,274,576,5648
1644171037.992583,-0.01062,0.011169,-0.989929,0.266656,0.401832,-0.100458,57,275,582,5760
1644171038.054091,-0.010315,0.011292,-0.993408,0.266656,0.432366,-0.008855,48,269,580,5648
1644171038.089437,-0.010803,0.009583,-0.992859,0.129252,0.432366,-0.14626,46,266,578,5728
1644171038.13772,-0.012634,0.00885,-0.989868,0.327725,0.371298,-0.207328,46,266,571,5696
1644171038.186146,-0.01062,0.007629,-0.994629,0.236122,0.417099,-0.069924,54,282,591,5664
1644171038.234508,-0.011597,0.008667,-0.992981,0.220855,0.508702,-0.024122,47,275,572,5664
1644171038.282944,-0.009705,0.010132,-0.991455,0.297191,0.279695,-0.14626,51,259,583,5696
1644171038.331323,-0.008057,0.007935,-0.993896,0.266656,0.386565,0.021679,62,271,585,5664
1644171038.379994,-0.009399,0.012024,-0.991943,0.08345,0.432366,-0.054656,53,266,580,5712
1644171038.430296,-0.010132,0.010498,-0.988892,0.08345,0.493435,-0.024122,59,268,584,5712
1644171038.480729,-0.01001,0.010071,-0.991028,0.388794,0.340763,-0.130992,52,265,579,5696
1644171038.525301,-0.009949,0.009766,-0.989075,0.236122,0.371298,-0.115725,53,271,573,5696
1644171038.621686,-0.007996,0.011169,-0.991882,0.175053,0.371298,-0.008855,43,274,571,5760
1644171038.670042,-0.008545,0.011841,-0.988159,0.175053,0.279695,-0.161527,51,274,571,5696
1644171038.718414,-0.007874,0.008118,-0.991882,0.175053,0.493435,-0.130992,46,266,571,5696
1644171038.766828,-0.011597,0.008057,-0.993164,0.144519,0.325496,-0.130992,53,264,576,5648
1644171038.815216,-0.011719,0.007202,-0.991455,0.404061,0.325496,-0.115725,47,273,577,5696
1644171038.863617,-0.009216,0.00885,-0.991333,0.266656,0.279695,-0.024122,51,274,578,5696
1644171038.911987,-0.009338,0.009949,-0.991943,0.144519,0.401832,-0.14626,47,287,572,5648
1644171038.960385,-0.010559,0.010071,-0.991272,0.388794,0.401832,-0.069924,55,276,576,5664
1644171039.008785,-0.009888,0.010925,-0.99176,0.205588,0.325496,-0.008855,61,265,579,5712
1644171039.061129,-0.010376,0.011536,-0.988831,0.190321,0.401832,-0.024122,57,280,591,5712
1644171039.105544,-0.009888,0.010803,-0.993408,0.419328,0.478168,-0.115725,45,287,577,5648
1644171039.153947,-0.012634,0.008789,-0.99115,0.251389,0.401832,-0.069924,49,273,575,5584
1644171039.202331,-0.008057,0.007263,-0.991699,0.236122,0.493435,-0.130992,43,269,569,5600
1644171039.250699,-0.009277,0.011536,-0.990112,0.419328,0.432366,-0.024122,48,271,592,5696
1644171039.299086,-0.009216,0.010071,-0.992676,0.175053,0.432366,-0.161527,57,280,586,5712
1644171039.347522,-0.007751,0.00946,-0.991577,0.449863,0.417099,-0.176794,52,280,579,5728
1644171039.396353,-0.010437,0.008606,-0.991394,0.404061,0.371298,0.036947,54,275,582,5728
1644171039.444367,-0.009155,0.006775,-0.99469,0.220855,0.279695,-0.054656,46,271,580,5696
1644171039.492683,-0.010864,0.006958,-0.992065,0.220855,0.279695,-0.176794,60,269,569,5584
1644171039.541767,-0.010376,0.008179,-0.992554,0.175053,0.340763,-0.100458,51,271,576,5712
1644171039.592221,-0.007446,0.009949,-0.990356,0.022382,0.340763,-0.161527,59,270,572,5712
1644171039.642345,-0.008789,0.013062,-0.990295,0.205588,0.493435,0.036947,49,277,577,5600
1644171039.687332,-0.010742,0.010681,-0.991272,0.144519,0.386565,-0.161527,48,269,573,5760
1644171039.783006,-0.011719,0.008606,-0.99353,0.342992,0.386565,-0.130992,48,274,573,5648
1644171039.831424,-0.008728,0.011353,-0.992615,0.266656,0.432366,-0.100458,54,273,586,5648
1644171039.8798,-0.009583,0.008606,-0.992065,0.266656,0.371298,-0.024122,46,274,578,5696
1644171039.928186,-0.007996,0.01062,-0.987061,0.236122,0.493435,0.021679,52,273,577,5632
1644171039.976578,-0.008667,0.010864,-0.989075,0.129252,0.340763,-0.085191,52,277,575,5696
1644171040.025024,-0.010376,0.011475,-0.992188,0.175053,0.310229,-0.161527,51,288,578,5664
1644171040.074001,-0.010376,0.009277,-0.992493,0.129252,0.478168,0.006412,48,274,580,5712
1644171040.121726,-0.009155,0.010925,-0.990845,0.190321,0.493435,-0.100458,41,283,585,5664
1644171040.170076,-0.009399,0.00946,-0.99176,0.251389,0.417099,-0.115725,57,268,582,5696
1644171040.218504,-0.01062,0.007446,-0.989441,0.251389,0.615573,-0.14626,51,271,569,5696
1644171040.266872,-0.007751,0.008911,-0.987671,0.159786,0.356031,-0.008855,62,274,587,5664
1644171040.315434,-0.010437,0.012207,-0.990234,0.35826,0.432366,-0.054656,46,264,585,5696
1644171040.363677,-0.007935,0.009644,-0.990601,0.129252,0.401832,-0.115725,43,274,578,5584
1644171040.412044,-0.010925,0.008118,-0.993408,0.388794,0.417099,-0.14626,52,277,582,5696
1644171040.460459,-0.009766,0.010193,-0.990417,0.205588,0.432366,-0.054656,60,283,592,5664
1644171040.508825,-0.010681,0.006958,-0.991516,0.266656,0.340763,-0.130992,55,279,585,5696
1644171040.557231,-0.008545,0.011841,-0.991089,0.297191,0.340763,-0.14626,54,273,582,5728
1644171040.605625,-0.012329,0.006409,-0.991028,0.144519,0.371298,-0.130992,55,279,590,5664
1644171040.654019,-0.007385,0.013306,-0.990173,0.220855,0.294962,-0.008855,53,274,578,5696
1644171040.702708,-0.009094,0.010193,-0.991638,0.342992,0.356031,-0.176794,53,274,571,5712
1644171040.753009,-0.012207,0.007629,-0.991333,0.159786,0.417099,-0.085191,57,273,579,5760
1644171040.80521,-0.012024,0.009583,-0.994202,0.373527,0.493435,-0.085191,53,283,587,5808
1644171040.848917,-0.007324,0.010254,-0.991028,0.327725,0.478168,-0.024122,41,276,573,5648
1644171040.944404,-0.009277,0.007874,-0.991699,0.251389,0.417099,-0.039389,54,270,577,5600
1644171040.992798,-0.00946,0.008911,-0.990662,0.342992,0.432366,-0.008855,41,274,571,5696
1644171041.054261,-0.010193,0.007202,-0.990295,0.129252,0.294962,-0.100458,47,273,572,5728
1644171041.091986,-0.010803,0.010376,-0.991272,0.220855,0.356031,0.036947,54,273,586,5696
1644171041.137927,-0.009033,0.012451,-0.995178,0.297191,0.371298,-0.161527,53,281,578,5696
1644171041.186291,-0.01062,0.007751,-0.993408,0.480397,0.401832,-0.039389,47,292,579,5648
1644171041.234723,-0.010193,0.008911,-0.992004,0.251389,0.401832,-0.085191,51,274,576,5600
1644171041.283102,-0.012573,0.009521,-0.991638,0.342992,0.401832,-0.222595,43,266,576,5664
1644171041.331479,-0.009399,0.009766,-0.992554,0.129252,0.386565,-0.024122,47,273,577,5664
1644171041.379881,-0.010925,0.012207,-0.990967,0.35826,0.539237,-0.024122,51,274,573,5696
1644171041.428235,-0.012085,0.009705,-0.992554,0.297191,0.371298,-0.192061,52,268,577,5696
1644171041.476664,-0.009521,0.009277,-0.993835,0.190321,0.462901,-0.25313,51,283,585,5696
1644171041.525095,-0.011047,0.008362,-0.99176,0.205588,0.462901,-0.054656,51,269,573,5648
1644171041.573447,-0.01239,0.007019,-0.990662,0.373527,0.462901,-0.161527,47,287,572,5648
1644171041.621976,-0.010742,0.010803,-0.99115,0.098718,0.417099,-0.130992,54,270,586,5728
1644171041.672364,-0.008057,0.011414,-0.99292,0.190321,0.493435,-0.085191,45,270,579,5648
1644171041.722582,-0.009583,0.010498,-0.988647,0.449863,0.447634,-0.069924,49,277,582,5728
1644171041.767614,-0.008789,0.00708,-0.992615,0.175053,0.325496,-0.207328,43,266,578,5664
1644171041.863925,-0.009949,0.011047,-0.992859,0.327725,0.310229,-0.100458,51,274,571,5648
1644171041.91243,-0.009766,0.009949,-0.99054,0.35826,0.325496,-0.192061,53,283,571,5760
1644171041.960595,-0.01001,0.009521,-0.992798,0.098718,0.356031,-0.069924,66,263,572,5664
1644171042.008982,-0.009583,0.00885,-0.993225,0.236122,0.325496,-0.024122,52,270,575,5712
1644171042.062894,-0.009033,0.010437,-0.991821,0.266656,0.417099,-0.054656,49,270,577,5760
1644171042.105818,-0.008545,0.010315,-0.991394,0.236122,0.462901,-0.207328,48,281,585,5664
1644171042.154127,-0.010559,0.01001,-0.991577,0.098718,0.447634,0.036947,39,279,573,5696
1644171042.202531,-0.010315,0.011963,-0.992249,0.266656,0.539237,-0.192061,49,270,575,5712
1644171042.250892,-0.011292,0.006714,-0.993042,0.251389,0.508702,-0.100458,46,274,573,5648
1644171042.299298,-0.008606,0.011658,-0.99292,0.175053,0.24916,-0.130992,51,271,571,5664
1644171042.347688,-0.013611,0.009216,-0.992188,0.297191,0.554504,-0.115725,47,275,579,5696
1644171042.39605,-0.010071,0.011414,-0.992554,0.236122,0.432366,-0.069924,59,263,577,5696
1644171042.444492,-0.008728,0.00885,-0.994507,0.205588,0.264427,-0.100458,49,285,575,5696
1644171042.492852,-0.013123,0.011902,-0.989929,0.281924,0.386565,-0.069924,47,275,575,5664
1644171042.54125,-0.009155,0.008667,-0.992065,0.312458,0.417099,-0.115725,52,268,579,5664
1644171042.58965,-0.009338,0.010559,-0.990784,0.175053,0.554504,-0.130992,42,270,575,5712
1644171042.638011,-0.010193,0.010071,-0.988647,0.281924,0.356031,-0.130992,51,276,587,5712
1644171042.686421,-0.012939,0.009521,-0.991089,0.297191,0.585038,-0.192061,46,276,573,5600
1644171042.734823,-0.009827,0.008118,-0.989075,0.251389,0.508702,-0.054656,43,276,583,5696
1644171042.783263,-0.01355,0.010864,-0.989258,0.266656,0.325496,-0.130992,60,264,583,5664
1644171042.835189,-0.007751,0.01123,-0.992188,0.113985,0.340763,-0.039389,53,279,571,5696
1644171042.885116,-0.009705,0.010803,-0.989929,0.297191,0.325496,-0.008855,52,280,579,5696
1644171042.92977,-0.009277,0.009583,-0.991455,0.312458,0.356031,-0.069924,51,274,576,5664
1644171043.025425,-0.012451,0.006042,-0.991882,0.266656,0.447634,0.036947,52,268,572,5712
1644171043.073671,-0.011658,0.010315,-0.990479,0.312458,0.539237,-0.14626,52,282,582,5664
1644171043.121993,-0.013123,0.010254,-0.992859,0.236122,0.417099,-0.100458,47,265,570,5696
1644171043.170335,-0.013,0.010559,-0.993652,0.220855,0.279695,-0.039389,49,275,575,5760
1644171043.21874,-0.010498,0.009766,-0.990967,0.159786,0.417099,0.082748,46,269,578,5696
1644171043.267099,-0.010803,0.013245,-0.992859,0.266656,0.478168,-0.161527,46,271,573,5696
1644171043.315501,-0.011414,0.008972,-0.993713,0.404061,0.356031,-0.024122,60,269,571,5648
1644171043.363889,-0.007568,0.009766,-0.990967,0.205588,0.325496,-0.039389,52,268,584,5664
1644171043.412308,-0.007507,0.007935,-0.991699,0.266656,0.417099,0.036947,48,271,580,5696
1644171043.460678,-0.012024,0.008301,-0.991028,0.205588,0.478168,-0.161527,55,274,585,5696
1644171043.509067,-0.009888,0.009705,-0.990967,0.297191,0.447634,0.067481,46,281,576,5728
1644171043.557456,-0.011475,0.010193,-0.991821,0.144519,0.371298,-0.14626,51,271,580,5648
1644171043.605857,-0.011902,0.009949,-0.993286,0.022382,0.340763,-0.207328,47,270,591,5600
1644171043.654227,-0.007629,0.010132,-0.989746,0.251389,0.401832,-0.024122,57,273,577,5696
1644171043.702656,-0.009827,0.010193,-0.993286,0.098718,0.432366,-0.008855,53,279,573,5696
1644171043.750988,-0.008606,0.009277,-0.990967,0.297191,0.371298,-0.268397,41,269,583,5584
1644171043.799401,-0.009033,0.011169,-0.99054,0.205588,0.462901,-0.069924,47,268,584,5696
1644171043.847825,-0.010315,0.007446,-0.990906,0.342992,0.478168,-0.024122,48,266,578,5632
1644171043.896554,-0.009155,0.011047,-0.990356,0.175053,0.508702,-0.115725,45,273,577,5664
1644171043.946987,-0.008667,0.009644,-0.99054,0.449863,0.401832,-0.039389,55,276,576,5664
1644171043.9972,-0.006409,0.01239,-0.991516,0.220855,0.508702,-0.054656,57,263,584,5712
1644171044.041572,-0.008362,0.012512,-0.990356,0.35826,0.24916,-0.054656,46,269,576,5696
1644171044.138169,-0.009094,0.009216,-0.99176,0.281924,0.508702,-0.085191,38,273,572,5696
1644171044.186513,-0.012146,0.010315,-0.99292,0.297191,0.432366,-0.130992,45,273,579,5664
1644171044.23519,-0.008667,0.00946,-0.991638,0.312458,0.432366,-0.069924,53,279,573,5664
1644171044.283293,-0.009094,0.009766,-0.989502,0.159786,0.401832,-0.039389,53,274,578,5696
1644171044.331683,-0.014343,0.010742,-0.990906,0.144519,0.401832,-0.161527,47,280,572,5664
1644171044.380082,-0.011841,0.011475,-0.994019,0.312458,0.539237,-0.039389,45,270,575,5728
1644171044.428501,-0.010681,0.00769,-0.992676,0.129252,0.462901,-0.14626,51,274,576,5696
1644171044.476853,-0.009644,0.007385,-0.989929,0.236122,0.508702,-0.054656,53,288,578,5664
1644171044.525272,-0.009277,0.008606,-0.993347,0.007115,0.417099,-0.130992,45,273,577,5648
1644171044.573664,-0.008667,0.012329,-0.991943,0.342992,0.493435,-0.085191,46,281,569,5664
1644171044.622042,-0.008484,0.009705,-0.992676,0.205588,0.401832,-0.207328,59,273,575,5696
1644171044.670438,-0.01001,0.011597,-0.990295,0.236122,0.386565,0.021679,42,268,572,5728
1644171044.718826,-0.01123,0.009155,-0.993286,0.312458,0.508702,-0.268397,52,280,575,5648
1644171044.767194,-0.01001,0.009033,-0.992554,0.190321,0.310229,-0.069924,48,271,578,5696
1644171044.815606,-0.007874,0.009094,-0.989868,0.342992,0.386565,-0.069924,55,276,585,5696
1644171044.864063,-0.008972,0.006836,-0.990906,0.281924,0.462901,0.021679,49,275,577,5648
1644171044.912448,-0.011902,0.009338,-0.992004,0.190321,0.340763,-0.054656,54,280,575,5648
1644171044.960816,-0.01178,0.007996,-0.989868,0.205588,0.523969,-0.161527,60,262,583,5696
1644171045.009228,-0.013916,0.00769,-0.993164,0.205588,0.478168,-0.192061,53,276,573,5664
1644171045.0748,-0.011108,0.009155,-0.992126,0.251389,0.340763,-0.008855,46,276,578,5600
1644171045.154406,-0.011658,0.006104,-0.993347,0.098718,0.447634,-0.054656,54,280,572,5664
1644171045.202753,-0.01062,0.009949,-0.992004,0.220855,0.493435,-0.054656,45,280,575,5648
1644171045.251487,-0.008728,0.009033,-0.992065,0.281924,0.493435,-0.069924,51,274,583,5696
1644171045.299499,-0.01123,0.010742,-0.99176,0.220855,0.523969,-0.14626,61,275,577,5648
1644171045.347906,-0.010437,0.007507,-0.994202,0.236122,0.401832,-0.115725,43,274,576,5648
1644171045.396298,-0.013306,0.010498,-0.993225,0.312458,0.294962,-0.024122,61,277,579,5712
1644171045.444698,-0.011414,0.010986,-0.993652,0.159786,0.218626,-0.130992,49,277,579,5664
1644171045.493101,-0.010803,0.010986,-0.993103,0.205588,0.371298,-0.176794,47,282,572,5664
1644171045.541486,-0.009949,0.008545,-0.991577,0.220855,0.386565,-0.069924,57,275,577,5648
1644171045.589868,-0.008484,0.01123,-0.991882,0.281924,0.447634,-0.14626,59,268,575,5648
1644171045.638266,-0.006775,0.008972,-0.992554,0.220855,0.432366,-0.237863,48,271,576,5648
1644171045.686626,-0.009583,0.011597,-0.992859,0.404061,0.432366,-0.085191,47,270,582,5696
1644171045.735157,-0.009216,0.009888,-0.993347,0.35826,0.386565,-0.115725,47,285,577,5664
1644171045.783435,-0.008606,0.009766,-0.990845,0.190321,0.371298,0.082748,51,271,578,5648
1644171045.831814,-0.011841,0.010681,-0.99231,0.236122,0.325496,0.052214,48,276,580,5648
1644171045.880249,-0.011414,0.011719,-0.990356,0.144519,0.493435,0.036947,65,262,576,5664
1644171045.92863,-0.009827,0.011902,-0.992615,0.312458,0.523969,-0.039389,54,263,577,5664
1644171045.977026,-0.01123,0.009033,-0.993591,0.068183,0.294962,-0.115725,59,277,579,5664
1644171046.025472,-0.012329,0.010986,-0.991821,0.098718,0.279695,-0.069924,57,273,582,5712
1644171046.091758,-0.011414,0.008728,-0.992004,0.190321,0.417099,-0.161527,59,280,575,5632
1644171046.126993,-0.012207,0.00769,-0.991333,0.236122,0.432366,-0.069924,55,274,573,5696
1644171046.171392,-0.008667,0.007629,-0.991882,0.251389,0.493435,0.036947,48,276,573,5664
1644171046.267343,-0.008362,0.010193,-0.993164,0.205588,0.432366,-0.130992,51,283,587,5648
1644171046.315741,-0.011414,0.008606,-0.991577,0.266656,0.447634,-0.14626,48,276,573,5696
1644171046.364161,-0.010254,0.009094,-0.990723,0.098718,0.340763,-0.192061,57,275,579,5648
1644171046.412564,-0.012024,0.007751,-0.992798,0.175053,0.478168,-0.039389,59,282,586,5664
1644171046.460928,-0.009216,0.009216,-0.992676,0.419328,0.356031,-0.130992,47,268,575,5600
1644171046.509333,-0.011047,0.007019,-0.993896,0.388794,0.325496,-0.085191,52,280,565,5696
1644171046.557712,-0.009766,0.010193,-0.992188,0.068183,0.462901,-0.176794,48,276,578,5696
1644171046.606104,-0.01001,0.008911,-0.990479,0.297191,0.523969,-0.14626,54,280,570,5696
1644171046.654508,-0.005859,0.008118,-0.993652,0.175053,0.325496,-0.130992,47,268,575,5664
1644171046.702886,-0.008057,0.008545,-0.992493,0.175053,0.371298,0.021679,61,270,575,5696
1644171046.751279,-0.013977,0.010498,-0.989502,0.175053,0.478168,-0.176794,41,283,580,5632
1644171046.799673,-0.008057,0.011719,-0.99408,0.159786,0.356031,-0.100458,49,268,575,5728
1644171046.848069,-0.010986,0.006592,-0.987671,0.327725,0.294962,-0.054656,52,280,577,5760
1644171046.896451,-0.009766,0.009705,-0.991089,0.327725,0.310229,0.036947,48,274,585,5664
1644171046.944865,-0.010071,0.008667,-0.990601,0.312458,0.371298,-0.14626,54,282,582,5664
1644171046.993235,-0.006714,0.010925,-0.993225,0.068183,0.279695,-0.130992,45,268,579,5648
1644171047.041618,-0.010986,0.009521,-0.990601,0.220855,0.386565,-0.008855,59,277,591,5648
1644171047.094871,-0.010559,0.010376,-0.99115,0.175053,0.401832,0.052214,51,266,576,5664
1644171047.14236,-0.010315,0.011963,-0.992493,0.175053,0.371298,-0.069924,58,274,571,5664
1644171047.187183,-0.011169,0.008911,-0.990723,0.297191,0.356031,0.006412,51,274,580,5712
1644171047.283537,-0.008667,0.007874,-0.991577,0.113985,0.478168,-0.161527,38,268,577,5728
1644171047.331916,-0.011475,0.006409,-0.991272,0.098718,0.508702,0.036947,47,270,577,5728
1644171047.380314,-0.009583,0.009644,-0.991089,0.297191,0.508702,-0.161527,42,275,579,5664
1644171047.428706,-0.008606,0.009216,-0.992371,0.342992,0.401832,-0.176794,48,276,578,5696
1644171047.477099,-0.010498,0.014526,-0.98877,0.297191,0.386565,-0.100458,40,273,577,5664
1644171047.525475,-0.009766,0.010498,-0.993347,0.159786,0.417099,-0.069924,43,279,571,5648
1644171047.573892,-0.013794,0.010559,-0.992126,0.281924,0.508702,-0.115725,49,277,572,5664
1644171047.622284,-0.009521,0.006348,-0.992554,0.251389,0.417099,-0.024122,46,259,576,5664
1644171047.67064,-0.009827,0.009766,-0.991821,0.144519,0.523969,-0.14626,49,260,577,5648
1644171047.719019,-0.009766,0.011658,-0.990051,0.297191,0.462901,0.12855,52,280,579,5696
1644171047.767441,-0.008118,0.011658,-0.992798,0.327725,0.432366,-0.069924,61,275,582,5696
1644171047.815848,-0.00415,0.012939,-0.987671,0.281924,0.462901,-0.329466,47,275,579,5712
1644171047.864278,-0.014282,0.015503,-0.988586,0.373527,0.63084,-0.054656,46,276,587,5648
1644171047.912669,-0.004639,0.00885,-0.993408,0.144519,0.24916,-0.268397,54,273,582,5664
1644171047.961043,-0.009094,0.013855,-0.991028,0.251389,0.340763,-0.268397,51,281,585,5664
1644171048.009402,-0.00885,0.013245,-0.992737,0.037649,0.493435,-0.14626,45,275,577,5696
1644171048.072662,-0.004944,0.007263,-0.99408,0.297191,0.462901,0.006412,54,275,579,5696
1644171048.107562,-0.013123,0.006348,-0.993225,0.342992,0.462901,-0.14626,59,287,582,5648
1644171048.154765,-0.00708,0.010742,-0.994812,0.190321,0.478168,-0.008855,49,282,577,5696
1644171048.205216,-0.007751,0.007996,-0.994019,0.327725,0.386565,-0.008855,55,269,566,5696
1644171048.255484,-0.007996,0.010803,-0.989868,0.159786,0.432366,0.052214,52,280,584,5648
1644171048.300532,-0.010742,0.00885,-0.993286,0.220855,0.356031,-0.024122,52,277,575,5648
1644171048.396505,-0.00946,0.010315,-0.98822,0.113985,0.371298,-0.069924,51,271,576,5664
1644171048.444906,-0.01123,0.008301,-0.989746,0.312458,0.325496,-0.039389,46,274,573,5696
1644171048.493291,-0.009216,0.00946,-0.991699,0.205588,0.462901,-0.085191,51,271,578,5664
1644171048.541685,-0.006104,0.012817,-0.98999,0.037649,0.493435,-0.069924,36,269,585,5648
1644171048.590077,-0.008545,0.010559,-0.990479,0.175053,0.432366,-0.100458,61,275,584,5664
1644171048.638435,-0.009827,0.012146,-0.990173,0.037649,0.493435,-0.069924,43,266,573,5728
1644171048.686853,-0.009766,0.014954,-0.991638,0.190321,0.523969,-0.130992,57,268,582,5664
1644171048.735246,-0.012329,0.011353,-0.993958,0.220855,0.371298,0.067481,58,274,576,5648
1644171048.783648,-0.013184,0.011292,-0.98877,0.281924,0.325496,-0.069924,55,274,573,5648
1644171048.832078,-0.006226,0.00824,-0.991638,0.312458,0.325496,-0.14626,59,268,579,5696
1644171048.880438,-0.009338,0.011902,-0.990845,0.297191,0.356031,-0.085191,58,271,576,5696
1644171048.92885,-0.010498,0.009277,-0.990051,0.08345,0.462901,-0.008855,51,266,578,5664
1644171048.977244,-0.009583,0.008484,-0.992676,0.327725,0.401832,-0.024122,51,271,573,5664
1644171049.025636,-0.010376,0.009888,-0.992859,0.205588,0.523969,0.021679,54,275,589,5760
1644171049.079908,-0.008545,0.012512,-0.99176,0.266656,0.508702,-0.100458,53,271,573,5664
1644171049.122398,-0.01123,0.011475,-0.991882,0.190321,0.432366,-0.130992,51,266,573,5648
1644171049.170756,-0.009949,0.009338,-0.992737,0.144519,0.447634,-0.130992,36,281,566,5696
1644171049.219227,-0.008728,0.011841,-0.992065,0.342992,0.539237,-0.054656,54,270,584,5664
1644171049.268799,-0.009766,0.008301,-0.991516,0.175053,0.264427,-0.024122,52,270,575,5696
1644171049.319062,-0.010498,0.006958,-0.991028,0.388794,0.462901,-0.192061,51,281,576,5664
1644171049.369295,-0.009766,0.010559,-0.992798,0.266656,0.401832,-0.314198,45,277,582,5632
1644171049.461159,-0.007202,0.009094,-0.988892,0.175053,0.401832,0.006412,45,270,577,5696
1644171049.509483,-0.008911,0.012634,-0.991516,0.419328,0.447634,0.036947,54,268,575,5696
1644171049.557885,-0.013306,0.008362,-0.992249,0.419328,0.462901,-0.100458,46,269,569,5728
1644171049.606268,-0.010437,0.011475,-0.988708,0.144519,0.279695,-0.069924,53,283,569,5696
1644171049.654672,-0.011292,0.00946,-0.990906,0.251389,0.493435,-0.069924,58,279,576,5648
1644171049.703079,-0.010986,0.012207,-0.990967,0.098718,0.493435,-0.130992,55,266,571,5664
1644171049.751433,-0.009094,0.012207,-0.990784,0.251389,0.371298,-0.176794,52,273,579,5696
1644171049.799854,-0.010071,0.008484,-0.990417,0.144519,0.462901,-0.115725,51,279,576,5648
1644171049.848307,-0.009521,0.012512,-0.992188,0.281924,0.432366,0.006412,59,282,579,5648
1644171049.89667,-0.010742,0.009583,-0.991516,0.251389,0.371298,-0.054656,51,274,578,5648
1644171049.945199,-0.009155,0.009644,-0.991943,0.281924,0.340763,-0.100458,45,255,582,5696
1644171049.993455,-0.010193,0.010498,-0.990356,0.175053,0.386565,-0.008855,53,276,578,5664
1644171050.041811,-0.009766,0.008057,-0.989319,0.236122,0.417099,-0.100458,48,281,585,5648
1644171050.092587,-0.010254,0.011169,-0.990662,0.404061,0.432366,-0.085191,46,279,578,5696
1644171050.138591,-0.010803,0.009338,-0.992126,0.297191,0.386565,-0.069924,57,280,579,5664
1644171050.186971,-0.008057,0.009094,-0.990234,0.068183,0.386565,-0.039389,52,280,579,5696
1644171050.235362,-0.009216,0.009766,-0.990234,0.312458,0.294962,0.006412,52,273,589,5664
1644171050.283727,-0.010132,0.010071,-0.99115,0.297191,0.340763,-0.008855,49,273,579,5696
1644171050.332295,-0.009399,0.007629,-0.994873,0.419328,0.310229,-0.039389,49,275,575,5664
1644171050.381145,-0.008057,0.014038,-0.98938,0.220855,0.462901,-0.085191,43,274,594,5696
1644171050.431929,-0.01062,0.010681,-0.990601,-0.038687,0.310229,0.006412,59,273,584,5664
1644171050.481777,-0.010315,0.010376,-0.994629,0.220855,0.523969,-0.115725,57,268,577,5696
1644171050.526909,-0.010559,0.009521,-0.993591,0.35826,0.386565,-0.054656,52,268,577,5664
1644171050.622491,-0.008301,0.009949,-0.994629,0.129252,0.264427,-0.115725,51,271,578,5696
1644171050.670851,-0.010498,0.008301,-0.993774,0.266656,0.508702,-0.176794,48,283,585,5648
1644171050.719242,-0.009399,0.007507,-0.990906,0.175053,0.233893,-0.100458,53,281,578,5760
1644171050.767657,-0.01178,0.009644,-0.990601,0.236122,0.340763,0.006412,47,270,577,5696
1644171050.816045,-0.010498,0.009827,-0.992249,0.205588,0.417099,-0.192061,57,282,572,5648
1644171050.864483,-0.007629,0.009338,-0.989319,0.404061,0.478168,-0.14626,47,265,575,5696
1644171050.912895,-0.009216,0.007874,-0.992676,0.159786,0.585038,-0.176794,47,275,582,5696
1644171050.961264,-0.010925,0.010132,-0.99292,0.312458,0.371298,-0.207328,51,279,580,5648
1644171051.009654,-0.007263,0.012939,-0.987793,0.08345,0.371298,-0.130992,47,277,572,5632
1644171051.064374,-0.009888,0.011536,-0.99176,0.190321,0.356031,-0.130992,57,277,572,5696
1644171051.106451,-0.009338,0.008423,-0.991333,0.205588,0.310229,-0.054656,49,280,575,5664
1644171051.154814,-0.007019,0.010681,-0.992065,0.236122,0.508702,-0.100458,47,268,579,5696
1644171051.203158,-0.010132,0.011597,-0.991638,0.327725,0.417099,-0.100458,47,280,582,5712
1644171051.251568,-0.008728,0.010437,-0.991638,0.342992,0.508702,-0.176794,46,271,569,5648
1644171051.299926,-0.007629,0.011475,-0.989624,0.113985,0.539237,-0.176794,52,275,579,5664
1644171051.348353,-0.009155,0.009644,-0.993469,0.281924,0.356031,-0.161527,48,264,571,5648
1644171051.396744,-0.008789,0.010193,-0.991882,0.297191,0.233893,0.021679,49,277,577,5600
1644171051.445168,-0.011963,0.008484,-0.991455,0.373527,0.356031,-0.085191,51,274,576,5696
1644171051.493523,-0.006714,0.008301,-0.990662,0.236122,0.493435,-0.054656,51,274,580,5696
1644171051.542365,-0.01123,0.010559,-0.989502,0.205588,0.401832,-0.207328,52,273,586,5696
1644171051.592626,-0.00769,0.012085,-0.990845,0.312458,0.401832,-0.176794,58,269,583,5664
1644171051.643164,-0.011414,0.009155,-0.991516,0.236122,0.356031,-0.069924,49,275,575,5696
1644171051.688123,-0.012024,0.011963,-0.992188,0.251389,0.417099,0.036947,45,273,579,5664
1644171051.783882,-0.009033,0.00946,-0.993347,0.159786,0.401832,-0.054656,52,273,572,5664
1644171051.832393,-0.012573,0.00946,-0.990234,0.175053,0.386565,-0.039389,52,265,579,5584
1644171051.880699,-0.008301,0.008911,-0.990784,0.251389,0.478168,-0.069924,42,270,579,5712
1644171051.929084,-0.010742,0.009155,-0.992126,0.266656,0.386565,-0.039389,52,277,579,5712
1644171051.97746,-0.008606,0.010803,-0.991943,0.175053,0.432366,-0.192061,51,274,573,5648
1644171052.025859,-0.009949,0.010376,-0.990906,0.281924,0.447634,0.098015,57,268,577,5696
1644171052.074276,-0.010437,0.010193,-0.993164,0.113985,0.401832,-0.039389,53,266,583,5664
1644171052.122653,-0.008789,0.013062,-0.990051,0.159786,0.401832,-0.237863,49,270,575,5712
1644171052.170986,-0.010498,0.009705,-0.990417,0.388794,0.386565,0.021679,48,283,587,5712
1644171052.219379,-0.010986,0.011292,-0.990234,0.281924,0.218626,-0.100458,46,274,583,5648
1644171052.267772,-0.008789,0.013367,-0.991455,0.220855,0.523969,-0.039389,47,277,565,5712
1644171052.316136,-0.010254,0.012878,-0.989929,0.327725,0.432366,-0.161527,54,275,579,5664
1644171052.364669,-0.010559,0.01178,-0.991272,0.190321,0.417099,-0.024122,52,280,575,5664
1644171052.412934,-0.006714,0.011169,-0.990723,0.175053,0.539237,0.006412,51,269,576,5696
1644171052.461336,-0.008423,0.012878,-0.99115,0.312458,0.478168,-0.192061,52,273,575,5696
1644171052.5097,-0.012329,0.010498,-0.991028,0.190321,0.417099,-0.054656,45,282,596,5696
1644171052.558075,-0.006226,0.009277,-0.988953,0.236122,0.356031,0.098015,53,266,585,5648
1644171052.606494,-0.01062,0.00885,-0.991211,0.236122,0.493435,-0.008855,53,276,583,5664
1644171052.654882,-0.007385,0.010437,-0.991211,0.144519,0.462901,-0.176794,52,268,584,5664
1644171052.703677,-0.011902,0.009705,-0.991638,0.175053,0.417099,-0.115725,46,276,571,5648
1644171052.75379,-0.011292,0.010193,-0.991394,0.236122,0.432366,-0.222595,58,266,585,5696
1644171052.804116,-0.011414,0.012695,-0.990112,0.098718,0.554504,-0.024122,57,270,582,5664
1644171052.849271,-0.009583,0.009338,-0.990479,0.281924,0.310229,-0.100458,52,275,575,5600
1644171052.945475,-0.010559,0.010681,-0.990662,0.266656,0.417099,-0.054656,51,276,576,5664
1644171052.99368,-0.010742,0.009033,-0.990051,0.159786,0.417099,-0.14626,48,269,580,5696
1644171053.042027,-0.010132,0.008484,-0.991394,0.190321,0.264427,-0.054656,53,274,576,5664
1644171053.091338,-0.011047,0.009766,-0.991516,0.220855,0.325496,-0.130992,57,268,579,5712
1644171053.138845,-0.010742,0.010925,-0.992493,0.327725,0.386565,-0.115725,38,277,563,5648
1644171053.187199,-0.009644,0.009583,-0.992065,0.236122,0.523969,-0.130992,51,283,592,5648
1644171053.235605,-0.00885,0.009338,-0.994629,0.266656,0.386565,0.067481,53,274,576,5696
1644171053.283953,-0.009766,0.008057,-0.990295,0.312458,0.401832,-0.130992,57,275,572,5728
1644171053.332371,-0.009766,0.008057,-0.991272,0.190321,0.356031,-0.024122,49,277,584,5648
1644171053.380763,-0.008057,0.010437,-0.991089,0.159786,0.294962,-0.054656,40,268,579,5728
1644171053.429155,-0.00946,0.010193,-0.992371,0.175053,0.325496,-0.130992,60,274,578,5648
1644171053.477535,-0.010193,0.010925,-0.989319,0.205588,0.63084,-0.085191,53,271,580,5696
1644171053.525903,-0.011536,0.011597,-0.992737,0.220855,0.432366,-0.161527,41,266,578,5760
1644171053.574472,-0.009521,0.011597,-0.990967,0.175053,0.356031,0.036947,52,268,570,5712
1644171053.62492,-0.011169,0.009033,-0.989136,0.129252,0.539237,-0.222595,48,266,571,5760
1644171053.67513,-0.009277,0.01123,-0.989319,0.266656,0.539237,-0.161527,54,273,582,5648
1644171053.720197,-0.00885,0.007385,-0.991638,0.266656,0.401832,-0.237863,53,276,573,5696
1644171053.816282,-0.010742,0.011719,-0.991394,0.526198,0.401832,-0.085191,49,275,570,5664
1644171053.865158,-0.009949,0.013184,-0.989929,0.281924,0.478168,-0.100458,54,282,582,5584
1644171053.913098,-0.009949,0.008423,-0.99176,0.266656,0.462901,-0.100458,49,277,572,5696
1644171053.961482,-0.008301,0.012878,-0.993347,0.205588,0.294962,-0.115725,51,274,576,5664
1644171054.009852,-0.010437,0.011169,-0.986511,0.190321,0.432366,-0.085191,54,265,584,5648
1644171054.063862,-0.009155,0.009827,-0.990906,0.251389,0.417099,0.052214,49,268,568,5648
1644171054.106643,-0.01001,0.009766,-0.991272,0.251389,0.447634,-0.115725,55,279,583,5712
1644171054.155075,-0.010986,0.007629,-0.992554,0.297191,0.417099,-0.008855,49,275,579,5648
1644171054.203448,-0.007141,0.012512,-0.989807,0.251389,0.508702,-0.039389,52,277,579,5760
1644171054.251828,-0.00885,0.009766,-0.991577,0.251389,0.294962,-0.024122,59,268,579,5696
1644171054.300228,-0.012146,0.007996,-0.990723,0.46513,0.325496,-0.024122,57,277,577,5664
1644171054.348611,-0.009033,0.010681,-0.990723,0.175053,0.447634,-0.039389,48,269,580,5664
1644171054.397017,-0.009949,0.011353,-0.993042,0.266656,0.462901,-0.100458,47,273,582,5648
1644171054.445356,-0.010803,0.009766,-0.991882,0.098718,0.554504,-0.085191,48,271,578,5696
1644171054.493793,-0.010437,0.009216,-0.991455,0.236122,0.340763,-0.130992,47,268,575,5648
1644171054.54218,-0.011841,0.009521,-0.988892,0.251389,0.478168,0.036947,47,280,568,5696
1644171054.590913,-0.009521,0.012329,-0.991882,0.220855,0.386565,-0.14626,46,271,571,5728
1644171054.63898,-0.010315,0.012573,-0.990356,0.35826,0.401832,-0.237863,51,279,573,5712
1644171054.689505,-0.009338,0.008545,-0.991028,0.190321,0.371298,-0.054656,57,285,582,5696
1644171054.73972,-0.006958,0.010803,-0.990234,0.190321,0.432366,-0.237863,46,279,573,5664
1644171054.789901,-0.011108,0.010803,-0.992615,0.236122,0.340763,-0.085191,51,266,585,5584
1644171054.88089,-0.006836,0.00946,-0.990845,0.068183,0.447634,-0.069924,52,275,575,5648
1644171054.929295,-0.008301,0.013428,-0.99054,0.281924,0.432366,-0.024122,45,275,582,5664
1644171054.977672,-0.008606,0.008423,-0.989868,0.190321,0.356031,-0.25313,53,281,580,5664
1644171055.026069,-0.010193,0.009521,-0.991699,0.236122,0.279695,-0.176794,61,270,582,5760
1644171055.074624,-0.012878,0.009644,-0.990845,0.297191,0.371298,0.082748,54,280,582,5648
1644171055.12284,-0.008118,0.010071,-0.99231,0.281924,0.294962,0.006412,47,270,577,5696
1644171055.171212,-0.010254,0.010376,-0.989624,0.205588,0.356031,-0.039389,49,273,584,5664
1644171055.219602,-0.007935,0.010864,-0.990479,0.373527,0.356031,-0.192061,43,279,576,5648
1644171055.267967,-0.011719,0.011108,-0.993164,0.190321,0.508702,-0.039389,43,271,578,5712
1644171055.316383,-0.008972,0.010681,-0.991028,0.342992,0.432366,0.021679,55,276,573,5648
1644171055.364768,-0.008606,0.011047,-0.992981,0.175053,0.325496,0.159084,42,275,577,5664
1644171055.413189,-0.013611,0.010559,-0.993103,0.327725,0.432366,-0.100458,45,285,570,5696
1644171055.461546,-0.009705,0.010193,-0.990417,0.144519,0.310229,-0.130992,46,281,576,5664
1644171055.509923,-0.009155,0.009705,-0.992798,0.159786,0.401832,-0.115725,45,275,579,5696
1644171055.558337,-0.008972,0.008423,-0.993347,0.35826,0.417099,-0.25313,59,280,582,5648
1644171055.606725,-0.009949,0.010193,-0.992432,0.220855,0.417099,0.006412,52,273,582,5600
1644171055.655149,-0.00946,0.009155,-0.991028,0.281924,0.432366,-0.085191,52,270,579,5712
1644171055.703496,-0.01001,0.011292,-0.988831,0.281924,0.401832,0.067481,46,271,571,5712
1644171055.751868,-0.009399,0.01001,-0.98938,0.175053,0.325496,-0.054656,55,266,580,5648
1644171055.8018,-0.009033,0.009705,-0.992126,0.220855,0.371298,-0.161527,43,271,580,5696
1644171055.852021,-0.009399,0.01239,-0.992676,0.205588,0.340763,-0.237863,52,275,575,5648
1644171055.902496,-0.011169,0.011597,-0.990723,0.281924,0.24916,-0.069924,53,281,578,5696
1644171055.947006,-0.010315,0.008911,-0.993042,0.297191,0.523969,-0.130992,42,265,582,5664
1644171056.055585,-0.010742,0.009521,-0.99054,0.190321,0.401832,-0.161527,59,273,572,5696
1644171056.093608,-0.009705,0.009827,-0.991821,0.35826,0.447634,-0.024122,45,277,577,5712
1644171056.139007,-0.009827,0.011414,-0.991699,0.175053,0.294962,-0.100458,49,280,572,5696
1644171056.187413,-0.01239,0.008972,-0.989685,0.205588,0.493435,-0.161527,47,258,575,5648
1644171056.235806,-0.010986,0.008667,-0.992554,0.327725,0.401832,-0.054656,49,268,575,5712
1644171056.284191,-0.010559,0.012756,-0.990295,0.388794,0.462901,-0.192061,43,286,573,5696
1644171056.332574,-0.011353,0.01062,-0.993958,0.205588,0.462901,-0.161527,48,269,573,5648
1644171056.380975,-0.011902,0.010742,-0.989502,0.175053,0.523969,-0.100458,52,273,589,5696
1644171056.429357,-0.010681,0.008423,-0.996887,0.251389,0.325496,-0.085191,51,266,580,5632
1644171056.477747,-0.01355,0.00946,-0.992859,0.08345,0.462901,-0.024122,68,280,577,5696
1644171056.526412,-0.008972,0.007812,-0.992676,0.236122,0.340763,-0.130992,46,281,578,5696
1644171056.575848,-0.008545,0.009399,-0.991455,0.281924,0.371298,-0.054656,41,271,576,5664
1644171056.626212,-0.010803,0.010803,-0.990417,0.205588,0.340763,-0.115725,47,275,579,5664
1644171056.676441,-0.011292,0.008545,-0.990723,0.175053,0.523969,-0.054656,45,277,572,5600
1644171056.768077,-0.00946,0.008545,-0.993408,0.205588,0.386565,0.082748,49,277,582,5760
1644171056.81648,-0.009521,0.010986,-0.992371,0.144519,0.401832,-0.130992,40,275,579,5664
1644171056.864906,-0.009338,0.009888,-0.990967,0.190321,0.539237,-0.039389,45,268,589,5696
1644171056.913298,-0.010681,0.010193,-0.990295,0.190321,0.279695,-0.161527,53,279,569,5664
1644171056.961662,-0.009766,0.011963,-0.991394,0.159786,0.310229,-0.085191,46,274,569,5696
1644171057.010098,-0.010803,0.010498,-0.991272,0.220855,0.371298,-0.024122,47,280,577,5696
1644171057.064124,-0.008972,0.010864,-0.994507,0.220855,0.493435,0.021679,58,269,573,5648
1644171057.106855,-0.006897,0.011353,-0.988892,0.190321,0.523969,-0.14626,52,277,582,5696
1644171057.155221,-0.008423,0.009949,-0.99115,0.175053,0.508702,-0.100458,42,275,584,5648
1644171057.203596,-0.011108,0.010498,-0.989563,0.159786,0.447634,0.006412,54,268,575,5648
1644171057.252,-0.009583,0.010132,-0.992065,0.281924,0.447634,-0.054656,48,279,583,5696
1644171057.300395,-0.008972,0.009521,-0.990906,0.205588,0.386565,-0.054656,48,271,569,5776
1644171057.348791,-0.009338,0.00824,-0.990112,0.251389,0.417099,-0.115725,52,280,575,5696
1644171057.397186,-0.010986,0.008667,-0.991211,0.373527,0.310229,-0.14626,47,268,572,5696
1644171057.445562,-0.009094,0.01001,-0.990479,0.266656,0.462901,-0.054656,49,268,577,5664
1644171057.49396,-0.005981,0.010864,-0.992615,0.281924,0.508702,-0.024122,52,280,589,5712
1644171057.542367,-0.00769,0.008179,-0.990417,0.251389,0.432366,-0.344733,42,280,584,5696
1644171057.59071,-0.010071,0.008179,-0.988586,0.236122,0.340763,-0.14626,53,274,580,5696
1644171057.639375,-0.008545,0.008545,-0.990906,0.175053,0.417099,-0.008855,43,274,576,5648
1644171057.688189,-0.011108,0.011169,-0.989136,0.220855,0.493435,-0.161527,58,274,578,5696
1644171057.738814,-0.009583,0.008118,-0.990112,0.236122,0.417099,-0.024122,52,273,572,5600
1644171057.789145,-0.01001,0.011047,-0.990662,0.297191,0.478168,-0.100458,52,270,577,5664
1644171057.833848,-0.011475,0.01062,-0.991333,0.342992,0.493435,-0.100458,64,275,582,5696
1644171057.929519,-0.007935,0.012329,-0.992493,0.266656,0.432366,-0.268397,58,266,580,5696
1644171057.977893,-0.011047,0.009644,-0.991272,0.266656,0.432366,-0.14626,58,274,576,5664
1644171058.026274,-0.010986,0.010742,-0.991821,0.190321,0.478168,0.067481,51,274,576,5712
1644171058.0748,-0.010498,0.011597,-0.993225,0.312458,0.462901,0.021679,51,274,585,5632
1644171058.123123,-0.010254,0.010254,-0.99054,0.327725,0.340763,-0.054656,47,277,579,5664
1644171058.17142,-0.011108,0.00885,-0.992249,0.205588,0.462901,0.036947,49,275,572,5696
1644171058.219804,-0.00946,0.011719,-0.992371,0.281924,0.462901,-0.14626,51,271,571,5696
1644171058.268181,-0.010437,0.011475,-0.992004,0.190321,0.371298,-0.192061,49,277,579,5712
1644171058.316592,-0.009399,0.014099,-0.991516,0.373527,0.417099,-0.130992,58,269,576,5664
1644171058.365109,-0.010498,0.010376,-0.99054,0.159786,0.264427,0.082748,58,269,564,5712
1644171058.413391,-0.006287,0.008545,-0.989197,0.297191,0.569771,-0.054656,52,265,570,5648
1644171058.461768,-0.008911,0.012268,-0.992981,0.251389,0.508702,-0.054656,53,266,583,5696
1644171058.510139,-0.009949,0.004639,-0.989746,0.129252,0.478168,-0.008855,52,280,572,5696
1644171058.558553,-0.010864,0.008423,-0.99231,0.281924,0.493435,-0.024122,60,283,576,5696
1644171058.606945,-0.013062,0.00946,-0.989746,0.281924,0.447634,0.082748,54,275,589,5648
1644171058.655329,-0.008606,0.008484,-0.990356,0.297191,0.356031,-0.14626,49,282,577,5696
1644171058.703726,-0.008484,0.008667,-0.990784,0.480397,0.462901,-0.161527,51,274,580,5696
1644171058.752089,-0.009399,0.008545,-0.990601,0.236122,0.447634,0.006412,52,268,586,5760
1644171058.800563,-0.012817,0.008179,-0.994751,0.342992,0.600305,-0.25313,58,269,578,5664
1644171058.849838,-0.008911,0.010864,-0.990906,0.342992,0.371298,-0.115725,51,279,576,5696
1644171058.900717,-0.008728,0.008911,-0.990173,0.220855,0.386565,-0.054656,57,282,579,5648
1644171058.951042,-0.006958,0.011841,-0.990662,0.159786,0.462901,-0.085191,55,279,576,5664
1644171058.995602,-0.011292,0.008667,-0.992065,0.312458,0.356031,-0.100458,48,279,569,5728
1644171059.094442,-0.008118,0.009766,-0.99054,0.190321,0.386565,-0.14626,43,274,578,5648
1644171059.139279,-0.008484,0.010803,-0.99408,0.297191,0.401832,-0.054656,46,276,576,5648
1644171059.187631,-0.012085,0.009521,-0.99353,0.312458,0.447634,-0.161527,48,276,578,5728
1644171059.236029,-0.00769,0.007874,-0.989075,0.327725,0.417099,-0.024122,47,277,575,5712
1644171059.284418,-0.008179,0.010803,-0.992432,0.327725,0.371298,-0.039389,53,271,578,5664
1644171059.332823,-0.006958,0.013062,-0.990479,0.312458,0.447634,0.021679,45,277,584,5664
1644171059.381188,-0.006775,0.008423,-0.991455,0.190321,0.462901,-0.054656,48,274,573,5648
1644171059.42959,-0.007263,0.010864,-0.992126,0.205588,0.462901,-0.268397,53,276,576,5728
1644171059.477952,-0.01001,0.010437,-0.988403,0.281924,0.539237,-0.069924,47,277,572,5696
1644171059.526366,-0.011475,0.012207,-0.992126,0.266656,0.539237,-0.039389,54,268,577,5664
1644171059.574811,-0.008728,0.011047,-0.990662,0.312458,0.447634,-0.222595,54,277,575,5696
1644171059.623162,-0.009521,0.009583,-0.991821,0.35826,0.447634,-0.085191,57,270,577,5600
1644171059.671531,-0.010559,0.009338,-0.988953,0.205588,0.539237,-0.039389,48,271,578,5664
1644171059.719926,-0.012817,0.010376,-0.991882,0.312458,0.432366,-0.237863,52,270,577,5664
1644171059.768322,-0.010559,0.009399,-0.990234,0.175053,0.264427,-0.039389,43,266,580,5696
1644171059.816705,-0.011414,0.008179,-0.99176,0.281924,0.417099,-0.100458,53,269,583,5664
1644171059.865211,-0.010864,0.013184,-0.99054,0.251389,0.478168,-0.14626,57,273,582,5648
1644171059.91466,-0.009766,0.011902,-0.990723,0.129252,0.462901,-0.176794,60,264,576,5648
1644171059.964842,-0.010254,0.010132,-0.994263,0.144519,0.386565,-0.024122,42,273,586,5664
1644171060.014918,-0.010071,0.010681,-0.99231,0.236122,0.508702,-0.069924,47,273,584,5648
1644171060.107072,-0.008911,0.011719,-0.991028,0.342992,0.508702,-0.176794,54,270,584,5664
1644171060.155458,-0.012817,0.011536,-0.989136,0.175053,0.508702,-0.130992,58,281,569,5648
1644171060.203837,-0.013428,0.010803,-0.989197,0.373527,0.539237,-0.192061,58,279,573,5712
1644171060.252389,-0.011292,0.008179,-0.990417,0.266656,0.386565,-0.14626,42,270,572,5664
1644171060.300603,-0.006958,0.009155,-0.991699,0.342992,0.356031,-0.008855,51,276,580,5696
1644171060.348995,-0.006653,0.00769,-0.990173,0.266656,0.325496,-0.115725,43,269,573,5648
1644171060.397387,-0.010071,0.008667,-0.99054,0.220855,0.432366,-0.207328,61,270,577,5664
1644171060.445787,-0.014099,0.011414,-0.988342,0.266656,0.340763,-0.100458,38,270,570,5712
1644171060.494185,-0.009155,0.007019,-0.989258,0.236122,0.401832,-0.024122,53,269,569,5664
1644171060.542583,-0.010315,0.010498,-0.991577,0.312458,0.462901,-0.054656,48,274,583,5600
1644171060.590962,-0.006775,0.008484,-0.991638,0.129252,0.325496,-0.161527,42,270,579,5760
1644171060.639357,-0.008728,0.010925,-0.991943,0.144519,0.493435,-0.115725,54,277,579,5760
1644171060.687739,-0.01178,0.01239,-0.992737,0.220855,0.523969,-0.024122,52,270,577,5648
1644171060.736139,-0.007812,0.010986,-0.988708,0.113985,0.310229,-0.130992,45,275,582,5664
1644171060.784515,-0.007568,0.009399,-0.990417,0.281924,0.447634,-0.130992,52,275,575,5664
1644171060.83292,-0.011108,0.00885,-0.99231,0.236122,0.447634,-0.100458,59,270,568,5696
1644171060.881327,-0.012878,0.007996,-0.992737,0.342992,0.310229,-0.207328,48,269,578,5696
1644171060.929734,-0.010498,0.012085,-0.992554,0.266656,0.340763,-0.085191,51,274,583,5696
1644171060.978134,-0.011963,0.013062,-0.989319,0.312458,0.417099,0.006412,48,279,583,5664
1644171061.027835,-0.011169,0.012878,-0.993958,0.266656,0.340763,-0.115725,54,273,589,5712
1644171061.091554,-0.009277,0.01001,-0.989685,0.312458,0.340763,0.021679,41,262,576,5648
1644171061.171662,-0.009338,0.011597,-0.989258,0.205588,0.447634,-0.085191,46,281,571,5696
1644171061.220072,-0.008301,0.008484,-0.991333,0.205588,0.264427,-0.008855,48,276,576,5648
1644171061.268464,-0.009766,0.011536,-0.991943,0.297191,0.340763,-0.14626,51,274,573,5632
1644171061.316833,-0.008118,0.009644,-0.992004,0.266656,0.386565,-0.069924,46,279,573,5648
1644171061.365243,-0.012207,0.008362,-0.99292,0.205588,0.203359,-0.161527,62,271,578,5776
1644171061.413648,-0.008484,0.012085,-0.991028,0.342992,0.401832,-0.039389,42,277,577,5664
1644171061.46204,-0.011536,0.008057,-0.989014,0.205588,0.356031,-0.085191,58,266,583,5696
1644171061.510431,-0.011169,0.014343,-0.991272,0.220855,0.386565,-0.008855,55,269,583,5696
1644171061.55882,-0.012451,0.012451,-0.991577,0.144519,0.569771,-0.069924,53,281,566,5648
1644171061.607196,-0.010376,0.010742,-0.991638,0.205588,0.523969,-0.054656,46,264,559,5712
1644171061.655595,-0.007324,0.01123,-0.992004,0.220855,0.386565,-0.024122,64,270,577,5696
1644171061.703998,-0.009705,0.007874,-0.990173,0.144519,0.340763,0.113282,55,276,583,5648
1644171061.752396,-0.008423,0.008728,-0.992615,0.266656,0.340763,-0.008855,43,279,590,5696
1644171061.800725,-0.007629,0.010864,-0.990295,0.068183,0.310229,-0.130992,42,280,575,5696
1644171061.849156,-0.007996,0.009705,-0.992859,0.129252,0.325496,-0.024122,57,273,577,5696
1644171061.897546,-0.010925,0.013062,-0.990417,0.113985,0.386565,-0.207328,53,269,578,5664
1644171061.945944,-0.009827,0.010925,-0.989746,0.35826,0.386565,-0.207328,46,281,580,5664
1644171061.994494,-0.010742,0.009338,-0.990601,0.159786,0.386565,-0.039389,45,270,579,5696
1644171062.064327,-0.008362,0.010742,-0.990601,0.342992,0.447634,-0.14626,53,262,571,5696
1644171062.095726,-0.009033,0.008118,-0.99176,0.205588,0.417099,-0.14626,49,273,596,5696
1644171062.143075,-0.008362,0.010803,-0.993225,0.007115,0.554504,-0.085191,54,273,584,5584
1644171062.192807,-0.009155,0.01062,-0.990967,0.205588,0.264427,-0.115725,52,273,579,5728
1644171062.284864,-0.008972,0.013123,-0.992249,0.205588,0.478168,-0.069924,55,269,585,5648
1644171062.333023,-0.010437,0.009277,-0.992249,0.312458,0.325496,-0.024122,40,275,572,5632
1644171062.381406,-0.011658,0.010498,-0.99054,0.144519,0.386565,-0.039389,51,276,576,5664
1644171062.429775,-0.009644,0.012207,-0.990601,0.388794,0.432366,-0.085191,42,270,568,5696
1644171062.478189,-0.007935,0.009766,-0.990967,0.175053,0.539237,-0.207328,48,279,583,5664
1644171062.526565,-0.009949,0.011841,-0.989807,0.144519,0.462901,0.23542,52,273,586,5712
1644171062.575011,-0.008484,0.008484,-0.994446,0.281924,0.325496,-0.024122,60,276,576,5696
1644171062.623369,-0.00769,0.011414,-0.991638,0.281924,0.325496,-0.192061,48,271,585,5664
1644171062.671752,-0.010803,0.011292,-0.991821,0.205588,0.447634,-0.207328,38,285,577,5760
1644171062.72015,-0.009644,0.009705,-0.992126,0.220855,0.371298,-0.14626,55,281,564,5696
1644171062.768533,-0.007812,0.010498,-0.99292,0.190321,0.417099,-0.054656,41,271,573,5664
1644171062.816958,-0.012268,0.010925,-0.989685,0.266656,0.447634,-0.039389,59,277,586,5664
1644171062.865351,-0.009583,0.010193,-0.991272,0.098718,0.478168,0.113282,58,281,587,5648
1644171062.91376,-0.009277,0.010376,-0.990479,0.266656,0.356031,0.036947,42,277,579,5664
1644171062.962192,-0.01001,0.010864,-0.989258,0.266656,0.356031,0.021679,58,271,580,5696
1644171063.010528,-0.009644,0.009338,-0.99292,0.220855,0.417099,-0.100458,43,274,576,5696
1644171063.068066,-0.009094,0.009705,-0.990967,0.251389,0.478168,0.082748,47,277,572,5728
1644171063.109021,-0.01062,0.011658,-0.988892,0.144519,0.24916,-0.161527,55,271,578,5648
1644171063.15567,-0.008606,0.008972,-0.990723,0.175053,0.371298,-0.024122,55,271,569,5664
1644171063.204237,-0.006104,0.010986,-0.99231,0.251389,0.340763,-0.237863,41,279,587,5712
1644171063.254737,-0.009949,0.011353,-0.992432,0.236122,0.310229,-0.100458,60,274,583,5696
1644171063.305115,-0.00824,0.009583,-0.991516,0.190321,0.356031,-0.100458,64,263,582,5664
1644171063.35005,-0.007874,0.009827,-0.990234,0.312458,0.478168,-0.085191,57,268,582,5664
1644171063.445992,-0.009705,0.008789,-0.990479,0.251389,0.417099,-0.039389,53,279,583,5664
1644171063.494384,-0.010925,0.007812,-0.991821,0.205588,0.523969,-0.100458,57,270,582,5696
1644171063.54279,-0.010681,0.012878,-0.993347,0.251389,0.310229,-0.115725,59,270,584,5648
1644171063.591174,-0.012024,0.009583,-0.991089,0.266656,0.356031,0.052214,49,273,577,5648
1644171063.639544,-0.010376,0.001343,-0.989746,0.205588,0.279695,-0.008855,65,276,566,5664
1644171063.687934,-0.006042,0.005249,-0.995361,0.327725,0.447634,-0.14626,49,265,584,5664
1644171063.736332,-0.010986,0.011658,-0.989563,0.144519,0.401832,-0.085191,48,269,576,5648
1644171063.784739,-0.011047,0.011597,-0.991577,0.297191,0.386565,-0.100458,42,275,570,5696
1644171063.83318,-0.011108,0.013123,-0.991333,0.297191,0.340763,-0.054656,45,277,577,5712
1644171063.881551,-0.008606,0.014221,-0.992249,0.098718,0.310229,-0.054656,42,280,582,5664
1644171063.929944,-0.008423,0.012451,-0.99408,0.281924,0.356031,-0.161527,41,279,576,5760
1644171063.978334,-0.009521,0.006531,-0.993469,0.266656,0.646107,-0.054656,46,276,583,5696
1644171064.026732,-0.008179,0.010498,-0.989807,0.159786,0.401832,-0.161527,47,268,582,5664
1644171064.093282,-0.010376,0.011719,-0.992432,0.205588,0.310229,-0.054656,53,279,580,5664
1644171064.123484,-0.009766,0.011047,-0.991943,0.404061,0.417099,-0.14626,53,276,573,5664
1644171064.171922,-0.008972,0.011536,-0.990723,0.190321,0.508702,-0.069924,52,275,572,5696
1644171064.220714,-0.008362,0.008362,-0.994202,0.251389,0.462901,-0.100458,52,268,593,5696
1644171064.271279,-0.010071,0.010315,-0.990967,0.281924,0.432366,0.006412,45,277,575,5664
1644171064.321527,-0.00769,0.010803,-0.99115,0.251389,0.279695,-0.237863,48,269,580,5632
1644171064.36649,-0.011047,0.008911,-0.992554,0.297191,0.386565,-0.054656,49,275,575,5696
1644171064.462392,-0.009094,0.010498,-0.989319,0.205588,0.508702,-0.161527,51,276,571,5632
1644171064.510581,-0.008423,0.010132,-0.990356,0.251389,0.294962,0.082748,55,269,573,5696
1644171064.558979,-0.012756,0.009155,-0.993347,0.205588,0.188092,-0.298931,47,270,568,5696
1644171064.607359,-0.012146,0.00885,-0.993347,0.388794,0.523969,-0.192061,39,279,564,5664
1644171064.655754,-0.011353,0.013428,-0.98938,0.220855,0.401832,-0.085191,57,280,575,5696
1644171064.704159,-0.010986,0.010376,-0.98584,0.190321,0.447634,0.021679,53,274,576,5648
1644171064.752524,-0.010132,0.008118,-0.990601,0.266656,0.432366,-0.085191,48,276,580,5696
1644171064.80094,-0.008301,0.011475,-0.993408,0.281924,0.462901,-0.14626,58,269,576,5664
1644171064.849374,-0.010315,0.009949,-0.990723,0.388794,0.63084,-0.161527,40,277,586,5696
1644171064.89777,-0.007996,0.011658,-0.990417,0.266656,0.462901,-0.130992,51,269,576,5664
1644171064.946157,-0.010376,0.012024,-0.99292,0.266656,0.554504,-0.176794,54,275,577,5696
1644171064.994633,-0.008423,0.010315,-0.992737,0.220855,0.478168,-0.130992,48,291,573,5648
1644171065.042954,-0.01062,0.007202,-0.990967,0.342992,0.447634,-0.069924,55,269,587,5664
1644171065.091847,-0.01001,0.009766,-0.99115,0.35826,0.386565,-0.207328,52,265,575,5712
1644171065.139696,-0.010376,0.010071,-0.992004,0.236122,0.294962,-0.100458,51,279,578,5712
1644171065.188059,-0.009705,0.01001,-0.992676,0.220855,0.478168,-0.130992,47,275,575,5648
1644171065.236463,-0.010071,0.010742,-0.989075,0.113985,0.371298,-0.100458,49,273,579,5696
1644171065.284853,-0.008667,0.00769,-0.990906,0.404061,0.386565,-0.268397,48,269,580,5664
1644171065.33358,-0.005859,0.010315,-0.994141,0.190321,0.523969,0.098015,49,277,570,5648
1644171065.382476,-0.008301,0.00885,-0.991211,0.129252,0.310229,-0.039389,57,270,575,5712
1644171065.43318,-0.011108,0.010437,-0.991089,0.205588,0.432366,-0.054656,42,285,582,5664
1644171065.483275,-0.007263,0.009766,-0.991272,0.220855,0.447634,0.067481,52,270,575,5696
1644171065.528221,-0.010132,0.012817,-0.992676,0.190321,0.401832,-0.008855,45,273,572,5664
1644171065.623595,-0.008484,0.009827,-0.989197,0.052916,0.493435,-0.039389,60,276,564,5664
1644171065.671971,-0.009827,0.010803,-0.993408,0.266656,0.371298,-0.039389,46,274,573,5648
1644171065.720348,-0.006714,0.011658,-0.99115,0.312458,0.447634,-0.329466,48,279,578,5664
1644171065.768748,-0.009338,0.00824,-0.990601,0.342992,0.447634,-0.054656,55,269,573,5696
1644171065.817137,-0.010315,0.00769,-0.99231,0.205588,0.325496,-0.024122,53,276,562,5712
1644171065.865572,-0.011047,0.007629,-0.990295,0.251389,0.508702,-0.115725,53,269,576,5664
1644171065.916671,-0.010864,0.010132,-0.989624,0.190321,0.523969,-0.069924,46,269,571,5600
1644171065.962381,-0.008728,0.008423,-0.993164,0.312458,0.539237,-0.069924,52,282,577,5728
1644171066.01074,-0.008545,0.011353,-0.992188,0.312458,0.478168,-0.024122,47,275,579,5664
1644171066.066128,-0.007935,0.00885,-0.990234,0.190321,0.356031,-0.115725,48,279,578,5664
1644171066.10755,-0.010498,0.010376,-0.98999,0.266656,0.386565,-0.14626,53,271,583,5712
1644171066.155877,-0.010559,0.012207,-0.990845,0.205588,0.478168,-0.100458,51,274,583,5648
1644171066.204285,-0.010742,0.010071,-0.990601,0.281924,0.447634,-0.054656,47,268,582,5696
1644171066.252682,-0.005981,0.008911,-0.988159,0.35826,0.356031,-0.176794,47,273,582,5664
1644171066.301051,-0.009827,0.010071,-0.992493,0.35826,0.371298,-0.176794,49,268,570,5776
1644171066.349443,-0.008423,0.009766,-0.989197,0.35826,0.294962,0.021679,51,274,585,5648
1644171066.397838,-0.008484,0.007874,-0.993042,0.327725,0.523969,-0.176794,52,273,572,5664
1644171066.446226,-0.011414,0.010193,-0.989319,0.220855,0.417099,-0.069924,46,276,583,5664
1644171066.494662,-0.01239,0.010803,-0.992493,0.297191,0.432366,-0.100458,59,277,584,5648
1644171066.543082,-0.010681,0.010071,-0.993347,0.129252,0.371298,0.143817,48,279,559,5664
1644171066.593489,-0.008667,0.008423,-0.990051,0.144519,0.356031,-0.130992,51,266,576,5664
1644171066.643832,-0.011658,0.010681,-0.997925,0.159786,0.462901,-0.130992,49,270,575,5696
1644171066.688727,-0.012085,0.006226,-0.991089,0.251389,0.24916,-0.130992,42,273,572,5632
1644171066.78523,-0.006104,0.00885,-0.992737,0.236122,0.417099,0.036947,52,270,570,5696
1644171066.833361,-0.010437,0.008545,-0.989868,0.266656,0.493435,-0.115725,49,273,575,5712
1644171066.88179,-0.010437,0.008789,-0.989929,0.175053,0.294962,-0.176794,47,265,570,5664
1644171066.930171,-0.006958,0.009705,-0.990967,0.159786,0.279695,-0.222595,51,274,573,5648
1644171066.978567,-0.009277,0.012207,-0.990906,0.388794,0.447634,-0.115725,55,281,583,5648
1644171067.026943,-0.010437,0.010803,-0.993225,0.190321,0.340763,-0.115725,53,276,573,5696
1644171067.085368,-0.006104,0.008972,-0.991943,0.327725,0.310229,-0.100458,47,270,584,5664
1644171067.123694,-0.009766,0.011902,-0.991272,0.327725,0.600305,-0.069924,49,275,582,5696
1644171067.172081,-0.008118,0.010193,-0.992798,0.220855,0.386565,-0.024122,57,277,579,5712
1644171067.220469,-0.010193,0.009277,-0.99115,0.236122,0.401832,-0.024122,47,280,579,5632
