epoch,acc_x,acc_y,acc_z,rot_x,rot_y,rot_z,mag_x,mag_y,mag_z,temp
1644155700.00534,-0.012085,0.007202,-0.991638,0.129252,0.340763,-0.14626,46,271,580,4880
1644155700.046599,-0.011292,0.011658,-0.99231,0.251389,0.539237,-0.176794,52,275,568,4848
1644155700.136798,-0.011475,0.007874,-0.991089,0.220855,0.417099,-0.054656,46,274,576,4848
1644155700.185202,-0.011414,0.009705,-0.992615,0.297191,0.554504,0.006412,54,273,572,4784
1644155700.233519,-0.010315,0.007385,-0.992065,0.159786,0.340763,-0.14626,52,275,575,4784
1644155700.281909,-0.013,0.009033,-0.991699,0.266656,0.508702,-0.054656,53,264,580,4720
1644155700.330299,-0.013062,0.008423,-0.99115,0.236122,0.417099,-0.207328,59,273,577,4720
1644155700.378679,-0.008118,0.008179,-0.993958,0.327725,0.386565,-0.115725,46,274,578,4832
1644155700.427062,-0.013245,0.00708,-0.994141,0.35826,0.401832,0.006412,53,274,569,4832
1644155700.475445,-0.012329,0.007629,-0.991882,0.251389,0.447634,-0.130992,52,273,577,4880
1644155700.523836,-0.009949,0.010254,-0.991638,0.175053,0.493435,-0.069924,51,276,576,4816
1644155700.572969,-0.011108,0.007751,-0.992432,0.144519,0.401832,-0.161527,64,285,579,4832
1644155700.620662,-0.010254,0.007812,-0.991272,0.342992,0.478168,-0.069924,55,269,587,4848
1644155700.669034,-0.011597,0.007996,-0.993408,0.236122,0.585038,-0.115725,49,280,584,4848
1644155700.717379,-0.012634,0.00708,-0.990417,0.205588,0.356031,-0.161527,45,275,572,4880
1644155700.765737,-0.009216,0.009827,-0.994873,0.220855,0.539237,-0.100458,54,277,572,4816
1644155700.814253,-0.014709,0.008362,-0.991516,0.342992,0.24916,-0.024122,52,280,572,4832
1644155700.862542,-0.012573,0.007874,-0.994385,0.297191,0.417099,0.067481,57,280,579,4848
1644155700.910987,-0.011963,0.009216,-0.992004,0.251389,0.264427,-0.085191,53,266,580,4816
1644155700.959304,-0.011292,0.008362,-0.990234,0.281924,0.24916,-0.054656,58,281,576,4848
1644155701.007744,-0.013,0.007629,-0.993896,0.144519,0.24916,-0.192061,49,273,572,4896
1644155701.104487,-0.01239,0.008606,-0.992004,0.220855,0.585038,-0.14626,48,271,583,4832
1644155701.15287,-0.009766,0.008484,-0.990662,0.129252,0.340763,-0.14626,58,279,573,4880
1644155701.201512,-0.009399,0.008118,-0.992249,0.281924,0.386565,-0.024122,45,268,579,4848
1644155701.249641,-0.010803,0.007874,-0.992371,0.220855,0.157557,-0.039389,58,279,564,4784
1644155701.298042,-0.013489,0.009216,-0.992615,0.190321,0.539237,-0.069924,49,273,568,4816
1644155701.346407,-0.010071,0.005615,-0.991028,0.205588,0.615573,-0.054656,46,274,573,4880
1644155701.394837,-0.011658,0.007446,-0.992004,0.297191,0.401832,-0.314198,54,273,577,4848
1644155701.443204,-0.01178,0.00946,-0.991516,0.35826,0.508702,-0.085191,49,268,582,4832
1644155701.491904,-0.009888,0.008972,-0.991943,0.404061,0.417099,-0.176794,54,270,582,4880
1644155701.539953,-0.012146,0.010315,-0.992981,0.281924,0.432366,-0.176794,58,281,573,4816
1644155701.588349,-0.011169,0.008057,-0.990723,0.281924,0.493435,-0.069924,55,274,576,4848
1644155701.636749,-0.014221,0.00647,-0.993225,0.327725,0.585038,-0.039389,55,269,576,4816
1644155701.685195,-0.01123,0.006592,-0.99231,0.159786,0.417099,-0.100458,51,266,580,4720
1644155701.733512,-0.01355,0.010742,-0.995117,0.312458,0.447634,-0.130992,55,281,576,4784
1644155701.781885,-0.013184,0.010132,-0.992798,0.297191,0.432366,-0.130992,57,273,586,4784
1644155701.830285,-0.011719,0.007812,-0.992004,0.297191,0.478168,-0.14626,47,277,577,4816
1644155701.878627,-0.006775,0.00885,-0.990417,0.297191,0.432366,-0.024122,43,269,578,4816
1644155701.927052,-0.012085,0.009644,-0.988953,0.251389,0.417099,-0.008855,55,271,580,4816
1644155701.975443,-0.01178,0.008423,-0.992493,0.251389,0.478168,-0.100458,51,274,573,4848
1644155702.02941,-0.011414,0.011353,-0.991821,0.327725,0.478168,-0.161527,49,270,584,4848
1644155702.082526,-0.014099,0.008728,-0.992615,0.342992,0.523969,0.006412,51,274,578,4832
1644155702.125192,-0.008911,0.009644,-0.99115,0.266656,0.462901,-0.085191,52,273,570,4832
1644155702.217364,-0.010193,0.008972,-0.993408,0.129252,0.340763,-0.069924,46,269,576,4832
1644155702.266467,-0.012207,0.005981,-0.993408,0.159786,0.325496,-0.25313,54,275,577,4848
1644155702.314117,-0.014099,0.008179,-0.992432,0.159786,0.493435,-0.054656,54,268,577,4816
1644155702.362471,-0.012207,0.007324,-0.994263,0.175053,0.203359,-0.192061,52,273,572,4832
1644155702.410948,-0.012573,0.010315,-0.993347,0.312458,0.462901,-0.207328,58,276,578,4880
1644155702.459249,-0.011658,0.01062,-0.992126,0.144519,0.340763,-0.024122,59,270,577,4784
1644155702.507619,-0.01062,0.009094,-0.993774,0.098718,0.233893,-0.161527,47,273,572,4816
1644155702.556014,-0.013,0.007446,-0.990845,0.144519,0.386565,-0.085191,38,280,572,4816
1644155702.604419,-0.009644,0.008118,-0.993469,0.159786,0.432366,-0.176794,55,279,571,4816
1644155702.652799,-0.01062,0.009277,-0.989197,0.220855,0.371298,0.006412,45,260,579,4784
1644155702.701171,-0.012878,0.007507,-0.99353,0.556733,0.417099,-0.039389,57,277,568,4880
1644155702.74953,-0.012329,0.010681,-0.99469,0.175053,0.462901,-0.100458,58,269,569,4832
1644155702.797946,-0.010498,0.010437,-0.98999,0.266656,0.569771,-0.130992,55,269,580,4752
1644155702.846335,-0.011902,0.009766,-0.990906,0.251389,0.447634,-0.176794,55,269,578,4848
1644155702.894743,-0.013,0.009216,-0.993713,0.297191,0.478168,-0.008855,47,275,570,4880
1644155702.943597,-0.014771,0.007385,-0.993591,0.236122,0.310229,-0.237863,54,285,575,4816
1644155702.991893,-0.011902,0.009277,-0.992249,0.35826,0.447634,-0.207328,54,268,579,4816
1644155703.039878,-0.010376,0.009521,-0.990723,0.190321,0.585038,-0.14626,66,280,570,4816
1644155703.09586,-0.009705,0.010254,-0.995056,0.236122,0.432366,-0.222595,41,274,576,4848
1644155703.140429,-0.010986,0.007996,-0.989807,0.08345,0.478168,-0.054656,53,266,571,4816
1644155703.190621,-0.013,0.008484,-0.991638,0.327725,0.386565,-0.207328,61,277,582,4816
1644155703.240118,-0.009888,0.01001,-0.991699,0.266656,0.24916,-0.161527,45,268,570,4784
1644155703.330198,-0.010193,0.007996,-0.992249,0.175053,0.356031,-0.085191,58,276,578,4816
1644155703.378563,-0.011475,0.008667,-0.994751,0.342992,0.417099,-0.222595,54,275,577,4720
1644155703.426968,-0.011108,0.011169,-0.994019,0.342992,0.493435,-0.115725,47,275,570,4848
1644155703.475364,-0.013367,0.009644,-0.992249,0.205588,0.432366,-0.054656,41,264,571,4784
1644155703.523752,-0.013977,0.006592,-0.991943,0.159786,0.508702,-0.069924,54,282,568,4816
1644155703.572161,-0.014709,0.010376,-0.991272,0.251389,0.462901,0.006412,53,276,569,4816
1644155703.620518,-0.011597,0.007385,-0.990662,0.449863,0.600305,-0.069924,49,270,577,4784
1644155703.668919,-0.011047,0.010925,-0.99115,0.129252,0.554504,-0.130992,53,279,580,4784
1644155703.717305,-0.013123,0.007507,-0.992615,0.236122,0.462901,-0.069924,54,277,572,4880
1644155703.765684,-0.010071,0.005737,-0.99054,0.281924,0.401832,-0.054656,43,281,576,4848
1644155703.814093,-0.012451,0.009705,-0.992676,0.342992,0.508702,-0.161527,43,269,569,4720
1644155703.862492,-0.011536,0.008728,-0.99585,0.297191,0.569771,-0.100458,60,271,564,4752
1644155703.910887,-0.011108,0.009338,-0.993591,0.266656,0.386565,0.021679,47,270,575,4816
1644155703.959265,-0.012939,0.006653,-0.992798,0.266656,0.386565,-0.115725,48,266,583,4784
1644155704.00767,-0.009827,0.009033,-0.991943,0.35826,0.233893,-0.039389,61,280,570,4784
1644155704.071762,-0.011414,0.011536,-0.993347,0.113985,0.478168,-0.069924,47,280,586,4752
1644155704.111515,-0.013733,0.006897,-0.993469,0.175053,0.523969,-0.069924,49,273,579,4816
1644155704.156354,-0.011169,0.012329,-0.992676,0.129252,0.600305,-0.039389,55,264,578,4784
1644155704.206109,-0.012939,0.00769,-0.992737,0.236122,0.371298,-0.14626,46,271,576,4816
1644155704.250242,-0.010925,0.007874,-0.992859,0.220855,0.432366,-0.161527,60,283,573,4816
1644155704.346315,-0.011353,0.008484,-0.99115,0.236122,0.340763,-0.024122,48,271,571,4848
1644155704.39487,-0.010742,0.007935,-0.993835,0.129252,0.371298,-0.069924,46,271,569,4816
1644155704.443109,-0.012146,0.007996,-0.989685,0.404061,0.371298,-0.069924,51,269,571,4784
1644155704.491794,-0.014954,0.008789,-0.990906,0.236122,0.417099,-0.100458,58,269,585,4848
1644155704.539871,-0.010742,0.009399,-0.991821,0.373527,0.294962,-0.039389,49,265,572,4784
1644155704.588235,-0.009338,0.010437,-0.993042,0.281924,0.523969,-0.085191,45,268,575,4816
1644155704.63662,-0.012573,0.009338,-0.993774,0.602534,0.417099,-0.130992,51,271,573,4880
1644155704.685146,-0.012817,0.009155,-0.991699,0.175053,0.386565,-0.100458,57,268,577,4848
1644155704.733427,-0.010559,0.007629,-0.99176,0.159786,0.294962,-0.024122,57,273,579,4768
1644155704.781822,-0.009705,0.008301,-0.992859,0.266656,0.447634,0.006412,59,275,565,4880
1644155704.830242,-0.010193,0.007812,-0.990662,0.327725,0.340763,-0.008855,48,264,576,4784
1644155704.878641,-0.008057,0.006653,-0.993835,0.236122,0.569771,0.036947,48,269,569,4784
1644155704.927015,-0.011658,0.010864,-0.992798,0.113985,0.340763,-0.207328,52,273,579,4816
1644155704.975374,-0.009155,0.008728,-0.990845,0.159786,0.432366,-0.176794,48,276,576,4784
1644155705.023821,-0.012268,0.007874,-0.995544,0.251389,0.447634,-0.069924,52,275,572,4848
1644155705.073061,-0.010925,0.007935,-0.991455,0.281924,0.462901,-0.024122,55,271,571,4784
1644155705.120601,-0.011047,0.009399,-0.99231,0.190321,0.371298,-0.008855,48,269,583,4832
1644155705.169006,-0.013306,0.009399,-0.992371,0.220855,0.356031,-0.100458,49,265,570,4720
1644155705.217385,-0.012695,0.007507,-0.990112,0.327725,0.523969,0.006412,57,282,563,4816
1644155705.274836,-0.011902,0.008789,-0.992737,0.297191,0.401832,-0.024122,48,281,576,4848
1644155705.325354,-0.011475,0.005798,-0.99054,0.190321,0.462901,-0.085191,53,279,571,4832
1644155705.367326,-0.011292,0.00885,-0.99176,0.312458,0.585038,-0.039389,53,276,580,4848
1644155705.459244,-0.010498,0.009338,-0.993103,0.236122,0.646107,-0.161527,51,271,571,4880
1644155705.507604,-0.012817,0.01001,-0.992493,0.342992,0.523969,-0.176794,46,266,576,4816
1644155705.556001,-0.011719,0.009216,-0.990417,0.175053,0.600305,-0.100458,48,262,569,4784
1644155705.604396,-0.013184,0.005981,-0.993164,0.220855,0.386565,-0.130992,57,273,568,4848
1644155705.652797,-0.009338,0.009583,-0.992737,0.113985,0.462901,-0.085191,46,266,571,4816
1644155705.701157,-0.012695,0.006775,-0.994141,0.220855,0.462901,-0.100458,46,279,571,4816
1644155705.749527,-0.014038,0.00946,-0.993591,0.342992,0.432366,-0.130992,45,270,577,4848
1644155705.797944,-0.010132,0.009827,-0.992126,0.266656,0.447634,-0.024122,52,270,579,4816
1644155705.846346,-0.010132,0.006836,-0.992249,0.281924,0.493435,-0.130992,52,275,568,4848
1644155705.894764,-0.011902,0.006348,-0.992737,0.312458,0.569771,-0.161527,55,279,562,4848
1644155705.94314,-0.011963,0.008545,-0.990723,0.190321,0.310229,-0.268397,53,276,573,4848
1644155705.991502,-0.013245,0.009155,-0.990601,0.388794,0.325496,-0.054656,53,274,569,4816
1644155706.039884,-0.009766,0.007751,-0.990356,0.297191,0.340763,-0.008855,42,285,572,4848
1644155706.088253,-0.01062,0.009644,-0.992493,0.08345,0.356031,-0.115725,53,271,573,4816
1644155706.13672,-0.014282,0.009094,-0.994629,0.434595,0.417099,-0.100458,45,263,575,4720
1644155706.185102,-0.010925,0.007996,-0.993713,0.312458,0.401832,-0.161527,52,270,575,4848
1644155706.233442,-0.010864,0.008728,-0.994019,0.159786,0.539237,0.006412,46,274,578,4720
1644155706.281804,-0.011841,0.01062,-0.990967,0.327725,0.493435,-0.085191,42,277,572,4832
1644155706.330193,-0.011658,0.010376,-0.994202,0.175053,0.401832,-0.115725,51,266,578,4672
1644155706.378581,-0.011963,0.007751,-0.994507,0.373527,0.371298,-0.069924,47,273,584,4784
1644155706.427186,-0.011353,0.008057,-0.992737,0.144519,0.432366,0.036947,47,268,579,4816
1644155706.476782,-0.013855,0.00769,-0.991577,0.236122,0.493435,0.113282,46,274,580,4880
1644155706.524379,-0.012512,0.00415,-0.992371,0.281924,0.569771,-0.085191,47,273,568,4832
1644155706.620574,-0.009827,0.00885,-0.99292,0.251389,0.493435,-0.161527,46,274,571,4848
1644155706.668933,-0.011841,0.005188,-0.994263,0.098718,0.646107,-0.069924,51,279,585,4832
1644155706.717286,-0.009155,0.007996,-0.99115,0.159786,0.417099,0.021679,59,273,570,4832
1644155706.765684,-0.009583,0.005615,-0.994141,0.297191,0.462901,-0.069924,49,277,572,4880
1644155706.814139,-0.011536,0.009583,-0.989624,0.236122,0.340763,-0.14626,59,270,565,4784
1644155706.862492,-0.010803,0.009033,-0.991272,0.342992,0.508702,-0.130992,53,274,571,4896
1644155706.910874,-0.012817,0.010315,-0.988464,0.266656,0.432366,-0.130992,51,264,564,4848
1644155706.959265,-0.012878,0.007019,-0.991577,0.281924,0.539237,-0.130992,51,269,573,4784
1644155707.007634,-0.012878,0.006836,-0.990295,0.175053,0.539237,-0.192061,45,263,575,4784
1644155707.059927,-0.010559,0.009949,-0.992432,0.251389,0.523969,-0.054656,47,260,565,4816
1644155707.104463,-0.010742,0.009766,-0.992859,0.297191,0.264427,0.036947,43,276,573,4832
1644155707.152783,-0.012024,0.005554,-0.991089,0.373527,0.386565,-0.207328,49,275,572,4752
1644155707.20115,-0.009399,0.008484,-0.991211,0.35826,0.523969,-0.14626,52,270,582,4784
1644155707.249504,-0.012085,0.010986,-0.990723,0.342992,0.447634,-0.14626,47,273,577,4784
1644155707.299599,-0.01001,0.006287,-0.991455,0.388794,0.600305,-0.054656,53,276,576,4848
1644155707.346308,-0.009338,0.010986,-0.994629,0.312458,0.523969,-0.14626,42,282,577,4832
1644155707.394736,-0.011169,0.010681,-0.992432,0.236122,0.386565,-0.130992,57,265,572,4848
1644155707.4431,-0.008728,0.010681,-0.992554,0.312458,0.554504,-0.14626,58,259,573,4848
1644155707.491807,-0.01355,0.009888,-0.991272,0.327725,0.356031,-0.115725,45,275,584,4832
1644155707.539867,-0.012573,0.010132,-0.994446,0.342992,0.417099,-0.085191,49,265,577,4720
1644155707.588237,-0.011169,0.007263,-0.995117,0.342992,0.554504,-0.024122,49,285,582,4848
1644155707.638283,-0.012268,0.009399,-0.991455,0.220855,0.462901,-0.192061,46,271,576,4848
1644155707.686125,-0.011597,0.006897,-0.990234,0.129252,0.417099,-0.176794,41,274,576,4848
1644155707.781778,-0.011292,0.008484,-0.992004,0.175053,0.478168,-0.085191,41,271,569,4848
1644155707.830192,-0.012756,0.005676,-0.99176,0.297191,0.356031,-0.039389,48,274,573,4720
1644155707.878599,-0.010132,0.008667,-0.99469,0.404061,0.386565,-0.176794,41,271,569,4880
1644155707.926973,-0.010925,0.01001,-0.99408,0.312458,0.340763,0.098015,52,270,570,4816
1644155707.975361,-0.009277,0.008728,-0.991577,0.144519,0.508702,-0.115725,48,276,566,4784
1644155708.023766,-0.014771,0.008301,-0.99115,0.388794,0.417099,-0.100458,51,279,566,4816
1644155708.072268,-0.009766,0.008911,-0.992004,0.312458,0.585038,0.006412,53,262,566,4784
1644155708.120545,-0.010376,0.005981,-0.991333,0.419328,0.539237,-0.069924,55,269,566,4784
1644155708.168913,-0.011658,0.009583,-0.99292,0.205588,0.386565,-0.207328,47,268,568,4848
1644155708.217268,-0.012024,0.009033,-0.988647,0.266656,0.447634,-0.161527,51,269,566,4848
1644155708.265651,-0.013977,0.007935,-0.991943,0.419328,0.325496,-0.085191,52,265,568,4848
1644155708.314064,-0.00946,0.010254,-0.992554,0.35826,0.462901,-0.161527,53,279,578,4784
1644155708.362476,-0.010864,0.011292,-0.989746,0.190321,0.432366,-0.130992,48,271,571,4848
1644155708.410841,-0.011047,0.009033,-0.990234,0.144519,0.401832,-0.069924,49,270,572,4816
1644155708.459226,-0.012451,0.007507,-0.993164,0.236122,0.478168,-0.14626,45,270,568,4896
1644155708.507592,-0.012146,0.008423,-0.991028,0.342992,0.386565,-0.085191,53,279,571,4752
1644155708.556005,-0.012634,0.005615,-0.990967,0.327725,0.356031,-0.069924,43,279,573,4816
1644155708.604385,-0.009644,0.011169,-0.991516,0.205588,0.432366,-0.008855,43,274,569,4816
1644155708.652781,-0.010193,0.011353,-0.993347,0.236122,0.462901,-0.054656,49,273,558,4784
1644155708.701156,-0.012695,0.007141,-0.992188,0.266656,0.462901,-0.039389,48,274,576,4848
1644155708.74975,-0.009521,0.00824,-0.990906,0.342992,0.417099,0.006412,57,275,575,4784
1644155708.800332,-0.009216,0.010925,-0.98938,0.113985,0.508702,-0.115725,52,275,570,4816
1644155708.894807,-0.014709,0.01001,-0.992065,0.144519,0.310229,-0.085191,53,269,573,4816
1644155708.943156,-0.007874,0.00708,-0.992493,0.159786,0.462901,-0.039389,48,271,578,4816
1644155708.991493,-0.011414,0.00824,-0.992004,0.327725,0.462901,0.052214,51,279,569,4848
1644155709.039905,-0.009949,0.007324,-0.992188,0.297191,0.356031,-0.100458,46,276,562,4720
1644155709.08825,-0.009277,0.011841,-0.992065,0.251389,0.356031,0.021679,46,269,576,4848
1644155709.136701,-0.010803,0.007812,-0.992126,0.190321,0.401832,0.036947,48,269,576,4880
1644155709.185133,-0.013489,0.00946,-0.992371,0.327725,0.462901,-0.054656,52,273,575,4784
1644155709.233474,-0.011292,0.008423,-0.994202,0.342992,0.478168,-0.100458,48,269,571,4848
1644155709.281821,-0.01001,0.010498,-0.992126,0.205588,0.432366,-0.176794,55,276,571,4848
1644155709.330241,-0.013489,0.009155,-0.993652,0.205588,0.417099,-0.024122,47,258,565,4784
1644155709.378626,-0.012329,0.007446,-0.992737,0.266656,0.539237,0.036947,61,277,582,4848
1644155709.427014,-0.012085,0.00885,-0.992004,0.236122,0.523969,-0.008855,45,282,570,4880
1644155709.475391,-0.012756,0.011108,-0.991272,0.327725,0.447634,-0.237863,51,266,578,4784
1644155709.523766,-0.011963,0.008545,-0.99115,0.052916,0.447634,-0.100458,55,271,573,4848
1644155709.572171,-0.009644,0.006897,-0.991211,0.266656,0.462901,-0.069924,54,270,563,4784
1644155709.620721,-0.012695,0.00946,-0.991943,0.251389,0.340763,0.036947,51,279,569,4768
1644155709.671041,-0.015137,0.010559,-0.993042,0.297191,0.554504,-0.100458,52,273,579,4784
1644155709.718486,-0.009949,0.010986,-0.99231,0.220855,0.371298,-0.039389,52,273,570,4784
1644155709.814122,-0.009705,0.008362,-0.992859,0.281924,0.523969,-0.115725,43,264,557,4848
1644155709.862468,-0.007324,0.009521,-0.989868,0.113985,0.386565,-0.024122,43,271,564,4816
1644155709.91083,-0.012695,0.009277,-0.993042,0.35826,0.417099,-0.14626,57,277,575,4720
1644155709.959222,-0.011292,0.010376,-0.992188,0.236122,0.356031,-0.14626,48,276,576,4832
1644155710.007607,-0.011719,0.008118,-0.993958,0.266656,0.325496,-0.115725,43,266,562,4832
1644155710.061531,-0.009277,0.007263,-0.991882,0.281924,0.585038,-0.115725,48,276,578,4720
1644155710.104407,-0.012939,0.007996,-0.992493,0.342992,0.371298,0.036947,42,275,572,4848
1644155710.152837,-0.011353,0.01001,-0.990295,0.144519,0.447634,-0.039389,54,275,572,4816
1644155710.201203,-0.010864,0.010132,-0.990295,0.113985,0.386565,-0.14626,46,257,562,4816
1644155710.249577,-0.009766,0.010864,-0.993713,0.251389,0.554504,-0.329466,57,277,563,4816
1644155710.297968,-0.011902,0.008362,-0.991028,0.220855,0.310229,-0.024122,45,265,565,4848
1644155710.346363,-0.01001,0.010315,-0.990051,0.297191,0.447634,-0.085191,57,277,568,4816
1644155710.394746,-0.010803,0.009827,-0.990479,0.144519,0.432366,-0.054656,47,270,563,4848
1644155710.443137,-0.009338,0.007385,-0.989075,0.35826,0.539237,-0.176794,47,270,579,4816
1644155710.491884,-0.011963,0.007507,-0.992188,0.419328,0.478168,-0.115725,53,271,576,4848
1644155710.539877,-0.011414,0.007568,-0.98938,0.297191,0.401832,-0.024122,51,276,580,4784
1644155710.589732,-0.012024,0.008972,-0.989685,0.526198,0.233893,-0.14626,41,281,559,4784
1644155710.636656,-0.011292,0.005615,-0.991394,0.220855,0.432366,-0.115725,55,274,576,4784
1644155710.685117,-0.014038,0.008362,-0.991211,0.251389,0.417099,-0.192061,57,277,568,4880
1644155710.733446,-0.012146,0.008789,-0.988831,0.159786,0.417099,-0.008855,49,270,575,4848
1644155710.782349,-0.009827,0.011963,-0.992126,0.098718,0.508702,-0.14626,43,269,571,4784
1644155710.83268,-0.010437,0.010376,-0.989929,0.129252,0.401832,-0.115725,48,274,573,4848
1644155710.927029,-0.010742,0.009827,-0.993286,0.297191,0.539237,-0.268397,47,275,568,4784
1644155710.975412,-0.012634,0.012024,-0.993835,0.144519,0.539237,-0.192061,49,280,565,4816
1644155711.023782,-0.008362,0.008423,-0.992188,0.266656,0.600305,-0.039389,51,271,571,4816
1644155711.072242,-0.013855,0.011414,-0.992432,0.297191,0.554504,-0.115725,38,270,575,4832
1644155711.120559,-0.012085,0.008301,-0.994446,0.449863,0.462901,-0.176794,41,276,573,4848
1644155711.168941,-0.012817,0.00769,-0.993286,0.281924,0.447634,-0.069924,49,285,570,4784
1644155711.217329,-0.009521,0.009033,-0.992249,0.220855,0.508702,-0.085191,49,277,572,4848
1644155711.265724,-0.009521,0.009155,-0.991638,0.342992,0.478168,-0.161527,46,271,573,4848
1644155711.314112,-0.011597,0.007629,-0.991272,0.175053,0.432366,-0.207328,54,270,584,4880
1644155711.362475,-0.011536,0.007996,-0.991821,0.159786,0.386565,-0.130992,46,281,571,4848
1644155711.410862,-0.010986,0.009216,-0.990356,0.251389,0.462901,-0.069924,52,270,570,4832
1644155711.459219,-0.011963,0.008179,-0.992676,0.251389,0.478168,-0.024122,42,273,572,4816
1644155711.507624,-0.012451,0.007324,-0.99054,0.327725,0.417099,0.098015,59,268,568,4816
1644155711.556035,-0.014221,0.00592,-0.990295,0.281924,0.554504,0.036947,52,275,572,4848
1644155711.604497,-0.011902,0.011475,-0.991577,0.190321,0.417099,-0.069924,52,277,579,4848
1644155711.652837,-0.012146,0.006958,-0.995544,0.251389,0.432366,0.036947,53,271,576,4832
1644155711.701192,-0.010071,0.007629,-0.990784,0.236122,0.417099,-0.024122,48,279,569,4880
1644155711.749621,-0.01123,0.009705,-0.991516,0.434595,0.340763,-0.176794,65,279,576,4832
1644155711.798036,-0.011841,0.007019,-0.99292,0.434595,0.371298,-0.024122,51,281,573,4816
1644155711.846383,-0.012817,0.008057,-0.996216,0.236122,0.386565,-0.024122,47,268,572,4720
1644155711.905297,-0.013184,0.003723,-0.992188,0.281924,0.310229,-0.100458,43,276,578,4816
1644155711.951418,-0.010559,0.009277,-0.993958,0.236122,0.371298,0.006412,54,282,568,4784
1644155712.039927,-0.008728,0.010986,-0.992554,0.220855,0.401832,0.006412,51,281,571,4880
1644155712.088469,-0.008667,0.010437,-0.993225,0.35826,0.340763,-0.069924,57,270,589,4928
1644155712.136672,-0.01355,0.008728,-0.992371,0.113985,0.401832,-0.054656,40,273,575,4880
1644155712.185138,-0.014587,0.008545,-0.993164,0.434595,0.447634,0.082748,49,268,572,4848
1644155712.233431,-0.015198,0.006226,-0.99353,0.251389,0.356031,-0.115725,57,273,572,4832
1644155712.28183,-0.009888,0.007446,-0.991638,0.098718,0.554504,-0.161527,53,269,573,4816
1644155712.330231,-0.010986,0.005798,-0.993164,0.220855,0.356031,-0.192061,51,266,571,4720
1644155712.378624,-0.011841,0.009155,-0.991089,0.159786,0.386565,-0.14626,59,273,575,4784
1644155712.426961,-0.010803,0.008545,-0.992859,0.388794,0.508702,-0.054656,43,274,576,4848
1644155712.475342,-0.008667,0.009216,-0.992798,0.373527,0.478168,0.082748,51,276,573,4880
1644155712.523772,-0.010925,0.008179,-0.990723,0.281924,0.539237,-0.069924,47,285,565,4832
1644155712.572209,-0.008545,0.006958,-0.991882,0.312458,0.447634,0.006412,59,277,565,4848
1644155712.620579,-0.014587,0.010132,-0.993103,0.342992,0.493435,-0.054656,49,273,575,4784
1644155712.668954,-0.010315,0.007141,-0.994995,0.159786,0.401832,-0.008855,47,270,584,4816
1644155712.717309,-0.014221,0.007141,-0.993896,0.251389,0.539237,-0.085191,57,273,575,4848
1644155712.765933,-0.012451,0.008057,-0.98938,0.297191,0.401832,-0.085191,54,265,577,4848
1644155712.814161,-0.014587,0.007507,-0.990051,0.236122,0.386565,-0.130992,52,275,575,4848
1644155712.862535,-0.013733,0.008362,-0.990479,0.434595,0.386565,-0.130992,49,282,572,4848
1644155712.910911,-0.009705,0.010315,-0.992981,0.190321,0.417099,-0.161527,43,281,583,4816
1644155712.964792,-0.010559,0.009094,-0.990845,0.419328,0.340763,-0.130992,57,277,582,4816
1644155713.01529,-0.012634,0.009155,-0.991089,0.266656,0.401832,-0.024122,54,273,565,4848
1644155713.104376,-0.008545,0.006348,-0.992676,0.281924,0.478168,-0.130992,41,276,580,4816
1644155713.152807,-0.010681,0.011108,-0.993774,0.220855,0.24916,-0.176794,52,277,577,4784
1644155713.201161,-0.011902,0.007507,-0.993347,0.266656,0.539237,-0.207328,43,271,569,4832
1644155713.249594,-0.010315,0.009644,-0.991821,0.251389,0.310229,-0.085191,51,276,571,4784
1644155713.297973,-0.009338,0.009644,-0.991089,0.327725,0.356031,-0.130992,48,264,576,4816
1644155713.346339,-0.011292,0.008484,-0.992798,0.373527,0.508702,-0.14626,48,279,573,4848
1644155713.394768,-0.010376,0.008362,-0.992371,0.297191,0.386565,-0.100458,49,275,575,4848
1644155713.443133,-0.008911,0.007874,-0.993652,0.266656,0.478168,-0.008855,49,270,572,4816
1644155713.491876,-0.008972,0.007996,-0.99292,0.404061,0.478168,-0.085191,52,285,572,4880
1644155713.539884,-0.011719,0.00769,-0.990601,0.342992,0.356031,-0.14626,55,271,571,4752
1644155713.588307,-0.011841,0.009949,-0.988892,0.342992,0.432366,-0.115725,58,281,566,4816
1644155713.636677,-0.010925,0.009827,-0.992859,0.46513,0.417099,-0.14626,52,273,565,4784
1644155713.685146,-0.010986,0.008789,-0.992676,0.190321,0.401832,-0.115725,52,265,575,4752
1644155713.733486,-0.00885,0.008362,-0.993958,0.236122,0.523969,0.006412,52,273,572,4816
1644155713.781846,-0.010864,0.008545,-0.992798,0.159786,0.294962,-0.130992,48,276,576,4880
1644155713.830286,-0.01123,0.010193,-0.989441,0.297191,0.279695,-0.14626,52,270,575,4848
1644155713.878579,-0.014465,0.008972,-0.991089,0.373527,0.233893,-0.039389,58,271,576,4784
1644155713.929816,-0.012512,0.008972,-0.992798,0.251389,0.401832,-0.222595,43,271,573,4848
1644155713.975408,-0.011841,0.007812,-0.99115,0.342992,0.493435,-0.100458,46,264,576,4784
1644155714.029307,-0.011292,0.00885,-0.992249,0.266656,0.417099,-0.130992,54,270,565,4848
1644155714.084337,-0.010559,0.008179,-0.992249,0.312458,0.508702,-0.161527,54,268,577,4784
1644155714.168934,-0.01239,0.005432,-0.990845,0.068183,0.432366,-0.130992,51,271,576,4832
1644155714.217328,-0.011047,0.010315,-0.990417,0.205588,0.401832,-0.176794,47,273,575,4816
1644155714.265679,-0.013794,0.008301,-0.990662,0.342992,0.539237,-0.039389,47,268,579,4848
1644155714.313993,-0.012451,0.01001,-0.995972,0.220855,0.417099,0.067481,55,271,576,4848
1644155714.36239,-0.012451,0.009033,-0.992126,0.312458,0.447634,0.036947,54,280,570,4816
1644155714.41077,-0.01355,0.007263,-0.992065,0.404061,0.478168,-0.207328,58,281,566,4784
1644155714.45916,-0.012512,0.010437,-0.993286,0.373527,0.478168,0.006412,46,274,576,4816
1644155714.507529,-0.011353,0.009827,-0.993835,0.297191,0.371298,-0.085191,47,273,568,4848
1644155714.555951,-0.009583,0.007019,-0.991638,0.236122,0.493435,-0.176794,49,260,565,4784
1644155714.604337,-0.01355,0.010071,-0.993896,0.373527,0.279695,0.006412,51,274,580,4848
1644155714.652735,-0.011963,0.007507,-0.993835,0.297191,0.401832,-0.14626,53,269,573,4848
1644155714.701104,-0.011475,0.007385,-0.992798,0.205588,0.447634,-0.176794,55,266,571,4784
1644155714.749502,-0.014282,0.006104,-0.993958,0.297191,0.356031,-0.085191,46,257,580,4816
1644155714.797877,-0.013062,0.006592,-0.992676,0.236122,0.508702,0.006412,49,268,579,4816
1644155714.846268,-0.015503,0.007751,-0.993774,0.35826,0.371298,-0.283664,47,275,577,4848
1644155714.894659,-0.012268,0.006226,-0.990967,0.175053,0.417099,-0.085191,47,277,582,4720
1644155714.943062,-0.009399,0.009338,-0.992004,0.190321,0.386565,-0.268397,52,265,572,4784
1644155714.991422,-0.011108,0.007324,-0.993774,0.266656,0.325496,-0.115725,55,281,573,4848
1644155715.040357,-0.013977,0.01062,-0.993347,0.281924,0.508702,-0.14626,46,269,573,4816
1644155715.088822,-0.012817,0.010193,-0.992004,0.205588,0.356031,-0.085191,54,273,570,4848
1644155715.13858,-0.010925,0.005432,-0.992249,0.220855,0.523969,-0.25313,47,268,577,4784
1644155715.188907,-0.011902,0.01001,-0.990845,0.205588,0.340763,-0.054656,41,264,564,4816
1644155715.234456,-0.012695,0.008484,-0.992676,0.144519,0.508702,-0.085191,49,273,572,4784
1644155715.330153,-0.011536,0.008728,-0.993164,0.281924,0.447634,-0.069924,45,275,577,4896
1644155715.378556,-0.011902,0.007446,-0.98938,0.281924,0.279695,0.021679,42,277,577,4848
1644155715.426944,-0.010376,0.011414,-0.992432,0.236122,0.462901,-0.207328,58,269,571,4784
1644155715.475329,-0.011353,0.006836,-0.990112,0.342992,0.356031,-0.14626,43,274,578,4880
1644155715.523738,-0.007202,0.009216,-0.990723,0.266656,0.340763,-0.085191,49,263,575,4784
1644155715.572083,-0.010559,0.008362,-0.993164,0.281924,0.310229,-0.115725,45,277,568,4848
1644155715.620501,-0.010437,0.007507,-0.99292,0.342992,0.508702,-0.008855,45,275,565,4880
1644155715.668888,-0.014099,0.01062,-0.991882,0.35826,0.508702,-0.130992,59,268,572,4880
1644155715.717271,-0.011169,0.009766,-0.994202,0.251389,0.462901,-0.008855,65,274,569,4816
1644155715.765653,-0.012939,0.010437,-0.992126,0.220855,0.523969,-0.176794,52,275,565,4880
1644155715.814052,-0.01178,0.007629,-0.995483,0.266656,0.417099,-0.069924,54,270,572,4848
1644155715.862463,-0.011292,0.01239,-0.993408,0.236122,0.356031,-0.069924,53,266,571,4848
1644155715.910815,-0.012756,0.008057,-0.993713,0.312458,0.493435,-0.161527,53,279,583,4848
1644155715.959183,-0.012024,0.003601,-0.991638,0.342992,0.447634,0.082748,42,277,575,4832
1644155716.007564,-0.011475,0.007935,-0.990784,0.281924,0.356031,0.021679,55,266,569,4720
1644155716.066504,-0.01123,0.010376,-0.992493,0.113985,0.386565,-0.100458,47,280,572,4880
1644155716.104388,-0.01123,0.007202,-0.991699,0.281924,0.462901,-0.085191,51,271,573,4880
1644155716.152742,-0.009033,0.00592,-0.994019,0.312458,0.417099,-0.207328,51,271,564,4816
1644155716.201105,-0.012756,0.00946,-0.990479,0.236122,0.462901,-0.069924,52,270,591,4816
1644155716.249585,-0.013123,0.009521,-0.990417,0.251389,0.340763,0.006412,47,275,577,4880
1644155716.29966,-0.013184,0.008728,-0.994995,0.251389,0.493435,-0.192061,51,274,571,4752
1644155716.350094,-0.009644,0.010132,-0.993774,0.342992,0.371298,0.021679,46,274,578,4848
1644155716.395886,-0.011169,0.007019,-0.993774,0.190321,0.417099,-0.085191,42,265,579,4880
1644155716.491777,-0.013977,0.009277,-0.992249,0.144519,0.432366,-0.039389,45,273,558,4784
1644155716.539805,-0.014526,0.00824,-0.991516,0.281924,0.386565,-0.130992,48,269,569,4880
1644155716.588189,-0.015442,0.008728,-0.993408,0.251389,0.371298,-0.14626,57,273,570,4720
1644155716.636579,-0.012695,0.008728,-0.992493,0.205588,0.447634,-0.008855,43,271,571,4816
1644155716.685009,-0.009949,0.006287,-0.991577,0.190321,0.523969,-0.115725,43,286,562,4880
1644155716.733347,-0.013611,0.008972,-0.992676,0.297191,0.478168,-0.085191,46,266,573,4832
1644155716.781742,-0.010803,0.008606,-0.993591,0.144519,0.508702,-0.100458,52,287,568,4832
1644155716.830125,-0.013916,0.00647,-0.991577,0.312458,0.417099,-0.008855,51,269,578,4816
1644155716.878561,-0.013794,0.009155,-0.992004,0.266656,0.554504,-0.268397,51,264,580,4848
1644155716.926945,-0.011414,0.008423,-0.993896,0.297191,0.310229,-0.024122,48,279,569,4896
1644155716.975354,-0.012329,0.007874,-0.994507,0.205588,0.432366,-0.024122,55,271,562,4848
1644155717.023727,-0.012024,0.006836,-0.994141,0.068183,0.417099,-0.039389,47,268,568,4816
1644155717.078525,-0.014648,0.008362,-0.993408,0.190321,0.447634,0.036947,58,271,580,4784
1644155717.121886,-0.009399,0.007507,-0.994507,0.281924,0.478168,-0.069924,54,265,577,4832
1644155717.171813,-0.010986,0.008423,-0.994751,0.388794,0.417099,-0.054656,49,280,563,4848
1644155717.22121,-0.013306,0.00824,-0.995239,0.022382,0.523969,-0.069924,46,276,573,4816
1644155717.266809,-0.012512,0.00647,-0.992432,0.220855,0.478168,-0.130992,48,264,573,4848
1644155717.3624,-0.01178,0.007385,-0.994995,0.266656,0.279695,-0.237863,55,266,576,4848
1644155717.410764,-0.010315,0.011475,-0.991394,0.312458,0.462901,-0.14626,54,273,572,4832
1644155717.459135,-0.010803,0.006836,-0.993774,0.098718,0.432366,-0.176794,36,269,564,4784
1644155717.507524,-0.012146,0.005859,-0.993958,0.251389,0.478168,-0.085191,40,280,563,4848
1644155717.555929,-0.010864,0.009583,-0.993774,0.373527,0.401832,-0.130992,53,276,571,4848
1644155717.604324,-0.010071,0.007629,-0.993042,0.297191,0.478168,-0.069924,49,273,572,4784
1644155717.652691,-0.010864,0.010071,-0.990051,0.373527,0.493435,-0.130992,45,270,558,4848
1644155717.70108,-0.010559,0.007568,-0.992493,0.129252,0.462901,-0.14626,54,268,565,4816
1644155717.749451,-0.013611,0.008606,-0.994629,0.35826,0.478168,-0.25313,52,275,572,4816
1644155717.797868,-0.013733,0.005798,-0.992676,0.312458,0.523969,0.052214,48,281,573,4880
1644155717.84625,-0.01355,0.006958,-0.990295,0.297191,0.508702,-0.115725,42,270,565,4816
1644155717.894751,-0.009644,0.007874,-0.98938,0.297191,0.462901,-0.192061,54,270,561,4816
1644155717.943078,-0.00946,0.004944,-0.995483,0.205588,0.371298,-0.054656,58,271,580,4848
1644155717.991461,-0.009521,0.008423,-0.991211,0.190321,0.417099,0.098015,45,280,579,4832
1644155718.039845,-0.013184,0.01001,-0.991821,0.312458,0.478168,-0.176794,51,276,580,4848
1644155718.089503,-0.009338,0.007874,-0.994568,0.190321,0.386565,-0.085191,43,279,573,4944
1644155718.136614,-0.013062,0.010132,-0.991394,0.297191,0.478168,-0.161527,59,282,570,4832
1644155718.185044,-0.009521,0.013367,-0.991821,0.190321,0.401832,-0.054656,40,273,570,4848
1644155718.23338,-0.014343,0.007629,-0.989136,0.373527,0.417099,-0.069924,41,274,569,4816
1644155718.282342,-0.013611,0.009644,-0.98938,0.159786,0.386565,-0.085191,43,274,573,4832
1644155718.332563,-0.01239,0.007874,-0.990601,0.281924,0.310229,-0.100458,58,266,569,4848
1644155718.383132,-0.007874,0.008362,-0.991882,0.404061,0.386565,-0.130992,59,263,582,4848
1644155718.428287,-0.010925,0.008057,-0.990601,0.129252,0.508702,-0.024122,52,280,568,4848
1644155718.523715,-0.009644,0.008972,-0.991272,0.327725,0.356031,-0.115725,59,265,579,4784
1644155718.572439,-0.01062,0.008118,-0.992554,0.205588,0.447634,-0.085191,40,282,579,4832
1644155718.62048,-0.011475,0.010437,-0.997009,0.342992,0.600305,-0.100458,54,270,570,4880
1644155718.668862,-0.013184,0.009949,-0.990906,0.35826,0.447634,-0.069924,42,280,572,4848
1644155718.717232,-0.01355,0.004272,-0.993347,0.35826,0.356031,-0.039389,53,271,571,4720
1644155718.765627,-0.01593,0.006531,-0.99231,0.388794,0.554504,0.021679,57,270,575,4816
1644155718.814038,-0.011047,0.006897,-0.99292,0.220855,0.356031,-0.085191,46,266,571,4784
1644155718.862431,-0.010742,0.009705,-0.993469,0.159786,0.417099,-0.14626,54,268,570,4816
1644155718.910775,-0.014038,0.009644,-0.991028,0.144519,0.508702,-0.039389,53,286,571,4784
1644155718.959195,-0.014099,0.01178,-0.992554,0.434595,0.417099,-0.054656,47,263,575,4832
1644155719.00758,-0.01178,0.009888,-0.995056,0.220855,0.386565,-0.161527,48,274,573,4784
1644155719.064183,-0.010864,0.008118,-0.992126,0.220855,0.478168,-0.130992,49,280,565,4848
1644155719.104334,-0.007874,0.007568,-0.991333,0.281924,0.386565,-0.192061,47,270,565,4880
1644155719.152686,-0.011169,0.010986,-0.992859,0.113985,0.386565,-0.100458,58,276,578,4816
1644155719.201049,-0.012268,0.006714,-0.992371,0.297191,0.325496,-0.115725,41,274,569,4816
1644155719.249471,-0.011536,0.009766,-0.990662,0.297191,0.417099,-0.100458,43,279,578,4816
1644155719.297854,-0.012207,0.011536,-0.99292,0.266656,0.539237,-0.222595,48,269,580,4880
1644155719.346241,-0.013245,0.00769,-0.990845,0.220855,0.401832,-0.192061,49,275,572,4816
1644155719.394639,-0.011169,0.007935,-0.990601,0.342992,0.523969,-0.054656,60,269,559,4784
1644155719.443266,-0.011841,0.00769,-0.992249,0.327725,0.646107,-0.14626,49,275,561,4848
1644155719.494002,-0.012756,0.008423,-0.991943,0.236122,0.462901,-0.176794,46,281,571,4784
1644155719.543815,-0.012329,0.009583,-0.987915,0.08345,0.356031,-0.192061,40,282,577,4784
1644155719.589364,-0.012451,0.010559,-0.992981,0.251389,0.24916,-0.024122,40,280,577,4832
1644155719.685209,-0.012878,0.009399,-0.98999,0.342992,0.478168,-0.237863,43,269,571,4848
1644155719.733352,-0.012207,0.008545,-0.990479,0.297191,0.340763,0.021679,43,269,573,4848
1644155719.781725,-0.011108,0.007385,-0.99353,0.220855,0.478168,-0.085191,53,281,569,4784
1644155719.830149,-0.010376,0.007874,-0.991516,0.297191,0.432366,-0.100458,49,277,579,4848
1644155719.878546,-0.012939,0.010681,-0.992615,0.327725,0.371298,0.12855,51,286,578,4848
1644155719.926925,-0.01062,0.00885,-0.99353,0.281924,0.340763,-0.085191,45,270,572,4752
1644155719.975304,-0.013,0.007263,-0.992798,0.266656,0.401832,-0.069924,52,275,575,4848
1644155720.023707,-0.011169,0.00769,-0.993774,0.35826,0.493435,-0.069924,43,271,569,4816
1644155720.0723,-0.012817,0.010925,-0.993469,0.052916,0.401832,0.006412,51,269,576,4848
1644155720.120428,-0.012878,0.009949,-0.991333,0.220855,0.569771,-0.008855,42,275,568,4848
1644155720.168791,-0.008057,0.008972,-0.991943,0.220855,0.417099,-0.085191,48,271,571,4848
1644155720.217209,-0.014709,0.008911,-0.993103,0.144519,0.508702,-0.085191,52,282,582,4816
1644155720.265566,-0.01001,0.011658,-0.992065,0.220855,0.462901,-0.100458,57,280,572,4816
1644155720.313967,-0.013367,0.008362,-0.990906,0.297191,0.417099,0.006412,46,281,573,4784
1644155720.362385,-0.014832,0.008057,-0.991516,0.297191,0.447634,-0.14626,57,275,575,4816
1644155720.410731,-0.011658,0.008545,-0.992493,0.266656,0.554504,0.082748,51,269,573,4784
1644155720.459133,-0.00946,0.009094,-0.988708,0.068183,0.63084,-0.024122,52,275,568,4880
1644155720.507533,-0.010376,0.009338,-0.993469,0.251389,0.386565,-0.207328,43,269,569,4784
1644155720.556227,-0.008789,0.008972,-0.992493,0.342992,0.493435,-0.054656,53,276,576,4832
1644155720.605326,-0.012268,0.009644,-0.992249,0.144519,0.478168,-0.085191,52,282,565,4848
1644155720.655334,-0.010803,0.009827,-0.991699,0.098718,0.508702,0.067481,41,269,583,4816
1644155720.705668,-0.012085,0.013,-0.99115,0.297191,0.478168,-0.069924,47,273,579,4832
1644155720.797839,-0.014282,0.009644,-0.990295,0.297191,0.417099,-0.14626,54,277,565,4784
1644155720.84625,-0.015503,0.009277,-0.992615,0.098718,0.447634,-0.130992,54,268,570,4832
1644155720.894896,-0.01239,0.006836,-0.98999,0.312458,0.432366,-0.237863,48,264,566,4816
1644155720.943066,-0.01239,0.009399,-0.993896,0.312458,0.432366,-0.054656,55,269,576,4848
1644155720.991454,-0.014099,0.008423,-0.993286,0.297191,0.401832,-0.130992,51,276,573,4848
1644155721.039818,-0.010437,0.007812,-0.991211,0.404061,0.401832,-0.054656,53,276,559,4848
1644155721.091538,-0.011963,0.009338,-0.993347,0.327725,0.417099,-0.069924,51,271,583,4848
1644155721.13655,-0.010376,0.008179,-0.990234,0.205588,0.447634,-0.115725,53,276,578,4832
1644155721.18512,-0.013062,0.008057,-0.993896,0.297191,0.401832,-0.130992,48,274,571,4752
1644155721.233316,-0.012695,0.009277,-0.99292,0.251389,0.447634,-0.115725,53,269,571,4880
1644155721.281682,-0.012451,0.009277,-0.990906,0.281924,0.356031,-0.100458,49,273,577,4752
1644155721.330111,-0.009521,0.010803,-0.993286,0.35826,0.432366,-0.085191,58,264,573,4880
1644155721.378495,-0.009766,0.010132,-0.992371,0.236122,0.523969,-0.25313,51,269,573,4784
1644155721.426874,-0.01178,0.008057,-0.992004,0.266656,0.615573,-0.085191,49,273,579,4832
1644155721.475268,-0.013062,0.009705,-0.991455,0.419328,0.432366,0.006412,55,271,571,4816
1644155721.523681,-0.01062,0.008606,-0.990295,0.113985,0.539237,0.006412,43,274,571,4720
1644155721.573007,-0.01062,0.010559,-0.994019,0.312458,0.310229,-0.008855,54,263,577,4784
1644155721.623195,-0.01178,0.009033,-0.995422,0.327725,0.371298,-0.100458,51,281,576,4752
1644155721.67327,-0.011902,0.006897,-0.990479,0.190321,0.340763,-0.115725,45,282,577,4816
1644155721.765612,-0.012146,0.009155,-0.993225,0.144519,0.478168,-0.207328,55,266,578,4848
1644155721.813998,-0.012085,0.008301,-0.991455,0.159786,0.508702,-0.069924,51,274,566,4816
1644155721.862431,-0.009644,0.012695,-0.991943,0.251389,0.432366,-0.115725,51,274,559,4816
1644155721.910784,-0.014221,0.008545,-0.992249,0.281924,0.386565,-0.207328,55,271,573,4880
1644155721.959173,-0.011475,0.011047,-0.993591,0.342992,0.539237,-0.069924,51,276,566,4784
1644155722.007548,-0.013489,0.008484,-0.990173,0.266656,0.325496,-0.115725,52,270,565,4848
1644155722.064755,-0.013184,0.008728,-0.993591,0.190321,0.462901,-0.100458,48,271,569,4848
1644155722.104358,-0.010803,0.008484,-0.989319,0.159786,0.523969,-0.100458,46,276,585,4784
1644155722.152691,-0.013428,0.006592,-0.991211,0.266656,0.447634,-0.268397,51,269,576,4816
1644155722.201049,-0.012085,0.008118,-0.988586,0.342992,0.432366,0.067481,48,281,576,4848
1644155722.249437,-0.013306,0.00946,-0.991882,0.297191,0.432366,-0.039389,49,275,577,4816
1644155722.29785,-0.013123,0.009521,-0.993408,0.297191,0.386565,-0.008855,52,270,577,4816
1644155722.346231,-0.010742,0.009827,-0.992676,0.281924,0.493435,-0.085191,45,285,577,4832
1644155722.394712,-0.012085,0.010254,-0.992981,0.098718,0.340763,-0.085191,54,275,582,4848
1644155722.443012,-0.01178,0.01001,-0.992981,0.327725,0.417099,0.036947,47,282,582,4880
1644155722.491746,-0.008606,0.007324,-0.990967,0.205588,0.523969,0.052214,53,281,573,4896
1644155722.539774,-0.008911,0.011536,-0.991272,0.190321,0.478168,-0.008855,49,282,579,4832
1644155722.588159,-0.01123,0.009033,-0.992249,0.281924,0.539237,-0.192061,47,268,570,4832
1644155722.636551,-0.013367,0.009399,-0.993896,0.297191,0.462901,0.036947,52,280,572,4880
1644155722.685012,-0.008789,0.010559,-0.993286,0.281924,0.462901,-0.25313,51,276,566,4816
1644155722.734927,-0.014587,0.009094,-0.991638,0.297191,0.386565,-0.024122,57,270,572,4848
1644155722.7851,-0.01178,0.008423,-0.993835,0.404061,0.447634,-0.115725,48,264,571,4832
1644155722.830439,-0.013062,0.007812,-0.995789,0.220855,0.356031,-0.237863,45,265,577,4832
1644155722.926893,-0.011108,0.008667,-0.989563,0.251389,0.417099,-0.222595,41,276,569,4784
1644155722.975472,-0.011475,0.010498,-0.990662,0.312458,0.478168,-0.176794,46,279,576,4784
1644155723.02369,-0.012146,0.005981,-0.991943,0.281924,0.401832,-0.130992,41,276,578,4816
1644155723.073135,-0.011414,0.004822,-0.992432,0.327725,0.294962,-0.268397,53,281,566,4832
1644155723.120421,-0.009766,0.00769,-0.990173,0.205588,0.462901,-0.14626,57,268,579,4848
1644155723.16881,-0.013428,0.010071,-0.991028,0.327725,0.523969,-0.085191,49,280,575,4848
1644155723.217176,-0.011475,0.007202,-0.991638,0.113985,0.356031,-0.207328,48,269,576,4816
1644155723.265585,-0.01178,0.007446,-0.992188,0.266656,0.356031,-0.085191,43,279,571,4848
1644155723.313976,-0.015869,0.00708,-0.996216,0.35826,0.310229,-0.161527,58,276,578,4816
1644155723.362339,-0.015747,0.009155,-0.991577,0.312458,0.462901,-0.008855,54,265,570,4928
1644155723.410749,-0.010864,0.005981,-0.992615,0.159786,0.386565,-0.115725,51,283,583,4832
1644155723.459127,-0.010071,0.009521,-0.993896,0.129252,0.554504,-0.054656,53,283,578,4720
1644155723.507496,-0.01062,0.010071,-0.991516,0.266656,0.371298,0.006412,53,279,569,4816
1644155723.555895,-0.011047,0.007629,-0.995361,0.190321,0.615573,-0.192061,53,269,580,4720
1644155723.604298,-0.014038,0.006531,-0.991577,0.236122,0.340763,0.006412,48,269,583,4848
1644155723.65269,-0.00946,0.008972,-0.991089,0.159786,0.401832,-0.024122,53,264,578,4880
1644155723.70106,-0.014099,0.006531,-0.990723,0.266656,0.310229,-0.115725,57,273,572,4848
1644155723.749439,-0.010681,0.007019,-0.995605,0.373527,0.417099,-0.069924,43,266,573,4720
1644155723.798206,-0.009766,0.008667,-0.993164,0.312458,0.569771,-0.130992,47,273,579,4880
1644155723.848848,-0.012573,0.00592,-0.991943,0.251389,0.340763,-0.14626,46,269,576,4848
1644155723.900741,-0.01239,0.010986,-0.990356,0.251389,0.417099,0.036947,48,271,578,4848
1644155723.99144,-0.011536,0.010559,-0.993835,0.236122,0.417099,-0.161527,45,273,570,4848
1644155724.039797,-0.009338,0.006592,-0.99176,0.449863,0.462901,0.12855,45,275,572,4848
1644155724.088227,-0.011902,0.00592,-0.99176,0.236122,0.478168,-0.161527,49,268,582,4880
1644155724.136568,-0.014099,0.007751,-0.994324,0.236122,0.508702,-0.237863,43,269,566,4784
1644155724.18496,-0.013062,0.009949,-0.991028,0.388794,0.386565,-0.069924,47,268,572,4848
1644155724.233319,-0.011902,0.010803,-0.991638,0.480397,0.447634,-0.100458,57,277,565,4816
1644155724.281703,-0.012573,0.008972,-0.992798,0.266656,0.386565,-0.085191,48,271,576,4880
1644155724.330096,-0.010132,0.011169,-0.994263,0.342992,0.386565,0.082748,47,268,582,4848
1644155724.378469,-0.01001,0.009094,-0.993408,0.251389,0.508702,-0.115725,52,277,570,4832
1644155724.426867,-0.010803,0.006775,-0.992432,0.251389,0.508702,-0.069924,46,279,571,4848
1644155724.475291,-0.010193,0.00824,-0.991943,0.312458,0.417099,0.036947,57,268,582,4816
1644155724.523648,-0.012695,0.009216,-0.990417,0.373527,0.447634,-0.008855,45,280,577,4848
1644155724.572012,-0.010925,0.010193,-0.992676,0.190321,0.310229,0.052214,55,276,569,4784
1644155724.620418,-0.011841,0.009399,-0.989502,0.266656,0.432366,-0.176794,49,268,575,4784
1644155724.66879,-0.01062,0.008118,-0.994263,0.327725,0.462901,-0.115725,51,266,576,4832
1644155724.717182,-0.008972,0.01123,-0.991943,0.419328,0.539237,-0.008855,47,277,577,4784
1644155724.765571,-0.011597,0.006958,-0.992554,0.175053,0.462901,-0.115725,54,270,577,4816
1644155724.814237,-0.015381,0.007446,-0.99353,0.220855,0.401832,-0.069924,49,270,570,4848
1644155724.864429,-0.010437,0.006165,-0.989746,0.190321,0.462901,-0.085191,40,270,568,4768
1644155724.914279,-0.015442,0.009583,-0.992737,0.190321,0.417099,0.006412,57,275,575,4832
1644155724.95916,-0.010681,0.009827,-0.992981,0.251389,0.401832,-0.115725,48,271,573,4848
1644155725.064751,-0.010132,0.011292,-0.992004,0.251389,0.340763,-0.024122,45,277,586,4816
1644155725.104333,-0.011841,0.007507,-0.993103,0.159786,0.539237,0.067481,52,277,572,4848
1644155725.152725,-0.012512,0.009949,-0.991882,0.175053,0.478168,-0.008855,49,268,572,4848
1644155725.20109,-0.013794,0.010132,-0.993225,0.159786,0.523969,-0.054656,48,271,576,4848
1644155725.249454,-0.01001,0.007751,-0.991882,0.251389,0.432366,-0.130992,47,287,577,4816
1644155725.297841,-0.012024,0.006287,-0.992065,0.281924,0.493435,-0.192061,49,270,572,4848
1644155725.346232,-0.013794,0.007568,-0.993042,0.236122,0.417099,-0.115725,51,271,571,4848
1644155725.394743,-0.011841,0.008911,-0.990051,0.251389,0.417099,-0.100458,51,269,578,4880
1644155725.443008,-0.013611,0.008423,-0.992249,0.297191,0.508702,-0.176794,41,276,571,4784
1644155725.491828,-0.009583,0.008545,-0.99585,0.297191,0.508702,-0.207328,46,271,564,4752
1644155725.539795,-0.012451,0.006409,-0.995056,0.373527,0.432366,-0.008855,45,265,570,4816
1644155725.588184,-0.012817,0.009827,-0.992493,0.373527,0.554504,-0.130992,43,281,569,4816
1644155725.636565,-0.008728,0.009277,-0.99231,0.236122,0.661374,0.006412,54,275,568,4816
1644155725.685327,-0.013672,0.006226,-0.991516,0.388794,0.569771,-0.039389,49,290,579,4816
1644155725.733512,-0.012939,0.008789,-0.992981,0.281924,0.401832,-0.130992,59,275,584,4832
1644155725.783925,-0.012329,0.007324,-0.992615,0.205588,0.462901,-0.314198,46,271,583,4896
1644155725.834595,-0.01355,0.010681,-0.992676,0.220855,0.523969,-0.130992,43,274,576,4816
1644155725.879134,-0.015564,0.005981,-0.992493,0.327725,0.371298,0.052214,57,273,570,4816
1644155725.975459,-0.012451,0.007874,-0.994385,0.251389,0.401832,0.021679,47,275,575,4816
1644155726.023671,-0.011902,0.007202,-0.991455,0.144519,0.493435,-0.176794,48,274,573,4816
1644155726.076587,-0.014526,0.007629,-0.992615,0.281924,0.386565,0.052214,52,273,570,4848
1644155726.120425,-0.011414,0.010132,-0.99408,0.35826,0.401832,-0.161527,55,274,569,4832
1644155726.168785,-0.012573,0.006653,-0.994812,0.312458,0.447634,0.021679,59,277,572,4784
1644155726.21717,-0.013733,0.007446,-0.992493,0.236122,0.478168,-0.039389,49,277,575,4880
1644155726.265536,-0.011841,0.007996,-0.993469,0.342992,0.417099,-0.054656,62,269,576,4848
1644155726.313951,-0.007507,0.008484,-0.992859,0.266656,0.462901,0.021679,57,270,570,4832
1644155726.362358,-0.01062,0.009033,-0.994019,0.510931,0.417099,-0.115725,54,277,572,4896
1644155726.410731,-0.012268,0.008484,-0.991394,0.251389,0.523969,0.006412,55,269,571,4848
1644155726.459103,-0.012634,0.009644,-0.990051,0.251389,0.417099,-0.130992,58,271,585,4720
1644155726.507486,-0.009644,0.010742,-0.990845,0.297191,0.523969,-0.024122,57,270,572,4752
1644155726.555885,-0.01355,0.009094,-0.994751,0.159786,0.417099,-0.039389,42,275,565,4816
1644155726.604278,-0.010254,0.009766,-0.994324,0.373527,0.386565,-0.100458,61,282,577,4848
1644155726.65267,-0.011719,0.008423,-0.992371,0.312458,0.661374,-0.115725,46,271,573,4816
1644155726.701041,-0.011414,0.011169,-0.992188,0.190321,0.401832,-0.069924,47,280,577,4880
1644155726.749408,-0.012878,0.007874,-0.992371,0.251389,0.508702,-0.069924,57,277,565,4720
1644155726.797865,-0.013062,0.010742,-0.993164,0.175053,0.432366,-0.054656,46,269,571,4832
1644155726.846258,-0.009583,0.010315,-0.992615,0.159786,0.462901,0.052214,53,271,578,4784
1644155726.896416,-0.01123,0.007874,-0.992371,0.297191,0.478168,-0.085191,59,273,582,4816
1644155726.946085,-0.008911,0.007263,-0.992004,0.312458,0.417099,-0.024122,51,274,576,4784
1644155726.996294,-0.012817,0.009827,-0.993042,0.404061,0.523969,-0.054656,49,275,579,4784
1644155727.090181,-0.014893,0.006653,-0.99231,0.08345,0.432366,-0.237863,53,276,569,4848
1644155727.136504,-0.013489,0.010132,-0.991821,0.220855,0.523969,-0.054656,52,265,572,4880
1644155727.184909,-0.009277,0.008118,-0.994568,0.46513,0.508702,-0.192061,57,277,570,4848
1644155727.233315,-0.008728,0.009277,-0.990479,0.129252,0.462901,0.067481,58,274,573,4752
1644155727.281685,-0.010132,0.00824,-0.991638,0.251389,0.386565,0.036947,41,269,578,4832
1644155727.330071,-0.011169,0.007202,-0.992432,0.281924,0.493435,-0.039389,43,266,571,4816
1644155727.378464,-0.011841,0.00946,-0.991699,0.236122,0.356031,-0.054656,51,276,569,4816
1644155727.426851,-0.011353,0.006531,-0.993713,0.327725,0.417099,-0.161527,49,277,572,4880
1644155727.475293,-0.010681,0.009583,-0.988342,0.236122,0.462901,-0.008855,53,266,569,4848
1644155727.523609,-0.012268,0.009827,-0.987915,0.205588,0.462901,-0.130992,51,274,578,4816
1644155727.572011,-0.012451,0.006897,-0.993408,0.342992,0.371298,-0.069924,49,280,575,4848
1644155727.620396,-0.012024,0.005249,-0.993835,0.297191,0.432366,-0.008855,53,279,569,4880
1644155727.66878,-0.014343,0.009644,-0.994934,0.190321,0.447634,-0.222595,45,282,570,4848
1644155727.717163,-0.010986,0.011108,-0.991333,0.159786,0.478168,-0.100458,53,276,580,4816
1644155727.765562,-0.01178,0.009766,-0.992676,0.205588,0.554504,0.036947,48,266,573,4784
1644155727.813962,-0.010925,0.007568,-0.990112,0.327725,0.356031,-0.207328,54,277,579,4816
1644155727.862389,-0.010803,0.00647,-0.991699,0.144519,0.356031,-0.085191,51,276,571,4880
1644155727.910771,-0.010071,0.007202,-0.989807,0.251389,0.478168,0.021679,52,273,579,4784
1644155727.959549,-0.009155,0.009766,-0.991333,0.098718,0.386565,-0.25313,51,274,569,4752
1644155728.064479,-0.014343,0.008484,-0.991455,0.236122,0.386565,-0.222595,48,271,576,4816
1644155728.104349,-0.013916,0.007385,-0.991821,0.342992,0.493435,-0.130992,40,273,572,4848
1644155728.152644,-0.012756,0.008728,-0.994263,0.342992,0.493435,-0.176794,49,270,570,4816
1644155728.201039,-0.014709,0.007507,-0.992188,0.297191,0.340763,-0.176794,52,270,563,4672
1644155728.249404,-0.013611,0.008545,-0.990662,0.220855,0.478168,-0.069924,51,279,585,4880
1644155728.297794,-0.012329,0.007996,-0.992126,0.236122,0.508702,-0.024122,49,270,579,4880
1644155728.346202,-0.010376,0.00885,-0.992126,0.35826,0.447634,-0.039389,59,277,579,4784
1644155728.394692,-0.012024,0.010376,-0.995605,0.312458,0.432366,-0.039389,53,269,580,4848
1644155728.442961,-0.012451,0.007935,-0.991516,0.281924,0.356031,0.052214,53,279,580,4784
1644155728.491732,-0.011292,0.007751,-0.992554,0.342992,0.585038,-0.115725,62,283,564,4816
1644155728.539738,-0.018616,0.007812,-0.991516,0.281924,0.478168,0.006412,40,268,584,4816
1644155728.588129,-0.009827,0.008911,-0.992188,0.251389,0.417099,-0.039389,51,276,573,4816
1644155728.63652,-0.010742,0.009583,-0.992126,0.327725,0.325496,-0.268397,45,270,570,4816
1644155728.684896,-0.011841,0.009216,-0.991577,0.327725,0.310229,-0.054656,46,274,576,4752
1644155728.733286,-0.012268,0.012268,-0.992371,0.266656,0.401832,0.067481,46,271,569,4784
1644155728.781807,-0.010315,0.008545,-0.993347,0.281924,0.356031,-0.008855,49,277,568,4848
1644155728.833441,-0.010559,0.010498,-0.992249,0.312458,0.569771,-0.130992,49,268,565,4784
1644155728.883252,-0.012024,0.010071,-0.992798,0.266656,0.386565,-0.161527,52,270,579,4880
1644155728.928874,-0.011047,0.006531,-0.992432,0.113985,0.401832,-0.008855,53,266,571,4848
1644155729.023652,-0.01123,0.009521,-0.992676,0.266656,0.600305,-0.039389,52,270,570,4832
1644155729.072224,-0.013977,0.009033,-0.992676,0.373527,0.401832,-0.14626,45,270,577,4816
1644155729.120417,-0.011108,0.007874,-0.991882,0.281924,0.508702,0.052214,57,277,572,4672
1644155729.168778,-0.011292,0.007568,-0.992065,0.35826,0.478168,-0.085191,42,277,575,4816
1644155729.217148,-0.012939,0.008667,-0.993713,0.434595,0.371298,0.052214,53,279,566,4720
1644155729.265544,-0.010437,0.008972,-0.992798,0.312458,0.386565,-0.115725,46,276,576,4816
1644155729.313944,-0.011902,0.008667,-0.992676,0.052916,0.569771,-0.14626,58,271,566,4816
1644155729.362341,-0.012878,0.006714,-0.995728,0.205588,0.508702,-0.268397,51,274,576,4752
1644155729.410683,-0.016296,0.009155,-0.992615,0.205588,0.462901,-0.14626,46,276,580,4720
1644155729.459093,-0.011414,0.00885,-0.991272,0.281924,0.462901,-0.054656,57,275,575,4816
1644155729.507485,-0.012024,0.008423,-0.992126,0.08345,0.523969,-0.192061,45,270,570,4784
1644155729.555872,-0.014099,0.00885,-0.994568,0.190321,0.371298,0.006412,47,268,579,4672
1644155729.604238,-0.01239,0.008179,-0.991272,0.159786,0.386565,-0.100458,52,275,563,4784
1644155729.652666,-0.012695,0.007996,-0.994202,0.35826,0.401832,-0.130992,48,271,571,4784
1644155729.701032,-0.013,0.009949,-0.99115,0.342992,0.462901,-0.161527,55,276,573,4816
1644155729.749426,-0.011597,0.007812,-0.992493,0.251389,0.493435,-0.069924,61,275,575,4880
1644155729.797807,-0.013184,0.010681,-0.992981,0.175053,0.523969,-0.069924,48,266,580,4832
1644155729.846205,-0.01178,0.008667,-0.992126,0.312458,0.585038,0.036947,45,270,572,4720
1644155729.894703,-0.011902,0.008423,-0.989929,0.297191,0.539237,-0.069924,47,275,570,4896
1644155729.944152,-0.010559,0.008362,-0.992371,0.312458,0.523969,0.006412,53,274,571,4816
1644155729.994261,-0.01239,0.006409,-0.991943,0.388794,0.462901,-0.039389,51,274,573,4848
1644155730.057273,-0.015625,0.009521,-0.992798,0.159786,0.447634,-0.008855,52,285,565,4784
1644155730.090633,-0.009216,0.007751,-0.995056,0.159786,0.508702,0.052214,49,273,579,4848
1644155730.184908,-0.010925,0.008484,-0.99176,0.190321,0.24916,-0.130992,47,270,575,4784
1644155730.233298,-0.010132,0.009888,-0.994263,0.251389,0.432366,0.006412,54,273,577,4784
1644155730.281646,-0.013123,0.005981,-0.992615,0.220855,0.447634,-0.024122,54,270,565,4880
1644155730.330044,-0.011414,0.008728,-0.993164,0.312458,0.356031,-0.054656,59,270,575,4720
1644155730.378429,-0.012207,0.009583,-0.992126,0.327725,0.462901,-0.085191,46,269,580,4816
1644155730.426824,-0.014099,0.010254,-0.989746,0.175053,0.371298,-0.039389,46,279,573,4832
1644155730.475233,-0.011292,0.006042,-0.992981,0.144519,0.371298,-0.192061,48,262,578,4832
1644155730.523609,-0.010986,0.008728,-0.994629,0.281924,0.371298,-0.085191,51,276,569,4848
1644155730.571998,-0.011414,0.007874,-0.99292,0.129252,0.294962,0.036947,49,275,570,4848
1644155730.620381,-0.013977,0.010132,-0.991638,0.144519,0.401832,-0.024122,52,268,582,4832
1644155730.668745,-0.01178,0.006409,-0.992493,0.159786,0.478168,-0.085191,55,283,571,4832
1644155730.717163,-0.008179,0.008606,-0.991211,0.281924,0.432366,-0.054656,53,276,571,4848
1644155730.765544,-0.011902,0.010071,-0.991882,0.098718,0.386565,-0.008855,51,269,569,4752
1644155730.813931,-0.009888,0.012207,-0.992859,0.281924,0.340763,-0.024122,47,273,565,4704
1644155730.862369,-0.009705,0.00769,-0.991882,0.251389,0.523969,-0.085191,48,266,573,4784
1644155730.910733,-0.013123,0.007996,-0.992188,0.08345,0.417099,-0.054656,51,286,564,4784
1644155730.959119,-0.012451,0.009094,-0.993896,0.281924,0.356031,-0.069924,53,274,573,4832
1644155731.062779,-0.012451,0.006104,-0.993164,0.220855,0.279695,0.036947,58,276,578,4896
1644155731.104274,-0.010559,0.008179,-0.994934,0.480397,0.508702,-0.14626,60,281,573,4816
1644155731.152665,-0.012695,0.008118,-0.99054,0.205588,0.417099,-0.054656,58,274,573,4880
1644155731.201027,-0.01355,0.009399,-0.990662,0.236122,0.447634,-0.130992,51,271,573,4816
1644155731.249389,-0.012634,0.00769,-0.992798,0.220855,0.478168,-0.054656,52,277,582,4880
1644155731.29777,-0.013,0.010742,-0.993408,0.312458,0.462901,0.067481,40,280,563,4848
1644155731.346181,-0.014893,0.013489,-0.992493,0.159786,0.508702,0.067481,47,268,570,4784
1644155731.394636,-0.012146,0.009949,-0.991333,0.266656,0.432366,-0.14626,46,274,566,4816
1644155731.442944,-0.012146,0.01062,-0.992737,0.266656,0.356031,-0.024122,53,274,569,4848
1644155731.491731,-0.013245,0.008728,-0.990784,0.205588,0.646107,-0.085191,48,271,576,4784
1644155731.539728,-0.011597,0.010559,-0.991394,0.236122,0.447634,-0.344733,51,269,578,4848
1644155731.588116,-0.010254,0.008972,-0.993896,0.388794,0.508702,-0.024122,51,276,571,4832
1644155731.636502,-0.012878,0.010864,-0.994019,0.297191,0.539237,-0.130992,47,270,575,4944
1644155731.684878,-0.014465,0.00885,-0.992859,0.495664,0.523969,-0.100458,54,270,572,4816
1644155731.733329,-0.010742,0.010071,-0.993958,0.236122,0.401832,-0.054656,46,266,566,4880
1644155731.781668,-0.012878,0.011353,-0.989563,0.404061,0.585038,0.021679,48,283,569,4720
1644155731.830611,-0.012878,0.00824,-0.994446,0.327725,0.386565,-0.039389,54,270,575,4720
1644155731.882552,-0.011292,0.009155,-0.991211,0.373527,0.478168,-0.283664,48,276,571,4896
1644155731.927244,-0.01123,0.007019,-0.994629,0.388794,0.523969,-0.222595,43,274,580,4880
1644155732.023652,-0.013123,0.010681,-0.994202,0.266656,0.401832,-0.14626,47,275,565,4816
1644155732.0722,-0.009766,0.00885,-0.992188,0.342992,0.401832,-0.115725,58,279,578,4784
1644155732.120404,-0.010742,0.008911,-0.993896,0.266656,0.310229,0.021679,54,280,565,4848
1644155732.168762,-0.01062,0.007263,-0.990356,0.281924,0.417099,-0.039389,55,274,573,4896
1644155732.21714,-0.013916,0.010132,-0.990784,0.297191,0.356031,-0.008855,53,274,569,4848
1644155732.265527,-0.013489,0.00824,-0.991089,0.388794,0.493435,-0.237863,57,265,565,4816
1644155732.313921,-0.012268,0.010254,-0.993225,0.266656,0.417099,-0.069924,45,273,570,4928
1644155732.362331,-0.011169,0.003296,-0.992432,0.342992,0.523969,-0.237863,39,281,566,4848
1644155732.410693,-0.015564,0.00769,-0.994385,0.205588,0.493435,0.082748,51,276,571,4848
1644155732.459082,-0.010864,0.00708,-0.994568,0.373527,0.356031,-0.161527,51,281,576,4848
1644155732.507447,-0.012024,0.009338,-0.99292,0.190321,0.310229,-0.008855,57,275,575,4880
1644155732.555825,-0.01355,0.009521,-0.993164,0.281924,0.386565,-0.100458,47,270,570,4816
1644155732.604254,-0.014648,0.007446,-0.990479,0.159786,0.478168,-0.161527,53,269,566,4848
1644155732.652639,-0.013733,0.007141,-0.991943,0.297191,0.508702,-0.069924,51,281,564,4816
1644155732.701016,-0.011108,0.00885,-0.993896,0.266656,0.447634,-0.176794,51,274,573,4848
1644155732.749394,-0.013977,0.00769,-0.995544,0.373527,0.478168,-0.100458,52,273,575,4848
1644155732.797827,-0.009216,0.010437,-0.991455,0.205588,0.539237,-0.008855,48,276,583,4816
1644155732.846219,-0.014343,0.008423,-0.992737,0.281924,0.264427,-0.039389,51,271,571,4832
1644155732.894676,-0.010925,0.007996,-0.99408,0.312458,0.478168,-0.024122,51,264,571,4784
1644155732.943539,-0.013,0.010864,-0.993591,0.266656,0.356031,-0.14626,48,266,583,4816
1644155732.994044,-0.010071,0.007568,-0.991577,0.098718,0.508702,-0.008855,48,271,571,4880
1644155733.057463,-0.012878,0.010254,-0.991943,0.205588,0.294962,0.036947,48,279,571,4832
1644155733.136502,-0.013184,0.005005,-0.993225,0.266656,0.447634,-0.069924,48,271,571,4880
1644155733.184889,-0.013306,0.00824,-0.992493,0.205588,0.539237,0.052214,47,265,575,4848
1644155733.233264,-0.012695,0.007019,-0.992737,0.175053,0.508702,-0.024122,45,275,577,4848
1644155733.281636,-0.011963,0.005737,-0.993469,0.220855,0.264427,-0.176794,43,274,566,4816
1644155733.330029,-0.009705,0.008057,-0.99176,0.297191,0.325496,-0.054656,46,269,576,4752
1644155733.378431,-0.012451,0.009094,-0.991516,0.297191,0.340763,-0.085191,57,277,575,4848
1644155733.426798,-0.011475,0.011719,-0.994812,0.220855,0.432366,0.021679,48,274,578,4816
1644155733.475204,-0.011475,0.009583,-0.993286,0.098718,0.478168,-0.14626,48,271,576,4880
1644155733.523593,-0.009155,0.008972,-0.993896,0.419328,0.401832,-0.039389,53,269,564,4784
1644155733.571993,-0.010986,0.007568,-0.992554,0.220855,0.417099,-0.008855,48,279,576,4784
1644155733.620359,-0.011047,0.01001,-0.993103,0.052916,0.585038,0.006412,49,275,565,4848
1644155733.668765,-0.011353,0.010437,-0.99176,0.297191,0.493435,-0.192061,52,268,582,4832
1644155733.717133,-0.011902,0.009705,-0.991638,0.205588,0.462901,-0.039389,51,271,571,4784
1644155733.76551,-0.014221,0.009949,-0.993652,0.236122,0.340763,-0.039389,40,273,572,4880
1644155733.813922,-0.01001,0.008545,-0.990967,0.297191,0.447634,-0.268397,52,277,582,4720
1644155733.862353,-0.009949,0.010803,-0.99353,0.236122,0.340763,0.006412,49,270,575,4848
1644155733.910723,-0.009827,0.00885,-0.990662,0.159786,0.447634,-0.069924,51,269,578,4784
1644155733.959116,-0.012695,0.009399,-0.993103,0.251389,0.508702,-0.008855,52,273,575,4832
1644155734.064525,-0.01239,0.008301,-0.993652,0.342992,0.462901,-0.176794,46,276,578,4848
1644155734.104239,-0.010559,0.007202,-0.991638,0.327725,0.508702,-0.039389,47,270,575,4816
1644155734.152632,-0.014099,0.007629,-0.996399,0.098718,0.447634,-0.115725,49,265,570,4832
1644155734.201003,-0.014771,0.006104,-0.993713,0.08345,0.401832,-0.085191,52,275,575,4848
1644155734.249353,-0.014709,0.00647,-0.991333,0.037649,0.356031,-0.192061,42,268,565,4848
1644155734.297789,-0.011841,0.008179,-0.992493,0.190321,0.386565,-0.115725,49,285,572,4784
1644155734.346167,-0.011597,0.007324,-0.992615,0.297191,0.462901,0.082748,51,262,573,4720
1644155734.394672,-0.013916,0.007141,-0.996887,0.251389,0.447634,-0.115725,45,275,575,4784
1644155734.442944,-0.011841,0.004944,-0.991821,0.236122,0.417099,-0.039389,42,280,572,4880
1644155734.491347,-0.015259,0.008545,-0.99292,0.327725,0.447634,0.098015,51,271,571,4816
1644155734.539721,-0.011963,0.009216,-0.993347,0.113985,0.539237,-0.115725,42,280,575,4832
1644155734.588105,-0.01355,0.008789,-0.991272,0.312458,0.417099,-0.085191,46,276,578,4816
1644155734.636484,-0.011292,0.010254,-0.991089,0.159786,0.539237,-0.161527,47,275,572,4816
1644155734.684874,-0.012085,0.008301,-0.992554,0.281924,0.417099,-0.192061,57,265,586,4848
1644155734.733278,-0.014648,0.007263,-0.992615,0.342992,0.371298,-0.039389,48,269,578,4816
1644155734.781929,-0.012939,0.008118,-0.993408,0.266656,0.493435,0.021679,53,269,576,4816
1644155734.833458,-0.01001,0.007996,-0.993652,0.175053,0.432366,-0.085191,55,271,571,4848
1644155734.883431,-0.011108,0.006165,-0.993469,0.342992,0.386565,-0.069924,39,266,571,4848
1644155734.928975,-0.013611,0.00708,-0.992676,0.266656,0.523969,-0.161527,47,285,579,4848
1644155735.023636,-0.012085,0.00647,-0.993896,0.373527,0.233893,-0.100458,45,273,577,4848
1644155735.072316,-0.009827,0.007324,-0.990417,0.205588,0.493435,-0.069924,52,280,584,4896
1644155735.120357,-0.012878,0.008118,-0.992737,0.08345,0.539237,-0.039389,55,279,564,4880
1644155735.168736,-0.013306,0.008362,-0.99231,0.251389,0.462901,-0.176794,43,271,571,4880
1644155735.217122,-0.014648,0.009888,-0.992615,0.373527,0.401832,-0.054656,54,268,565,4880
1644155735.26552,-0.011169,0.010681,-0.993896,0.129252,0.569771,-0.024122,47,270,572,4816
1644155735.313881,-0.009583,0.00885,-0.993774,0.266656,0.447634,-0.161527,52,270,568,4848
1644155735.362309,-0.015808,0.007141,-0.990845,0.342992,0.371298,-0.130992,51,266,566,4816
1644155735.410677,-0.01123,0.007385,-0.991516,0.373527,0.386565,-0.130992,52,268,577,4848
1644155735.459042,-0.011353,0.008423,-0.991211,0.251389,0.447634,-0.039389,46,274,576,4832
1644155735.507447,-0.011902,0.007385,-0.992249,0.190321,0.493435,-0.115725,59,270,570,4816
1644155735.55584,-0.010071,0.007141,-0.992432,0.404061,0.432366,-0.085191,62,276,571,4816
1644155735.604247,-0.012756,0.006836,-0.990051,0.342992,0.493435,-0.207328,52,282,579,4848
1644155735.652621,-0.011658,0.008484,-0.992065,0.35826,0.401832,0.006412,48,283,564,4848
1644155735.70099,-0.01239,0.009827,-0.993713,0.404061,0.478168,0.052214,43,269,573,4848
1644155735.749376,-0.014709,0.008423,-0.992737,0.281924,0.462901,-0.268397,53,264,573,4896
1644155735.797773,-0.012878,0.008484,-0.991333,0.205588,0.401832,-0.14626,48,279,569,4816
1644155735.846374,-0.012268,0.011475,-0.990051,0.098718,0.432366,-0.085191,47,275,570,4848
1644155735.89543,-0.013672,0.007812,-0.99408,0.312458,0.478168,-0.115725,53,283,566,4816
1644155735.943499,-0.012207,0.004761,-0.993774,0.236122,0.371298,-0.039389,43,271,573,4848
1644155735.994031,-0.01239,0.008545,-0.990723,0.449863,0.386565,0.036947,48,281,578,4720
1644155736.058972,-0.010681,0.008179,-0.993164,0.327725,0.417099,-0.207328,49,275,577,4816
1644155736.136477,-0.01001,0.008179,-0.994263,0.281924,0.417099,0.082748,52,282,579,4720
1644155736.184855,-0.01239,0.009888,-0.992065,0.342992,0.432366,-0.14626,45,280,563,4720
1644155736.233274,-0.014404,0.009705,-0.989685,0.205588,0.340763,-0.008855,42,282,575,4832
1644155736.281614,-0.014832,0.008362,-0.989807,0.236122,0.585038,-0.100458,42,275,568,4880
1644155736.330014,-0.010742,0.009949,-0.994629,0.281924,0.523969,-0.237863,51,274,578,4784
1644155736.378401,-0.014038,0.00708,-0.992981,0.236122,0.447634,-0.008855,54,273,572,4816
1644155736.426792,-0.010803,0.00592,-0.993591,0.205588,0.386565,0.006412,43,276,576,4848
1644155736.476499,-0.012878,0.007263,-0.991882,0.205588,0.493435,-0.207328,43,271,576,4848
1644155736.523592,-0.008911,0.00885,-0.991394,0.373527,0.554504,-0.085191,48,274,571,4784
1644155736.571962,-0.011108,0.006836,-0.990967,0.205588,0.493435,-0.008855,45,260,577,4784
1644155736.62033,-0.009399,0.00647,-0.991272,0.236122,0.340763,-0.192061,47,268,575,4784
1644155736.668722,-0.008057,0.007874,-0.994019,0.327725,0.508702,0.036947,43,274,576,4816
1644155736.717118,-0.01062,0.010742,-0.993103,0.113985,0.600305,-0.115725,57,277,575,4848
1644155736.76547,-0.011597,0.011841,-0.991577,0.419328,0.478168,-0.008855,41,274,578,4784
1644155736.813892,-0.012329,0.007263,-0.992798,0.175053,0.310229,0.052214,51,271,583,4784
1644155736.862354,-0.013367,0.009277,-0.992004,0.281924,0.462901,-0.039389,48,279,580,4832
1644155736.910704,-0.011658,0.01062,-0.992554,0.205588,0.508702,-0.100458,41,276,573,4848
1644155736.959092,-0.013489,0.008728,-0.990723,0.113985,0.585038,-0.176794,51,279,576,4848
1644155737.066406,-0.011658,0.00531,-0.992432,0.373527,0.432366,-0.176794,45,263,584,4880
1644155737.104211,-0.010254,0.009827,-0.990295,0.342992,0.462901,0.082748,52,280,584,4816
1644155737.152635,-0.01532,0.008545,-0.992493,0.312458,0.417099,-0.008855,54,277,570,4720
1644155737.200994,-0.01001,0.008179,-0.992126,0.281924,0.447634,-0.115725,53,279,578,4848
1644155737.249352,-0.014404,0.006897,-0.99231,0.236122,0.462901,-0.069924,48,283,580,4848
1644155737.297771,-0.013,0.00769,-0.991455,0.297191,0.661374,-0.176794,51,262,576,4816
1644155737.346165,-0.011658,0.006714,-0.993774,0.251389,0.462901,-0.054656,48,274,571,4928
1644155737.394566,-0.010681,0.009399,-0.995361,0.251389,0.493435,-0.130992,52,265,575,4720
1644155737.44294,-0.012878,0.007751,-0.993347,0.190321,0.386565,-0.161527,52,268,579,4896
1644155737.491321,-0.01593,0.009949,-0.992249,0.251389,0.539237,-0.039389,59,270,579,4784
1644155737.539706,-0.010925,0.007751,-0.992493,0.266656,0.478168,-0.237863,47,275,570,4848
1644155737.588078,-0.012207,0.00769,-0.99231,0.205588,0.386565,-0.039389,49,270,565,4784
1644155737.636461,-0.010681,0.006653,-0.993896,0.190321,0.401832,-0.069924,52,263,575,4880
1644155737.684897,-0.013489,0.006287,-0.995239,0.342992,0.478168,-0.115725,39,269,576,4848
1644155737.73343,-0.012817,0.006653,-0.993713,0.327725,0.401832,-0.14626,43,274,569,4848
1644155737.783828,-0.012573,0.009338,-0.991577,0.266656,0.356031,-0.222595,49,270,584,4816
1644155737.834533,-0.015137,0.009399,-0.993103,0.281924,0.447634,-0.024122,43,281,571,4816
1644155737.926811,-0.013611,0.009644,-0.990906,0.220855,0.432366,-0.085191,60,274,571,4880
1644155737.975419,-0.011536,0.006531,-0.993103,0.327725,0.493435,-0.054656,55,274,569,4896
1644155738.023605,-0.012207,0.007812,-0.992554,0.251389,0.493435,-0.115725,53,264,580,4784
1644155738.072524,-0.011353,0.007812,-0.992249,0.220855,0.401832,-0.222595,53,274,578,4848
1644155738.120334,-0.012573,0.009827,-0.991333,0.159786,0.371298,-0.085191,54,270,570,4848
1644155738.168705,-0.010254,0.00708,-0.994446,0.281924,0.462901,-0.237863,41,271,576,4848
1644155738.217114,-0.013367,0.008484,-0.99231,0.220855,0.401832,-0.069924,47,277,582,4848
1644155738.265493,-0.015381,0.008057,-0.993774,0.175053,0.447634,-0.192061,60,274,569,4848
1644155738.313883,-0.012634,0.010254,-0.989807,0.205588,0.417099,-0.14626,60,281,571,4816
1644155738.362289,-0.012695,0.008545,-0.992981,0.526198,0.462901,-0.115725,52,277,575,4832
1644155738.410672,-0.010925,0.01416,-0.990295,0.251389,0.417099,-0.069924,57,275,570,4832
1644155738.459043,-0.009033,0.008362,-0.992188,0.251389,0.279695,-0.024122,46,266,569,4880
1644155738.507423,-0.009827,0.008362,-0.990356,0.327725,0.417099,-0.130992,58,274,580,4752
1644155738.555816,-0.011414,0.008118,-0.993286,0.266656,0.340763,-0.039389,57,268,577,4816
1644155738.604224,-0.011963,0.005249,-0.993103,0.236122,0.371298,-0.207328,49,287,582,4816
1644155738.652579,-0.012024,0.00647,-0.993591,0.129252,0.447634,-0.039389,47,270,579,4784
1644155738.700979,-0.013062,0.010315,-0.992004,0.297191,0.554504,-0.100458,54,275,572,4848
1644155738.749341,-0.009644,0.008972,-0.991577,0.113985,0.310229,-0.222595,55,281,571,4816
1644155738.797798,-0.011475,0.008179,-0.992065,0.144519,0.340763,0.006412,51,259,578,4848
1644155738.847675,-0.013855,0.007324,-0.994019,0.327725,0.493435,-0.024122,61,268,568,4816
1644155738.898559,-0.012695,0.008362,-0.993896,0.236122,0.493435,-0.054656,48,271,578,4848
1644155738.947974,-0.011047,0.008362,-0.992615,0.342992,0.417099,-0.069924,48,279,576,4848
1644155739.039716,-0.010254,0.005676,-0.993225,0.236122,0.356031,-0.085191,46,274,573,4784
1644155739.088156,-0.012024,0.008179,-0.99469,0.327725,0.401832,-0.039389,55,276,573,4784
1644155739.136442,-0.013489,0.010193,-0.99292,0.35826,0.478168,-0.176794,45,268,568,4880
1644155739.184869,-0.010925,0.007385,-0.991638,0.175053,0.417099,-0.100458,41,269,573,4848
1644155739.233246,-0.014648,0.00885,-0.992676,0.113985,0.508702,-0.054656,42,263,563,4752
1644155739.281608,-0.012573,0.01062,-0.99408,0.266656,0.462901,-0.069924,53,276,569,4784
1644155739.330019,-0.011963,0.009583,-0.992126,0.175053,0.310229,-0.222595,54,273,575,4784
1644155739.378393,-0.010986,0.011292,-0.995117,0.373527,0.554504,-0.14626,43,271,571,4896
1644155739.426792,-0.010132,0.005249,-0.99292,0.342992,0.417099,-0.100458,43,266,569,4784
1644155739.475257,-0.012268,0.011169,-0.993103,0.281924,0.493435,-0.085191,51,274,569,4848
1644155739.523581,-0.013245,0.007751,-0.992554,0.159786,0.447634,-0.25313,43,276,583,4848
1644155739.571941,-0.012146,0.012451,-0.993164,0.190321,0.401832,-0.130992,45,263,572,4848
1644155739.620332,-0.012451,0.006714,-0.992737,0.297191,0.585038,-0.222595,52,275,577,4752
1644155739.668747,-0.010376,0.008606,-0.994019,0.297191,0.371298,-0.192061,46,266,578,4816
1644155739.717113,-0.012878,0.010132,-0.992554,0.175053,0.478168,-0.207328,47,273,563,4752
1644155739.765496,-0.01062,0.005798,-0.989258,0.113985,0.478168,-0.14626,54,277,575,4832
1644155739.814259,-0.009338,0.009766,-0.991699,0.342992,0.401832,-0.176794,49,273,572,4880
1644155739.862352,-0.013489,0.007019,-0.993225,0.220855,0.386565,-0.192061,54,273,572,4816
1644155739.912281,-0.011841,0.010681,-0.992249,0.281924,0.356031,-0.207328,52,275,575,4848
1644155739.962364,-0.009888,0.00824,-0.994812,0.281924,0.478168,0.052214,43,271,583,4880
1644155740.064971,-0.012878,0.008362,-0.992065,0.220855,0.417099,-0.192061,45,273,568,4816
1644155740.104239,-0.013428,0.007751,-0.993286,0.281924,0.462901,-0.085191,49,275,579,4880
1644155740.15261,-0.014404,0.006653,-0.993652,0.342992,0.264427,-0.008855,54,277,582,4848
1644155740.200984,-0.012146,0.009216,-0.991516,0.297191,0.585038,-0.100458,45,273,570,4880
1644155740.249338,-0.010864,0.013428,-0.991028,0.312458,0.279695,-0.161527,53,279,569,4832
1644155740.297728,-0.009399,0.009033,-0.992249,0.220855,0.462901,-0.192061,41,281,569,4880
1644155740.346137,-0.010681,0.007935,-0.993286,0.327725,0.417099,-0.054656,49,268,570,4784
1644155740.394543,-0.014404,0.009155,-0.991394,0.342992,0.569771,-0.161527,52,275,586,4816
1644155740.442915,-0.010376,0.009949,-0.993103,0.327725,0.356031,-0.054656,52,273,577,4848
1644155740.49131,-0.01178,0.010437,-0.993591,0.190321,0.356031,0.036947,54,273,570,4832
1644155740.539685,-0.013,0.013,-0.993286,0.35826,0.523969,-0.085191,47,268,579,4848
1644155740.58806,-0.014832,0.009399,-0.991699,0.251389,0.340763,-0.207328,53,281,573,4768
1644155740.636458,-0.012085,0.006592,-0.992554,0.144519,0.462901,-0.054656,52,277,575,4848
1644155740.684859,-0.01178,0.007263,-0.992432,0.404061,0.523969,-0.069924,49,273,575,4880
1644155740.733547,-0.012268,0.007263,-0.992432,0.342992,0.478168,-0.100458,45,268,577,4832
1644155740.782369,-0.013306,0.00824,-0.992981,0.327725,0.386565,-0.115725,51,274,573,4848
1644155740.834028,-0.010437,0.006592,-0.99231,0.281924,0.493435,-0.039389,47,273,575,4816
1644155740.878746,-0.012146,0.006958,-0.992981,0.144519,0.554504,-0.100458,48,279,578,4848
1644155740.975428,-0.013489,0.008484,-0.993713,0.297191,0.417099,0.021679,49,270,577,4848
1644155741.023601,-0.012695,0.010681,-0.990845,0.205588,0.478168,0.082748,57,282,570,4848
1644155741.072054,-0.011047,0.007385,-0.991028,0.113985,0.554504,0.067481,52,277,577,4848
1644155741.120348,-0.009277,0.008545,-0.993652,0.220855,0.508702,-0.161527,42,273,584,4848
1644155741.16871,-0.010864,0.008545,-0.992065,0.220855,0.432366,-0.130992,52,285,577,4848
1644155741.217105,-0.010681,0.010742,-0.992249,0.297191,0.508702,-0.054656,53,279,569,4784
1644155741.265478,-0.013611,0.008057,-0.992798,0.297191,0.447634,0.036947,42,270,579,4848
1644155741.313876,-0.013367,0.007507,-0.992859,0.220855,0.462901,-0.100458,53,257,571,4784
1644155741.362269,-0.011047,0.009766,-0.99292,0.281924,0.508702,-0.268397,48,269,571,4832
1644155741.410655,-0.009521,0.007629,-0.992615,0.419328,0.493435,-0.130992,46,274,569,4816
1644155741.459039,-0.014221,0.009766,-0.989929,0.373527,0.462901,-0.024122,52,273,568,4880
1644155741.507395,-0.013123,0.010742,-0.99408,0.190321,0.401832,-0.115725,49,268,575,4896
1644155741.555802,-0.01532,0.007385,-0.990845,0.08345,0.493435,-0.054656,45,273,577,4880
1644155741.60418,-0.010315,0.01062,-0.989502,0.342992,0.310229,-0.130992,58,279,573,4784
1644155741.652597,-0.013062,0.009399,-0.992371,0.342992,0.600305,-0.100458,53,279,576,4848
1644155741.700947,-0.011841,0.007385,-0.993652,0.205588,0.386565,-0.14626,49,282,577,4832
1644155741.749352,-0.012207,0.007446,-0.992737,0.312458,0.447634,-0.130992,43,276,587,4880
1644155741.797743,-0.01001,0.00708,-0.993591,0.236122,0.447634,0.006412,43,276,571,4848
1644155741.846396,-0.013245,0.008301,-0.994324,0.236122,0.401832,-0.039389,51,279,583,4720
1644155741.895717,-0.009216,0.010742,-0.991028,0.205588,0.356031,-0.14626,49,274,573,4880
1644155741.945672,-0.011536,0.006165,-0.992432,0.327725,0.310229,-0.008855,59,275,579,4816
1644155741.996011,-0.013062,0.011719,-0.992859,0.251389,0.508702,-0.14626,41,271,573,4784
1644155742.040717,-0.010803,0.007324,-0.988708,0.220855,0.294962,-0.25313,53,264,573,4880
1644155742.136489,-0.00946,0.010132,-0.992493,0.236122,0.386565,-0.024122,55,283,573,4848
1644155742.18484,-0.009338,0.008118,-0.990601,0.266656,0.401832,-0.237863,46,274,576,4816
1644155742.233251,-0.011108,0.008667,-0.990723,0.297191,0.462901,-0.222595,55,266,576,4896
1644155742.281584,-0.009705,0.010071,-0.992432,0.266656,0.325496,-0.069924,45,273,568,4816
1644155742.330009,-0.011169,0.008545,-0.98938,0.251389,0.523969,-0.085191,42,275,565,4848
1644155742.378388,-0.010437,0.00647,-0.992615,0.08345,0.432366,-0.161527,48,262,583,4752
1644155742.426767,-0.01123,0.009399,-0.992554,0.297191,0.585038,-0.069924,45,268,570,4816
1644155742.475312,-0.011414,0.007812,-0.993713,0.388794,0.386565,-0.069924,45,275,575,4768
1644155742.523537,-0.012451,0.00647,-0.992371,0.236122,0.340763,-0.069924,52,270,570,4784
1644155742.571936,-0.011353,0.010071,-0.992493,0.297191,0.554504,-0.100458,51,264,571,4752
1644155742.620326,-0.012329,0.007324,-0.994873,0.312458,0.462901,-0.115725,52,265,565,4880
1644155742.668712,-0.012329,0.010559,-0.996582,0.266656,0.523969,-0.085191,55,279,576,4880
1644155742.717094,-0.011108,0.008301,-0.991882,0.373527,0.462901,-0.085191,51,266,569,4784
1644155742.765481,-0.013733,0.009338,-0.995056,0.312458,0.447634,-0.054656,49,275,572,4832
1644155742.813888,-0.009949,0.008667,-0.990417,0.144519,0.386565,-0.130992,53,276,569,4880
1644155742.862277,-0.014404,0.007629,-0.990723,0.266656,0.585038,-0.039389,46,274,576,4832
1644155742.910684,-0.012024,0.010986,-0.994751,0.220855,0.371298,-0.130992,74,276,569,4720
1644155742.959055,-0.010559,0.007629,-0.993164,0.175053,0.478168,-0.192061,48,279,576,4880
1644155743.00746,-0.012756,0.007629,-0.990845,0.205588,0.432366,0.006412,54,270,572,4816
1644155743.085442,-0.011414,0.007446,-0.991028,0.236122,0.371298,-0.054656,51,276,573,4720
1644155743.105792,-0.009888,0.006653,-0.99054,0.205588,0.554504,-0.176794,48,271,580,4816
1644155743.200957,-0.013123,0.006531,-0.992615,0.175053,0.401832,0.052214,52,285,565,4848
1644155743.249336,-0.011841,0.009888,-0.996826,0.297191,0.371298,-0.069924,51,271,564,4784
1644155743.297709,-0.01123,0.009766,-0.991882,0.281924,0.310229,-0.14626,51,279,578,4816
1644155743.346131,-0.010803,0.010742,-0.99353,0.144519,0.554504,-0.054656,45,268,589,4720
1644155743.394516,-0.011475,0.006348,-0.991577,0.190321,0.279695,0.036947,51,271,573,4832
1644155743.442917,-0.014221,0.008118,-0.989624,0.220855,0.386565,-0.130992,41,266,576,4720
1644155743.491282,-0.012634,0.008301,-0.99115,0.434595,0.417099,-0.054656,43,274,566,4720
1644155743.539689,-0.012024,0.005859,-0.991699,0.373527,0.493435,-0.039389,39,274,564,4816
1644155743.588062,-0.013916,0.005432,-0.989685,0.373527,0.386565,-0.14626,46,271,583,4752
1644155743.636456,-0.012573,0.007019,-0.992859,0.312458,0.432366,-0.115725,46,279,573,4720
1644155743.684835,-0.011353,0.011841,-0.988403,0.220855,0.356031,-0.039389,64,275,577,4880
1644155743.73323,-0.013245,0.007812,-0.989502,0.236122,0.340763,-0.207328,45,270,563,4784
1644155743.781612,-0.011353,0.008667,-0.995911,0.251389,0.462901,-0.069924,58,266,576,4784
1644155743.829996,-0.010437,0.010925,-0.990417,0.175053,0.386565,-0.161527,51,274,583,4784
1644155743.878436,-0.013062,0.010681,-0.991394,0.281924,0.493435,-0.222595,54,270,579,4752
1644155743.926813,-0.011536,0.008423,-0.994446,0.342992,0.462901,-0.115725,53,266,573,4832
1644155743.975219,-0.009583,0.008484,-0.990784,0.266656,0.478168,-0.024122,45,268,579,4880
1644155744.023599,-0.013855,0.006104,-0.991333,0.113985,0.386565,-0.024122,49,270,575,4848
1644155744.080773,-0.010986,0.009216,-0.99353,0.190321,0.462901,0.036947,41,276,583,4816
1644155744.124875,-0.011353,0.004883,-0.99231,0.190321,0.478168,-0.069924,59,265,575,4848
1644155744.170021,-0.007507,0.009338,-0.994751,0.373527,0.371298,-0.14626,43,281,580,4784
1644155744.265503,-0.013367,0.008484,-0.990967,0.129252,0.386565,-0.176794,54,270,579,4880
1644155744.313883,-0.010742,0.00885,-0.990234,0.251389,0.401832,-0.161527,48,279,559,4880
1644155744.36243,-0.015259,0.009216,-0.993164,0.251389,0.508702,0.021679,43,271,571,4880
1644155744.410662,-0.012268,0.007935,-0.990906,0.281924,0.325496,-0.008855,46,276,573,4832
1644155744.459057,-0.009949,0.009033,-0.991394,0.251389,0.325496,-0.008855,53,269,571,4816
1644155744.50743,-0.012756,0.009705,-0.99469,0.205588,0.310229,-0.085191,52,273,584,4832
1644155744.555808,-0.012512,0.010193,-0.991821,0.388794,0.539237,-0.054656,58,276,571,4880
1644155744.604235,-0.008972,0.009399,-0.993042,0.327725,0.478168,-0.069924,48,264,566,4848
1644155744.652632,-0.011047,0.008545,-0.993958,0.327725,0.417099,-0.069924,54,275,572,4784
1644155744.70099,-0.011353,0.006836,-0.991821,0.236122,0.523969,-0.069924,53,266,566,4896
1644155744.749352,-0.014221,0.007507,-0.994263,0.205588,0.401832,-0.161527,55,262,576,4848
1644155744.797771,-0.012268,0.009094,-0.990051,0.190321,0.371298,-0.268397,40,277,575,4816
1644155744.846168,-0.009277,0.010315,-0.995605,0.236122,0.294962,-0.130992,51,271,578,4784
1644155744.894533,-0.010437,0.009216,-0.992493,0.159786,0.432366,0.021679,45,282,568,4816
1644155744.942937,-0.012451,0.01001,-0.993164,0.281924,0.417099,-0.176794,39,266,576,4784
1644155744.991318,-0.011414,0.008972,-0.992371,0.342992,0.294962,-0.100458,48,283,569,4848
1644155745.039691,-0.012634,0.010254,-0.991821,0.144519,0.432366,-0.069924,41,269,576,4848
1644155745.094762,-0.012329,0.010437,-0.994324,0.342992,0.508702,-0.069924,53,276,583,4848
1644155745.136449,-0.012756,0.009644,-0.99292,0.175053,0.340763,-0.115725,45,273,582,4816
1644155745.185152,-0.011475,0.00885,-0.992249,0.281924,0.401832,-0.222595,51,281,576,4784
1644155745.235398,-0.013611,0.009216,-0.992798,0.220855,0.462901,-0.054656,48,269,564,4832
1644155745.285731,-0.009949,0.010315,-0.991943,0.297191,0.554504,-0.176794,58,276,580,4848
1644155745.331168,-0.007324,0.00647,-0.992676,0.373527,0.447634,-0.207328,46,266,571,4816
1644155745.426733,-0.008606,0.010559,-0.99353,0.236122,0.386565,-0.069924,49,270,575,4848
1644155745.475354,-0.012329,0.008484,-0.993347,0.266656,0.417099,-0.130992,53,274,580,4848
1644155745.523531,-0.009888,0.007507,-0.992981,0.175053,0.508702,-0.100458,55,262,573,4784
1644155745.571921,-0.013672,0.004883,-0.990906,0.220855,0.508702,-0.069924,54,273,568,4848
1644155745.62031,-0.010559,0.007446,-0.991028,0.327725,0.462901,-0.222595,49,273,572,4848
1644155745.668676,-0.010498,0.006226,-0.992798,0.281924,0.386565,-0.207328,62,281,569,4832
1644155745.717071,-0.010742,0.006226,-0.995178,0.281924,0.371298,-0.024122,52,275,570,4848
1644155745.765465,-0.012939,0.010071,-0.992676,0.129252,0.401832,-0.207328,43,281,573,4784
1644155745.813904,-0.013245,0.004517,-0.992188,0.220855,0.371298,0.052214,54,268,575,4816
1644155745.862303,-0.014282,0.010254,-0.994873,0.205588,0.325496,-0.130992,51,279,573,4896
1644155745.910658,-0.011353,0.007385,-0.990051,0.251389,0.447634,0.204885,52,277,563,4816
1644155745.959067,-0.013062,0.010071,-0.993103,0.129252,0.615573,-0.176794,48,269,569,4848
1644155746.007402,-0.012207,0.012512,-0.992615,0.266656,0.340763,-0.161527,51,274,580,4928
1644155746.065825,-0.008789,0.009399,-0.994995,0.297191,0.493435,-0.14626,45,265,586,4816
1644155746.104192,-0.009949,0.005676,-0.991272,0.251389,0.340763,-0.192061,51,274,566,4816
1644155746.152578,-0.010742,0.009705,-0.992798,0.175053,0.478168,-0.039389,51,271,573,4896
1644155746.200961,-0.010132,0.005859,-0.991699,0.190321,0.325496,-0.054656,51,276,583,4752
1644155746.249308,-0.011597,0.008789,-0.98877,0.205588,0.386565,-0.161527,46,271,569,4848
1644155746.297713,-0.011169,0.008362,-0.991211,0.159786,0.554504,-0.085191,51,276,578,4816
1644155746.346348,-0.011963,0.00708,-0.992615,0.35826,0.340763,-0.436336,46,276,566,4848
1644155746.396877,-0.013733,0.007629,-0.99585,0.251389,0.493435,-0.161527,53,271,576,4816
1644155746.447044,-0.01355,0.00885,-0.99054,0.327725,0.447634,0.036947,42,273,582,4848
1644155746.493047,-0.016541,0.007996,-0.994141,0.342992,0.401832,-0.176794,52,268,575,4752
1644155746.588034,-0.011841,0.008667,-0.991943,0.220855,0.554504,-0.008855,46,266,583,4896
1644155746.636405,-0.013733,0.00647,-0.993103,0.327725,0.493435,-0.222595,51,269,576,4784
1644155746.684895,-0.013916,0.008972,-0.995239,0.159786,0.417099,-0.161527,60,276,578,4896
1644155746.733208,-0.013306,0.008545,-0.993774,0.297191,0.386565,0.021679,51,269,573,4848
1644155746.781597,-0.012207,0.005188,-0.99231,0.312458,0.508702,-0.054656,43,276,576,4784
1644155746.83001,-0.011658,0.008545,-0.992981,0.205588,0.432366,-0.176794,49,275,584,4720
1644155746.878407,-0.01355,0.00708,-0.99231,0.449863,0.432366,-0.085191,49,282,572,4896
1644155746.926785,-0.011475,0.007568,-0.992676,0.098718,0.432366,-0.130992,52,290,570,4784
1644155746.975298,-0.011475,0.007874,-0.99115,0.373527,0.310229,-0.100458,46,266,569,4784
1644155747.023573,-0.010925,0.008789,-0.99231,0.129252,0.401832,-0.054656,52,282,575,4880
1644155747.084871,-0.010803,0.008179,-0.989685,0.35826,0.432366,-0.100458,53,291,580,4784
1644155747.120297,-0.012329,0.00946,-0.992371,0.281924,0.447634,-0.161527,52,277,582,4816
1644155747.168694,-0.014771,0.008362,-0.989502,0.388794,0.462901,-0.161527,35,277,568,4816
1644155747.21708,-0.011841,0.009033,-0.993042,0.266656,0.585038,-0.176794,51,264,583,4816
1644155747.265423,-0.010742,0.009583,-0.993286,0.175053,0.493435,-0.024122,60,274,576,4848
1644155747.313835,-0.008667,0.008301,-0.991699,0.419328,0.294962,-0.130992,45,275,572,4848
1644155747.362249,-0.007385,0.009644,-0.991333,0.327725,0.417099,0.006412,42,270,575,4848
1644155747.410632,-0.010071,0.007874,-0.994507,0.281924,0.432366,-0.222595,53,279,580,4832
1644155747.460406,-0.01239,0.010925,-0.991089,0.281924,0.478168,-0.008855,46,274,569,4816
1644155747.510889,-0.009033,0.010681,-0.99353,0.205588,0.356031,-0.115725,47,277,575,4816
1644155747.556399,-0.011108,0.008362,-0.992371,0.35826,0.554504,-0.085191,57,273,570,4832
1644155747.652568,-0.014038,0.008301,-0.992798,0.35826,0.371298,-0.222595,49,282,570,4784
1644155747.700928,-0.010803,0.008728,-0.99353,0.266656,0.539237,-0.054656,49,273,570,4816
1644155747.749319,-0.01001,0.009094,-0.992004,0.297191,0.386565,-0.161527,43,274,573,4816
1644155747.797702,-0.010681,0.009155,-0.991089,0.144519,0.401832,-0.130992,49,273,575,4880
1644155747.846117,-0.010986,0.010559,-0.992065,0.312458,0.493435,-0.054656,49,260,579,4848
1644155747.89451,-0.010132,0.009277,-0.991821,0.190321,0.508702,-0.176794,43,281,578,4848
1644155747.94293,-0.011414,0.009766,-0.990417,0.434595,0.401832,-0.130992,48,274,576,4848
1644155747.991314,-0.012512,0.010437,-0.991882,0.312458,0.493435,-0.237863,47,277,575,4848
1644155748.039689,-0.012329,0.011414,-0.993225,0.113985,0.371298,-0.161527,45,277,575,4848
1644155748.088201,-0.010437,0.012268,-0.990479,0.281924,0.478168,-0.25313,53,271,576,4816
1644155748.136423,-0.011658,0.012512,-0.993042,0.327725,0.478168,-0.130992,47,273,568,4784
1644155748.184834,-0.012634,0.007996,-0.994263,0.236122,0.417099,-0.085191,52,280,575,4720
1644155748.23322,-0.012329,0.008484,-0.992554,0.342992,0.356031,-0.024122,57,285,568,4720
1644155748.281559,-0.011963,0.008484,-0.990356,0.236122,0.356031,0.113282,48,276,566,4880
1644155748.329941,-0.01001,0.009399,-0.991089,0.220855,0.325496,-0.039389,49,280,575,4832
1644155748.378339,-0.013794,0.008789,-0.993225,0.388794,0.310229,-0.054656,58,271,578,4816
1644155748.426736,-0.010864,0.008972,-0.990662,0.327725,0.523969,0.021679,53,274,580,4784
1644155748.475167,-0.011414,0.006531,-0.994446,0.312458,0.523969,-0.161527,52,275,568,4848
1644155748.523642,-0.012939,0.006409,-0.991455,0.129252,0.294962,-0.085191,52,265,565,4880
1644155748.572461,-0.013428,0.007568,-0.992249,0.251389,0.356031,-0.100458,53,279,578,4848
1644155748.622852,-0.011475,0.005981,-0.993225,0.129252,0.508702,-0.14626,54,273,575,4816
1644155748.673221,-0.010864,0.008911,-0.994995,0.312458,0.478168,-0.130992,51,286,569,4720
1644155748.76547,-0.011597,0.007019,-0.99292,0.205588,0.432366,-0.069924,48,271,571,4784
1644155748.813841,-0.01001,0.008972,-0.994263,0.068183,0.401832,-0.054656,41,269,571,4848
1644155748.862422,-0.010315,0.007996,-0.994263,0.281924,0.371298,-0.039389,47,273,575,4848
1644155748.910645,-0.014099,0.006897,-0.99353,0.175053,0.493435,-0.069924,60,262,576,4784
1644155748.959025,-0.012024,0.008667,-0.996216,0.281924,0.386565,-0.115725,38,277,570,4880
1644155749.007407,-0.013916,0.008057,-0.992554,0.052916,0.508702,-0.054656,53,279,564,4784
1644155749.065865,-0.012268,0.009399,-0.995117,0.342992,0.462901,-0.100458,48,271,578,4848
1644155749.104202,-0.01355,0.008545,-0.994141,0.205588,0.356031,-0.14626,47,270,577,4880
1644155749.152541,-0.011841,0.008118,-0.993225,0.404061,0.386565,-0.176794,53,276,571,4880
1644155749.200941,-0.014404,0.00946,-0.990784,0.251389,0.340763,0.052214,53,269,571,4816
1644155749.249287,-0.012634,0.008484,-0.991699,0.236122,0.417099,-0.008855,59,277,561,4832
1644155749.297671,-0.011292,0.009888,-0.993164,0.144519,0.401832,-0.069924,49,277,577,4784
1644155749.346092,-0.009583,0.008972,-0.993286,0.297191,0.523969,-0.115725,40,273,568,4784
1644155749.394485,-0.012878,0.010986,-0.993652,0.175053,0.386565,-0.14626,51,274,590,4848
1644155749.442881,-0.009888,0.009155,-0.993408,0.35826,0.508702,-0.039389,53,283,569,4816
1644155749.491267,-0.012268,0.010254,-0.994995,0.205588,0.462901,-0.207328,47,275,575,4784
1644155749.539634,-0.012451,0.007324,-0.991333,0.266656,0.462901,0.021679,53,271,571,4752
1644155749.588026,-0.012268,0.010681,-0.99231,0.312458,0.401832,-0.069924,53,269,576,4848
1644155749.636408,-0.012329,0.005859,-0.993408,0.205588,0.432366,-0.100458,43,274,573,4848
1644155749.685131,-0.01178,0.007751,-0.993591,0.373527,0.356031,-0.176794,54,290,577,4784
1644155749.734448,-0.010315,0.008545,-0.99231,0.205588,0.523969,-0.14626,51,266,576,4848
1644155749.78512,-0.01239,0.007935,-0.994324,0.205588,0.340763,-0.161527,53,269,571,4848
1644155749.830396,-0.012695,0.006897,-0.99231,0.312458,0.386565,-0.085191,49,265,570,4816
1644155749.926757,-0.014587,0.006348,-0.99054,0.281924,0.340763,-0.069924,58,269,580,4784
1644155749.975374,-0.011292,0.009827,-0.992859,0.297191,0.554504,-0.130992,52,273,570,4816
1644155750.023555,-0.010742,0.007874,-0.991638,0.281924,0.523969,-0.085191,54,268,570,4832
1644155750.072004,-0.011108,0.008545,-0.994873,0.266656,0.371298,-0.176794,49,270,579,4816
1644155750.120332,-0.013489,0.007446,-0.992065,0.220855,0.478168,-0.039389,53,266,576,4832
1644155750.168668,-0.009399,0.006958,-0.993591,0.251389,0.356031,-0.130992,55,266,576,4816
1644155750.217048,-0.011169,0.006042,-0.991455,0.220855,0.478168,-0.130992,48,274,571,4848
1644155750.265429,-0.010071,0.00885,-0.99353,0.281924,0.417099,-0.222595,48,271,573,4784
1644155750.313815,-0.011658,0.011597,-0.992981,0.327725,0.447634,-0.069924,43,274,578,4896
1644155750.362218,-0.012756,0.00769,-0.990417,0.388794,0.539237,0.006412,55,271,573,4784
1644155750.41058,-0.013123,0.010071,-0.988708,0.144519,0.432366,-0.054656,49,275,570,4816
1644155750.458994,-0.014648,0.009399,-0.994507,0.342992,0.371298,-0.100458,51,276,578,4848
1644155750.507375,-0.013794,0.007935,-0.991211,0.281924,0.432366,-0.130992,64,280,565,4880
1644155750.555768,-0.009583,0.009521,-0.994019,0.251389,0.356031,-0.008855,57,273,570,4720
1644155750.604158,-0.009583,0.009766,-0.992798,0.236122,0.386565,-0.039389,55,281,578,4784
1644155750.65256,-0.014587,0.008179,-0.991638,0.266656,0.539237,-0.192061,48,279,571,4816
1644155750.700917,-0.012085,0.007874,-0.993408,0.281924,0.600305,-0.085191,48,266,573,4848
1644155750.749281,-0.011169,0.006836,-0.993286,0.037649,0.340763,-0.222595,52,273,572,4816
1644155750.797695,-0.011658,0.01062,-0.992615,0.220855,0.417099,-0.085191,47,270,575,4848
1644155750.847277,-0.010376,0.006409,-0.993835,0.205588,0.371298,-0.25313,48,276,576,4816
1644155750.897486,-0.01355,0.006653,-0.992493,0.190321,0.386565,-0.207328,60,274,571,4768
1644155750.947819,-0.012817,0.008728,-0.992371,0.052916,0.508702,-0.085191,53,274,576,4848
1644155750.992739,-0.009338,0.00824,-0.989075,0.312458,0.356031,-0.008855,52,268,579,4832
1644155751.091545,-0.012878,0.011414,-0.990906,0.205588,0.447634,-0.008855,47,270,579,4880
1644155751.136439,-0.012878,0.006531,-0.992432,0.312458,0.462901,0.036947,58,274,580,4720
1644155751.184798,-0.013855,0.009277,-0.990112,0.510931,0.386565,-0.039389,53,269,578,4784
1644155751.233186,-0.010376,0.008911,-0.991943,0.388794,0.493435,-0.176794,48,274,585,4816
1644155751.281546,-0.012329,0.008667,-0.990967,0.342992,0.478168,-0.085191,45,275,582,4832
1644155751.329964,-0.011292,0.006653,-0.99115,0.205588,0.432366,-0.069924,52,273,572,4784
1644155751.378318,-0.011536,0.008057,-0.992065,0.281924,0.386565,-0.039389,47,268,572,4880
1644155751.426722,-0.013611,0.007996,-0.993286,0.404061,0.386565,-0.207328,41,266,576,4784
1644155751.475196,-0.010986,0.009705,-0.994385,0.220855,0.523969,-0.115725,52,280,575,4848
1644155751.523516,-0.012939,0.007202,-0.994263,0.312458,0.24916,-0.237863,49,275,572,4816
1644155751.571889,-0.010803,0.007935,-0.994446,0.297191,0.447634,-0.054656,57,270,579,4880
1644155751.62028,-0.011902,0.009583,-0.991699,0.297191,0.401832,-0.176794,54,273,572,4784
1644155751.668656,-0.011963,0.008728,-0.993835,0.327725,0.417099,-0.14626,42,277,572,4832
1644155751.717045,-0.013733,0.008667,-0.992371,0.251389,0.356031,-0.14626,47,275,579,4784
1644155751.765431,-0.010986,0.007019,-0.993042,0.220855,0.478168,-0.192061,54,275,577,4848
1644155751.813827,-0.013062,0.00769,-0.993225,0.175053,0.447634,-0.069924,52,280,575,4784
1644155751.862298,-0.014648,0.007385,-0.992798,0.251389,0.386565,-0.207328,53,279,569,4768
1644155751.911154,-0.010193,0.008545,-0.994263,0.190321,0.203359,-0.039389,47,280,570,4880
1644155751.961826,-0.013489,0.008789,-0.992493,0.236122,0.493435,-0.039389,54,275,570,4848
1644155752.060908,-0.011719,0.00946,-0.990173,0.327725,0.340763,-0.069924,43,266,576,4832
1644155752.104222,-0.013428,0.006836,-0.991089,0.35826,0.493435,-0.054656,58,276,564,4848
1644155752.152551,-0.009766,0.005737,-0.990784,0.175053,0.417099,-0.14626,48,269,569,4816
1644155752.200919,-0.012268,0.00647,-0.991638,0.312458,0.24916,-0.237863,49,275,572,4784
1644155752.249279,-0.010986,0.007507,-0.992126,0.419328,0.417099,-0.192061,55,269,571,4816
1644155752.297673,-0.011963,0.008362,-0.99353,0.251389,0.417099,-0.054656,45,275,570,4784
1644155752.346088,-0.01416,0.009155,-0.989868,0.251389,0.356031,0.006412,52,265,579,4832
1644155752.394479,-0.011169,0.010132,-0.992188,0.236122,0.356031,-0.176794,58,269,578,4880
1644155752.442868,-0.012817,0.007996,-0.99231,0.327725,0.447634,-0.008855,52,273,582,4880
1644155752.491254,-0.011719,0.00824,-0.99469,0.297191,0.478168,-0.008855,52,273,572,4848
1644155752.539631,-0.01355,0.007568,-0.991211,0.281924,0.462901,-0.085191,48,279,580,4896
1644155752.588014,-0.012207,0.006714,-0.992004,0.281924,0.401832,-0.024122,52,285,579,4720
1644155752.636393,-0.010925,0.008362,-0.99054,0.144519,0.401832,-0.207328,48,271,571,4880
1644155752.684794,-0.01239,0.007263,-0.992432,0.129252,0.310229,-0.14626,52,268,565,4720
1644155752.733193,-0.010254,0.006836,-0.992065,0.297191,0.371298,-0.283664,51,274,576,4832
1644155752.783288,-0.01239,0.007446,-0.990784,0.220855,0.432366,-0.115725,54,270,579,4848
1644155752.833323,-0.010376,0.009399,-0.993164,0.144519,0.493435,0.113282,55,269,573,4784
1644155752.879661,-0.010437,0.007263,-0.993225,0.175053,0.340763,0.036947,58,276,576,4720
1644155752.97542,-0.011963,0.009399,-0.990356,0.251389,0.401832,-0.192061,54,265,572,4816
1644155753.023551,-0.015564,0.008545,-0.993103,0.281924,0.401832,-0.039389,57,273,568,4848
1644155753.076077,-0.011353,0.010498,-0.992432,0.266656,0.523969,-0.069924,45,275,568,4896
1644155753.120273,-0.011597,0.007019,-0.994263,0.297191,0.294962,-0.100458,61,275,579,4848
1644155753.168638,-0.013367,0.007751,-0.993347,0.266656,0.340763,0.021679,47,277,572,4816
1644155753.217036,-0.013611,0.00769,-0.994202,0.175053,0.386565,-0.130992,53,276,571,4848
1644155753.265418,-0.014038,0.007996,-0.990967,0.312458,0.371298,-0.085191,46,281,571,4848
1644155753.313801,-0.012329,0.008423,-0.993103,0.236122,0.325496,-0.161527,45,280,577,4832
1644155753.362214,-0.013428,0.00885,-0.993042,0.251389,0.417099,-0.100458,51,283,571,4848
1644155753.410595,-0.011963,0.007629,-0.992188,0.190321,0.401832,-0.14626,47,277,570,4848
1644155753.458983,-0.013916,0.007751,-0.993591,0.251389,0.386565,-0.192061,52,275,575,4848
1644155753.507374,-0.010925,0.006165,-0.994812,0.068183,0.523969,-0.100458,54,268,577,4880
1644155753.555728,-0.015564,0.006592,-0.99292,0.159786,0.508702,-0.192061,53,271,573,4832
1644155753.604157,-0.010315,0.006165,-0.993713,0.281924,0.493435,-0.25313,51,266,571,4752
1644155753.652535,-0.012268,0.010254,-0.993103,0.373527,0.310229,-0.008855,60,276,590,4848
1644155753.700904,-0.010376,0.007751,-0.991272,0.342992,0.432366,0.006412,51,269,580,4848
1644155753.749306,-0.01355,0.007263,-0.991089,0.297191,0.417099,-0.14626,43,279,573,4816
1644155753.797696,-0.009583,0.007263,-0.99176,0.205588,0.294962,-0.130992,45,270,577,4848
1644155753.846122,-0.014282,0.007446,-0.991699,0.144519,0.432366,-0.054656,46,271,576,4720
1644155753.895282,-0.012024,0.009399,-0.992126,0.190321,0.462901,-0.039389,60,276,576,4880
1644155753.945534,-0.00946,0.007202,-0.991028,0.190321,0.356031,-0.268397,51,276,573,4880
1644155753.99584,-0.011902,0.008728,-0.99115,0.190321,0.417099,-0.024122,48,274,576,4832
1644155754.040868,-0.01239,0.009216,-0.992065,0.159786,0.432366,0.021679,47,275,572,4848
1644155754.136377,-0.012756,0.008118,-0.98999,0.236122,0.325496,-0.161527,41,269,578,4784
1644155754.184852,-0.012634,0.006409,-0.991943,0.159786,0.24916,-0.085191,42,270,565,4816
1644155754.233175,-0.013611,0.009338,-0.992981,0.129252,0.325496,-0.25313,45,273,565,4848
1644155754.281535,-0.01416,0.009766,-0.993103,0.144519,0.417099,-0.207328,52,268,565,4816
1644155754.329977,-0.009888,0.011169,-0.990356,0.556733,0.462901,-0.176794,45,277,577,4720
1644155754.378323,-0.011475,0.007996,-0.991455,0.236122,0.447634,-0.054656,46,281,573,4896
1644155754.426709,-0.011292,0.007812,-0.996033,0.220855,0.371298,0.052214,53,269,583,4784
1644155754.475117,-0.010071,0.010193,-0.992737,0.205588,0.554504,-0.039389,55,274,576,4880
1644155754.523505,-0.013306,0.008789,-0.990784,0.35826,0.325496,-0.085191,36,281,576,4752
1644155754.571878,-0.011719,0.008484,-0.991516,0.388794,0.493435,0.006412,53,271,573,4816
1644155754.620254,-0.011597,0.010498,-0.994385,0.281924,0.508702,-0.161527,51,269,578,4832
1644155754.668629,-0.010132,0.009033,-0.994568,0.266656,0.417099,-0.069924,53,281,576,4848
1644155754.717042,-0.010254,0.012024,-0.991272,0.434595,0.493435,-0.100458,53,266,578,4848
1644155754.765424,-0.011536,0.007263,-0.993713,0.327725,0.493435,0.021679,49,263,579,4784
1644155754.813869,-0.012146,0.008606,-0.993164,0.205588,0.539237,-0.207328,52,273,584,4848
1644155754.862252,-0.012756,0.008728,-0.992126,0.220855,0.310229,0.113282,59,270,579,4752
1644155754.910617,-0.012268,0.007751,-0.994873,0.190321,0.432366,-0.161527,51,276,576,4848
1644155754.959003,-0.010437,0.007629,-0.993408,0.266656,0.417099,-0.130992,51,274,587,4816
1644155755.007428,-0.011902,0.008911,-0.990723,0.236122,0.462901,-0.115725,48,276,583,4848
1644155755.077133,-0.012573,0.010376,-0.992737,0.220855,0.417099,-0.25313,48,266,585,4784
1644155755.152506,-0.01416,0.009094,-0.993286,0.342992,0.447634,-0.069924,51,269,576,4768
1644155755.200896,-0.012329,0.009277,-0.989258,0.281924,0.478168,0.067481,54,268,577,4848
1644155755.249261,-0.011963,0.008911,-0.991272,0.236122,0.432366,-0.207328,59,275,572,4816
1644155755.297659,-0.011841,0.008545,-0.99176,0.113985,0.493435,-0.192061,49,277,579,4848
1644155755.346066,-0.013062,0.006775,-0.991699,0.297191,0.478168,-0.14626,51,266,571,4704
1644155755.394451,-0.011047,0.011719,-0.99115,0.190321,0.386565,-0.008855,52,273,572,4848
1644155755.44286,-0.013916,0.00946,-0.989746,0.205588,0.447634,-0.115725,47,277,572,4848
1644155755.491243,-0.012573,0.008118,-0.992798,0.266656,0.401832,-0.054656,54,273,570,4848
1644155755.539617,-0.00885,0.007507,-0.991638,0.327725,0.676641,-0.085191,49,268,575,4752
1644155755.587996,-0.010315,0.007446,-0.990173,0.205588,0.478168,-0.085191,64,282,575,4848
1644155755.63638,-0.011353,0.007568,-0.990112,0.312458,0.356031,-0.222595,41,276,573,4784
1644155755.684796,-0.009888,0.011353,-0.990723,0.159786,0.386565,0.021679,57,277,579,4848
1644155755.733177,-0.011719,0.009338,-0.994568,0.281924,0.478168,-0.176794,57,282,565,4832
1644155755.781544,-0.009705,0.009949,-0.991028,0.236122,0.539237,-0.085191,42,275,579,4848
1644155755.829978,-0.011963,0.010803,-0.99054,0.251389,0.539237,-0.176794,45,277,575,4816
1644155755.878327,-0.014343,0.009827,-0.989624,0.159786,0.417099,-0.100458,40,275,568,4816
1644155755.92676,-0.011353,0.008301,-0.991211,0.373527,0.325496,-0.115725,46,262,571,4816
1644155755.975198,-0.012024,0.008911,-0.991333,0.236122,0.310229,-0.054656,48,283,580,4848
1644155756.023555,-0.011475,0.010437,-0.993713,0.236122,0.294962,-0.085191,42,273,570,4720
1644155756.084413,-0.010803,0.00946,-0.993103,0.327725,0.401832,-0.161527,49,287,575,4832
1644155756.122748,-0.016113,0.006287,-0.989502,0.236122,0.432366,-0.039389,40,273,575,4832
1644155756.171986,-0.011108,0.008789,-0.994202,0.419328,0.356031,-0.069924,53,276,571,4880
1644155756.21764,-0.014465,0.00824,-0.992065,0.342992,0.554504,-0.054656,60,283,573,4848
1644155756.313796,-0.010559,0.008606,-0.993286,0.236122,0.417099,-0.100458,47,265,579,4720
1644155756.362388,-0.012085,0.006958,-0.991882,0.220855,0.523969,0.036947,46,274,580,4816
1644155756.410561,-0.010986,0.010498,-0.995483,0.251389,0.462901,-0.085191,58,274,576,4832
1644155756.45896,-0.013489,0.002869,-0.994324,0.281924,0.523969,-0.069924,53,276,580,4784
1644155756.507318,-0.011353,0.00824,-0.991516,0.327725,0.523969,-0.054656,48,271,573,4848
1644155756.555728,-0.010742,0.007935,-0.991333,0.327725,0.386565,-0.192061,53,266,580,4848
1644155756.604125,-0.012085,0.010315,-0.993958,0.388794,0.432366,-0.237863,51,286,583,4848
1644155756.652529,-0.012878,0.006409,-0.990601,0.236122,0.432366,-0.130992,48,274,578,4848
1644155756.700902,-0.015869,0.010376,-0.994507,0.342992,0.417099,-0.14626,47,273,572,4816
1644155756.749259,-0.010681,0.007935,-0.992737,0.266656,0.447634,-0.069924,45,270,565,4832
1644155756.797674,-0.013489,0.00885,-0.993774,0.144519,0.447634,0.036947,53,271,569,4848
1644155756.846098,-0.011719,0.00824,-0.990662,0.266656,0.401832,-0.069924,49,273,575,4816
1644155756.894477,-0.01355,0.009705,-0.995239,0.312458,0.417099,-0.14626,49,277,579,4848
1644155756.942895,-0.01178,0.010437,-0.993774,0.342992,0.417099,-0.222595,43,266,578,4848
1644155756.991257,-0.013,0.009338,-0.991882,0.404061,0.432366,-0.008855,59,280,570,4880
1644155757.039613,-0.01239,0.007202,-0.992554,0.144519,0.294962,-0.237863,53,269,571,4848
1644155757.094107,-0.014038,0.007874,-0.992798,0.312458,0.462901,-0.100458,41,269,576,4784
1644155757.136344,-0.011475,0.006409,-0.994812,0.251389,0.371298,-0.176794,55,276,578,4784
1644155757.184772,-0.013855,0.009644,-0.994629,0.327725,0.386565,-0.008855,52,275,582,4832
1644155757.233345,-0.01178,0.008911,-0.994263,0.251389,0.401832,-0.161527,51,276,576,4848
1644155757.284338,-0.012634,0.00824,-0.990601,0.190321,0.615573,0.006412,55,269,580,4784
1644155757.333929,-0.013184,0.008423,-0.991943,0.190321,0.478168,-0.161527,43,281,571,4880
1644155757.379434,-0.011536,0.009644,-0.99353,0.236122,0.294962,-0.024122,42,268,579,4848
1644155757.475322,-0.011597,0.009338,-0.991333,0.297191,0.264427,-0.069924,55,266,576,4880
1644155757.523481,-0.010376,0.005798,-0.989502,0.266656,0.386565,-0.039389,48,269,564,4880
1644155757.571842,-0.013611,0.008484,-0.992798,0.281924,0.386565,-0.100458,55,269,578,4880
1644155757.620237,-0.010864,0.009033,-0.990967,0.266656,0.432366,-0.069924,48,269,580,4816
1644155757.668625,-0.010437,0.010986,-0.992371,0.220855,0.432366,-0.100458,46,283,571,4784
1644155757.717059,-0.013184,0.008118,-0.991089,0.175053,0.325496,-0.039389,53,271,569,4752
1644155757.76537,-0.010315,0.007935,-0.993591,0.113985,0.432366,-0.176794,51,274,573,4848
1644155757.813795,-0.013672,0.007812,-0.992188,0.129252,0.478168,-0.268397,48,279,571,4880
1644155757.862242,-0.013184,0.012329,-0.992859,0.220855,0.417099,-0.100458,49,275,565,4816
1644155757.910608,-0.010376,0.00592,-0.995178,0.388794,0.432366,-0.008855,60,271,571,4848
1644155757.959008,-0.011414,0.008362,-0.991577,0.373527,0.401832,-0.069924,57,270,575,4848
1644155758.007373,-0.010681,0.00885,-0.990662,0.190321,0.462901,-0.100458,49,280,565,4848
1644155758.064795,-0.011597,0.00946,-0.993103,0.251389,0.340763,-0.192061,61,275,577,4848
1644155758.104202,-0.011536,0.010193,-0.991272,0.266656,0.386565,-0.115725,47,263,575,4848
1644155758.152522,-0.012573,0.009766,-0.991089,0.342992,0.478168,-0.14626,53,281,573,4848
1644155758.200889,-0.010742,0.009094,-0.992004,0.266656,0.371298,-0.176794,43,269,571,4784
1644155758.249271,-0.010864,0.008362,-0.991455,0.236122,0.371298,-0.039389,55,279,573,4848
1644155758.29766,-0.012024,0.007935,-0.99231,0.312458,0.432366,-0.14626,49,282,572,4832
1644155758.346056,-0.01062,0.008423,-0.994812,0.266656,0.417099,-0.176794,45,275,579,4816
1644155758.394446,-0.010986,0.011047,-0.992493,0.220855,0.401832,-0.115725,41,274,573,4880
1644155758.444218,-0.01123,0.007996,-0.992371,0.205588,0.401832,-0.085191,57,277,577,4816
1644155758.495427,-0.012024,0.009705,-0.992493,0.251389,0.417099,-0.176794,41,266,573,4816
1644155758.540207,-0.011597,0.006226,-0.98999,0.342992,0.356031,-0.176794,52,270,577,4832
1644155758.636346,-0.010559,0.006714,-0.993958,0.251389,0.417099,-0.161527,46,274,573,4784
1644155758.684853,-0.012634,0.006958,-0.990784,0.266656,0.462901,-0.14626,49,270,572,4880
1644155758.733153,-0.010803,0.01001,-0.99115,0.266656,0.401832,-0.161527,48,271,571,4720
1644155758.781521,-0.013184,0.009338,-0.992371,0.205588,0.417099,-0.14626,41,279,578,4880
1644155758.829908,-0.014587,0.011292,-0.994202,0.205588,0.447634,-0.054656,61,273,575,4848
1644155758.878349,-0.011597,0.011475,-0.993958,0.266656,0.417099,-0.192061,53,276,571,4816
1644155758.926705,-0.013672,0.009521,-0.992981,0.068183,0.523969,-0.069924,42,268,579,4832
1644155758.975136,-0.011963,0.010193,-0.992981,0.190321,0.310229,-0.069924,47,282,572,4720
1644155759.023488,-0.012878,0.009338,-0.992737,0.220855,0.478168,-0.054656,48,269,566,4832
1644155759.084397,-0.012573,0.009766,-0.990112,0.052916,0.493435,-0.024122,48,271,573,4848
1644155759.120272,-0.007568,0.008057,-0.99054,0.205588,0.508702,-0.069924,47,282,570,4816
1644155759.16863,-0.013306,0.011719,-0.990845,0.312458,0.310229,-0.069924,49,273,568,4832
1644155759.217005,-0.011475,0.009094,-0.990906,0.281924,0.401832,-0.14626,54,270,575,4784
1644155759.265378,-0.011719,0.009399,-0.98999,0.35826,0.554504,-0.283664,55,271,569,4848
1644155759.313792,-0.008118,0.009949,-0.988281,0.342992,0.508702,-0.100458,67,279,580,4784
1644155759.36219,-0.008911,0.008911,-0.992004,0.190321,0.340763,-0.039389,49,277,577,4816
1644155759.410553,-0.013123,0.009033,-0.993958,0.388794,0.493435,-0.024122,53,271,578,4848
1644155759.458941,-0.011597,0.009827,-0.990723,0.266656,0.356031,-0.008855,48,266,580,4848
1644155759.507396,-0.010986,0.009888,-0.993042,0.312458,0.417099,-0.054656,48,271,578,4848
1644155759.55681,-0.010376,0.008118,-0.991882,0.205588,0.401832,-0.069924,58,274,569,4880
1644155759.607053,-0.011047,0.009521,-0.989014,0.129252,0.417099,0.006412,43,279,571,4880
1644155759.657436,-0.01239,0.008972,-0.989868,0.205588,0.447634,-0.161527,45,270,575,4848
1644155759.749254,-0.012939,0.007263,-0.992798,0.297191,0.462901,-0.085191,53,269,576,4720
1644155759.797638,-0.012085,0.006226,-0.992676,0.266656,0.432366,-0.237863,49,273,568,4832
1644155759.846023,-0.010803,0.008789,-0.990784,0.35826,0.539237,-0.161527,53,271,571,4848
1644155759.89448,-0.009216,0.007935,-0.990112,0.236122,0.493435,-0.100458,51,283,569,4816
1644155759.942833,-0.012085,0.008728,-0.993347,0.434595,0.478168,-0.069924,55,262,571,4896
1644155759.991239,-0.012695,0.011353,-0.992737,0.297191,0.508702,-0.039389,45,273,554,4848
1644155760.039639,-0.010803,0.010803,-0.992004,0.388794,0.401832,-0.161527,46,269,571,4848
1644155760.088097,-0.010803,0.008423,-0.991028,0.266656,0.310229,-0.161527,53,276,576,4880
1644155760.136399,-0.012451,0.008301,-0.994202,0.388794,0.233893,0.082748,47,270,575,4784
1644155760.184815,-0.014221,0.009521,-0.994568,0.312458,0.417099,-0.25313,58,276,571,4816
1644155760.233202,-0.011963,0.010071,-0.993896,0.220855,0.493435,-0.161527,52,270,568,4880
1644155760.281557,-0.009033,0.007874,-0.993286,0.266656,0.371298,-0.069924,47,280,579,4816
1644155760.32996,-0.011108,0.007996,-0.992249,0.251389,0.340763,-0.14626,53,266,576,4848
1644155760.378344,-0.013977,0.008484,-0.993958,0.35826,0.585038,-0.054656,48,271,578,4848
1644155760.426704,-0.01355,0.009521,-0.991516,0.251389,0.554504,-0.130992,57,270,563,4816
1644155760.475469,-0.014954,0.008484,-0.995544,0.236122,0.523969,-0.14626,53,274,566,4816
1644155760.523806,-0.01239,0.006165,-0.993469,0.220855,0.310229,-0.054656,48,274,566,4848
1644155760.574358,-0.011841,0.006531,-0.991028,0.297191,0.401832,-0.069924,53,276,571,4848
1644155760.624393,-0.012695,0.008179,-0.993469,0.251389,0.340763,-0.085191,49,273,575,4784
1644155760.669579,-0.010864,0.008301,-0.993958,0.159786,0.447634,-0.192061,53,266,578,4816
1644155760.765471,-0.00946,0.004517,-0.993225,0.220855,0.401832,-0.222595,51,276,569,4816
1644155760.813833,-0.010315,0.00708,-0.994263,0.266656,0.493435,-0.14626,55,281,573,4848
1644155760.862438,-0.014038,0.010559,-0.992798,0.342992,0.447634,-0.008855,47,277,570,4720
1644155760.910578,-0.015015,0.007324,-0.991638,0.35826,0.569771,-0.176794,62,274,571,4832
1644155760.958978,-0.012207,0.008667,-0.993347,0.327725,0.508702,-0.085191,55,266,571,4880
1644155761.007345,-0.012085,0.007812,-0.992249,0.190321,0.554504,-0.100458,53,259,562,4848
1644155761.068599,-0.012207,0.007812,-0.990112,0.266656,0.462901,-0.100458,51,271,578,4848
1644155761.104149,-0.010864,0.006592,-0.993835,0.281924,0.554504,-0.222595,57,268,568,4848
1644155761.152533,-0.011108,0.009888,-0.989624,0.281924,0.462901,0.021679,57,268,579,4720
1644155761.200924,-0.014099,0.007324,-0.995972,0.159786,0.462901,-0.115725,64,280,570,4784
1644155761.249302,-0.010986,0.005676,-0.992371,0.327725,0.539237,-0.222595,47,275,577,4816
1644155761.2977,-0.010254,0.00885,-0.992126,0.190321,0.371298,-0.161527,42,275,579,4816
1644155761.346075,-0.013916,0.009338,-0.991638,0.373527,0.371298,-0.192061,45,280,575,4832
1644155761.394455,-0.012268,0.010132,-0.995239,0.220855,0.478168,-0.024122,42,270,561,4816
1644155761.442856,-0.013855,0.009827,-0.992249,0.190321,0.569771,-0.130992,55,281,578,4848
1644155761.491235,-0.010864,0.010498,-0.989868,0.419328,0.462901,-0.008855,54,282,577,4848
1644155761.539602,-0.012024,0.010376,-0.994263,0.159786,0.508702,0.006412,57,273,572,4848
1644155761.588029,-0.012939,0.01062,-0.99353,0.35826,0.478168,-0.115725,41,269,576,4832
1644155761.636482,-0.01355,0.008057,-0.99353,0.236122,0.478168,-0.085191,48,264,571,4848
1644155761.686874,-0.012085,0.008423,-0.99353,0.159786,0.462901,-0.100458,55,271,580,4832
1644155761.737144,-0.012512,0.00885,-0.994934,0.327725,0.356031,-0.039389,51,271,583,4832
1644155761.782267,-0.013184,0.008423,-0.990295,0.159786,0.432366,-0.130992,52,273,568,4848
1644155761.878324,-0.015747,0.008484,-0.991882,0.190321,0.401832,-0.237863,46,271,566,4784
1644155761.926701,-0.011353,0.010315,-0.993042,0.327725,0.478168,-0.100458,59,273,572,4832
1644155761.975139,-0.012756,0.006226,-0.992554,0.129252,0.539237,-0.039389,45,277,575,4816
1644155762.023501,-0.011108,0.00592,-0.992798,0.266656,0.386565,-0.130992,42,270,565,4848
1644155762.072012,-0.013489,0.010376,-0.992249,0.251389,0.478168,-0.14626,49,270,575,4848
1644155762.120219,-0.010803,0.009338,-0.994873,-0.008153,0.523969,-0.100458,43,269,564,4816
1644155762.168601,-0.010864,0.010986,-0.9953,0.098718,0.386565,-0.130992,53,269,580,4752
1644155762.217,-0.014771,0.008057,-0.992493,0.281924,0.462901,-0.054656,48,271,573,4848
1644155762.265368,-0.011719,0.008484,-0.995361,0.281924,0.310229,-0.14626,52,263,568,4832
1644155762.313787,-0.013306,0.007202,-0.994019,0.404061,0.554504,-0.14626,53,274,566,4816
1644155762.362238,-0.014038,0.009216,-0.992371,0.08345,0.432366,-0.115725,45,275,570,4816
1644155762.410541,-0.011658,0.007629,-0.993347,0.266656,0.447634,-0.100458,46,271,578,4848
1644155762.458924,-0.012451,0.007385,-0.990906,0.281924,0.447634,0.021679,42,268,572,4784
1644155762.507297,-0.009949,0.010193,-0.994629,0.266656,0.356031,-0.176794,46,264,571,4720
1644155762.555708,-0.011719,0.009705,-0.993774,0.175053,0.493435,-0.039389,52,277,572,4816
1644155762.604066,-0.011963,0.009094,-0.991333,0.388794,0.294962,-0.161527,41,274,569,4816
1644155762.652494,-0.009155,0.009399,-0.992859,0.159786,0.462901,0.036947,43,266,573,4848
1644155762.700882,-0.011963,0.008057,-0.99408,0.144519,0.447634,-0.14626,46,286,580,4848
1644155762.749284,-0.012512,0.007324,-0.992676,0.388794,0.417099,0.067481,49,273,575,4880
1644155762.800616,-0.012634,0.007812,-0.990845,0.144519,0.462901,-0.100458,59,270,577,4848
1644155762.850839,-0.012329,0.008606,-0.995178,0.205588,0.462901,0.021679,48,276,564,4848
1644155762.896032,-0.008972,0.008057,-0.994141,0.266656,0.386565,-0.14626,49,270,568,4752
1644155762.991226,-0.012085,0.009949,-0.995605,0.251389,0.401832,-0.024122,48,271,569,4848
1644155763.039602,-0.010498,0.009583,-0.991882,0.266656,0.417099,-0.130992,61,270,568,4896
1644155763.091819,-0.010864,0.007935,-0.993042,0.266656,0.371298,-0.100458,49,268,565,4848
1644155763.136346,-0.013916,0.009033,-0.990173,0.220855,0.386565,-0.054656,53,279,571,4784
1644155763.184772,-0.011597,0.008911,-0.989929,0.312458,0.356031,-0.161527,52,273,568,4816
1644155763.233106,-0.011292,0.012085,-0.991516,0.236122,0.432366,-0.069924,49,275,579,4848
1644155763.281489,-0.010803,0.011536,-0.992798,0.312458,0.417099,-0.024122,49,273,575,4832
1644155763.329889,-0.010803,0.009277,-0.992737,0.220855,0.462901,-0.100458,54,275,577,4816
1644155763.37829,-0.01062,0.005737,-0.992554,0.175053,0.478168,-0.085191,48,271,571,4784
1644155763.426668,-0.01123,0.010864,-0.991089,0.129252,0.401832,0.006412,59,273,575,4784
1644155763.475115,-0.013489,0.009033,-0.994385,0.312458,0.417099,-0.115725,52,273,575,4784
1644155763.523449,-0.011108,0.009216,-0.990723,0.35826,0.447634,0.021679,46,281,576,4816
1644155763.571861,-0.01239,0.006958,-0.995728,0.236122,0.356031,-0.085191,54,265,575,4832
1644155763.621615,-0.008301,0.007507,-0.993896,0.205588,0.310229,-0.100458,64,280,579,4848
1644155763.671952,-0.012756,0.009583,-0.992493,0.251389,0.417099,-0.161527,54,265,575,4848
1644155763.717515,-0.011658,0.009888,-0.994507,0.205588,0.294962,-0.100458,54,273,563,4832
1644155763.813788,-0.012939,0.011169,-0.994751,0.266656,0.478168,-0.130992,52,270,570,4848
1644155763.862422,-0.012207,0.008667,-0.993408,0.205588,0.493435,0.067481,52,270,570,4848
1644155763.910569,-0.014832,0.007324,-0.995483,0.190321,0.508702,-0.192061,45,260,568,4784
1644155763.958964,-0.012634,0.008606,-0.991577,0.205588,0.523969,-0.237863,52,275,561,4832
1644155764.007325,-0.012695,0.009277,-0.992371,0.251389,0.432366,-0.130992,53,279,569,4784
1644155764.066051,-0.011292,0.008118,-0.992798,0.35826,0.310229,-0.14626,51,276,571,4848
1644155764.104158,-0.010315,0.008484,-0.99353,0.342992,0.356031,-0.192061,51,276,573,4880
1644155764.152489,-0.015503,0.007874,-0.991638,0.404061,0.447634,-0.069924,47,273,579,4848
1644155764.200862,-0.009949,0.007874,-0.993286,0.022382,0.417099,-0.14626,49,265,565,4784
1644155764.249228,-0.012695,0.007568,-0.989258,0.190321,0.340763,-0.085191,39,274,573,4832
1644155764.297603,-0.013611,0.00647,-0.991089,0.236122,0.523969,0.052214,60,279,576,4832
1644155764.346018,-0.013489,0.011841,-0.992859,0.205588,0.401832,-0.25313,53,266,583,4880
1644155764.394422,-0.009033,0.008118,-0.990662,0.342992,0.462901,-0.008855,43,271,571,4720
1644155764.442811,-0.012268,0.008179,-0.991455,0.220855,0.462901,-0.054656,53,271,566,4848
1644155764.491167,-0.012634,0.009155,-0.993896,0.342992,0.447634,-0.222595,51,271,576,4816
1644155764.539545,-0.015137,0.00885,-0.993286,0.281924,0.462901,0.067481,65,269,564,4880
1644155764.587955,-0.013611,0.009094,-0.993835,0.312458,0.401832,-0.161527,54,277,577,4880
1644155764.636337,-0.011841,0.008728,-0.994019,0.312458,0.417099,-0.085191,51,271,571,4784
1644155764.684741,-0.012817,0.010559,-0.991638,0.404061,0.386565,-0.085191,48,279,569,4720
1644155764.733297,-0.010315,0.008301,-0.992981,0.113985,0.264427,-0.207328,53,271,573,4784
1644155764.783831,-0.013062,0.010132,-0.99176,0.236122,0.401832,-0.054656,57,268,572,4784
1644155764.833932,-0.011108,0.00824,-0.992249,0.312458,0.279695,-0.100458,42,277,561,4816
1644155764.92668,-0.010803,0.012817,-0.992493,0.312458,0.325496,-0.192061,60,266,573,4720
1644155764.975335,-0.015259,0.009521,-0.991821,0.388794,0.340763,-0.100458,53,266,578,4784
1644155765.023464,-0.009216,0.009338,-0.991516,0.297191,0.340763,-0.115725,46,266,571,4848
1644155765.071952,-0.012451,0.011108,-0.991455,0.266656,0.432366,-0.100458,49,277,572,4784
1644155765.120213,-0.012878,0.009094,-0.99292,0.419328,0.432366,-0.176794,46,274,569,4832
1644155765.168601,-0.012024,0.008911,-0.991943,0.388794,0.539237,-0.024122,55,271,578,4848
1644155765.216971,-0.011108,0.008057,-0.995117,0.098718,0.386565,-0.069924,59,268,577,4848
1644155765.26536,-0.013062,0.005798,-0.993286,0.144519,0.462901,-0.039389,51,281,564,4880
1644155765.313753,-0.01416,0.004395,-0.993652,0.159786,0.386565,-0.085191,49,260,575,4880
1644155765.362227,-0.012146,0.009277,-0.995422,0.327725,0.447634,-0.100458,53,274,569,4880
1644155765.410538,-0.006653,0.001526,-0.995239,0.297191,0.325496,-0.100458,51,274,571,4848
1644155765.45892,-0.011292,0.003479,-0.992981,0.572,0.569771,-0.192061,60,276,580,4880
1644155765.507282,-0.013733,0.005798,-0.990356,0.190321,0.325496,-0.161527,40,280,579,4752
1644155765.555665,-0.00354,0.010681,-0.988892,0.205588,0.356031,-0.069924,52,270,579,4848
1644155765.604078,-0.015198,0.007568,-0.989075,0.236122,0.569771,0.052214,53,264,580,4848
1644155765.652483,-0.002991,0.010193,-0.992188,0.175053,0.325496,-0.237863,55,269,571,4784
1644155765.70085,-0.015747,0.020752,-0.985901,0.526198,0.752977,-0.085191,47,273,565,4816
1644155765.749241,-0.011597,0.014893,-0.98822,-0.099756,0.233893,-0.222595,51,269,580,4784
1644155765.799049,-0.002075,0.008118,-0.994202,0.388794,0.432366,-0.237863,43,269,573,4880
1644155765.849426,-0.014099,0.005249,-0.994507,0.46513,0.539237,0.006412,45,268,575,4896
1644155765.894797,-0.025452,0.003906,-0.990845,0.205588,0.493435,-0.130992,55,269,573,4848
1644155765.99122,-0.016479,0.017883,-0.991028,0.281924,0.371298,-0.085191,40,265,572,4784
1644155766.039608,-0.013794,0.010925,-0.993835,0.373527,0.462901,-0.130992,54,268,577,4848
1644155766.088184,-0.013184,0.004456,-0.994995,0.404061,0.386565,-0.161527,55,269,571,4816
1644155766.136376,-0.012512,0.007019,-0.990356,0.35826,0.554504,-0.268397,57,273,568,4816
1644155766.184726,-0.013245,0.010681,-0.990662,0.236122,0.24916,-0.100458,49,265,572,4880
1644155766.233114,-0.010437,0.010132,-0.992737,0.175053,0.462901,-0.130992,57,277,579,4848
1644155766.281464,-0.013672,0.010437,-0.991577,0.281924,0.447634,-0.069924,60,279,578,4848
1644155766.329874,-0.010925,0.006653,-0.994812,0.342992,0.493435,0.006412,46,271,573,4752
1644155766.378227,-0.011047,0.007019,-0.995544,0.190321,0.371298,-0.14626,45,275,572,4880
1644155766.426645,-0.011719,0.008057,-0.993347,0.190321,0.462901,0.036947,52,270,579,4880
1644155766.475074,-0.010803,0.007202,-0.991028,0.205588,0.417099,-0.100458,48,274,569,4784
1644155766.523438,-0.013489,0.008789,-0.99115,0.190321,0.417099,-0.008855,52,265,570,4784
1644155766.571813,-0.013306,0.008118,-0.994446,0.190321,0.432366,0.006412,51,269,573,4848
1644155766.621707,-0.01355,0.008667,-0.993408,0.144519,0.371298,-0.268397,52,273,572,4848
1644155766.672069,-0.012634,0.008118,-0.991516,0.266656,0.417099,-0.069924,49,268,579,4848
1644155766.71774,-0.013367,0.007812,-0.99054,0.327725,0.447634,-0.100458,53,274,566,4848
1644155766.813756,-0.010925,0.008301,-0.992126,0.312458,0.462901,-0.130992,53,271,576,4784
1644155766.862646,-0.011475,0.006165,-0.990723,0.190321,0.539237,-0.176794,57,270,582,4784
1644155766.910566,-0.012268,0.007812,-0.991699,0.205588,0.310229,-0.268397,55,271,569,4848
1644155766.958946,-0.013123,0.005371,-0.994995,0.205588,0.493435,-0.069924,46,276,573,4848
1644155767.007311,-0.013367,0.006897,-0.992126,0.266656,0.417099,-0.207328,54,265,582,4832
1644155767.061444,-0.010315,0.007507,-0.991394,0.220855,0.340763,-0.008855,51,269,583,4896
1644155767.104105,-0.011169,0.007263,-0.993469,0.297191,0.462901,-0.024122,55,269,580,4816
1644155767.15251,-0.010132,0.008545,-0.993408,0.205588,0.371298,-0.039389,46,274,578,4848
1644155767.200873,-0.010925,0.009277,-0.994446,0.236122,0.386565,-0.161527,58,271,573,4848
1644155767.249232,-0.011353,0.006592,-0.993896,0.190321,0.386565,-0.039389,48,276,580,4784
