epoch,acc_x,acc_y,acc_z,rot_x,rot_y,rot_z,mag_x,mag_y,mag_z,temp
1644190500.040433,-0.009644,0.008728,-0.990173,0.327725,0.432366,-0.085191,58,271,580,6176
1644190500.088899,-0.006226,0.010254,-0.990845,0.373527,0.447634,-0.100458,45,282,582,6240
1644190500.13722,-0.006409,0.009277,-0.992065,0.190321,0.417099,-0.054656,57,282,584,6224
1644190500.185646,-0.006042,0.01062,-0.992676,0.190321,0.371298,-0.069924,58,274,592,6112
1644190500.234032,-0.00824,0.009888,-0.992676,0.205588,0.340763,-0.069924,54,275,586,6192
1644190500.283976,-0.006592,0.00824,-0.990906,0.342992,0.462901,-0.14626,48,274,585,6224
1644190500.334002,-0.009705,0.008728,-0.991821,0.190321,0.417099,-0.115725,43,276,583,6240
1644190500.384219,-0.00769,0.009644,-0.98999,0.388794,0.523969,-0.085191,46,281,578,6288
1644190500.428771,-0.006104,0.010559,-0.989563,0.159786,0.386565,-0.039389,46,281,590,6256
1644190500.524366,-0.010803,0.011597,-0.993958,0.220855,0.447634,-0.054656,49,282,584,6240
1644190500.572758,-0.00769,0.009399,-0.992615,0.129252,0.325496,0.006412,52,273,575,6192
1644190500.621143,-0.009338,0.009705,-0.990845,0.190321,0.447634,-0.024122,53,269,585,6160
1644190500.669545,-0.009644,0.010559,-0.990356,0.175053,0.508702,0.021679,58,274,583,6256
1644190500.717913,-0.010376,0.01001,-0.99353,0.236122,0.356031,0.052214,43,276,587,6240
1644190500.76632,-0.006287,0.011292,-0.989014,0.129252,0.447634,0.006412,53,281,580,6224
1644190500.814724,-0.01001,0.009766,-0.991699,0.35826,0.585038,-0.222595,49,270,589,6240
1644190500.863135,-0.006165,0.010559,-0.991638,0.236122,0.401832,-0.024122,51,279,583,6224
1644190500.911516,-0.006226,0.009033,-0.990662,0.190321,0.294962,-0.039389,51,281,587,6240
1644190500.959904,-0.007935,0.01123,-0.991638,0.266656,0.371298,-0.100458,52,263,586,6288
1644190501.008294,-0.005737,0.00885,-0.992676,0.312458,0.478168,0.098015,48,283,587,6160
1644190501.065318,-0.007568,0.009766,-0.994751,0.175053,0.478168,0.036947,30,273,590,6176
1644190501.10509,-0.008118,0.010925,-0.991882,0.190321,0.24916,-0.115725,55,279,583,6192
1644190501.153444,-0.006104,0.012146,-0.991455,0.068183,0.233893,-0.115725,59,270,589,6192
1644190501.201826,-0.005615,0.007996,-0.990112,0.251389,0.447634,-0.192061,49,273,586,6240
1644190501.250218,-0.010071,0.01062,-0.99292,0.281924,0.371298,-0.069924,55,276,585,6224
1644190501.298601,-0.009277,0.011108,-0.99176,0.251389,0.417099,0.036947,41,266,585,6176
1644190501.346976,-0.007812,0.010681,-0.993591,0.113985,0.371298,0.006412,51,286,594,6256
1644190501.395393,-0.007996,0.011719,-0.991272,0.175053,0.325496,0.006412,40,275,589,6240
1644190501.443805,-0.009827,0.01062,-0.988464,0.175053,0.401832,-0.115725,54,280,579,6240
1644190501.494561,-0.007996,0.010437,-0.993286,0.205588,0.356031,-0.130992,48,274,587,6240
1644190501.544309,-0.009155,0.010193,-0.992126,0.220855,0.417099,-0.222595,41,266,585,6192
1644190501.589512,-0.00647,0.011108,-0.992676,0.159786,0.432366,-0.176794,53,274,580,6224
1644190501.685741,-0.010742,0.011047,-0.995178,0.129252,0.401832,-0.069924,48,281,580,6192
1644190501.734171,-0.009094,0.011902,-0.991028,0.35826,0.356031,0.067481,47,273,577,6256
1644190501.782552,-0.010803,0.009277,-0.990479,0.205588,0.432366,-0.039389,53,269,590,6224
1644190501.830977,-0.007568,0.007629,-0.993652,0.098718,0.493435,-0.069924,54,282,586,6256
1644190501.879365,-0.008545,0.009705,-0.993896,0.037649,0.478168,-0.008855,49,273,582,6224
1644190501.927773,-0.011658,0.009583,-0.993164,0.297191,0.569771,0.021679,40,280,586,6256
1644190501.976125,-0.009277,0.010559,-0.991638,0.220855,0.325496,0.052214,48,271,573,6176
1644190502.02454,-0.009277,0.010925,-0.989929,0.159786,0.493435,-0.100458,48,276,585,6256
1644190502.074965,-0.011841,0.007629,-0.991272,0.251389,0.325496,-0.069924,51,281,587,6256
1644190502.121306,-0.005615,0.010742,-0.990417,0.098718,0.371298,-0.008855,53,279,592,6176
1644190502.169681,-0.009827,0.009399,-0.991028,0.312458,0.371298,-0.085191,58,274,592,6192
1644190502.218056,-0.008728,0.010437,-0.990356,0.266656,0.371298,-0.024122,39,276,583,6224
1644190502.266473,-0.01239,0.011169,-0.991882,0.297191,0.432366,0.113282,45,282,582,6176
1644190502.314871,-0.007385,0.009155,-0.992676,0.236122,0.478168,-0.222595,54,273,579,6224
1644190502.363261,-0.00769,0.008362,-0.990601,0.129252,0.539237,-0.100458,49,277,577,6256
1644190502.411653,-0.008667,0.011536,-0.993469,0.297191,0.371298,0.006412,45,277,589,6224
1644190502.460044,-0.009277,0.008606,-0.99231,0.327725,0.386565,-0.054656,55,276,585,6336
1644190502.508442,-0.008911,0.008911,-0.994385,0.113985,0.340763,-0.085191,49,280,582,6240
1644190502.556821,-0.010681,0.010315,-0.991638,0.113985,0.508702,-0.008855,53,281,585,6192
1644190502.605839,-0.009277,0.008484,-0.990662,0.281924,0.356031,0.113282,43,274,578,6224
1644190502.656549,-0.008606,0.010925,-0.988403,0.113985,0.401832,-0.176794,46,271,587,6256
1644190502.706763,-0.010376,0.007996,-0.989197,0.220855,0.447634,-0.115725,46,274,578,6256
1644190502.751588,-0.008179,0.009277,-0.989441,0.159786,0.462901,-0.192061,58,281,576,6224
1644190502.847224,-0.010681,0.010742,-0.989624,0.236122,0.279695,-0.024122,53,274,578,6224
1644190502.895595,-0.010681,0.00946,-0.991821,0.113985,0.478168,-0.115725,49,270,577,6304
1644190502.944034,-0.008789,0.012695,-0.991394,0.220855,0.356031,-0.130992,47,280,582,6256
1644190502.992405,-0.008972,0.008545,-0.991577,0.266656,0.371298,-0.024122,53,286,580,6224
1644190503.040786,-0.007874,0.009705,-0.992065,0.205588,0.401832,0.036947,46,271,576,6240
1644190503.101654,-0.007507,0.008789,-0.990601,0.251389,0.340763,0.021679,52,277,589,6240
1644190503.137548,-0.008789,0.008362,-0.992249,0.342992,0.401832,-0.115725,49,285,570,6224
1644190503.185939,-0.008179,0.009277,-0.991699,0.327725,0.386565,-0.039389,51,279,585,6288
1644190503.23431,-0.007629,0.01001,-0.994934,0.342992,0.432366,-0.14626,59,270,589,6224
1644190503.282705,-0.007874,0.008423,-0.992859,0.297191,0.294962,-0.008855,47,273,591,6192
1644190503.331113,-0.010315,0.011841,-0.988525,0.373527,0.401832,-0.130992,47,273,593,6240
1644190503.379508,-0.007385,0.011108,-0.990173,0.220855,0.325496,-0.008855,52,280,586,6224
1644190503.428076,-0.00824,0.011353,-0.989868,0.312458,0.539237,-0.115725,48,276,578,6256
1644190503.47882,-0.010437,0.01001,-0.990967,0.251389,0.279695,-0.085191,51,279,583,6240
1644190503.528692,-0.00769,0.008118,-0.99353,0.175053,0.493435,-0.100458,46,286,585,6160
1644190503.573845,-0.009583,0.010986,-0.991882,0.190321,0.325496,-0.25313,52,280,577,6224
1644190503.669866,-0.009155,0.009094,-0.993835,0.159786,0.600305,-0.100458,53,271,592,6176
1644190503.71824,-0.006897,0.010254,-0.994446,0.159786,0.356031,-0.008855,52,265,577,6224
1644190503.766647,-0.00769,0.012573,-0.989868,0.266656,0.523969,-0.085191,40,270,577,6224
1644190503.815549,-0.009644,0.008728,-0.988708,0.281924,0.356031,-0.085191,47,275,579,6256
1644190503.863469,-0.006958,0.009399,-0.993408,0.373527,0.401832,-0.192061,42,280,584,6192
1644190503.912493,-0.007141,0.010315,-0.992004,0.175053,0.340763,-0.130992,48,262,580,6240
1644190503.960251,-0.00946,0.011719,-0.990662,0.236122,0.401832,-0.176794,57,275,577,6224
1644190504.008655,-0.005859,0.008484,-0.990784,0.205588,0.493435,-0.222595,49,277,582,6224
1644190504.066935,-0.010498,0.013123,-0.991089,0.251389,0.310229,-0.237863,52,270,579,6304
1644190504.105421,-0.006287,0.010681,-0.989868,0.312458,0.401832,-0.039389,43,269,576,6256
1644190504.153833,-0.00708,0.011536,-0.992981,0.220855,0.417099,-0.100458,49,277,575,6240
1644190504.202242,-0.007751,0.011169,-0.991028,0.220855,0.356031,-0.008855,55,274,583,6256
1644190504.250599,-0.008484,0.010742,-0.989807,0.312458,0.386565,-0.14626,57,268,584,6192
1644190504.298978,-0.009827,0.009949,-0.989746,0.220855,0.493435,0.021679,48,271,590,6224
1644190504.347376,-0.007935,0.010132,-0.99353,0.08345,0.401832,-0.069924,41,276,576,6240
1644190504.395762,-0.007996,0.009521,-0.991333,0.190321,0.493435,-0.039389,51,271,583,6160
1644190504.444164,-0.00824,0.009399,-0.992981,0.312458,0.569771,0.036947,52,265,589,6192
1644190504.492535,-0.008301,0.007996,-0.990479,0.129252,0.478168,-0.069924,45,275,577,6240
1644190504.540937,-0.005798,0.009644,-0.989929,0.144519,0.386565,-0.069924,49,273,575,6240
1644190504.589711,-0.009521,0.008423,-0.993591,0.251389,0.539237,-0.100458,47,273,591,6160
1644190504.63982,-0.007141,0.010742,-0.993591,0.35826,0.432366,-0.069924,42,287,582,6240
1644190504.690072,-0.008484,0.009827,-0.990784,0.297191,0.356031,-0.192061,58,269,587,6240
1644190504.735202,-0.010132,0.009705,-0.99176,0.266656,0.432366,-0.283664,54,275,586,6240
1644190504.831291,-0.009827,0.006958,-0.990723,0.205588,0.401832,-0.085191,52,282,568,6176
1644190504.879732,-0.006531,0.010193,-0.992737,0.312458,0.523969,0.067481,48,286,576,6256
1644190504.928101,-0.006958,0.010925,-0.991516,0.297191,0.508702,-0.054656,45,263,579,6224
1644190504.976501,-0.007019,0.009155,-0.993774,0.236122,0.478168,0.006412,52,273,600,6288
1644190505.024904,-0.007568,0.01062,-0.993408,0.220855,0.539237,-0.039389,55,274,590,6224
1644190505.073361,-0.008606,0.01123,-0.989319,0.205588,0.478168,0.006412,52,275,584,6224
1644190505.121666,-0.00824,0.011047,-0.992126,0.205588,0.325496,-0.085191,48,279,587,6224
1644190505.170066,-0.010437,0.007996,-0.99054,0.113985,0.432366,-0.161527,48,286,580,6192
1644190505.218443,-0.008362,0.009399,-0.993164,0.266656,0.462901,-0.115725,54,285,582,6176
1644190505.266818,-0.007935,0.007629,-0.988892,0.159786,0.462901,-0.069924,45,275,591,6176
1644190505.31526,-0.008484,0.006531,-0.989807,0.190321,0.401832,0.036947,53,269,576,6224
1644190505.363641,-0.008728,0.005554,-0.993042,0.251389,0.401832,-0.100458,41,291,578,6192
1644190505.412012,-0.008606,0.009644,-0.989807,0.251389,0.539237,-0.161527,46,281,578,6192
1644190505.460405,-0.009766,0.010864,-0.989929,0.312458,0.447634,-0.100458,57,273,586,6192
1644190505.50878,-0.009277,0.012939,-0.992188,0.175053,0.462901,0.021679,52,275,586,6240
1644190505.557202,-0.010559,0.008484,-0.991333,0.190321,0.279695,-0.14626,41,271,585,6224
1644190505.605592,-0.007935,0.009094,-0.991394,0.312458,0.478168,0.006412,51,271,573,6192
1644190505.653991,-0.005371,0.00946,-0.992249,0.113985,0.493435,-0.192061,57,280,579,6224
1644190505.702715,-0.010803,0.008484,-0.993164,0.144519,0.417099,-0.25313,53,274,585,6192
1644190505.751556,-0.009827,0.009033,-0.991516,0.312458,0.310229,-0.069924,51,271,580,6160
1644190505.802277,-0.00708,0.010315,-0.991638,0.175053,0.447634,0.052214,41,279,583,6224
1644190505.847801,-0.006348,0.010864,-0.989136,0.220855,0.340763,0.006412,59,282,591,6224
1644190505.944382,-0.006714,0.009827,-0.993469,0.205588,0.417099,0.036947,41,288,580,6224
1644190505.992765,-0.008972,0.010315,-0.991699,0.190321,0.417099,-0.008855,51,281,583,6240
1644190506.04117,-0.008972,0.006165,-0.991333,0.190321,0.340763,0.006412,47,277,579,6224
1644190506.092475,-0.010071,0.009766,-0.99231,0.190321,0.447634,-0.161527,60,271,590,6176
1644190506.137945,-0.009033,0.010376,-0.994446,0.236122,0.585038,-0.039389,43,269,578,6240
1644190506.186299,-0.009521,0.00946,-0.990723,0.205588,0.264427,-0.069924,47,277,584,6192
1644190506.234894,-0.010071,0.008057,-0.992188,0.144519,0.539237,-0.069924,51,283,590,6160
1644190506.283085,-0.009583,0.007751,-0.992188,0.220855,0.462901,-0.069924,49,268,589,6240
1644190506.331483,-0.010498,0.007568,-0.992981,0.266656,0.417099,0.006412,43,281,583,6224
1644190506.379867,-0.011536,0.010681,-0.993164,0.159786,0.310229,-0.054656,55,281,583,6288
1644190506.428254,-0.009338,0.009583,-0.991211,0.281924,0.432366,-0.130992,57,282,575,6240
1644190506.476659,-0.008789,0.010437,-0.991211,0.281924,0.340763,-0.283664,42,280,586,6176
1644190506.525085,-0.007812,0.010559,-0.990845,0.159786,0.493435,-0.100458,58,283,587,6288
1644190506.573686,-0.00946,0.007019,-0.99292,0.037649,0.417099,-0.130992,55,279,578,6256
1644190506.623017,-0.008972,0.00946,-0.995422,0.175053,0.447634,-0.100458,39,274,587,6224
1644190506.673373,-0.010437,0.010803,-0.991394,0.220855,0.493435,-0.008855,51,276,590,6160
1644190506.723574,-0.009827,0.011292,-0.992249,0.281924,0.523969,0.052214,51,279,580,6304
1644190506.815493,-0.007874,0.00769,-0.990112,0.35826,0.417099,-0.024122,52,270,586,6224
1644190506.86384,-0.006958,0.010986,-0.991394,0.266656,0.432366,-0.085191,51,266,594,6240
1644190506.91242,-0.008789,0.010742,-0.991272,0.266656,0.447634,-0.069924,47,282,582,6176
1644190506.960626,-0.008606,0.011658,-0.989502,0.190321,0.340763,0.006412,48,276,578,6224
1644190507.009005,-0.007996,0.009949,-0.990967,0.205588,0.356031,-0.039389,45,285,579,6224
1644190507.061061,-0.008911,0.009583,-0.988525,0.175053,0.493435,-0.039389,57,282,584,6224
1644190507.105794,-0.006653,0.010498,-0.991638,0.327725,0.417099,0.036947,54,275,577,6160
1644190507.154207,-0.009033,0.007935,-0.99176,0.144519,0.417099,-0.100458,51,271,571,6192
1644190507.20261,-0.01001,0.009399,-0.989807,0.159786,0.356031,-0.069924,48,279,578,6224
1644190507.250988,-0.008667,0.009766,-0.992188,0.327725,0.493435,-0.008855,52,265,589,6160
1644190507.299382,-0.006531,0.007935,-0.990662,0.297191,0.508702,-0.039389,59,273,586,6256
1644190507.347759,-0.007446,0.009583,-0.990234,0.327725,0.447634,-0.176794,46,283,578,6192
1644190507.396148,-0.007019,0.008179,-0.990112,0.266656,0.401832,0.036947,51,279,578,6192
1644190507.444542,-0.00354,0.00708,-0.992493,0.342992,0.401832,-0.207328,53,276,576,6304
1644190507.492978,-0.009033,0.009094,-0.99054,0.205588,0.447634,0.021679,51,276,590,6240
1644190507.541338,-0.009644,0.010498,-0.993042,0.113985,0.493435,-0.054656,51,279,585,6176
1644190507.589737,-0.009033,0.010437,-0.988525,0.205588,0.371298,-0.069924,46,274,585,6224
1644190507.638192,-0.007874,0.010925,-0.991028,0.159786,0.340763,-0.039389,57,277,584,6224
1644190507.686771,-0.010681,0.009399,-0.991516,0.327725,0.386565,-0.192061,53,276,590,6240
1644190507.736952,-0.008484,0.009583,-0.991699,0.098718,0.340763,-0.14626,49,280,589,6240
1644190507.787351,-0.008057,0.012207,-0.991577,0.175053,0.417099,-0.024122,41,283,587,6256
1644190507.838065,-0.00885,0.011108,-0.992554,0.220855,0.585038,0.021679,59,285,579,6224
1644190507.928468,-0.008423,0.006042,-0.992432,0.205588,0.310229,-0.054656,45,277,579,6256
1644190507.97687,-0.009399,0.00885,-0.991089,0.327725,0.569771,-0.14626,53,274,587,6176
1644190508.025265,-0.007507,0.012573,-0.993164,0.022382,0.447634,0.082748,57,277,579,6176
1644190508.073725,-0.010803,0.009644,-0.991272,0.327725,0.432366,-0.130992,48,276,585,6240
1644190508.122035,-0.009949,0.013184,-0.992676,0.266656,0.432366,-0.130992,52,268,579,6224
1644190508.170421,-0.005554,0.01062,-0.99054,0.251389,0.462901,-0.14626,48,286,592,6256
1644190508.218812,-0.007141,0.007874,-0.990967,0.266656,0.478168,-0.130992,46,281,580,6176
1644190508.267194,-0.007385,0.008545,-0.994751,0.251389,0.386565,-0.115725,47,282,579,6224
1644190508.315674,-0.006714,0.008545,-0.991943,0.342992,0.478168,0.067481,47,270,572,6224
1644190508.363991,-0.007507,0.00769,-0.991638,0.175053,0.340763,-0.192061,40,277,584,6224
1644190508.412397,-0.007141,0.009399,-0.989563,0.144519,0.417099,-0.130992,53,276,587,6240
1644190508.460763,-0.009888,0.009277,-0.993713,0.388794,0.447634,-0.085191,51,276,597,6240
1644190508.50914,-0.00946,0.008362,-0.989868,0.281924,0.264427,-0.130992,40,273,572,6176
1644190508.557552,-0.00769,0.008545,-0.98999,0.113985,0.432366,0.021679,49,273,582,6240
1644190508.605957,-0.007996,0.008545,-0.988953,0.281924,0.371298,-0.024122,48,274,580,6224
1644190508.654347,-0.00946,0.009521,-0.992676,0.342992,0.585038,-0.024122,49,277,591,6176
1644190508.702753,-0.009338,0.009338,-0.989868,0.266656,0.462901,-0.192061,53,279,587,6224
1644190508.751095,-0.010803,0.01001,-0.991943,0.281924,0.417099,-0.192061,48,279,573,6224
1644190508.799569,-0.00885,0.011597,-0.991699,0.144519,0.401832,-0.069924,52,277,596,6224
1644190508.848797,-0.009277,0.008423,-0.992554,0.175053,0.417099,0.021679,40,273,589,6240
1644190508.898971,-0.007202,0.007996,-0.993225,0.220855,0.417099,-0.069924,53,274,580,6304
1644190508.949407,-0.00824,0.007141,-0.99408,0.190321,0.523969,-0.054656,51,279,585,6256
1644190508.993998,-0.00946,0.010559,-0.991516,0.220855,0.371298,-0.14626,39,271,580,6224
1644190509.090028,-0.007812,0.009521,-0.992065,0.373527,0.493435,-0.115725,57,285,582,6192
1644190509.138259,-0.008728,0.005859,-0.99176,0.266656,0.478168,-0.161527,45,273,575,6240
1644190509.186655,-0.009094,0.010437,-0.992554,0.220855,0.554504,-0.161527,46,283,583,6240
1644190509.235303,-0.012207,0.009338,-0.991394,0.205588,0.325496,-0.024122,57,273,589,6240
1644190509.283476,-0.006714,0.007141,-0.992798,0.190321,0.386565,-0.115725,49,277,596,6240
1644190509.331842,-0.010986,0.007935,-0.991394,0.190321,0.401832,-0.024122,51,286,590,6224
1644190509.38025,-0.007507,0.00946,-0.993652,0.08345,0.340763,-0.024122,46,283,580,6176
1644190509.428621,-0.008606,0.009399,-0.992493,0.251389,0.462901,0.021679,52,275,584,6240
1644190509.477026,-0.007446,0.009583,-0.992188,0.297191,0.539237,-0.176794,54,282,579,6224
1644190509.525392,-0.010193,0.009155,-0.990601,0.144519,0.523969,-0.008855,45,273,589,6224
1644190509.573826,-0.008118,0.009888,-0.988403,0.144519,0.340763,-0.039389,39,283,592,6192
1644190509.622244,-0.007446,0.009583,-0.991272,0.144519,0.447634,-0.176794,49,277,586,6224
1644190509.670599,-0.007629,0.011841,-0.992615,0.190321,0.294962,-0.024122,41,274,576,6192
1644190509.718999,-0.011108,0.006775,-0.992981,0.434595,0.356031,-0.054656,48,279,576,6224
1644190509.767382,-0.009583,0.009155,-0.992798,0.327725,0.417099,-0.14626,54,285,598,6240
1644190509.815816,-0.009216,0.006226,-0.990173,0.297191,0.432366,-0.115725,47,277,575,6288
1644190509.864216,-0.012207,0.008789,-0.99115,0.266656,0.310229,-0.25313,49,273,584,6224
1644190509.912611,-0.008606,0.008301,-0.991699,0.175053,0.539237,-0.176794,52,275,575,6304
1644190509.96123,-0.008057,0.009399,-0.994263,0.175053,0.523969,-0.069924,48,269,592,6224
1644190510.061049,-0.006653,0.009949,-0.992676,0.266656,0.371298,-0.100458,43,274,590,6224
1644190510.106164,-0.005127,0.010376,-0.99231,0.342992,0.371298,-0.14626,55,269,580,6176
1644190510.154531,-0.007385,0.008484,-0.993225,0.113985,0.478168,-0.176794,47,277,589,6240
1644190510.202946,-0.008972,0.00769,-0.992371,0.144519,0.600305,0.021679,42,270,584,6240
1644190510.251292,-0.010803,0.008789,-0.989441,0.205588,0.356031,0.036947,54,273,582,6240
1644190510.299709,-0.010437,0.011353,-0.991638,0.266656,0.447634,-0.069924,41,279,583,6176
1644190510.348091,-0.00647,0.008667,-0.990906,0.144519,0.539237,-0.069924,49,280,586,6256
1644190510.3965,-0.008362,0.007874,-0.990845,0.281924,0.386565,0.021679,52,277,579,6192
1644190510.444899,-0.006531,0.009949,-0.991272,0.266656,0.539237,0.067481,48,274,585,6240
1644190510.493266,-0.01001,0.009949,-0.988953,0.251389,0.478168,-0.054656,45,277,589,6224
1644190510.541652,-0.008606,0.008118,-0.991028,0.236122,0.356031,-0.054656,45,270,586,6256
1644190510.590042,-0.00824,0.009277,-0.991455,0.297191,0.462901,0.006412,52,277,584,6224
1644190510.638466,-0.009583,0.01001,-0.994263,0.129252,0.417099,-0.054656,48,274,583,6224
1644190510.68686,-0.00885,0.010193,-0.994507,0.281924,0.523969,-0.039389,38,282,591,6256
1644190510.735245,-0.006836,0.011169,-0.99176,0.251389,0.523969,-0.024122,53,279,594,6192
1644190510.783627,-0.006226,0.012512,-0.989075,0.327725,0.539237,-0.192061,55,279,585,6240
1644190510.832072,-0.007629,0.010803,-0.991882,0.342992,0.401832,-0.054656,49,275,579,6256
1644190510.881884,-0.006592,0.008362,-0.992065,0.281924,0.401832,-0.054656,46,283,585,6160
1644190510.932342,-0.00769,0.008911,-0.991394,0.144519,0.417099,-0.054656,49,280,586,6256
1644190510.982275,-0.010437,0.009949,-0.993103,0.129252,0.585038,-0.069924,47,268,586,6192
1644190511.027179,-0.009399,0.012573,-0.993042,0.236122,0.233893,-0.115725,55,276,583,6256
1644190511.122478,-0.006958,0.009705,-0.991577,0.08345,0.371298,-0.039389,47,277,591,6176
1644190511.170759,-0.00708,0.011108,-0.99115,0.220855,0.493435,-0.008855,45,273,582,6176
1644190511.219151,-0.009033,0.009827,-0.992126,0.236122,0.478168,-0.161527,49,273,589,6224
1644190511.26753,-0.009888,0.011292,-0.993835,0.220855,0.401832,-0.024122,52,282,579,6256
1644190511.315959,-0.00769,0.010925,-0.993896,0.297191,0.554504,-0.039389,52,277,575,6224
1644190511.364361,-0.010132,0.00946,-0.990601,0.327725,0.462901,0.006412,57,273,579,6224
1644190511.412775,-0.007141,0.009399,-0.98938,0.312458,0.325496,-0.024122,58,276,580,6224
1644190511.461138,-0.005615,0.011108,-0.991943,0.266656,0.478168,-0.085191,49,282,584,6224
1644190511.509542,-0.006042,0.011047,-0.991211,0.373527,0.371298,-0.268397,39,271,583,6240
1644190511.557932,-0.007263,0.010376,-0.993835,0.175053,0.432366,-0.039389,45,275,586,6240
1644190511.606321,-0.006958,0.011108,-0.990417,0.236122,0.310229,-0.100458,57,270,591,6224
1644190511.654734,-0.005127,0.011597,-0.993347,0.281924,0.233893,0.006412,48,279,590,6224
1644190511.703142,-0.011719,0.009521,-0.988831,0.190321,0.310229,0.036947,51,269,578,6192
1644190511.751486,-0.010803,0.009033,-0.991821,0.205588,0.447634,-0.085191,46,279,590,6288
1644190511.799874,-0.009583,0.008484,-0.993347,0.190321,0.447634,-0.008855,59,273,577,6240
1644190511.848294,-0.01178,0.009521,-0.99115,0.220855,0.386565,-0.054656,51,269,578,6224
1644190511.896724,-0.009094,0.007751,-0.991699,0.037649,0.294962,0.067481,45,280,579,6176
1644190511.945505,-0.00531,0.012207,-0.992188,0.08345,0.310229,-0.069924,46,271,573,6256
1644190511.993823,-0.010376,0.009155,-0.991333,0.159786,0.508702,-0.085191,40,270,589,6224
1644190512.056039,-0.009766,0.006775,-0.993469,0.220855,0.417099,-0.100458,47,268,589,6240
1644190512.102624,-0.01062,0.009155,-0.992554,0.281924,0.447634,0.036947,49,277,586,6240
1644190512.139037,-0.007629,0.011353,-0.99115,0.205588,0.279695,-0.085191,55,271,573,6224
1644190512.235427,-0.009338,0.011658,-0.991211,0.175053,0.417099,-0.039389,42,275,584,6224
1644190512.283804,-0.008606,0.010071,-0.992004,0.312458,0.447634,-0.161527,45,273,570,6256
1644190512.332395,-0.007324,0.011536,-0.990662,0.113985,0.493435,-0.176794,36,271,571,6336
1644190512.380595,-0.007996,0.007141,-0.993958,0.251389,0.401832,-0.039389,46,279,585,6176
1644190512.428977,-0.011719,0.008972,-0.98877,0.297191,0.417099,-0.054656,57,273,572,6192
1644190512.477371,-0.007019,0.011719,-0.991516,0.251389,0.417099,0.036947,41,279,583,6160
1644190512.525779,-0.009399,0.007568,-0.99176,0.205588,0.310229,0.006412,46,279,580,6240
1644190512.574162,-0.006897,0.009399,-0.993164,0.129252,0.432366,-0.100458,54,273,575,6224
1644190512.622594,-0.006592,0.013123,-0.98999,0.144519,0.371298,-0.176794,65,276,578,6176
1644190512.670968,-0.008789,0.010864,-0.98877,0.113985,0.371298,-0.100458,45,270,582,6240
1644190512.719344,-0.007507,0.008667,-0.993164,0.205588,0.294962,0.082748,47,277,586,6240
1644190512.767751,-0.007935,0.01239,-0.993042,0.297191,0.294962,-0.192061,52,273,582,6240
1644190512.816148,-0.00647,0.011719,-0.989441,0.129252,0.432366,-0.024122,60,279,585,6224
1644190512.864622,-0.005737,0.008362,-0.992126,0.373527,0.432366,-0.069924,49,280,575,6176
1644190512.912989,-0.009155,0.010071,-0.991699,-0.02342,0.294962,0.052214,48,281,580,6256
1644190512.961351,-0.007202,0.00946,-0.992249,0.297191,0.417099,-0.069924,40,273,591,6224
1644190513.009754,-0.008423,0.009705,-0.988647,0.220855,0.432366,-0.054656,47,287,582,6224
1644190513.074252,-0.007568,0.010071,-0.992493,0.236122,0.401832,-0.024122,48,283,583,6240
1644190513.114057,-0.007263,0.010498,-0.990112,0.175053,0.386565,-0.192061,58,271,590,6224
1644190513.156164,-0.009766,0.007935,-0.990601,0.159786,0.24916,0.021679,53,274,587,6224
1644190513.205313,-0.008789,0.010071,-0.993347,0.297191,0.294962,-0.14626,48,279,587,6176
1644190513.255403,-0.009277,0.006042,-0.991821,0.052916,0.417099,-0.069924,45,270,591,6192
1644190513.300453,-0.008972,0.01001,-0.994263,0.266656,0.24916,-0.039389,57,280,584,6192
1644190513.396836,-0.005554,0.008667,-0.989441,0.129252,0.417099,0.006412,39,281,585,6224
1644190513.445965,-0.007385,0.01062,-0.990356,0.266656,0.417099,-0.085191,43,274,594,6224
1644190513.493635,-0.007507,0.007874,-0.989502,-0.008153,0.478168,-0.222595,47,260,589,6224
1644190513.542024,-0.00647,0.010437,-0.993286,0.236122,0.371298,0.036947,49,275,584,6256
1644190513.590426,-0.008972,0.008972,-0.992615,0.175053,0.417099,-0.115725,52,277,586,6224
1644190513.638814,-0.010681,0.007935,-0.992737,0.266656,0.386565,-0.115725,47,270,577,6224
1644190513.687205,-0.009583,0.010437,-0.991272,0.312458,0.508702,-0.130992,48,283,580,6240
1644190513.735578,-0.007874,0.00885,-0.993774,0.281924,0.340763,-0.192061,43,276,587,6160
1644190513.784002,-0.008301,0.010559,-0.991333,0.236122,0.386565,-0.161527,51,274,583,6288
1644190513.832416,-0.005859,0.010376,-0.993408,0.251389,0.615573,-0.14626,48,274,587,6224
1644190513.880828,-0.007202,0.007812,-0.991455,0.35826,0.417099,-0.115725,54,273,575,6256
1644190513.929445,-0.010864,0.007996,-0.991211,0.342992,0.371298,0.12855,46,274,585,6240
1644190513.977614,-0.01001,0.008423,-0.991821,0.266656,0.554504,0.006412,47,273,591,6288
1644190514.026009,-0.008728,0.008972,-0.991821,0.220855,0.24916,-0.008855,45,275,579,6176
1644190514.091344,-0.007812,0.006958,-0.98999,0.312458,0.356031,-0.069924,52,275,584,6240
1644190514.122825,-0.005859,0.012085,-0.988647,0.205588,0.371298,-0.130992,47,270,586,6224
1644190514.172236,-0.008301,0.009644,-0.991333,0.205588,0.386565,-0.069924,48,283,585,6192
1644190514.221872,-0.009888,0.008423,-0.991638,0.236122,0.493435,-0.298931,54,277,584,6224
1644190514.27203,-0.009705,0.011719,-0.991943,0.281924,0.508702,-0.100458,47,282,579,6240
1644190514.31725,-0.007446,0.011414,-0.989197,0.190321,0.432366,-0.039389,52,275,577,6256
1644190514.413142,-0.006653,0.007874,-0.990784,0.236122,0.310229,0.098015,43,271,583,6256
1644190514.461478,-0.006226,0.008179,-0.99292,0.266656,0.340763,0.067481,47,273,589,6160
1644190514.509883,-0.009277,0.009644,-0.992126,0.312458,0.447634,-0.069924,47,282,575,6192
1644190514.558255,-0.006958,0.010559,-0.992432,0.220855,0.294962,-0.192061,49,273,575,6240
1644190514.60668,-0.011292,0.009338,-0.99115,0.281924,0.340763,-0.069924,38,275,579,6304
1644190514.655098,-0.010132,0.010376,-0.994934,0.068183,0.401832,-0.039389,57,273,584,6176
1644190514.703459,-0.009155,0.009521,-0.989563,0.266656,0.493435,0.159084,55,271,585,6192
1644190514.751834,-0.007996,0.010864,-0.988403,0.144519,0.401832,-0.069924,46,279,580,6256
1644190514.800254,-0.007019,0.010193,-0.99176,0.236122,0.462901,0.021679,54,270,589,6224
1644190514.848659,-0.007874,0.008423,-0.992432,0.175053,0.264427,-0.039389,42,282,582,6224
1644190514.897087,-0.008484,0.009827,-0.991333,0.113985,0.386565,-0.237863,55,276,573,6240
1644190514.945478,-0.006836,0.009033,-0.992249,0.144519,0.493435,-0.024122,49,282,591,6240
1644190514.993911,-0.008728,0.01123,-0.991638,0.205588,0.386565,-0.069924,58,269,576,6240
1644190515.04227,-0.010559,0.008972,-0.992432,0.297191,0.371298,-0.192061,42,275,584,6192
1644190515.090792,-0.010498,0.010925,-0.992737,0.312458,0.401832,-0.069924,51,276,599,6256
1644190515.139067,-0.007629,0.008667,-0.990906,0.220855,0.310229,-0.069924,45,263,584,6176
1644190515.187431,-0.008301,0.008545,-0.99176,0.251389,0.356031,-0.161527,43,271,583,6176
1644190515.236045,-0.008423,0.007507,-0.990601,0.266656,0.325496,-0.039389,43,274,583,6224
1644190515.284244,-0.01123,0.007568,-0.99353,0.251389,0.386565,-0.085191,46,276,583,6224
1644190515.334058,-0.010925,0.00769,-0.99353,0.312458,0.340763,-0.100458,49,275,572,6240
1644190515.384484,-0.01001,0.011963,-0.993652,0.266656,0.386565,-0.207328,43,276,583,6240
1644190515.434553,-0.011597,0.012024,-0.99054,0.251389,0.279695,-0.161527,51,271,583,6224
1644190515.479099,-0.00946,0.009155,-0.989929,0.175053,0.539237,-0.100458,52,275,577,6240
1644190515.574919,-0.008911,0.010315,-0.991211,0.281924,0.294962,-0.039389,54,268,572,6192
1644190515.623,-0.010681,0.009888,-0.990234,0.159786,0.432366,-0.192061,51,279,585,6224
1644190515.671351,-0.010376,0.009521,-0.992676,0.297191,0.294962,-0.024122,55,281,578,6240
1644190515.719755,-0.00946,0.011108,-0.994324,0.113985,0.371298,-0.039389,48,274,578,6224
1644190515.768156,-0.007202,0.01062,-0.992554,0.205588,0.386565,-0.069924,53,276,576,6256
1644190515.816542,-0.007996,0.009399,-0.991272,0.220855,0.340763,0.021679,48,274,578,6240
1644190515.864933,-0.008667,0.006287,-0.991455,0.251389,0.371298,-0.069924,52,277,575,6240
1644190515.91334,-0.01001,0.00769,-0.992371,0.281924,0.432366,-0.085191,57,270,591,6192
1644190515.96173,-0.010193,0.008179,-0.989441,0.236122,0.401832,-0.024122,45,275,584,6256
1644190516.010125,-0.008362,0.007141,-0.99292,0.205588,0.340763,-0.039389,47,268,579,6240
1644190516.065153,-0.006836,0.007874,-0.992737,0.190321,0.386565,-0.024122,45,277,586,6224
1644190516.106888,-0.007507,0.008545,-0.993408,0.327725,0.554504,0.006412,57,280,596,6192
1644190516.155265,-0.009644,0.010437,-0.990356,0.266656,0.493435,-0.192061,54,277,582,6224
1644190516.20366,-0.008728,0.010193,-0.993896,0.220855,0.417099,-0.25313,51,279,580,6224
1644190516.252043,-0.009277,0.008789,-0.993042,0.144519,0.447634,0.021679,54,275,577,6192
1644190516.300438,-0.011536,0.012512,-0.992249,0.037649,0.401832,-0.024122,52,285,577,6288
1644190516.348835,-0.010071,0.011658,-0.990173,0.129252,0.417099,-0.069924,53,269,585,6256
1644190516.397202,-0.009399,0.010132,-0.991211,0.388794,0.279695,-0.161527,36,281,585,6224
1644190516.445943,-0.007568,0.011414,-0.992615,0.312458,0.294962,-0.100458,52,277,584,6192
1644190516.49504,-0.008545,0.008789,-0.99231,0.190321,0.386565,-0.069924,40,273,598,6176
1644190516.54492,-0.008301,0.009033,-0.989197,0.297191,0.539237,-0.115725,47,280,586,6240
1644190516.594931,-0.008911,0.010742,-0.990662,0.113985,0.401832,-0.085191,53,271,580,6256
1644190516.640129,-0.009399,0.010071,-0.994202,0.266656,0.432366,-0.115725,46,281,576,6192
1644190516.735967,-0.009888,0.009888,-0.990234,0.190321,0.417099,0.021679,43,271,590,6256
1644190516.784457,-0.01062,0.010071,-0.992371,0.144519,0.386565,-0.054656,55,274,580,6192
1644190516.832814,-0.00769,0.009399,-0.993286,0.159786,0.356031,-0.054656,47,270,579,6240
1644190516.881181,-0.006958,0.01062,-0.991028,0.297191,0.401832,0.006412,51,281,576,6224
1644190516.92959,-0.009094,0.008911,-0.992493,0.281924,0.356031,0.021679,54,277,586,6256
1644190516.977975,-0.010681,0.011475,-0.991455,0.266656,0.356031,-0.024122,54,292,584,6176
1644190517.026377,-0.007446,0.010071,-0.994385,0.281924,0.401832,-0.130992,41,279,587,6224
1644190517.084909,-0.008911,0.010559,-0.991821,0.205588,0.432366,-0.024122,47,275,584,6240
1644190517.123109,-0.009094,0.007446,-0.992249,0.251389,0.386565,0.021679,52,275,582,6224
1644190517.171508,-0.008179,0.01001,-0.990845,0.129252,0.310229,-0.039389,55,271,578,6176
1644190517.219915,-0.008484,0.009888,-0.991028,0.190321,0.417099,-0.054656,42,273,586,6240
1644190517.268299,-0.010071,0.009338,-0.990967,0.144519,0.356031,0.067481,46,281,597,6192
1644190517.316684,-0.01178,0.008057,-0.992004,0.190321,0.386565,0.067481,48,279,583,6128
1644190517.365201,-0.006531,0.011597,-0.992126,0.113985,0.493435,-0.161527,46,281,583,6240
1644190517.413471,-0.008484,0.009583,-0.995972,0.236122,0.447634,-0.14626,57,268,577,6224
1644190517.461867,-0.007324,0.010742,-0.993225,0.220855,0.432366,-0.100458,42,275,577,6240
1644190517.510234,-0.009277,0.01123,-0.989807,0.113985,0.432366,0.006412,49,265,584,6240
1644190517.558649,-0.008789,0.00824,-0.992065,0.236122,0.294962,-0.054656,38,282,586,6240
1644190517.607044,-0.008362,0.008728,-0.991272,0.175053,0.508702,-0.100458,51,269,592,6240
1644190517.655811,-0.009827,0.009888,-0.989807,0.236122,0.401832,-0.130992,55,271,580,6192
1644190517.706353,-0.007812,0.010742,-0.990051,0.220855,0.417099,-0.085191,48,271,587,6224
1644190517.756406,-0.007812,0.009766,-0.991882,0.220855,0.340763,-0.130992,49,270,589,6240
1644190517.801437,-0.006714,0.010071,-0.991272,0.281924,0.417099,-0.130992,49,275,586,6224
1644190517.897442,-0.008972,0.007263,-0.990906,0.342992,0.539237,-0.100458,45,275,582,6224
1644190517.948037,-0.007874,0.007629,-0.992126,0.220855,0.447634,-0.024122,59,270,584,6256
1644190517.994224,-0.009949,0.009949,-0.991455,0.404061,0.310229,0.067481,48,276,585,6112
1644190518.056396,-0.006897,0.009888,-0.991455,0.159786,0.294962,-0.054656,48,266,583,6240
1644190518.09564,-0.008179,0.007935,-0.98999,0.251389,0.371298,-0.085191,43,279,585,6224
1644190518.139346,-0.008484,0.00885,-0.99292,0.159786,0.417099,0.006412,52,277,584,6128
1644190518.187754,-0.008484,0.01062,-0.991943,0.281924,0.24916,-0.192061,47,280,586,6256
1644190518.236159,-0.007568,0.008606,-0.992065,0.266656,0.432366,-0.054656,49,282,582,6176
1644190518.284532,-0.008606,0.010193,-0.993042,0.129252,0.554504,-0.14626,53,271,580,6240
1644190518.332958,-0.012756,0.008667,-0.99115,0.190321,0.294962,-0.085191,48,283,590,6256
1644190518.381335,-0.01123,0.010376,-0.992188,0.236122,0.478168,-0.207328,51,279,592,6176
1644190518.429728,-0.006226,0.009094,-0.992493,0.190321,0.432366,-0.069924,57,275,570,6176
1644190518.479237,-0.008484,0.010071,-0.992859,0.297191,0.340763,-0.024122,47,268,584,6160
1644190518.528644,-0.006714,0.010742,-0.991394,0.113985,0.340763,-0.130992,42,275,579,6224
1644190518.578946,-0.009705,0.013611,-0.991455,0.251389,0.386565,0.113282,53,279,590,6192
1644190518.623909,-0.011414,0.008179,-0.992615,0.052916,0.493435,-0.085191,51,274,576,6240
1644190518.720067,-0.009521,0.011902,-0.989868,0.312458,0.569771,-0.085191,33,270,577,6224
1644190518.768464,-0.00708,0.008301,-0.993652,0.236122,0.188092,0.006412,49,285,582,6240
1644190518.816861,-0.010803,0.013062,-0.993469,0.175053,0.508702,-0.069924,52,282,579,6192
1644190518.86531,-0.006958,0.010681,-0.991455,0.159786,0.462901,-0.14626,33,273,582,6176
1644190518.913715,-0.008057,0.013977,-0.992065,0.205588,0.493435,-0.192061,47,277,582,6224
1644190518.962154,-0.01123,0.012024,-0.992432,0.35826,0.24916,-0.085191,41,276,578,6176
1644190519.010486,-0.00769,0.008606,-0.992737,0.129252,0.447634,-0.115725,42,275,577,6240
1644190519.063436,-0.008789,0.010864,-0.992737,0.205588,0.569771,-0.069924,55,269,590,6288
1644190519.10725,-0.008667,0.010254,-0.989807,0.068183,0.264427,0.036947,53,274,585,6224
1644190519.155626,-0.008118,0.009338,-0.990356,0.297191,0.417099,-0.100458,48,279,585,6224
1644190519.204003,-0.007568,0.010864,-0.990662,0.281924,0.417099,-0.14626,41,276,585,6224
1644190519.252443,-0.009399,0.008972,-0.990417,0.297191,0.386565,-0.268397,47,280,582,6128
1644190519.300806,-0.00647,0.009827,-0.990417,0.251389,0.371298,-0.115725,51,274,583,6192
1644190519.349198,-0.007263,0.010132,-0.992493,0.35826,0.401832,-0.008855,52,277,579,6240
1644190519.397589,-0.006958,0.011475,-0.990601,0.281924,0.447634,-0.100458,41,283,580,6224
1644190519.445995,-0.008972,0.012268,-0.992004,0.35826,0.325496,-0.130992,54,280,582,6224
1644190519.49439,-0.008118,0.010742,-0.992798,0.297191,0.478168,-0.161527,51,269,597,6240
1644190519.542783,-0.008606,0.010193,-0.992432,0.236122,0.371298,-0.192061,58,264,587,6256
1644190519.591141,-0.008118,0.011719,-0.988159,0.175053,0.279695,-0.069924,41,271,587,6192
1644190519.639786,-0.00647,0.009216,-0.991455,0.190321,0.371298,-0.130992,49,275,579,6224
1644190519.690609,-0.007446,0.010132,-0.989014,0.342992,0.432366,-0.024122,46,269,573,6192
1644190519.74047,-0.012146,0.008484,-0.993286,0.220855,0.356031,-0.100458,60,276,578,6240
1644190519.785667,-0.009888,0.009644,-0.992188,0.251389,0.478168,0.006412,52,277,577,6224
1644190519.881554,-0.00824,0.00769,-0.993652,0.266656,0.447634,0.143817,49,268,582,6192
1644190519.929941,-0.005432,0.004822,-0.994019,0.327725,0.356031,-0.130992,45,268,584,6240
1644190519.97835,-0.007874,0.005432,-0.990662,0.190321,0.554504,-0.176794,47,270,586,6224
1644190520.026734,-0.008667,0.008118,-0.992859,0.190321,0.386565,-0.054656,47,277,584,6256
1644190520.075269,-0.009155,0.009644,-0.987915,0.190321,0.508702,-0.008855,49,277,586,6224
1644190520.123526,-0.010681,0.010071,-0.989807,0.175053,0.523969,-0.024122,52,277,575,6240
1644190520.171878,-0.009399,0.005554,-0.990601,0.159786,0.203359,-0.024122,51,274,583,6224
1644190520.220253,-0.00769,0.009155,-0.993774,0.190321,0.371298,-0.008855,47,273,591,6224
1644190520.268643,-0.006653,0.008972,-0.990723,0.205588,0.462901,-0.115725,55,276,580,6224
1644190520.31706,-0.010559,0.013123,-0.989014,0.205588,0.432366,-0.008855,51,281,583,6176
1644190520.365458,-0.008057,0.012207,-0.990479,0.052916,0.478168,-0.039389,48,271,580,6192
1644190520.413857,-0.007324,0.00885,-0.993225,0.175053,0.401832,-0.130992,46,286,573,6256
1644190520.462242,-0.009583,0.011414,-0.995789,0.175053,0.371298,0.006412,58,276,587,6176
1644190520.5106,-0.010498,0.011169,-0.991089,0.068183,0.310229,-0.268397,47,265,579,6256
1644190520.559021,-0.008362,0.009338,-0.991211,0.266656,0.401832,0.036947,38,277,586,6192
1644190520.607408,-0.007812,0.011047,-0.990051,0.068183,0.356031,-0.069924,55,274,590,6224
1644190520.65581,-0.008911,0.009033,-0.991516,0.190321,0.294962,-0.14626,48,264,578,6224
1644190520.704513,-0.008728,0.011902,-0.990662,0.220855,0.264427,-0.069924,57,277,596,6224
1644190520.753467,-0.008179,0.008301,-0.992554,0.113985,0.478168,-0.176794,54,273,589,6288
1644190520.804075,-0.007507,0.01123,-0.992249,0.327725,0.279695,-0.069924,46,286,585,6224
1644190520.854021,-0.007385,0.010315,-0.988708,0.266656,0.356031,-0.085191,51,269,589,6224
1644190520.946187,-0.007202,0.011902,-0.993103,0.312458,0.401832,-0.054656,52,273,577,6256
1644190520.994874,-0.011719,0.009644,-0.991333,0.312458,0.371298,-0.039389,43,279,578,6240
1644190521.057425,-0.010803,0.010132,-0.992432,0.327725,0.401832,-0.054656,49,280,586,6176
1644190521.092668,-0.006775,0.011292,-0.992004,0.297191,0.325496,-0.130992,38,282,584,6256
1644190521.139783,-0.005981,0.008362,-0.992249,0.129252,0.554504,-0.024122,53,269,571,6176
1644190521.188135,-0.010803,0.008667,-0.991333,0.251389,0.447634,-0.115725,43,269,580,6288
1644190521.236502,-0.008972,0.006836,-0.993958,0.220855,0.233893,0.006412,47,282,582,6224
1644190521.284899,-0.010254,0.010925,-0.989685,0.190321,0.340763,-0.14626,43,271,580,6224
1644190521.333324,-0.009766,0.011353,-0.990845,0.312458,0.493435,-0.130992,47,263,579,6192
1644190521.381706,-0.007751,0.007385,-0.989868,0.297191,0.508702,-0.130992,47,277,575,6224
1644190521.430097,-0.005493,0.012817,-0.990479,0.266656,0.356031,-0.192061,41,274,585,6224
1644190521.478486,-0.009521,0.012268,-0.991882,0.251389,0.340763,-0.069924,43,274,576,6224
1644190521.526855,-0.00769,0.009216,-0.992798,0.251389,0.386565,-0.054656,42,277,586,6240
1644190521.575454,-0.005798,0.01001,-0.99054,0.297191,0.508702,0.036947,49,285,582,6192
1644190521.624233,-0.008301,0.009338,-0.98822,0.373527,0.493435,-0.237863,45,268,584,6256
1644190521.674798,-0.009766,0.010071,-0.992493,0.281924,0.478168,-0.161527,47,285,570,6256
1644190521.724912,-0.007019,0.009338,-0.99292,0.251389,0.554504,-0.14626,46,276,590,6192
1644190521.769978,-0.008911,0.011108,-0.994324,0.113985,0.417099,0.052214,42,275,586,6224
1644190521.865612,-0.011536,0.007874,-0.992371,0.098718,0.478168,0.036947,43,279,585,6224
1644190521.914069,-0.009705,0.008423,-0.994202,0.205588,0.462901,-0.085191,54,280,584,6224
1644190521.96245,-0.007812,0.009338,-0.992432,0.220855,0.294962,0.113282,55,276,576,6240
1644190522.010815,-0.009888,0.008545,-0.99115,0.190321,0.325496,0.036947,49,285,582,6192
1644190522.065318,-0.011353,0.010132,-0.993103,0.159786,0.478168,-0.192061,43,269,583,6240
1644190522.107621,-0.013,0.011292,-0.99176,0.144519,0.325496,-0.085191,42,277,591,6224
1644190522.156016,-0.011658,0.008972,-0.990845,0.190321,0.523969,-0.207328,45,277,582,6240
1644190522.204427,-0.007324,0.008606,-0.990051,0.205588,0.417099,-0.069924,51,271,576,6240
1644190522.252801,-0.010742,0.00885,-0.991028,0.113985,0.325496,-0.176794,52,273,575,6256
1644190522.301202,-0.009766,0.011047,-0.991028,0.068183,0.417099,-0.100458,47,270,572,6256
1644190522.349571,-0.008728,0.010803,-0.991394,0.327725,0.432366,-0.085191,54,270,586,6256
1644190522.397989,-0.007751,0.01062,-0.992615,0.205588,0.539237,0.006412,39,283,590,6224
1644190522.446377,-0.004944,0.012451,-0.992371,0.220855,0.523969,-0.115725,52,280,579,6192
1644190522.494794,-0.009521,0.008789,-0.991699,0.159786,0.432366,-0.085191,43,283,587,6224
1644190522.543177,-0.009644,0.009827,-0.990662,0.129252,0.417099,-0.039389,39,279,585,6256
1644190522.591558,-0.007568,0.00769,-0.992981,0.052916,0.493435,-0.069924,43,279,585,6240
1644190522.639953,-0.009399,0.007568,-0.99054,0.35826,0.371298,-0.085191,41,271,583,6176
1644190522.688683,-0.008484,0.011108,-0.992676,0.205588,0.401832,-0.024122,49,277,586,6240
1644190522.736766,-0.00592,0.008606,-0.991638,0.266656,0.523969,-0.039389,54,270,577,6240
1644190522.786703,-0.006714,0.009399,-0.990601,0.281924,0.417099,-0.130992,52,270,584,6224
1644190522.837215,-0.009888,0.009644,-0.991943,0.35826,0.356031,0.006412,47,282,577,6240
1644190522.887211,-0.009583,0.00647,-0.993164,0.159786,0.447634,-0.207328,53,269,585,6224
1644190522.931763,-0.006287,0.010803,-0.990845,0.175053,0.508702,-0.176794,41,271,590,6224
1644190523.027087,-0.007812,0.008789,-0.992065,0.220855,0.447634,-0.100458,43,276,573,6224
1644190523.075589,-0.006775,0.009766,-0.989929,0.312458,0.340763,-0.115725,58,281,580,6224
1644190523.123826,-0.009766,0.01001,-0.99231,0.098718,0.432366,0.006412,43,274,590,6288
1644190523.172392,-0.007385,0.010681,-0.99054,0.220855,0.294962,-0.222595,45,282,575,6160
1644190523.220628,-0.005127,0.012268,-0.990967,0.190321,0.356031,0.082748,40,277,579,6240
1644190523.269026,-0.008362,0.010376,-0.992859,0.251389,0.539237,-0.14626,46,262,590,6288
1644190523.317412,-0.006104,0.010193,-0.992371,0.404061,0.356031,-0.161527,38,277,579,6192
1644190523.365806,-0.007874,0.009949,-0.990784,0.281924,0.508702,0.036947,47,282,582,6256
1644190523.414208,-0.010986,0.011108,-0.99054,0.190321,0.447634,-0.039389,49,273,591,6256
1644190523.462609,-0.008911,0.010315,-0.992004,0.35826,0.432366,-0.008855,58,269,576,6176
1644190523.510967,-0.007446,0.008423,-0.990417,0.266656,0.401832,-0.176794,43,279,587,6256
1644190523.559381,-0.00885,0.010925,-0.98999,0.281924,0.478168,-0.192061,62,271,580,6224
1644190523.60775,-0.007874,0.010376,-0.990295,0.312458,0.279695,-0.176794,43,269,590,6192
1644190523.656173,-0.009827,0.007019,-0.991028,0.175053,0.401832,-0.085191,52,287,584,6240
1644190523.704609,-0.007629,0.006958,-0.991943,0.175053,0.356031,-0.100458,52,273,584,6192
1644190523.752942,-0.008667,0.010437,-0.991638,0.144519,0.294962,-0.14626,48,281,571,6176
1644190523.801395,-0.00946,0.009705,-0.993225,0.251389,0.340763,-0.100458,46,274,585,6176
1644190523.849787,-0.012512,0.011658,-0.990356,0.08345,0.478168,-0.024122,45,277,591,6192
1644190523.898187,-0.011963,0.010254,-0.992554,0.236122,0.447634,-0.100458,52,282,586,6224
1644190523.94856,-0.007751,0.009155,-0.991333,0.190321,0.371298,0.12855,47,275,589,6224
1644190523.998049,-0.011719,0.01001,-0.993042,0.175053,0.340763,-0.069924,39,269,585,6224
1644190524.068025,-0.008301,0.005554,-0.991211,0.129252,0.432366,-0.268397,51,281,592,6192
1644190524.097342,-0.007263,0.009888,-0.988831,0.159786,0.585038,-0.176794,55,276,585,6224
1644190524.188491,-0.009827,0.007935,-0.99292,0.08345,0.401832,0.021679,41,274,580,6192
1644190524.236866,-0.007935,0.010254,-0.99292,0.205588,0.417099,-0.039389,43,276,585,6240
1644190524.285417,-0.010803,0.009399,-0.990356,0.297191,0.325496,-0.039389,45,268,584,6224
1644190524.333679,-0.00885,0.008667,-0.991272,0.312458,0.356031,-0.222595,54,270,579,6192
1644190524.382074,-0.010986,0.009521,-0.993896,0.327725,0.554504,0.082748,53,274,578,6240
1644190524.430439,-0.008911,0.007812,-0.991211,0.327725,0.447634,0.036947,49,277,579,6240
1644190524.478855,-0.010559,0.008118,-0.994812,0.266656,0.539237,-0.100458,46,279,580,6160
1644190524.52724,-0.01001,0.009277,-0.991394,0.35826,0.691908,-0.054656,42,285,584,6224
1644190524.575634,-0.007874,0.008606,-0.992249,0.373527,0.417099,-0.176794,55,271,592,6224
1644190524.624036,-0.005798,0.010071,-0.99115,0.281924,0.432366,-0.069924,47,277,577,6240
1644190524.672415,-0.009827,0.007812,-0.992249,0.236122,0.325496,-0.207328,40,282,579,6192
1644190524.720861,-0.009583,0.007568,-0.993286,0.266656,0.432366,-0.054656,53,266,580,6224
1644190524.769209,-0.006958,0.012512,-0.992859,0.419328,0.539237,-0.024122,46,279,583,6304
1644190524.817631,-0.009766,0.010132,-0.99115,0.266656,0.356031,0.021679,47,270,584,6240
1644190524.866004,-0.008606,0.011475,-0.991089,0.342992,0.554504,-0.237863,57,282,572,6240
1644190524.914427,-0.006958,0.011169,-0.99469,0.281924,0.401832,-0.130992,47,275,579,6256
1644190524.962834,-0.00769,0.010925,-0.99054,0.144519,0.569771,-0.192061,39,274,576,6224
1644190525.011209,-0.009766,0.009399,-0.994202,0.220855,0.478168,-0.100458,45,280,586,6288
1644190525.107916,-0.009766,0.010071,-0.989502,0.159786,0.478168,-0.069924,42,268,586,6224
1644190525.156332,-0.011047,0.012207,-0.993103,0.35826,0.493435,-0.100458,52,277,575,6240
1644190525.204861,-0.00946,0.006287,-0.993591,0.281924,0.340763,-0.130992,42,282,575,6224
1644190525.253158,-0.006287,0.011169,-0.989929,0.297191,0.325496,-0.100458,48,276,576,6176
1644190525.30153,-0.008606,0.009888,-0.993652,0.327725,0.310229,-0.069924,38,277,582,6224
1644190525.349922,-0.00824,0.009277,-0.990967,0.205588,0.462901,-0.161527,41,274,590,6256
1644190525.398321,-0.010254,0.007812,-0.990295,0.205588,0.493435,-0.054656,52,287,589,6256
1644190525.446702,-0.009277,0.008362,-0.99176,0.251389,0.386565,-0.115725,53,286,583,6240
1644190525.495237,-0.007812,0.00769,-0.990173,0.068183,0.386565,-0.192061,43,271,587,6240
1644190525.5435,-0.010254,0.012024,-0.990051,0.08345,0.478168,-0.069924,51,279,578,6224
1644190525.591909,-0.007141,0.010376,-0.992798,0.266656,0.417099,-0.054656,49,260,579,6176
1644190525.64028,-0.00885,0.008789,-0.99353,0.144519,0.371298,-0.054656,46,276,587,6176
1644190525.688666,-0.008606,0.010559,-0.990601,0.037649,0.523969,-0.054656,41,293,592,6240
1644190525.737072,-0.008911,0.012756,-0.992981,0.08345,0.462901,-0.161527,46,271,590,6240
1644190525.785466,-0.007996,0.008179,-0.988708,0.388794,0.310229,-0.161527,52,292,582,6288
1644190525.83388,-0.009155,0.008179,-0.991272,0.236122,0.508702,-0.115725,54,273,584,6288
1644190525.882296,-0.006226,0.010803,-0.992126,0.312458,0.401832,0.006412,51,266,583,6192
1644190525.930675,-0.010437,0.011108,-0.988647,0.281924,0.585038,-0.14626,46,271,585,6240
1644190525.979077,-0.009338,0.011658,-0.993958,0.144519,0.478168,-0.054656,48,269,576,6240
1644190526.028049,-0.010193,0.010071,-0.989258,0.327725,0.386565,-0.069924,48,279,580,6224
1644190526.090872,-0.009888,0.006775,-0.992493,0.35826,0.279695,-0.069924,65,286,594,6240
1644190526.125704,-0.006958,0.007324,-0.993958,0.159786,0.310229,-0.100458,57,265,579,6256
1644190526.221001,-0.008057,0.011841,-0.993103,0.098718,0.340763,-0.008855,47,277,591,6224
1644190526.269397,-0.010498,0.006775,-0.991516,0.297191,0.554504,0.021679,46,269,576,6240
1644190526.317776,-0.008728,0.007019,-0.99176,0.327725,0.294962,0.082748,41,286,585,6224
1644190526.366157,-0.009338,0.008728,-0.991943,0.144519,0.294962,0.006412,45,277,579,6128
1644190526.414617,-0.008362,0.012329,-0.993225,0.388794,0.493435,-0.024122,49,270,584,6224
1644190526.462979,-0.006836,0.007751,-0.990662,0.251389,0.447634,0.006412,48,274,571,6224
1644190526.511376,-0.012085,0.008362,-0.990723,0.281924,0.325496,-0.14626,47,277,582,6192
1644190526.559759,-0.005493,0.010376,-0.990784,0.159786,0.417099,0.113282,52,265,584,6240
1644190526.608164,-0.007141,0.009155,-0.991821,0.266656,0.371298,0.006412,51,279,587,6176
1644190526.656543,-0.011414,0.010376,-0.989929,0.281924,0.447634,-0.085191,41,276,580,6240
1644190526.705111,-0.008789,0.00946,-0.991943,0.297191,0.401832,-0.069924,46,283,583,6192
1644190526.753345,-0.007751,0.010986,-0.989563,0.175053,0.340763,0.036947,52,285,582,6288
1644190526.801732,-0.00885,0.009155,-0.990906,0.144519,0.279695,-0.069924,51,281,585,6240
1644190526.850151,-0.008728,0.010437,-0.988831,0.175053,0.340763,-0.054656,48,286,592,6256
1644190526.898542,-0.007324,0.007202,-0.992004,0.144519,0.615573,-0.008855,42,280,586,6224
1644190526.946932,-0.009277,0.009583,-0.991394,0.434595,0.325496,-0.115725,54,273,586,6224
1644190526.995338,-0.008057,0.008545,-0.994141,0.205588,0.462901,-0.069924,55,271,597,6224
1644190527.056346,-0.008545,0.009644,-0.993164,0.159786,0.371298,-0.024122,43,271,583,6176
1644190527.09959,-0.011414,0.008972,-0.991028,0.205588,0.386565,-0.222595,45,282,593,6224
1644190527.143264,-0.008545,0.009338,-0.991882,0.190321,0.294962,-0.130992,45,268,586,6192
1644190527.192383,-0.007874,0.011292,-0.991333,0.175053,0.386565,0.006412,53,266,592,6224
1644190527.242228,-0.00824,0.010193,-0.99115,0.312458,0.401832,-0.008855,48,276,576,6224
1644190527.334044,-0.009033,0.010559,-0.99231,0.220855,0.325496,-0.085191,43,276,587,6224
1644190527.382483,-0.010864,0.009521,-0.990845,0.159786,0.386565,-0.161527,43,283,587,6176
1644190527.430822,-0.010681,0.011047,-0.99353,0.175053,0.447634,-0.192061,34,266,583,6224
1644190527.479208,-0.008606,0.007935,-0.990234,0.342992,0.447634,-0.054656,53,281,578,6224
1644190527.527615,-0.009766,0.011414,-0.989441,0.113985,0.340763,-0.039389,48,276,580,6240
1644190527.575999,-0.00946,0.011292,-0.990906,0.144519,0.493435,-0.024122,55,283,585,6240
1644190527.624409,-0.013,0.010254,-0.989868,0.327725,0.386565,-0.085191,33,287,584,6224
1644190527.672811,-0.005432,0.010986,-0.992737,0.281924,0.386565,-0.039389,46,279,573,6224
1644190527.721163,-0.007874,0.008423,-0.989441,-0.02342,0.371298,-0.024122,45,282,586,6160
1644190527.769582,-0.00885,0.011292,-0.989807,0.342992,0.371298,-0.069924,58,266,587,6240
1644190527.817976,-0.008301,0.00946,-0.991089,0.175053,0.294962,-0.024122,54,268,591,6224
1644190527.866367,-0.010925,0.010742,-0.991821,0.205588,0.386565,-0.039389,43,274,583,6240
1644190527.914827,-0.008972,0.012268,-0.993408,0.129252,0.371298,-0.039389,43,274,580,6240
1644190527.963191,-0.009644,0.00769,-0.991882,0.113985,0.371298,0.006412,52,280,591,6224
1644190528.011556,-0.01062,0.007385,-0.992004,0.266656,0.493435,-0.115725,41,291,592,6176
1644190528.078411,-0.007263,0.009399,-0.991394,0.266656,0.340763,-0.039389,52,270,579,6304
1644190528.11065,-0.007751,0.01062,-0.992615,0.175053,0.325496,-0.085191,51,279,583,6240
1644190528.156718,-0.012024,0.011536,-0.989563,0.327725,0.264427,-0.069924,47,270,593,6160
1644190528.205477,-0.00769,0.010132,-0.990051,0.388794,0.264427,-0.039389,52,273,584,6224
1644190528.25512,-0.007935,0.008667,-0.990234,0.220855,0.569771,0.006412,49,277,577,6224
1644190528.305489,-0.010254,0.010071,-0.992554,0.266656,0.432366,-0.115725,46,269,585,6224
1644190528.350325,-0.009155,0.00824,-0.991638,0.129252,0.294962,-0.024122,43,281,578,6240
1644190528.447057,-0.007446,0.008423,-0.991577,0.327725,0.523969,-0.115725,54,277,586,6256
1644190528.495453,-0.008118,0.00885,-0.991455,0.35826,0.356031,-0.039389,41,279,592,6192
1644190528.543861,-0.006104,0.010559,-0.99176,0.205588,0.325496,-0.176794,53,286,587,6256
1644190528.592388,-0.00946,0.009216,-0.990234,0.175053,0.310229,-0.207328,51,279,578,6224
1644190528.640649,-0.010437,0.012085,-0.991455,0.480397,0.325496,-0.222595,46,279,585,6224
1644190528.689038,-0.008423,0.009827,-0.992676,0.007115,0.340763,-0.039389,46,279,583,6160
1644190528.737431,-0.008484,0.010071,-0.992126,0.251389,0.478168,-0.14626,52,282,582,6224
1644190528.785822,-0.010254,0.008667,-0.992371,0.190321,0.417099,-0.130992,52,277,586,6256
1644190528.83423,-0.00946,0.010864,-0.99231,0.159786,0.493435,-0.176794,47,285,589,6128
1644190528.882644,-0.012695,0.008545,-0.987915,0.098718,0.279695,-0.115725,43,281,590,6256
1644190528.931037,-0.008789,0.009644,-0.99176,0.022382,0.478168,-0.115725,57,277,584,6224
1644190528.979443,-0.007263,0.010986,-0.991516,0.251389,0.264427,-0.069924,49,285,589,6240
1644190529.027837,-0.008484,0.007751,-0.989624,0.236122,0.386565,0.006412,59,273,579,6224
1644190529.082675,-0.009033,0.011108,-0.994263,0.220855,0.401832,-0.008855,60,283,597,6224
1644190529.124643,-0.009705,0.008545,-0.990051,0.35826,0.356031,-0.268397,54,268,593,6160
1644190529.173077,-0.007568,0.01123,-0.99054,0.113985,0.523969,-0.130992,43,283,585,6256
1644190529.221375,-0.008423,0.009521,-0.992981,0.175053,0.569771,-0.14626,43,271,580,6224
1644190529.269915,-0.010193,0.009521,-0.993042,0.281924,0.401832,0.036947,59,270,582,6224
1644190529.320325,-0.007874,0.008545,-0.99292,0.342992,0.462901,0.052214,40,277,586,6176
1644190529.370467,-0.006165,0.010437,-0.990051,0.327725,0.294962,-0.161527,43,276,583,6192
1644190529.41581,-0.006531,0.008667,-0.993225,0.388794,0.523969,-0.100458,52,280,575,6160
1644190529.511716,-0.008179,0.009644,-0.991211,0.251389,0.478168,-0.054656,40,280,586,6128
1644190529.560107,-0.008545,0.009338,-0.993347,0.312458,0.371298,0.067481,47,280,582,6224
1644190529.60851,-0.008301,0.011108,-0.992493,0.312458,0.386565,-0.085191,39,274,580,6224
1644190529.6569,-0.009583,0.011353,-0.991211,0.297191,0.508702,-0.069924,52,277,570,6224
1644190529.705287,-0.009155,0.007263,-0.993103,0.220855,0.401832,0.052214,42,275,584,6224
1644190529.753671,-0.00708,0.011902,-0.991394,0.159786,0.478168,0.036947,46,281,580,6224
1644190529.80208,-0.005798,0.011047,-0.990356,0.098718,0.417099,0.021679,52,275,579,6224
1644190529.850477,-0.010864,0.01001,-0.990234,0.266656,0.386565,0.052214,55,274,585,6224
1644190529.898888,-0.005493,0.008972,-0.990906,0.373527,0.432366,-0.176794,51,274,583,6224
1644190529.947292,-0.008118,0.007629,-0.991943,0.236122,0.432366,-0.024122,49,275,579,6224
1644190529.995669,-0.006531,0.010254,-0.989685,0.327725,0.447634,-0.069924,54,277,584,6224
1644190530.057991,-0.009583,0.009888,-0.99231,0.327725,0.417099,-0.054656,46,276,583,6224
1644190530.094243,-0.009644,0.008545,-0.991333,0.220855,0.493435,-0.039389,52,270,586,6176
1644190530.14089,-0.008789,0.011902,-0.990173,0.068183,0.294962,-0.25313,51,288,583,6176
1644190530.189272,-0.008301,0.009644,-0.989746,0.297191,0.478168,-0.115725,51,274,578,6256
1644190530.237662,-0.007935,0.008789,-0.990601,0.297191,0.508702,-0.008855,42,282,577,6256
1644190530.286035,-0.007751,0.010132,-0.991699,0.266656,0.417099,0.006412,54,268,589,6224
1644190530.334699,-0.009155,0.006958,-0.991028,0.251389,0.356031,-0.237863,58,274,576,6256
1644190530.383131,-0.010376,0.008484,-0.991333,0.113985,0.356031,-0.054656,42,270,579,6224
1644190530.434894,-0.009521,0.008484,-0.98999,0.281924,0.508702,-0.192061,55,276,580,6192
1644190530.484891,-0.009094,0.009827,-0.989136,0.35826,0.340763,-0.130992,43,266,587,6224
1644190530.528623,-0.008911,0.009216,-0.992676,0.205588,0.356031,-0.039389,55,276,585,6224
1644190530.624907,-0.006042,0.00824,-0.991882,0.373527,0.294962,0.021679,53,271,580,6224
1644190530.673205,-0.007019,0.010376,-0.994324,0.342992,0.356031,-0.024122,43,274,573,6240
1644190530.721598,-0.008789,0.01178,-0.988708,0.144519,0.340763,-0.069924,43,271,580,6224
1644190530.769964,-0.00824,0.008789,-0.990051,0.205588,0.264427,-0.100458,46,271,592,6240
1644190530.818364,-0.009705,0.007751,-0.990723,0.266656,0.600305,-0.024122,51,276,587,6160
1644190530.866786,-0.005798,0.008667,-0.992798,0.266656,0.417099,-0.085191,49,277,577,6192
1644190530.915183,-0.006531,0.010132,-0.990601,0.342992,0.493435,0.021679,46,276,580,6224
1644190530.963554,-0.007996,0.01001,-0.99292,0.281924,0.539237,-0.085191,60,269,578,6240
1644190531.011957,-0.009888,0.01001,-0.991943,0.373527,0.493435,-0.176794,40,263,593,6176
1644190531.06145,-0.008179,0.012146,-0.990784,0.159786,0.447634,-0.085191,47,275,591,6224
1644190531.108677,-0.008423,0.010559,-0.993835,0.159786,0.371298,-0.039389,60,279,580,6224
1644190531.157064,-0.007874,0.008789,-0.990967,0.113985,0.340763,0.006412,48,271,590,6256
1644190531.205475,-0.009338,0.007324,-0.991638,0.159786,0.417099,-0.115725,51,269,583,6224
1644190531.253869,-0.009094,0.01062,-0.990845,0.220855,0.508702,-0.283664,52,275,586,6224
1644190531.302249,-0.008728,0.011353,-0.991333,0.098718,0.417099,-0.069924,49,282,589,6240
1644190531.350661,-0.007935,0.00592,-0.989746,0.052916,0.310229,-0.100458,42,285,589,6192
1644190531.399047,-0.005249,0.011475,-0.991577,0.297191,0.478168,-0.176794,39,266,578,6256
1644190531.447419,-0.009766,0.009216,-0.992737,0.327725,0.569771,-0.024122,52,277,586,6224
1644190531.495814,-0.006592,0.010254,-0.990662,0.220855,0.356031,-0.130992,42,275,579,6224
1644190531.544266,-0.007996,0.011475,-0.993042,0.205588,0.447634,-0.069924,55,271,580,6288
1644190531.594648,-0.007935,0.009399,-0.993408,0.251389,0.279695,0.082748,47,273,586,6224
1644190531.64541,-0.012085,0.008118,-0.992126,0.342992,0.310229,-0.222595,45,275,584,6240
1644190531.690022,-0.00708,0.010742,-0.990234,0.236122,0.508702,-0.054656,53,279,580,6192
1644190531.786178,-0.008911,0.009888,-0.992004,0.220855,0.401832,-0.130992,48,276,580,6224
1644190531.834899,-0.008301,0.008667,-0.990845,0.205588,0.508702,0.052214,62,271,583,6288
1644190531.883035,-0.009216,0.008301,-0.992126,0.068183,0.310229,-0.069924,53,276,578,6176
1644190531.931406,-0.00885,0.008423,-0.991333,0.266656,0.310229,-0.14626,46,274,578,6176
1644190531.979804,-0.00647,0.010742,-0.99176,0.190321,0.401832,-0.039389,45,277,579,6224
1644190532.028204,-0.008606,0.01062,-0.992981,0.159786,0.401832,0.006412,41,288,585,6224
1644190532.076651,-0.006409,0.010254,-0.990479,0.113985,0.279695,0.036947,52,277,589,6192
1644190532.125098,-0.010681,0.009705,-0.993042,0.281924,0.447634,-0.069924,48,269,578,6224
1644190532.173346,-0.008179,0.01062,-0.99115,0.205588,0.264427,-0.039389,51,276,583,6224
1644190532.221723,-0.005554,0.009094,-0.990906,0.159786,0.447634,-0.14626,42,260,586,6224
1644190532.270097,-0.007751,0.009216,-0.993652,0.342992,0.386565,-0.14626,47,270,584,6240
1644190532.318523,-0.010437,0.009521,-0.991333,0.175053,0.371298,-0.130992,48,281,592,6240
1644190532.366905,-0.009583,0.009705,-0.994568,0.266656,0.401832,-0.069924,45,277,589,6176
1644190532.415292,-0.010925,0.008728,-0.992188,0.159786,0.401832,-0.14626,42,277,591,6240
1644190532.463685,-0.009521,0.009216,-0.992432,0.266656,0.325496,-0.008855,48,283,580,6240
1644190532.512139,-0.00708,0.010986,-0.98822,0.35826,0.386565,-0.069924,47,273,584,6256
1644190532.560479,-0.007141,0.010254,-0.991516,0.144519,0.325496,-0.192061,39,281,578,6224
1644190532.608885,-0.010437,0.006836,-0.99231,0.266656,0.371298,-0.192061,39,283,590,6192
1644190532.65763,-0.00769,0.007385,-0.989929,0.388794,0.386565,0.113282,46,286,583,6256
1644190532.70648,-0.008606,0.010986,-0.991272,0.129252,0.478168,0.021679,46,269,580,6240
1644190532.757097,-0.009399,0.009277,-0.990967,0.098718,0.386565,0.113282,54,265,584,6192
1644190532.807511,-0.008423,0.006714,-0.991943,0.297191,0.539237,-0.024122,42,270,589,6192
1644190532.899294,-0.010498,0.011108,-0.990234,0.419328,0.447634,-0.024122,47,282,589,6240
1644190532.947672,-0.010986,0.011047,-0.991333,0.205588,0.401832,-0.024122,51,269,590,6304
1644190532.996049,-0.009155,0.009949,-0.991699,0.236122,0.417099,0.082748,46,271,587,6224
1644190533.044469,-0.010071,0.01001,-0.995422,0.220855,0.371298,0.067481,59,270,589,6224
1644190533.092912,-0.007751,0.009766,-0.992493,0.312458,0.462901,-0.008855,45,282,584,6256
1644190533.14121,-0.007141,0.010864,-0.991394,0.205588,0.493435,-0.161527,48,274,583,6256
1644190533.189582,-0.00769,0.009705,-0.993835,0.159786,0.401832,-0.024122,49,268,582,6240
1644190533.237981,-0.007935,0.011108,-0.991638,0.220855,0.478168,0.052214,49,270,577,6256
1644190533.286345,-0.005188,0.011047,-0.99408,0.236122,0.569771,-0.161527,48,271,587,6240
1644190533.334751,-0.006775,0.009644,-0.991943,0.266656,0.356031,0.082748,55,279,587,6224
1644190533.383184,-0.009216,0.010742,-0.991455,0.022382,0.432366,-0.100458,53,279,578,6224
1644190533.431552,-0.009644,0.01001,-0.992188,0.205588,0.462901,-0.024122,60,279,585,6224
1644190533.479921,-0.010925,0.012634,-0.993286,0.144519,0.401832,-0.25313,46,274,587,6256
1644190533.528336,-0.008606,0.008972,-0.992554,0.281924,0.417099,0.052214,48,271,580,6240
1644190533.576759,-0.009277,0.010132,-0.990295,0.266656,0.523969,-0.085191,47,275,589,6224
1644190533.626965,-0.00824,0.009888,-0.990967,0.037649,0.508702,-0.14626,43,269,576,6192
1644190533.677501,-0.008606,0.010315,-0.990051,0.266656,0.432366,-0.192061,53,276,580,6128
1644190533.722473,-0.010681,0.010681,-0.990295,0.327725,0.646107,-0.115725,48,271,578,6160
1644190533.818698,-0.008362,0.008667,-0.988892,0.312458,0.432366,-0.085191,45,270,582,6240
1644190533.867129,-0.004456,0.011963,-0.994812,0.190321,0.462901,-0.054656,40,277,579,6192
1644190533.915878,-0.007263,0.009766,-0.992981,0.236122,0.401832,-0.054656,57,277,575,6176
1644190533.96391,-0.010376,0.009949,-0.993042,0.266656,0.432366,-0.115725,49,265,586,6224
1644190534.012329,-0.01062,0.010803,-0.991455,0.205588,0.447634,-0.008855,48,276,580,6256
1644190534.066279,-0.008667,0.007629,-0.991272,0.159786,0.523969,-0.008855,47,268,584,6240
1644190534.109036,-0.007874,0.008484,-0.993286,0.35826,0.478168,-0.14626,49,287,577,6304
1644190534.157443,-0.008667,0.011841,-0.991455,0.205588,0.447634,-0.237863,49,277,582,6176
1644190534.205844,-0.007935,0.009399,-0.992065,0.297191,0.310229,-0.222595,52,275,579,6224
1644190534.254252,-0.006409,0.010925,-0.990601,0.312458,0.417099,-0.039389,46,286,576,6224
1644190534.302641,-0.007385,0.012329,-0.989929,0.312458,0.478168,-0.039389,48,274,576,6176
1644190534.351034,-0.009583,0.009583,-0.994019,0.236122,0.356031,-0.36,45,273,579,6256
1644190534.399419,-0.010803,0.01178,-0.990295,0.129252,0.371298,-0.054656,47,268,577,6224
1644190534.447826,-0.009644,0.009949,-0.991089,0.08345,0.432366,-0.085191,52,282,586,6304
1644190534.496217,-0.011902,0.009399,-0.990356,0.052916,0.401832,0.006412,55,286,594,6192
1644190534.544644,-0.009216,0.009033,-0.990234,0.327725,0.340763,-0.008855,43,266,585,6192
1644190534.593006,-0.007141,0.010803,-0.99176,0.236122,0.386565,-0.024122,54,280,591,6224
1644190534.641367,-0.007202,0.011719,-0.989441,0.312458,0.478168,-0.100458,49,270,584,6256
1644190534.689759,-0.008118,0.012329,-0.99231,0.190321,0.401832,-0.039389,42,280,591,6224
1644190534.738591,-0.008484,0.007935,-0.991211,0.251389,0.417099,-0.115725,42,273,589,6224
1644190534.789042,-0.006042,0.011292,-0.991577,0.236122,0.371298,-0.054656,35,268,582,6256
1644190534.839843,-0.009094,0.008911,-0.992188,0.159786,0.569771,-0.008855,39,266,587,6224
1644190534.884677,-0.006042,0.008728,-0.99115,0.236122,0.462901,-0.039389,51,274,580,6336
1644190534.980171,-0.010986,0.010925,-0.991699,0.220855,0.493435,-0.069924,47,280,577,6192
1644190535.028556,-0.010071,0.008545,-0.992432,0.236122,0.523969,-0.130992,54,280,582,6192
1644190535.077559,-0.008179,0.012634,-0.991699,0.159786,0.478168,0.098015,48,269,590,6224
1644190535.125355,-0.008118,0.011108,-0.994263,0.190321,0.294962,-0.024122,46,274,597,6224
1644190535.173711,-0.005066,0.01239,-0.988586,0.205588,0.523969,-0.085191,45,275,586,6256
1644190535.222136,-0.006836,0.009399,-0.992126,0.159786,0.447634,-0.161527,43,276,576,6176
1644190535.270481,-0.007263,0.007935,-0.987854,0.236122,0.356031,0.021679,41,274,578,6224
1644190535.318882,-0.008484,0.010925,-0.991516,0.144519,0.24916,0.082748,47,273,584,6256
1644190535.367249,-0.010254,0.010681,-0.993835,0.129252,0.432366,-0.054656,53,279,573,6224
1644190535.415683,-0.009338,0.011536,-0.991882,0.068183,0.386565,-0.085191,53,274,587,6240
1644190535.464093,-0.005005,0.01123,-0.989441,0.281924,0.325496,-0.085191,58,274,585,6240
1644190535.512442,-0.00769,0.011169,-0.990479,0.266656,0.462901,-0.100458,54,275,582,6256
1644190535.56086,-0.006531,0.012085,-0.99231,0.266656,0.508702,-0.161527,46,266,590,6224
1644190535.609252,-0.007141,0.012939,-0.989014,0.098718,0.462901,0.006412,49,270,577,6192
1644190535.657643,-0.012512,0.011353,-0.992065,0.312458,0.478168,-0.085191,53,276,583,6224
1644190535.706017,-0.007751,0.009338,-0.98999,0.205588,0.539237,-0.176794,57,275,586,6192
1644190535.754408,-0.005981,0.01178,-0.990967,0.007115,0.310229,-0.100458,47,273,589,6192
1644190535.802825,-0.00885,0.013184,-0.991577,0.35826,0.401832,-0.176794,43,264,587,6288
1644190535.851243,-0.010742,0.009644,-0.992493,0.220855,0.462901,-0.024122,51,276,592,6240
1644190535.901807,-0.006165,0.009705,-0.992981,0.220855,0.478168,-0.176794,57,282,575,6224
1644190535.95155,-0.007507,0.010681,-0.990479,0.251389,0.417099,-0.008855,55,281,590,6224
1644190536.001965,-0.010986,0.007996,-0.99231,0.342992,0.478168,-0.100458,55,274,580,6224
1644190536.07256,-0.006348,0.011597,-0.992615,0.281924,0.447634,-0.130992,46,274,590,6224
1644190536.141591,-0.008179,0.008972,-0.994324,0.297191,0.401832,0.036947,49,277,596,6224
1644190536.189946,-0.010742,0.009583,-0.988586,0.144519,0.325496,-0.085191,46,259,580,6240
1644190536.238349,-0.006348,0.010132,-0.992737,0.419328,0.386565,0.006412,43,276,580,6192
1644190536.286747,-0.009277,0.010376,-0.991638,0.129252,0.447634,-0.054656,52,277,582,6224
1644190536.335171,-0.008057,0.010132,-0.989441,0.297191,0.478168,-0.14626,49,282,582,6176
1644190536.383548,-0.005981,0.009216,-0.991516,0.205588,0.447634,-0.069924,46,274,592,6176
1644190536.431915,-0.008789,0.007874,-0.990723,0.251389,0.432366,-0.283664,45,275,582,6224
1644190536.480325,-0.009399,0.01123,-0.988953,0.251389,0.340763,-0.008855,51,266,583,6192
1644190536.528713,-0.011047,0.01001,-0.989258,0.342992,0.356031,-0.14626,55,276,580,6192
1644190536.577112,-0.008362,0.008118,-0.991638,0.175053,0.478168,-0.069924,58,279,576,6176
1644190536.625497,-0.006958,0.009399,-0.992798,0.052916,0.417099,-0.207328,48,274,592,6192
1644190536.673903,-0.00824,0.009644,-0.988342,0.175053,0.233893,-0.268397,49,275,591,6176
1644190536.722296,-0.007019,0.007874,-0.989746,0.312458,0.401832,-0.130992,38,282,584,6224
1644190536.770676,-0.007874,0.008911,-0.991699,0.373527,0.340763,0.021679,53,274,578,6192
1644190536.819072,-0.010071,0.012939,-0.992188,0.388794,0.462901,-0.115725,45,273,577,6176
1644190536.867512,-0.008911,0.007446,-0.990967,0.297191,0.417099,-0.039389,49,287,591,6240
1644190536.915905,-0.010132,0.008545,-0.99054,0.419328,0.447634,-0.100458,43,279,580,6240
1644190536.964311,-0.009094,0.009583,-0.990662,0.236122,0.493435,-0.085191,54,263,591,6160
1644190537.012701,-0.010986,0.009033,-0.992249,0.205588,0.310229,-0.161527,55,276,592,6224
1644190537.085356,-0.00647,0.009216,-0.991699,0.159786,0.325496,-0.054656,49,280,591,6256
1644190537.15783,-0.009094,0.009399,-0.992432,0.449863,0.356031,0.052214,47,275,584,6176
1644190537.206191,-0.008301,0.006714,-0.992737,0.129252,0.401832,0.052214,55,269,587,6256
1644190537.254908,-0.010132,0.008667,-0.99176,0.236122,0.478168,0.052214,48,276,587,6256
1644190537.303003,-0.007568,0.007874,-0.991028,0.236122,0.539237,-0.176794,49,277,579,6176
1644190537.351382,-0.003296,0.010254,-0.992371,0.175053,0.417099,0.052214,49,277,577,6240
1644190537.399781,-0.008179,0.006531,-0.989258,0.175053,0.386565,-0.085191,52,270,575,6256
1644190537.448173,-0.009521,0.009216,-0.990662,0.175053,0.371298,-0.039389,47,270,579,6192
1644190537.496574,-0.007935,0.008423,-0.988342,0.007115,0.462901,-0.054656,33,282,584,6192
1644190537.544998,-0.007874,0.008728,-0.991638,0.159786,0.401832,-0.100458,45,270,577,6240
1644190537.593354,-0.007507,0.009583,-0.989624,0.175053,0.325496,-0.161527,55,276,592,6240
1644190537.641741,-0.011475,0.00946,-0.991821,0.297191,0.462901,-0.14626,51,274,583,6176
1644190537.690141,-0.007202,0.010254,-0.991699,0.236122,0.508702,-0.161527,49,270,589,6240
1644190537.738531,-0.005615,0.007385,-0.99176,0.205588,0.462901,-0.008855,54,282,584,6128
1644190537.786924,-0.00885,0.010193,-0.990906,0.052916,0.462901,-0.100458,48,274,590,6240
1644190537.835316,-0.009399,0.008911,-0.990662,0.251389,0.279695,0.098015,54,263,584,6160
1644190537.883738,-0.00531,0.009827,-0.991333,0.190321,0.508702,-0.130992,45,280,589,6256
1644190537.932175,-0.007629,0.011353,-0.991882,0.281924,0.478168,-0.039389,52,273,591,6224
1644190537.980538,-0.010681,0.009216,-0.990723,0.327725,0.478168,0.021679,46,271,597,6224
1644190538.028941,-0.00885,0.010498,-0.993652,0.251389,0.386565,-0.085191,38,270,579,6224
1644190538.084796,-0.005676,0.011047,-0.991028,0.281924,0.325496,-0.069924,48,269,583,6256
1644190538.12903,-0.005066,0.007507,-0.991333,0.35826,0.310229,-0.024122,52,280,577,6240
1644190538.179123,-0.006775,0.009888,-0.992981,0.236122,0.432366,-0.100458,42,268,577,6160
1644190538.22367,-0.008179,0.008606,-0.993469,0.190321,0.401832,-0.207328,52,277,582,6224
1644190538.319266,-0.012268,0.010132,-0.991943,0.35826,0.432366,-0.161527,52,275,579,6240
1644190538.367678,-0.006165,0.012024,-0.991699,0.236122,0.554504,-0.115725,57,280,582,6240
1644190538.416072,-0.011719,0.008423,-0.992126,0.205588,0.417099,-0.161527,54,275,589,6224
1644190538.46447,-0.008728,0.009766,-0.992554,0.098718,0.432366,-0.100458,49,275,582,6240
1644190538.512848,-0.004883,0.013855,-0.992676,0.236122,0.523969,-0.192061,40,270,593,6256
1644190538.561253,-0.007812,0.010864,-0.989868,0.236122,0.432366,-0.008855,48,274,580,6224
1644190538.609643,-0.01001,0.011658,-0.991943,0.297191,0.554504,-0.054656,51,271,578,6224
1644190538.658042,-0.008057,0.011353,-0.989929,0.266656,0.508702,-0.115725,42,273,586,6240
1644190538.706408,-0.008118,0.013245,-0.989319,0.098718,0.478168,-0.085191,51,274,590,6192
1644190538.754854,-0.008972,0.009338,-0.993469,0.449863,0.417099,-0.008855,46,279,592,6240
1644190538.803226,-0.007141,0.008057,-0.989258,0.113985,0.462901,-0.115725,47,275,586,6240
1644190538.851614,-0.007996,0.010254,-0.993347,0.175053,0.432366,-0.085191,54,282,577,6224
1644190538.900009,-0.00824,0.006958,-0.990112,0.159786,0.539237,-0.100458,54,265,593,6240
1644190538.948369,-0.007385,0.009705,-0.99054,0.404061,0.279695,-0.100458,51,276,590,6224
1644190538.996802,-0.007202,0.012878,-0.991272,0.205588,0.401832,0.021679,54,270,589,6304
1644190539.058756,-0.009338,0.01062,-0.992615,0.190321,0.462901,-0.085191,45,280,589,6256
1644190539.099899,-0.009705,0.010376,-0.992615,0.205588,0.432366,-0.069924,58,281,590,6240
1644190539.141918,-0.006897,0.009766,-0.99115,0.159786,0.279695,-0.008855,51,281,583,6160
1644190539.190567,-0.00885,0.009033,-0.991577,0.037649,0.493435,0.067481,45,275,584,6240
1644190539.240933,-0.007385,0.009155,-0.989929,0.251389,0.539237,-0.085191,46,276,580,6192
1644190539.291143,-0.008118,0.012085,-0.993042,0.129252,0.447634,-0.085191,43,269,590,6224
1644190539.336247,-0.01123,0.007446,-0.992859,0.251389,0.478168,-0.100458,48,288,578,6240
1644190539.432326,-0.010559,0.009644,-0.990356,0.281924,0.371298,-0.069924,57,282,582,6224
1644190539.480671,-0.01178,0.008911,-0.991455,0.327725,0.508702,-0.024122,43,276,576,6256
1644190539.52906,-0.008423,0.011475,-0.992798,0.312458,0.340763,0.052214,57,282,579,6160
1644190539.577459,-0.005798,0.009766,-0.992859,0.220855,0.493435,0.067481,46,283,585,6240
1644190539.625852,-0.009644,0.008728,-0.989685,0.236122,0.539237,-0.069924,48,286,583,6128
1644190539.674253,-0.009094,0.007751,-0.99231,0.205588,0.386565,-0.161527,48,264,585,6240
1644190539.722671,-0.01123,0.007385,-0.992065,0.281924,0.294962,-0.161527,52,275,584,6224
1644190539.771014,-0.00769,0.011475,-0.989807,0.205588,0.523969,0.006412,62,274,585,6224
1644190539.819476,-0.010498,0.009766,-0.994446,0.190321,0.462901,0.174351,45,277,572,6160
1644190539.867862,-0.010681,0.010132,-0.994873,0.251389,0.478168,-0.054656,48,271,585,6256
1644190539.916266,-0.007019,0.00885,-0.990356,0.327725,0.478168,-0.100458,60,279,585,6224
1644190539.964741,-0.006104,0.013184,-0.99115,0.297191,0.294962,-0.008855,40,277,589,6256
1644190540.013032,-0.006897,0.007507,-0.992126,0.312458,0.417099,-0.222595,49,275,579,6176
1644190540.072863,-0.006165,0.009888,-0.993591,0.144519,0.386565,-0.130992,34,279,590,6224
1644190540.110461,-0.007446,0.009949,-0.991455,0.159786,0.432366,-0.237863,51,276,583,6256
1644190540.158185,-0.008667,0.006958,-0.990967,0.281924,0.478168,-0.192061,62,271,590,6224
1644190540.206579,-0.010254,0.009521,-0.991089,0.144519,0.432366,-0.024122,38,273,596,6256
1644190540.255028,-0.008911,0.01178,-0.991333,0.281924,0.417099,-0.085191,51,274,590,6288
1644190540.303546,-0.008667,0.010376,-0.99231,0.281924,0.386565,-0.069924,53,264,587,6224
1644190540.353896,-0.008789,0.008606,-0.992615,0.281924,0.340763,-0.14626,47,275,586,6176
1644190540.404081,-0.005005,0.009338,-0.991394,0.113985,0.447634,-0.054656,42,270,584,6256
1644190540.4492,-0.007141,0.007324,-0.99054,0.297191,0.386565,-0.115725,40,275,584,6080
1644190540.545383,-0.010132,0.008423,-0.990723,0.098718,0.493435,0.052214,52,273,582,6240
1644190540.593754,-0.009155,0.009888,-0.990784,0.266656,0.447634,-0.069924,52,280,586,6256
1644190540.642353,-0.007935,0.01123,-0.991211,0.236122,0.401832,-0.176794,51,279,583,6224
1644190540.690516,-0.009888,0.011292,-0.992432,0.175053,0.447634,0.006412,43,276,590,6224
1644190540.738897,-0.006287,0.006653,-0.993286,0.144519,0.371298,-0.25313,55,271,583,6176
1644190540.78729,-0.007385,0.008484,-0.993347,0.373527,0.417099,-0.161527,53,269,583,6256
1644190540.835715,-0.007568,0.010315,-0.990723,0.236122,0.294962,-0.115725,48,276,587,6224
1644190540.884125,-0.007263,0.008484,-0.991638,0.266656,0.539237,-0.054656,42,280,577,6240
1644190540.932531,-0.008362,0.010315,-0.993652,0.327725,0.340763,0.021679,47,275,582,6224
1644190540.980882,-0.007202,0.007629,-0.989624,0.251389,0.462901,-0.115725,43,281,583,6192
1644190541.029289,-0.009644,0.012024,-0.993164,0.312458,0.508702,-0.176794,52,270,577,6224
1644190541.08628,-0.007507,0.009277,-0.990723,0.388794,0.401832,-0.039389,45,273,589,6224
1644190541.126055,-0.009399,0.011414,-0.992371,0.205588,0.447634,0.143817,53,271,580,6240
1644190541.174444,-0.008728,0.008301,-0.992981,0.129252,0.493435,-0.115725,49,277,589,6224
1644190541.222845,-0.008911,0.011536,-0.990784,0.220855,0.432366,-0.008855,49,270,586,6256
1644190541.271558,-0.01123,0.009094,-0.990417,0.388794,0.401832,-0.085191,51,269,592,6224
1644190541.322241,-0.00824,0.009827,-0.990906,0.419328,0.340763,-0.130992,54,273,579,6304
1644190541.372337,-0.006897,0.008423,-0.992615,0.251389,0.401832,-0.054656,49,273,577,6240
1644190541.417363,-0.009399,0.009949,-0.991577,0.251389,0.523969,-0.176794,52,277,586,6240
1644190541.513189,-0.006287,0.005981,-0.99292,0.08345,0.401832,-0.115725,51,271,583,6288
1644190541.561566,-0.005371,0.009338,-0.99231,0.251389,0.294962,-0.130992,36,281,583,6256
1644190541.609963,-0.008423,0.010315,-0.991333,0.190321,0.310229,-0.176794,48,274,578,6224
1644190541.658365,-0.009277,0.010803,-0.990662,0.297191,0.340763,0.021679,38,277,591,6240
1644190541.706757,-0.006287,0.009583,-0.993591,0.159786,0.432366,-0.024122,52,285,579,6224
1644190541.755193,-0.010376,0.00769,-0.989746,0.327725,0.585038,0.021679,45,285,586,6192
1644190541.803575,-0.011108,0.010376,-0.991577,0.281924,0.310229,-0.100458,45,277,577,6224
1644190541.851971,-0.007874,0.009888,-0.992126,0.190321,0.493435,-0.100458,48,279,585,6224
1644190541.900378,-0.006226,0.011292,-0.990234,0.220855,0.523969,-0.085191,53,281,585,6256
1644190541.948759,-0.006287,0.009644,-0.991333,0.342992,0.615573,-0.14626,52,270,582,6224
1644190541.997135,-0.007935,0.009033,-0.991821,0.327725,0.401832,0.006412,64,277,586,6240
1644190542.058752,-0.008667,0.010315,-0.992737,0.220855,0.417099,-0.207328,51,269,587,6240
1644190542.096188,-0.008545,0.009155,-0.992859,0.220855,0.371298,-0.192061,51,274,585,6224
1644190542.142317,-0.008789,0.007996,-0.991394,0.35826,0.24916,-0.054656,53,281,583,6224
1644190542.190693,-0.009033,0.008423,-0.992065,0.281924,0.356031,-0.085191,52,275,586,6240
1644190542.23909,-0.007019,0.010864,-0.990295,0.281924,0.508702,0.006412,46,281,592,6240
1644190542.287472,-0.009399,0.008789,-0.993042,0.373527,0.401832,-0.008855,61,282,589,6240
1644190542.335864,-0.009583,0.009583,-0.991638,0.236122,0.478168,0.021679,53,274,585,6192
1644190542.38427,-0.009766,0.008179,-0.992249,0.205588,0.417099,-0.161527,51,276,587,6256
1644190542.433047,-0.011536,0.010132,-0.991699,0.327725,0.386565,-0.024122,61,280,586,6240
1644190542.483276,-0.009888,0.009033,-0.990234,0.281924,0.523969,-0.024122,46,271,590,6224
1644190542.533726,-0.007874,0.008301,-0.99054,0.373527,0.462901,-0.085191,46,281,583,6176
1644190542.578755,-0.008179,0.011047,-0.992737,0.251389,0.294962,-0.069924,51,276,587,6224
1644190542.674869,-0.008789,0.010193,-0.990356,0.129252,0.356031,-0.039389,60,266,576,6224
1644190542.723004,-0.008972,0.008789,-0.989258,0.113985,0.325496,-0.268397,38,273,586,6240
1644190542.771396,-0.008545,0.010681,-0.994934,0.35826,0.356031,0.052214,47,275,584,6224
1644190542.819801,-0.010315,0.007141,-0.99292,0.404061,0.340763,-0.14626,49,270,586,6224
1644190542.868222,-0.008972,0.007141,-0.992004,0.129252,0.401832,-0.054656,52,280,584,6224
1644190542.916629,-0.0047,0.009583,-0.991211,0.297191,0.478168,-0.039389,52,280,579,6160
1644190542.96507,-0.005737,0.009521,-0.989258,0.312458,0.417099,-0.176794,60,276,585,6240
1644190543.013414,-0.007141,0.009094,-0.992493,0.266656,0.493435,0.067481,51,266,583,6176
1644190543.069864,-0.008362,0.006531,-0.991394,0.068183,0.478168,-0.039389,64,277,589,6256
1644190543.110189,-0.011353,0.010193,-0.992065,0.312458,0.401832,-0.024122,54,285,586,6224
1644190543.158559,-0.00946,0.010742,-0.992126,0.266656,0.478168,-0.130992,47,285,584,6240
1644190543.206947,-0.009949,0.009094,-0.993286,0.175053,0.539237,-0.085191,46,288,587,6224
1644190543.255343,-0.00824,0.008911,-0.989502,0.159786,0.462901,-0.207328,47,285,593,6240
1644190543.303738,-0.008606,0.009644,-0.994385,0.297191,0.462901,0.021679,60,271,587,6256
1644190543.352201,-0.006836,0.00946,-0.99231,0.236122,0.371298,-0.176794,45,275,589,6080
1644190543.400518,-0.006653,0.008789,-0.991211,0.342992,0.401832,-0.085191,66,282,589,6176
1644190543.448901,-0.009094,0.009399,-0.992188,0.220855,0.432366,-0.039389,46,288,590,6240
1644190543.497293,-0.007507,0.00824,-0.991577,0.159786,0.493435,-0.100458,43,276,587,6192
1644190543.545665,-0.010193,0.008606,-0.989441,0.281924,0.325496,-0.176794,55,283,580,6224
1644190543.594142,-0.009399,0.010315,-0.993225,0.236122,0.356031,-0.237863,51,281,580,6288
1644190543.644975,-0.007141,0.00946,-0.991699,0.144519,0.386565,-0.069924,59,275,579,6192
1644190543.694989,-0.00824,0.010864,-0.992065,0.175053,0.478168,-0.115725,51,257,590,6240
1644190543.739913,-0.009644,0.009277,-0.989258,0.297191,0.279695,-0.222595,58,276,580,6240
1644190543.836038,-0.007507,0.006714,-0.990234,0.266656,0.478168,-0.069924,46,269,578,6240
1644190543.884497,-0.01001,0.011475,-0.992249,0.220855,0.447634,-0.054656,49,287,586,6224
1644190543.932882,-0.008118,0.006348,-0.991516,0.236122,0.401832,-0.054656,46,274,573,6224
1644190543.981235,-0.00824,0.010132,-0.994141,0.251389,0.462901,-0.283664,46,266,587,6176
1644190544.029665,-0.010132,0.010254,-0.99176,0.098718,0.264427,-0.192061,52,275,579,6240
1644190544.081208,-0.007324,0.00946,-0.991821,0.205588,0.462901,-0.008855,60,274,597,6256
1644190544.126413,-0.008301,0.007629,-0.991455,0.297191,0.615573,-0.054656,43,281,583,6192
1644190544.174824,-0.010559,0.010437,-0.991394,0.266656,0.447634,0.006412,41,283,580,6160
1644190544.223211,-0.008118,0.011658,-0.992859,0.251389,0.462901,0.006412,45,273,584,6128
1644190544.271598,-0.008179,0.006897,-0.991821,0.159786,0.569771,-0.024122,45,282,586,6240
1644190544.31997,-0.009399,0.013489,-0.993591,0.190321,0.462901,-0.283664,51,279,583,6256
1644190544.368382,-0.010315,0.008911,-0.990906,0.129252,0.432366,-0.069924,43,269,587,6176
1644190544.41677,-0.008728,0.006775,-0.991455,0.373527,0.325496,-0.161527,48,266,580,6224
1644190544.465223,-0.011292,0.010498,-0.993591,0.144519,0.340763,-0.176794,40,275,582,6224
1644190544.513551,-0.010132,0.009705,-0.990295,0.190321,0.417099,-0.024122,47,275,584,6224
1644190544.561955,-0.008118,0.012756,-0.991943,0.236122,0.294962,-0.14626,45,273,589,6304
1644190544.610332,-0.009399,0.009583,-0.991821,0.251389,0.462901,-0.130992,55,271,580,6256
1644190544.658734,-0.009766,0.013062,-0.992554,0.312458,0.462901,-0.176794,51,276,590,6160
1644190544.707103,-0.012512,0.00885,-0.991333,0.022382,0.462901,-0.100458,49,273,582,6224
1644190544.755713,-0.009888,0.010803,-0.991455,0.281924,0.539237,0.082748,46,274,587,6240
1644190544.806187,-0.00824,0.010681,-0.99231,0.220855,0.508702,0.052214,52,280,582,6224
1644190544.857427,-0.010071,0.009277,-0.98877,0.373527,0.279695,-0.008855,53,283,599,6176
1644190544.901815,-0.007324,0.00885,-0.989624,0.297191,0.432366,-0.039389,53,279,578,6224
1644190544.997517,-0.010925,0.011292,-0.993835,0.144519,0.310229,-0.130992,49,287,577,6224
1644190545.059621,-0.009705,0.011108,-0.993347,0.266656,0.432366,0.021679,52,280,593,6240
1644190545.095502,-0.011658,0.007019,-0.991394,0.175053,0.233893,0.021679,48,281,576,6192
1644190545.142716,-0.009216,0.01239,-0.991211,0.236122,0.432366,-0.115725,48,286,573,6288
1644190545.191052,-0.010132,0.009949,-0.992554,0.08345,0.447634,-0.085191,51,279,585,6240
1644190545.239413,-0.006104,0.010071,-0.990417,0.190321,0.417099,-0.100458,61,280,582,6160
1644190545.287819,-0.008179,0.009155,-0.992065,0.388794,0.432366,-0.176794,46,271,578,6224
1644190545.336237,-0.008362,0.01001,-0.992554,0.129252,0.569771,-0.024122,51,286,583,6192
1644190545.384636,-0.011108,0.008362,-0.990845,0.251389,0.325496,0.006412,52,277,589,6176
1644190545.43303,-0.010376,0.01123,-0.993103,0.236122,0.386565,-0.130992,43,274,590,6224
1644190545.481408,-0.012207,0.009399,-0.98877,0.144519,0.356031,-0.100458,51,271,587,6176
1644190545.529798,-0.008667,0.007263,-0.991089,0.205588,0.340763,-0.024122,47,263,584,6240
1644190545.578187,-0.008667,0.009399,-0.995361,0.068183,0.401832,-0.176794,46,271,576,6224
1644190545.627131,-0.008362,0.011658,-0.992004,0.144519,0.401832,-0.130992,52,273,579,6256
1644190545.678094,-0.00885,0.010742,-0.990173,0.144519,0.432366,0.006412,42,280,591,6240
1644190545.727775,-0.009094,0.010498,-0.992065,0.190321,0.401832,0.067481,40,273,586,6192
1644190545.772781,-0.007812,0.007874,-0.993042,0.281924,0.279695,-0.069924,41,283,576,6304
1644190545.868525,-0.008911,0.008606,-0.990356,0.220855,0.279695,-0.069924,49,277,584,6192
1644190545.916956,-0.00708,0.008789,-0.992615,0.236122,0.371298,-0.054656,49,270,586,6224
1644190545.96548,-0.009033,0.007751,-0.991516,0.236122,0.356031,-0.069924,49,268,586,6160
1644190546.013776,-0.006775,0.009155,-0.991028,0.129252,0.539237,-0.085191,43,266,590,6224
1644190546.067013,-0.008545,0.00946,-0.991089,0.281924,0.356031,-0.008855,55,276,587,6224
1644190546.110551,-0.007996,0.008484,-0.992371,0.022382,0.401832,-0.268397,42,275,589,6176
1644190546.158941,-0.009216,0.010986,-0.99292,0.113985,0.294962,-0.054656,57,270,579,6288
1644190546.207352,-0.007385,0.010498,-0.99292,0.205588,0.417099,-0.207328,46,271,585,6224
1644190546.255746,-0.009644,0.008911,-0.993164,0.08345,0.447634,-0.024122,48,276,585,6192
1644190546.304141,-0.00708,0.00885,-0.994385,0.327725,0.325496,-0.039389,45,275,582,6224
1644190546.352591,-0.008179,0.010132,-0.991516,0.113985,0.539237,0.006412,49,277,584,6224
1644190546.400908,-0.007629,0.010559,-0.991882,0.190321,0.447634,-0.069924,57,275,577,6192
1644190546.449301,-0.008911,0.010498,-0.991943,0.175053,0.340763,-0.024122,53,266,585,6224
1644190546.497671,-0.009399,0.010742,-0.991211,0.266656,0.310229,-0.039389,52,277,575,6240
1644190546.546107,-0.007935,0.009644,-0.991516,0.190321,0.218626,-0.069924,54,280,593,6224
1644190546.59447,-0.006897,0.009033,-0.990295,0.266656,0.447634,-0.115725,53,276,585,6304
1644190546.642901,-0.009094,0.011353,-0.992615,0.175053,0.386565,-0.298931,43,271,587,6288
1644190546.691275,-0.007996,0.008362,-0.989807,0.175053,0.386565,0.143817,52,265,596,6192
1644190546.739662,-0.008423,0.010376,-0.990906,0.251389,0.508702,-0.054656,53,271,587,6240
1644190546.789391,-0.01123,0.008545,-0.992371,0.388794,0.310229,-0.039389,48,279,573,6176
1644190546.839884,-0.007812,0.007324,-0.990845,0.297191,0.508702,-0.024122,49,270,584,6224
1644190546.890281,-0.007263,0.010132,-0.99176,0.220855,0.417099,-0.085191,48,274,569,6224
1644190546.934814,-0.008606,0.006897,-0.991821,0.266656,0.462901,-0.192061,47,273,575,6256
1644190547.030035,-0.00885,0.008972,-0.992188,0.220855,0.371298,-0.085191,48,271,580,6224
1644190547.078476,-0.009399,0.01001,-0.987183,0.113985,0.523969,-0.085191,54,282,589,6288
1644190547.126744,-0.009705,0.01355,-0.994995,0.220855,0.493435,-0.207328,48,286,580,6224
1644190547.175159,-0.008057,0.010559,-0.990784,0.251389,0.386565,-0.192061,45,277,582,6176
1644190547.223565,-0.01001,0.008789,-0.991089,0.144519,0.386565,-0.100458,47,275,589,6176
1644190547.271935,-0.007385,0.009644,-0.991455,0.007115,0.401832,-0.085191,43,269,580,6224
1644190547.320341,-0.007324,0.00946,-0.99176,0.281924,0.432366,0.006412,49,275,582,6256
1644190547.368734,-0.006714,0.006226,-0.99176,0.098718,0.432366,-0.069924,58,269,587,6240
1644190547.41713,-0.008423,0.010498,-0.993164,0.159786,0.646107,-0.085191,49,282,579,6224
1644190547.465528,-0.010315,0.010376,-0.990723,0.159786,0.523969,-0.161527,42,287,579,6192
1644190547.513914,-0.010376,0.009399,-0.987854,0.144519,0.417099,-0.192061,52,282,593,6192
1644190547.562332,-0.007996,0.01178,-0.990234,0.35826,0.294962,-0.085191,51,279,587,6240
1644190547.610703,-0.010498,0.013306,-0.990845,0.159786,0.325496,-0.115725,46,276,578,6224
1644190547.659098,-0.00946,0.009094,-0.990234,0.266656,0.417099,-0.100458,49,280,572,6288
1644190547.707496,-0.009399,0.01062,-0.991455,0.098718,0.417099,-0.069924,59,275,591,6240
1644190547.755855,-0.008057,0.010254,-0.992554,0.342992,0.340763,-0.008855,49,275,586,6176
1644190547.804321,-0.010071,0.008484,-0.991882,0.098718,0.417099,-0.222595,42,270,586,6240
1644190547.852812,-0.006836,0.009888,-0.991882,0.373527,0.417099,-0.176794,49,277,579,6224
1644190547.901409,-0.008972,0.010803,-0.992249,0.327725,0.386565,-0.008855,48,279,576,6240
1644190547.951104,-0.009033,0.00946,-0.991028,0.129252,0.432366,-0.130992,55,276,590,6336
1644190548.001142,-0.00769,0.009277,-0.993164,0.159786,0.417099,-0.054656,45,285,589,6160
1644190548.070207,-0.010071,0.011841,-0.990662,0.205588,0.340763,-0.115725,54,277,584,6240
1644190548.098965,-0.006958,0.011414,-0.989258,0.236122,0.340763,-0.054656,58,276,587,6224
1644190548.191412,-0.009338,0.012268,-0.991394,0.144519,0.233893,-0.039389,53,264,583,6192
1644190548.239818,-0.011047,0.007446,-0.990479,0.190321,0.554504,-0.207328,53,274,583,6240
1644190548.288186,-0.008789,0.007751,-0.990723,0.251389,0.340763,-0.069924,55,281,580,6240
1644190548.336596,-0.008118,0.009888,-0.991638,0.190321,0.401832,0.006412,55,279,587,6256
1644190548.385114,-0.01001,0.007568,-0.990845,0.068183,0.356031,0.036947,55,269,585,6160
1644190548.433382,-0.009705,0.007507,-0.990417,0.113985,0.310229,-0.130992,57,270,584,6224
1644190548.481771,-0.007935,0.009949,-0.990845,0.327725,0.432366,-0.008855,47,265,586,6224
1644190548.530175,-0.007751,0.009216,-0.990173,0.190321,0.493435,-0.192061,33,280,589,6240
1644190548.578569,-0.010376,0.013123,-0.9953,0.281924,0.447634,0.021679,51,281,594,6224
1644190548.626936,-0.010437,0.01001,-0.99115,0.312458,0.417099,-0.039389,41,264,587,6240
1644190548.675346,-0.005615,0.011902,-0.991089,0.159786,0.340763,-0.054656,52,277,579,6256
1644190548.723912,-0.009277,0.009644,-0.991089,0.236122,0.523969,-0.085191,49,277,582,6240
1644190548.772243,-0.00647,0.010132,-0.992676,0.08345,0.371298,-0.024122,36,276,580,6224
1644190548.820574,-0.009888,0.009766,-0.991821,0.205588,0.432366,-0.024122,43,269,594,6224
1644190548.868955,-0.006104,0.008911,-0.989014,0.113985,0.508702,-0.085191,51,276,585,6176
1644190548.917357,-0.007874,0.011169,-0.989685,0.190321,0.523969,-0.176794,62,283,585,6192
1644190548.965748,-0.010864,0.010071,-0.993042,0.205588,0.371298,0.082748,43,266,585,6224
1644190549.014211,-0.009155,0.008667,-0.992859,0.236122,0.508702,-0.008855,47,280,582,6224
1644190549.081717,-0.007629,0.010742,-0.99054,0.251389,0.432366,-0.237863,57,265,591,6176
1644190549.159272,-0.00946,0.00769,-0.990417,0.205588,0.508702,0.067481,48,279,576,6192
1644190549.207656,-0.008545,0.010742,-0.992126,0.205588,0.294962,-0.024122,40,282,589,6304
1644190549.256046,-0.009766,0.010559,-0.99115,0.266656,0.340763,-0.100458,48,274,576,6224
1644190549.304446,-0.006348,0.011719,-0.990662,0.205588,0.508702,-0.192061,60,266,587,6160
1644190549.352858,-0.006592,0.008179,-0.993469,0.312458,0.371298,0.036947,42,285,579,6240
1644190549.401237,-0.006958,0.012024,-0.992432,0.297191,0.340763,-0.192061,51,276,576,6256
1644190549.449648,-0.009644,0.010986,-0.993286,0.159786,0.340763,-0.054656,53,271,576,6224
1644190549.49801,-0.008728,0.012634,-0.991882,0.281924,0.371298,0.021679,60,276,580,6240
1644190549.546434,-0.008789,0.011353,-0.992432,0.251389,0.386565,-0.008855,62,271,585,6224
1644190549.594832,-0.009521,0.009888,-0.991028,0.220855,0.508702,-0.100458,43,281,578,6224
1644190549.643216,-0.007751,0.008362,-0.99176,0.068183,0.432366,-0.039389,40,285,593,6176
1644190549.691607,-0.007385,0.010986,-0.988647,0.205588,0.340763,-0.024122,53,281,585,6288
1644190549.739997,-0.009094,0.009338,-0.991516,0.251389,0.401832,0.082748,41,274,590,6256
1644190549.78839,-0.010193,0.010925,-0.992676,0.068183,0.417099,-0.039389,52,282,593,6304
1644190549.836822,-0.008789,0.008972,-0.992981,0.236122,0.432366,-0.268397,45,275,591,6256
1644190549.885216,-0.007446,0.011353,-0.989502,0.037649,0.325496,0.036947,52,268,586,6192
1644190549.93367,-0.00946,0.008972,-0.98645,0.205588,0.432366,-0.192061,48,276,590,6192
1644190549.981996,-0.007629,0.00946,-0.991028,0.175053,0.401832,-0.100458,46,271,587,6240
1644190550.030407,-0.007324,0.009827,-0.992004,0.266656,0.294962,-0.039389,49,275,577,6256
1644190550.085324,-0.010132,0.007385,-0.991699,0.35826,0.340763,-0.024122,52,273,593,6160
1644190550.130326,-0.005066,0.008057,-0.991638,-0.008153,0.600305,-0.222595,54,287,586,6256
1644190550.179109,-0.010803,0.01001,-0.991577,0.205588,0.356031,-0.054656,45,270,584,6240
1644190550.223973,-0.004272,0.01001,-0.988831,0.251389,0.493435,-0.039389,57,270,582,6224
1644190550.320694,-0.008911,0.008606,-0.991028,0.281924,0.386565,-0.008855,51,266,573,6224
1644190550.369102,-0.009094,0.007996,-0.98877,0.327725,0.508702,-0.054656,54,268,589,6224
1644190550.417489,-0.009644,0.011841,-0.992188,0.159786,0.447634,0.067481,48,283,585,6224
1644190550.465894,-0.005493,0.008545,-0.990967,0.144519,0.356031,0.006412,49,273,586,6240
1644190550.514282,-0.005981,0.011658,-0.989685,0.205588,0.523969,-0.085191,43,281,578,6192
1644190550.562701,-0.009827,0.012329,-0.990906,0.144519,0.24916,-0.14626,54,270,584,6256
1644190550.611079,-0.007568,0.010071,-0.992371,0.220855,0.462901,-0.085191,43,286,587,6224
1644190550.659471,-0.007812,0.013855,-0.992065,0.098718,0.569771,-0.14626,38,268,586,6240
1644190550.707829,-0.007019,0.008423,-0.993286,0.220855,0.447634,-0.130992,41,279,585,6256
1644190550.756247,-0.009094,0.00885,-0.990051,0.175053,0.493435,0.021679,57,277,589,6240
1644190550.804713,-0.009277,0.007324,-0.99353,0.220855,0.340763,-0.130992,40,273,575,6240
1644190550.853103,-0.010132,0.011292,-0.991089,0.251389,0.371298,-0.176794,54,275,582,6224
1644190550.901472,-0.008606,0.007996,-0.992737,0.205588,0.447634,-0.039389,51,281,583,6224
1644190550.94986,-0.010498,0.009644,-0.992371,0.251389,0.356031,-0.069924,52,287,582,6176
1644190550.998257,-0.011414,0.009216,-0.994141,0.251389,0.615573,-0.054656,49,270,579,6176
1644190551.066424,-0.007996,0.006653,-0.994202,0.236122,0.371298,0.189618,54,277,593,6288
1644190551.099245,-0.011353,0.011475,-0.990845,0.251389,0.279695,-0.207328,48,271,587,6224
1644190551.14341,-0.010376,0.011719,-0.992554,0.281924,0.447634,-0.085191,51,279,580,6288
1644190551.191796,-0.008606,0.011169,-0.991272,0.266656,0.462901,0.006412,52,282,586,6240
1644190551.240493,-0.006775,0.010559,-0.993958,0.205588,0.279695,-0.100458,57,255,598,6160
1644190551.291144,-0.007202,0.011963,-0.990723,0.220855,0.417099,-0.268397,55,274,587,6240
1644190551.341232,-0.007935,0.007568,-0.99231,0.251389,0.493435,0.052214,47,270,584,6128
1644190551.386312,-0.010681,0.009827,-0.993591,0.175053,0.417099,-0.14626,55,274,580,6176
1644190551.482393,-0.009766,0.010254,-0.991638,0.052916,0.508702,-0.024122,42,277,584,6176
1644190551.530534,-0.009094,0.011108,-0.991516,0.190321,0.264427,-0.054656,46,281,585,6256
1644190551.578932,-0.006897,0.010864,-0.989746,0.327725,0.447634,-0.054656,46,279,576,6304
1644190551.627324,-0.008789,0.01123,-0.992554,0.251389,0.417099,-0.085191,47,268,586,6224
1644190551.675705,-0.010864,0.005981,-0.992859,0.266656,0.371298,-0.054656,46,266,580,6288
1644190551.724099,-0.008911,0.008789,-0.994446,0.251389,0.600305,0.021679,54,277,584,6176
1644190551.772527,-0.009338,0.009521,-0.990479,0.327725,0.310229,-0.130992,45,280,586,6224
1644190551.820897,-0.009644,0.008484,-0.993103,0.220855,0.340763,-0.283664,54,280,577,6192
1644190551.869337,-0.010376,0.012085,-0.991943,0.159786,0.462901,0.006412,52,280,582,6256
1644190551.917727,-0.006836,0.011475,-0.990845,0.35826,0.401832,0.052214,46,279,580,6224
1644190551.966112,-0.008667,0.007263,-0.993774,0.281924,0.432366,-0.100458,47,277,589,6224
1644190552.014504,-0.009705,0.00885,-0.991577,0.266656,0.462901,-0.069924,47,287,586,6240
1644190552.069696,-0.008301,0.011597,-0.991028,0.236122,0.401832,0.036947,46,276,590,6176
1644190552.111284,-0.006531,0.00885,-0.98999,0.281924,0.447634,-0.008855,52,280,579,6288
1644190552.159655,-0.009277,0.008057,-0.989075,0.159786,0.371298,-0.069924,48,286,587,6192
1644190552.208009,-0.009949,0.008728,-0.99408,0.281924,0.493435,-0.130992,48,279,590,6192
1644190552.256407,-0.006287,0.005371,-0.992126,0.312458,0.356031,-0.054656,46,269,576,6256
1644190552.304831,-0.007385,0.008911,-0.98999,0.144519,0.432366,-0.085191,55,276,585,6192
1644190552.353505,-0.009644,0.010742,-0.990723,0.205588,0.264427,-0.161527,47,273,591,6224
1644190552.402431,-0.010498,0.007996,-0.99353,0.175053,0.340763,-0.100458,51,279,590,6240
1644190552.453386,-0.006775,0.009399,-0.992798,0.175053,0.432366,-0.054656,45,270,577,6288
1644190552.503292,-0.009949,0.010376,-0.991089,0.327725,0.401832,-0.039389,51,279,590,6240
1644190552.548057,-0.007996,0.010742,-0.992004,0.113985,0.462901,-0.008855,53,283,585,6256
1644190552.643595,-0.008606,0.010925,-0.989929,0.312458,0.432366,-0.130992,54,273,586,6224
1644190552.691959,-0.009033,0.010925,-0.992859,0.281924,0.493435,0.006412,52,280,582,6224
1644190552.740348,-0.007996,0.011169,-0.991577,0.113985,0.417099,-0.085191,48,269,594,6240
1644190552.788756,-0.007507,0.010498,-0.993103,0.266656,0.417099,-0.207328,45,277,575,6192
1644190552.837139,-0.008972,0.009888,-0.991272,0.08345,0.401832,-0.115725,49,275,586,6240
1644190552.885587,-0.009827,0.008545,-0.993103,0.297191,0.478168,-0.069924,58,279,583,6224
1644190552.933975,-0.007874,0.009338,-0.990784,0.236122,0.371298,0.082748,58,274,576,6240
1644190552.982396,-0.008667,0.009338,-0.991394,0.251389,0.233893,-0.069924,51,279,583,6224
1644190553.030732,-0.010864,0.008972,-0.989868,0.144519,0.386565,-0.024122,47,275,586,6240
1644190553.088842,-0.008301,0.010803,-0.992676,0.205588,0.508702,-0.14626,48,271,585,6192
1644190553.127573,-0.005005,0.008484,-0.992371,0.205588,0.447634,0.052214,49,277,572,6256
1644190553.17592,-0.007935,0.010193,-0.990662,0.297191,0.493435,0.036947,47,268,584,6224
1644190553.224262,-0.008118,0.009827,-0.993347,0.129252,0.356031,-0.069924,57,270,584,6240
1644190553.272706,-0.010071,0.01001,-0.990601,0.220855,0.386565,-0.024122,53,276,587,6240
1644190553.321071,-0.009033,0.009277,-0.990784,0.236122,0.554504,-0.054656,53,276,585,6224
1644190553.36959,-0.009949,0.008118,-0.992615,0.35826,0.386565,-0.115725,32,276,585,6256
1644190553.420274,-0.005127,0.009216,-0.990662,0.144519,0.493435,-0.115725,52,277,584,6176
1644190553.470588,-0.008301,0.009521,-0.990417,0.281924,0.447634,-0.115725,48,271,580,6224
1644190553.515414,-0.009888,0.009521,-0.991272,0.175053,0.462901,-0.085191,48,276,587,6256
1644190553.611431,-0.00946,0.009827,-0.990051,0.35826,0.447634,-0.085191,51,276,583,6240
1644190553.659815,-0.007202,0.008118,-0.993103,0.175053,0.371298,-0.085191,52,287,572,6240
1644190553.708208,-0.007446,0.008606,-0.989807,0.08345,0.508702,0.006412,45,275,575,6240
1644190553.756582,-0.008179,0.008972,-0.993225,0.175053,0.478168,-0.054656,52,285,586,6240
1644190553.80504,-0.008667,0.008911,-0.992981,0.190321,0.417099,-0.14626,52,280,579,6224
1644190553.853394,-0.007507,0.008789,-0.991943,0.175053,0.417099,-0.161527,51,271,585,6256
1644190553.901841,-0.007812,0.008179,-0.991211,0.175053,0.417099,0.036947,49,273,589,6288
1644190553.950223,-0.005249,0.009766,-0.991211,0.175053,0.462901,-0.039389,52,275,586,6224
1644190553.998603,-0.010071,0.008789,-0.992981,0.236122,0.386565,-0.024122,47,280,584,6192
1644190554.061089,-0.008118,0.011597,-0.988647,0.297191,0.325496,-0.085191,51,279,594,6224
1644190554.096136,-0.010559,0.008301,-0.991516,0.251389,0.447634,-0.085191,52,273,584,6240
1644190554.143817,-0.007324,0.008545,-0.992065,0.251389,0.356031,-0.085191,51,279,583,6176
1644190554.19226,-0.01123,0.008606,-0.990723,0.266656,0.340763,-0.176794,42,275,577,6224
1644190554.24058,-0.008667,0.011902,-0.992554,0.281924,0.432366,0.082748,40,287,575,6240
1644190554.289016,-0.006958,0.010193,-0.993469,0.236122,0.386565,0.189618,57,273,582,6224
1644190554.337373,-0.009583,0.010925,-0.990112,0.175053,0.539237,-0.14626,55,269,583,6240
1644190554.38576,-0.009705,0.010559,-0.992065,0.113985,0.585038,-0.100458,48,279,585,6224
1644190554.434182,-0.011047,0.009766,-0.992371,0.266656,0.432366,-0.192061,55,274,585,6240
1644190554.483434,-0.008484,0.010193,-0.99176,0.327725,0.432366,-0.069924,46,271,583,6240
1644190554.533504,-0.009094,0.006836,-0.991211,0.236122,0.417099,-0.069924,47,277,589,6192
1644190554.583908,-0.007141,0.008423,-0.990295,0.373527,0.371298,-0.085191,60,281,585,6224
1644190554.628344,-0.009338,0.011841,-0.989319,0.297191,0.523969,-0.176794,39,271,580,6240
1644190554.724531,-0.007874,0.005554,-0.990112,0.342992,0.508702,-0.176794,48,269,585,6288
1644190554.772911,-0.00769,0.008423,-0.991699,0.281924,0.462901,-0.130992,39,274,576,6176
1644190554.8213,-0.009094,0.007263,-0.992004,0.190321,0.493435,-0.024122,55,274,583,6224
1644190554.86969,-0.008057,0.008179,-0.99231,0.205588,0.493435,-0.207328,42,277,570,6240
1644190554.918072,-0.00592,0.007019,-0.991638,0.342992,0.508702,-0.176794,48,269,578,6192
1644190554.966476,-0.01001,0.010437,-0.99231,0.327725,0.432366,-0.085191,41,281,576,6160
1644190555.014881,-0.010376,0.011292,-0.989746,0.022382,0.508702,-0.100458,48,283,580,6192
1644190555.068265,-0.006958,0.009399,-0.991516,0.190321,0.325496,-0.024122,49,273,582,6224
1644190555.111586,-0.00769,0.011047,-0.989868,0.220855,0.462901,-0.069924,49,282,586,6224
1644190555.160007,-0.007324,0.012146,-0.991211,0.312458,0.386565,-0.024122,51,274,583,6224
1644190555.2084,-0.009766,0.008301,-0.991089,0.220855,0.539237,-0.161527,52,277,582,6224
1644190555.256776,-0.007446,0.010437,-0.991577,0.312458,0.386565,-0.024122,58,279,583,6192
1644190555.305262,-0.010315,0.008057,-0.990906,0.297191,0.340763,-0.176794,57,277,579,6256
1644190555.353601,-0.009277,0.008728,-0.993713,0.297191,0.386565,-0.14626,58,276,592,6240
1644190555.401983,-0.007812,0.008667,-0.992859,0.327725,0.417099,-0.115725,55,281,576,6160
1644190555.450376,-0.007568,0.008606,-0.992004,0.297191,0.24916,-0.130992,48,271,566,6176
1644190555.49876,-0.010193,0.010193,-0.993652,0.175053,0.371298,-0.085191,55,274,576,6224
1644190555.547152,-0.003906,0.009705,-0.990906,0.175053,0.462901,-0.192061,54,268,586,6240
1644190555.595541,-0.009094,0.009766,-0.988892,0.220855,0.386565,-0.024122,58,288,587,6240
1644190555.644241,-0.01001,0.01001,-0.993286,0.327725,0.478168,-0.039389,43,276,587,6240
1644190555.694867,-0.008362,0.006287,-0.991333,0.281924,0.493435,0.021679,48,271,583,6160
1644190555.744919,-0.008057,0.010376,-0.993042,0.327725,0.386565,-0.314198,51,281,580,6224
1644190555.790047,-0.008118,0.008911,-0.990601,0.220855,0.508702,-0.008855,52,265,582,6224
1644190555.885921,-0.010315,0.011536,-0.992249,0.205588,0.340763,-0.085191,48,269,569,6240
1644190555.935592,-0.007263,0.009521,-0.992798,0.205588,0.478168,-0.069924,47,273,582,6240
1644190555.982729,-0.010071,0.007141,-0.990784,0.098718,0.432366,0.006412,40,287,584,6128
1644190556.031116,-0.010925,0.009338,-0.992065,0.236122,0.539237,-0.008855,52,275,586,6256
1644190556.079611,-0.011353,0.010559,-0.99176,0.327725,0.356031,0.006412,47,273,591,6256
1644190556.127865,-0.007996,0.010376,-0.992371,0.175053,0.417099,-0.085191,40,277,584,6224
1644190556.176247,-0.009949,0.007202,-0.991394,0.251389,0.417099,-0.085191,47,268,586,6224
1644190556.224671,-0.009277,0.007629,-0.992676,0.129252,0.539237,-0.100458,47,282,591,6288
1644190556.273059,-0.00592,0.011353,-0.992188,0.052916,0.585038,-0.14626,41,276,587,6288
1644190556.321443,-0.00885,0.008423,-0.992798,0.251389,0.371298,-0.100458,54,282,586,6288
1644190556.369838,-0.00769,0.007568,-0.989075,0.281924,0.386565,-0.130992,41,281,583,6192
1644190556.418232,-0.009033,0.007019,-0.989197,0.129252,0.585038,-0.039389,52,270,589,6224
1644190556.466617,-0.005371,0.007446,-0.991516,0.205588,0.539237,-0.207328,42,280,589,6240
1644190556.515051,-0.007935,0.008728,-0.99115,0.159786,0.432366,0.067481,47,285,582,6192
1644190556.563407,-0.009521,0.011414,-0.991272,0.205588,0.371298,-0.130992,49,275,586,6256
1644190556.611801,-0.008545,0.010376,-0.992615,0.220855,0.325496,0.006412,46,274,578,6224
1644190556.660191,-0.009521,0.009521,-0.991577,0.342992,0.447634,0.006412,65,281,578,6240
1644190556.708586,-0.008911,0.01062,-0.991272,0.312458,0.447634,-0.054656,61,280,589,6240
1644190556.757308,-0.008423,0.011597,-0.992554,0.113985,0.447634,0.006412,46,269,580,6192
1644190556.807456,-0.011108,0.009888,-0.992798,0.297191,0.493435,-0.069924,49,275,582,6224
1644190556.857826,-0.00824,0.009521,-0.992249,0.190321,0.325496,-0.024122,48,276,578,6240
1644190556.908076,-0.007324,0.009766,-0.989075,0.190321,0.493435,-0.024122,52,270,579,6240
1644190556.999006,-0.009094,0.008423,-0.990723,0.113985,0.386565,-0.008855,47,270,591,6224
1644190557.06609,-0.007263,0.01062,-0.991638,0.175053,0.493435,-0.130992,41,276,585,6160
1644190557.100668,-0.01001,0.010376,-0.993408,0.175053,0.401832,-0.069924,43,286,587,6256
1644190557.144138,-0.007935,0.007751,-0.99292,0.251389,0.462901,-0.14626,43,283,597,6240
1644190557.192537,-0.008179,0.011841,-0.991089,0.312458,0.356031,-0.115725,39,274,583,6192
1644190557.240916,-0.007385,0.00946,-0.992371,0.175053,0.24916,-0.115725,40,273,591,6240
1644190557.289299,-0.009216,0.009521,-0.993225,0.236122,0.432366,-0.192061,45,285,586,6224
1644190557.337697,-0.008789,0.010803,-0.993042,0.144519,0.554504,-0.024122,48,281,592,6192
1644190557.386089,-0.010315,0.009155,-0.991089,0.266656,0.417099,-0.176794,55,274,585,6240
1644190557.43448,-0.008606,0.011902,-0.991089,0.129252,0.417099,-0.008855,38,287,582,6224
1644190557.482909,-0.006592,0.009644,-0.991272,0.129252,0.356031,-0.130992,55,269,576,6304
1644190557.532743,-0.009094,0.010742,-0.98999,0.236122,0.432366,0.067481,46,283,594,6224
1644190557.582973,-0.009338,0.007874,-0.993469,0.037649,0.508702,-0.192061,43,271,578,6192
1644190557.628211,-0.008789,0.008911,-0.989136,0.297191,0.325496,-0.115725,45,275,586,6288
1644190557.724891,-0.011047,0.010132,-0.992981,0.281924,0.310229,-0.115725,51,276,592,6224
1644190557.773252,-0.00824,0.009888,-0.993896,0.251389,0.294962,-0.054656,53,264,590,6192
1644190557.82164,-0.00885,0.010498,-0.991333,0.205588,0.478168,-0.222595,45,287,575,6240
1644190557.870056,-0.011475,0.010986,-0.990601,0.251389,0.523969,-0.008855,45,273,589,6192
1644190557.918419,-0.008179,0.011597,-0.990356,0.175053,0.417099,-0.130992,48,274,580,6192
1644190557.966823,-0.009949,0.012451,-0.992859,0.281924,0.508702,-0.161527,48,283,583,6240
1644190558.01527,-0.008423,0.01062,-0.992615,0.297191,0.371298,-0.054656,48,274,585,6240
1644190558.064395,-0.008057,0.010132,-0.99292,0.266656,0.233893,-0.069924,49,282,584,6192
1644190558.11205,-0.009277,0.010864,-0.990295,0.236122,0.417099,-0.039389,52,273,598,6176
1644190558.160383,-0.00769,0.009033,-0.992676,0.190321,0.432366,-0.100458,57,270,579,6240
1644190558.20878,-0.007568,0.009521,-0.990601,0.297191,0.356031,-0.115725,47,285,589,6256
1644190558.257165,-0.009766,0.009094,-0.992004,0.35826,0.401832,-0.054656,42,277,582,6176
1644190558.305544,-0.007507,0.007019,-0.993225,0.266656,0.325496,-0.054656,38,280,586,6224
1644190558.353969,-0.00708,0.008972,-0.992065,0.251389,0.417099,-0.085191,60,276,580,6176
1644190558.402355,-0.007629,0.009766,-0.99353,0.327725,0.310229,-0.069924,42,280,582,6256
1644190558.450738,-0.009277,0.007019,-0.992371,0.327725,0.401832,-0.176794,48,274,587,6240
1644190558.499112,-0.009644,0.010193,-0.992249,0.190321,0.356031,-0.054656,40,275,582,6192
1644190558.5475,-0.006409,0.008545,-0.989685,0.281924,0.447634,-0.008855,41,283,580,6256
1644190558.595903,-0.008301,0.009338,-0.989441,0.159786,0.386565,0.067481,48,281,585,6192
1644190558.644359,-0.011169,0.006836,-0.992554,0.205588,0.432366,0.006412,39,274,587,6160
1644190558.694499,-0.009155,0.010193,-0.994019,0.205588,0.462901,0.036947,57,270,584,6256
1644190558.744974,-0.006958,0.011169,-0.992798,0.327725,0.432366,-0.069924,55,271,592,6224
1644190558.789893,-0.008057,0.009155,-0.992615,0.129252,0.585038,-0.161527,48,271,585,6256
1644190558.886296,-0.008667,0.010498,-0.992676,0.159786,0.340763,-0.039389,45,273,582,6192
1644190558.93489,-0.008911,0.009033,-0.993896,0.159786,0.356031,-0.115725,46,271,578,6304
1644190558.983118,-0.010559,0.013184,-0.990967,0.312458,0.264427,-0.115725,40,268,584,6240
1644190559.031476,-0.010925,0.010437,-0.990967,0.251389,0.447634,-0.085191,45,275,579,6224
1644190559.079942,-0.00946,0.008667,-0.992737,0.281924,0.310229,-0.207328,51,274,583,6240
1644190559.128289,-0.007812,0.009094,-0.991638,0.205588,0.569771,-0.069924,54,273,584,6224
1644190559.176625,-0.007507,0.011292,-0.991394,0.342992,0.447634,-0.115725,49,282,584,6224
1644190559.22506,-0.008667,0.009399,-0.991455,0.190321,0.478168,0.006412,46,271,583,6240
1644190559.273408,-0.00824,0.011841,-0.993164,0.236122,0.447634,0.036947,51,279,590,6256
1644190559.321782,-0.007446,0.010132,-0.992126,0.281924,0.188092,-0.130992,51,281,578,6192
1644190559.370204,-0.008179,0.010254,-0.991821,0.35826,0.340763,-0.115725,51,281,583,6240
1644190559.418601,-0.007019,0.009705,-0.989624,0.236122,0.417099,-0.039389,54,275,582,6224
1644190559.466991,-0.010681,0.010071,-0.99176,0.220855,0.386565,-0.085191,48,281,580,6240
1644190559.515379,-0.008118,0.012512,-0.992432,0.190321,0.447634,0.12855,43,274,587,6288
1644190559.563765,-0.007874,0.012329,-0.99176,0.220855,0.401832,-0.069924,52,275,591,6224
1644190559.612188,-0.009521,0.010864,-0.99176,0.236122,0.447634,0.006412,47,280,582,6176
1644190559.660553,-0.008545,0.012024,-0.990295,0.113985,0.417099,0.098015,52,277,582,6240
1644190559.708956,-0.007202,0.00824,-0.990112,0.404061,0.478168,-0.207328,58,276,597,6224
1644190559.757345,-0.005371,0.007935,-0.991699,0.342992,0.432366,-0.085191,57,268,593,6288
1644190559.806448,-0.010315,0.011292,-0.991882,0.08345,0.356031,-0.130992,48,271,580,6288
1644190559.856602,-0.009888,0.008789,-0.990967,0.327725,0.386565,-0.115725,54,275,582,6256
1644190559.907471,-0.008545,0.009399,-0.992249,0.175053,0.432366,0.036947,52,273,579,6176
1644190559.952001,-0.007874,0.009888,-0.990723,0.190321,0.386565,-0.14626,43,276,579,6224
1644190560.061954,-0.006042,0.00885,-0.990967,0.08345,0.478168,-0.100458,46,266,578,6240
1644190560.099588,-0.006958,0.006653,-0.991516,0.251389,0.417099,-0.039389,52,275,586,6224
1644190560.14453,-0.005859,0.009827,-0.992615,0.541466,0.310229,-0.039389,46,276,571,6336
1644190560.1929,-0.010071,0.009338,-0.990845,0.007115,0.386565,-0.130992,53,279,585,6192
1644190560.241284,-0.006165,0.009766,-0.992249,0.236122,0.310229,-0.024122,53,279,580,6224
1644190560.289648,-0.007935,0.012085,-0.990234,0.159786,0.600305,-0.176794,46,279,592,6240
1644190560.338065,-0.007629,0.00824,-0.989563,0.251389,0.462901,-0.039389,47,275,586,6224
1644190560.386459,-0.008057,0.00946,-0.991821,0.312458,0.493435,-0.130992,58,288,585,6224
1644190560.434854,-0.009827,0.009277,-0.991089,0.190321,0.478168,-0.14626,38,280,572,6192
1644190560.483228,-0.00647,0.01062,-0.990417,0.129252,0.417099,-0.130992,51,269,592,6176
1644190560.531626,-0.01001,0.006226,-0.994751,0.327725,0.554504,-0.039389,52,268,586,6240
1644190560.580734,-0.007446,0.011536,-0.994568,0.236122,0.294962,-0.039389,43,274,585,6192
1644190560.629259,-0.008057,0.008606,-0.994324,0.388794,0.356031,-0.100458,54,282,593,6192
1644190560.679701,-0.008057,0.012085,-0.989746,0.159786,0.432366,-0.008855,48,288,592,6240
1644190560.72995,-0.011414,0.009094,-0.992798,0.144519,0.493435,-0.054656,49,273,591,6256
1644190560.774831,-0.009644,0.011108,-0.992188,0.342992,0.569771,-0.100458,58,276,580,6176
1644190560.870383,-0.008118,0.010315,-0.991394,0.129252,0.401832,-0.176794,49,275,579,6176
1644190560.918816,-0.007263,0.010071,-0.992493,0.205588,0.340763,-0.069924,36,286,583,6224
1644190560.967202,-0.00708,0.010132,-0.991943,0.297191,0.356031,-0.130992,65,271,592,6224
1644190561.015594,-0.010193,0.012939,-0.991028,0.312458,0.386565,-0.115725,43,274,576,6224
1644190561.067395,-0.009827,0.008301,-0.990112,0.266656,0.371298,0.021679,46,266,592,6192
1644190561.112333,-0.006409,0.012451,-0.992188,0.266656,0.462901,-0.069924,59,275,584,6240
1644190561.160738,-0.009521,0.013428,-0.991882,0.159786,0.356031,0.006412,43,271,580,6224
1644190561.209139,-0.007568,0.01239,-0.991821,0.236122,0.325496,-0.176794,40,285,577,6224
1644190561.257531,-0.006714,0.008728,-0.990479,0.404061,0.386565,-0.085191,49,275,584,6256
1644190561.305924,-0.00708,0.007263,-0.992432,0.297191,0.279695,-0.130992,47,277,582,6224
1644190561.354342,-0.007019,0.008911,-0.991516,0.327725,0.264427,-0.222595,48,276,592,6176
1644190561.402729,-0.009827,0.010437,-0.990295,0.449863,0.233893,-0.100458,52,277,582,6224
1644190561.451095,-0.01001,0.007996,-0.991394,0.236122,0.279695,-0.115725,53,276,592,6240
1644190561.4995,-0.00824,0.013,-0.992798,0.205588,0.310229,-0.024122,57,277,586,6128
1644190561.547888,-0.005798,0.011841,-0.993164,0.098718,0.310229,-0.054656,47,270,584,6128
1644190561.596272,-0.006897,0.01355,-0.991455,0.281924,0.462901,-0.100458,52,280,572,6224
1644190561.644679,-0.006958,0.010925,-0.992065,0.098718,0.432366,-0.130992,49,275,577,6160
1644190561.693082,-0.012817,0.010803,-0.993103,0.159786,0.386565,0.098015,41,279,580,6176
1644190561.741473,-0.01062,0.00592,-0.991333,0.281924,0.554504,-0.14626,52,277,579,6176
1644190561.790658,-0.006775,0.005493,-0.991577,0.190321,0.462901,-0.024122,54,287,600,6224
1644190561.841507,-0.010376,0.008545,-0.990601,0.220855,0.356031,-0.314198,49,282,582,6224
1644190561.891563,-0.009583,0.009705,-0.993042,0.236122,0.478168,-0.085191,49,273,596,6160
1644190561.936192,-0.005798,0.012695,-0.988831,0.052916,0.386565,-0.14626,52,263,579,6176
1644190562.031852,-0.008057,0.009338,-0.991394,0.220855,0.279695,-0.039389,34,274,583,6224
1644190562.080291,-0.009216,0.010864,-0.993408,0.159786,0.294962,-0.039389,47,268,586,6224
1644190562.128599,-0.009399,0.009216,-0.99176,0.342992,0.493435,-0.100458,53,283,585,6304
1644190562.176991,-0.009094,0.01123,-0.99231,0.281924,0.356031,-0.130992,52,268,582,6256
1644190562.225424,-0.006226,0.006958,-0.991516,0.388794,0.386565,0.052214,48,281,578,6192
1644190562.273759,-0.008606,0.011475,-0.991516,0.35826,0.386565,-0.069924,45,275,579,6256
1644190562.322194,-0.008972,0.005981,-0.993164,0.297191,0.386565,-0.100458,64,280,582,6256
1644190562.370574,-0.006531,0.008667,-0.991455,0.281924,0.356031,-0.115725,52,273,577,6192
1644190562.418959,-0.00946,0.009094,-0.991211,0.190321,0.585038,-0.161527,48,271,585,6304
1644190562.467342,-0.007507,0.007996,-0.989136,0.281924,0.371298,-0.008855,49,275,579,6240
1644190562.515733,-0.011108,0.009583,-0.990173,0.190321,0.386565,-0.024122,35,277,577,6224
1644190562.56413,-0.010559,0.009094,-0.993286,0.419328,0.508702,0.021679,43,283,571,6256
1644190562.612535,-0.006897,0.009766,-0.992493,0.190321,0.417099,-0.054656,49,275,579,6224
1644190562.660928,-0.008179,0.008545,-0.991333,0.327725,0.432366,-0.054656,55,291,580,6224
1644190562.70932,-0.007507,0.010071,-0.99115,0.159786,0.401832,-0.268397,52,273,591,6224
1644190562.757691,-0.008606,0.009521,-0.992004,0.220855,0.432366,-0.054656,60,266,592,6256
1644190562.806138,-0.010193,0.010132,-0.99054,0.266656,0.432366,-0.085191,47,275,591,6224
1644190562.854891,-0.008057,0.009094,-0.990295,0.220855,0.294962,-0.008855,54,277,582,6288
1644190562.90326,-0.007324,0.007141,-0.991455,0.404061,0.493435,0.006412,48,271,573,6240
1644190562.953738,-0.009155,0.011047,-0.994263,0.190321,0.508702,0.036947,53,276,580,6224
1644190563.00416,-0.006714,0.01062,-0.989685,0.236122,0.325496,-0.207328,59,273,586,6224
1644190563.075327,-0.006409,0.010254,-0.989258,0.08345,0.432366,-0.14626,60,276,597,6288
1644190563.14486,-0.009766,0.005859,-0.993103,0.220855,0.294962,-0.100458,57,275,582,6240
1644190563.193269,-0.007446,0.009033,-0.990601,0.297191,0.294962,-0.039389,55,271,590,6224
1644190563.241642,-0.008789,0.009888,-0.99353,0.190321,0.478168,-0.222595,46,276,585,6176
1644190563.29001,-0.009644,0.008423,-0.993164,0.190321,0.386565,0.021679,59,285,586,6224
1644190563.338427,-0.008362,0.010498,-0.993286,0.205588,0.386565,-0.024122,42,273,584,6224
1644190563.386815,-0.009338,0.009338,-0.99115,0.342992,0.462901,-0.085191,47,277,589,6224
1644190563.435356,-0.010376,0.008545,-0.992981,0.113985,0.478168,-0.115725,41,269,578,6256
1644190563.483593,-0.006348,0.009888,-0.991394,0.220855,0.356031,0.021679,48,276,578,6256
1644190563.531998,-0.009888,0.011108,-0.992371,0.266656,0.401832,0.036947,47,282,584,6224
1644190563.580395,-0.009399,0.009277,-0.992188,0.129252,0.523969,-0.115725,54,290,584,6224
1644190563.628783,-0.008789,0.00885,-0.991089,0.35826,0.356031,-0.085191,39,274,569,6256
1644190563.677192,-0.005981,0.010986,-0.991943,0.220855,0.523969,-0.024122,45,277,579,6240
1644190563.725569,-0.010864,0.009155,-0.994202,0.281924,0.462901,-0.130992,49,273,586,6240
1644190563.773978,-0.008362,0.010437,-0.989929,0.220855,0.417099,-0.085191,49,268,591,6224
1644190563.822409,-0.007629,0.011169,-0.990662,0.113985,0.523969,-0.14626,59,277,584,6256
1644190563.870791,-0.005981,0.010437,-0.991455,0.281924,0.432366,0.036947,47,270,591,6192
1644190563.919383,-0.008972,0.008606,-0.989258,0.373527,0.386565,-0.024122,40,273,575,6192
1644190563.967602,-0.011658,0.009338,-0.991699,0.175053,0.554504,-0.161527,46,269,585,6224
1644190564.01602,-0.00946,0.009277,-0.992126,0.220855,0.386565,-0.054656,49,277,584,6256
1644190564.082349,-0.007385,0.010925,-0.99292,0.205588,0.356031,-0.14626,53,276,592,6224
1644190564.161122,-0.007874,0.010437,-0.991272,0.297191,0.462901,-0.054656,43,281,585,6256
1644190564.209496,-0.009094,0.006592,-0.991394,0.297191,0.279695,-0.100458,45,275,589,6256
1644190564.257882,-0.007935,0.012024,-0.991943,0.251389,0.523969,-0.039389,42,275,582,6240
1644190564.306274,-0.010925,0.009155,-0.994385,0.175053,0.340763,-0.069924,43,286,580,6224
1644190564.354694,-0.00769,0.009644,-0.991577,0.175053,0.233893,-0.14626,47,280,589,6160
1644190564.403074,-0.010803,0.007935,-0.992981,0.281924,0.417099,-0.115725,40,280,584,6224
1644190564.451472,-0.00769,0.007996,-0.990845,0.266656,0.294962,-0.069924,46,274,585,6256
1644190564.499835,-0.010132,0.010071,-0.993042,0.236122,0.462901,0.067481,53,269,592,6192
1644190564.548239,-0.012573,0.010132,-0.991882,0.159786,0.585038,-0.008855,45,270,589,6128
1644190564.596642,-0.010376,0.007935,-0.992676,0.068183,0.493435,-0.100458,54,273,584,6224
1644190564.645155,-0.009155,0.008423,-0.99408,0.190321,0.539237,-0.069924,53,276,578,6256
1644190564.693447,-0.006714,0.008057,-0.992737,0.297191,0.401832,-0.176794,46,279,576,6224
1644190564.741826,-0.007202,0.008484,-0.990723,0.342992,0.523969,-0.024122,62,271,583,6160
1644190564.790212,-0.008545,0.009949,-0.987427,0.297191,0.417099,0.12855,40,280,584,6224
1644190564.838662,-0.00592,0.009277,-0.992432,0.175053,0.493435,-0.161527,49,273,584,6240
1644190564.887033,-0.009155,0.007874,-0.991943,0.144519,0.340763,-0.054656,39,279,590,6240
1644190564.935425,-0.007263,0.007568,-0.991272,0.281924,0.356031,-0.100458,52,263,584,6224
1644190564.984046,-0.008789,0.00946,-0.991577,0.190321,0.386565,-0.024122,52,275,589,6176
1644190565.032424,-0.007629,0.008606,-0.991211,0.327725,0.478168,-0.115725,48,288,590,6240
1644190565.090559,-0.007385,0.012329,-0.99115,0.220855,0.325496,-0.14626,52,268,586,6304
1644190565.132393,-0.007019,0.011047,-0.992371,0.297191,0.432366,-0.100458,45,273,589,6224
1644190565.181564,-0.008362,0.007385,-0.993591,0.327725,0.493435,-0.130992,53,274,585,6224
1644190565.226707,-0.009705,0.008057,-0.99292,0.312458,0.325496,-0.222595,48,274,587,6256
1644190565.322543,-0.01062,0.008301,-0.993896,0.037649,0.447634,-0.176794,53,281,580,6240
1644190565.370923,-0.009521,0.009338,-0.990723,0.113985,0.478168,-0.024122,47,282,579,6240
1644190565.41931,-0.00946,0.012695,-0.992615,0.144519,0.569771,-0.100458,47,270,584,6288
1644190565.467707,-0.007019,0.011475,-0.991089,0.175053,0.371298,-0.207328,49,282,589,6224
1644190565.516074,-0.009583,0.010315,-0.992737,0.159786,0.478168,-0.100458,60,271,585,6192
1644190565.56452,-0.009827,0.008667,-0.990417,0.236122,0.279695,-0.039389,54,277,572,6224
1644190565.612884,-0.006653,0.009033,-0.99115,0.281924,0.508702,-0.024122,49,275,582,6240
1644190565.661301,-0.010986,0.010193,-0.992004,0.251389,0.417099,-0.115725,51,271,583,6256
1644190565.709683,-0.00824,0.010437,-0.990356,0.205588,0.294962,-0.024122,39,271,583,6256
1644190565.758084,-0.008179,0.008606,-0.992859,0.297191,0.432366,-0.14626,45,275,579,6256
1644190565.806482,-0.006409,0.008911,-0.99292,0.205588,0.447634,-0.161527,49,273,591,6192
1644190565.854926,-0.006226,0.009521,-0.993042,0.342992,0.539237,0.052214,51,279,580,6224
1644190565.903303,-0.006348,0.010071,-0.993591,0.175053,0.447634,-0.176794,42,277,586,6192
1644190565.951691,-0.010559,0.008301,-0.992493,0.159786,0.478168,-0.085191,49,280,584,6256
1644190566.000087,-0.005432,0.012268,-0.992004,0.144519,0.371298,-0.161527,51,276,590,6176
1644190566.061672,-0.00769,0.008667,-0.991272,0.266656,0.386565,-0.176794,55,274,585,6192
1644190566.096941,-0.010254,0.011719,-0.991577,0.312458,0.386565,-0.069924,46,283,594,6192
1644190566.145257,-0.008545,0.006836,-0.991455,0.175053,0.401832,-0.130992,45,273,582,6224
1644190566.193615,-0.01123,0.009705,-0.992432,0.113985,0.539237,0.082748,45,275,598,6256
1644190566.242427,-0.009521,0.007324,-0.992249,0.220855,0.417099,-0.054656,51,276,585,6256
1644190566.292506,-0.007141,0.00885,-0.993835,0.342992,0.264427,-0.207328,51,279,585,6192
1644190566.342875,-0.006165,0.00769,-0.990906,0.281924,0.447634,-0.176794,45,280,589,6224
1644190566.387794,-0.008423,0.010315,-0.991394,0.35826,0.508702,-0.130992,46,281,573,6224
1644190566.483983,-0.009949,0.01123,-0.989929,0.159786,0.279695,-0.14626,60,281,580,6256
1644190566.532403,-0.01001,0.011841,-0.992004,0.220855,0.386565,0.006412,48,266,580,6256
1644190566.580754,-0.00708,0.009521,-0.992493,0.46513,0.356031,-0.176794,51,281,585,6176
1644190566.629147,-0.010437,0.008057,-0.98877,0.281924,0.264427,-0.115725,48,269,583,6224
1644190566.677534,-0.010315,0.008484,-0.990051,0.159786,0.539237,0.021679,34,281,578,6224
1644190566.72593,-0.010071,0.009033,-0.992188,0.190321,0.462901,-0.115725,43,276,590,6224
1644190566.77434,-0.009644,0.007568,-0.992615,0.281924,0.417099,-0.115725,48,271,571,6128
1644190566.822733,-0.009094,0.008545,-0.992004,0.251389,0.417099,-0.161527,47,280,584,6240
1644190566.871151,-0.007812,0.011536,-0.992126,0.342992,0.401832,-0.039389,45,277,582,6192
1644190566.919552,-0.008118,0.008179,-0.99231,0.342992,0.233893,-0.054656,52,280,586,6240
1644190566.967956,-0.008118,0.01001,-0.991882,0.159786,0.264427,-0.176794,52,277,577,6240
1644190567.016348,-0.011841,0.009583,-0.993225,0.251389,0.386565,-0.130992,46,269,592,6224
1644190567.075902,-0.005249,0.012146,-0.994263,0.236122,0.432366,-0.008855,49,275,586,6176
1644190567.113161,-0.009399,0.00769,-0.992371,0.113985,0.447634,-0.100458,46,288,592,6256
1644190567.161476,-0.009277,0.007874,-0.991455,0.236122,0.340763,-0.14626,48,269,576,6192
1644190567.209868,-0.009338,0.010437,-0.989807,0.144519,0.447634,-0.14626,49,275,582,6256
1644190567.258236,-0.009766,0.010986,-0.995117,0.266656,0.554504,0.036947,53,279,590,6224
