epoch,acc_x,acc_y,acc_z,rot_x,rot_y,rot_z,mag_x,mag_y,mag_z,temp
1644187500.013002,-0.007202,0.011658,-0.991089,0.175053,0.325496,-0.14626,58,271,585,6224
1644187500.062751,-0.006042,0.010559,-0.99054,0.236122,0.417099,-0.14626,46,274,583,6160
1644187500.109754,-0.010925,0.009521,-0.990051,0.220855,0.401832,-0.115725,41,291,583,6256
1644187500.158139,-0.008362,0.009033,-0.989746,0.144519,0.386565,-0.130992,43,279,590,6256
1644187500.206535,-0.009644,0.011047,-0.991455,0.175053,0.432366,-0.085191,52,275,579,6176
1644187500.255072,-0.006104,0.012329,-0.990845,0.266656,0.447634,-0.161527,43,286,578,6176
1644187500.303336,-0.004761,0.009766,-0.992676,0.236122,0.371298,-0.161527,41,276,580,6240
1644187500.351703,-0.007507,0.010986,-0.991333,0.159786,0.417099,-0.176794,45,263,584,6224
1644187500.400122,-0.008423,0.010315,-0.989258,0.159786,0.24916,-0.283664,51,274,583,6160
1644187500.44851,-0.00647,0.01123,-0.98938,0.113985,0.264427,-0.085191,53,271,594,6240
1644187500.496906,-0.006348,0.009033,-0.99292,0.251389,0.294962,0.052214,51,274,597,6192
1644187500.545296,-0.005188,0.009827,-0.993103,0.144519,0.432366,-0.130992,46,281,583,6224
1644187500.593694,-0.008728,0.009827,-0.992493,0.281924,0.417099,-0.222595,54,263,582,6176
1644187500.642055,-0.010681,0.008545,-0.991943,0.373527,0.310229,-0.192061,59,263,586,6224
1644187500.690461,-0.009094,0.011902,-0.99115,0.312458,0.462901,-0.069924,49,282,589,6224
1644187500.739108,-0.008667,0.009766,-0.991089,0.129252,0.554504,-0.176794,43,271,573,6256
1644187500.789888,-0.006226,0.009949,-0.992065,0.251389,0.356031,-0.024122,52,270,579,6224
1644187500.840495,-0.009338,0.008972,-0.989685,0.007115,0.447634,-0.085191,41,274,590,6256
1644187500.885511,-0.008545,0.011353,-0.989258,0.266656,0.554504,-0.100458,48,276,578,6192
1644187500.980871,-0.006287,0.008423,-0.991089,0.419328,0.386565,-0.100458,45,282,586,6256
1644187501.029272,-0.007812,0.011719,-0.989563,0.312458,0.478168,0.006412,47,280,586,6224
1644187501.077798,-0.008667,0.010559,-0.989441,0.236122,0.401832,-0.069924,45,273,593,6224
1644187501.126009,-0.005798,0.008789,-0.991699,0.266656,0.310229,-0.14626,51,286,587,6224
1644187501.174408,-0.006836,0.009338,-0.989929,0.236122,0.523969,-0.14626,53,283,578,6224
1644187501.222808,-0.009094,0.012085,-0.990479,0.159786,0.356031,-0.069924,52,273,589,6192
1644187501.271168,-0.006531,0.008423,-0.991272,0.159786,0.615573,-0.054656,53,276,585,6224
1644187501.31958,-0.008423,0.012756,-0.992126,0.251389,0.356031,-0.069924,40,277,582,6240
1644187501.367979,-0.005981,0.010986,-0.98938,0.236122,0.401832,-0.039389,46,276,578,6224
1644187501.416371,-0.007812,0.008789,-0.989563,0.144519,0.447634,-0.039389,45,282,572,6224
1644187501.464767,-0.007446,0.008057,-0.99292,0.159786,0.493435,-0.008855,42,273,582,6224
1644187501.513158,-0.007141,0.012085,-0.992065,0.281924,0.539237,0.021679,52,277,582,6224
1644187501.561552,-0.007324,0.010864,-0.988708,0.236122,0.371298,-0.14626,53,274,587,6288
1644187501.609937,-0.005737,0.010864,-0.992432,0.266656,0.401832,-0.192061,45,280,582,6224
1644187501.658324,-0.006287,0.013062,-0.992126,0.373527,0.417099,-0.161527,59,273,589,6192
1644187501.706726,-0.007568,0.009521,-0.991943,0.205588,0.294962,-0.039389,48,274,585,6256
1644187501.755163,-0.007141,0.011108,-0.989807,0.342992,0.371298,-0.161527,42,268,589,6256
1644187501.803559,-0.011841,0.009583,-0.993225,0.251389,0.447634,-0.100458,57,280,593,6240
1644187501.851968,-0.006042,0.009827,-0.990906,0.251389,0.417099,-0.085191,49,277,582,6240
1644187501.901935,-0.009277,0.00885,-0.990906,0.175053,0.493435,-0.100458,51,269,587,6224
1644187501.952252,-0.010559,0.01062,-0.99353,0.205588,0.539237,-0.054656,42,275,579,6192
1644187502.002342,-0.007324,0.008667,-0.994202,0.144519,0.340763,-0.100458,42,270,589,6176
1644187502.094222,-0.008179,0.012268,-0.991333,0.007115,0.340763,-0.161527,52,273,586,6160
1644187502.142392,-0.008057,0.008545,-0.991333,0.205588,0.417099,-0.100458,45,280,589,6192
1644187502.190647,-0.010986,0.012146,-0.990051,0.159786,0.356031,-0.14626,47,282,577,6256
1644187502.239039,-0.007263,0.012146,-0.991943,0.236122,0.417099,-0.069924,54,273,586,6240
1644187502.28743,-0.006592,0.013184,-0.991028,0.281924,0.554504,-0.14626,58,269,583,6240
1644187502.335827,-0.010925,0.013123,-0.990356,0.098718,0.264427,-0.14626,55,271,585,6224
1644187502.384205,-0.007019,0.007629,-0.99292,0.175053,0.356031,-0.192061,53,274,578,6304
1644187502.432642,-0.007141,0.007324,-0.993042,0.419328,0.371298,-0.25313,46,274,585,6256
1644187502.481008,-0.007385,0.009155,-0.993042,0.129252,0.386565,-0.115725,51,271,573,6256
1644187502.52939,-0.010437,0.010986,-0.992554,0.159786,0.432366,-0.100458,43,281,585,6240
1644187502.577797,-0.00769,0.011963,-0.992065,0.175053,0.340763,-0.222595,41,276,587,6224
1644187502.626163,-0.007812,0.009888,-0.990845,0.236122,0.508702,0.006412,51,274,592,6240
1644187502.674697,-0.006958,0.011658,-0.992859,0.266656,0.478168,-0.039389,46,271,576,6240
1644187502.722995,-0.010437,0.009705,-0.989075,0.08345,0.493435,0.036947,52,277,582,6224
1644187502.771369,-0.008789,0.010803,-0.990662,-0.008153,0.432366,-0.100458,47,282,584,6224
1644187502.819811,-0.008972,0.01001,-0.989685,0.190321,0.493435,-0.115725,42,277,586,6256
1644187502.868194,-0.008057,0.009705,-0.98999,0.251389,0.401832,0.036947,49,268,593,6192
1644187502.916689,-0.007324,0.01178,-0.993286,0.220855,0.447634,0.067481,45,275,579,6240
1644187502.965334,-0.007568,0.010193,-0.990906,0.297191,0.447634,-0.298931,52,275,577,6336
1644187503.014955,-0.005798,0.010681,-0.990356,0.236122,0.325496,-0.100458,39,274,583,6192
1644187503.077694,-0.006226,0.011597,-0.990479,0.266656,0.371298,-0.130992,46,271,583,6304
1644187503.111156,-0.008972,0.010193,-0.993286,0.144519,0.478168,-0.008855,40,268,584,6176
1644187503.206894,-0.010986,0.006775,-0.989929,0.251389,0.356031,0.052214,43,274,587,6224
1644187503.255419,-0.004883,0.008606,-0.989868,0.205588,0.462901,-0.100458,46,274,578,6240
1644187503.303699,-0.005981,0.009399,-0.990906,0.266656,0.310229,0.006412,46,264,585,6192
1644187503.352087,-0.004578,0.009338,-0.990967,0.205588,0.325496,-0.222595,47,263,582,6192
1644187503.400466,-0.007019,0.011841,-0.992065,0.220855,0.279695,0.067481,53,279,585,6240
1644187503.448874,-0.008423,0.009399,-0.98999,0.190321,0.386565,-0.115725,42,282,589,6192
1644187503.497275,-0.01062,0.009705,-0.991028,0.144519,0.417099,-0.161527,38,287,577,6224
1644187503.545655,-0.008057,0.011292,-0.992004,0.068183,0.508702,0.082748,46,269,583,6240
1644187503.594038,-0.007324,0.010498,-0.992615,0.251389,0.462901,-0.069924,48,271,580,6224
1644187503.642455,-0.007385,0.009766,-0.991211,0.159786,0.523969,0.006412,40,280,568,6224
1644187503.690835,-0.004089,0.008911,-0.986694,0.312458,0.356031,-0.14626,47,277,582,6240
1644187503.739238,-0.008118,0.010803,-0.991516,0.159786,0.462901,-0.039389,61,270,584,6192
1644187503.787604,-0.005127,0.009216,-0.989685,0.205588,0.417099,0.052214,48,271,585,6240
1644187503.836026,-0.009705,0.008728,-0.99231,0.373527,0.493435,-0.024122,59,273,591,6256
1644187503.884456,-0.01001,0.007812,-0.991577,0.144519,0.447634,-0.069924,47,270,589,6160
1644187503.932863,-0.01123,0.010132,-0.992065,0.327725,0.447634,-0.222595,52,280,589,6256
1644187503.981238,-0.007751,0.010193,-0.991211,0.281924,0.325496,-0.100458,47,270,589,6336
1644187504.029639,-0.010803,0.009705,-0.990173,0.251389,0.325496,-0.100458,55,274,587,6160
1644187504.082545,-0.008911,0.008301,-0.992249,0.251389,0.279695,-0.100458,53,271,590,6176
1644187504.128293,-0.009216,0.01001,-0.992004,0.266656,0.371298,-0.115725,46,279,583,6224
1644187504.177718,-0.008484,0.009521,-0.991638,0.251389,0.356031,-0.069924,36,271,583,6256
1644187504.22756,-0.006775,0.01123,-0.994324,0.342992,0.310229,-0.085191,53,271,576,6224
1644187504.272558,-0.008179,0.010681,-0.990906,0.098718,0.386565,-0.069924,49,282,579,6240
1644187504.368326,-0.007202,0.010437,-0.990173,0.190321,0.432366,0.021679,48,266,585,6256
1644187504.416715,-0.006531,0.010437,-0.993286,0.098718,0.401832,-0.115725,52,265,575,6288
1644187504.465357,-0.005798,0.011353,-0.992004,0.129252,0.432366,-0.130992,55,266,571,6176
1644187504.513502,-0.005188,0.010864,-0.992004,0.113985,0.340763,-0.008855,49,277,586,6240
1644187504.561908,-0.008362,0.013733,-0.992737,0.08345,0.447634,0.021679,51,281,583,6304
1644187504.6103,-0.008423,0.009521,-0.991699,0.220855,0.539237,-0.161527,55,276,590,6240
1644187504.65868,-0.009277,0.012329,-0.991211,0.236122,0.371298,0.006412,47,273,584,6256
1644187504.707077,-0.007568,0.009705,-0.993042,0.205588,0.432366,-0.161527,41,281,587,6288
1644187504.755463,-0.007202,0.01355,-0.991028,0.129252,0.401832,-0.100458,49,275,582,6224
1644187504.803879,-0.009277,0.008545,-0.991821,0.266656,0.478168,-0.024122,49,277,582,6240
1644187504.852346,-0.007629,0.011597,-0.98999,0.205588,0.386565,-0.115725,49,265,589,6176
1644187504.900702,-0.006287,0.012207,-0.990417,0.35826,0.508702,-0.054656,45,285,589,6176
1644187504.949097,-0.007385,0.012634,-0.991577,0.327725,0.356031,-0.25313,43,274,585,6256
1644187504.99749,-0.007874,0.014099,-0.988892,0.220855,0.478168,-0.039389,45,275,582,6224
1644187505.054359,-0.008423,0.010864,-0.994141,0.08345,0.554504,-0.115725,60,283,590,6256
1644187505.095233,-0.009216,0.012512,-0.992798,0.144519,0.478168,0.052214,47,277,596,6240
1644187505.142635,-0.009155,0.010681,-0.992126,0.236122,0.386565,-0.024122,51,276,587,6224
1644187505.19101,-0.008728,0.012268,-0.992554,0.236122,0.264427,-0.024122,48,266,587,6224
1644187505.239422,-0.005371,0.011658,-0.988708,0.113985,0.356031,-0.115725,42,280,591,6256
1644187505.288214,-0.009583,0.011353,-0.990906,0.35826,0.432366,-0.069924,45,292,584,6240
1644187505.339207,-0.007812,0.011047,-0.989746,0.159786,0.539237,-0.176794,52,277,582,6240
1644187505.388855,-0.006226,0.00885,-0.989441,0.327725,0.447634,-0.298931,46,274,578,6224
1644187505.433846,-0.009888,0.011658,-0.990479,0.327725,0.386565,-0.100458,55,276,597,6176
1644187505.529767,-0.008179,0.011536,-0.988098,0.052916,0.478168,-0.176794,47,265,582,6224
1644187505.578141,-0.006409,0.012329,-0.98822,0.327725,0.340763,-0.039389,47,268,577,6224
1644187505.626523,-0.008057,0.009338,-0.992432,0.251389,0.462901,-0.069924,48,281,583,6256
1644187505.67551,-0.010498,0.010132,-0.991821,0.190321,0.508702,-0.207328,49,277,582,6224
1644187505.723351,-0.005737,0.008667,-0.991943,0.098718,0.371298,-0.161527,49,282,582,6256
1644187505.771751,-0.008972,0.010193,-0.993042,0.236122,0.401832,-0.14626,49,280,584,6256
1644187505.82013,-0.006531,0.012146,-0.991272,0.281924,0.356031,-0.039389,55,271,590,6288
1644187505.86858,-0.007935,0.012695,-0.992554,0.297191,0.417099,0.052214,52,290,582,6224
1644187505.917117,-0.006226,0.01001,-0.992615,0.297191,0.493435,-0.039389,33,275,577,6160
1644187505.965346,-0.008606,0.012085,-0.993835,0.297191,0.676641,-0.054656,53,281,590,6224
1644187506.013729,-0.006775,0.009155,-0.989807,0.190321,0.340763,0.082748,45,290,593,6224
1644187506.068303,-0.008545,0.010742,-0.990173,0.297191,0.493435,-0.14626,47,287,582,6176
1644187506.110475,-0.007446,0.009216,-0.991699,0.175053,0.340763,0.12855,60,281,583,6192
1644187506.158885,-0.00885,0.013916,-0.99115,0.35826,0.523969,-0.085191,45,282,586,6240
1644187506.207278,-0.00647,0.008789,-0.991394,0.236122,0.478168,-0.085191,54,270,586,6240
1644187506.255697,-0.006348,0.009949,-0.992859,0.236122,0.539237,-0.222595,40,280,591,6192
1644187506.304039,-0.007629,0.011963,-0.992676,0.312458,0.432366,0.006412,48,269,587,6240
1644187506.352464,-0.008484,0.010132,-0.990479,0.297191,0.325496,0.052214,48,264,590,6224
1644187506.400972,-0.009155,0.009705,-0.991577,0.159786,0.340763,-0.024122,42,270,584,6240
1644187506.451852,-0.008484,0.012207,-0.991943,0.175053,0.294962,-0.100458,40,277,582,6224
1644187506.501594,-0.009521,0.009644,-0.993042,0.236122,0.523969,0.006412,48,274,590,6256
1644187506.546784,-0.006409,0.010864,-0.993103,0.159786,0.493435,0.006412,55,276,585,6256
1644187506.642821,-0.009583,0.009155,-0.991882,0.175053,0.493435,-0.100458,46,281,578,6192
1644187506.691202,-0.010254,0.01001,-0.991089,0.159786,0.478168,-0.069924,52,285,579,6224
1644187506.739567,-0.006653,0.008667,-0.993103,0.312458,0.432366,0.036947,58,269,576,6224
1644187506.787995,-0.007935,0.011414,-0.993896,0.419328,0.340763,-0.176794,43,276,573,6224
1644187506.836373,-0.007141,0.007996,-0.993103,0.159786,0.386565,-0.161527,46,266,578,6224
1644187506.884831,-0.005859,0.010437,-0.990967,0.113985,0.447634,-0.069924,52,277,584,6224
1644187506.933223,-0.009094,0.010376,-0.994629,0.373527,0.356031,-0.14626,47,263,589,6224
1644187506.981615,-0.008362,0.01001,-0.992676,0.35826,0.325496,-0.192061,54,275,589,6224
1644187507.029991,-0.008606,0.01178,-0.990356,0.175053,0.508702,-0.085191,48,279,580,6224
1644187507.08801,-0.006531,0.007996,-0.990051,0.266656,0.554504,-0.024122,47,273,589,6224
1644187507.12676,-0.007629,0.007935,-0.990784,0.129252,0.386565,-0.176794,46,274,578,6224
1644187507.17536,-0.006104,0.007568,-0.994324,0.068183,0.233893,-0.085191,48,279,587,6240
1644187507.223533,-0.007751,0.011047,-0.99115,0.281924,0.371298,-0.100458,53,281,583,6192
1644187507.272058,-0.007751,0.009399,-0.994812,0.098718,0.447634,-0.100458,53,276,576,6240
1644187507.322601,-0.008789,0.01062,-0.993591,0.342992,0.432366,0.021679,40,273,570,6256
1644187507.373109,-0.006714,0.011414,-0.992188,0.312458,0.508702,-0.100458,47,275,586,6224
1644187507.418041,-0.007202,0.011597,-0.988525,0.251389,0.340763,-0.161527,51,264,583,6304
1644187507.513872,-0.006592,0.009827,-0.991516,0.205588,0.371298,0.021679,47,275,582,6224
1644187507.562395,-0.008057,0.009277,-0.990295,0.251389,0.340763,0.006412,45,282,582,6240
1644187507.610668,-0.009338,0.009521,-0.991577,0.159786,0.432366,-0.192061,46,276,576,6240
1644187507.65906,-0.008606,0.012451,-0.990479,0.159786,0.294962,-0.085191,53,266,587,6240
1644187507.707452,-0.006042,0.009827,-0.987671,0.098718,0.294962,-0.069924,55,269,585,6256
1644187507.755824,-0.007324,0.009094,-0.992737,0.129252,0.401832,0.113282,54,265,586,6240
1644187507.804253,-0.009338,0.011047,-0.992065,0.281924,0.294962,-0.130992,51,271,590,6176
1644187507.852655,-0.008179,0.009705,-0.991089,0.068183,0.386565,-0.069924,49,280,586,6256
1644187507.901072,-0.006104,0.007751,-0.989258,0.327725,0.325496,0.143817,54,280,582,6240
1644187507.949465,-0.007385,0.010803,-0.993896,0.342992,0.554504,0.036947,45,273,584,6224
1644187507.997826,-0.008728,0.010254,-0.990662,0.159786,0.386565,-0.176794,38,285,586,6256
1644187508.064997,-0.009766,0.010315,-0.99231,0.205588,0.203359,-0.085191,53,266,587,6224
1644187508.099853,-0.008423,0.00946,-0.990906,0.068183,0.294962,-0.207328,54,277,584,6192
1644187508.143061,-0.007263,0.011536,-0.991028,0.190321,0.386565,-0.161527,48,276,583,6192
1644187508.191427,-0.010376,0.008301,-0.987976,0.266656,0.417099,-0.085191,53,269,590,6224
1644187508.239817,-0.01062,0.009399,-0.993225,0.159786,0.340763,0.067481,51,293,573,6224
1644187508.288229,-0.008484,0.007874,-0.992981,0.159786,0.523969,-0.069924,49,270,582,6240
1644187508.336793,-0.009033,0.009277,-0.991211,0.266656,0.264427,-0.008855,40,268,572,6256
1644187508.385386,-0.006348,0.010254,-0.991516,0.220855,0.523969,-0.008855,40,277,586,6256
1644187508.435502,-0.008545,0.012756,-0.990784,0.266656,0.356031,-0.039389,52,270,586,6240
1644187508.486021,-0.007996,0.010376,-0.994629,0.220855,0.401832,-0.024122,54,275,591,6304
1644187508.535741,-0.008972,0.00885,-0.991089,0.236122,0.493435,-0.161527,41,264,583,6224
1644187508.626941,-0.007507,0.008789,-0.990112,0.175053,0.356031,-0.176794,46,271,573,6192
1644187508.675468,-0.006409,0.010864,-0.990784,0.236122,0.478168,0.021679,54,273,577,6240
1644187508.72377,-0.006104,0.010315,-0.988525,0.480397,0.523969,-0.14626,55,276,594,6160
1644187508.772401,-0.006897,0.011475,-0.988953,0.35826,0.585038,-0.130992,58,276,587,6224
1644187508.820523,-0.007568,0.010986,-0.99115,0.281924,0.478168,-0.130992,53,269,583,6192
1644187508.868901,-0.011475,0.011414,-0.99231,0.175053,0.386565,-0.130992,38,277,572,6240
1644187508.917317,-0.008545,0.012512,-0.99115,0.08345,0.325496,-0.100458,47,270,591,6176
1644187508.965711,-0.007385,0.015259,-0.995361,0.388794,0.417099,-0.298931,46,271,578,6240
1644187509.014095,-0.007874,0.01001,-0.988281,0.205588,0.264427,-0.161527,41,274,583,6224
1644187509.070444,-0.008606,0.00824,-0.990662,0.236122,0.508702,-0.069924,52,275,584,6224
1644187509.110846,-0.007874,0.01355,-0.990967,0.129252,0.447634,-0.054656,46,283,578,6224
1644187509.159237,-0.009094,0.012451,-0.992371,0.434595,0.386565,-0.115725,35,277,577,6176
1644187509.207648,-0.010559,0.009521,-0.992432,0.35826,0.294962,0.021679,43,279,573,6224
1644187509.256002,-0.007385,0.009705,-0.991638,0.190321,0.432366,-0.100458,49,275,591,6224
1644187509.30443,-0.006104,0.011353,-0.992004,0.068183,0.508702,-0.008855,53,276,587,6240
1644187509.352833,-0.00824,0.010132,-0.991089,0.144519,0.294962,-0.161527,62,279,576,6224
1644187509.401209,-0.006836,0.011719,-0.989319,0.327725,0.493435,0.021679,45,270,582,6224
1644187509.449596,-0.008606,0.012695,-0.993347,0.175053,0.569771,-0.008855,53,276,592,6256
1644187509.497975,-0.008728,0.00824,-0.993164,0.266656,0.371298,-0.039389,48,269,594,6224
1644187509.54679,-0.008545,0.009766,-0.992737,0.281924,0.523969,-0.100458,42,273,584,6224
1644187509.597402,-0.006714,0.010437,-0.990051,0.266656,0.310229,-0.085191,46,279,585,6240
1644187509.647532,-0.006897,0.010559,-0.993347,0.220855,0.401832,-0.024122,49,277,579,6224
1644187509.692548,-0.007751,0.007935,-0.994629,0.281924,0.356031,-0.085191,47,273,589,6240
1644187509.788333,-0.006836,0.008484,-0.98999,0.098718,0.356031,-0.161527,43,276,583,6176
1644187509.836806,-0.009888,0.011414,-0.987122,0.251389,0.432366,-0.100458,51,271,583,6256
1644187509.885267,-0.00647,0.011475,-0.989197,0.144519,0.447634,-0.069924,47,273,579,6192
1644187509.933568,-0.007812,0.011353,-0.991333,0.297191,0.523969,-0.115725,47,280,586,6224
1644187509.981954,-0.006775,0.012695,-0.989502,0.342992,0.356031,-0.115725,48,271,580,6224
1644187510.030334,-0.008972,0.011414,-0.989441,0.052916,0.432366,-0.008855,49,270,577,6224
1644187510.084863,-0.008667,0.010681,-0.991028,0.113985,0.523969,-0.14626,48,279,587,6240
1644187510.127111,-0.008911,0.009644,-0.991577,-0.145557,0.432366,0.006412,54,280,568,6224
1644187510.175477,-0.007996,0.012817,-0.990967,0.373527,0.340763,-0.069924,43,271,587,6176
1644187510.223895,-0.008728,0.009216,-0.991394,0.342992,0.462901,-0.207328,40,273,589,6240
1644187510.2723,-0.005798,0.009705,-0.990723,0.327725,0.172824,0.006412,57,275,582,6240
1644187510.320679,-0.006714,0.008362,-0.990784,0.251389,0.417099,-0.085191,46,266,580,6192
1644187510.369072,-0.007263,0.009399,-0.989929,0.312458,0.478168,-0.069924,51,271,587,6240
1644187510.417456,-0.007751,0.008362,-0.988892,0.281924,0.478168,-0.115725,46,269,578,6240
1644187510.465847,-0.007935,0.009949,-0.993591,0.297191,0.386565,-0.054656,40,285,577,6240
1644187510.514228,-0.008606,0.007568,-0.991516,0.281924,0.478168,-0.085191,43,281,587,6256
1644187510.562656,-0.004272,0.009644,-0.989746,0.205588,0.554504,-0.100458,49,268,589,6192
1644187510.611074,-0.009094,0.007507,-0.989685,0.129252,0.356031,-0.069924,64,265,589,6256
1644187510.661143,-0.010071,0.010132,-0.991272,0.236122,0.447634,-0.100458,49,280,589,6224
1644187510.711487,-0.009094,0.009277,-0.99231,0.205588,0.340763,-0.237863,54,277,589,6256
1644187510.75653,-0.004822,0.008972,-0.990112,0.144519,0.417099,-0.14626,47,273,598,6224
1644187510.853048,-0.007263,0.010986,-0.990723,0.144519,0.371298,-0.192061,42,270,582,6288
1644187510.901412,-0.006714,0.009644,-0.989563,0.373527,0.447634,-0.130992,49,275,582,6224
1644187510.949811,-0.008362,0.010071,-0.990967,0.266656,0.325496,-0.085191,51,286,590,6240
1644187510.998219,-0.00592,0.009216,-0.993042,0.144519,0.523969,-0.176794,48,276,573,6192
1644187511.064626,-0.007812,0.011475,-0.991394,0.266656,0.294962,-0.100458,40,270,589,6240
1644187511.097661,-0.009644,0.010437,-0.991211,0.159786,0.340763,-0.024122,54,268,586,6192
1644187511.143377,-0.007996,0.011536,-0.989929,0.281924,0.294962,-0.100458,47,268,579,6288
1644187511.191765,-0.005005,0.010437,-0.989685,0.144519,0.478168,-0.14626,49,268,584,6176
1644187511.240147,-0.008728,0.009521,-0.991272,0.266656,0.386565,-0.192061,51,274,585,6192
1644187511.288538,-0.007629,0.01001,-0.991455,0.449863,0.310229,-0.207328,47,275,584,6240
1644187511.336924,-0.007629,0.008911,-0.991455,0.327725,0.371298,-0.054656,55,276,578,6176
1644187511.385318,-0.010376,0.011719,-0.99176,0.129252,0.417099,-0.14626,48,271,592,6224
1644187511.43371,-0.007935,0.00946,-0.989685,0.327725,0.325496,-0.14626,54,275,596,6224
1644187511.48209,-0.010559,0.011475,-0.992676,0.312458,0.539237,-0.085191,53,266,585,6240
1644187511.530903,-0.006531,0.009216,-0.991577,0.266656,0.279695,-0.130992,45,275,591,6224
1644187511.581519,-0.008606,0.012085,-0.993774,0.281924,0.462901,-0.085191,43,276,590,6160
1644187511.631656,-0.007874,0.011536,-0.990601,0.35826,0.462901,-0.085191,51,271,585,6288
1644187511.676642,-0.007568,0.012878,-0.992126,0.205588,0.371298,0.052214,57,275,570,6240
1644187511.772486,-0.010742,0.008362,-0.990234,0.205588,0.447634,-0.14626,52,265,589,6176
1644187511.82086,-0.01062,0.00824,-0.993958,0.190321,0.432366,-0.069924,52,277,579,6176
1644187511.869277,-0.00885,0.010864,-0.989075,0.159786,0.386565,-0.192061,54,270,589,6224
1644187511.917659,-0.009399,0.010681,-0.991943,0.037649,0.478168,0.067481,49,273,577,6240
1644187511.966071,-0.007324,0.010742,-0.99054,0.098718,0.493435,-0.130992,39,274,578,6224
1644187512.014488,-0.008484,0.010437,-0.9953,0.312458,0.401832,-0.085191,46,283,578,6224
1644187512.066784,-0.004944,0.007507,-0.990723,0.419328,0.340763,-0.130992,42,275,584,6240
1644187512.111289,-0.006165,0.012207,-0.991272,0.251389,0.447634,-0.100458,46,279,583,6256
1644187512.159618,-0.007507,0.009583,-0.990356,0.266656,0.401832,-0.039389,51,283,576,6160
1644187512.208005,-0.010925,0.011108,-0.990234,0.312458,0.432366,-0.054656,51,274,583,6240
1644187512.256379,-0.007324,0.009705,-0.993469,0.098718,0.294962,-0.161527,49,273,582,6224
1644187512.304807,-0.008545,0.008911,-0.991394,0.404061,0.508702,-0.085191,55,269,578,6176
1644187512.353195,-0.008789,0.011353,-0.994141,0.236122,0.554504,-0.207328,52,277,582,6304
1644187512.40158,-0.009033,0.012024,-0.992737,0.236122,0.386565,0.12855,51,281,590,6224
1644187512.449956,-0.008911,0.009155,-0.992249,0.236122,0.447634,-0.176794,53,274,587,6240
1644187512.498365,-0.008789,0.007935,-0.988892,0.312458,0.462901,-0.14626,49,270,584,6256
1644187512.546752,-0.010986,0.010254,-0.98938,0.098718,0.371298,-0.039389,47,275,584,6224
1644187512.595189,-0.01001,0.009766,-0.989868,0.251389,0.340763,-0.130992,52,273,591,6256
1644187512.643548,-0.00708,0.010132,-0.98938,0.266656,0.691908,-0.115725,45,280,575,6224
1644187512.692337,-0.007935,0.010376,-0.990234,0.190321,0.462901,-0.130992,52,280,584,6192
1644187512.742593,-0.008667,0.009705,-0.990845,0.144519,0.462901,-0.14626,39,271,585,6224
1644187512.793192,-0.00415,0.012329,-0.993652,0.404061,0.478168,-0.130992,48,271,569,6192
1644187512.838051,-0.011719,0.008545,-0.988647,0.327725,0.386565,-0.14626,49,282,579,6240
1644187512.933943,-0.010193,0.009827,-0.991577,0.312458,0.264427,-0.14626,48,269,587,6304
1644187512.982426,-0.008911,0.008545,-0.99231,0.251389,0.310229,-0.192061,53,271,587,6288
1644187513.030735,-0.009583,0.011353,-0.993164,0.052916,0.447634,0.082748,48,276,585,6192
1644187513.079194,-0.006714,0.009277,-0.990295,0.297191,0.417099,-0.115725,48,276,583,6256
1644187513.127494,-0.007263,0.009155,-0.992493,0.175053,0.371298,-0.100458,45,273,579,6176
1644187513.175861,-0.010254,0.009766,-0.991272,0.251389,0.310229,-0.024122,41,271,594,6240
1644187513.224271,-0.005798,0.010925,-0.988831,0.175053,0.493435,-0.25313,40,280,589,6224
1644187513.272638,-0.006531,0.008484,-0.990601,0.220855,0.554504,0.052214,49,282,586,6224
1644187513.321056,-0.00769,0.011658,-0.991882,0.297191,0.447634,-0.115725,48,281,571,6224
1644187513.369431,-0.006226,0.007629,-0.989258,0.175053,0.401832,-0.085191,48,281,580,6256
1644187513.417821,-0.006531,0.012878,-0.992981,0.35826,0.371298,-0.054656,55,271,590,6224
1644187513.466223,-0.009521,0.009827,-0.99353,0.113985,0.508702,-0.14626,58,281,587,6240
1644187513.514717,-0.006897,0.011902,-0.99231,0.312458,0.493435,-0.130992,49,282,579,6224
1644187513.563025,-0.005798,0.012756,-0.990601,0.266656,0.386565,-0.039389,43,288,587,6256
1644187513.611378,-0.007935,0.008789,-0.991455,0.266656,0.493435,0.006412,42,282,577,6176
1644187513.6598,-0.007141,0.010742,-0.991821,0.266656,0.508702,-0.115725,40,280,584,6192
1644187513.708183,-0.009644,0.009216,-0.995056,0.144519,0.356031,-0.115725,41,269,583,6224
1644187513.756564,-0.008118,0.009155,-0.99176,0.175053,0.417099,0.036947,43,281,597,6224
1644187513.805021,-0.00885,0.012451,-0.990356,0.08345,0.585038,-0.085191,49,265,591,6224
1644187513.853752,-0.007385,0.009949,-0.989014,0.175053,0.401832,-0.222595,41,283,573,6128
1644187513.905221,-0.008118,0.010498,-0.993042,0.297191,0.386565,-0.039389,43,271,578,6224
1644187513.955189,-0.011597,0.009216,-0.989624,0.129252,0.356031,-0.085191,49,275,591,6224
1644187514.058267,-0.007996,0.010254,-0.990479,0.327725,0.340763,-0.176794,48,264,590,6240
1644187514.098921,-0.007568,0.011963,-0.99176,0.190321,0.325496,-0.024122,40,292,584,6192
1644187514.143775,-0.01178,0.011963,-0.993042,0.113985,0.493435,-0.192061,47,277,586,6224
1644187514.192185,-0.010071,0.008911,-0.990845,0.251389,0.462901,-0.130992,42,280,572,6224
1644187514.240519,-0.010254,0.008789,-0.99353,0.297191,0.325496,-0.130992,46,274,583,6256
1644187514.288904,-0.006714,0.010193,-0.993164,0.068183,0.203359,-0.039389,58,279,580,6192
1644187514.337299,-0.010071,0.008423,-0.991516,0.159786,0.386565,-0.115725,47,273,575,6256
1644187514.385674,-0.007507,0.010498,-0.99115,0.190321,0.386565,-0.054656,49,277,591,6224
1644187514.434086,-0.007507,0.00708,-0.990906,0.297191,0.386565,-0.054656,45,277,589,6224
1644187514.482483,-0.007874,0.010559,-0.989929,0.342992,0.401832,-0.130992,52,280,591,6224
1644187514.530875,-0.007263,0.010254,-0.992615,0.175053,0.356031,-0.14626,45,280,591,6224
1644187514.579259,-0.005615,0.007202,-0.991638,0.342992,0.401832,-0.222595,46,276,583,6240
1644187514.627976,-0.008179,0.011292,-0.992615,0.312458,0.493435,-0.024122,48,266,578,6288
1644187514.676836,-0.006409,0.010376,-0.991028,0.251389,0.371298,-0.008855,43,276,583,6224
1644187514.727486,-0.007141,0.011169,-0.992126,0.220855,0.310229,-0.207328,52,275,593,6224
1644187514.777583,-0.006226,0.011047,-0.989807,0.251389,0.310229,-0.222595,54,275,586,6224
1644187514.869609,-0.009644,0.008118,-0.994507,0.190321,0.493435,-0.039389,49,275,582,6256
1644187514.918027,-0.009583,0.011169,-0.991394,0.129252,0.417099,-0.176794,40,285,579,6240
1644187514.966434,-0.008484,0.011536,-0.991089,0.342992,0.294962,-0.069924,48,274,590,6224
1644187515.01485,-0.006042,0.010437,-0.991333,0.175053,0.478168,-0.069924,53,281,585,6192
1644187515.067322,-0.008972,0.011841,-0.991394,0.098718,0.447634,-0.100458,52,273,593,6224
1644187515.111578,-0.008057,0.009705,-0.990662,0.220855,0.356031,-0.14626,45,280,589,6224
1644187515.159967,-0.008484,0.009521,-0.988342,0.205588,0.432366,-0.024122,52,282,579,6240
1644187515.208373,-0.009094,0.009399,-0.990662,0.175053,0.554504,-0.054656,53,271,580,6240
1644187515.256763,-0.007019,0.007935,-0.991089,0.113985,0.371298,-0.069924,52,273,584,6224
1644187515.305218,-0.010376,0.007751,-0.991516,0.190321,0.356031,-0.054656,45,268,582,6240
1644187515.353534,-0.006226,0.009094,-0.992126,0.297191,0.371298,-0.054656,54,287,586,6192
1644187515.401942,-0.005615,0.010254,-0.99176,0.312458,0.386565,-0.207328,45,275,582,6160
1644187515.450334,-0.006836,0.012024,-0.990784,0.251389,0.478168,-0.176794,58,262,580,6224
1644187515.498742,-0.009827,0.010437,-0.991943,0.220855,0.371298,-0.130992,49,277,582,6176
1644187515.547127,-0.011841,0.010132,-0.989441,0.175053,0.401832,-0.024122,58,274,590,6224
1644187515.595519,-0.006042,0.008179,-0.991272,0.175053,0.447634,0.067481,54,270,579,6176
1644187515.643879,-0.008789,0.010559,-0.989502,0.327725,0.386565,-0.130992,57,280,584,6224
1644187515.692314,-0.009094,0.013611,-0.991943,0.251389,0.401832,0.067481,54,277,589,6192
1644187515.740709,-0.008545,0.011841,-0.992126,0.35826,0.386565,-0.085191,51,279,590,6224
1644187515.790904,-0.010254,0.011719,-0.990662,0.205588,0.447634,-0.314198,53,271,587,6256
1644187515.840828,-0.008606,0.00885,-0.989929,0.480397,0.447634,-0.176794,45,270,591,6240
1644187515.891059,-0.008972,0.00885,-0.992249,0.312458,0.386565,-0.130992,39,274,578,6224
1644187515.935655,-0.009399,0.008606,-0.993225,0.068183,0.508702,-0.161527,52,280,575,6224
1644187516.031095,-0.007874,0.012573,-0.990173,0.312458,0.386565,-0.039389,53,276,587,6224
1644187516.082278,-0.008362,0.010559,-0.990112,0.236122,0.432366,-0.054656,51,283,592,6224
1644187516.127828,-0.007446,0.00769,-0.989563,0.220855,0.401832,-0.008855,48,276,576,6288
1644187516.176224,-0.00769,0.011047,-0.993408,0.236122,0.356031,-0.054656,46,279,585,6224
1644187516.224628,-0.011169,0.013,-0.990295,0.388794,0.279695,-0.039389,46,271,576,6160
1644187516.272991,-0.008057,0.008423,-0.98877,0.190321,0.432366,-0.024122,53,276,590,6240
1644187516.321398,-0.00769,0.010986,-0.991882,0.175053,0.203359,-0.130992,51,269,580,6224
1644187516.369805,-0.005188,0.008057,-0.993042,0.297191,0.386565,-0.207328,35,270,579,6224
1644187516.418197,-0.010315,0.010742,-0.993103,0.281924,0.447634,-0.069924,38,282,584,6256
1644187516.466586,-0.008362,0.011536,-0.991577,0.220855,0.478168,-0.054656,40,275,586,6240
1644187516.51508,-0.008545,0.010437,-0.992249,0.236122,0.386565,0.021679,48,276,580,6224
1644187516.563385,-0.006714,0.010193,-0.990234,0.175053,0.310229,-0.222595,49,280,596,6256
1644187516.611732,-0.008118,0.01001,-0.991821,0.113985,0.417099,-0.054656,46,262,594,6192
1644187516.660161,-0.008728,0.011597,-0.990295,0.205588,0.478168,-0.161527,48,274,573,6256
1644187516.708562,-0.007751,0.012329,-0.987915,0.46513,0.386565,-0.024122,58,281,585,6224
1644187516.756916,-0.007324,0.011047,-0.993652,0.205588,0.554504,-0.054656,36,271,585,6224
1644187516.805574,-0.008545,0.012207,-0.991089,0.144519,0.447634,-0.176794,57,280,577,6224
1644187516.855564,-0.009033,0.011597,-0.990723,0.327725,0.325496,-0.039389,51,274,585,6256
1644187516.905834,-0.008362,0.010132,-0.991272,0.281924,0.340763,-0.039389,60,279,578,6160
1644187516.956196,-0.008972,0.01001,-0.989685,0.251389,0.447634,-0.054656,47,277,589,6224
1644187517.000491,-0.005798,0.008545,-0.991638,0.236122,0.386565,-0.176794,43,276,590,6176
1644187517.098412,-0.007019,0.007446,-0.991943,0.251389,0.417099,-0.039389,43,281,578,6224
1644187517.144095,-0.008484,0.010071,-0.991272,0.129252,0.371298,0.006412,46,271,580,6192
1644187517.192486,-0.008911,0.011597,-0.99115,0.297191,0.432366,-0.100458,49,282,589,6240
1644187517.240833,-0.005737,0.009338,-0.994751,0.236122,0.371298,-0.069924,54,280,589,6240
1644187517.289256,-0.009766,0.010132,-0.991211,0.404061,0.417099,0.006412,45,275,582,6176
1644187517.337659,-0.004028,0.011353,-0.992065,0.190321,0.371298,0.082748,51,281,576,6240
1644187517.386059,-0.009399,0.008545,-0.989502,0.159786,0.523969,-0.085191,49,275,586,6224
1644187517.434452,-0.008911,0.009949,-0.992432,0.236122,0.279695,-0.100458,42,280,586,6224
1644187517.482852,-0.005432,0.009216,-0.992615,0.388794,0.554504,-0.237863,47,275,591,6240
1644187517.531234,-0.010498,0.012329,-0.992371,0.159786,0.462901,-0.130992,49,282,584,6256
1644187517.579633,-0.007446,0.008545,-0.991211,0.205588,0.508702,-0.207328,45,282,591,6256
1644187517.628369,-0.008606,0.011047,-0.990845,0.144519,0.356031,-0.008855,51,281,573,6256
1644187517.678597,-0.010742,0.011047,-0.992126,0.175053,0.432366,-0.207328,54,277,589,6192
1644187517.728682,-0.006897,0.010986,-0.989563,0.281924,0.356031,-0.115725,47,275,579,6288
1644187517.773803,-0.009399,0.009644,-0.993408,0.297191,0.569771,-0.115725,51,274,578,6240
1644187517.870002,-0.01001,0.010925,-0.991943,0.08345,0.447634,-0.069924,57,280,577,6256
1644187517.918382,-0.010193,0.011108,-0.989929,0.297191,0.264427,-0.085191,57,277,579,6192
1644187517.96681,-0.008118,0.01062,-0.99115,0.419328,0.340763,-0.054656,49,270,586,6224
1644187518.015275,-0.006714,0.007446,-0.993286,0.175053,0.508702,-0.069924,43,281,592,6240
1644187518.066328,-0.008728,0.011536,-0.992737,0.129252,0.432366,-0.054656,51,271,585,6240
1644187518.111965,-0.007141,0.010681,-0.99231,0.373527,0.356031,-0.192061,42,275,584,6224
1644187518.160316,-0.005798,0.010742,-0.989258,0.251389,0.462901,-0.176794,43,274,578,6240
1644187518.208746,-0.006104,0.011414,-0.990601,0.144519,0.569771,-0.115725,53,274,578,6288
1644187518.257139,-0.006714,0.013916,-0.989685,0.144519,0.371298,-0.207328,42,275,586,6176
1644187518.305524,-0.006592,0.012024,-0.989624,0.312458,0.386565,-0.054656,52,265,582,6240
1644187518.35391,-0.008728,0.011597,-0.988464,0.251389,0.447634,-0.14626,46,281,578,6224
1644187518.402327,-0.006775,0.00769,-0.993469,0.251389,0.310229,0.021679,40,282,591,6224
1644187518.450698,-0.008118,0.010132,-0.98999,0.190321,0.417099,-0.054656,66,268,582,6240
1644187518.499057,-0.007935,0.010986,-0.991333,0.342992,0.493435,-0.207328,57,275,589,6176
1644187518.547471,-0.010132,0.011597,-0.986755,0.190321,0.401832,0.021679,42,268,589,6192
1644187518.595877,-0.007812,0.00885,-0.990784,0.113985,0.432366,-0.008855,61,280,586,6224
1644187518.644274,-0.008484,0.012512,-0.988831,0.312458,0.356031,0.036947,61,273,586,6240
1644187518.692682,-0.008118,0.011536,-0.99176,0.159786,0.340763,-0.069924,47,268,586,6240
1644187518.741065,-0.010071,0.010803,-0.993225,0.266656,0.508702,-0.14626,45,277,579,6224
1644187518.789722,-0.007874,0.010742,-0.990967,0.220855,0.386565,-0.192061,45,277,596,6256
1644187518.840387,-0.007507,0.012451,-0.991882,0.220855,0.310229,0.021679,45,273,584,6240
1644187518.891363,-0.009888,0.011536,-0.988831,0.205588,0.279695,-0.314198,47,273,586,6192
1644187518.936103,-0.006165,0.007263,-0.991333,0.205588,0.539237,0.098015,47,273,577,6240
1644187519.031456,-0.007507,0.010437,-0.990051,0.373527,0.386565,-0.161527,57,285,575,6176
1644187519.083304,-0.006714,0.00885,-0.99231,0.190321,0.279695,-0.161527,42,263,591,6240
1644187519.128199,-0.007568,0.01123,-0.989624,0.251389,0.294962,-0.115725,49,270,577,6240
1644187519.176593,-0.006836,0.009155,-0.989624,0.236122,0.447634,0.036947,46,276,587,6192
1644187519.225015,-0.008057,0.012146,-0.992798,0.129252,0.462901,-0.115725,46,279,585,6240
1644187519.273352,-0.008911,0.009888,-0.989807,0.388794,0.508702,0.036947,55,281,585,6240
1644187519.321777,-0.011047,0.010864,-0.989746,0.098718,0.493435,-0.161527,53,279,580,6224
1644187519.370173,-0.008484,0.010498,-0.989563,0.236122,0.478168,-0.039389,45,277,586,6224
1644187519.418567,-0.009644,0.011902,-0.989807,0.144519,0.401832,0.021679,57,280,589,6224
1644187519.466956,-0.008301,0.010254,-0.99176,0.129252,0.294962,-0.344733,45,275,589,6224
1644187519.515359,-0.008118,0.008057,-0.990234,0.220855,0.279695,-0.115725,46,281,592,6288
1644187519.563761,-0.006348,0.011414,-0.988831,0.251389,0.310229,-0.161527,58,281,585,6128
1644187519.612224,-0.009338,0.010254,-0.99231,0.251389,0.371298,-0.024122,47,290,586,6192
1644187519.660521,-0.00885,0.011841,-0.991455,0.144519,0.646107,-0.039389,51,279,597,6240
1644187519.708908,-0.010925,0.01001,-0.991272,0.08345,0.401832,-0.069924,60,269,580,6160
1644187519.757263,-0.010803,0.009155,-0.990112,0.312458,0.493435,-0.100458,49,282,570,6176
1644187519.805702,-0.005981,0.010315,-0.992798,0.327725,0.386565,-0.115725,49,275,579,6192
1644187519.85474,-0.00708,0.010254,-0.990967,0.205588,0.417099,-0.130992,54,277,582,6288
1644187519.904761,-0.006897,0.011108,-0.992188,0.175053,0.478168,0.006412,42,277,584,6336
1644187519.957208,-0.007507,0.011658,-0.992126,0.266656,0.233893,-0.237863,48,283,585,6240
1644187519.99933,-0.006165,0.012024,-0.987671,0.251389,0.264427,0.052214,47,277,586,6288
1644187520.096467,-0.010803,0.00885,-0.99054,0.190321,0.294962,-0.039389,54,270,579,6256
1644187520.144508,-0.008301,0.01416,-0.988892,0.281924,0.447634,-0.176794,45,270,579,6224
1644187520.192843,-0.007935,0.010376,-0.987976,0.266656,0.554504,-0.054656,43,276,580,6176
1644187520.241201,-0.007996,0.010803,-0.989319,0.373527,0.401832,-0.039389,45,282,582,6176
1644187520.289637,-0.011353,0.009216,-0.99292,0.144519,0.462901,-0.039389,52,287,584,6176
1644187520.338013,-0.00769,0.009338,-0.992859,0.342992,0.523969,-0.024122,47,275,589,6256
1644187520.386379,-0.008362,0.008423,-0.993652,0.342992,0.478168,-0.176794,52,268,584,6224
1644187520.434817,-0.00769,0.011475,-0.990723,0.113985,0.554504,-0.069924,57,273,591,6224
1644187520.483952,-0.006775,0.011353,-0.989746,0.312458,0.371298,-0.176794,52,277,572,6256
1644187520.532508,-0.009583,0.010254,-0.990723,0.144519,0.493435,0.021679,41,276,585,6288
1644187520.583045,-0.008667,0.006348,-0.99176,0.159786,0.554504,-0.039389,49,270,586,6224
1644187520.633305,-0.009155,0.010498,-0.991699,0.312458,0.340763,-0.024122,52,277,582,6176
1644187520.72539,-0.00769,0.009644,-0.990051,0.190321,0.264427,0.006412,43,276,583,6240
1644187520.773583,-0.007263,0.010559,-0.991211,0.098718,0.493435,-0.161527,53,269,571,6240
1644187520.821944,-0.007507,0.010376,-0.990356,0.144519,0.310229,0.052214,40,285,579,6304
1644187520.87037,-0.006165,0.01178,-0.991455,0.220855,0.508702,-0.207328,51,269,580,6192
1644187520.918779,-0.010315,0.012085,-0.99115,0.281924,0.356031,-0.14626,39,281,580,6256
1644187520.967139,-0.009888,0.011108,-0.990662,0.327725,0.371298,0.036947,47,275,579,6192
1644187521.015533,-0.008301,0.009338,-0.990356,0.251389,0.478168,-0.024122,51,281,578,6224
1644187521.066284,-0.006409,0.010071,-0.989685,0.266656,0.386565,0.006412,52,280,584,6224
1644187521.112353,-0.00647,0.010132,-0.989502,0.251389,0.493435,-0.085191,58,269,580,6224
1644187521.160734,-0.00647,0.012207,-0.991821,0.251389,0.508702,-0.176794,60,281,585,6256
1644187521.209101,-0.010986,0.011658,-0.993225,0.022382,0.325496,-0.207328,52,277,577,6256
1644187521.257495,-0.004883,0.012146,-0.992798,0.068183,0.493435,-0.054656,43,271,585,6176
1644187521.305862,-0.007629,0.011475,-0.992676,0.327725,0.508702,-0.039389,43,279,592,6224
1644187521.354284,-0.004456,0.009338,-0.991211,0.419328,0.554504,-0.161527,45,275,577,6240
1644187521.402692,-0.009033,0.011536,-0.990723,0.342992,0.447634,-0.115725,43,274,590,6240
1644187521.451065,-0.010071,0.010437,-0.98584,0.205588,0.523969,-0.161527,60,281,580,6192
1644187521.499434,-0.008667,0.009827,-0.991638,0.297191,0.310229,-0.085191,53,276,587,6240
1644187521.547848,-0.006653,0.011963,-0.991516,0.266656,0.310229,-0.14626,48,276,590,6192
1644187521.596244,-0.008789,0.00946,-0.98938,0.342992,0.340763,-0.100458,47,275,582,6224
1644187521.64545,-0.008911,0.009094,-0.98999,0.251389,0.371298,-0.100458,49,268,577,6256
1644187521.696311,-0.008301,0.00946,-0.990662,0.236122,0.447634,-0.130992,65,274,583,6240
1644187521.74616,-0.007141,0.009705,-0.990784,0.220855,0.294962,-0.115725,40,275,582,6160
1644187521.791025,-0.008606,0.007751,-0.992065,0.129252,0.478168,-0.085191,49,277,584,6240
1644187521.886587,-0.006714,0.007629,-0.989868,0.175053,0.432366,-0.14626,49,275,575,6240
1644187521.935304,-0.01001,0.010864,-0.99054,0.098718,0.325496,-0.100458,51,279,583,6224
1644187521.983439,-0.012451,0.00885,-0.991394,0.236122,0.279695,-0.054656,48,276,576,6224
1644187522.031818,-0.008179,0.008423,-0.98938,0.220855,0.356031,-0.176794,41,281,587,6240
1644187522.080388,-0.005188,0.010742,-0.990967,0.35826,0.386565,-0.207328,40,273,593,6192
1644187522.128599,-0.009583,0.009583,-0.992126,-0.008153,0.417099,-0.069924,42,268,577,6224
1644187522.176942,-0.007263,0.010498,-0.995422,0.236122,0.401832,0.036947,46,281,583,6224
1644187522.225339,-0.006714,0.014709,-0.990173,0.144519,0.325496,-0.192061,54,275,582,6224
1644187522.273728,-0.007812,0.013123,-0.990723,0.159786,0.569771,0.052214,54,275,575,6256
1644187522.32218,-0.009033,0.009521,-0.993774,0.220855,0.386565,-0.024122,49,275,575,6192
1644187522.370535,-0.007751,0.010254,-0.989685,0.220855,0.310229,-0.176794,49,277,579,6240
1644187522.418902,-0.00708,0.012085,-0.990356,0.175053,0.340763,-0.054656,45,280,570,6176
1644187522.467319,-0.008057,0.009155,-0.991089,0.281924,0.401832,-0.115725,53,274,583,6176
1644187522.515712,-0.009766,0.008484,-0.991821,0.327725,0.401832,-0.008855,47,268,586,6240
1644187522.564113,-0.006348,0.011353,-0.99292,0.236122,0.493435,0.098015,48,274,587,6256
1644187522.612509,-0.005676,0.011658,-0.990295,0.190321,0.417099,-0.192061,51,279,580,6192
1644187522.660882,-0.009338,0.009766,-0.991943,0.281924,0.493435,-0.054656,48,279,583,6256
1644187522.709274,-0.006958,0.006653,-0.990723,0.236122,0.462901,-0.024122,47,275,591,6176
1644187522.757673,-0.007751,0.008301,-0.99115,0.068183,0.447634,-0.176794,52,273,584,6224
1644187522.807188,-0.010254,0.00769,-0.992615,0.236122,0.356031,-0.008855,45,277,584,6256
1644187522.857842,-0.009827,0.007996,-0.989258,0.266656,0.432366,-0.192061,51,283,576,6160
1644187522.908139,-0.00708,0.011658,-0.992676,0.08345,0.646107,0.021679,42,282,593,6160
1644187522.95255,-0.008789,0.010925,-0.991455,0.159786,0.386565,-0.069924,51,281,580,6192
1644187523.065281,-0.010864,0.010925,-0.992249,0.220855,0.401832,0.052214,40,277,582,6176
1644187523.100178,-0.005432,0.008179,-0.989563,0.342992,0.310229,-0.008855,52,268,591,6224
1644187523.144847,-0.01062,0.010803,-0.992981,0.281924,0.386565,-0.192061,43,274,580,6160
1644187523.193241,-0.009094,0.010681,-0.989502,0.175053,0.569771,-0.039389,47,275,586,6192
1644187523.241606,-0.008362,0.008484,-0.989197,0.297191,0.371298,0.021679,49,268,582,6224
1644187523.290004,-0.009888,0.011658,-0.992004,0.190321,0.447634,-0.130992,46,279,590,6256
1644187523.338394,-0.008484,0.010498,-0.991638,0.236122,0.371298,-0.161527,52,273,586,6224
1644187523.386794,-0.009216,0.011719,-0.993347,0.175053,0.417099,-0.130992,51,279,594,6176
1644187523.435178,-0.009033,0.009827,-0.99115,0.129252,0.554504,-0.115725,55,281,585,6192
1644187523.483572,-0.007751,0.011353,-0.990112,0.190321,0.493435,-0.237863,41,269,576,6256
1644187523.531964,-0.009705,0.01239,-0.990112,0.342992,0.462901,0.113282,36,276,587,6224
1644187523.581682,-0.006836,0.010376,-0.993103,0.205588,0.294962,-0.054656,58,269,583,6176
1644187523.632016,-0.00824,0.010559,-0.991211,0.312458,0.356031,-0.024122,55,271,576,6224
1644187523.682145,-0.011719,0.009705,-0.991882,0.281924,0.432366,-0.14626,45,260,577,6240
1644187523.773936,-0.008423,0.008545,-0.990356,0.281924,0.432366,-0.176794,47,273,586,6224
1644187523.822446,-0.006653,0.010925,-0.990234,0.297191,0.325496,-0.115725,42,280,584,6240
1644187523.870746,-0.007568,0.012268,-0.992004,0.251389,0.585038,-0.192061,48,271,573,6240
1644187523.919154,-0.00885,0.008911,-0.991211,0.220855,0.264427,-0.115725,47,263,584,6192
1644187523.967531,-0.00885,0.010864,-0.989502,0.434595,0.478168,-0.176794,58,271,580,6288
1644187524.015899,-0.010193,0.011963,-0.992432,0.312458,0.508702,-0.069924,46,279,583,6224
1644187524.06953,-0.007629,0.009949,-0.990723,0.113985,0.478168,-0.100458,45,270,584,6240
1644187524.11268,-0.00415,0.009583,-0.991638,0.236122,0.462901,-0.192061,48,276,590,6192
1644187524.161052,-0.008423,0.013794,-0.988953,0.251389,0.401832,0.113282,47,280,582,6128
1644187524.209478,-0.009644,0.01123,-0.992004,0.297191,0.432366,-0.192061,46,274,583,6160
1644187524.257867,-0.005066,0.009705,-0.991211,0.08345,0.401832,-0.085191,54,275,602,6288
1644187524.30624,-0.009277,0.009583,-0.993896,0.08345,0.401832,-0.115725,38,275,579,6224
1644187524.354713,-0.007935,0.009277,-0.991699,0.342992,0.203359,-0.054656,41,276,590,6224
1644187524.403039,-0.006104,0.010681,-0.99115,0.236122,0.371298,-0.161527,42,277,579,6224
1644187524.45143,-0.006348,0.011536,-0.98938,0.220855,0.356031,-0.207328,53,276,592,6224
1644187524.499835,-0.00885,0.010986,-0.990356,0.236122,0.462901,-0.176794,45,270,593,6224
1644187524.548207,-0.007874,0.012329,-0.990784,0.190321,0.325496,-0.115725,40,270,579,6240
1644187524.596611,-0.007019,0.009888,-0.991455,0.220855,0.462901,-0.115725,48,271,594,6176
1644187524.645044,-0.009583,0.005676,-0.990906,0.205588,0.554504,0.021679,52,273,579,6224
1644187524.693429,-0.007263,0.007507,-0.990662,0.388794,0.340763,-0.008855,47,275,586,6192
1644187524.74386,-0.008484,0.009888,-0.98938,0.190321,0.478168,-0.085191,47,275,582,6176
1644187524.793924,-0.008484,0.011597,-0.992493,0.297191,0.310229,-0.130992,53,274,587,6240
1644187524.839463,-0.006836,0.008484,-0.989685,0.281924,0.508702,-0.085191,55,264,587,6224
1644187524.935466,-0.007812,0.012085,-0.990051,0.144519,0.401832,-0.100458,48,276,578,6224
1644187524.983785,-0.007935,0.00824,-0.992798,0.35826,0.508702,0.052214,46,279,587,6288
1644187525.032463,-0.009399,0.010742,-0.990601,0.220855,0.310229,-0.008855,45,273,582,6224
1644187525.080666,-0.007812,0.010376,-0.989807,0.297191,0.523969,-0.207328,47,287,586,6224
1644187525.128949,-0.009216,0.012207,-0.990967,0.236122,0.325496,0.067481,46,269,594,6288
1644187525.177325,-0.005737,0.008911,-0.99231,0.35826,0.325496,-0.268397,42,280,577,6288
1644187525.225709,-0.005798,0.009399,-0.991638,0.190321,0.462901,-0.161527,49,273,575,6192
1644187525.274111,-0.008301,0.007874,-0.99231,0.236122,0.417099,-0.024122,46,276,571,6240
1644187525.322524,-0.009155,0.012329,-0.992859,0.312458,0.310229,-0.024122,52,290,596,6224
1644187525.370897,-0.009644,0.009766,-0.989075,0.388794,0.523969,-0.069924,43,281,580,6176
1644187525.419274,-0.010559,0.014343,-0.992798,0.175053,0.493435,-0.069924,48,279,583,6240
1644187525.467688,-0.009216,0.010742,-0.990723,0.266656,0.432366,-0.085191,43,266,571,6176
1644187525.516078,-0.008057,0.009888,-0.992798,0.144519,0.447634,-0.25313,58,279,576,6256
1644187525.564472,-0.007202,0.009094,-0.991455,0.419328,0.493435,-0.115725,49,273,584,6192
1644187525.612875,-0.007263,0.008789,-0.986328,0.220855,0.417099,-0.054656,45,280,582,6256
1644187525.661249,-0.007446,0.01123,-0.991821,0.236122,0.340763,0.052214,57,277,591,6224
1644187525.70966,-0.006775,0.011353,-0.992981,0.022382,0.478168,-0.14626,51,286,585,6256
1644187525.758044,-0.009094,0.010437,-0.992004,0.236122,0.218626,-0.100458,46,271,585,6240
1644187525.806438,-0.008484,0.00946,-0.98999,0.220855,0.478168,0.006412,51,276,564,6160
1644187525.855255,-0.006653,0.011047,-0.991089,0.342992,0.569771,-0.100458,51,271,583,6224
1644187525.906454,-0.005798,0.008484,-0.993164,0.266656,0.462901,-0.085191,42,280,577,6240
1644187525.956766,-0.006836,0.011597,-0.99176,0.220855,0.417099,-0.161527,49,270,589,6224
1644187526.00108,-0.008728,0.008789,-0.993408,0.266656,0.447634,-0.100458,53,266,580,6256
1644187526.096873,-0.010742,0.011902,-0.989014,0.236122,0.447634,-0.008855,55,276,587,6256
1644187526.14521,-0.006775,0.011719,-0.989624,0.266656,0.417099,-0.130992,45,275,582,6160
1644187526.193586,-0.012451,0.008728,-0.991577,0.373527,0.294962,-0.008855,41,276,585,6240
1644187526.241968,-0.01062,0.011475,-0.987793,0.068183,0.371298,-0.085191,36,276,590,6256
1644187526.290354,-0.007202,0.00769,-0.991577,0.205588,0.340763,0.036947,47,285,582,6256
1644187526.338752,-0.009399,0.009705,-0.991699,0.281924,0.493435,-0.024122,48,279,580,6256
1644187526.387139,-0.006775,0.011536,-0.990601,0.281924,0.493435,-0.024122,49,277,579,6224
1644187526.435535,-0.005432,0.010986,-0.990234,0.342992,0.462901,0.021679,47,275,579,6240
1644187526.48393,-0.007568,0.010193,-0.989075,0.144519,0.447634,0.067481,45,275,575,6240
1644187526.532336,-0.010071,0.012634,-0.990906,0.144519,0.554504,-0.130992,46,271,590,6240
1644187526.580702,-0.007935,0.009644,-0.989868,0.144519,0.569771,-0.192061,57,282,589,6224
1644187526.629106,-0.006104,0.012634,-0.990234,0.327725,0.493435,-0.115725,41,276,585,6240
1644187526.67751,-0.00592,0.011047,-0.990417,0.35826,0.310229,-0.207328,51,269,585,6224
1644187526.725899,-0.006409,0.010681,-0.989746,0.205588,0.371298,-0.14626,45,275,584,6224
1644187526.77429,-0.009338,0.009521,-0.99054,0.08345,0.493435,-0.039389,55,281,585,6224
1644187526.822701,-0.005554,0.009399,-0.990173,0.251389,0.386565,-0.14626,42,275,584,6240
1644187526.87112,-0.010437,0.009155,-0.991272,0.251389,0.432366,-0.115725,51,276,587,6128
1644187526.91953,-0.007446,0.009827,-0.990906,0.312458,0.417099,-0.069924,47,268,593,6224
1644187526.968344,-0.007935,0.01001,-0.990173,0.08345,0.340763,-0.161527,59,275,582,6256
1644187527.018525,-0.008728,0.010254,-0.990906,0.175053,0.478168,-0.207328,46,264,585,6224
1644187527.113089,-0.007385,0.009827,-0.990845,0.08345,0.432366,-0.085191,52,282,591,6192
1644187527.161465,-0.008057,0.010071,-0.992249,0.251389,0.432366,-0.100458,47,268,579,6240
1644187527.209836,-0.009338,0.011963,-0.994202,0.281924,0.417099,-0.115725,48,276,585,6224
1644187527.258207,-0.013184,0.01062,-0.98938,0.205588,0.600305,-0.176794,54,270,591,6192
1644187527.306617,-0.006409,0.007324,-0.989929,0.129252,0.493435,0.006412,48,274,583,6240
1644187527.355042,-0.008118,0.011108,-0.990112,0.35826,0.356031,-0.192061,42,287,575,6240
1644187527.403413,-0.009033,0.00824,-0.990906,0.175053,0.325496,-0.054656,53,276,578,6304
1644187527.451795,-0.008789,0.013123,-0.990662,0.08345,0.447634,-0.14626,54,285,584,6224
1644187527.500162,-0.010071,0.011353,-0.989746,0.144519,0.462901,-0.054656,54,275,579,6256
1644187527.548575,-0.010437,0.010437,-0.993164,0.297191,0.447634,-0.115725,53,274,587,6192
1644187527.596977,-0.005676,0.008911,-0.994263,0.144519,0.539237,-0.085191,53,281,583,6160
1644187527.645373,-0.008423,0.00824,-0.990112,0.098718,0.325496,0.052214,41,274,580,6224
1644187527.693772,-0.007629,0.011292,-0.991455,0.297191,0.432366,-0.008855,54,277,584,6256
1644187527.74223,-0.006836,0.010376,-0.99115,0.251389,0.417099,-0.207328,49,275,589,6192
1644187527.790551,-0.007202,0.00885,-0.991455,0.327725,0.508702,-0.069924,52,273,579,6256
1644187527.838919,-0.007324,0.01123,-0.990967,0.08345,0.371298,-0.085191,54,265,589,6224
1644187527.88735,-0.00946,0.009399,-0.990417,0.220855,0.554504,-0.054656,40,268,593,6128
1644187527.935762,-0.009644,0.011414,-0.993042,0.205588,0.310229,-0.192061,46,279,585,6256
1644187527.98417,-0.006104,0.013062,-0.990356,0.281924,0.401832,-0.100458,43,264,583,6176
1644187528.033876,-0.010132,0.010071,-0.991211,0.236122,0.310229,-0.100458,43,283,576,6256
1644187528.094297,-0.010864,0.008057,-0.992737,0.113985,0.340763,-0.054656,51,279,597,6160
1644187528.133223,-0.011719,0.012146,-0.990967,0.266656,0.447634,-0.14626,40,268,575,6176
1644187528.178235,-0.007263,0.01123,-0.992859,0.190321,0.447634,-0.161527,42,277,579,6256
1644187528.274488,-0.009094,0.012512,-0.989929,0.236122,0.523969,-0.176794,46,276,578,6192
1644187528.322897,-0.009949,0.006653,-0.991638,0.236122,0.386565,-0.237863,54,270,579,6224
1644187528.371231,-0.008545,0.00885,-0.991699,0.251389,0.386565,-0.100458,49,280,582,6224
1644187528.41965,-0.006226,0.010315,-0.987488,0.236122,0.294962,-0.085191,51,281,587,6256
1644187528.468036,-0.010315,0.014893,-0.989868,0.297191,0.432366,-0.222595,43,274,583,6224
1644187528.516426,-0.010315,0.009583,-0.992981,0.236122,0.371298,-0.069924,47,282,586,6224
1644187528.564834,-0.012512,0.010132,-0.991943,0.190321,0.432366,-0.115725,43,288,585,6240
1644187528.61323,-0.007874,0.009094,-0.991943,0.205588,0.340763,-0.069924,39,271,580,6240
1644187528.661622,-0.010254,0.009094,-0.991211,0.35826,0.386565,-0.085191,43,276,597,6224
1644187528.710013,-0.008301,0.007507,-0.98877,0.251389,0.569771,-0.222595,43,281,590,6224
1644187528.758411,-0.006958,0.01001,-0.993103,0.144519,0.462901,-0.161527,45,280,582,6256
1644187528.806847,-0.007202,0.010071,-0.991699,0.129252,0.432366,-0.100458,54,280,579,6256
1644187528.8553,-0.008179,0.006409,-0.992981,0.144519,0.493435,-0.192061,43,279,571,6256
1644187528.903602,-0.007507,0.01178,-0.991211,0.068183,0.554504,-0.039389,47,277,586,6192
1644187528.952012,-0.005676,0.008057,-0.991394,0.159786,0.279695,-0.008855,42,275,584,6224
1644187529.000368,-0.007996,0.007507,-0.990173,0.251389,0.462901,-0.069924,45,277,589,6192
1644187529.067044,-0.011292,0.00946,-0.991455,0.342992,0.493435,-0.008855,52,280,591,6256
1644187529.106061,-0.007507,0.009583,-0.991638,0.220855,0.508702,0.113282,46,281,592,6192
1644187529.145533,-0.009094,0.012085,-0.990845,0.251389,0.615573,-0.100458,59,275,579,6240
1644187529.195336,-0.006042,0.010559,-0.992554,0.297191,0.325496,-0.069924,51,264,590,6256
1644187529.245694,-0.008728,0.01123,-0.992615,0.373527,0.569771,0.006412,46,276,585,6176
1644187529.295816,-0.006836,0.010986,-0.993347,0.220855,0.294962,-0.176794,46,266,583,6224
1644187529.387497,-0.009277,0.012512,-0.992615,0.205588,0.310229,-0.100458,52,275,582,6240
1644187529.435882,-0.007324,0.010498,-0.990845,0.236122,0.401832,-0.039389,43,283,590,6176
1644187529.484291,-0.007202,0.012024,-0.991516,0.144519,0.493435,-0.024122,43,274,587,6240
1644187529.532707,-0.007019,0.011719,-0.994263,0.281924,0.508702,0.036947,48,269,587,6192
1644187529.581076,-0.007507,0.011169,-0.992188,0.052916,0.539237,-0.039389,49,273,565,6256
1644187529.629456,-0.006348,0.009399,-0.99054,0.312458,0.432366,-0.024122,47,275,586,6176
1644187529.677876,-0.008484,0.010498,-0.989319,0.236122,0.371298,-0.085191,43,269,569,6160
1644187529.726259,-0.007874,0.012878,-0.994385,0.190321,0.508702,-0.024122,41,259,585,6224
1644187529.77467,-0.00824,0.012024,-0.990234,0.205588,0.554504,-0.100458,49,277,586,6224
1644187529.823094,-0.008484,0.010315,-0.992004,0.266656,0.401832,-0.100458,55,271,585,6192
1644187529.871476,-0.004517,0.011108,-0.991272,0.342992,0.462901,-0.115725,48,279,580,6176
1644187529.919868,-0.006714,0.010376,-0.992798,0.220855,0.356031,-0.192061,54,280,572,6240
1644187529.968259,-0.007141,0.009827,-0.992981,0.175053,0.294962,-0.039389,51,269,592,6176
1644187530.016658,-0.008911,0.013672,-0.990662,0.220855,0.615573,-0.161527,55,271,580,6160
1644187530.089317,-0.007385,0.013306,-0.988098,0.297191,0.386565,-0.14626,52,270,589,6240
1644187530.114457,-0.008484,0.009094,-0.98877,0.175053,0.401832,-0.100458,40,280,586,6192
1644187530.21019,-0.007568,0.007935,-0.990845,0.297191,0.447634,-0.207328,42,268,575,6176
1644187530.258569,-0.010437,0.010559,-0.993835,0.297191,0.432366,-0.100458,46,266,585,6288
1644187530.306967,-0.010498,0.00824,-0.98999,0.266656,0.401832,-0.25313,51,279,583,6240
1644187530.355374,-0.007874,0.009094,-0.992065,0.312458,0.432366,-0.176794,39,271,578,6288
1644187530.403767,-0.010315,0.01123,-0.990723,0.266656,0.356031,0.021679,49,275,579,6224
1644187530.452181,-0.008667,0.007996,-0.990845,0.205588,0.493435,0.006412,46,274,583,6224
1644187530.500532,-0.006104,0.00708,-0.991089,0.190321,0.356031,-0.054656,41,269,585,6224
1644187530.54892,-0.009155,0.01123,-0.991638,0.297191,0.386565,-0.085191,49,270,582,6240
1644187530.597343,-0.008972,0.008972,-0.992432,0.205588,0.294962,-0.054656,51,281,585,6192
1644187530.645741,-0.008484,0.010193,-0.991394,0.312458,0.386565,-0.069924,60,271,587,6224
1644187530.694143,-0.008667,0.012024,-0.992432,0.205588,0.447634,0.067481,36,274,592,6240
1644187530.742539,-0.009583,0.00769,-0.988281,0.129252,0.508702,-0.069924,45,275,586,6128
1644187530.79091,-0.00946,0.01062,-0.98999,0.037649,0.462901,-0.085191,55,279,585,6160
1644187530.839368,-0.007507,0.009155,-0.989868,0.312458,0.356031,0.021679,42,282,584,6176
1644187530.887692,-0.008301,0.006165,-0.991516,0.281924,0.325496,-0.008855,46,279,576,6192
1644187530.936122,-0.011353,0.009033,-0.991211,0.297191,0.432366,-0.039389,42,277,572,6304
1644187530.98453,-0.009094,0.009766,-0.990784,0.08345,0.646107,-0.130992,55,269,583,6176
1644187531.032935,-0.006714,0.010437,-0.990967,0.175053,0.356031,-0.069924,59,277,589,6224
1644187531.085309,-0.010925,0.009827,-0.989136,0.190321,0.447634,-0.207328,53,283,587,6240
1644187531.131036,-0.006775,0.010315,-0.989197,-0.038687,0.371298,-0.130992,52,277,579,6192
1644187531.179952,-0.00946,0.009888,-0.987915,0.266656,0.417099,-0.085191,55,274,583,6160
1644187531.230216,-0.008728,0.010742,-0.991272,0.251389,0.325496,0.052214,49,275,582,6224
1644187531.275182,-0.010254,0.009827,-0.993835,0.251389,0.432366,-0.207328,48,276,587,6288
1644187531.371621,-0.01001,0.010315,-0.991272,0.220855,0.264427,-0.085191,47,275,586,6256
1644187531.420004,-0.00769,0.012085,-0.991516,0.236122,0.401832,-0.14626,54,275,579,6256
1644187531.468411,-0.008789,0.010498,-0.990967,0.08345,0.432366,-0.054656,46,279,580,6224
1644187531.516778,-0.010254,0.012573,-0.98938,0.297191,0.218626,-0.085191,59,282,593,6240
1644187531.565192,-0.009216,0.009644,-0.991089,0.205588,0.24916,-0.100458,49,273,584,6192
1644187531.6136,-0.005615,0.008118,-0.991455,0.190321,0.462901,-0.130992,41,279,583,6224
1644187531.661996,-0.006592,0.010986,-0.992188,0.251389,0.523969,-0.176794,39,279,585,6128
1644187531.710379,-0.008423,0.012695,-0.98938,0.251389,0.386565,-0.085191,45,277,577,6256
1644187531.758775,-0.011658,0.01178,-0.991394,0.159786,0.432366,-0.024122,47,275,582,6240
1644187531.807166,-0.007935,0.010559,-0.990784,0.220855,0.371298,-0.130992,43,266,587,6192
1644187531.855659,-0.006836,0.009338,-0.992859,0.266656,0.478168,-0.14626,42,275,586,6240
1644187531.904005,-0.010315,0.009766,-0.987305,0.281924,0.371298,-0.100458,47,260,584,6288
1644187531.952404,-0.010071,0.007202,-0.992981,0.251389,0.401832,-0.115725,48,271,587,6224
1644187532.000773,-0.005249,0.012573,-0.989807,0.190321,0.478168,-0.161527,57,282,579,6176
1644187532.058808,-0.0047,0.010864,-0.990967,0.159786,0.340763,-0.085191,47,277,596,6176
1644187532.100525,-0.007751,0.010315,-0.992065,0.35826,0.371298,-0.054656,54,273,589,6240
1644187532.145892,-0.005493,0.009033,-0.987366,0.266656,0.417099,-0.130992,51,264,583,6160
1644187532.194313,-0.009155,0.010437,-0.991821,0.297191,0.386565,-0.008855,53,274,580,6240
1644187532.242855,-0.010803,0.010376,-0.991028,0.236122,0.417099,-0.054656,42,277,579,6224
1644187532.291665,-0.009155,0.010559,-0.991089,0.236122,0.279695,-0.008855,41,274,590,6224
1644187532.342261,-0.005798,0.009033,-0.993408,0.266656,0.401832,-0.207328,49,270,586,6240
1644187532.392301,-0.006592,0.009277,-0.99353,0.175053,0.356031,0.006412,52,280,586,6224
1644187532.437398,-0.008911,0.010193,-0.992004,0.205588,0.462901,-0.14626,42,285,579,6192
1644187532.53307,-0.006775,0.012207,-0.993835,0.251389,0.554504,-0.100458,42,280,584,6240
1644187532.581442,-0.010803,0.011292,-0.987244,0.266656,0.356031,0.113282,49,277,586,6224
1644187532.629827,-0.008789,0.01062,-0.990479,0.205588,0.371298,-0.024122,38,277,582,6240
1644187532.678231,-0.006165,0.012085,-0.990845,0.190321,0.386565,-0.207328,49,275,591,6192
1644187532.726622,-0.008179,0.008545,-0.988831,0.251389,0.462901,-0.161527,40,265,577,6256
1644187532.775152,-0.009033,0.008606,-0.991211,0.144519,0.417099,-0.024122,47,273,579,6160
1644187532.823418,-0.008179,0.010376,-0.991699,0.251389,0.554504,-0.054656,41,266,585,6192
1644187532.871848,-0.007874,0.009155,-0.989746,0.251389,0.340763,-0.115725,54,282,584,6176
1644187532.920238,-0.008545,0.013062,-0.989868,0.266656,0.325496,-0.054656,49,282,577,6256
1644187532.968643,-0.009094,0.011963,-0.99353,0.281924,0.462901,-0.100458,42,275,575,6224
1644187533.017038,-0.008789,0.008179,-0.990601,0.312458,0.447634,0.067481,48,279,590,6240
1644187533.071648,-0.010376,0.011902,-0.992554,0.175053,0.478168,-0.008855,43,266,592,6192
1644187533.113844,-0.007324,0.010925,-0.98938,0.037649,0.371298,-0.192061,51,274,592,6224
1644187533.162241,-0.008362,0.009766,-0.989746,0.175053,0.371298,-0.176794,49,277,586,6240
1644187533.21055,-0.008057,0.009094,-0.992371,0.327725,0.478168,-0.14626,52,277,577,6240
1644187533.258944,-0.006592,0.012512,-0.990295,0.434595,0.417099,-0.100458,47,270,584,6224
1644187533.307353,-0.006836,0.010864,-0.991028,0.220855,0.294962,-0.054656,42,277,577,6224
1644187533.355742,-0.006592,0.009033,-0.990601,0.190321,0.569771,-0.115725,43,266,573,6192
1644187533.404104,-0.008484,0.009583,-0.992432,0.144519,0.447634,-0.100458,53,279,585,6288
1644187533.45293,-0.008484,0.008362,-0.992249,0.236122,0.356031,-0.268397,49,270,579,6256
1644187533.50309,-0.008179,0.009338,-0.991455,0.113985,0.386565,0.052214,43,276,583,6192
1644187533.553515,-0.007141,0.008179,-0.989807,0.205588,0.371298,0.067481,52,282,579,6240
1644187533.598628,-0.00885,0.011536,-0.992065,0.266656,0.493435,-0.130992,43,281,578,6224
1644187533.694501,-0.008057,0.010437,-0.989319,0.205588,0.478168,-0.069924,49,273,584,6224
1644187533.7429,-0.005859,0.009766,-0.992554,0.190321,0.432366,-0.024122,46,276,578,6224
1644187533.791271,-0.007507,0.010376,-0.989502,0.327725,0.310229,-0.039389,45,282,582,6224
1644187533.839653,-0.00885,0.008484,-0.993164,0.281924,0.432366,-0.024122,57,275,591,6288
1644187533.888093,-0.009033,0.009338,-0.99231,0.434595,0.340763,-0.115725,39,283,573,6256
1644187533.936496,-0.007812,0.008118,-0.990417,0.220855,0.401832,-0.054656,60,271,592,6224
1644187533.984896,-0.009583,0.011414,-0.989624,0.175053,0.24916,0.021679,42,268,577,6240
1644187534.033276,-0.007507,0.010925,-0.991455,0.190321,0.462901,-0.100458,40,277,586,6288
1644187534.08975,-0.010498,0.011169,-0.991211,0.236122,0.462901,-0.176794,53,279,585,6176
1644187534.130082,-0.007507,0.01062,-0.990051,0.373527,0.508702,-0.085191,52,280,586,6224
1644187534.178428,-0.006653,0.009521,-0.990051,0.190321,0.462901,0.113282,53,283,583,6288
1644187534.226814,-0.010925,0.010986,-0.989929,0.205588,0.478168,-0.222595,48,286,580,6240
1644187534.275208,-0.005066,0.006836,-0.992737,0.342992,0.554504,-0.207328,48,279,583,6240
1644187534.323596,-0.008118,0.007446,-0.990967,0.220855,0.478168,-0.115725,42,273,584,6192
1644187534.371985,-0.007263,0.013062,-0.992554,0.251389,0.417099,-0.115725,48,271,583,6160
1644187534.420379,-0.008972,0.00708,-0.990845,0.144519,0.371298,0.052214,53,274,590,6176
1644187534.46917,-0.01062,0.011902,-0.990173,0.266656,0.371298,-0.054656,49,275,582,6224
1644187534.519918,-0.007996,0.010498,-0.993347,0.129252,0.386565,-0.008855,43,279,580,6224
1644187534.569614,-0.006958,0.012573,-0.991272,0.312458,0.340763,-0.069924,45,268,577,6224
1644187534.614528,-0.008484,0.007568,-0.992737,0.052916,0.462901,-0.024122,52,280,582,6224
1644187534.710738,-0.009827,0.012512,-0.991943,0.312458,0.401832,0.006412,53,274,580,6240
1644187534.759121,-0.010071,0.010864,-0.991028,0.297191,0.386565,-0.069924,43,274,585,6224
1644187534.807518,-0.007202,0.007874,-0.990601,0.190321,0.340763,-0.069924,60,283,578,6160
1644187534.855909,-0.009949,0.010315,-0.992798,0.251389,0.462901,-0.14626,47,282,591,6224
1644187534.904382,-0.007202,0.007751,-0.990356,0.190321,0.447634,-0.130992,43,264,578,6256
1644187534.95276,-0.011292,0.009644,-0.992737,0.144519,0.356031,-0.130992,52,273,584,6256
1644187535.001115,-0.012939,0.007751,-0.990356,0.251389,0.294962,-0.054656,43,281,580,6192
1644187535.062213,-0.009338,0.009766,-0.990967,0.129252,0.600305,0.067481,51,271,585,6240
1644187535.098897,-0.007629,0.011108,-0.990295,0.388794,0.432366,-0.192061,47,277,586,6192
1644187535.146325,-0.00824,0.012329,-0.989258,0.205588,0.386565,0.036947,48,274,573,6224
1644187535.194747,-0.008362,0.011414,-0.991394,0.373527,0.386565,-0.100458,51,276,580,6224
1644187535.243111,-0.008362,0.01062,-0.988159,0.175053,0.554504,-0.176794,54,280,589,6224
1644187535.291488,-0.005249,0.007324,-0.99054,0.129252,0.417099,-0.130992,49,273,589,6224
1644187535.339885,-0.008362,0.00824,-0.990662,0.236122,0.432366,-0.100458,49,263,582,6224
1644187535.388269,-0.008789,0.010803,-0.98999,0.297191,0.386565,-0.085191,52,270,575,6256
1644187535.436685,-0.007568,0.011536,-0.98938,0.190321,0.493435,-0.008855,52,277,589,6224
1644187535.485458,-0.006653,0.010498,-0.990112,0.113985,0.417099,-0.039389,45,263,584,6240
1644187535.533474,-0.007812,0.012268,-0.990906,0.281924,0.462901,-0.069924,46,274,585,6240
1644187535.583617,-0.012024,0.007446,-0.991821,0.022382,0.401832,-0.085191,54,285,582,6192
1644187535.633799,-0.01001,0.009888,-0.990051,0.190321,0.417099,0.036947,47,277,586,6176
1644187535.684172,-0.008179,0.008911,-0.991638,0.08345,0.432366,0.006412,55,271,597,6224
1644187535.728724,-0.009155,0.010498,-0.989441,0.312458,0.401832,0.098015,48,276,578,6224
1644187535.823819,-0.005188,0.01123,-0.990784,0.205588,0.432366,-0.085191,40,280,568,6192
1644187535.872439,-0.0047,0.012573,-0.991821,0.190321,0.356031,-0.283664,58,274,578,6192
1644187535.920595,-0.009277,0.010315,-0.991516,0.220855,0.478168,-0.115725,43,274,580,6224
1644187535.968988,-0.007324,0.007874,-0.989441,-0.038687,0.432366,-0.039389,51,274,585,6160
1644187536.017397,-0.009155,0.011963,-0.990234,0.266656,0.432366,-0.085191,52,273,586,6256
1644187536.065836,-0.009277,0.011536,-0.988464,0.251389,0.401832,-0.115725,55,266,583,6160
1644187536.114132,-0.008484,0.010742,-0.992981,0.35826,0.585038,-0.085191,43,274,592,6256
1644187536.162552,-0.00946,0.009705,-0.98938,0.251389,0.493435,-0.161527,57,273,582,6192
1644187536.210942,-0.005798,0.008972,-0.991089,0.144519,0.523969,-0.14626,48,269,578,6256
1644187536.259323,-0.007141,0.011292,-0.992859,0.220855,0.539237,-0.085191,51,279,583,6256
1644187536.307683,-0.008911,0.007324,-0.990601,0.281924,0.401832,-0.207328,53,269,587,6224
1644187536.356099,-0.009399,0.010681,-0.990906,0.373527,0.417099,-0.176794,40,273,586,6224
1644187536.404519,-0.007507,0.012207,-0.991089,0.175053,0.356031,-0.192061,49,282,582,6224
1644187536.452903,-0.004517,0.010132,-0.993042,0.327725,0.371298,-0.085191,47,280,586,6192
1644187536.501292,-0.008606,0.009888,-0.991638,0.266656,0.386565,-0.130992,45,270,579,6256
1644187536.549682,-0.009094,0.013184,-0.992249,0.297191,0.539237,-0.115725,48,279,585,6224
1644187536.598071,-0.007812,0.007935,-0.993774,0.144519,0.417099,-0.054656,54,268,593,6240
1644187536.646465,-0.00415,0.011963,-0.992676,0.205588,0.386565,-0.161527,62,276,587,6240
1644187536.694867,-0.007385,0.00885,-0.994629,0.327725,0.493435,-0.085191,53,286,587,6240
1644187536.743263,-0.008789,0.010254,-0.992493,0.159786,0.508702,-0.207328,53,279,580,6224
1644187536.795374,-0.007324,0.010742,-0.987122,0.373527,0.356031,-0.130992,52,273,591,6240
1644187536.844852,-0.010559,0.011047,-0.991211,0.205588,0.401832,-0.100458,43,283,571,6224
1644187536.88953,-0.010132,0.011108,-0.99231,0.35826,0.356031,0.113282,43,279,578,6192
1644187536.985492,-0.008362,0.00647,-0.993164,0.281924,0.233893,-0.024122,49,277,584,6224
1644187537.033654,-0.008789,0.009155,-0.990906,0.297191,0.508702,0.021679,29,269,585,6224
1644187537.082302,-0.007141,0.011658,-0.991516,0.281924,0.478168,-0.115725,43,276,583,6224
1644187537.130371,-0.006287,0.007507,-0.993652,0.419328,0.279695,0.052214,45,282,586,6224
1644187537.178777,-0.006165,0.007019,-0.991821,0.220855,0.371298,-0.008855,54,273,586,6288
1644187537.227166,-0.008362,0.010437,-0.994385,0.251389,0.478168,-0.192061,47,280,577,6176
1644187537.27554,-0.007812,0.010742,-0.990723,0.129252,0.508702,0.098015,57,282,589,6256
1644187537.323963,-0.009216,0.010315,-0.991516,0.205588,0.478168,-0.024122,58,276,592,6176
1644187537.372378,-0.008179,0.009705,-0.990295,0.220855,0.432366,0.052214,48,279,569,6224
1644187537.420754,-0.005188,0.009644,-0.992249,0.404061,0.356031,-0.085191,49,268,584,6224
1644187537.469153,-0.007263,0.008728,-0.992126,0.236122,0.386565,0.052214,42,280,586,6304
1644187537.517542,-0.006409,0.010803,-0.993347,0.266656,0.325496,-0.069924,53,266,585,6256
1644187537.565913,-0.008179,0.010193,-0.989868,0.190321,0.325496,-0.268397,39,274,576,6240
1644187537.614315,-0.009155,0.012085,-0.988464,0.068183,0.386565,-0.222595,49,280,584,6288
1644187537.662729,-0.010071,0.009583,-0.994324,0.266656,0.356031,-0.100458,47,277,582,6224
1644187537.711102,-0.008118,0.010315,-0.992126,0.129252,0.585038,-0.14626,51,286,583,6224
1644187537.759499,-0.009949,0.009583,-0.990479,0.159786,0.493435,0.006412,43,266,585,6224
1644187537.807912,-0.009888,0.009888,-0.987183,0.129252,0.447634,0.036947,45,275,589,6224
1644187537.856575,-0.011902,0.01001,-0.991028,0.251389,0.447634,0.12855,45,275,582,6240
1644187537.906945,-0.006226,0.009399,-0.992249,0.327725,0.432366,-0.14626,60,283,573,6160
1644187537.957121,-0.010986,0.011475,-0.992798,0.312458,0.462901,0.036947,43,276,585,6224
1644187538.067633,-0.007629,0.010925,-0.991577,0.144519,0.401832,-0.054656,52,277,586,6192
1644187538.098416,-0.008301,0.00708,-0.990295,0.205588,0.386565,0.036947,49,282,589,6240
1644187538.146642,-0.00946,0.010925,-0.992615,0.236122,0.371298,-0.314198,42,287,589,6256
1644187538.195168,-0.005615,0.009277,-0.99054,0.08345,0.478168,-0.192061,54,273,584,6192
1644187538.243399,-0.008972,0.010193,-0.990906,0.205588,0.294962,-0.024122,33,277,584,6288
1644187538.29181,-0.008606,0.007263,-0.989685,0.098718,0.386565,-0.176794,45,285,593,6160
1644187538.340219,-0.006775,0.010498,-0.99408,0.35826,0.462901,-0.14626,43,276,592,6240
1644187538.388625,-0.009033,0.01001,-0.990417,0.220855,0.417099,-0.176794,46,274,587,6256
1644187538.436997,-0.006653,0.008972,-0.990967,0.205588,0.417099,-0.100458,45,277,582,6224
1644187538.485393,-0.008789,0.009216,-0.991821,0.159786,0.371298,-0.130992,43,279,587,6224
1644187538.534178,-0.007385,0.009644,-0.990295,0.342992,0.432366,-0.054656,52,265,586,6176
1644187538.584413,-0.009033,0.009888,-0.991211,0.281924,0.432366,-0.100458,42,275,584,6224
1644187538.634545,-0.009644,0.008972,-0.991089,0.144519,0.340763,0.052214,49,273,591,6256
1644187538.679698,-0.008423,0.007751,-0.991516,0.312458,0.493435,-0.161527,47,270,586,6224
1644187538.775729,-0.005005,0.009644,-0.990784,0.297191,0.386565,-0.069924,49,277,586,6240
1644187538.824183,-0.00824,0.008911,-0.991516,0.175053,0.356031,0.082748,39,281,578,6288
1644187538.872571,-0.007324,0.009216,-0.991455,0.342992,0.478168,-0.085191,47,275,577,6224
1644187538.920947,-0.007935,0.011597,-0.992126,0.190321,0.447634,-0.039389,42,287,582,6224
1644187538.96936,-0.006958,0.012817,-0.994019,0.236122,0.462901,-0.054656,49,280,579,6224
1644187539.017721,-0.008911,0.01062,-0.990173,0.404061,0.432366,-0.130992,52,282,589,6176
1644187539.068481,-0.007935,0.007385,-0.991272,0.251389,0.417099,-0.192061,54,280,582,6256
1644187539.114813,-0.007446,0.009705,-0.988831,0.205588,0.310229,-0.039389,49,273,586,6256
1644187539.16291,-0.008606,0.011292,-0.990662,0.251389,0.447634,-0.054656,55,276,583,6192
1644187539.21129,-0.008545,0.010132,-0.99176,0.236122,0.310229,0.067481,54,277,589,6256
1644187539.25968,-0.006348,0.010437,-0.992676,0.190321,0.401832,-0.161527,45,273,579,6240
1644187539.308061,-0.006958,0.009644,-0.991821,0.251389,0.478168,-0.024122,47,273,577,6240
1644187539.356468,-0.006287,0.011536,-0.991455,0.297191,0.508702,-0.176794,39,281,583,6240
1644187539.404897,-0.008301,0.008423,-0.989685,0.297191,0.294962,-0.130992,49,275,579,6256
1644187539.453271,-0.010864,0.009338,-0.992798,0.159786,0.401832,-0.100458,51,274,597,6224
1644187539.501625,-0.006775,0.010437,-0.991028,0.175053,0.417099,-0.024122,47,277,584,6256
1644187539.55004,-0.007263,0.010315,-0.991577,0.190321,0.432366,-0.130992,46,291,585,6192
1644187539.598448,-0.007202,0.00824,-0.992065,0.129252,0.417099,-0.161527,36,283,590,6240
1644187539.646821,-0.009949,0.009644,-0.993164,0.205588,0.310229,-0.222595,46,266,583,6192
1644187539.695538,-0.00647,0.010925,-0.991943,0.175053,0.432366,-0.100458,48,279,592,6224
1644187539.745226,-0.009827,0.007935,-0.989868,0.205588,0.371298,0.052214,42,273,582,6224
1644187539.795672,-0.007996,0.010864,-0.992188,0.190321,0.417099,-0.024122,55,271,585,6256
1644187539.841018,-0.008484,0.011292,-0.991516,0.113985,0.371298,-0.207328,51,274,585,6224
1644187539.937209,-0.009338,0.009766,-0.991394,0.327725,0.401832,-0.161527,60,276,585,6176
1644187539.985595,-0.007874,0.007996,-0.992432,0.327725,0.432366,-0.054656,48,281,576,6224
1644187540.033984,-0.010742,0.009094,-0.992554,0.205588,0.401832,-0.085191,41,281,594,6224
1644187540.083463,-0.010864,0.012146,-0.991455,0.220855,0.462901,-0.100458,59,277,589,6224
1644187540.13076,-0.007812,0.009827,-0.993103,0.144519,0.447634,-0.054656,51,271,585,6288
1644187540.17914,-0.00531,0.008667,-0.991516,0.175053,0.371298,-0.085191,47,282,602,6240
1644187540.227537,-0.007629,0.009583,-0.994202,0.297191,0.325496,0.021679,49,268,568,6256
1644187540.275917,-0.00885,0.010132,-0.992249,0.159786,0.554504,-0.207328,48,283,580,6256
1644187540.324342,-0.005432,0.010742,-0.991577,0.129252,0.371298,-0.039389,46,281,583,6224
1644187540.372741,-0.007996,0.009155,-0.991577,0.266656,0.462901,-0.100458,54,280,572,6240
1644187540.421126,-0.00708,0.009277,-0.991272,0.037649,0.401832,-0.069924,43,279,592,6240
1644187540.469513,-0.01062,0.010864,-0.989807,0.098718,0.356031,-0.008855,42,273,577,6240
1644187540.517903,-0.007751,0.010864,-0.991333,0.190321,0.401832,-0.14626,52,268,584,6240
1644187540.566292,-0.009888,0.007874,-0.992249,0.144519,0.401832,-0.115725,46,281,578,6224
1644187540.614699,-0.006104,0.009583,-0.99231,0.159786,0.462901,-0.085191,39,279,578,6224
1644187540.663092,-0.010193,0.008545,-0.992065,0.190321,0.233893,-0.008855,40,275,598,6224
1644187540.711468,-0.009277,0.009338,-0.99292,0.404061,0.356031,-0.115725,48,281,590,6240
1644187540.759867,-0.011841,0.011414,-0.994141,0.220855,0.401832,-0.100458,53,281,585,6192
1644187540.808264,-0.008606,0.01239,-0.989197,0.220855,0.539237,-0.039389,49,282,579,6256
1644187540.857386,-0.007629,0.00885,-0.992676,0.175053,0.447634,-0.024122,47,273,584,6224
1644187540.90787,-0.008606,0.009827,-0.991272,0.052916,0.24916,-0.176794,42,277,579,6256
1644187540.958452,-0.007629,0.010193,-0.991028,0.205588,0.554504,0.006412,51,274,580,6256
1644187541.062382,-0.008972,0.009705,-0.994324,0.35826,0.493435,-0.054656,38,282,596,6192
1644187541.100718,-0.008118,0.01123,-0.992432,0.007115,0.478168,-0.100458,51,283,597,6224
1644187541.147014,-0.007812,0.012268,-0.99231,0.159786,0.462901,0.052214,49,265,584,6176
1644187541.1954,-0.006592,0.011597,-0.991882,0.113985,0.417099,0.006412,48,276,578,6192
1644187541.243804,-0.00647,0.009949,-0.991882,0.342992,0.356031,-0.115725,42,280,582,6192
1644187541.29225,-0.009155,0.009644,-0.988342,0.404061,0.417099,-0.039389,46,276,580,6240
1644187541.340585,-0.01062,0.008911,-0.99231,0.175053,0.325496,-0.054656,49,277,582,6224
1644187541.388938,-0.005798,0.009644,-0.991699,0.144519,0.417099,-0.130992,45,280,572,6224
1644187541.437374,-0.009644,0.010803,-0.989929,0.281924,0.279695,0.052214,51,279,580,6224
1644187541.485763,-0.005371,0.011047,-0.989685,0.342992,0.386565,-0.161527,51,274,587,6224
1644187541.534154,-0.008362,0.008911,-0.990234,0.205588,0.462901,-0.085191,46,271,592,6160
1644187541.582571,-0.00946,0.009155,-0.993103,0.266656,0.432366,-0.024122,41,283,592,6256
1644187541.631265,-0.011475,0.009644,-0.99176,0.281924,0.478168,-0.054656,54,268,577,6224
1644187541.680455,-0.00946,0.011963,-0.992126,0.251389,0.279695,-0.054656,47,273,577,6240
1644187541.730793,-0.00946,0.009888,-0.99054,0.236122,0.340763,-0.176794,47,270,586,6224
1644187541.781328,-0.005859,0.010925,-0.991699,0.297191,0.417099,-0.237863,47,273,591,6160
1644187541.872951,-0.009216,0.011719,-0.99115,0.129252,0.508702,-0.008855,45,273,582,6192
1644187541.921334,-0.008972,0.006897,-0.987549,0.175053,0.264427,-0.237863,36,286,580,6256
1644187541.969703,-0.009888,0.012207,-0.991638,0.205588,0.432366,-0.100458,51,274,585,6224
1644187542.018092,-0.005981,0.008972,-0.991882,0.236122,0.569771,0.006412,46,281,580,6176
1644187542.066572,-0.008301,0.01123,-0.988586,0.266656,0.294962,-0.14626,47,270,593,6256
1644187542.114939,-0.009277,0.009521,-0.991028,0.312458,0.447634,-0.192061,47,275,586,6224
1644187542.163285,-0.007568,0.010559,-0.990967,0.190321,0.478168,-0.161527,42,273,572,6192
1644187542.211699,-0.008545,0.009033,-0.993774,0.251389,0.325496,-0.268397,55,271,587,6192
1644187542.260059,-0.008423,0.011414,-0.993591,0.297191,0.401832,-0.130992,53,271,578,6128
1644187542.308458,-0.008911,0.011841,-0.991333,0.281924,0.478168,-0.176794,55,291,573,6256
1644187542.356866,-0.007996,0.01123,-0.990845,0.113985,0.478168,-0.222595,41,286,590,6192
1644187542.405344,-0.009277,0.010254,-0.993164,0.404061,0.432366,0.021679,53,264,587,6304
1644187542.453675,-0.007324,0.007568,-0.991089,0.175053,0.401832,-0.069924,45,290,589,6256
1644187542.502057,-0.010742,0.010376,-0.992188,0.129252,0.493435,-0.176794,43,276,590,6240
1644187542.550453,-0.009766,0.012695,-0.991333,0.281924,0.523969,-0.069924,53,274,583,6240
1644187542.598802,-0.011169,0.012024,-0.991821,0.144519,0.401832,-0.069924,43,283,583,6112
1644187542.647219,-0.007935,0.008545,-0.992126,0.281924,0.356031,0.036947,40,282,589,6192
1644187542.695845,-0.007263,0.009827,-0.991394,0.342992,0.478168,-0.039389,39,286,583,6256
1644187542.744402,-0.007202,0.011719,-0.993042,0.251389,0.325496,0.052214,42,277,589,6192
1644187542.794564,-0.007019,0.010559,-0.991516,0.281924,0.493435,-0.268397,48,281,587,6176
1644187542.844776,-0.006226,0.011902,-0.988831,0.129252,0.325496,-0.100458,51,274,585,6240
1644187542.895056,-0.008789,0.014343,-0.991028,0.236122,0.493435,-0.069924,46,279,587,6256
1644187542.986002,-0.007141,0.009399,-0.990173,0.113985,0.386565,-0.14626,55,271,576,6176
1644187543.034407,-0.009705,0.006287,-0.991272,0.205588,0.340763,-0.130992,45,270,586,6240
1644187543.082834,-0.007629,0.008972,-0.991394,0.08345,0.356031,-0.085191,42,292,586,6224
1644187543.131125,-0.006775,0.010071,-0.990662,0.190321,0.340763,0.006412,49,285,582,6192
1644187543.179513,-0.006592,0.009216,-0.993896,0.175053,0.386565,-0.130992,43,276,585,6224
1644187543.227921,-0.01001,0.013977,-0.991211,0.190321,0.523969,-0.008855,51,269,583,6192
1644187543.276274,-0.00769,0.009399,-0.991028,0.419328,0.417099,-0.176794,48,274,585,6224
1644187543.324683,-0.008911,0.007874,-0.99231,0.236122,0.447634,-0.161527,43,274,594,6176
1644187543.373101,-0.008057,0.011719,-0.991943,0.037649,0.462901,-0.298931,48,269,580,6176
1644187543.421488,-0.009338,0.008484,-0.992188,0.236122,0.279695,-0.207328,58,276,578,6192
1644187543.469884,-0.011414,0.009644,-0.99292,0.236122,0.432366,-0.039389,54,277,584,6256
1644187543.518275,-0.006042,0.010681,-0.991638,0.129252,0.539237,-0.222595,47,275,584,6192
1644187543.566651,-0.00415,0.010864,-0.990662,0.281924,0.203359,-0.176794,51,264,597,6240
1644187543.615169,-0.007874,0.009216,-0.989868,0.205588,0.264427,-0.069924,45,273,582,6288
1644187543.663437,-0.008057,0.007812,-0.991882,0.113985,0.478168,-0.237863,58,279,580,6192
1644187543.711838,-0.007019,0.011047,-0.989685,0.236122,0.462901,-0.085191,55,274,590,6240
1644187543.760283,-0.008606,0.010315,-0.991882,0.312458,0.462901,-0.207328,46,281,597,6256
1644187543.80867,-0.008179,0.010376,-0.989075,0.220855,0.447634,-0.192061,53,279,587,6160
1644187543.857065,-0.010376,0.010437,-0.991455,0.052916,0.447634,-0.115725,52,273,582,6160
1644187543.90662,-0.007935,0.011841,-0.991455,0.297191,0.386565,-0.100458,57,275,582,6176
1644187543.956706,-0.006958,0.011108,-0.991699,0.205588,0.356031,-0.008855,49,273,584,6224
1644187544.063891,-0.005737,0.011475,-0.991272,0.205588,0.417099,-0.039389,48,276,590,6192
1644187544.099882,-0.008667,0.008057,-0.991455,0.297191,0.432366,-0.207328,54,270,589,6224
1644187544.147361,-0.006958,0.007751,-0.991028,0.236122,0.478168,0.021679,53,271,585,6176
1644187544.195747,-0.009094,0.011414,-0.992126,0.449863,0.356031,-0.207328,53,271,590,6224
1644187544.244171,-0.010315,0.012329,-0.993225,0.312458,0.417099,-0.054656,51,276,576,6240
1644187544.292559,-0.007935,0.009277,-0.990967,0.266656,0.478168,-0.130992,57,285,586,6224
1644187544.340958,-0.00415,0.011658,-0.991943,0.190321,0.478168,-0.054656,46,276,590,6288
1644187544.389346,-0.008423,0.00824,-0.99115,0.159786,0.356031,-0.130992,43,271,587,6192
1644187544.437743,-0.006592,0.010803,-0.990295,0.312458,0.417099,-0.115725,55,269,587,6160
1644187544.486129,-0.009338,0.00824,-0.989685,0.144519,0.340763,0.006412,42,268,579,6240
1644187544.534498,-0.009033,0.009888,-0.992737,0.098718,0.386565,-0.115725,45,273,582,6176
1644187544.582919,-0.00824,0.009155,-0.992371,0.175053,0.157557,0.036947,42,273,593,6240
1644187544.631325,-0.007568,0.01001,-0.99054,0.098718,0.325496,-0.085191,49,275,577,6224
1644187544.68126,-0.007507,0.008362,-0.991089,0.144519,0.340763,-0.069924,46,274,585,6224
1644187544.731594,-0.007996,0.011597,-0.990051,0.251389,0.432366,-0.024122,47,285,575,6304
1644187544.77652,-0.006653,0.009766,-0.991455,0.312458,0.462901,-0.100458,47,270,579,6224
1644187544.873343,-0.00708,0.01062,-0.987915,0.205588,0.371298,-0.085191,58,269,576,6256
1644187544.921685,-0.009766,0.010986,-0.992371,0.373527,0.447634,-0.085191,60,269,585,6256
1644187544.970087,-0.008789,0.006775,-0.989624,0.113985,0.401832,-0.069924,47,280,582,6240
1644187545.018447,-0.006958,0.011047,-0.989136,0.220855,0.493435,-0.100458,51,274,576,6160
1644187545.066954,-0.00769,0.009644,-0.992432,0.129252,0.432366,-0.14626,58,276,587,6224
1644187545.115482,-0.010376,0.010681,-0.990906,0.08345,0.386565,-0.069924,47,275,579,6192
1644187545.163618,-0.00885,0.010071,-0.990906,0.312458,0.539237,-0.069924,47,275,586,6224
1644187545.212019,-0.007568,0.013,-0.989746,0.159786,0.401832,-0.054656,48,274,583,6160
1644187545.260421,-0.0047,0.011047,-0.98938,0.419328,0.462901,-0.14626,49,280,589,6288
1644187545.308792,-0.010925,0.009399,-0.989929,0.08345,0.310229,0.036947,49,285,575,6160
1644187545.357207,-0.006897,0.010498,-0.991821,0.175053,0.279695,-0.100458,43,271,583,6256
1644187545.405596,-0.007568,0.010803,-0.990234,0.281924,0.279695,-0.024122,48,286,590,6224
1644187545.454003,-0.006714,0.014404,-0.991821,0.220855,0.356031,0.067481,58,271,583,6256
1644187545.502399,-0.010559,0.007751,-0.992432,0.175053,0.294962,-0.085191,51,281,583,6256
1644187545.550779,-0.006836,0.007141,-0.991516,0.419328,0.478168,-0.024122,55,271,587,6240
1644187545.59917,-0.009277,0.00885,-0.992249,0.312458,0.417099,-0.14626,58,269,578,6304
1644187545.647561,-0.00946,0.010132,-0.990906,0.129252,0.447634,-0.115725,47,282,579,6224
1644187545.695952,-0.008545,0.011169,-0.989868,0.205588,0.432366,0.021679,53,279,585,6256
1644187545.744343,-0.007629,0.014465,-0.988953,0.251389,0.310229,-0.14626,38,265,582,6256
1644187545.792768,-0.008728,0.01062,-0.992065,0.236122,0.523969,-0.024122,43,262,578,6192
1644187545.844714,-0.010986,0.013916,-0.991211,0.159786,0.401832,-0.14626,42,270,591,6256
1644187545.894503,-0.010498,0.010315,-0.994202,0.205588,0.401832,-0.14626,53,271,578,6240
1644187545.939275,-0.010315,0.009644,-0.991333,0.129252,0.432366,-0.085191,52,277,579,6240
1644187546.034903,-0.00885,0.010803,-0.989319,0.236122,0.417099,-0.100458,49,280,586,6160
1644187546.08366,-0.010071,0.01123,-0.991577,0.007115,0.462901,-0.069924,40,277,591,6256
1644187546.131519,-0.009216,0.009766,-0.991516,0.281924,0.478168,-0.14626,52,273,589,6240
1644187546.179872,-0.006836,0.005798,-0.99115,0.312458,0.493435,-0.115725,46,281,585,6224
1644187546.228267,-0.008057,0.01001,-0.991455,0.236122,0.310229,-0.069924,34,286,585,6288
1644187546.276663,-0.006897,0.011658,-0.991211,0.159786,0.478168,-0.115725,40,265,579,6224
1644187546.325105,-0.009277,0.009644,-0.991028,0.251389,0.432366,-0.207328,52,275,579,6256
1644187546.373463,-0.008545,0.010986,-0.992493,0.190321,0.508702,0.113282,49,277,589,6192
1644187546.421826,-0.004578,0.009338,-0.993774,0.297191,0.371298,-0.024122,49,270,586,6240
1644187546.470244,-0.00824,0.006531,-0.99115,0.190321,0.478168,-0.054656,53,288,580,6288
1644187546.518624,-0.008423,0.008667,-0.992493,0.205588,0.371298,-0.039389,47,280,577,6240
1644187546.567019,-0.006531,0.007019,-0.990906,0.190321,0.508702,-0.024122,36,281,580,6128
1644187546.615431,-0.007507,0.007385,-0.992065,0.342992,0.462901,-0.192061,41,259,590,6224
1644187546.663828,-0.009827,0.010498,-0.993408,0.144519,0.279695,-0.161527,55,279,583,6288
1644187546.712244,-0.005981,0.007935,-0.994446,0.327725,0.356031,-0.054656,39,269,587,6256
1644187546.760575,-0.007629,0.009949,-0.991455,0.022382,0.417099,-0.14626,47,277,575,6240
1644187546.808993,-0.008789,0.009644,-0.990784,0.236122,0.371298,-0.069924,53,274,583,6288
1644187546.857499,-0.007874,0.009338,-0.993774,0.251389,0.279695,-0.115725,51,264,587,6240
1644187546.905828,-0.007874,0.009949,-0.99054,0.266656,0.356031,-0.039389,49,282,586,6240
1644187546.955706,-0.009033,0.009644,-0.991577,0.205588,0.371298,-0.161527,42,280,584,6224
1644187547.005887,-0.006775,0.010742,-0.990967,0.342992,0.508702,-0.069924,55,286,576,6224
1644187547.085382,-0.008301,0.009094,-0.991394,0.281924,0.523969,-0.008855,49,280,577,6224
1644187547.147774,-0.004761,0.009949,-0.993042,0.129252,0.432366,-0.14626,54,280,577,6128
1644187547.19611,-0.004517,0.011414,-0.989624,0.266656,0.523969,-0.222595,48,274,590,6176
1644187547.244542,-0.007874,0.01001,-0.992615,0.251389,0.371298,-0.222595,57,277,584,6224
1644187547.292906,-0.008179,0.010254,-0.99115,0.175053,0.386565,-0.161527,36,279,590,6224
1644187547.341342,-0.00885,0.009766,-0.991821,0.037649,0.447634,0.006412,47,282,584,6240
1644187547.3897,-0.00531,0.010071,-0.989807,0.205588,0.432366,0.021679,49,277,582,6224
1644187547.438089,-0.007874,0.009583,-0.992798,0.159786,0.279695,-0.008855,53,271,578,6224
1644187547.486476,-0.006165,0.009888,-0.993286,0.190321,0.386565,-0.054656,59,277,577,6224
1644187547.534884,-0.008423,0.010437,-0.993774,0.220855,0.401832,-0.085191,58,269,576,6224
1644187547.583289,-0.008789,0.011597,-0.989868,0.220855,0.432366,-0.115725,58,288,580,6224
1644187547.631667,-0.007629,0.008606,-0.990295,0.190321,0.478168,-0.069924,46,279,573,6240
1644187547.680055,-0.00885,0.009338,-0.991211,0.297191,0.356031,-0.069924,43,276,583,6224
1644187547.728451,-0.007996,0.011169,-0.994019,0.251389,0.340763,-0.008855,53,279,585,6128
1644187547.776829,-0.006958,0.011536,-0.99115,0.08345,0.401832,-0.115725,48,279,578,6352
1644187547.82524,-0.008301,0.009888,-0.991211,0.144519,0.462901,-0.115725,55,276,590,6224
1644187547.873692,-0.009644,0.010315,-0.990417,0.190321,0.493435,-0.085191,51,274,580,6128
1644187547.922035,-0.006653,0.011047,-0.99231,0.175053,0.310229,-0.222595,47,277,582,6256
1644187547.970448,-0.006653,0.008911,-0.991638,0.281924,0.233893,-0.085191,49,282,589,6192
1644187548.019189,-0.008545,0.010071,-0.992004,0.190321,0.585038,-0.222595,54,280,591,6192
1644187548.079595,-0.006836,0.009094,-0.989685,0.281924,0.447634,-0.207328,43,281,590,6176
1644187548.120145,-0.006653,0.007385,-0.990967,0.373527,0.462901,-0.207328,47,277,591,6224
1644187548.164088,-0.006897,0.007751,-0.994141,0.297191,0.447634,0.052214,40,265,582,6256
1644187548.260777,-0.00592,0.007385,-0.991821,0.281924,0.325496,-0.14626,47,282,584,6192
1644187548.309172,-0.008362,0.011292,-0.98938,0.297191,0.462901,-0.085191,49,273,568,6224
1644187548.357573,-0.008545,0.009888,-0.989746,0.205588,0.279695,-0.054656,54,268,589,6224
1644187548.405954,-0.007385,0.00946,-0.99115,0.266656,0.478168,-0.069924,48,274,587,6240
1644187548.454347,-0.00769,0.009399,-0.989685,0.251389,0.523969,-0.069924,46,274,583,6240
1644187548.502726,-0.004517,0.011719,-0.993591,0.220855,0.310229,-0.130992,49,275,591,6224
1644187548.551133,-0.009399,0.010132,-0.992859,0.297191,0.417099,-0.069924,52,268,584,6240
1644187548.599538,-0.005676,0.009827,-0.988831,0.205588,0.386565,-0.085191,54,285,586,6176
1644187548.647924,-0.004822,0.008789,-0.991089,0.175053,0.478168,-0.207328,48,266,583,6256
1644187548.696322,-0.007751,0.010193,-0.991394,0.220855,0.417099,-0.054656,53,269,587,6256
1644187548.744712,-0.006958,0.009827,-0.990906,0.297191,0.386565,0.067481,47,270,589,6224
1644187548.793122,-0.008606,0.008667,-0.991821,0.159786,0.478168,-0.161527,51,269,583,6224
1644187548.841494,-0.006042,0.008972,-0.990295,0.08345,0.447634,-0.024122,52,268,577,6256
1644187548.889936,-0.011047,0.007935,-0.989014,0.281924,0.401832,-0.085191,54,273,586,6224
1644187548.938317,-0.00885,0.011841,-0.990417,0.266656,0.24916,-0.100458,48,281,585,6240
1644187548.986707,-0.007019,0.012146,-0.992249,0.175053,0.478168,-0.115725,47,282,591,6304
1644187549.035149,-0.011292,0.011292,-0.993713,0.266656,0.279695,-0.054656,51,279,573,6192
1644187549.091888,-0.01001,0.009155,-0.988464,0.312458,0.279695,-0.024122,54,275,586,6256
1644187549.133518,-0.007568,0.01178,-0.991211,0.266656,0.523969,-0.222595,51,274,587,6192
1644187549.183703,-0.00708,0.013367,-0.992737,0.236122,0.432366,-0.008855,52,277,589,6256
1644187549.23503,-0.008789,0.011902,-0.991089,0.236122,0.371298,-0.008855,53,281,597,6256
1644187549.278926,-0.00824,0.010376,-0.990845,0.144519,0.523969,-0.192061,39,279,587,6224
1644187549.373846,-0.00885,0.010437,-0.991272,0.113985,0.340763,-0.115725,46,274,580,6192
1644187549.42243,-0.008728,0.008484,-0.988708,0.190321,0.508702,-0.085191,57,277,575,6224
1644187549.47064,-0.008484,0.012268,-0.990601,0.220855,0.432366,-0.14626,53,269,580,6224
1644187549.519045,-0.009155,0.007751,-0.992493,0.113985,0.462901,-0.130992,53,281,576,6256
1644187549.567435,-0.007385,0.011169,-0.992615,0.419328,0.462901,-0.100458,55,279,587,6176
1644187549.615821,-0.011169,0.00946,-0.993652,0.236122,0.554504,-0.100458,51,276,580,6240
1644187549.664232,-0.007385,0.011658,-0.990845,0.281924,0.478168,-0.222595,47,275,577,6256
1644187549.712624,-0.007446,0.007568,-0.99292,0.190321,0.569771,-0.100458,48,264,583,6192
1644187549.761002,-0.008789,0.009583,-0.991028,0.220855,0.478168,-0.054656,46,288,583,6224
1644187549.809378,-0.011353,0.009705,-0.993774,0.342992,0.508702,-0.085191,42,270,579,6240
1644187549.857798,-0.008484,0.01001,-0.990356,0.297191,0.539237,-0.024122,42,273,582,6240
1644187549.906181,-0.007568,0.008972,-0.993103,0.312458,0.417099,0.006412,53,276,585,6240
1644187549.954615,-0.007141,0.013794,-0.992188,0.205588,0.462901,0.006412,43,276,585,6224
1644187550.002936,-0.008301,0.010986,-0.990662,0.266656,0.356031,-0.054656,45,280,577,6176
1644187550.063209,-0.007263,0.010071,-0.991577,0.068183,0.478168,0.006412,53,279,590,6176
1644187550.101524,-0.007324,0.007385,-0.992371,0.236122,0.462901,-0.085191,48,274,587,6240
1644187550.148111,-0.007996,0.010437,-0.992004,0.220855,0.417099,-0.176794,52,270,579,6224
1644187550.196493,-0.007568,0.010437,-0.988892,0.251389,0.539237,-0.054656,46,274,585,6224
1644187550.244879,-0.007874,0.011536,-0.991089,0.251389,0.340763,-0.008855,48,274,585,6160
1644187550.293692,-0.009033,0.009155,-0.989929,0.236122,0.310229,-0.085191,52,275,582,6224
1644187550.343818,-0.005432,0.008606,-0.995422,0.190321,0.432366,-0.100458,46,286,587,6224
1644187550.394002,-0.010254,0.006042,-0.992798,0.175053,0.417099,0.036947,45,280,582,6224
1644187550.439184,-0.008911,0.00824,-0.994568,0.327725,0.447634,-0.130992,57,285,582,6240
1644187550.535382,-0.01001,0.007324,-0.991211,0.098718,0.508702,0.006412,51,276,580,6192
1644187550.583634,-0.007751,0.011108,-0.988647,0.205588,0.493435,-0.14626,57,270,584,6352
1644187550.632002,-0.009277,0.008728,-0.99231,0.190321,0.310229,-0.207328,54,268,584,6128
1644187550.68044,-0.009399,0.009827,-0.987549,0.281924,0.417099,0.036947,39,279,583,6192
1644187550.728811,-0.007507,0.011292,-0.990051,0.08345,0.447634,-0.115725,48,286,585,6176
1644187550.777221,-0.009644,0.011475,-0.990784,0.266656,0.417099,-0.237863,45,275,582,6160
1644187550.82565,-0.01001,0.009216,-0.990417,0.404061,0.325496,-0.207328,42,282,577,6224
1644187550.874051,-0.006897,0.011841,-0.989685,0.08345,0.371298,-0.039389,43,281,592,6192
1644187550.922441,-0.007324,0.008728,-0.993591,0.113985,0.554504,-0.100458,54,277,584,6224
1644187550.970827,-0.009399,0.010071,-0.990051,0.037649,0.569771,-0.085191,49,282,575,6224
1644187551.019228,-0.006531,0.012085,-0.99176,0.113985,0.401832,-0.192061,45,285,589,6224
1644187551.081756,-0.009827,0.008484,-0.991516,0.175053,0.218626,-0.268397,40,277,596,6256
1644187551.115986,-0.010254,0.011108,-0.991394,0.388794,0.325496,-0.069924,58,271,585,6288
1644187551.16437,-0.011963,0.008423,-0.989685,0.236122,0.493435,-0.069924,43,279,587,6224
1644187551.212772,-0.007507,0.007568,-0.992676,0.281924,0.478168,0.067481,57,277,584,6176
1644187551.261146,-0.00824,0.01001,-0.991821,0.175053,0.447634,-0.207328,51,283,578,6176
1644187551.309541,-0.006714,0.010925,-0.990784,0.205588,0.340763,-0.069924,52,270,579,6256
1644187551.357988,-0.010254,0.010986,-0.992432,0.327725,0.310229,-0.130992,51,279,576,6192
1644187551.40685,-0.004761,0.010437,-0.98999,0.205588,0.508702,-0.039389,48,274,576,6176
1644187551.457429,-0.007751,0.012939,-0.990356,0.159786,0.569771,-0.054656,45,277,579,6240
1644187551.50759,-0.007812,0.010254,-0.992493,0.190321,0.462901,0.036947,59,268,584,6224
1644187551.552529,-0.007812,0.009705,-0.991638,0.08345,0.294962,-0.130992,60,269,578,6240
1644187551.648276,-0.008301,0.010498,-0.992249,0.159786,0.294962,0.052214,54,280,575,6192
1644187551.696668,-0.009827,0.007935,-0.992798,0.236122,0.462901,0.098015,59,280,579,6192
1644187551.745289,-0.006104,0.010681,-0.994263,0.098718,0.386565,-0.222595,47,265,580,6256
1644187551.793479,-0.009583,0.005737,-0.988281,0.297191,0.340763,-0.100458,42,277,582,6256
1644187551.8419,-0.010437,0.008789,-0.991638,0.312458,0.371298,-0.161527,47,280,586,6176
1644187551.890295,-0.006653,0.010498,-0.993591,0.297191,0.386565,-0.085191,52,275,586,6224
1644187551.938685,-0.005493,0.010376,-0.992432,0.297191,0.478168,-0.192061,48,279,585,6256
1644187551.987085,-0.009338,0.010803,-0.99353,0.113985,0.432366,-0.237863,58,276,583,6256
1644187552.035463,-0.010071,0.009766,-0.989746,0.236122,0.478168,-0.100458,43,271,585,6288
1644187552.089989,-0.005066,0.01178,-0.989258,0.327725,0.493435,-0.130992,46,281,585,6176
1644187552.132262,-0.010864,0.011902,-0.990967,0.113985,0.356031,-0.054656,52,280,591,6192
1644187552.180619,-0.007568,0.008667,-0.990417,0.434595,0.539237,-0.14626,52,280,579,6192
1644187552.229014,-0.007385,0.009033,-0.988953,0.297191,0.478168,-0.115725,48,276,585,6176
1644187552.277379,-0.011047,0.011292,-0.990417,0.220855,0.417099,-0.25313,47,270,579,6224
1644187552.325783,-0.009277,0.011536,-0.990845,0.297191,0.523969,-0.024122,41,283,576,6240
1644187552.374177,-0.010376,0.01001,-0.991089,0.297191,0.279695,-0.039389,51,274,587,6224
1644187552.422619,-0.008179,0.011414,-0.989685,0.205588,0.417099,-0.115725,47,277,593,6224
1644187552.472605,-0.007202,0.009583,-0.989746,0.220855,0.569771,-0.161527,38,282,582,6176
1644187552.52296,-0.008972,0.013306,-0.990967,0.297191,0.325496,-0.085191,47,275,582,6192
1644187552.5728,-0.00824,0.009705,-0.988037,0.220855,0.157557,-0.024122,53,283,580,6192
1644187552.664547,-0.008789,0.011719,-0.992065,0.220855,0.493435,-0.024122,58,269,583,6176
1644187552.712946,-0.010132,0.01062,-0.991333,0.251389,0.401832,-0.161527,62,279,590,6256
1644187552.761309,-0.009094,0.009766,-0.992371,0.220855,0.554504,-0.192061,53,262,580,6240
1644187552.80972,-0.00946,0.009766,-0.989746,0.251389,0.340763,-0.054656,42,275,582,6160
1644187552.858145,-0.008728,0.011353,-0.99054,0.342992,0.417099,-0.100458,47,275,582,6192
1644187552.906539,-0.011108,0.009705,-0.990479,0.159786,0.310229,-0.085191,43,266,592,6192
1644187552.954928,-0.009949,0.009827,-0.990234,0.236122,0.493435,-0.130992,45,275,579,6224
1644187553.003327,-0.006409,0.009033,-0.991516,0.220855,0.462901,-0.024122,45,263,577,6256
1644187553.067076,-0.011047,0.009766,-0.991272,0.144519,0.508702,-0.161527,51,271,587,6224
1644187553.103021,-0.006958,0.008484,-0.993225,0.159786,0.218626,-0.024122,46,266,601,6224
1644187553.148468,-0.007324,0.009705,-0.99176,0.129252,0.417099,-0.100458,46,276,590,6224
1644187553.196872,-0.008606,0.010193,-0.992981,0.205588,0.340763,0.067481,54,275,582,6240
1644187553.245286,-0.007141,0.007751,-0.99353,0.251389,0.539237,-0.130992,57,268,584,6224
1644187553.293646,-0.00824,0.011047,-0.991638,0.220855,0.401832,-0.069924,53,264,585,6256
1644187553.342045,-0.00708,0.011536,-0.991577,0.022382,0.447634,-0.085191,46,276,594,6224
1644187553.390408,-0.008728,0.008301,-0.992554,0.220855,0.447634,0.006412,52,275,586,6288
1644187553.438798,-0.006897,0.007996,-0.991882,0.327725,0.386565,-0.085191,51,279,590,6224
1644187553.48728,-0.008118,0.011902,-0.990723,0.052916,0.24916,-0.069924,52,275,582,6192
1644187553.535587,-0.006104,0.011841,-0.993958,0.205588,0.508702,0.021679,55,276,592,6224
1644187553.584234,-0.010193,0.010254,-0.991455,0.449863,0.325496,-0.161527,52,282,579,6224
1644187553.634781,-0.00647,0.008789,-0.990662,0.159786,0.371298,0.006412,43,276,585,6240
1644187553.684915,-0.008423,0.010559,-0.990784,0.251389,0.279695,-0.100458,49,280,586,6224
1644187553.730034,-0.007751,0.01001,-0.989441,0.297191,0.447634,-0.054656,41,283,576,6240
1644187553.825956,-0.010742,0.008728,-0.988281,0.175053,0.462901,-0.008855,46,283,578,6224
1644187553.874406,-0.01001,0.009155,-0.992615,0.297191,0.310229,-0.14626,35,265,570,6240
1644187553.923355,-0.008301,0.009888,-0.991577,0.281924,0.432366,-0.054656,46,269,578,6128
1644187553.971179,-0.00824,0.011902,-0.989624,0.251389,0.462901,-0.115725,45,275,575,6224
1644187554.019593,-0.006287,0.009705,-0.990601,0.175053,0.371298,-0.222595,55,274,587,6240
1644187554.068915,-0.008118,0.010254,-0.992188,0.159786,0.478168,-0.115725,47,270,584,6192
1644187554.116388,-0.007385,0.010925,-0.990417,0.190321,0.401832,-0.115725,42,275,598,6240
1644187554.164751,-0.008728,0.009033,-0.989624,0.419328,0.462901,-0.14626,54,280,586,6192
1644187554.213141,-0.007141,0.011353,-0.989685,0.098718,0.356031,0.082748,43,283,587,6192
1644187554.261501,-0.007263,0.012207,-0.990234,0.175053,0.294962,-0.024122,43,271,587,6224
1644187554.309912,-0.009644,0.010559,-0.993042,0.175053,0.386565,-0.100458,58,281,578,6240
1644187554.358291,-0.009583,0.013123,-0.989014,0.220855,0.24916,-0.14626,48,279,590,6192
1644187554.406686,-0.007874,0.011597,-0.990723,0.312458,0.478168,-0.14626,45,277,575,6192
1644187554.455117,-0.007507,0.011353,-0.99176,0.220855,0.401832,-0.008855,43,279,580,6224
1644187554.503457,-0.00708,0.009888,-0.991577,0.236122,0.508702,-0.024122,46,281,583,6256
1644187554.551844,-0.007141,0.008362,-0.992188,0.281924,0.447634,-0.069924,52,268,584,6224
1644187554.600274,-0.008362,0.010925,-0.987183,0.266656,0.310229,-0.039389,51,274,583,6192
1644187554.64866,-0.00769,0.009033,-0.990295,0.281924,0.386565,-0.100458,65,269,573,6224
1644187554.698525,-0.009033,0.009827,-0.992065,0.144519,0.417099,0.006412,49,275,591,6240
1644187554.748806,-0.008179,0.010254,-0.990662,0.297191,0.325496,-0.054656,52,275,584,6192
1644187554.799126,-0.007751,0.012817,-0.990601,0.312458,0.325496,-0.14626,49,277,584,6176
1644187554.890656,-0.008911,0.013062,-0.989746,0.144519,0.24916,-0.192061,58,269,583,6240
1644187554.939047,-0.005981,0.010254,-0.992676,0.144519,0.447634,-0.024122,59,270,584,6240
1644187554.987442,-0.008728,0.008545,-0.99115,0.037649,0.493435,-0.25313,51,269,585,6224
1644187555.035814,-0.007996,0.011963,-0.992371,0.251389,0.356031,-0.008855,52,268,579,6224
1644187555.090496,-0.008484,0.006714,-0.991577,0.144519,0.523969,-0.100458,43,264,587,6240
1644187555.132634,-0.006042,0.01178,-0.991577,0.205588,0.386565,0.021679,42,273,579,6240
1644187555.180971,-0.009216,0.011169,-0.99176,0.205588,0.371298,-0.115725,52,277,579,6176
1644187555.229356,-0.00946,0.013794,-0.991516,0.205588,0.508702,-0.237863,43,281,585,6224
1644187555.277758,-0.011169,0.009766,-0.991882,0.129252,0.432366,-0.039389,40,275,591,6224
1644187555.32615,-0.007996,0.010315,-0.991333,0.312458,0.493435,-0.069924,54,285,589,6192
1644187555.374599,-0.007446,0.012817,-0.990234,0.08345,0.401832,-0.039389,47,273,575,6160
1644187555.422927,-0.009155,0.009766,-0.993408,0.144519,0.340763,-0.130992,38,282,579,6176
1644187555.471331,-0.007874,0.00708,-0.99176,0.281924,0.371298,-0.176794,49,280,593,6288
1644187555.51973,-0.008545,0.010132,-0.990479,0.175053,0.554504,-0.207328,46,276,580,6240
1644187555.568714,-0.008911,0.01239,-0.988159,0.190321,0.417099,-0.115725,43,271,585,6224
1644187555.617259,-0.006653,0.014282,-0.989685,0.251389,0.432366,-0.085191,54,270,582,6224
1644187555.667884,-0.009583,0.008179,-0.990051,0.266656,0.493435,-0.039389,48,276,578,6224
1644187555.71793,-0.008362,0.011047,-0.990356,0.159786,0.493435,-0.100458,53,264,580,6240
1644187555.762846,-0.006897,0.011353,-0.991638,0.251389,0.401832,-0.130992,35,273,589,6192
1644187555.858459,-0.005249,0.00885,-0.989197,0.159786,0.294962,-0.130992,53,266,578,6240
1644187555.906908,-0.008606,0.011841,-0.989563,0.327725,0.386565,-0.069924,48,286,592,6240
1644187555.955291,-0.00769,0.008972,-0.991516,0.404061,0.386565,-0.085191,43,271,573,6256
1644187556.0037,-0.009766,0.010376,-0.992004,0.159786,0.508702,-0.008855,51,274,587,6176
1644187556.062731,-0.008911,0.010315,-0.993286,0.175053,0.417099,-0.085191,51,269,578,6240
1644187556.101938,-0.007996,0.009949,-0.993713,0.297191,0.508702,-0.130992,52,265,577,6192
1644187556.148876,-0.01001,0.013489,-0.991638,0.190321,0.447634,-0.069924,46,274,580,6176
1644187556.197241,-0.010437,0.009888,-0.990417,0.236122,0.340763,-0.085191,51,279,587,6256
1644187556.2456,-0.005493,0.008972,-0.988586,0.312458,0.340763,-0.100458,48,281,573,6224
1644187556.294004,-0.010925,0.011536,-0.992981,0.159786,0.279695,-0.14626,52,273,591,6224
1644187556.342432,-0.008972,0.010498,-0.990173,0.190321,0.432366,-0.14626,54,273,582,6192
1644187556.390801,-0.005798,0.009399,-0.989441,0.190321,0.279695,-0.008855,49,282,589,6256
1644187556.43921,-0.008667,0.009033,-0.990479,0.236122,0.340763,-0.344733,46,271,587,6224
1644187556.487592,-0.01123,0.00885,-0.994446,0.251389,0.462901,-0.039389,43,271,578,6128
1644187556.535977,-0.006958,0.009155,-0.990906,0.220855,0.462901,-0.115725,52,273,591,6304
1644187556.584373,-0.006958,0.009399,-0.990479,0.342992,0.310229,-0.054656,54,273,584,6224
1644187556.632757,-0.008179,0.009033,-0.990173,0.251389,0.539237,-0.024122,58,283,587,6288
1644187556.681171,-0.00885,0.012024,-0.989197,0.190321,0.325496,-0.237863,47,277,586,6224
1644187556.730236,-0.010315,0.009583,-0.989319,0.190321,0.401832,-0.039389,41,271,578,6240
1644187556.780799,-0.009338,0.010071,-0.993591,0.159786,0.340763,-0.237863,48,271,592,6240
1644187556.831404,-0.007385,0.007202,-0.992615,0.220855,0.401832,-0.069924,47,270,591,6240
1644187556.876662,-0.007324,0.009033,-0.989929,0.175053,0.478168,-0.207328,54,280,579,6240
1644187556.971553,-0.00824,0.009277,-0.991821,0.266656,0.386565,0.113282,52,268,575,6192
1644187557.019952,-0.008911,0.006165,-0.991089,0.312458,0.447634,-0.115725,46,266,592,6240
1644187557.068383,-0.007202,0.009705,-0.990417,0.281924,0.646107,0.067481,54,280,586,6224
1644187557.116684,-0.007629,0.007751,-0.993042,0.35826,0.371298,-0.115725,59,270,582,6192
1644187557.165326,-0.007568,0.009338,-0.990723,0.144519,0.233893,-0.008855,39,281,580,6192
1644187557.213485,-0.008423,0.007935,-0.990356,0.434595,0.325496,-0.237863,41,271,580,6224
1644187557.261871,-0.008362,0.008484,-0.989563,0.190321,0.462901,-0.115725,45,282,582,6240
1644187557.310248,-0.007446,0.010498,-0.990051,0.129252,0.432366,-0.024122,41,271,585,6224
1644187557.358662,-0.01062,0.011108,-0.992065,0.327725,0.386565,-0.14626,53,283,580,6176
1644187557.40706,-0.009766,0.009094,-0.988037,0.236122,0.356031,-0.100458,54,268,584,6256
1644187557.455434,-0.008667,0.009399,-0.992554,0.129252,0.340763,-0.14626,46,281,585,6224
1644187557.503855,-0.008911,0.011841,-0.990601,0.159786,0.386565,-0.176794,41,279,578,6224
1644187557.55232,-0.005432,0.009888,-0.989441,0.297191,0.371298,-0.161527,59,285,591,6240
1644187557.600597,-0.008423,0.009399,-0.989014,0.113985,0.417099,-0.100458,41,276,580,6256
1644187557.649014,-0.010254,0.011658,-0.992493,0.113985,0.432366,-0.085191,41,274,587,6304
1644187557.697403,-0.009521,0.008301,-0.991699,0.281924,0.417099,-0.039389,45,275,582,6224
1644187557.745803,-0.006775,0.009949,-0.98999,0.144519,0.493435,0.021679,47,268,582,6192
1644187557.794631,-0.009033,0.010681,-0.990601,0.35826,0.294962,0.098015,52,277,589,6256
1644187557.842651,-0.00946,0.011719,-0.991638,0.052916,0.508702,-0.192061,48,276,594,6128
1644187557.892678,-0.01001,0.007874,-0.990601,0.312458,0.447634,-0.008855,48,276,578,6224
1644187557.943836,-0.007019,0.008728,-0.989807,0.129252,0.401832,-0.039389,58,269,590,6240
1644187557.993251,-0.009277,0.007874,-0.991211,0.342992,0.401832,-0.100458,51,269,587,6304
1644187558.037963,-0.009644,0.01123,-0.98999,0.236122,0.340763,-0.176794,42,273,589,6224
1644187558.132952,-0.009766,0.010132,-0.989258,0.251389,0.356031,-0.192061,51,271,587,6192
1644187558.181329,-0.006897,0.010803,-0.991089,0.159786,0.417099,-0.069924,54,268,579,6176
1644187558.229733,-0.007385,0.008484,-0.991638,0.205588,0.462901,-0.161527,46,274,585,6224
1644187558.278124,-0.009399,0.011108,-0.98938,0.236122,0.478168,-0.100458,54,275,577,6224
1644187558.326517,-0.007263,0.008057,-0.991516,0.251389,0.493435,-0.176794,45,285,589,6240
1644187558.374912,-0.006042,0.009949,-0.99054,0.144519,0.371298,-0.25313,58,276,583,6224
1644187558.423319,-0.00824,0.00592,-0.991028,0.220855,0.356031,-0.130992,51,274,580,6176
1644187558.471703,-0.006409,0.009766,-0.991821,0.220855,0.386565,-0.054656,47,273,582,6240
1644187558.520103,-0.007568,0.008301,-0.992188,0.175053,0.508702,-0.085191,51,269,583,6192
1644187558.568486,-0.008179,0.009827,-0.989136,0.159786,0.462901,0.021679,55,276,576,6176
1644187558.61688,-0.007263,0.01001,-0.992615,0.205588,0.340763,-0.069924,51,266,583,6224
1644187558.665283,-0.007629,0.010437,-0.991211,0.144519,0.386565,-0.268397,57,280,577,6192
1644187558.713675,-0.007019,0.010193,-0.993896,0.205588,0.478168,-0.14626,45,277,582,6224
1644187558.762035,-0.007812,0.012451,-0.992004,0.220855,0.401832,-0.100458,45,285,589,6224
1644187558.810502,-0.01062,0.00647,-0.992126,0.220855,0.340763,-0.039389,55,266,587,6288
1644187558.858884,-0.010864,0.011108,-0.992493,0.236122,0.340763,-0.024122,49,277,577,6256
1644187558.90728,-0.008789,0.008606,-0.991882,0.113985,0.417099,-0.008855,47,280,579,6128
1644187558.95565,-0.006836,0.00885,-0.993835,0.175053,0.386565,0.021679,53,279,580,6240
1644187559.004069,-0.006775,0.010315,-0.990173,0.205588,0.447634,0.052214,42,270,582,6192
1644187559.071004,-0.010071,0.007141,-0.991577,0.220855,0.356031,-0.069924,45,280,586,6240
1644187559.103529,-0.01123,0.010925,-0.987549,0.159786,0.279695,-0.207328,53,276,585,6192
1644187559.154051,-0.010986,0.008606,-0.990601,0.113985,0.340763,-0.130992,43,276,583,6224
1644187559.246008,-0.011353,0.013184,-0.994141,0.266656,0.310229,0.006412,53,271,576,6224
1644187559.294387,-0.006592,0.011536,-0.993408,0.175053,0.325496,-0.069924,47,277,570,6240
1644187559.342789,-0.006958,0.00885,-0.990356,0.281924,0.432366,-0.161527,48,274,583,6192
1644187559.391166,-0.006836,0.008301,-0.992004,0.098718,0.417099,-0.222595,48,276,583,6224
1644187559.439564,-0.009277,0.011047,-0.990112,0.205588,0.401832,-0.069924,53,281,576,6256
1644187559.487949,-0.007141,0.010193,-0.990234,0.08345,0.523969,-0.085191,54,270,579,6256
1644187559.536342,-0.008179,0.008179,-0.991272,0.144519,0.264427,-0.008855,51,276,583,6288
1644187559.584752,-0.009521,0.010803,-0.992737,0.312458,0.310229,0.021679,52,277,591,6224
1644187559.633164,-0.007751,0.009521,-0.994202,0.144519,0.539237,-0.054656,53,279,585,6192
1644187559.681515,-0.008423,0.011902,-0.98938,0.205588,0.432366,-0.14626,52,280,582,6224
1644187559.729916,-0.006653,0.010559,-0.989746,0.190321,0.493435,-0.008855,47,277,577,6192
1644187559.778313,-0.010437,0.009888,-0.991455,0.327725,0.462901,0.021679,53,279,576,6192
1644187559.826731,-0.006653,0.008484,-0.992798,0.236122,0.417099,-0.161527,45,277,589,6288
1644187559.875161,-0.006836,0.010803,-0.990173,0.236122,0.432366,-0.024122,51,276,580,6240
1644187559.923535,-0.011719,0.00708,-0.991577,0.220855,0.417099,-0.085191,48,281,594,6192
1644187559.971925,-0.008118,0.010498,-0.98938,0.144519,0.401832,-0.115725,54,280,593,6240
1644187560.020296,-0.006348,0.007324,-0.990723,0.175053,0.356031,-0.085191,42,275,582,6288
1644187560.08712,-0.007141,0.009033,-0.992004,0.251389,0.417099,0.067481,43,281,585,6288
1644187560.118849,-0.008057,0.00946,-0.992065,0.373527,0.356031,-0.008855,46,276,592,6256
1644187560.213848,-0.009094,0.009277,-0.993591,0.159786,0.371298,-0.161527,60,281,583,6224
1644187560.262397,-0.008911,0.010193,-0.991821,0.098718,0.325496,0.006412,45,280,575,6224
1644187560.310624,-0.009827,0.009094,-0.992432,0.144519,0.310229,-0.192061,53,274,590,6224
1644187560.359034,-0.010681,0.009766,-0.989441,0.251389,0.386565,-0.100458,45,275,584,6192
1644187560.40742,-0.009277,0.011047,-0.991882,0.098718,0.279695,-0.100458,47,265,584,6224
1644187560.455815,-0.008545,0.010254,-0.993164,0.190321,0.264427,-0.100458,52,282,589,6176
1644187560.504181,-0.009094,0.01062,-0.989136,0.190321,0.417099,0.052214,60,269,585,6224
1644187560.552619,-0.010437,0.009583,-0.990295,0.266656,0.432366,-0.100458,46,266,578,6224
1644187560.600998,-0.005676,0.009827,-0.992065,0.175053,0.340763,-0.115725,54,268,582,6224
1644187560.649387,-0.009644,0.008484,-0.989746,0.190321,0.340763,-0.115725,45,280,579,6192
1644187560.697749,-0.009766,0.00824,-0.99054,0.159786,0.447634,-0.115725,52,277,589,6240
1644187560.746158,-0.008545,0.010315,-0.989746,0.098718,0.478168,-0.14626,43,279,580,6192
1644187560.794852,-0.0047,0.009338,-0.991272,0.251389,0.523969,-0.085191,43,274,583,6224
1644187560.843027,-0.007385,0.009338,-0.991943,0.190321,0.310229,-0.039389,59,280,582,6224
1644187560.891368,-0.009766,0.01123,-0.989929,0.281924,0.356031,-0.115725,42,277,582,6240
1644187560.939785,-0.009277,0.009644,-0.990967,0.205588,0.432366,-0.008855,43,276,592,6240
1644187560.988175,-0.010071,0.009949,-0.990662,0.159786,0.401832,-0.024122,49,277,593,6240
1644187561.036649,-0.008728,0.007202,-0.992493,0.342992,0.462901,0.036947,49,270,591,6224
1644187561.090691,-0.007751,0.008606,-0.990417,0.098718,0.615573,-0.161527,45,275,593,6224
1644187561.136136,-0.010864,0.009033,-0.993225,0.251389,0.310229,0.067481,45,277,579,6224
1644187561.184961,-0.008362,0.008728,-0.991333,0.251389,0.386565,-0.222595,51,283,583,6224
1644187561.235354,-0.01062,0.008362,-0.989441,0.190321,0.462901,-0.024122,51,274,583,6192
1644187561.326904,-0.007446,0.006897,-0.99292,0.113985,0.417099,-0.039389,48,269,580,6192
1644187561.375396,-0.010864,0.01062,-0.991028,0.144519,0.356031,-0.268397,53,279,583,6192
1644187561.423707,-0.005859,0.012146,-0.991455,0.220855,0.462901,-0.222595,49,287,584,6288
1644187561.472082,-0.00946,0.011902,-0.990845,0.205588,0.371298,-0.054656,46,279,580,6240
1644187561.520459,-0.010132,0.013184,-0.992737,0.190321,0.569771,-0.054656,41,276,587,6288
1644187561.568851,-0.01062,0.012024,-0.992493,0.068183,0.493435,-0.207328,52,275,586,6224
1644187561.617234,-0.011108,0.009399,-0.990845,0.08345,0.493435,-0.024122,47,275,579,6224
1644187561.665632,-0.009521,0.007202,-0.993164,0.175053,0.523969,0.006412,45,280,586,6176
1644187561.714034,-0.006836,0.007874,-0.991333,0.220855,0.264427,-0.069924,47,263,584,6224
1644187561.762442,-0.007202,0.008667,-0.990234,0.175053,0.325496,-0.100458,43,279,573,6176
1644187561.810811,-0.009399,0.009888,-0.991394,0.205588,0.356031,-0.100458,49,277,584,6240
1644187561.859273,-0.009521,0.009827,-0.993591,0.129252,0.371298,-0.192061,49,270,584,6224
1644187561.907643,-0.007446,0.012024,-0.989807,0.297191,0.325496,-0.14626,57,265,577,6256
1644187561.956046,-0.00592,0.008545,-0.990967,0.236122,0.478168,-0.115725,51,266,592,6224
1644187562.004403,-0.006592,0.011475,-0.991821,0.220855,0.340763,-0.008855,47,268,584,6256
1644187562.066339,-0.009644,0.008118,-0.990906,0.144519,0.401832,0.006412,55,279,583,6240
1644187562.103536,-0.00946,0.011841,-0.992615,0.129252,0.386565,0.036947,51,276,587,6240
1644187562.149871,-0.005676,0.008606,-0.993042,0.297191,0.203359,0.067481,41,274,580,6192
1644187562.197949,-0.007507,0.011108,-0.989563,0.144519,0.478168,-0.054656,45,287,589,6224
1644187562.246793,-0.010864,0.012146,-0.991577,0.113985,0.294962,-0.130992,43,266,594,6176
1644187562.296997,-0.008728,0.012268,-0.991882,0.312458,0.478168,-0.054656,46,269,590,6224
1644187562.347241,-0.008545,0.00946,-0.98877,0.068183,0.340763,-0.36,49,275,577,6192
1644187562.392236,-0.006653,0.009216,-0.993164,0.281924,0.310229,-0.085191,39,266,576,6224
1644187562.488314,-0.009888,0.011353,-0.992859,0.327725,0.24916,0.006412,45,273,591,6192
1644187562.536689,-0.008484,0.010498,-0.989075,0.098718,0.386565,-0.039389,42,270,575,6176
1644187562.58532,-0.008301,0.010986,-0.990417,0.159786,0.279695,-0.161527,34,279,580,6224
1644187562.63349,-0.010742,0.009644,-0.991028,0.190321,0.447634,-0.314198,42,285,591,6256
1644187562.681891,-0.00769,0.01123,-0.989624,0.297191,0.432366,-0.039389,47,275,572,6192
1644187562.730278,-0.005127,0.00885,-0.990784,0.190321,0.432366,-0.039389,42,270,591,6224
1644187562.77868,-0.01001,0.011475,-0.990662,0.175053,0.401832,-0.039389,49,280,577,6224
1644187562.827059,-0.011353,0.009155,-0.990967,0.327725,0.417099,-0.069924,45,273,586,6160
1644187562.875501,-0.010498,0.009949,-0.99176,0.205588,0.417099,-0.25313,51,266,583,6128
1644187562.923911,-0.011169,0.007385,-0.994019,0.266656,0.401832,-0.14626,47,282,584,6288
1644187562.972312,-0.010559,0.008606,-0.991882,0.312458,0.340763,-0.039389,54,273,593,6224
1644187563.02065,-0.009338,0.011047,-0.991638,0.388794,0.294962,-0.115725,47,265,586,6224
1644187563.077457,-0.007446,0.010864,-0.99231,0.144519,0.371298,-0.130992,48,279,583,6160
1644187563.117519,-0.007507,0.009399,-0.992249,0.35826,0.478168,-0.14626,54,273,591,6240
1644187563.165823,-0.00769,0.009094,-0.992004,0.297191,0.508702,-0.222595,54,275,584,6240
1644187563.214231,-0.00769,0.011353,-0.99292,0.251389,0.417099,-0.069924,48,274,580,6192
1644187563.262636,-0.01062,0.009705,-0.991272,0.312458,0.401832,-0.222595,49,280,586,6192
1644187563.311003,-0.005798,0.010498,-0.98999,0.297191,0.478168,-0.222595,38,275,589,6224
1644187563.359394,-0.007446,0.012268,-0.991943,0.281924,0.325496,-0.14626,47,275,584,6240
1644187563.408133,-0.005005,0.010132,-0.990417,0.251389,0.523969,0.021679,46,271,585,6176
1644187563.458683,-0.006653,0.013306,-0.987366,0.251389,0.340763,-0.069924,51,288,583,6192
1644187563.508742,-0.010498,0.00885,-0.991211,0.129252,0.401832,-0.130992,52,285,579,6224
1644187563.553744,-0.006226,0.01062,-0.990417,0.281924,0.310229,-0.130992,30,282,584,6192
1644187563.649729,-0.006104,0.010193,-0.990356,0.205588,0.523969,-0.039389,51,269,585,6224
1644187563.698125,-0.007324,0.010559,-0.989258,0.175053,0.493435,-0.14626,54,275,577,6240
1644187563.746517,-0.006165,0.009644,-0.99231,0.266656,0.417099,0.006412,46,283,583,6224
1644187563.794924,-0.00885,0.010864,-0.991272,0.35826,0.356031,-0.069924,47,273,584,6240
1644187563.843318,-0.009766,0.012085,-0.992249,0.205588,0.432366,-0.039389,45,277,577,6192
1644187563.891765,-0.01001,0.011536,-0.990723,0.144519,0.569771,-0.085191,46,279,585,6224
1644187563.940162,-0.008667,0.010559,-0.992371,0.113985,0.386565,-0.054656,46,279,585,6176
1644187563.988536,-0.009766,0.00885,-0.989807,0.08345,0.294962,-0.130992,52,280,589,6224
1644187564.036927,-0.007874,0.010681,-0.991211,0.266656,0.371298,-0.054656,49,270,591,6224
1644187564.093518,-0.009827,0.010071,-0.99115,0.175053,0.325496,-0.115725,53,291,587,6224
1644187564.133712,-0.006653,0.010986,-0.990601,0.342992,0.356031,0.021679,57,270,591,6240
1644187564.182067,-0.008545,0.01001,-0.99115,0.113985,0.432366,0.021679,49,280,575,6224
1644187564.230463,-0.008728,0.013123,-0.98877,0.281924,0.356031,-0.176794,58,286,587,6256
1644187564.278855,-0.007141,0.010986,-0.989624,0.342992,0.340763,-0.14626,61,282,591,6256
1644187564.327238,-0.007324,0.009277,-0.991821,0.113985,0.401832,-0.054656,55,276,587,6256
1644187564.376759,-0.008484,0.008362,-0.991089,0.266656,0.432366,-0.161527,40,277,583,6240
1644187564.42729,-0.008362,0.010681,-0.991211,0.113985,0.462901,-0.176794,49,280,598,6176
1644187564.477433,-0.008667,0.009094,-0.993652,0.190321,0.264427,0.052214,51,279,580,6224
1644187564.569233,-0.007874,0.010864,-0.991699,0.281924,0.340763,-0.100458,48,276,592,6176
1644187564.617607,-0.006348,0.010864,-0.992859,0.388794,0.508702,-0.100458,49,275,582,6160
1644187564.665997,-0.008118,0.012756,-0.990906,0.236122,0.462901,-0.176794,52,265,575,6224
1644187564.714396,-0.004028,0.00885,-0.990601,0.190321,0.294962,-0.176794,49,282,575,6192
1644187564.762787,-0.007141,0.008911,-0.993286,0.175053,0.462901,-0.085191,55,271,580,6256
1644187564.811177,-0.006348,0.009155,-0.989685,0.205588,0.279695,-0.115725,45,280,584,6240
1644187564.859577,-0.006958,0.011292,-0.988708,0.129252,0.417099,-0.069924,54,273,582,6224
1644187564.908013,-0.007812,0.009583,-0.991455,0.220855,0.264427,0.052214,41,276,576,6192
1644187564.956376,-0.007996,0.010498,-0.990845,0.205588,0.340763,-0.008855,55,274,578,6288
1644187565.004814,-0.009644,0.010498,-0.995178,0.144519,0.508702,0.036947,52,265,586,6176
1644187565.067938,-0.008301,0.009888,-0.99408,0.159786,0.371298,-0.222595,48,269,580,6224
1644187565.104206,-0.008728,0.010864,-0.991028,0.129252,0.462901,-0.069924,47,275,596,6240
1644187565.14993,-0.011597,0.010681,-0.990051,0.297191,0.325496,0.006412,45,273,589,6224
1644187565.198313,-0.007812,0.00769,-0.989014,0.113985,0.493435,-0.100458,46,291,578,6224
1644187565.246733,-0.008484,0.009705,-0.992432,0.175053,0.340763,-0.024122,49,273,582,6240
1644187565.295151,-0.00647,0.010071,-0.992615,0.190321,0.478168,-0.115725,48,269,580,6224
1644187565.343503,-0.007996,0.009705,-0.990234,0.205588,0.462901,0.052214,52,270,586,6224
1644187565.391904,-0.007446,0.010559,-0.992676,0.35826,0.325496,0.006412,54,275,582,6336
1644187565.440708,-0.004395,0.008728,-0.992493,0.159786,0.386565,-0.161527,49,287,586,6256
1644187565.489339,-0.007446,0.009094,-0.990784,0.175053,0.325496,-0.14626,45,275,582,6240
1644187565.539786,-0.00824,0.010864,-0.99115,0.205588,0.417099,-0.161527,42,277,586,6128
1644187565.589813,-0.007446,0.009094,-0.99054,0.175053,0.294962,-0.14626,46,269,587,6176
1644187565.634814,-0.009705,0.00824,-0.990479,0.46513,0.462901,-0.115725,53,274,583,6224
1644187565.730651,-0.00885,0.010132,-0.991394,0.205588,0.493435,-0.039389,58,264,587,6240
1644187565.779028,-0.010071,0.009155,-0.992065,0.220855,0.554504,-0.237863,42,273,579,6240
1644187565.827466,-0.009216,0.009094,-0.990723,0.159786,0.356031,0.036947,45,275,586,6224
1644187565.87587,-0.008057,0.011047,-0.992615,0.281924,0.462901,-0.161527,38,273,591,6224
1644187565.924261,-0.007019,0.011841,-0.992065,0.297191,0.462901,-0.024122,53,274,573,6240
1644187565.972669,-0.008362,0.01239,-0.99176,0.159786,0.401832,-0.069924,52,275,584,6256
1644187566.021043,-0.006958,0.008484,-0.993713,0.327725,0.356031,-0.298931,46,269,592,6256
1644187566.071975,-0.006897,0.010315,-0.992126,0.190321,0.371298,-0.192061,51,283,587,6240
1644187566.117818,-0.007446,0.01001,-0.991882,0.220855,0.493435,-0.161527,51,281,585,6288
1644187566.166158,-0.008362,0.011536,-0.993286,0.266656,0.340763,-0.25313,45,280,577,6224
1644187566.214697,-0.005676,0.011719,-0.990051,0.175053,0.386565,-0.130992,52,273,575,6240
1644187566.262967,-0.008728,0.01355,-0.990051,0.404061,0.356031,-0.130992,57,282,582,6224
1644187566.311367,-0.009155,0.013428,-0.992554,0.144519,0.447634,-0.130992,42,275,584,6176
1644187566.359759,-0.005676,0.00769,-0.989624,0.098718,0.539237,-0.14626,42,282,584,6256
1644187566.408157,-0.008118,0.009399,-0.989136,0.35826,0.371298,-0.115725,55,276,585,6240
1644187566.456537,-0.008911,0.012268,-0.989746,0.175053,0.432366,-0.130992,42,275,586,6304
1644187566.504911,-0.008179,0.011414,-0.99115,0.35826,0.356031,-0.161527,41,281,590,6224
1644187566.553325,-0.007019,0.010254,-0.990906,0.175053,0.371298,-0.085191,45,270,596,6224
1644187566.601734,-0.008362,0.011292,-0.98999,0.327725,0.462901,-0.130992,54,273,584,6224
1644187566.650291,-0.007935,0.008545,-0.991394,0.327725,0.371298,-0.115725,47,285,589,6256
1644187566.700737,-0.007141,0.009277,-0.992249,0.113985,0.569771,-0.130992,42,277,586,6224
1644187566.750874,-0.007568,0.010498,-0.988647,0.266656,0.554504,-0.161527,47,277,584,6240
1644187566.796694,-0.01062,0.010132,-0.992737,0.220855,0.218626,-0.054656,54,277,579,6224
1644187566.89246,-0.010315,0.011536,-0.992432,0.327725,0.371298,-0.161527,58,271,585,6224
1644187566.940502,-0.008606,0.007996,-0.990173,0.220855,0.401832,0.006412,54,282,591,6256
1644187566.988902,-0.007874,0.007263,-0.990723,0.236122,0.356031,-0.14626,46,283,590,6240
1644187567.037261,-0.008301,0.010254,-0.990295,0.251389,0.462901,-0.054656,43,271,580,6160
1644187567.086056,-0.006775,0.009094,-0.992188,0.266656,0.417099,-0.024122,52,277,584,6176
1644187567.134052,-0.008301,0.010315,-0.992798,0.098718,0.371298,-0.222595,59,282,582,6160
1644187567.18246,-0.008667,0.010376,-0.991394,0.220855,0.447634,-0.085191,41,279,580,6176
1644187567.23083,-0.010376,0.009216,-0.991089,0.175053,0.554504,0.021679,57,273,575,6240
1644187567.279203,-0.007507,0.009338,-0.99353,0.113985,0.462901,-0.069924,48,274,585,6176
