epoch,acc_x,acc_y,acc_z,rot_x,rot_y,rot_z,mag_x,mag_y,mag_z,temp
1644165299.997822,-0.010437,0.007935,-0.993469,0.068183,0.523969,-0.039389,53,274,578,5584
1644165300.065826,-0.007751,0.008301,-0.993103,0.312458,0.294962,-0.161527,43,279,578,5584
1644165300.099166,-0.010559,0.009583,-0.992798,0.190321,0.432366,-0.176794,46,274,578,5648
1644165300.143056,-0.013733,0.00885,-0.989014,0.129252,0.371298,-0.100458,49,265,563,5584
1644165300.191572,-0.012512,0.009277,-0.989197,0.251389,0.356031,-0.161527,49,273,570,5632
1644165300.242446,-0.012024,0.008423,-0.992188,0.373527,0.294962,-0.130992,51,264,573,5552
1644165300.292515,-0.01178,0.008545,-0.992432,0.236122,0.401832,-0.130992,51,276,578,5648
1644165300.337393,-0.010071,0.009583,-0.991333,0.297191,0.325496,-0.024122,48,279,566,5632
1644165300.43334,-0.011108,0.006714,-0.992371,0.251389,0.356031,-0.207328,53,271,571,5584
1644165300.481711,-0.012207,0.009888,-0.992737,0.159786,0.585038,-0.207328,55,274,576,5552
1644165300.530144,-0.01001,0.009705,-0.994507,0.113985,0.279695,-0.192061,46,271,578,5584
1644165300.578491,-0.011536,0.010071,-0.991638,0.205588,0.539237,-0.024122,48,288,580,5584
1644165300.626855,-0.009766,0.008423,-0.994568,0.220855,0.447634,0.113282,52,270,565,5600
1644165300.675269,-0.009216,0.010132,-0.993896,0.175053,0.356031,-0.008855,52,282,572,5632
1644165300.723673,-0.008667,0.009888,-0.992676,0.342992,0.417099,-0.085191,48,269,566,5552
1644165300.772053,-0.010803,0.006958,-0.992432,0.08345,0.401832,-0.100458,54,270,568,5648
1644165300.82049,-0.010742,0.009521,-0.992004,0.175053,0.523969,0.159084,55,276,573,5696
1644165300.868882,-0.012451,0.00946,-0.99292,0.113985,0.279695,-0.176794,46,279,569,5584
1644165300.917279,-0.012085,0.008972,-0.993591,0.220855,0.340763,-0.14626,55,274,576,5552
1644165300.965656,-0.01123,0.007507,-0.993103,0.266656,0.386565,0.036947,58,269,571,5584
1644165301.014041,-0.010742,0.010681,-0.991577,0.068183,0.432366,-0.14626,52,270,570,5648
1644165301.073402,-0.011108,0.008789,-0.988464,0.220855,0.493435,-0.069924,45,273,577,5552
1644165301.110797,-0.013977,0.006958,-0.991089,0.266656,0.264427,-0.054656,38,277,577,5584
1644165301.160285,-0.013123,0.012329,-0.992676,0.236122,0.371298,-0.024122,52,275,584,5584
1644165301.210662,-0.012878,0.007874,-0.99292,0.068183,0.294962,-0.207328,43,283,573,5552
1644165301.260823,-0.011963,0.01239,-0.992065,0.205588,0.417099,-0.192061,52,275,582,5600
1644165301.352783,-0.00946,0.010071,-0.992859,0.144519,0.462901,-0.069924,52,277,575,5648
1644165301.401124,-0.009094,0.009155,-0.990112,0.342992,0.600305,-0.054656,43,279,562,5536
1644165301.449524,-0.010742,0.009888,-0.993713,0.388794,0.462901,-0.085191,54,285,575,5536
1644165301.497911,-0.00946,0.008423,-0.992371,0.342992,0.264427,-0.25313,54,275,577,5536
1644165301.546299,-0.009766,0.008728,-0.991516,0.35826,0.356031,-0.130992,62,262,571,5632
1644165301.594829,-0.008728,0.009155,-0.991089,0.144519,0.432366,0.006412,48,271,580,5520
1644165301.643101,-0.011353,0.009399,-0.992371,0.098718,0.432366,-0.085191,48,274,580,5536
1644165301.69148,-0.010132,0.009644,-0.991943,0.205588,0.310229,-0.100458,46,276,585,5552
1644165301.739865,-0.009949,0.005981,-0.990479,0.266656,0.401832,-0.069924,53,269,576,5584
1644165301.788251,-0.009888,0.008789,-0.991516,0.113985,0.401832,-0.130992,53,281,569,5600
1644165301.836676,-0.012024,0.009155,-0.992249,0.236122,0.279695,-0.085191,49,282,577,5648
1644165301.885279,-0.012878,0.009644,-0.989929,0.388794,0.478168,-0.008855,54,268,570,5584
1644165301.933481,-0.008423,0.012268,-0.990173,0.297191,0.432366,0.052214,49,258,570,5632
1644165301.981857,-0.010498,0.006775,-0.991455,0.251389,0.508702,-0.085191,48,279,578,5600
1644165302.030242,-0.011292,0.009155,-0.993591,0.052916,0.478168,-0.054656,60,279,571,5536
1644165302.082927,-0.00885,0.011169,-0.993469,0.373527,0.478168,-0.237863,42,277,572,5600
1644165302.127002,-0.008545,0.008179,-0.991699,0.037649,0.493435,-0.100458,48,274,569,5632
1644165302.17537,-0.010193,0.009949,-0.992615,0.190321,0.356031,-0.115725,49,280,584,5584
1644165302.223753,-0.011658,0.011414,-0.989746,0.098718,0.417099,-0.039389,52,265,575,5600
1644165302.272606,-0.012268,0.007874,-0.989319,0.404061,0.523969,-0.115725,46,269,580,5600
1644165302.323305,-0.010437,0.00946,-0.992004,0.144519,0.294962,-0.069924,48,269,576,5584
1644165302.373079,-0.00885,0.008911,-0.994202,0.129252,0.264427,-0.192061,46,281,573,5552
1644165302.418121,-0.011169,0.010681,-0.990479,0.052916,0.417099,-0.069924,41,276,571,5600
1644165302.514118,-0.012329,0.012024,-0.993408,0.342992,0.310229,-0.115725,54,270,572,5584
1644165302.562512,-0.012878,0.004883,-0.993774,0.297191,0.478168,-0.130992,45,273,565,5600
1644165302.610885,-0.009399,0.009888,-0.994629,0.266656,0.539237,-0.161527,40,273,568,5584
1644165302.659274,-0.009766,0.010193,-0.987915,0.266656,0.386565,-0.008855,49,282,570,5600
1644165302.707664,-0.011719,0.009155,-0.991943,0.190321,0.356031,-0.008855,48,274,573,5648
1644165302.756024,-0.010193,0.009766,-0.991699,0.159786,0.585038,-0.100458,49,277,563,5536
1644165302.804452,-0.012573,0.009338,-0.997314,0.388794,0.386565,-0.192061,51,269,578,5552
1644165302.852902,-0.012939,0.008728,-0.991211,0.037649,0.264427,-0.14626,51,274,578,5600
1644165302.901264,-0.008423,0.008179,-0.994263,0.419328,0.569771,-0.085191,52,270,582,5520
1644165302.94963,-0.007812,0.008728,-0.990356,0.327725,0.508702,-0.115725,51,281,578,5648
1644165302.998024,-0.009277,0.007996,-0.990601,0.190321,0.371298,-0.085191,47,270,582,5648
1644165303.051737,-0.012817,0.007568,-0.993286,0.190321,0.417099,-0.115725,52,273,582,5552
1644165303.094818,-0.008362,0.010925,-0.989929,0.266656,0.447634,-0.008855,41,274,576,5648
1644165303.143203,-0.010864,0.008789,-0.992554,0.236122,0.340763,-0.176794,58,281,566,5664
1644165303.191547,-0.01062,0.007935,-0.991394,0.205588,0.401832,-0.008855,64,270,579,5536
1644165303.239951,-0.010559,0.011169,-0.995483,0.281924,0.401832,-0.14626,57,277,577,5600
1644165303.288348,-0.010986,0.007751,-0.992676,0.297191,0.462901,-0.176794,45,273,579,5552
1644165303.336745,-0.014648,0.009155,-0.993469,0.281924,0.478168,-0.024122,38,270,565,5536
1644165303.385178,-0.009521,0.007263,-0.993591,0.342992,0.447634,-0.237863,53,269,583,5584
1644165303.433579,-0.011597,0.011414,-0.99231,0.190321,0.462901,-0.161527,55,271,585,5552
1644165303.483969,-0.010254,0.007874,-0.995239,0.052916,0.386565,-0.008855,57,277,568,5584
1644165303.534249,-0.011597,0.007446,-0.991577,0.113985,0.447634,-0.192061,59,280,579,5632
1644165303.579263,-0.009033,0.008606,-0.993652,0.388794,0.462901,-0.115725,45,268,572,5632
1644165303.675516,-0.008118,0.007507,-0.992859,0.266656,0.401832,0.052214,45,277,577,5600
1644165303.723872,-0.012146,0.008057,-0.992126,0.175053,0.523969,-0.054656,57,265,565,5584
1644165303.77247,-0.011597,0.007996,-0.992676,0.266656,0.417099,-0.237863,51,276,573,5584
1644165303.820648,-0.014893,0.00824,-0.989929,0.297191,0.493435,-0.192061,54,275,568,5600
1644165303.869081,-0.01178,0.009766,-0.992737,0.35826,0.294962,-0.100458,57,268,582,5600
1644165303.91747,-0.00885,0.010803,-0.98999,0.266656,0.462901,-0.069924,55,271,573,5600
1644165303.96585,-0.009705,0.007812,-0.991028,0.175053,0.523969,-0.207328,51,269,578,5632
1644165304.014247,-0.011902,0.009277,-0.991333,0.236122,0.386565,-0.115725,49,265,575,5632
1644165304.07779,-0.011841,0.006775,-0.993652,0.144519,0.279695,-0.069924,48,276,573,5632
1644165304.111039,-0.01001,0.007629,-0.992798,0.205588,0.554504,-0.100458,59,277,582,5600
1644165304.15937,-0.010132,0.010742,-0.991333,0.236122,0.478168,-0.024122,48,274,573,5664
1644165304.207735,-0.011536,0.009033,-0.991333,0.373527,0.310229,-0.115725,53,276,585,5584
1644165304.256124,-0.01001,0.007996,-0.990356,0.220855,0.462901,-0.192061,59,277,577,5584
1644165304.304524,-0.008545,0.012146,-0.991638,0.236122,0.356031,-0.115725,54,275,577,5584
1644165304.352952,-0.01123,0.009705,-0.993103,0.205588,0.401832,0.006412,51,279,573,5552
1644165304.401292,-0.009155,0.008789,-0.991272,0.281924,0.356031,-0.039389,53,271,578,5648
1644165304.449707,-0.009827,0.009644,-0.991455,0.266656,0.340763,-0.069924,46,274,569,5584
1644165304.498153,-0.013611,0.005676,-0.993408,0.327725,0.340763,-0.192061,54,268,584,5648
1644165304.547083,-0.009277,0.008667,-0.991943,0.342992,0.432366,-0.237863,41,274,578,5584
1644165304.597655,-0.008972,0.012329,-0.994019,0.159786,0.447634,-0.054656,51,266,578,5584
1644165304.64773,-0.013123,0.009521,-0.991943,0.266656,0.417099,-0.085191,49,263,575,5600
1644165304.692739,-0.008057,0.008972,-0.99292,0.190321,0.447634,-0.130992,45,270,570,5600
1644165304.788435,-0.010559,0.009888,-0.991638,0.159786,0.294962,-0.100458,46,276,580,5584
1644165304.836818,-0.007751,0.009399,-0.991089,0.159786,0.386565,-0.069924,47,270,579,5536
1644165304.885253,-0.011475,0.008667,-0.989075,0.159786,0.508702,-0.207328,46,281,576,5584
1644165304.933677,-0.009216,0.010315,-0.992004,0.266656,0.233893,-0.069924,48,276,576,5584
1644165304.982051,-0.010071,0.008301,-0.991089,0.159786,0.432366,0.006412,57,275,575,5648
1644165305.030426,-0.011841,0.010742,-0.990112,0.190321,0.417099,-0.085191,52,290,577,5664
1644165305.087492,-0.010315,0.009705,-0.992554,0.327725,0.401832,-0.024122,45,275,577,5632
1644165305.127192,-0.009949,0.010132,-0.990723,0.190321,0.462901,0.036947,60,266,576,5552
1644165305.17557,-0.011414,0.010437,-0.992188,0.144519,0.447634,-0.069924,48,276,580,5600
1644165305.223966,-0.010925,0.00647,-0.993469,0.159786,0.478168,-0.069924,53,274,578,5600
1644165305.272356,-0.011536,0.007874,-0.992126,0.175053,0.447634,-0.130992,54,273,579,5632
1644165305.320738,-0.010986,0.01062,-0.99408,0.281924,0.462901,-0.207328,58,274,569,5632
1644165305.369132,-0.007568,0.010376,-0.990967,0.236122,0.401832,-0.085191,47,273,584,5600
1644165305.417525,-0.007935,0.011597,-0.993713,0.236122,0.478168,-0.115725,57,268,570,5552
1644165305.466209,-0.009399,0.008972,-0.992981,0.144519,0.371298,-0.039389,48,279,578,5584
1644165305.514317,-0.008545,0.008972,-0.993713,0.144519,0.447634,-0.130992,47,273,572,5648
1644165305.564253,-0.010315,0.006165,-0.993652,0.251389,0.478168,-0.14626,45,268,589,5584
1644165305.614902,-0.010254,0.011963,-0.991943,0.220855,0.401832,-0.024122,48,274,573,5648
1644165305.659495,-0.00824,0.010437,-0.991089,0.007115,0.325496,-0.222595,49,270,572,5584
1644165305.75623,-0.011597,0.010864,-0.991272,0.251389,0.24916,-0.100458,48,279,583,5584
1644165305.804858,-0.00708,0.006897,-0.993164,0.297191,0.493435,-0.024122,46,271,580,5584
1644165305.853065,-0.010803,0.009094,-0.993713,0.327725,0.24916,-0.008855,52,275,565,5600
1644165305.901455,-0.010437,0.008728,-0.993164,0.205588,0.264427,-0.14626,43,281,566,5584
1644165305.949853,-0.008972,0.007874,-0.994385,0.251389,0.233893,-0.100458,53,262,578,5584
1644165305.998236,-0.010681,0.011658,-0.992188,0.236122,0.462901,-0.069924,47,280,565,5632
1644165306.056108,-0.013855,0.012695,-0.990601,0.159786,0.432366,-0.130992,59,280,575,5584
1644165306.095069,-0.010559,0.008057,-0.992432,0.190321,0.386565,0.052214,57,277,582,5600
1644165306.143418,-0.007141,0.008057,-0.992432,0.297191,0.462901,-0.100458,51,279,573,5648
1644165306.191787,-0.011597,0.008179,-0.992126,0.251389,0.401832,-0.100458,49,273,572,5584
1644165306.240199,-0.008057,0.00647,-0.990601,0.312458,0.554504,-0.14626,42,273,584,5648
1644165306.28859,-0.008728,0.009888,-0.990173,0.404061,0.523969,0.021679,52,273,577,5648
1644165306.336983,-0.009705,0.011963,-0.994934,0.297191,0.340763,-0.085191,48,279,573,5584
1644165306.385359,-0.010986,0.010986,-0.991943,0.190321,0.371298,-0.100458,58,283,583,5648
1644165306.433761,-0.007202,0.012268,-0.991455,0.113985,0.356031,-0.054656,48,283,578,5632
1644165306.482191,-0.011169,0.006897,-0.993225,0.327725,0.417099,-0.192061,57,268,586,5648
1644165306.530531,-0.010498,0.011475,-0.992371,0.281924,0.356031,-0.008855,48,271,576,5600
1644165306.579247,-0.009277,0.008789,-0.991028,0.098718,0.371298,-0.161527,42,275,577,5600
1644165306.627514,-0.00946,0.011169,-0.992065,0.35826,0.417099,-0.100458,48,266,578,5584
1644165306.67838,-0.010193,0.009644,-0.992126,0.205588,0.523969,0.021679,51,276,578,5648
1644165306.728142,-0.010315,0.008789,-0.994446,0.175053,0.310229,-0.192061,48,283,571,5536
1644165306.772519,-0.012939,0.008301,-0.991943,0.281924,0.447634,-0.085191,41,269,583,5584
1644165306.869263,-0.007751,0.008057,-0.991516,0.327725,0.462901,-0.039389,52,280,575,5648
1644165306.917662,-0.01001,0.011353,-0.990479,0.342992,0.386565,-0.115725,45,270,572,5584
1644165306.966046,-0.01001,0.008423,-0.991333,0.220855,0.523969,-0.054656,52,265,584,5664
1644165307.014449,-0.008362,0.009521,-0.989868,0.205588,0.523969,-0.085191,52,270,572,5600
1644165307.062871,-0.012573,0.013855,-0.991272,0.297191,0.24916,-0.115725,46,276,566,5584
1644165307.111181,-0.008789,0.00769,-0.991394,0.190321,0.340763,-0.008855,55,274,576,5696
1644165307.159571,-0.009216,0.009583,-0.992432,0.327725,0.432366,-0.054656,45,277,575,5600
1644165307.207961,-0.00946,0.009399,-0.989441,0.236122,0.523969,-0.14626,53,279,564,5648
1644165307.256332,-0.013428,0.008606,-0.991394,0.098718,0.493435,-0.069924,54,270,577,5584
1644165307.304761,-0.010986,0.010376,-0.991882,0.159786,0.462901,-0.008855,52,280,582,5552
1644165307.35312,-0.011475,0.01239,-0.989258,0.190321,0.554504,-0.192061,49,273,579,5696
1644165307.401521,-0.008728,0.012024,-0.991394,0.373527,0.478168,-0.008855,64,268,568,5648
1644165307.449931,-0.013489,0.007812,-0.991882,0.113985,0.508702,-0.115725,52,273,579,5600
1644165307.498307,-0.013184,0.010437,-0.99231,0.281924,0.401832,0.036947,48,271,571,5664
1644165307.546716,-0.010376,0.009583,-0.993225,0.159786,0.508702,-0.039389,52,263,586,5584
1644165307.595107,-0.012878,0.008118,-0.993103,0.297191,0.462901,-0.024122,51,279,585,5632
1644165307.64347,-0.009277,0.007141,-0.991211,0.266656,0.523969,-0.100458,55,283,580,5552
1644165307.691867,-0.010193,0.007874,-0.989319,0.281924,0.294962,-0.14626,42,280,577,5648
1644165307.740278,-0.008362,0.007507,-0.992065,0.190321,0.508702,0.082748,53,271,573,5648
1644165307.791712,-0.013123,0.008423,-0.990845,0.129252,0.462901,0.036947,49,270,570,5584
1644165307.842301,-0.008789,0.009949,-0.992126,0.236122,0.539237,-0.039389,39,266,576,5584
1644165307.886522,-0.011719,0.010437,-0.990662,0.098718,0.294962,-0.222595,58,274,569,5584
1644165307.982476,-0.01178,0.008911,-0.989014,0.068183,0.371298,-0.161527,55,274,573,5648
1644165308.03063,-0.00946,0.009583,-0.99292,0.159786,0.356031,-0.130992,52,273,575,5648
1644165308.086022,-0.009338,0.007507,-0.989563,0.205588,0.417099,-0.176794,51,271,580,5552
1644165308.127366,-0.010254,0.01001,-0.990601,0.159786,0.371298,-0.069924,47,280,582,5552
1644165308.175737,-0.010315,0.007996,-0.993164,0.236122,0.371298,-0.25313,55,279,571,5584
1644165308.224171,-0.009705,0.006653,-0.991455,0.312458,0.386565,-0.14626,42,280,582,5600
1644165308.272556,-0.01178,0.006714,-0.994202,0.342992,0.386565,-0.161527,55,281,573,5520
1644165308.320935,-0.010132,0.007507,-0.992249,0.220855,0.325496,-0.039389,48,276,566,5600
1644165308.369303,-0.013855,0.011108,-0.992432,0.312458,0.417099,-0.100458,42,273,577,5648
1644165308.417711,-0.011658,0.009094,-0.994568,0.220855,0.371298,-0.024122,51,257,576,5536
1644165308.466126,-0.011292,0.00824,-0.99231,0.159786,0.585038,-0.161527,47,277,572,5696
1644165308.514686,-0.009766,0.009155,-0.992065,0.159786,0.493435,-0.054656,48,274,578,5552
1644165308.565588,-0.012817,0.009094,-0.993042,0.220855,0.478168,-0.024122,48,276,562,5584
1644165308.615385,-0.009277,0.006897,-0.992493,0.236122,0.340763,0.021679,53,274,571,5584
1644165308.660528,-0.010803,0.007324,-0.992371,0.190321,0.386565,-0.039389,57,270,577,5632
1644165308.756435,-0.010193,0.009644,-0.993713,0.312458,0.386565,-0.176794,39,274,571,5648
1644165308.805149,-0.010559,0.006714,-0.990723,0.373527,0.371298,-0.176794,49,275,572,5648
1644165308.853277,-0.011108,0.011108,-0.992859,0.281924,0.462901,-0.100458,52,270,586,5584
1644165308.901656,-0.01178,0.01001,-0.991028,0.190321,0.508702,-0.008855,47,270,584,5600
1644165308.950041,-0.011658,0.008728,-0.991211,0.251389,0.447634,-0.039389,48,276,583,5584
1644165308.998417,-0.009094,0.007812,-0.992676,0.373527,0.432366,-0.192061,45,268,579,5584
1644165309.050399,-0.014404,0.010254,-0.99292,0.281924,0.432366,-0.100458,53,276,578,5600
1644165309.095197,-0.013916,0.007935,-0.99115,0.190321,0.356031,-0.14626,48,283,580,5648
1644165309.143576,-0.008667,0.008179,-0.990967,0.236122,0.462901,-0.024122,51,274,578,5600
1644165309.191963,-0.009155,0.009766,-0.990662,0.220855,0.447634,-0.008855,42,275,572,5552
1644165309.240344,-0.010498,0.009583,-0.992249,0.190321,0.508702,-0.115725,49,265,579,5600
1644165309.28872,-0.008972,0.007874,-0.992554,0.266656,0.478168,-0.14626,40,270,572,5552
1644165309.33713,-0.00708,0.009033,-0.991882,0.449863,0.447634,-0.008855,53,281,571,5648
1644165309.385517,-0.012939,0.010681,-0.994385,0.205588,0.646107,-0.054656,49,277,584,5632
1644165309.433914,-0.011963,0.008301,-0.99353,0.205588,0.356031,-0.054656,46,271,578,5552
1644165309.482327,-0.009094,0.008972,-0.992371,0.220855,0.478168,-0.192061,48,279,583,5600
1644165309.530682,-0.009399,0.00647,-0.992249,0.404061,0.294962,-0.039389,57,280,570,5648
1644165309.579076,-0.011902,0.006226,-0.993286,0.08345,0.508702,-0.176794,53,269,566,5520
1644165309.627471,-0.01123,0.010132,-0.994507,0.297191,0.447634,-0.115725,48,279,576,5664
1644165309.675967,-0.007935,0.008911,-0.993408,0.35826,0.432366,-0.222595,48,271,576,5648
1644165309.726257,-0.01178,0.009827,-0.989624,0.281924,0.340763,-0.176794,53,276,576,5584
1644165309.776541,-0.011292,0.005859,-0.99353,0.220855,0.432366,-0.069924,51,276,576,5632
1644165309.821584,-0.010986,0.007507,-0.992615,0.419328,0.386565,-0.222595,43,266,583,5552
1644165309.917838,-0.010803,0.010132,-0.993652,0.342992,0.523969,-0.085191,51,264,571,5632
1644165309.966225,-0.008545,0.009216,-0.992615,0.297191,0.356031,-0.115725,53,266,569,5584
1644165310.014885,-0.008301,0.010193,-0.993164,0.098718,0.508702,-0.115725,47,275,579,5552
1644165310.063557,-0.011902,0.009583,-0.993103,0.236122,0.539237,-0.069924,42,265,584,5600
1644165310.111379,-0.011169,0.009827,-0.993347,0.388794,0.447634,-0.130992,53,269,583,5584
1644165310.159765,-0.009277,0.011963,-0.992737,0.159786,0.356031,-0.161527,45,265,582,5600
1644165310.208151,-0.011353,0.01062,-0.993408,0.342992,0.401832,-0.054656,49,263,582,5600
1644165310.256536,-0.01123,0.011475,-0.991272,0.205588,0.356031,0.006412,49,275,584,5648
1644165310.304915,-0.011841,0.010925,-0.993591,0.312458,0.356031,-0.024122,52,277,575,5648
1644165310.353337,-0.009216,0.008911,-0.992615,0.251389,0.432366,-0.085191,48,269,569,5648
1644165310.401715,-0.011475,0.008484,-0.991943,0.312458,0.340763,-0.115725,39,274,583,5632
1644165310.450095,-0.008179,0.010193,-0.990967,0.297191,0.539237,-0.069924,47,277,570,5552
1644165310.498455,-0.01123,0.009583,-0.991333,0.190321,0.310229,-0.115725,40,273,568,5600
1644165310.546877,-0.012329,0.009277,-0.993652,0.251389,0.233893,-0.039389,60,271,569,5632
1644165310.595277,-0.01123,0.011047,-0.990723,0.190321,0.401832,-0.069924,36,269,573,5648
1644165310.64367,-0.008423,0.007996,-0.993408,0.190321,0.432366,-0.008855,52,277,568,5648
1644165310.692059,-0.013367,0.006042,-0.993103,0.205588,0.386565,-0.14626,51,271,583,5600
1644165310.740423,-0.011902,0.009888,-0.994385,0.220855,0.417099,-0.115725,48,266,578,5648
1644165310.788835,-0.012146,0.00946,-0.994934,0.266656,0.279695,-0.176794,45,277,572,5600
1644165310.837953,-0.010864,0.008545,-0.989136,0.281924,0.417099,-0.085191,45,277,575,5536
1644165310.888544,-0.007812,0.006348,-0.991638,0.327725,0.462901,-0.329466,42,280,572,5520
1644165310.938895,-0.008545,0.009155,-0.993591,0.159786,0.462901,-0.085191,57,273,572,5584
1644165310.983298,-0.012085,0.008911,-0.993652,0.342992,0.294962,-0.130992,49,270,577,5648
1644165311.079657,-0.012451,0.010986,-0.992554,0.205588,0.523969,-0.130992,52,275,575,5536
1644165311.12757,-0.01123,0.008118,-0.992737,0.159786,0.279695,-0.039389,55,274,569,5552
1644165311.175974,-0.013855,0.010132,-0.99231,0.037649,0.462901,0.067481,49,277,579,5600
1644165311.224354,-0.011597,0.009705,-0.991333,0.342992,0.371298,-0.100458,54,275,577,5632
1644165311.272732,-0.004639,0.008179,-0.992126,0.236122,0.462901,-0.161527,45,280,575,5648
1644165311.321133,-0.009705,0.00824,-0.993896,0.266656,0.401832,-0.115725,48,286,571,5584
1644165311.369531,-0.010071,0.00946,-0.99115,0.373527,0.371298,-0.100458,61,270,570,5536
1644165311.417915,-0.011292,0.011353,-0.990723,0.220855,0.539237,-0.100458,49,270,582,5584
1644165311.466295,-0.010498,0.008484,-0.991577,0.205588,0.294962,-0.024122,46,276,576,5600
1644165311.514693,-0.010681,0.007141,-0.991455,0.220855,0.386565,-0.237863,52,277,579,5648
1644165311.563092,-0.011353,0.007446,-0.991028,0.434595,0.371298,-0.192061,42,270,561,5536
1644165311.611475,-0.008667,0.010315,-0.992065,0.190321,0.371298,-0.161527,54,270,582,5584
1644165311.659866,-0.010498,0.009094,-0.993225,0.281924,0.478168,-0.222595,49,268,579,5648
1644165311.708252,-0.013306,0.008301,-0.992065,0.190321,0.371298,0.12855,49,275,577,5600
1644165311.756607,-0.011414,0.009155,-0.992554,0.312458,0.264427,-0.100458,59,280,572,5600
1644165311.805066,-0.009583,0.012268,-0.989685,0.175053,0.264427,-0.085191,58,274,580,5632
1644165311.853442,-0.009155,0.011353,-0.991394,0.373527,0.432366,0.067481,58,279,580,5584
1644165311.902236,-0.010315,0.006836,-0.992432,0.129252,0.371298,-0.100458,47,277,579,5536
1644165311.950418,-0.008667,0.007629,-0.992676,0.236122,0.569771,-0.14626,46,279,580,5648
1644165312.048342,-0.011414,0.006958,-0.991699,0.434595,0.371298,-0.024122,49,280,575,5584
1644165312.095392,-0.008911,0.008362,-0.993896,0.35826,0.386565,0.006412,57,260,577,5600
1644165312.143798,-0.006897,0.008179,-0.992493,0.205588,0.478168,-0.024122,45,263,570,5584
1644165312.192388,-0.011536,0.010437,-0.995239,0.312458,0.340763,-0.176794,39,271,571,5552
1644165312.240538,-0.011414,0.008179,-0.993408,0.220855,0.356031,-0.024122,49,275,572,5648
1644165312.288948,-0.012756,0.009338,-0.991455,0.190321,0.539237,-0.069924,46,264,569,5648
1644165312.337325,-0.012878,0.012024,-0.993774,0.129252,0.478168,0.006412,45,270,572,5600
1644165312.385691,-0.010376,0.009033,-0.994141,0.35826,0.462901,-0.100458,54,275,582,5584
1644165312.434103,-0.010132,0.008606,-0.995056,0.404061,0.523969,-0.100458,53,276,578,5536
1644165312.483097,-0.009766,0.008789,-0.992859,0.205588,0.432366,-0.130992,49,277,575,5584
1644165312.530876,-0.013,0.010559,-0.991638,0.159786,0.279695,0.036947,43,269,573,5664
1644165312.579283,-0.008057,0.006836,-0.993835,0.251389,0.340763,-0.222595,51,266,573,5648
1644165312.627669,-0.011169,0.007507,-0.99115,0.113985,0.401832,-0.100458,51,264,571,5552
1644165312.676062,-0.007629,0.007446,-0.99231,0.373527,0.401832,-0.069924,43,271,583,5584
1644165312.72445,-0.011658,0.008728,-0.992249,0.144519,0.523969,-0.054656,54,270,575,5648
1644165312.772852,-0.008972,0.00885,-0.990479,0.144519,0.447634,-0.085191,40,277,575,5600
1644165312.821229,-0.010986,0.008362,-0.991089,0.08345,0.294962,-0.115725,55,279,569,5632
1644165312.869638,-0.012451,0.006958,-0.992737,0.312458,0.432366,-0.054656,45,270,575,5584
1644165312.918589,-0.009888,0.010986,-0.994141,0.251389,0.417099,-0.115725,51,269,573,5584
1644165312.968683,-0.011597,0.006531,-0.992737,0.190321,0.264427,-0.039389,45,263,584,5584
1644165313.018951,-0.011658,0.006897,-0.993347,0.251389,0.493435,-0.130992,49,270,577,5648
1644165313.066524,-0.011047,0.010254,-0.993896,0.266656,0.401832,-0.069924,49,277,582,5632
1644165313.159943,-0.008179,0.011292,-0.990967,0.205588,0.447634,-0.14626,46,274,578,5584
1644165313.208338,-0.007507,0.009399,-0.992554,0.297191,0.401832,-0.054656,59,273,582,5536
1644165313.256729,-0.008789,0.011353,-0.993103,0.388794,0.493435,-0.100458,42,268,575,5584
1644165313.305167,-0.009583,0.009338,-0.991699,0.205588,0.447634,-0.237863,48,271,580,5552
1644165313.353529,-0.00946,0.00946,-0.993652,0.159786,0.447634,-0.024122,46,271,576,5584
1644165313.401914,-0.010803,0.008301,-0.991821,0.266656,0.310229,-0.14626,49,277,577,5600
1644165313.450291,-0.012268,0.008606,-0.992981,0.46513,0.340763,-0.14626,40,275,565,5600
1644165313.498656,-0.00946,0.007996,-0.993835,0.236122,0.523969,-0.130992,48,274,573,5584
1644165313.547084,-0.009766,0.009094,-0.991455,0.159786,0.325496,-0.085191,45,275,575,5536
1644165313.595482,-0.009644,0.009888,-0.990417,0.052916,0.447634,-0.024122,54,273,579,5552
1644165313.643883,-0.010681,0.006897,-0.992371,0.312458,0.325496,-0.069924,42,270,575,5648
1644165313.692277,-0.011536,0.009338,-0.990356,0.281924,0.325496,-0.008855,49,268,582,5584
1644165313.740646,-0.00885,0.010864,-0.991882,0.220855,0.356031,-0.085191,51,271,576,5648
1644165313.789089,-0.011658,0.006714,-0.992004,0.297191,0.508702,-0.222595,42,268,579,5552
1644165313.837468,-0.008301,0.009216,-0.988892,0.175053,0.325496,-0.024122,46,274,573,5632
1644165313.885852,-0.010925,0.009827,-0.992371,0.297191,0.310229,-0.161527,53,276,576,5600
1644165313.93424,-0.008972,0.007751,-0.992981,0.129252,0.325496,-0.100458,49,275,577,5648
1644165313.982971,-0.010193,0.009094,-0.993164,0.266656,0.508702,0.021679,49,275,570,5584
1644165314.031037,-0.011169,0.008789,-0.990845,0.297191,0.24916,-0.130992,51,281,576,5600
1644165314.08775,-0.012085,0.011108,-0.991333,0.266656,0.401832,-0.192061,45,270,575,5600
1644165314.130266,-0.00946,0.008301,-0.991272,0.175053,0.432366,-0.115725,48,274,571,5648
1644165314.180366,-0.012207,0.01123,-0.992737,0.342992,0.371298,0.036947,52,270,575,5600
1644165314.225502,-0.013367,0.009338,-0.98999,0.35826,0.585038,-0.161527,48,276,578,5584
1644165314.321317,-0.009521,0.011108,-0.992859,0.297191,0.310229,-0.024122,48,269,576,5600
1644165314.36971,-0.015259,0.007874,-0.992065,0.159786,0.371298,-0.298931,51,274,564,5584
1644165314.418095,-0.01001,0.009583,-0.990845,0.266656,0.447634,-0.069924,48,281,583,5584
1644165314.466481,-0.01123,0.008484,-0.992676,0.220855,0.417099,-0.130992,49,275,575,5584
1644165314.514885,-0.010376,0.008118,-0.990723,0.312458,0.279695,-0.237863,53,276,578,5584
1644165314.563282,-0.013306,0.007629,-0.994385,0.251389,0.615573,-0.100458,49,268,570,5584
1644165314.61168,-0.010254,0.007507,-0.992615,0.297191,0.432366,-0.085191,51,276,573,5584
1644165314.660056,-0.010376,0.008789,-0.993469,0.159786,0.539237,-0.222595,47,260,565,5552
1644165314.708446,-0.013611,0.006714,-0.990601,0.113985,0.478168,-0.115725,51,264,587,5600
1644165314.756842,-0.010132,0.007751,-0.99292,0.327725,0.462901,0.052214,39,276,578,5600
1644165314.80533,-0.009521,0.010864,-0.992554,0.129252,0.340763,-0.100458,49,273,568,5552
1644165314.853675,-0.012878,0.010376,-0.99231,0.419328,0.371298,0.067481,61,268,568,5632
1644165314.902055,-0.011719,0.008362,-0.993042,0.251389,0.508702,-0.115725,53,274,573,5632
1644165314.95043,-0.012146,0.010132,-0.993835,0.190321,0.386565,-0.115725,53,276,576,5600
1644165314.998827,-0.010864,0.009766,-0.99292,0.327725,0.371298,-0.161527,40,268,584,5648
1644165315.056357,-0.011963,0.010498,-0.994995,0.373527,0.432366,-0.039389,59,273,575,5600
1644165315.099427,-0.010986,0.009888,-0.994629,0.175053,0.539237,-0.069924,47,275,593,5600
1644165315.143962,-0.009399,0.009033,-0.989197,0.236122,0.432366,-0.115725,48,264,571,5648
1644165315.192532,-0.012573,0.007202,-0.993286,0.190321,0.294962,-0.192061,60,274,578,5584
1644165315.241355,-0.010254,0.007446,-0.993652,0.098718,0.294962,-0.222595,46,271,587,5584
1644165315.292391,-0.012268,0.007385,-0.99353,0.205588,0.447634,-0.207328,54,258,572,5648
1644165315.342236,-0.011536,0.008667,-0.990112,0.037649,0.310229,-0.024122,47,275,570,5648
1644165315.387068,-0.01239,0.00708,-0.994507,0.251389,0.478168,-0.100458,46,276,578,5584
1644165315.482704,-0.012573,0.00824,-0.994202,0.220855,0.432366,-0.039389,47,273,575,5584
1644165315.531081,-0.009338,0.011108,-0.991638,0.113985,0.401832,0.082748,47,273,570,5584
1644165315.579466,-0.011475,0.007935,-0.994507,0.144519,0.539237,-0.069924,47,277,575,5600
1644165315.627857,-0.007629,0.006836,-0.991882,0.220855,0.493435,0.082748,46,288,564,5552
1644165315.676246,-0.009033,0.008667,-0.993408,0.297191,0.371298,-0.268397,48,276,571,5584
1644165315.724659,-0.008423,0.007202,-0.994507,0.373527,0.432366,-0.222595,45,268,570,5584
1644165315.773046,-0.010864,0.011353,-0.991699,0.236122,0.417099,-0.25313,47,277,582,5600
1644165315.821475,-0.011536,0.010864,-0.992981,0.175053,0.478168,-0.039389,49,282,572,5584
1644165315.869852,-0.010254,0.008484,-0.993835,0.266656,0.371298,-0.085191,39,269,569,5600
1644165315.918245,-0.011963,0.010376,-0.992065,0.190321,0.401832,-0.069924,49,282,570,5584
1644165315.96663,-0.007874,0.012512,-0.992493,0.129252,0.310229,-0.069924,47,277,577,5584
1644165316.015153,-0.008606,0.01001,-0.992737,0.236122,0.279695,-0.100458,51,293,583,5648
1644165316.075357,-0.013062,0.008606,-0.992981,0.281924,0.554504,-0.069924,52,275,582,5584
1644165316.111776,-0.009949,0.008057,-0.992432,0.434595,0.478168,-0.14626,46,274,573,5648
1644165316.16032,-0.015198,0.008667,-0.993042,0.35826,0.523969,-0.14626,47,265,575,5584
1644165316.209888,-0.009033,0.010437,-0.991882,0.205588,0.386565,-0.268397,59,265,570,5600
1644165316.260073,-0.010132,0.006226,-0.990662,0.373527,0.447634,-0.115725,45,268,584,5600
1644165316.310182,-0.012512,0.011536,-0.99292,0.388794,0.447634,0.082748,51,269,571,5584
1644165316.402388,-0.014526,0.010559,-0.990417,0.297191,0.310229,-0.024122,41,269,583,5552
1644165316.450473,-0.008118,0.008789,-0.991028,0.129252,0.462901,-0.192061,49,270,579,5584
1644165316.498884,-0.009399,0.00885,-0.994141,0.236122,0.432366,-0.115725,53,276,583,5584
1644165316.547271,-0.011475,0.007263,-0.991333,0.190321,0.310229,-0.054656,47,275,563,5600
1644165316.595657,-0.010071,0.011292,-0.993774,0.281924,0.386565,-0.237863,59,275,568,5584
1644165316.644056,-0.010315,0.008057,-0.993652,0.251389,0.401832,-0.130992,46,274,569,5600
1644165316.692467,-0.013306,0.009766,-0.994202,0.129252,0.508702,-0.024122,57,258,582,5552
1644165316.740838,-0.008484,0.009521,-0.994507,0.327725,0.371298,-0.085191,49,273,570,5664
1644165316.789207,-0.006714,0.008179,-0.992126,0.098718,0.340763,-0.115725,59,268,577,5648
1644165316.837652,-0.010803,0.009949,-0.99292,0.251389,0.447634,-0.069924,53,274,571,5584
1644165316.886038,-0.010071,0.007935,-0.991882,0.159786,0.600305,-0.100458,57,275,575,5648
1644165316.934465,-0.009766,0.011536,-0.992432,0.266656,0.325496,-0.207328,40,268,570,5600
1644165316.982836,-0.010376,0.009155,-0.990479,0.266656,0.310229,-0.25313,45,275,572,5552
1644165317.031216,-0.012329,0.01001,-0.993164,0.236122,0.401832,0.052214,55,283,578,5648
1644165317.083647,-0.01062,0.009521,-0.992371,0.35826,0.401832,-0.14626,58,276,583,5584
1644165317.127974,-0.009888,0.007996,-0.989807,0.236122,0.386565,-0.039389,54,277,577,5600
1644165317.176353,-0.009644,0.011414,-0.988586,0.236122,0.417099,0.006412,52,275,577,5584
1644165317.22475,-0.010437,0.008789,-0.994202,0.281924,0.569771,-0.192061,52,277,577,5664
1644165317.273394,-0.007629,0.011047,-0.994141,0.251389,0.386565,-0.161527,55,281,573,5584
1644165317.321717,-0.012024,0.007874,-0.991211,0.327725,0.432366,-0.054656,52,270,577,5648
1644165317.372334,-0.010498,0.007324,-0.99292,0.404061,0.325496,-0.115725,54,275,577,5648
1644165317.422322,-0.010742,0.010742,-0.991638,0.281924,0.264427,-0.283664,46,279,583,5632
1644165317.467537,-0.014709,0.008728,-0.991699,0.159786,0.478168,-0.222595,43,279,571,5584
1644165317.563488,-0.009338,0.011414,-0.991516,0.251389,0.508702,0.098015,53,269,571,5536
1644165317.611843,-0.012207,0.007446,-0.991638,0.144519,0.447634,-0.100458,47,280,570,5600
1644165317.660238,-0.010498,0.009644,-0.991577,0.205588,0.310229,-0.192061,52,275,565,5552
1644165317.70864,-0.010376,0.010132,-0.989868,0.144519,0.203359,-0.130992,52,282,575,5648
1644165317.757012,-0.008423,0.006042,-0.994263,0.297191,0.218626,-0.161527,48,271,573,5552
1644165317.805412,-0.010376,0.011536,-0.990723,0.236122,0.371298,-0.176794,58,264,576,5584
1644165317.853845,-0.011902,0.009216,-0.993591,0.251389,0.417099,-0.176794,46,276,569,5584
1644165317.902262,-0.008789,0.007996,-0.992737,0.236122,0.310229,-0.130992,53,276,569,5552
1644165317.950634,-0.009949,0.007507,-0.992676,0.251389,0.417099,-0.024122,48,264,583,5600
1644165317.998997,-0.009216,0.00824,-0.991089,0.129252,0.523969,-0.024122,53,274,578,5648
1644165318.053015,-0.00885,0.010681,-0.989258,0.098718,0.386565,-0.207328,47,277,577,5584
1644165318.095825,-0.011963,0.009155,-0.991821,0.144519,0.478168,-0.008855,46,271,576,5584
1644165318.144171,-0.01062,0.010742,-0.98938,0.404061,0.523969,-0.130992,61,275,572,5600
1644165318.192566,-0.008606,0.009155,-0.993408,0.281924,0.417099,-0.024122,55,279,583,5584
1644165318.240909,-0.008789,0.010803,-0.991089,0.098718,0.615573,-0.100458,53,274,580,5648
1644165318.289319,-0.009521,0.008118,-0.991821,0.327725,0.508702,-0.008855,52,277,582,5600
1644165318.33771,-0.010132,0.011169,-0.991089,0.541466,0.401832,-0.192061,51,269,583,5552
1644165318.386097,-0.010315,0.00769,-0.991577,0.175053,0.447634,-0.039389,62,276,583,5584
1644165318.434499,-0.010742,0.01062,-0.992676,0.113985,0.462901,-0.100458,51,266,571,5600
1644165318.482933,-0.010132,0.009399,-0.988708,0.342992,0.478168,-0.085191,66,270,575,5600
1644165318.533091,-0.009949,0.008484,-0.991394,0.327725,0.432366,-0.130992,62,276,580,5584
1644165318.583624,-0.011902,0.008972,-0.991333,0.08345,0.447634,-0.024122,49,270,575,5584
1644165318.628694,-0.009766,0.007446,-0.991821,0.159786,0.539237,-0.008855,51,269,571,5600
1644165318.724892,-0.012573,0.006287,-0.989441,0.098718,0.508702,-0.054656,58,276,576,5552
1644165318.773232,-0.011597,0.009216,-0.992981,0.419328,0.417099,-0.054656,47,268,568,5536
1644165318.821613,-0.010498,0.011108,-0.991699,0.251389,0.462901,-0.039389,48,269,569,5584
1644165318.870044,-0.010132,0.010315,-0.993652,0.251389,0.401832,-0.008855,43,274,578,5600
1644165318.918431,-0.00946,0.010193,-0.990662,0.388794,0.386565,-0.039389,47,270,575,5632
1644165318.966823,-0.010193,0.010193,-0.993225,0.297191,0.417099,-0.222595,52,268,577,5584
1644165319.015216,-0.008972,0.009705,-0.991699,0.205588,0.386565,-0.176794,40,275,575,5600
1644165319.063692,-0.012024,0.007446,-0.992859,0.159786,0.478168,-0.176794,48,274,580,5648
1644165319.111964,-0.011963,0.009949,-0.992188,0.205588,0.401832,-0.069924,54,268,577,5584
1644165319.160365,-0.010742,0.010437,-0.99231,0.037649,0.462901,-0.069924,43,276,578,5632
1644165319.208745,-0.011536,0.008911,-0.992126,0.327725,0.417099,-0.130992,49,280,570,5552
1644165319.257095,-0.01178,0.009094,-0.992249,0.236122,0.432366,-0.085191,52,273,584,5648
1644165319.305488,-0.011169,0.008972,-0.991516,0.220855,0.401832,-0.176794,46,279,578,5584
1644165319.353906,-0.011536,0.010437,-0.989319,0.175053,0.539237,-0.130992,55,269,576,5664
1644165319.402311,-0.00769,0.010742,-0.990784,0.327725,0.432366,-0.115725,55,274,580,5632
1644165319.450689,-0.013184,0.008362,-0.989746,0.236122,0.310229,-0.192061,45,287,572,5584
1644165319.49906,-0.009827,0.00769,-0.991333,0.35826,0.401832,-0.14626,42,275,575,5600
1644165319.547471,-0.010742,0.008606,-0.99353,0.266656,0.24916,-0.130992,52,270,577,5648
1644165319.595854,-0.007996,0.008118,-0.992798,0.266656,0.386565,-0.069924,42,280,584,5584
1644165319.644911,-0.010376,0.005188,-0.995361,0.373527,0.310229,-0.100458,59,270,572,5696
1644165319.695128,-0.009827,0.009155,-0.99115,0.449863,0.493435,0.082748,53,269,571,5600
1644165319.745253,-0.013062,0.009033,-0.992981,0.342992,0.462901,-0.176794,48,281,573,5552
1644165319.790378,-0.010498,0.008972,-0.992249,0.159786,0.63084,-0.085191,53,271,576,5584
1644165319.886238,-0.010925,0.007263,-0.992859,0.297191,0.478168,-0.008855,53,271,576,5600
1644165319.934896,-0.011597,0.007202,-0.990906,0.175053,0.447634,-0.298931,55,262,578,5600
1644165319.983033,-0.012085,0.00946,-0.992981,0.251389,0.539237,0.067481,46,281,569,5600
1644165320.031419,-0.008728,0.010132,-0.991516,0.205588,0.356031,-0.008855,51,274,573,5584
1644165320.084343,-0.011902,0.01178,-0.992554,0.251389,0.447634,-0.283664,45,277,582,5552
1644165320.128199,-0.010376,0.007141,-0.990967,0.205588,0.356031,-0.069924,49,273,582,5632
1644165320.176537,-0.012146,0.009888,-0.991821,0.205588,0.356031,-0.115725,48,271,562,5600
1644165320.225026,-0.011108,0.007996,-0.995239,0.297191,0.417099,-0.130992,48,271,569,5648
1644165320.273314,-0.008972,0.009827,-0.99469,0.205588,0.493435,-0.176794,47,273,586,5584
1644165320.321712,-0.011902,0.009277,-0.990845,0.08345,0.417099,0.006412,49,282,577,5648
1644165320.370108,-0.013367,0.009155,-0.991943,0.449863,0.356031,-0.130992,54,268,577,5584
1644165320.418498,-0.008606,0.00885,-0.990723,0.205588,0.432366,-0.100458,47,268,570,5632
1644165320.466893,-0.010376,0.010803,-0.992676,0.312458,0.462901,-0.115725,54,282,579,5632
1644165320.5153,-0.010437,0.006287,-0.993103,0.205588,0.508702,-0.176794,45,273,579,5584
1644165320.565545,-0.009155,0.011292,-0.993164,0.175053,0.340763,-0.039389,51,274,587,5536
1644165320.615889,-0.010925,0.00946,-0.994629,0.297191,0.401832,-0.008855,51,271,569,5584
1644165320.660964,-0.011047,0.010803,-0.993286,0.08345,0.462901,-0.069924,46,271,569,5600
1644165320.757209,-0.010864,0.007996,-0.99292,0.266656,0.462901,-0.207328,51,281,569,5536
1644165320.805589,-0.008301,0.007202,-0.99292,0.220855,0.523969,-0.024122,53,271,578,5600
1644165320.854039,-0.011108,0.007629,-0.993408,0.297191,0.432366,-0.130992,36,266,571,5600
1644165320.902444,-0.01001,0.008362,-0.98999,0.312458,0.417099,-0.130992,60,271,578,5600
1644165320.950839,-0.008972,0.010071,-0.992798,0.205588,0.462901,-0.008855,49,273,584,5552
1644165320.999197,-0.012756,0.009216,-0.99292,0.175053,0.371298,-0.115725,51,271,573,5536
1644165321.052722,-0.014526,0.010254,-0.990234,0.022382,0.386565,-0.069924,49,270,565,5552
1644165321.095968,-0.012756,0.01001,-0.991028,0.068183,0.340763,-0.054656,49,273,577,5552
1644165321.144372,-0.010071,0.006165,-0.992126,0.205588,0.478168,-0.008855,45,275,577,5648
1644165321.19275,-0.010071,0.009766,-0.99054,0.144519,0.386565,-0.054656,54,268,570,5584
1644165321.241132,-0.01178,0.006531,-0.993835,0.266656,0.432366,0.067481,53,283,580,5696
1644165321.289509,-0.009583,0.008667,-0.991333,0.159786,0.569771,-0.039389,52,282,575,5600
1644165321.337917,-0.012146,0.007324,-0.992798,0.312458,0.432366,-0.130992,43,276,576,5552
1644165321.386297,-0.009766,0.010132,-0.992737,0.281924,0.508702,-0.207328,42,265,575,5472
1644165321.434698,-0.012024,0.00946,-0.994507,0.159786,0.371298,-0.024122,47,275,568,5584
1644165321.483092,-0.013794,0.012085,-0.993042,0.190321,0.401832,-0.130992,47,268,584,5584
1644165321.531468,-0.009888,0.011658,-0.991516,0.266656,0.432366,-0.100458,41,274,576,5648
1644165321.57986,-0.009033,0.008118,-0.992371,0.327725,0.508702,-0.115725,51,279,573,5648
1644165321.628264,-0.008179,0.012207,-0.993591,0.220855,0.386565,-0.207328,58,279,569,5584
1644165321.677102,-0.008972,0.005981,-0.99054,0.220855,0.432366,-0.054656,42,273,572,5600
1644165321.72769,-0.012085,0.009216,-0.994995,0.098718,0.401832,-0.039389,48,274,578,5600
1644165321.778333,-0.01062,0.007751,-0.993652,0.144519,0.401832,0.067481,47,277,568,5552
1644165321.823223,-0.008484,0.010193,-0.992493,0.266656,0.401832,-0.237863,55,266,569,5584
1644165321.918637,-0.008423,0.007751,-0.991699,0.220855,0.462901,0.082748,54,273,568,5536
1644165321.967012,-0.01001,0.011292,-0.989075,0.449863,0.386565,-0.176794,42,265,586,5536
1644165322.015416,-0.008972,0.010681,-0.992188,0.266656,0.478168,-0.085191,42,268,582,5600
1644165322.063885,-0.013367,0.010681,-0.994324,0.098718,0.554504,-0.024122,46,283,576,5552
1644165322.11217,-0.010742,0.012146,-0.992371,0.205588,0.478168,-0.115725,47,277,579,5696
1644165322.160553,-0.013916,0.006714,-0.993225,0.236122,0.462901,-0.237863,54,277,577,5600
1644165322.208929,-0.012756,0.009583,-0.991333,0.236122,0.386565,-0.161527,59,277,586,5600
1644165322.257292,-0.009521,0.010803,-0.991028,0.190321,0.340763,-0.130992,49,273,577,5648
1644165322.305712,-0.01123,0.010864,-0.992126,0.144519,0.478168,-0.039389,48,271,569,5584
1644165322.354132,-0.011719,0.009705,-0.992798,0.297191,0.493435,-0.14626,49,265,579,5600
1644165322.402483,-0.00769,0.007324,-0.991882,0.220855,0.432366,-0.130992,57,277,577,5584
1644165322.450904,-0.012268,0.00592,-0.989807,0.190321,0.325496,-0.039389,47,275,577,5600
1644165322.499294,-0.011292,0.010193,-0.989502,0.251389,0.462901,0.021679,35,285,568,5536
1644165322.547664,-0.011414,0.007935,-0.991272,0.175053,0.585038,-0.115725,48,281,585,5552
1644165322.596058,-0.009705,0.010986,-0.990967,0.35826,0.310229,-0.161527,54,280,589,5552
1644165322.644451,-0.011597,0.008667,-0.994629,0.236122,0.432366,-0.237863,52,285,575,5584
1644165322.692848,-0.008789,0.009705,-0.992554,0.419328,0.447634,-0.14626,51,266,580,5552
1644165322.741239,-0.011536,0.006104,-0.993713,0.144519,0.356031,-0.085191,58,257,564,5600
1644165322.790408,-0.009094,0.008545,-0.989502,0.144519,0.401832,-0.024122,48,269,573,5584
1644165322.841308,-0.011841,0.009583,-0.991455,0.297191,0.447634,-0.069924,65,264,564,5552
1644165322.891586,-0.010559,0.00769,-0.995178,0.190321,0.356031,0.006412,51,269,580,5584
1644165322.936112,-0.009216,0.00885,-0.99353,0.266656,0.401832,-0.024122,52,280,568,5584
1644165323.031602,-0.011597,0.010193,-0.991638,0.236122,0.539237,-0.176794,54,275,575,5648
1644165323.083341,-0.010864,0.008728,-0.992554,0.312458,0.371298,-0.024122,57,268,572,5552
1644165323.128342,-0.009521,0.012634,-0.993042,0.190321,0.417099,-0.100458,52,280,577,5600
1644165323.176738,-0.009766,0.009338,-0.991455,0.266656,0.493435,-0.024122,48,269,576,5584
1644165323.225233,-0.010864,0.008179,-0.991882,0.205588,0.432366,-0.069924,43,286,569,5648
1644165323.27351,-0.011353,0.012085,-0.99292,0.281924,0.615573,-0.024122,51,271,578,5648
1644165323.321919,-0.013306,0.011597,-0.991882,0.159786,0.478168,-0.008855,58,276,578,5632
1644165323.370303,-0.013489,0.007507,-0.991516,0.297191,0.447634,-0.024122,61,280,577,5584
1644165323.418684,-0.007568,0.011292,-0.98999,0.236122,0.310229,-0.176794,46,274,587,5536
1644165323.467085,-0.010254,0.01062,-0.992798,0.342992,0.417099,-0.024122,46,283,576,5584
1644165323.515432,-0.011719,0.008545,-0.99054,0.144519,0.24916,0.021679,51,269,573,5600
1644165323.564131,-0.011902,0.011108,-0.989563,0.159786,0.24916,-0.085191,53,274,573,5600
1644165323.613443,-0.009094,0.009888,-0.990356,0.129252,0.294962,0.021679,42,260,572,5648
1644165323.663689,-0.011597,0.008606,-0.99176,0.312458,0.24916,-0.054656,53,274,566,5648
1644165323.713998,-0.01062,0.009644,-0.99353,0.266656,0.417099,-0.024122,48,271,583,5648
1644165323.805787,-0.010681,0.008972,-0.993164,0.312458,0.462901,-0.130992,51,276,564,5552
1644165323.85427,-0.013489,0.005432,-0.993469,0.251389,0.401832,-0.054656,54,263,568,5600
1644165323.902639,-0.010803,0.013245,-0.988831,0.35826,0.478168,-0.176794,43,281,583,5552
1644165323.951021,-0.011047,0.011719,-0.991394,0.190321,0.539237,-0.024122,53,276,578,5552
1644165323.999403,-0.010315,0.008972,-0.98761,0.327725,0.371298,-0.161527,57,265,577,5584
1644165324.052661,-0.009888,0.008667,-0.993225,0.190321,0.386565,-0.085191,52,277,584,5552
1644165324.096141,-0.009033,0.009766,-0.992737,0.373527,0.447634,-0.039389,49,265,577,5584
1644165324.144523,-0.008789,0.009033,-0.994202,0.205588,0.462901,-0.069924,55,274,576,5584
1644165324.19294,-0.013306,0.007874,-0.991943,0.251389,0.493435,-0.115725,49,275,584,5552
1644165324.241326,-0.009033,0.008667,-0.991089,0.251389,0.325496,-0.161527,46,279,571,5648
1644165324.289696,-0.013,0.00946,-0.99408,0.251389,0.325496,-0.085191,51,276,590,5584
1644165324.338116,-0.014404,0.007019,-0.994507,0.205588,0.356031,-0.039389,45,275,568,5584
1644165324.386497,-0.012939,0.007446,-0.991455,0.190321,0.447634,-0.115725,52,270,582,5584
1644165324.434914,-0.012512,0.012695,-0.989319,0.190321,0.493435,-0.115725,52,277,579,5600
1644165324.483265,-0.009155,0.009338,-0.991272,0.251389,0.264427,-0.115725,43,276,573,5600
1644165324.531643,-0.010559,0.009338,-0.992371,0.159786,0.172824,-0.054656,41,279,576,5600
1644165324.580055,-0.013245,0.007202,-0.994812,0.236122,0.493435,-0.161527,60,276,576,5600
1644165324.628435,-0.009521,0.009216,-0.987793,0.327725,0.401832,-0.176794,48,274,576,5600
1644165324.676835,-0.010681,0.010925,-0.992554,0.175053,0.523969,-0.14626,54,275,575,5552
1644165324.725316,-0.010315,0.01062,-0.993469,0.220855,0.432366,-0.14626,54,265,577,5600
1644165324.7755,-0.009155,0.010376,-0.98999,0.327725,0.218626,-0.115725,48,271,580,5600
1644165324.82605,-0.010071,0.00946,-0.992188,0.236122,0.417099,-0.100458,54,268,572,5552
1644165324.871191,-0.010071,0.008057,-0.994324,0.205588,0.417099,-0.054656,48,274,578,5584
1644165324.967226,-0.013062,0.007141,-0.991272,0.236122,0.325496,-0.054656,46,276,573,5552
1644165325.015577,-0.013733,0.006409,-0.995178,0.236122,0.569771,-0.14626,53,281,569,5664
1644165325.064085,-0.010803,0.009949,-0.991516,0.236122,0.401832,-0.176794,46,276,580,5584
1644165325.112429,-0.011047,0.008667,-0.99176,0.251389,0.478168,-0.085191,55,266,569,5552
1644165325.160738,-0.011841,0.00885,-0.991516,0.297191,0.447634,-0.115725,54,273,575,5600
1644165325.209123,-0.009521,0.008545,-0.992737,0.434595,0.371298,0.021679,52,273,572,5664
1644165325.257491,-0.011108,0.009521,-0.990295,0.342992,0.417099,0.006412,52,285,575,5600
1644165325.305912,-0.006592,0.009094,-0.990723,0.297191,0.310229,-0.100458,48,271,578,5600
1644165325.354306,-0.012451,0.009949,-0.993713,0.144519,0.417099,-0.085191,45,270,577,5584
1644165325.402706,-0.009521,0.010071,-0.991455,0.220855,0.569771,-0.115725,47,270,572,5552
1644165325.451082,-0.010315,0.010864,-0.993286,0.068183,0.340763,-0.039389,47,277,577,5584
1644165325.499478,-0.011536,0.007446,-0.99115,0.220855,0.432366,-0.130992,52,273,572,5648
1644165325.547866,-0.011169,0.009766,-0.990417,0.46513,0.371298,-0.085191,58,269,573,5584
1644165325.596251,-0.011841,0.011414,-0.992737,0.159786,0.432366,-0.115725,45,280,577,5632
1644165325.644646,-0.009399,0.007019,-0.993591,0.098718,0.340763,-0.024122,52,270,577,5632
1644165325.693051,-0.01178,0.008423,-0.991882,0.08345,0.386565,-0.207328,49,263,570,5648
1644165325.741429,-0.010742,0.011658,-0.992676,0.327725,0.478168,-0.008855,48,271,578,5584
1644165325.789812,-0.010681,0.01001,-0.992188,0.144519,0.478168,-0.085191,46,274,578,5648
1644165325.838715,-0.009766,0.006287,-0.992004,0.190321,0.462901,-0.130992,45,280,577,5632
1644165325.889051,-0.010132,0.012329,-0.991455,0.236122,0.417099,-0.069924,48,264,578,5648
1644165325.939798,-0.01062,0.007874,-0.992249,0.297191,0.24916,-0.161527,60,266,576,5600
1644165325.98401,-0.009827,0.010132,-0.991943,0.175053,0.371298,-0.039389,51,279,564,5584
1644165326.080235,-0.008301,0.009705,-0.993469,0.236122,0.371298,-0.14626,59,270,584,5664
1644165326.128581,-0.010315,0.01001,-0.992249,0.129252,0.371298,-0.115725,45,280,565,5552
1644165326.176943,-0.010254,0.00769,-0.991943,0.266656,0.386565,-0.14626,48,269,569,5648
1644165326.22532,-0.009399,0.008484,-0.993347,0.281924,0.478168,-0.176794,41,281,576,5552
1644165326.273701,-0.01123,0.007874,-0.990295,0.068183,0.462901,-0.039389,39,274,580,5648
1644165326.322164,-0.012695,0.007507,-0.991333,0.266656,0.294962,0.036947,48,276,576,5600
1644165326.370501,-0.009705,0.008728,-0.991272,0.297191,0.523969,-0.069924,49,275,568,5648
1644165326.41889,-0.007996,0.010803,-0.993469,0.251389,0.523969,-0.100458,58,266,573,5632
1644165326.467276,-0.012634,0.009277,-0.990662,0.312458,0.325496,-0.054656,48,266,576,5600
1644165326.51567,-0.009888,0.007812,-0.992981,0.159786,0.401832,-0.192061,48,269,576,5584
1644165326.564029,-0.009094,0.010071,-0.991821,0.190321,0.325496,-0.237863,61,280,572,5600
1644165326.612459,-0.010254,0.007324,-0.992249,0.266656,0.539237,0.006412,46,271,576,5584
1644165326.660845,-0.011292,0.009583,-0.995422,0.175053,0.493435,-0.100458,54,273,577,5632
1644165326.709229,-0.007568,0.007324,-0.994019,0.236122,0.417099,-0.237863,51,271,585,5584
1644165326.757597,-0.011963,0.010376,-0.992859,0.251389,0.539237,-0.207328,67,274,576,5648
1644165326.806007,-0.013428,0.007629,-0.994385,0.159786,0.447634,-0.115725,49,270,575,5584
1644165326.854444,-0.011292,0.009827,-0.991455,0.129252,0.371298,0.021679,51,271,583,5536
1644165326.902875,-0.011414,0.010864,-0.993958,0.251389,0.447634,-0.024122,53,271,569,5648
1644165326.951547,-0.010132,0.007874,-0.993225,0.236122,0.371298,-0.115725,47,277,586,5600
1644165327.001852,-0.009338,0.007202,-0.992676,0.297191,0.371298,-0.069924,47,277,561,5520
1644165327.096377,-0.008606,0.011047,-0.99353,0.373527,0.386565,-0.039389,59,270,582,5648
1644165327.145186,-0.01355,0.007385,-0.992615,0.205588,0.264427,0.098015,55,271,573,5632
1644165327.193142,-0.01123,0.009827,-0.994019,0.327725,0.523969,-0.100458,57,273,577,5600
1644165327.24152,-0.01355,0.009583,-0.991699,0.236122,0.462901,-0.008855,51,269,578,5648
1644165327.289921,-0.011108,0.006592,-0.99231,0.144519,0.493435,-0.054656,49,287,575,5584
1644165327.338295,-0.013,0.00885,-0.994873,0.113985,0.386565,0.052214,49,275,575,5552
1644165327.386691,-0.01123,0.00592,-0.991394,0.144519,0.478168,-0.207328,52,277,568,5648
1644165327.43511,-0.010254,0.010681,-0.990601,0.35826,0.462901,-0.314198,51,271,569,5552
1644165327.483472,-0.011353,0.010986,-0.992188,0.129252,0.310229,-0.222595,47,277,579,5552
1644165327.531858,-0.010254,0.009949,-0.992432,0.205588,0.447634,-0.14626,41,266,573,5648
1644165327.580251,-0.009583,0.008362,-0.993408,0.281924,0.294962,0.067481,54,270,579,5632
1644165327.628642,-0.009827,0.009583,-0.994263,0.297191,0.478168,-0.176794,48,271,573,5600
1644165327.677042,-0.013306,0.011658,-0.993408,0.510931,0.447634,-0.085191,45,285,582,5584
1644165327.725419,-0.010315,0.009521,-0.992615,0.251389,0.447634,-0.100458,51,281,576,5536
1644165327.773803,-0.010437,0.011047,-0.992371,0.342992,0.432366,-0.14626,45,268,572,5584
1644165327.822207,-0.010437,0.009155,-0.992859,0.373527,0.325496,-0.237863,46,281,576,5584
1644165327.870636,-0.010376,0.009155,-0.992493,0.266656,0.386565,-0.176794,54,277,584,5584
1644165327.919,-0.010193,0.009888,-0.993225,0.220855,0.401832,-0.039389,49,268,575,5632
1644165327.967431,-0.009766,0.010132,-0.992981,0.327725,0.356031,-0.054656,47,277,579,5584
1644165328.016594,-0.008667,0.009888,-0.99408,0.266656,0.310229,-0.008855,54,270,575,5584
1644165328.07312,-0.009644,0.009338,-0.993408,0.297191,0.340763,-0.130992,49,282,572,5584
1644165328.117159,-0.008972,0.009827,-0.990784,0.297191,0.386565,-0.069924,51,264,573,5632
1644165328.161792,-0.009338,0.00824,-0.990906,0.205588,0.356031,-0.069924,52,282,584,5584
1644165328.257743,-0.013306,0.009644,-0.993652,0.236122,0.432366,-0.176794,51,274,576,5584
1644165328.306132,-0.01062,0.007324,-0.992676,0.251389,0.447634,-0.130992,42,268,577,5584
1644165328.354525,-0.01062,0.006409,-0.994812,0.236122,0.401832,-0.100458,55,259,580,5600
1644165328.402951,-0.010986,0.007629,-0.991211,0.175053,0.356031,-0.085191,45,273,572,5664
1644165328.45133,-0.009949,0.009949,-0.99115,0.266656,0.447634,-0.024122,48,269,576,5584
1644165328.499677,-0.009827,0.00769,-0.993286,0.312458,0.417099,-0.192061,57,280,572,5584
1644165328.548069,-0.01123,0.006714,-0.99292,0.144519,0.264427,-0.024122,43,271,566,5648
1644165328.596497,-0.00885,0.007324,-0.990845,0.327725,0.294962,-0.024122,53,281,566,5536
1644165328.644872,-0.010864,0.008728,-0.991028,0.373527,0.478168,-0.222595,51,269,578,5536
1644165328.693266,-0.012268,0.009033,-0.993103,0.266656,0.371298,0.036947,53,276,571,5600
1644165328.741654,-0.010559,0.008972,-0.99408,0.190321,0.432366,-0.054656,55,274,578,5584
1644165328.790059,-0.008606,0.012756,-0.994141,0.175053,0.447634,-0.14626,49,273,586,5584
1644165328.838444,-0.007874,0.008667,-0.991211,0.205588,0.310229,0.036947,41,276,573,5648
1644165328.886837,-0.011169,0.008728,-0.990479,0.159786,0.417099,0.12855,57,273,572,5600
1644165328.935233,-0.014343,0.008362,-0.991821,0.373527,0.447634,0.006412,51,266,578,5584
1644165328.983602,-0.011597,0.008423,-0.991882,0.251389,0.325496,-0.176794,47,275,575,5584
1644165329.040979,-0.01001,0.009766,-0.993225,0.281924,0.356031,-0.14626,47,273,586,5600
1644165329.086245,-0.009399,0.008606,-0.992371,0.113985,0.371298,-0.008855,52,277,577,5600
1644165329.131377,-0.009766,0.010437,-0.992981,0.281924,0.447634,-0.130992,51,276,585,5584
1644165329.179455,-0.013977,0.006531,-0.992065,0.236122,0.325496,-0.054656,51,276,580,5600
1644165329.229835,-0.012024,0.007874,-0.993103,0.327725,0.417099,-0.130992,45,268,579,5648
1644165329.274756,-0.008667,0.010498,-0.993713,0.297191,0.356031,0.052214,48,271,576,5600
1644165329.37068,-0.01178,0.009338,-0.992004,0.129252,0.447634,-0.161527,47,268,575,5584
1644165329.419075,-0.011536,0.011292,-0.992249,0.388794,0.356031,-0.069924,57,275,572,5584
1644165329.467459,-0.009094,0.009094,-0.992188,0.266656,0.417099,0.036947,40,268,579,5552
1644165329.515837,-0.009338,0.00769,-0.994202,0.129252,0.417099,-0.192061,52,268,568,5664
1644165329.564254,-0.010559,0.010742,-0.993469,0.251389,0.493435,-0.130992,46,264,580,5648
1644165329.612628,-0.011169,0.009094,-0.99469,0.205588,0.432366,-0.222595,49,265,577,5648
1644165329.661031,-0.011108,0.009033,-0.992004,0.373527,0.340763,-0.054656,52,273,575,5584
1644165329.709424,-0.011169,0.011047,-0.993835,0.266656,0.340763,0.036947,49,273,582,5696
1644165329.757825,-0.009949,0.00885,-0.994873,0.129252,0.310229,-0.130992,43,266,573,5584
1644165329.806228,-0.009338,0.007141,-0.989563,0.144519,0.462901,-0.024122,46,274,571,5664
1644165329.854742,-0.008057,0.009583,-0.991943,0.220855,0.401832,0.052214,48,264,583,5632
1644165329.903061,-0.011841,0.010315,-0.992004,0.297191,0.325496,-0.222595,48,276,576,5648
1644165329.951413,-0.013,0.007141,-0.990845,0.281924,0.371298,-0.039389,61,263,584,5648
1644165329.999808,-0.012268,0.011047,-0.992188,0.35826,0.447634,-0.100458,55,279,580,5600
1644165330.060686,-0.009583,0.011353,-0.990784,0.068183,0.478168,-0.024122,53,266,583,5632
1644165330.09658,-0.012817,0.008911,-0.989685,0.373527,0.386565,-0.192061,42,273,582,5552
1644165330.144997,-0.009521,0.007751,-0.992065,0.190321,0.523969,-0.008855,49,273,582,5584
1644165330.193325,-0.011047,0.010193,-0.992249,0.175053,0.218626,-0.161527,61,277,589,5600
1644165330.241729,-0.011475,0.00769,-0.988098,0.205588,0.523969,-0.039389,49,268,582,5584
1644165330.290373,-0.010437,0.00824,-0.99353,0.175053,0.356031,-0.008855,46,279,587,5648
1644165330.340929,-0.010803,0.010315,-0.991211,0.175053,0.401832,0.006412,52,270,575,5632
1644165330.390943,-0.00647,0.008606,-0.99115,0.159786,0.386565,-0.069924,53,276,580,5632
1644165330.436093,-0.01123,0.010071,-0.991028,0.266656,0.356031,-0.069924,52,282,572,5600
1644165330.532046,-0.010803,0.010254,-0.991882,0.190321,0.340763,-0.14626,46,274,576,5600
1644165330.580441,-0.013367,0.010498,-0.992004,0.144519,0.325496,-0.207328,55,269,585,5584
1644165330.628836,-0.010437,0.007507,-0.992065,0.175053,0.417099,-0.115725,55,264,578,5600
1644165330.677222,-0.009766,0.009033,-0.992798,0.159786,0.462901,0.006412,46,269,583,5584
1644165330.725595,-0.013428,0.008606,-0.991455,0.175053,0.462901,-0.192061,45,273,577,5600
1644165330.774015,-0.011902,0.010132,-0.992126,0.327725,0.264427,-0.25313,55,269,580,5584
1644165330.822463,-0.010376,0.009888,-0.991333,0.205588,0.523969,-0.085191,57,287,570,5600
1644165330.870826,-0.009216,0.010376,-0.989441,0.205588,0.478168,-0.115725,59,275,577,5552
1644165330.919219,-0.008484,0.006653,-0.992554,0.129252,0.493435,-0.054656,49,273,579,5584
1644165330.967604,-0.009277,0.010986,-0.993347,0.342992,0.432366,-0.085191,51,271,571,5584
1644165331.015998,-0.009338,0.009827,-0.991699,0.312458,0.478168,-0.054656,49,270,577,5600
1644165331.08924,-0.011353,0.009155,-0.994812,0.251389,0.401832,-0.130992,45,280,575,5584
1644165331.112742,-0.011902,0.010376,-0.991455,0.052916,0.432366,-0.085191,43,274,576,5600
1644165331.161147,-0.014465,0.010742,-0.993347,0.220855,0.523969,-0.100458,38,277,575,5600
1644165331.210464,-0.01062,0.00824,-0.993469,0.236122,0.417099,-0.115725,53,276,576,5552
1644165331.261007,-0.009216,0.009644,-0.992554,0.068183,0.401832,-0.069924,51,269,576,5600
1644165331.311148,-0.011658,0.008728,-0.99469,0.220855,0.554504,-0.130992,45,273,582,5600
1644165331.403108,-0.010864,0.010254,-0.992004,0.327725,0.340763,-0.085191,43,281,573,5600
1644165331.451453,-0.01001,0.011597,-0.993958,0.312458,0.340763,-0.237863,48,266,578,5584
1644165331.49982,-0.011719,0.009827,-0.992554,0.159786,0.462901,-0.161527,52,273,582,5600
1644165331.548229,-0.009399,0.008728,-0.992249,0.266656,0.371298,-0.130992,40,268,570,5536
1644165331.596641,-0.010071,0.008667,-0.992249,0.342992,0.432366,-0.024122,54,280,563,5584
1644165331.645061,-0.009338,0.010254,-0.99176,0.251389,0.401832,-0.100458,57,273,575,5664
1644165331.693427,-0.010071,0.009033,-0.992676,0.251389,0.340763,-0.100458,49,275,577,5584
1644165331.741797,-0.009644,0.008606,-0.991394,0.175053,0.493435,-0.176794,52,275,577,5648
1644165331.79021,-0.011169,0.009888,-0.991516,0.159786,0.264427,-0.069924,52,268,568,5600
1644165331.838636,-0.011292,0.009705,-0.992065,0.327725,0.356031,-0.161527,54,275,575,5584
1644165331.887029,-0.010132,0.006531,-0.991272,0.220855,0.417099,-0.222595,54,275,579,5600
1644165331.9354,-0.00708,0.009094,-0.992371,0.251389,0.417099,-0.130992,51,276,576,5584
1644165331.983809,-0.011597,0.008179,-0.989929,0.266656,0.340763,0.052214,53,271,578,5600
1644165332.047797,-0.009888,0.007812,-0.992737,0.35826,0.157557,-0.130992,54,275,570,5632
1644165332.080679,-0.00946,0.008057,-0.987488,0.205588,0.325496,-0.069924,47,270,577,5584
1644165332.128896,-0.010498,0.009705,-0.992798,0.159786,0.462901,-0.039389,58,274,580,5600
1644165332.177325,-0.009399,0.011963,-0.991516,0.342992,0.417099,0.021679,51,274,573,5584
1644165332.225723,-0.008545,0.009155,-0.992249,0.175053,0.386565,-0.085191,51,264,576,5600
1644165332.274116,-0.008423,0.008118,-0.99231,0.281924,0.462901,-0.176794,49,268,575,5648
1644165332.322532,-0.009338,0.007324,-0.992432,0.327725,0.539237,-0.268397,48,276,573,5648
1644165332.372684,-0.011047,0.008301,-0.991821,0.205588,0.462901,-0.161527,41,269,576,5584
1644165332.422986,-0.009216,0.009277,-0.994141,0.175053,0.310229,-0.14626,58,266,576,5584
1644165332.468111,-0.01001,0.011475,-0.990295,0.159786,0.523969,0.036947,45,280,577,5600
1644165332.564451,-0.00946,0.012024,-0.991211,0.129252,0.310229,-0.085191,55,281,580,5600
1644165332.612859,-0.012756,0.010132,-0.993164,0.190321,0.493435,0.006412,52,268,579,5584
1644165332.661223,-0.011292,0.012146,-0.992126,0.281924,0.401832,0.021679,54,277,582,5536
1644165332.709605,-0.011475,0.007568,-0.990295,0.281924,0.462901,-0.024122,48,279,576,5520
1644165332.757981,-0.01123,0.009155,-0.99176,0.266656,0.493435,-0.100458,49,273,579,5584
1644165332.806405,-0.010254,0.010376,-0.99176,0.205588,0.340763,-0.115725,55,279,580,5600
1644165332.85484,-0.010376,0.010498,-0.993652,0.266656,0.401832,-0.161527,46,269,576,5584
1644165332.903214,-0.01123,0.009521,-0.993103,0.159786,0.447634,-0.008855,48,269,566,5648
1644165332.951602,-0.010803,0.008057,-0.992493,0.266656,0.310229,0.006412,54,277,570,5552
1644165332.999969,-0.011353,0.009155,-0.993103,0.205588,0.24916,-0.100458,51,274,569,5600
1644165333.055755,-0.011292,0.00769,-0.99585,0.297191,0.462901,-0.115725,51,276,573,5648
1644165333.096808,-0.010376,0.006775,-0.996155,0.098718,0.310229,-0.161527,40,277,575,5600
1644165333.145244,-0.011169,0.010376,-0.992432,0.220855,0.539237,-0.14626,51,271,578,5584
1644165333.19351,-0.012451,0.007751,-0.990723,0.144519,0.356031,-0.192061,49,273,577,5632
1644165333.241908,-0.009827,0.009949,-0.992554,0.297191,0.233893,-0.069924,48,274,569,5648
1644165333.2903,-0.014282,0.008667,-0.992798,0.297191,0.508702,-0.161527,60,271,585,5664
1644165333.338687,-0.010193,0.007874,-0.991272,0.113985,0.401832,-0.130992,53,269,578,5600
1644165333.387049,-0.009583,0.010071,-0.992798,0.266656,0.554504,-0.14626,51,274,562,5584
1644165333.43589,-0.010071,0.007263,-0.992737,0.297191,0.371298,-0.085191,52,273,572,5584
1644165333.484452,-0.012573,0.008362,-0.990295,0.113985,0.310229,0.036947,58,257,573,5648
1644165333.535056,-0.012085,0.009644,-0.990723,0.037649,0.493435,-0.115725,41,269,573,5600
1644165333.585145,-0.011719,0.009033,-0.991638,0.052916,0.356031,-0.024122,48,271,576,5648
1644165333.630179,-0.013062,0.009521,-0.99054,0.037649,0.447634,-0.130992,59,268,579,5696
1644165333.725801,-0.007996,0.010376,-0.993347,0.312458,0.417099,0.036947,53,271,576,5664
1644165333.774207,-0.010193,0.010193,-0.992004,0.175053,0.325496,-0.130992,51,279,576,5632
1644165333.822614,-0.008057,0.009094,-0.992981,0.205588,0.447634,-0.268397,55,276,573,5632
1644165333.871007,-0.010681,0.009888,-0.992065,0.312458,0.417099,-0.024122,47,263,572,5536
1644165333.919405,-0.012756,0.010437,-0.993164,0.404061,0.371298,0.021679,51,276,573,5584
1644165333.967802,-0.009705,0.009277,-0.993103,0.373527,0.340763,-0.085191,51,262,569,5552
1644165334.016154,-0.010559,0.009094,-0.992432,0.205588,0.310229,-0.130992,43,271,587,5632
1644165334.074904,-0.014648,0.009644,-0.992432,0.266656,0.279695,-0.192061,55,274,571,5584
1644165334.112979,-0.013123,0.007751,-0.994507,0.312458,0.371298,-0.176794,43,283,566,5536
1644165334.161326,-0.009094,0.008667,-0.993652,0.175053,0.432366,-0.237863,49,282,575,5584
1644165334.209727,-0.010559,0.010498,-0.992371,0.190321,0.615573,-0.176794,48,283,578,5648
1644165334.258087,-0.010254,0.008728,-0.994019,0.342992,0.432366,0.036947,47,275,572,5600
1644165334.306474,-0.010376,0.010559,-0.993652,0.266656,0.462901,-0.100458,47,282,577,5584
1644165334.354897,-0.009827,0.006348,-0.991943,0.266656,0.279695,-0.054656,58,271,578,5552
1644165334.403281,-0.011719,0.008789,-0.993347,0.205588,0.417099,-0.100458,46,276,576,5536
1644165334.451652,-0.010254,0.008118,-0.988647,0.297191,0.493435,-0.054656,51,274,566,5632
1644165334.500025,-0.013123,0.010986,-0.992493,0.312458,0.447634,-0.085191,49,285,582,5584
1644165334.548424,-0.009521,0.009033,-0.993469,0.297191,0.325496,-0.008855,60,266,576,5488
1644165334.596833,-0.012268,0.009399,-0.990906,0.098718,0.401832,-0.069924,51,274,571,5664
1644165334.645713,-0.011169,0.007019,-0.990051,0.251389,0.417099,-0.176794,58,269,573,5648
1644165334.697725,-0.01062,0.007507,-0.994446,0.297191,0.371298,0.036947,47,275,568,5584
1644165334.746085,-0.010315,0.009338,-0.991577,0.236122,0.371298,-0.100458,58,271,564,5600
1644165334.791136,-0.008667,0.011169,-0.991638,0.052916,0.432366,0.006412,46,271,571,5552
1644165334.887204,-0.008423,0.008362,-0.98999,0.205588,0.401832,-0.207328,42,275,577,5648
1644165334.935595,-0.011292,0.00946,-0.990784,0.190321,0.539237,0.021679,58,286,580,5536
1644165334.983999,-0.012451,0.008789,-0.992188,0.220855,0.340763,-0.069924,43,276,571,5584
1644165335.04469,-0.011169,0.008362,-0.994385,0.35826,0.447634,0.036947,55,274,573,5648
1644165335.080917,-0.010315,0.008301,-0.991699,0.220855,0.340763,-0.115725,57,282,570,5648
1644165335.129181,-0.011475,0.009155,-0.991577,0.35826,0.386565,-0.054656,57,270,575,5584
1644165335.177528,-0.010742,0.00769,-0.995178,0.281924,0.340763,-0.344733,46,271,564,5584
1644165335.225919,-0.009399,0.010437,-0.991882,0.297191,0.447634,-0.039389,52,268,568,5584
1644165335.274299,-0.011292,0.010437,-0.993408,0.35826,0.294962,-0.14626,43,269,578,5648
1644165335.322674,-0.009155,0.010132,-0.992615,0.251389,0.478168,-0.100458,42,275,570,5632
1644165335.371072,-0.009644,0.00885,-0.993347,0.190321,0.493435,-0.176794,53,276,583,5648
1644165335.419471,-0.009583,0.006714,-0.99353,0.113985,0.401832,-0.024122,45,273,582,5584
1644165335.467859,-0.012878,0.008911,-0.991333,0.236122,0.386565,-0.024122,58,271,571,5552
1644165335.516254,-0.014465,0.007751,-0.994385,0.220855,0.340763,-0.039389,55,276,580,5632
1644165335.564651,-0.010132,0.008118,-0.991577,0.312458,0.371298,-0.100458,48,269,562,5600
1644165335.613166,-0.009155,0.004089,-0.992676,0.251389,0.264427,-0.115725,53,274,578,5632
1644165335.66191,-0.008972,0.009094,-0.991516,0.297191,0.371298,-0.161527,52,277,568,5648
1644165335.712512,-0.011536,0.010498,-0.992004,0.266656,0.401832,-0.069924,49,268,582,5536
1644165335.762911,-0.011292,0.009033,-0.989563,0.220855,0.462901,-0.039389,59,268,586,5648
1644165335.807797,-0.010742,0.009827,-0.992188,0.129252,0.523969,-0.130992,49,273,568,5632
1644165335.903425,-0.009277,0.008057,-0.993408,0.08345,0.340763,-0.054656,40,273,575,5536
1644165335.951803,-0.010193,0.009033,-0.99353,0.129252,0.356031,-0.176794,51,271,569,5664
1644165336.000191,-0.013916,0.006592,-0.994019,0.098718,0.432366,-0.054656,54,268,572,5552
1644165336.053986,-0.010803,0.007751,-0.991394,0.205588,0.340763,-0.069924,53,276,573,5584
1644165336.096958,-0.007629,0.008789,-0.98938,0.266656,0.508702,-0.115725,60,281,578,5648
1644165336.145368,-0.011292,0.009094,-0.991882,0.236122,0.386565,-0.222595,59,285,575,5632
1644165336.193723,-0.012024,0.007385,-0.990967,0.297191,0.447634,0.021679,48,274,576,5600
1644165336.242256,-0.010254,0.008118,-0.992981,0.404061,0.523969,-0.130992,41,271,576,5600
1644165336.29048,-0.008118,0.007446,-0.992126,0.342992,0.340763,-0.115725,54,282,579,5632
1644165336.338884,-0.008728,0.008057,-0.992249,0.220855,0.340763,-0.100458,46,269,583,5600
1644165336.387272,-0.010498,0.009888,-0.994385,0.205588,0.24916,-0.100458,47,273,572,5648
1644165336.435672,-0.010498,0.008484,-0.994385,0.281924,0.493435,-0.14626,58,283,576,5632
1644165336.484065,-0.009644,0.008789,-0.994812,0.205588,0.523969,-0.176794,58,274,571,5600
1644165336.532473,-0.009644,0.007202,-0.993835,0.220855,0.340763,-0.039389,55,269,573,5600
1644165336.580842,-0.01123,0.007019,-0.992188,0.251389,0.447634,-0.115725,47,277,575,5536
1644165336.629213,-0.011658,0.011963,-0.99292,0.113985,0.371298,-0.283664,55,269,578,5584
1644165336.677616,-0.010315,0.010559,-0.99292,0.297191,0.523969,-0.130992,53,281,578,5600
1644165336.726003,-0.012817,0.01123,-0.992493,0.175053,0.585038,-0.069924,57,270,584,5584
1644165336.774386,-0.007629,0.006775,-0.991455,0.159786,0.356031,-0.069924,48,276,576,5600
1644165336.823081,-0.009399,0.007507,-0.994202,0.144519,0.493435,-0.024122,49,280,572,5600
1644165336.875295,-0.012512,0.00946,-0.992432,0.297191,0.417099,-0.024122,48,271,578,5584
1644165336.924743,-0.010437,0.00946,-0.99176,0.266656,0.264427,-0.039389,52,287,568,5584
1644165336.969165,-0.010437,0.006653,-0.99176,0.236122,0.417099,-0.115725,47,273,575,5584
1644165337.06485,-0.009888,0.008728,-0.992004,0.236122,0.386565,-0.054656,57,273,570,5584
1644165337.113146,-0.008606,0.011353,-0.992432,0.312458,0.417099,-0.039389,49,270,572,5600
1644165337.161518,-0.010559,0.008301,-0.995972,0.281924,0.523969,-0.039389,51,266,576,5584
1644165337.209902,-0.009277,0.007141,-0.992065,0.037649,0.417099,-0.069924,55,281,580,5584
1644165337.258279,-0.010864,0.008362,-0.992371,0.281924,0.508702,-0.100458,57,268,579,5584
1644165337.306676,-0.014526,0.007812,-0.992432,0.220855,0.63084,-0.069924,48,276,583,5584
1644165337.355122,-0.010742,0.007263,-0.992676,0.129252,0.233893,0.006412,45,268,570,5648
1644165337.40348,-0.012756,0.007324,-0.993652,0.129252,0.294962,-0.024122,49,263,575,5648
1644165337.451864,-0.008606,0.011597,-0.992432,0.159786,0.340763,-0.008855,47,265,577,5600
1644165337.500226,-0.015259,0.010315,-0.991821,0.220855,0.493435,-0.024122,46,266,576,5584
1644165337.548654,-0.012207,0.007446,-0.991821,0.205588,0.447634,-0.100458,43,269,587,5600
1644165337.597029,-0.010132,0.011536,-0.99292,0.373527,0.417099,-0.192061,41,269,585,5584
1644165337.645437,-0.010986,0.007202,-0.992188,0.297191,0.585038,-0.130992,55,271,580,5584
1644165337.693811,-0.010864,0.006775,-0.992126,0.419328,0.462901,-0.237863,43,279,585,5600
1644165337.742242,-0.010559,0.009583,-0.992615,0.113985,0.401832,-0.115725,54,273,575,5584
1644165337.790595,-0.01001,0.011536,-0.988281,0.251389,0.340763,-0.130992,52,268,593,5552
1644165337.839025,-0.010681,0.007629,-0.991577,0.144519,0.401832,-0.069924,52,277,572,5584
1644165337.887765,-0.00946,0.011108,-0.991699,0.190321,0.386565,-0.237863,55,266,576,5600
1644165337.935831,-0.01178,0.007141,-0.994263,0.251389,0.417099,-0.069924,40,282,575,5552
1644165337.985412,-0.009766,0.007202,-0.99353,0.327725,0.356031,-0.100458,51,274,569,5600
1644165338.056947,-0.010742,0.005493,-0.992432,0.08345,0.417099,-0.085191,57,277,575,5600
1644165338.090568,-0.009216,0.008972,-0.99408,0.342992,0.417099,-0.085191,46,266,573,5584
1644165338.130276,-0.00885,0.007629,-0.993164,0.175053,0.447634,-0.14626,49,273,579,5584
1644165338.226074,-0.009644,0.006897,-0.993408,0.129252,0.371298,-0.14626,55,269,583,5648
1644165338.274487,-0.009583,0.009521,-0.993347,0.236122,0.432366,-0.237863,53,269,576,5584
1644165338.322889,-0.010071,0.012207,-0.992554,0.08345,0.294962,-0.069924,52,282,575,5584
1644165338.371273,-0.010803,0.010986,-0.993896,0.266656,0.325496,0.067481,52,280,568,5664
1644165338.419657,-0.009888,0.009094,-0.993042,0.205588,0.432366,0.021679,55,271,576,5648
1644165338.468052,-0.011719,0.00824,-0.991211,0.175053,0.447634,-0.069924,52,277,572,5632
1644165338.516442,-0.012146,0.00885,-0.99292,0.388794,0.340763,-0.161527,60,271,573,5600
1644165338.564847,-0.01178,0.012756,-0.991638,0.190321,0.371298,-0.130992,54,265,577,5584
1644165338.613243,-0.010193,0.010681,-0.992737,0.312458,0.386565,-0.192061,53,274,578,5584
1644165338.661623,-0.009399,0.012756,-0.99231,0.266656,0.447634,-0.085191,55,281,578,5536
1644165338.709977,-0.011536,0.009888,-0.991272,0.144519,0.493435,-0.069924,40,277,570,5552
1644165338.758393,-0.009583,0.008728,-0.991882,0.281924,0.371298,-0.100458,49,268,579,5664
1644165338.806823,-0.00769,0.009705,-0.994629,0.205588,0.569771,-0.008855,54,268,584,5648
1644165338.85522,-0.008545,0.007324,-0.991699,0.327725,0.401832,-0.130992,51,276,573,5600
1644165338.903611,-0.011414,0.005981,-0.991882,0.205588,0.447634,-0.024122,49,277,570,5584
1644165338.952008,-0.013794,0.010071,-0.991455,0.144519,0.340763,-0.115725,46,269,569,5536
1644165339.055097,-0.010132,0.011108,-0.990723,0.266656,0.371298,-0.115725,55,276,573,5584
1644165339.097086,-0.010925,0.011475,-0.993164,0.312458,0.356031,-0.115725,54,268,575,5648
1644165339.145507,-0.009277,0.009766,-0.992615,0.205588,0.356031,-0.100458,46,266,578,5648
1644165339.193909,-0.012756,0.005005,-0.992615,0.068183,0.401832,-0.069924,55,269,583,5600
1644165339.242309,-0.010803,0.006531,-0.993835,0.281924,0.447634,-0.130992,46,274,583,5648
1644165339.290691,-0.010376,0.008545,-0.994019,0.113985,0.478168,0.021679,51,271,578,5632
1644165339.33909,-0.009827,0.008911,-0.991394,0.312458,0.371298,-0.130992,43,269,569,5584
1644165339.387453,-0.00946,0.008789,-0.98999,0.175053,0.340763,-0.130992,51,269,571,5648
1644165339.435856,-0.009155,0.009399,-0.992615,0.266656,0.523969,0.052214,53,274,571,5536
1644165339.484231,-0.010376,0.007507,-0.993652,0.190321,0.432366,-0.008855,65,274,580,5584
1644165339.532656,-0.011292,0.008606,-0.992371,0.236122,0.661374,-0.100458,53,266,576,5600
1644165339.581043,-0.010254,0.009644,-0.991882,0.236122,0.371298,-0.039389,52,270,577,5648
1644165339.629419,-0.01001,0.006653,-0.990234,0.205588,0.356031,-0.085191,55,271,569,5648
1644165339.677807,-0.008911,0.007812,-0.990479,0.205588,0.447634,0.082748,52,273,584,5536
1644165339.7262,-0.012207,0.00824,-0.993225,0.342992,0.493435,-0.14626,47,273,577,5648
1644165339.774733,-0.010498,0.007263,-0.992554,0.281924,0.462901,-0.024122,41,274,578,5600
1644165339.825186,-0.01062,0.011353,-0.992859,0.113985,0.462901,0.052214,49,268,582,5600
1644165339.874956,-0.010071,0.008972,-0.993103,0.266656,0.523969,-0.161527,47,270,563,5600
1644165339.925412,-0.010193,0.007874,-0.992126,0.388794,0.508702,-0.176794,58,266,578,5600
1644165339.969915,-0.009583,0.008606,-0.993347,0.205588,0.478168,-0.192061,42,270,568,5552
1644165340.065173,-0.011536,0.011719,-0.989746,0.205588,0.264427,-0.085191,55,274,580,5536
1644165340.113365,-0.010559,0.009155,-0.992798,0.388794,0.447634,0.052214,49,277,584,5584
1644165340.161705,-0.010193,0.009949,-0.990662,0.281924,0.325496,-0.237863,52,260,575,5600
1644165340.210128,-0.011353,0.006348,-0.992004,0.312458,0.386565,-0.100458,52,277,575,5552
1644165340.258463,-0.01123,0.006592,-0.991638,0.266656,0.447634,-0.222595,53,276,583,5584
1644165340.306873,-0.013916,0.009949,-0.991821,0.175053,0.340763,-0.115725,52,277,575,5552
1644165340.355268,-0.010071,0.010254,-0.990234,0.205588,0.340763,-0.115725,55,269,580,5552
1644165340.403675,-0.010925,0.007202,-0.991455,0.312458,0.325496,-0.222595,60,276,573,5600
1644165340.452062,-0.01123,0.008545,-0.990112,0.297191,0.417099,-0.085191,55,276,576,5600
1644165340.500425,-0.009277,0.009033,-0.991394,0.281924,0.356031,0.052214,58,274,580,5552
1644165340.548841,-0.012146,0.008911,-0.996338,0.175053,0.462901,-0.115725,54,275,572,5648
1644165340.597234,-0.012695,0.010071,-0.993774,0.342992,0.264427,-0.039389,48,274,583,5600
1644165340.645613,-0.013245,0.010376,-0.990479,0.159786,0.325496,-0.054656,36,271,576,5648
1644165340.694016,-0.010437,0.007996,-0.990356,0.373527,0.417099,-0.115725,49,273,575,5584
1644165340.742368,-0.009705,0.006226,-0.992554,0.236122,0.386565,0.036947,60,274,580,5600
1644165340.790786,-0.013184,0.008423,-0.994324,0.297191,0.493435,-0.024122,48,259,573,5648
1644165340.839211,-0.010681,0.007812,-0.990906,0.144519,0.386565,-0.130992,41,274,573,5648
1644165340.887745,-0.01178,0.009827,-0.993774,0.205588,0.462901,-0.100458,43,279,576,5664
1644165340.935978,-0.011475,0.011414,-0.993225,0.205588,0.264427,0.113282,49,280,577,5552
1644165340.986048,-0.010376,0.01001,-0.994568,0.129252,0.401832,-0.039389,51,274,571,5648
1644165341.051191,-0.014099,0.007751,-0.991028,0.175053,0.493435,-0.024122,52,268,579,5552
1644165341.093498,-0.012329,0.007874,-0.990112,0.190321,0.447634,-0.192061,55,266,585,5584
1644165341.130898,-0.01123,0.006836,-0.991455,0.373527,0.569771,-0.130992,52,275,577,5552
1644165341.226269,-0.007507,0.009521,-0.992981,0.175053,0.493435,-0.14626,47,275,575,5648
1644165341.274862,-0.00946,0.008362,-0.990601,0.068183,0.310229,0.036947,48,274,578,5648
1644165341.32309,-0.011475,0.007263,-0.990356,0.251389,0.401832,-0.069924,42,280,579,5600
1644165341.371449,-0.01123,0.010376,-0.990845,0.342992,0.401832,-0.069924,57,270,582,5584
1644165341.419853,-0.010986,0.007263,-0.995789,0.175053,0.310229,-0.115725,43,286,580,5552
1644165341.46824,-0.013123,0.008667,-0.992554,0.220855,0.478168,-0.14626,54,270,570,5664
1644165341.516641,-0.010681,0.010803,-0.992493,0.266656,0.432366,-0.008855,57,270,575,5584
1644165341.56506,-0.013855,0.010193,-0.992004,0.236122,0.386565,-0.115725,53,274,573,5664
1644165341.613426,-0.013123,0.008545,-0.991943,0.327725,0.462901,-0.054656,48,276,571,5648
1644165341.66181,-0.012207,0.008362,-0.993225,0.220855,0.386565,-0.161527,48,279,578,5600
1644165341.710197,-0.009277,0.005127,-0.990967,0.312458,0.356031,0.006412,52,275,579,5600
1644165341.758599,-0.011658,0.011536,-0.994202,0.266656,0.401832,-0.069924,51,274,578,5664
1644165341.806983,-0.012024,0.007324,-0.992554,0.190321,0.417099,-0.207328,48,274,576,5584
1644165341.85538,-0.01123,0.006958,-0.991211,0.129252,0.462901,-0.069924,54,265,577,5600
1644165341.903812,-0.011536,0.009338,-0.990051,0.220855,0.294962,0.021679,54,270,577,5552
1644165341.952217,-0.006836,0.008118,-0.98938,0.251389,0.539237,-0.085191,43,281,587,5584
1644165342.05432,-0.009155,0.00946,-0.992065,0.022382,0.432366,-0.024122,45,275,577,5600
1644165342.09734,-0.009583,0.007263,-0.991638,0.373527,0.401832,-0.161527,51,271,585,5600
1644165342.145743,-0.008972,0.00946,-0.994019,0.144519,0.386565,-0.069924,58,269,576,5648
1644165342.194103,-0.012451,0.009216,-0.993591,0.159786,0.294962,-0.100458,49,273,586,5648
1644165342.242508,-0.010742,0.00647,-0.991821,0.297191,0.447634,-0.14626,46,276,585,5664
1644165342.29089,-0.009521,0.010498,-0.99408,0.251389,0.447634,-0.100458,48,262,580,5648
1644165342.339279,-0.011475,0.010071,-0.992981,0.159786,0.386565,-0.207328,45,277,577,5632
1644165342.387675,-0.011414,0.01001,-0.993591,0.266656,0.508702,0.006412,45,280,570,5584
1644165342.436057,-0.010132,0.011658,-0.988464,0.35826,0.294962,-0.207328,48,274,573,5600
1644165342.484464,-0.00824,0.008484,-0.989746,0.175053,0.340763,-0.085191,49,275,584,5648
1644165342.532849,-0.011108,0.009399,-0.991638,0.159786,0.432366,-0.237863,55,286,578,5600
1644165342.581238,-0.014832,0.00769,-0.995361,0.175053,0.218626,-0.054656,47,280,575,5536
1644165342.62958,-0.012573,0.008423,-0.994385,0.098718,0.386565,-0.176794,51,274,576,5664
1644165342.678006,-0.013855,0.007812,-0.992493,0.220855,0.478168,-0.207328,47,280,575,5552
1644165342.726387,-0.01178,0.007507,-0.990723,0.251389,0.417099,0.021679,45,270,572,5600
1644165342.774791,-0.009705,0.008728,-0.990967,0.220855,0.279695,-0.192061,42,268,570,5632
1644165342.823472,-0.007324,0.007935,-0.991943,0.236122,0.432366,-0.115725,45,270,584,5600
1644165342.875599,-0.006836,0.011047,-0.992065,0.236122,0.493435,0.021679,48,269,573,5600
1644165342.924963,-0.010254,0.013123,-0.990723,0.129252,0.615573,-0.039389,45,282,568,5584
1644165342.969548,-0.008484,0.008301,-0.99054,0.144519,0.340763,-0.085191,52,277,570,5584
1644165343.066084,-0.01001,0.006775,-0.993103,0.312458,0.356031,0.006412,61,287,586,5648
1644165343.113512,-0.012146,0.009521,-0.990906,0.373527,0.310229,-0.039389,47,275,584,5584
1644165343.161902,-0.013855,0.011963,-0.991211,0.220855,0.279695,-0.130992,48,276,583,5584
1644165343.210293,-0.011597,0.008667,-0.990967,0.159786,0.432366,0.052214,48,271,571,5584
1644165343.258661,-0.009827,0.01062,-0.992004,0.175053,0.24916,0.021679,52,273,582,5600
1644165343.307081,-0.009338,0.008972,-0.990784,0.251389,0.356031,-0.008855,46,279,576,5600
1644165343.355464,-0.01001,0.009766,-0.991638,0.266656,0.294962,-0.039389,47,280,575,5648
1644165343.403878,-0.011597,0.009155,-0.991699,0.251389,0.417099,-0.039389,51,266,576,5552
1644165343.452266,-0.011292,0.010742,-0.992126,0.08345,0.401832,-0.115725,52,277,582,5600
1644165343.500623,-0.009521,0.007935,-0.991638,0.251389,0.432366,0.082748,59,263,577,5536
1644165343.549044,-0.010681,0.011108,-0.991028,0.327725,0.325496,-0.14626,54,263,577,5632
1644165343.597413,-0.01239,0.007019,-0.992676,0.144519,0.401832,-0.14626,47,273,584,5552
1644165343.645807,-0.010986,0.009094,-0.992615,0.113985,0.508702,-0.100458,53,269,573,5664
1644165343.694225,-0.010254,0.009583,-0.991821,0.129252,0.493435,-0.100458,55,279,573,5648
1644165343.742599,-0.010864,0.009766,-0.990356,0.281924,0.478168,0.006412,42,282,582,5648
1644165343.791009,-0.011902,0.007812,-0.990723,0.312458,0.386565,0.082748,46,279,580,5584
1644165343.839414,-0.011719,0.009705,-0.991577,0.312458,0.294962,-0.237863,51,269,576,5648
1644165343.887856,-0.010254,0.008728,-0.990784,0.175053,0.462901,0.006412,53,262,583,5584
1644165343.936205,-0.012451,0.00946,-0.991638,0.266656,0.325496,-0.14626,60,271,580,5552
1644165343.986586,-0.008606,0.009888,-0.995239,0.327725,0.417099,-0.115725,49,265,579,5584
1644165344.055987,-0.014526,0.01001,-0.99353,0.312458,0.386565,-0.039389,41,269,573,5600
1644165344.095034,-0.011292,0.007385,-0.992432,-0.02342,0.401832,-0.161527,60,269,578,5584
1644165344.178123,-0.010864,0.007812,-0.992554,0.175053,0.417099,-0.039389,54,268,577,5648
1644165344.226469,-0.012451,0.009766,-0.990356,0.266656,0.294962,-0.069924,55,279,576,5600
1644165344.274875,-0.01123,0.009766,-0.992126,0.205588,0.539237,-0.069924,49,275,575,5600
1644165344.32328,-0.012024,0.007629,-0.993347,0.113985,0.417099,-0.039389,41,288,571,5584
1644165344.371661,-0.01123,0.010681,-0.992493,0.419328,0.478168,-0.176794,52,270,572,5600
1644165344.420057,-0.008362,0.007996,-0.994263,0.327725,0.585038,-0.14626,52,280,572,5584
1644165344.468439,-0.008484,0.008728,-0.994995,0.205588,0.371298,-0.085191,57,273,572,5600
1644165344.516809,-0.011292,0.009766,-0.992432,0.08345,0.493435,-0.14626,46,279,578,5632
1644165344.565212,-0.009033,0.008972,-0.992798,0.373527,0.356031,0.021679,55,274,576,5536
1644165344.613623,-0.012268,0.009521,-0.991394,0.388794,0.310229,-0.024122,52,277,572,5648
1644165344.662008,-0.008606,0.009949,-0.992188,0.236122,0.569771,-0.039389,51,271,569,5600
1644165344.710388,-0.010071,0.008179,-0.991943,0.129252,0.417099,-0.237863,52,270,568,5648
1644165344.758763,-0.008789,0.010559,-0.991272,0.327725,0.462901,-0.161527,41,286,569,5600
1644165344.807213,-0.009766,0.010315,-0.991882,0.175053,0.432366,-0.069924,47,270,577,5632
1644165344.855614,-0.009399,0.008118,-0.991333,0.205588,0.279695,-0.222595,49,273,586,5584
1644165344.904011,-0.012573,0.009094,-0.993042,0.236122,0.462901,-0.192061,54,268,579,5632
1644165344.952443,-0.011047,0.009521,-0.99353,0.266656,0.386565,-0.008855,46,271,573,5648
1644165345.000752,-0.011414,0.005371,-0.994141,0.190321,0.523969,-0.100458,52,275,577,5600
1644165345.09747,-0.010132,0.007996,-0.994568,0.175053,0.310229,-0.176794,51,271,580,5600
1644165345.145879,-0.009216,0.010559,-0.991211,0.404061,0.340763,-0.207328,49,265,572,5648
1644165345.19431,-0.009216,0.009399,-0.993958,0.35826,0.417099,-0.237863,38,273,568,5600
1644165345.242693,-0.011658,0.009338,-0.994629,0.205588,0.447634,0.082748,49,270,565,5584
1644165345.291075,-0.010742,0.009399,-0.993225,0.220855,0.386565,-0.14626,53,276,562,5584
1644165345.339465,-0.011841,0.010071,-0.992981,0.098718,0.417099,0.006412,39,276,573,5584
1644165345.387853,-0.009155,0.010254,-0.992676,0.159786,0.356031,0.098015,49,280,577,5632
1644165345.436244,-0.010376,0.008545,-0.991272,0.190321,0.401832,-0.207328,53,271,587,5536
1644165345.484722,-0.007019,0.009705,-0.991821,0.297191,0.401832,-0.14626,53,274,571,5664
1644165345.533045,-0.012024,0.009094,-0.992615,0.297191,0.386565,-0.100458,57,265,586,5536
1644165345.58141,-0.00946,0.006287,-0.990417,0.236122,0.310229,-0.237863,54,265,572,5600
1644165345.629813,-0.012268,0.009216,-0.993713,0.327725,0.386565,-0.314198,59,273,582,5632
1644165345.678196,-0.013977,0.008911,-0.992676,0.205588,0.447634,-0.115725,49,270,572,5600
1644165345.726586,-0.011414,0.009033,-0.994751,0.342992,0.279695,-0.14626,46,269,569,5520
1644165345.775126,-0.010376,0.007446,-0.991699,0.144519,0.462901,0.021679,49,263,570,5584
1644165345.823413,-0.01062,0.009583,-0.994263,0.159786,0.417099,-0.176794,57,270,577,5600
1644165345.871796,-0.011536,0.007751,-0.992126,0.342992,0.539237,-0.207328,58,269,578,5584
1644165345.920187,-0.012146,0.008423,-0.993835,0.190321,0.294962,0.052214,45,270,579,5648
1644165345.968606,-0.011841,0.01239,-0.993835,0.190321,0.493435,-0.054656,49,282,582,5600
1644165346.01754,-0.011536,0.007812,-0.99353,0.35826,0.356031,-0.161527,59,273,584,5584
1644165346.077493,-0.012146,0.010193,-0.994385,0.220855,0.371298,-0.039389,45,275,584,5536
1644165346.118901,-0.010864,0.007385,-0.994873,0.159786,0.585038,-0.085191,45,273,579,5648
1644165346.162355,-0.010742,0.005981,-0.989624,0.266656,0.401832,-0.298931,47,275,575,5584
1644165346.258868,-0.010132,0.009949,-0.993469,0.236122,0.554504,0.021679,47,275,575,5584
1644165346.307254,-0.009888,0.007446,-0.991638,0.190321,0.356031,-0.237863,55,281,566,5584
1644165346.355651,-0.009338,0.009277,-0.991272,0.144519,0.493435,-0.054656,54,277,575,5648
1644165346.404064,-0.011353,0.008789,-0.993347,0.159786,0.401832,-0.039389,62,276,571,5712
1644165346.452434,-0.01062,0.009888,-0.992371,0.190321,0.432366,-0.024122,47,282,579,5584
1644165346.500832,-0.011719,0.008362,-0.99353,0.205588,0.447634,-0.069924,48,276,578,5664
1644165346.549207,-0.010742,0.008362,-0.993591,0.129252,0.310229,-0.100458,51,269,571,5632
1644165346.597612,-0.013123,0.008728,-0.990417,0.098718,0.340763,-0.085191,58,269,578,5648
1644165346.64601,-0.007568,0.010071,-0.991455,0.266656,0.401832,-0.100458,51,274,576,5696
1644165346.694397,-0.011414,0.007629,-0.990601,0.190321,0.478168,-0.115725,51,269,576,5600
1644165346.742787,-0.012695,0.010803,-0.991455,0.144519,0.310229,-0.222595,46,279,573,5584
1644165346.791178,-0.011292,0.01416,-0.99176,0.205588,0.386565,-0.024122,47,273,570,5664
1644165346.839615,-0.009705,0.005249,-0.992981,0.205588,0.340763,0.052214,53,276,571,5600
1644165346.887999,-0.010559,0.006042,-0.992432,0.190321,0.447634,-0.161527,45,280,577,5552
1644165346.936388,-0.010376,0.008667,-0.990479,0.251389,0.493435,-0.268397,45,270,575,5584
1644165346.984782,-0.012939,0.008911,-0.991516,0.220855,0.386565,-0.237863,52,268,568,5648
1644165347.047146,-0.010925,0.009277,-0.991577,0.175053,0.447634,-0.14626,51,274,576,5600
1644165347.086803,-0.012085,0.007568,-0.991638,0.098718,0.340763,-0.130992,49,273,575,5600
1644165347.130124,-0.011841,0.007324,-0.994019,0.35826,0.371298,-0.14626,48,269,580,5648
1644165347.178705,-0.007874,0.007874,-0.994141,0.205588,0.401832,-0.039389,55,271,583,5584
1644165347.229354,-0.011902,0.006958,-0.994812,0.220855,0.264427,-0.054656,48,269,578,5648
1644165347.279125,-0.01178,0.006958,-0.991821,0.266656,0.386565,-0.207328,47,275,575,5648
1644165347.324157,-0.012268,0.007141,-0.990417,0.297191,0.401832,-0.008855,55,276,576,5600
1644165347.420255,-0.009338,0.010559,-0.990295,0.266656,0.447634,-0.069924,45,263,577,5648
1644165347.468613,-0.009766,0.008057,-0.992615,0.297191,0.24916,-0.054656,60,274,569,5552
1644165347.517009,-0.011353,0.007874,-0.992859,0.175053,0.447634,-0.115725,52,275,586,5600
1644165347.565391,-0.012817,0.009399,-0.992065,0.251389,0.569771,-0.085191,55,281,580,5584
1644165347.613819,-0.008423,0.007751,-0.992615,0.098718,0.371298,-0.069924,48,276,573,5536
1644165347.662282,-0.01001,0.007019,-0.995667,0.35826,0.432366,-0.085191,41,269,578,5600
1644165347.710597,-0.010803,0.007019,-0.993286,0.220855,0.401832,-0.161527,55,276,576,5632
1644165347.759246,-0.012329,0.008728,-0.992371,0.236122,0.417099,-0.008855,57,265,584,5536
1644165347.807363,-0.013428,0.008545,-0.993713,0.312458,0.447634,-0.069924,46,266,566,5600
1644165347.855804,-0.011475,0.010437,-0.993103,0.175053,0.325496,-0.100458,48,279,576,5600
1644165347.904215,-0.011475,0.007812,-0.995178,0.129252,0.508702,-0.085191,47,275,582,5552
1644165347.952591,-0.009338,0.007996,-0.991516,0.35826,0.478168,-0.207328,54,277,584,5648
1644165348.000964,-0.010193,0.01062,-0.993713,0.190321,0.294962,-0.222595,53,266,571,5584
1644165348.057029,-0.007263,0.011719,-0.992126,0.236122,0.264427,-0.039389,47,280,570,5600
1644165348.09773,-0.009827,0.007202,-0.995361,0.281924,0.172824,-0.085191,49,280,586,5648
1644165348.146128,-0.011841,0.008301,-0.991089,0.312458,0.401832,-0.115725,33,285,575,5712
1644165348.194492,-0.008606,0.009521,-0.992249,0.220855,0.462901,-0.039389,51,283,571,5584
1644165348.24291,-0.011047,0.010559,-0.990723,0.190321,0.417099,-0.100458,43,283,583,5600
1644165348.291242,-0.009827,0.007996,-0.991211,0.159786,0.386565,-0.115725,49,273,589,5584
1644165348.340006,-0.012451,0.00708,-0.993835,0.281924,0.478168,-0.100458,48,279,566,5536
1644165348.390545,-0.00824,0.008728,-0.992798,0.236122,0.279695,-0.069924,51,269,580,5584
1644165348.440687,-0.009583,0.007812,-0.993347,0.281924,0.356031,-0.069924,57,280,572,5648
1644165348.485883,-0.01001,0.009094,-0.99176,0.175053,0.493435,0.021679,60,271,573,5600
1644165348.581606,-0.01123,0.007385,-0.991516,0.327725,0.386565,-0.130992,52,265,572,5584
1644165348.630013,-0.01178,0.008911,-0.993103,0.281924,0.401832,0.052214,58,269,573,5600
1644165348.678391,-0.009033,0.007996,-0.991577,0.266656,0.417099,-0.161527,58,269,571,5584
1644165348.726796,-0.013489,0.007324,-0.992493,0.281924,0.432366,-0.115725,58,269,583,5600
1644165348.775167,-0.01062,0.010254,-0.994629,0.251389,0.447634,-0.298931,43,271,576,5584
1644165348.823588,-0.010986,0.007935,-0.992737,0.068183,0.462901,-0.14626,53,281,571,5584
1644165348.872013,-0.009888,0.007874,-0.993958,0.220855,0.264427,-0.222595,57,275,570,5600
1644165348.920367,-0.012512,0.008667,-0.993835,0.327725,0.340763,-0.008855,54,275,572,5600
1644165348.968773,-0.01178,0.009033,-0.988831,0.022382,0.462901,-0.115725,47,273,579,5600
1644165349.017168,-0.012329,0.009583,-0.993286,0.312458,0.493435,-0.130992,55,269,578,5584
1644165349.073725,-0.011658,0.007202,-0.993652,0.434595,0.279695,-0.161527,49,277,577,5584
1644165349.113939,-0.009338,0.006897,-0.990234,0.220855,0.432366,-0.192061,53,279,576,5600
1644165349.162318,-0.011536,0.009949,-0.991089,0.266656,0.386565,-0.14626,57,275,572,5648
1644165349.210682,-0.01239,0.011169,-0.992188,0.129252,0.432366,-0.222595,49,282,584,5584
1644165349.259307,-0.009888,0.011292,-0.99054,0.35826,0.401832,-0.14626,45,275,577,5600
1644165349.310066,-0.010559,0.009644,-0.992615,0.113985,0.401832,-0.100458,51,274,573,5600
1644165349.360044,-0.010498,0.006226,-0.990051,0.08345,0.493435,-0.054656,47,265,575,5536
1644165349.405066,-0.012085,0.00885,-0.991882,0.159786,0.523969,-0.085191,59,268,575,5600
1644165349.50101,-0.013062,0.012756,-0.994507,0.159786,0.340763,-0.054656,58,271,578,5584
1644165349.5494,-0.011902,0.007324,-0.993469,0.220855,0.340763,-0.298931,52,275,572,5648
1644165349.597791,-0.011292,0.007019,-0.99292,0.037649,0.264427,0.036947,43,269,580,5552
1644165349.646202,-0.012756,0.008728,-0.99054,0.113985,0.554504,-0.054656,43,271,571,5584
1644165349.694636,-0.010071,0.007263,-0.992188,0.129252,0.371298,0.006412,52,277,572,5600
1644165349.743001,-0.01355,0.009338,-0.99231,0.251389,0.325496,-0.222595,46,274,573,5600
1644165349.791373,-0.010376,0.008667,-0.992493,0.236122,0.264427,-0.069924,48,269,580,5584
1644165349.839776,-0.011108,0.009277,-0.991638,0.205588,0.325496,-0.039389,54,280,579,5632
1644165349.88821,-0.012573,0.008606,-0.992737,0.037649,0.371298,-0.130992,48,271,573,5632
1644165349.936639,-0.011536,0.007202,-0.992859,0.190321,0.417099,-0.130992,53,269,573,5552
1644165349.984953,-0.013794,0.008606,-0.993103,0.251389,0.279695,-0.100458,52,270,577,5632
1644165350.050283,-0.009033,0.010742,-0.992249,0.220855,0.356031,0.006412,52,280,584,5584
1644165350.083903,-0.008179,0.009094,-0.992188,0.251389,0.386565,-0.100458,49,268,579,5584
1644165350.130163,-0.012024,0.010437,-0.990479,0.175053,0.356031,-0.130992,51,274,571,5600
1644165350.178534,-0.010315,0.008118,-0.994446,0.144519,0.386565,-0.192061,48,283,573,5600
1644165350.226926,-0.010559,0.008789,-0.992798,0.205588,0.539237,-0.115725,55,286,578,5600
1644165350.275319,-0.013733,0.008484,-0.992432,0.251389,0.24916,-0.115725,45,280,577,5584
1644165350.323723,-0.009521,0.008179,-0.993958,0.037649,0.279695,0.052214,49,275,575,5584
1644165350.372162,-0.010376,0.008423,-0.992249,0.190321,0.447634,-0.115725,49,275,579,5600
1644165350.421518,-0.011597,0.006897,-0.99292,0.220855,0.417099,-0.192061,54,277,570,5632
1644165350.471893,-0.010132,0.005249,-0.991638,0.281924,0.386565,-0.25313,57,277,572,5584
1644165350.522228,-0.011597,0.006165,-0.995239,0.35826,0.462901,-0.100458,52,275,577,5600
1644165350.566855,-0.012329,0.008545,-0.995117,0.205588,0.279695,-0.024122,45,277,570,5552
1644165350.662488,-0.008423,0.004883,-0.993469,0.220855,0.340763,-0.161527,54,273,572,5600
1644165350.710812,-0.012573,0.008301,-0.991455,0.312458,0.340763,-0.100458,57,273,579,5552
1644165350.759201,-0.008179,0.008972,-0.990295,0.281924,0.539237,0.021679,48,271,578,5584
1644165350.807601,-0.009399,0.00769,-0.989075,0.35826,0.432366,-0.100458,51,274,578,5584
1644165350.855999,-0.011536,0.009949,-0.991028,0.373527,0.432366,-0.024122,43,271,580,5648
1644165350.904392,-0.008362,0.01123,-0.990906,0.327725,0.371298,-0.115725,47,277,570,5648
1644165350.952787,-0.010376,0.010681,-0.992615,0.251389,0.24916,-0.130992,51,279,573,5520
1644165351.001142,-0.011047,0.010376,-0.991577,0.220855,0.401832,-0.024122,48,279,576,5552
1644165351.053039,-0.009338,0.010437,-0.992432,0.205588,0.478168,-0.237863,60,286,587,5632
1644165351.097924,-0.00885,0.012024,-0.991638,0.159786,0.401832,-0.130992,55,276,580,5648
1644165351.146291,-0.008911,0.009644,-0.992615,0.205588,0.371298,0.006412,45,277,582,5584
1644165351.194888,-0.012634,0.006897,-0.991943,0.266656,0.462901,-0.14626,40,273,577,5600
1644165351.243069,-0.009216,0.008972,-0.991455,0.266656,0.478168,-0.024122,41,266,580,5536
1644165351.291471,-0.00824,0.010132,-0.992249,0.251389,0.401832,-0.115725,57,275,586,5648
1644165351.339869,-0.010193,0.012146,-0.992737,0.327725,0.569771,-0.207328,53,274,578,5648
1644165351.388242,-0.01123,0.008911,-0.993652,0.159786,0.264427,-0.039389,47,277,577,5600
1644165351.436635,-0.010803,0.007996,-0.996582,0.251389,0.447634,-0.039389,46,274,573,5648
1644165351.485067,-0.012085,0.00769,-0.993713,0.190321,0.417099,-0.100458,57,273,572,5600
1644165351.533428,-0.01178,0.008423,-0.992126,0.175053,0.371298,-0.25313,52,277,568,5536
1644165351.582272,-0.010986,0.007019,-0.99469,0.342992,0.356031,-0.054656,52,265,582,5632
1644165351.632499,-0.012085,0.007935,-0.99408,0.144519,0.401832,-0.100458,48,271,569,5552
1644165351.683016,-0.011047,0.011169,-0.993958,0.388794,0.371298,0.021679,47,270,570,5600
1644165351.728032,-0.013306,0.008911,-0.995117,0.205588,0.478168,-0.069924,57,275,586,5648
1644165351.823801,-0.011841,0.010254,-0.992126,0.281924,0.401832,-0.14626,48,264,571,5584
1644165351.872474,-0.013916,0.007507,-0.991943,0.144519,0.371298,-0.222595,52,260,575,5552
1644165351.92057,-0.012634,0.007019,-0.994812,0.281924,0.371298,-0.024122,46,271,573,5536
1644165351.968985,-0.012695,0.010742,-0.995483,0.266656,0.356031,-0.176794,42,280,584,5536
1644165352.017358,-0.010681,0.00531,-0.993286,0.129252,0.447634,-0.100458,53,286,576,5648
1644165352.065784,-0.010437,0.009827,-0.990906,0.373527,0.478168,-0.130992,49,277,591,5584
1644165352.114146,-0.012207,0.010498,-0.991882,0.404061,0.478168,-0.069924,51,264,566,5584
1644165352.16252,-0.009583,0.010254,-0.991638,0.236122,0.325496,-0.14626,48,276,571,5600
1644165352.210884,-0.012512,0.011108,-0.994263,0.098718,0.462901,-0.115725,47,268,577,5536
1644165352.259284,-0.015991,0.006714,-0.992432,0.159786,0.432366,-0.069924,45,270,577,5584
1644165352.307671,-0.012207,0.006104,-0.993713,0.312458,0.417099,-0.161527,60,262,580,5632
1644165352.356057,-0.012085,0.006958,-0.993225,0.297191,0.401832,-0.25313,42,275,575,5584
1644165352.404455,-0.010376,0.007141,-0.992737,0.297191,0.462901,-0.069924,48,264,571,5552
1644165352.452858,-0.009399,0.010071,-0.994629,0.266656,0.478168,-0.161527,40,273,575,5648
1644165352.501198,-0.011108,0.007385,-0.991577,0.251389,0.508702,-0.161527,47,268,584,5552
1644165352.549625,-0.009338,0.008301,-0.992432,0.434595,0.478168,-0.130992,57,270,582,5536
1644165352.598011,-0.008972,0.01178,-0.991943,0.327725,0.401832,-0.054656,54,268,572,5584
1644165352.646399,-0.010254,0.004761,-0.991882,0.159786,0.340763,-0.115725,54,270,570,5648
1644165352.694794,-0.011658,0.007019,-0.992798,0.175053,0.447634,-0.176794,49,277,575,5536
1644165352.743557,-0.013306,0.005981,-0.994324,0.251389,0.386565,-0.130992,48,264,583,5584
1644165352.795283,-0.009766,0.009766,-0.991455,0.175053,0.493435,-0.222595,53,264,576,5584
1644165352.844765,-0.009338,0.009521,-0.991028,0.220855,0.447634,-0.024122,51,266,576,5584
1644165352.889487,-0.009338,0.00769,-0.994995,0.220855,0.462901,-0.207328,47,268,577,5584
1644165352.985419,-0.009766,0.007202,-0.992737,0.175053,0.325496,-0.024122,53,271,573,5600
1644165353.047474,-0.012146,0.007751,-0.993164,0.266656,0.539237,0.052214,43,271,585,5648
1644165353.084799,-0.010071,0.008484,-0.99231,0.190321,0.523969,-0.024122,59,268,584,5584
1644165353.130292,-0.008972,0.007385,-0.990784,0.312458,0.462901,-0.008855,49,277,579,5552
1644165353.17869,-0.01001,0.008118,-0.994507,0.205588,0.310229,-0.176794,45,277,579,5536
1644165353.227079,-0.013306,0.008362,-0.99231,0.251389,0.356031,-0.085191,52,277,575,5584
1644165353.27547,-0.012573,0.008362,-0.991699,0.281924,0.585038,-0.161527,49,270,582,5632
1644165353.323856,-0.011292,0.010559,-0.992798,0.236122,0.401832,-0.222595,64,280,577,5584
1644165353.372249,-0.010193,0.009155,-0.991272,0.297191,0.325496,-0.024122,46,283,578,5600
1644165353.420646,-0.01123,0.008972,-0.992737,0.159786,0.325496,-0.085191,46,264,573,5584
1644165353.469034,-0.009521,0.008667,-0.994263,0.205588,0.310229,-0.085191,43,274,576,5536
1644165353.517397,-0.010986,0.008545,-0.991211,0.297191,0.462901,-0.192061,52,277,572,5584
1644165353.565814,-0.010681,0.006104,-0.994995,0.220855,0.371298,-0.14626,43,276,580,5584
1644165353.61424,-0.008484,0.006042,-0.994812,0.08345,0.63084,-0.039389,46,271,578,5584
1644165353.664647,-0.012268,0.007751,-0.990784,0.236122,0.386565,0.052214,53,283,585,5648
1644165353.714999,-0.009827,0.007996,-0.989746,0.251389,0.401832,-0.069924,52,270,584,5552
1644165353.760042,-0.009949,0.010742,-0.991943,0.159786,0.508702,-0.207328,49,270,577,5552
1644165353.856165,-0.01062,0.008728,-0.991516,0.297191,0.447634,-0.039389,51,288,585,5536
1644165353.905097,-0.011902,0.008606,-0.991882,0.297191,0.356031,-0.222595,48,271,578,5600
1644165353.952984,-0.011597,0.005127,-0.990417,0.205588,0.310229,-0.268397,47,270,570,5600
1644165354.001374,-0.01239,0.012634,-0.990356,0.312458,0.310229,-0.176794,54,275,584,5584
1644165354.054864,-0.009216,0.011292,-0.992371,0.159786,0.462901,-0.100458,51,279,587,5632
1644165354.098083,-0.011475,0.010071,-0.988525,0.281924,0.523969,-0.192061,41,266,573,5584
1644165354.146488,-0.010803,0.007751,-0.992249,0.205588,0.539237,-0.054656,57,275,579,5584
1644165354.194872,-0.013184,0.007812,-0.990173,0.281924,0.371298,-0.192061,47,270,584,5632
1644165354.243281,-0.009949,0.009521,-0.994019,0.327725,0.432366,-0.069924,45,280,575,5600
1644165354.291666,-0.009827,0.009644,-0.992188,0.205588,0.478168,-0.024122,49,270,579,5584
1644165354.34005,-0.011108,0.00946,-0.991577,0.205588,0.417099,-0.008855,46,271,569,5600
1644165354.388442,-0.009949,0.009033,-0.991699,0.144519,0.340763,-0.008855,48,269,569,5584
1644165354.436835,-0.010437,0.008423,-0.991943,0.236122,0.462901,-0.085191,54,285,570,5584
1644165354.485286,-0.01416,0.01062,-0.991211,0.220855,0.233893,-0.115725,49,275,570,5648
1644165354.533606,-0.012268,0.006714,-0.994385,0.205588,0.401832,-0.039389,57,275,575,5648
1644165354.582006,-0.012268,0.010315,-0.99292,0.220855,0.371298,-0.054656,49,282,575,5536
1644165354.630402,-0.013367,0.009705,-0.992615,0.281924,0.432366,-0.008855,49,270,582,5648
1644165354.678791,-0.010986,0.010193,-0.993896,0.159786,0.478168,-0.176794,49,275,582,5584
1644165354.727174,-0.009583,0.01062,-0.990417,0.205588,0.325496,-0.268397,51,274,571,5552
1644165354.775588,-0.009155,0.010864,-0.994202,0.175053,0.432366,-0.207328,54,273,582,5632
1644165354.826146,-0.013367,0.010254,-0.993896,0.449863,0.493435,-0.130992,49,275,577,5584
1644165354.877166,-0.010315,0.008057,-0.994202,0.327725,0.478168,-0.115725,43,274,571,5648
1644165354.921623,-0.011047,0.010193,-0.99115,0.205588,0.340763,-0.161527,53,269,562,5632
1644165355.017542,-0.013855,0.008179,-0.995056,0.175053,0.294962,-0.161527,54,270,575,5600
1644165355.066052,-0.01178,0.011047,-0.991699,0.129252,0.386565,-0.192061,55,274,580,5536
1644165355.114318,-0.011841,0.008972,-0.990295,0.266656,0.508702,0.021679,45,265,577,5648
1644165355.162699,-0.011353,0.011902,-0.992798,0.205588,0.371298,-0.14626,40,273,575,5552
1644165355.211063,-0.011536,0.006653,-0.994019,0.251389,0.218626,-0.14626,49,273,572,5600
1644165355.259446,-0.009155,0.007629,-0.993591,0.388794,0.447634,-0.085191,51,271,573,5648
1644165355.307848,-0.011536,0.009033,-0.99292,0.220855,0.569771,-0.14626,49,265,579,5584
1644165355.356222,-0.009399,0.008545,-0.99408,0.312458,0.386565,-0.069924,58,274,578,5648
1644165355.404654,-0.011658,0.009827,-0.992554,0.297191,0.432366,-0.161527,49,277,575,5536
1644165355.453052,-0.011841,0.00885,-0.994995,0.190321,0.340763,-0.14626,43,276,573,5536
1644165355.501424,-0.009583,0.00946,-0.994629,0.281924,0.386565,-0.283664,43,276,583,5584
1644165355.549809,-0.012146,0.007935,-0.992493,0.342992,0.294962,-0.100458,47,277,568,5648
1644165355.598192,-0.012756,0.010132,-0.991028,0.297191,0.432366,-0.008855,45,273,582,5600
1644165355.646564,-0.008911,0.00885,-0.992615,0.205588,0.356031,-0.115725,64,280,579,5584
1644165355.695037,-0.007996,0.008606,-0.991028,0.175053,0.340763,0.021679,53,274,573,5600
1644165355.743371,-0.010132,0.009583,-0.994629,0.113985,0.432366,-0.130992,47,270,582,5600
1644165355.791744,-0.009033,0.009155,-0.990845,0.175053,0.462901,-0.069924,54,270,570,5600
1644165355.84024,-0.009033,0.009338,-0.994873,0.251389,0.401832,-0.421069,54,270,572,5648
1644165355.888794,-0.011414,0.007568,-0.994873,0.175053,0.417099,-0.069924,54,265,572,5584
1644165355.939013,-0.013184,0.006226,-0.992981,0.159786,0.432366,-0.069924,49,270,570,5600
1644165355.988982,-0.01123,0.007812,-0.991882,0.312458,0.447634,-0.039389,61,268,579,5552
1644165356.059994,-0.011597,0.009094,-0.991577,0.205588,0.279695,-0.176794,52,277,577,5536
1644165356.130531,-0.012146,0.009216,-0.992493,0.251389,0.356031,0.067481,41,281,571,5600
1644165356.17889,-0.01062,0.008179,-0.991455,0.236122,0.356031,-0.130992,41,286,573,5536
1644165356.227253,-0.010803,0.008789,-0.992126,0.113985,0.523969,-0.115725,55,266,573,5600
1644165356.275629,-0.009583,0.009827,-0.992554,0.35826,0.325496,-0.054656,53,276,573,5648
1644165356.324051,-0.010681,0.010193,-0.98999,0.327725,0.462901,-0.130992,49,265,568,5584
1644165356.372479,-0.01178,0.010132,-0.992065,0.236122,0.401832,-0.283664,51,281,578,5584
1644165356.420834,-0.01123,0.005554,-0.994263,0.113985,0.401832,-0.130992,51,266,578,5648
1644165356.469229,-0.009033,0.007446,-0.99469,0.159786,0.371298,0.067481,58,269,564,5584
1644165356.517616,-0.011902,0.01001,-0.993713,0.342992,0.264427,-0.100458,45,273,565,5584
1644165356.56601,-0.011597,0.009583,-0.992737,0.190321,0.493435,-0.039389,51,279,573,5648
1644165356.614413,-0.013672,0.00885,-0.993835,0.342992,0.539237,-0.176794,48,276,573,5536
1644165356.662805,-0.009277,0.007263,-0.992981,0.113985,0.386565,-0.268397,51,271,580,5584
1644165356.711171,-0.010315,0.00885,-0.991699,0.312458,0.386565,-0.085191,55,271,578,5584
1644165356.759539,-0.009766,0.011658,-0.992371,0.297191,0.447634,-0.054656,49,273,582,5648
1644165356.807957,-0.007141,0.008667,-0.992615,0.159786,0.508702,-0.085191,52,265,577,5648
1644165356.856388,-0.010986,0.011047,-0.993103,0.327725,0.478168,-0.176794,49,275,586,5632
1644165356.904797,-0.010254,0.00647,-0.992981,0.129252,0.462901,0.036947,54,275,575,5552
1644165356.953553,-0.013428,0.007019,-0.991577,0.388794,0.493435,-0.161527,55,279,573,5552
1644165357.001552,-0.010803,0.010559,-0.991089,0.312458,0.600305,0.021679,51,271,573,5600
1644165357.067263,-0.011353,0.007141,-0.990906,0.175053,0.478168,0.036947,54,275,572,5584
1644165357.099074,-0.010742,0.009888,-0.992981,0.236122,0.554504,0.006412,45,277,584,5600
1644165357.195316,-0.010071,0.012146,-0.99231,0.190321,0.432366,-0.161527,52,280,570,5600
1644165357.243479,-0.010193,0.009583,-0.990967,0.388794,0.432366,-0.008855,42,275,584,5584
1644165357.29187,-0.013489,0.007874,-0.991394,0.175053,0.508702,-0.115725,54,273,568,5552
1644165357.34024,-0.011658,0.012085,-0.994202,0.373527,0.447634,-0.069924,55,276,569,5648
1644165357.38864,-0.011292,0.009705,-0.992432,0.251389,0.386565,-0.268397,46,269,576,5664
1644165357.436999,-0.013916,0.010498,-0.992676,0.297191,0.340763,-0.069924,49,268,575,5600
1644165357.485419,-0.011169,0.009827,-0.992981,0.312458,0.462901,-0.115725,55,276,573,5648
1644165357.533792,-0.009338,0.007446,-0.991272,0.281924,0.371298,-0.085191,48,281,580,5600
1644165357.582226,-0.012939,0.006714,-0.993347,0.113985,0.600305,-0.054656,61,273,565,5584
1644165357.630592,-0.011475,0.011353,-0.993286,0.266656,0.478168,-0.054656,48,283,580,5600
1644165357.678988,-0.01062,0.009949,-0.993652,0.022382,0.417099,0.036947,40,280,579,5600
1644165357.72737,-0.009521,0.007812,-0.992859,0.175053,0.356031,-0.161527,55,276,587,5632
1644165357.775754,-0.011902,0.010071,-0.99115,0.205588,0.401832,-0.14626,49,285,577,5584
1644165357.824135,-0.011536,0.007568,-0.992126,0.297191,0.371298,-0.100458,49,285,582,5648
1644165357.872645,-0.012695,0.006592,-0.993164,0.312458,0.493435,-0.176794,43,286,583,5664
1644165357.920984,-0.009644,0.005981,-0.989746,0.297191,0.462901,-0.085191,57,280,577,5584
1644165357.969366,-0.011414,0.00885,-0.990234,0.220855,0.356031,-0.085191,52,270,572,5648
1644165358.017791,-0.008789,0.007446,-0.992859,0.35826,0.386565,-0.161527,45,280,568,5584
1644165358.072485,-0.00885,0.008118,-0.992188,0.220855,0.340763,-0.100458,47,275,570,5584
1644165358.114806,-0.008789,0.008118,-0.99408,0.113985,0.340763,-0.085191,41,276,580,5584
1644165358.165231,-0.007996,0.00885,-0.991333,0.236122,0.356031,-0.14626,55,269,571,5600
1644165358.215383,-0.011292,0.008606,-0.992493,0.297191,0.340763,-0.314198,42,270,577,5536
1644165358.260568,-0.007812,0.009277,-0.994324,0.266656,0.340763,-0.069924,53,279,578,5648
1644165358.35643,-0.009094,0.006592,-0.994324,0.236122,0.447634,-0.161527,51,274,580,5648
1644165358.404869,-0.009644,0.010803,-0.98999,0.098718,0.417099,-0.14626,55,274,576,5584
1644165358.454408,-0.013611,0.006592,-0.992249,0.342992,0.386565,-0.100458,42,268,582,5584
1644165358.501619,-0.012207,0.008118,-0.992432,0.190321,0.294962,-0.085191,51,274,571,5600
1644165358.550008,-0.009277,0.007812,-0.992432,0.236122,0.417099,0.021679,51,274,569,5584
1644165358.598404,-0.008301,0.010071,-0.992432,0.236122,0.401832,-0.100458,51,274,573,5584
1644165358.646781,-0.010803,0.009399,-0.99176,0.297191,0.310229,-0.008855,49,275,568,5584
1644165358.695173,-0.010803,0.004761,-0.992859,0.281924,0.386565,-0.008855,54,270,579,5536
1644165358.743561,-0.011658,0.010071,-0.995544,0.236122,0.417099,-0.130992,47,280,575,5648
1644165358.792008,-0.009399,0.008606,-0.993652,0.236122,0.386565,-0.100458,46,274,587,5584
1644165358.840379,-0.009033,0.008606,-0.990234,0.404061,0.508702,-0.069924,53,269,564,5632
1644165358.88878,-0.010925,0.009033,-0.990479,0.251389,0.279695,-0.161527,59,273,579,5648
1644165358.937163,-0.010559,0.010193,-0.990417,0.220855,0.401832,-0.069924,42,277,579,5584
1644165358.985556,-0.007874,0.009644,-0.99054,0.190321,0.371298,-0.161527,59,273,577,5584
1644165359.05055,-0.011353,0.00769,-0.992493,0.190321,0.264427,-0.207328,46,274,580,5664
1644165359.084772,-0.009094,0.009949,-0.991516,0.312458,0.264427,-0.085191,53,276,583,5600
1644165359.130673,-0.010742,0.008545,-0.992676,0.175053,0.340763,-0.039389,47,270,584,5632
1644165359.179073,-0.011963,0.007263,-0.994873,0.144519,0.356031,-0.100458,47,268,575,5584
1644165359.22746,-0.010437,0.010071,-0.993774,0.297191,0.523969,-0.130992,53,274,583,5600
1644165359.276138,-0.00946,0.009033,-0.992554,0.281924,0.356031,-0.130992,48,269,578,5584
1644165359.326554,-0.009888,0.007874,-0.991943,0.297191,0.371298,-0.008855,52,277,579,5600
1644165359.376686,-0.010925,0.010559,-0.991577,0.129252,0.310229,0.036947,46,279,576,5584
1644165359.421753,-0.012878,0.009766,-0.992859,0.251389,0.447634,-0.115725,43,269,576,5584
1644165359.517787,-0.011841,0.010376,-0.992859,0.175053,0.24916,0.113282,45,275,572,5632
1644165359.566186,-0.013489,0.008301,-0.992676,0.327725,0.417099,-0.054656,53,271,573,5584
1644165359.614843,-0.007629,0.007446,-0.990051,0.388794,0.478168,-0.039389,49,282,568,5584
1644165359.662993,-0.01062,0.009827,-0.991577,0.144519,0.371298,-0.054656,52,268,572,5600
1644165359.711348,-0.009888,0.010376,-0.992737,0.113985,0.279695,0.006412,48,274,573,5632
1644165359.759744,-0.010803,0.008789,-0.993225,0.220855,0.310229,-0.008855,52,277,577,5584
1644165359.808195,-0.010681,0.010864,-0.99353,0.220855,0.325496,-0.039389,47,273,565,5584
1644165359.856582,-0.010132,0.00647,-0.991821,0.052916,0.401832,-0.222595,52,275,565,5648
1644165359.905111,-0.008301,0.011108,-0.993164,0.373527,0.371298,-0.085191,51,269,566,5584
1644165359.953371,-0.010559,0.007446,-0.994507,0.190321,0.310229,-0.161527,51,274,578,5600
1644165360.001755,-0.011414,0.013428,-0.993835,0.205588,0.462901,-0.054656,55,274,569,5600
1644165360.050889,-0.011169,0.00885,-0.990173,0.312458,0.523969,0.036947,49,290,572,5648
1644165360.098524,-0.011169,0.007263,-0.98999,0.175053,0.432366,-0.130992,61,282,582,5600
1644165360.146879,-0.005676,0.010376,-0.990356,0.236122,0.401832,-0.176794,54,275,584,5600
1644165360.195266,-0.010803,0.007019,-0.993408,0.113985,0.493435,0.113282,54,273,572,5648
1644165360.243664,-0.010376,0.008972,-0.994324,0.175053,0.447634,-0.008855,51,279,573,5600
1644165360.292057,-0.012573,0.008118,-0.990845,0.175053,0.493435,-0.161527,52,273,577,5584
1644165360.340447,-0.012207,0.009155,-0.991943,0.159786,0.340763,-0.085191,49,270,572,5552
1644165360.388805,-0.01001,0.008545,-0.993042,0.373527,0.447634,0.036947,55,274,580,5632
1644165360.437411,-0.00946,0.009399,-0.993469,0.236122,0.447634,-0.024122,48,274,566,5664
1644165360.487741,-0.008545,0.008545,-0.99353,0.327725,0.432366,-0.14626,45,280,568,5584
1644165360.53796,-0.011108,0.011963,-0.991394,0.312458,0.310229,-0.115725,52,273,579,5584
1644165360.58295,-0.010498,0.007996,-0.992676,0.007115,0.340763,-0.085191,58,264,578,5648
1644165360.679148,-0.011475,0.009949,-0.990845,0.342992,0.264427,-0.115725,42,265,568,5584
1644165360.727554,-0.008789,0.008728,-0.991882,0.342992,0.371298,-0.115725,49,282,577,5648
1644165360.775933,-0.012451,0.01001,-0.993469,0.312458,0.447634,-0.039389,49,270,579,5648
1644165360.824398,-0.010498,0.009155,-0.987427,0.175053,0.539237,-0.100458,42,275,584,5584
1644165360.872795,-0.011169,0.008667,-0.99292,0.175053,0.371298,-0.161527,57,275,570,5600
1644165360.921171,-0.011047,0.010803,-0.992432,0.297191,0.417099,-0.222595,52,270,579,5536
1644165360.969557,-0.011658,0.008667,-0.992004,0.190321,0.356031,-0.115725,49,268,572,5648
1644165361.01796,-0.008667,0.008057,-0.990967,0.159786,0.356031,-0.054656,55,269,590,5584
1644165361.072305,-0.013245,0.007202,-0.991028,0.08345,0.325496,0.036947,45,273,579,5584
1644165361.114707,-0.010254,0.005981,-0.99231,0.327725,0.432366,0.021679,48,279,580,5552
1644165361.163095,-0.009338,0.008667,-0.989746,0.205588,0.310229,-0.207328,52,265,570,5552
1644165361.21147,-0.008301,0.008972,-0.992249,0.342992,0.493435,-0.069924,53,279,571,5536
1644165361.260188,-0.008179,0.009827,-0.994019,0.129252,0.294962,-0.024122,52,268,584,5664
1644165361.310262,-0.011536,0.009827,-0.990662,0.205588,0.371298,-0.100458,45,280,570,5488
1644165361.359953,-0.011963,0.009705,-0.99115,0.251389,0.401832,-0.069924,46,279,578,5584
1644165361.410165,-0.011536,0.010071,-0.993347,0.342992,0.401832,-0.024122,55,274,566,5600
1644165361.501822,-0.011169,0.008179,-0.993164,0.220855,0.356031,-0.207328,45,268,577,5584
1644165361.550189,-0.01178,0.007935,-0.992615,0.129252,0.401832,-0.024122,48,271,580,5536
1644165361.598562,-0.009094,0.009827,-0.994873,0.175053,0.493435,-0.100458,51,283,576,5536
1644165361.646945,-0.010864,0.00946,-0.992554,0.297191,0.310229,-0.100458,45,277,577,5584
1644165361.695359,-0.008667,0.008362,-0.993774,0.236122,0.462901,-0.008855,45,265,572,5536
1644165361.743733,-0.010925,0.011353,-0.991943,0.35826,0.386565,-0.039389,47,275,586,5600
1644165361.792441,-0.014404,0.009644,-0.991943,0.327725,0.401832,-0.039389,52,280,575,5648
1644165361.840588,-0.010437,0.010254,-0.990112,0.175053,0.294962,-0.039389,47,277,570,5488
1644165361.888986,-0.011719,0.009033,-0.994812,0.190321,0.371298,-0.115725,48,271,564,5648
1644165361.937341,-0.012756,0.008728,-0.992126,0.251389,0.447634,-0.130992,53,276,578,5536
1644165361.985758,-0.008972,0.008545,-0.993591,0.205588,0.401832,-0.085191,58,279,576,5648
1644165362.050482,-0.009827,0.007568,-0.993103,0.251389,0.386565,-0.054656,49,280,575,5648
1644165362.08494,-0.011047,0.008667,-0.990723,0.266656,0.310229,-0.14626,55,274,583,5696
1644165362.130897,-0.011475,0.009705,-0.991821,0.205588,0.417099,-0.069924,52,270,577,5600
1644165362.179273,-0.012451,0.009094,-0.991516,0.205588,0.462901,-0.054656,49,280,565,5664
1644165362.227653,-0.009094,0.008728,-0.99176,0.220855,0.432366,-0.176794,54,277,572,5648
1644165362.276055,-0.011658,0.00708,-0.992676,0.297191,0.493435,-0.085191,51,279,578,5584
1644165362.324448,-0.010132,0.008545,-0.993408,0.281924,0.478168,-0.115725,58,271,562,5600
1644165362.373174,-0.011108,0.007874,-0.991028,0.113985,0.294962,-0.069924,58,281,571,5600
1644165362.421899,-0.01239,0.009888,-0.994141,0.251389,0.508702,-0.130992,53,262,580,5536
1644165362.472509,-0.014099,0.008057,-0.992615,0.190321,0.340763,-0.100458,51,276,583,5552
1644165362.522884,-0.013977,0.010132,-0.993958,0.175053,0.401832,-0.222595,53,276,583,5584
1644165362.567776,-0.009521,0.010376,-0.993713,0.266656,0.478168,-0.161527,60,281,566,5600
1644165362.663181,-0.010132,0.007996,-0.993896,0.35826,0.493435,-0.024122,54,273,584,5600
1644165362.711559,-0.011658,0.00824,-0.991089,0.297191,0.493435,-0.207328,47,275,563,5600
1644165362.759935,-0.013794,0.009705,-0.992065,0.251389,0.462901,0.067481,42,280,577,5584
1644165362.808338,-0.010742,0.011963,-0.991821,0.297191,0.294962,-0.207328,46,279,580,5552
1644165362.856755,-0.007629,0.008484,-0.993408,0.312458,0.447634,-0.176794,47,273,575,5632
1644165362.9052,-0.007874,0.011658,-0.99231,0.327725,0.432366,-0.314198,55,274,578,5664
1644165362.953569,-0.01355,0.007568,-0.990112,0.312458,0.340763,-0.039389,53,271,564,5600
1644165363.001923,-0.011108,0.010193,-0.988525,0.098718,0.508702,-0.085191,54,277,572,5584
1644165363.054864,-0.01123,0.008179,-0.992981,0.312458,0.401832,-0.054656,46,279,571,5632
1644165363.098704,-0.011047,0.011108,-0.992371,0.266656,0.340763,-0.069924,40,275,577,5584
1644165363.147081,-0.00885,0.013306,-0.993103,0.388794,0.310229,-0.14626,41,269,578,5536
1644165363.195442,-0.009094,0.009888,-0.992981,0.312458,0.325496,-0.054656,51,259,585,5648
1644165363.243868,-0.013672,0.010376,-0.992432,0.175053,0.356031,-0.100458,43,271,576,5648
1644165363.292263,-0.010742,0.009033,-0.992065,0.342992,0.310229,-0.054656,48,274,569,5584
1644165363.340647,-0.01001,0.010437,-0.991882,0.281924,0.417099,-0.069924,46,271,583,5536
1644165363.389033,-0.012024,0.007996,-0.991272,0.190321,0.371298,-0.069924,53,274,578,5584
1644165363.437399,-0.011108,0.010376,-0.990112,0.342992,0.371298,-0.207328,45,263,577,5584
1644165363.485812,-0.007629,0.012207,-0.989319,0.144519,0.462901,-0.085191,51,283,580,5584
1644165363.534202,-0.012268,0.010742,-0.992981,0.129252,0.218626,-0.024122,45,277,582,5600
1644165363.582652,-0.010986,0.011658,-0.991577,0.220855,0.294962,-0.100458,52,273,582,5584
1644165363.633239,-0.009888,0.009216,-0.988525,0.098718,0.310229,0.006412,48,281,578,5600
1644165363.683664,-0.011047,0.010559,-0.992615,0.236122,0.356031,-0.008855,53,276,576,5648
1644165363.728571,-0.010376,0.009888,-0.992676,0.129252,0.432366,-0.069924,51,264,576,5600
1644165363.824554,-0.007446,0.010559,-0.992004,0.281924,0.508702,-0.176794,51,271,583,5584
1644165363.872992,-0.011658,0.007568,-0.992615,0.220855,0.371298,-0.039389,40,275,572,5552
1644165363.921362,-0.009277,0.012878,-0.992737,0.190321,0.447634,-0.207328,47,273,582,5600
1644165363.969745,-0.007507,0.010437,-0.990784,0.312458,0.417099,-0.161527,57,273,582,5600
1644165364.018122,-0.009521,0.010498,-0.992859,0.266656,0.539237,-0.039389,51,279,573,5584
1644165364.066606,-0.011353,0.008606,-0.993713,0.175053,0.401832,-0.039389,51,283,580,5584
1644165364.114919,-0.012085,0.012329,-0.990906,0.327725,0.401832,-0.024122,47,277,572,5584
1644165364.16328,-0.009583,0.007507,-0.993958,0.159786,0.356031,-0.14626,49,277,577,5600
1644165364.211667,-0.009521,0.010376,-0.991028,0.297191,0.569771,-0.054656,54,273,565,5648
1644165364.260025,-0.007812,0.011353,-0.99176,0.266656,0.386565,-0.314198,43,276,580,5664
1644165364.308449,-0.008972,0.008789,-0.993164,0.159786,0.508702,-0.039389,43,271,573,5584
1644165364.356845,-0.013733,0.011414,-0.992371,0.312458,0.523969,-0.176794,41,288,578,5664
1644165364.40528,-0.009277,0.009094,-0.992676,0.251389,0.478168,-0.054656,47,273,577,5648
1644165364.453619,-0.012085,0.007874,-0.990417,0.312458,0.310229,-0.085191,58,279,578,5584
1644165364.501977,-0.006714,0.012329,-0.992615,0.327725,0.356031,-0.161527,47,270,582,5520
1644165364.55039,-0.013794,0.010681,-0.992493,0.266656,0.493435,0.021679,58,271,578,5536
1644165364.598775,-0.007935,0.007324,-0.988098,0.281924,0.432366,-0.176794,49,282,579,5584
1644165364.647174,-0.011719,0.012451,-0.990784,0.220855,0.401832,-0.130992,52,265,572,5584
1644165364.695936,-0.013794,0.010254,-0.993042,0.098718,0.478168,-0.100458,52,273,572,5632
1644165364.746437,-0.011108,0.009399,-0.992004,0.281924,0.432366,-0.039389,54,270,577,5600
1644165364.796574,-0.010559,0.010254,-0.992126,0.129252,0.340763,-0.100458,46,276,571,5600
1644165364.841535,-0.010437,0.011597,-0.992126,0.236122,0.478168,-0.100458,49,270,572,5648
1644165364.937567,-0.008057,0.009583,-0.990784,0.236122,0.462901,-0.115725,51,269,564,5600
1644165364.985946,-0.01239,0.006409,-0.992859,0.037649,0.401832,-0.054656,55,271,576,5600
1644165365.04762,-0.011597,0.007568,-0.991699,0.266656,0.417099,-0.176794,48,269,576,5632
1644165365.084918,-0.009155,0.010742,-0.992249,0.037649,0.417099,-0.161527,58,279,578,5632
1644165365.13113,-0.012634,0.010254,-0.992859,0.175053,0.539237,-0.008855,52,275,563,5584
1644165365.179481,-0.01239,0.008545,-0.994751,0.434595,0.447634,-0.069924,47,287,582,5552
1644165365.227868,-0.010681,0.009399,-0.993713,0.236122,0.371298,-0.25313,45,265,568,5536
1644165365.276252,-0.010315,0.007141,-0.992249,0.35826,0.340763,-0.192061,49,268,577,5584
1644165365.324707,-0.011353,0.007385,-0.993408,0.205588,0.294962,-0.115725,54,282,575,5584
1644165365.373044,-0.008728,0.00946,-0.991394,0.205588,0.478168,-0.207328,47,270,586,5584
1644165365.421433,-0.00824,0.008484,-0.991577,0.251389,0.523969,-0.298931,49,268,572,5632
1644165365.469801,-0.009216,0.01001,-0.992065,0.190321,0.447634,-0.085191,52,270,577,5584
1644165365.518148,-0.009705,0.008545,-0.989197,0.220855,0.478168,-0.085191,55,276,578,5648
1644165365.566585,-0.01062,0.008362,-0.992798,0.312458,0.539237,-0.039389,51,283,571,5552
1644165365.61535,-0.010681,0.007385,-0.990906,0.129252,0.294962,0.006412,48,279,571,5536
1644165365.664938,-0.008179,0.007874,-0.992371,0.281924,0.417099,-0.161527,52,265,568,5600
1644165365.714953,-0.01062,0.009766,-0.992188,0.205588,0.371298,-0.085191,47,275,577,5584
1644165365.765662,-0.010498,0.009888,-0.99176,0.251389,0.371298,-0.176794,53,281,571,5632
1644165365.856925,-0.010132,0.007629,-0.99408,0.220855,0.432366,-0.024122,42,275,568,5648
1644165365.905468,-0.011475,0.009521,-0.991455,0.266656,0.24916,-0.14626,52,277,568,5600
1644165365.953763,-0.010376,0.010376,-0.990417,0.373527,0.523969,-0.115725,51,276,573,5584
1644165366.002426,-0.012512,0.011108,-0.994385,0.35826,0.508702,-0.176794,58,279,583,5584
1644165366.053063,-0.009399,0.013306,-0.996338,0.098718,0.371298,0.067481,53,269,578,5584
1644165366.098867,-0.009277,0.008545,-0.990601,0.144519,0.447634,0.021679,55,276,578,5648
1644165366.147241,-0.011292,0.009583,-0.990051,0.266656,0.417099,-0.130992,51,281,580,5584
1644165366.195667,-0.010986,0.010498,-0.992981,0.251389,0.279695,-0.100458,51,279,585,5552
1644165366.244065,-0.012695,0.008789,-0.993774,0.251389,0.417099,-0.085191,59,277,575,5648
1644165366.292466,-0.008667,0.010376,-0.990601,0.098718,0.478168,-0.085191,57,275,575,5552
1644165366.340852,-0.009399,0.008667,-0.994263,0.297191,0.417099,-0.024122,42,277,577,5584
1644165366.389226,-0.010071,0.008789,-0.991699,0.388794,0.447634,-0.054656,45,270,572,5600
1644165366.437618,-0.010193,0.008606,-0.994019,0.35826,0.310229,-0.085191,53,266,566,5584
1644165366.485999,-0.01062,0.009705,-0.994873,0.205588,0.310229,-0.054656,57,277,568,5584
1644165366.534392,-0.010254,0.009827,-0.992737,0.266656,0.432366,-0.039389,45,282,584,5584
1644165366.582807,-0.01239,0.011169,-0.991882,0.266656,0.432366,-0.085191,54,285,589,5600
1644165366.631171,-0.009094,0.012573,-0.992798,0.144519,0.554504,-0.14626,49,273,565,5632
1644165366.679559,-0.010315,0.010193,-0.991882,0.098718,0.310229,-0.14626,41,279,576,5584
1644165366.727959,-0.008301,0.009521,-0.99054,0.388794,0.386565,-0.054656,47,275,572,5600
1644165366.777105,-0.011047,0.010803,-0.992188,0.068183,0.233893,-0.25313,54,268,572,5536
1644165366.827523,-0.010132,0.010742,-0.98877,0.297191,0.356031,-0.176794,52,273,575,5632
1644165366.877942,-0.009888,0.00946,-0.991699,0.144519,0.508702,0.098015,66,273,570,5552
1644165366.922362,-0.010925,0.009338,-0.987488,0.205588,0.371298,0.036947,41,274,571,5600
1644165367.018316,-0.01123,0.011047,-0.990601,0.205588,0.462901,-0.14626,65,269,576,5584
1644165367.0668,-0.010742,0.010742,-0.991272,0.266656,0.340763,-0.069924,60,266,580,5600
1644165367.11512,-0.010071,0.010925,-0.992371,0.068183,0.432366,-0.069924,48,271,569,5600
1644165367.163487,-0.009338,0.013184,-0.991577,0.190321,0.478168,-0.054656,53,274,578,5584
1644165367.211853,-0.010437,0.009399,-0.991394,0.236122,0.386565,-0.207328,42,273,582,5600
