epoch,acc_x,acc_y,acc_z,rot_x,rot_y,rot_z,mag_x,mag_y,mag_z,temp
1644182400.029649,-0.008423,0.007507,-0.988647,0.144519,0.447634,-0.024122,48,274,583,6160
1644182400.085613,-0.007935,0.01123,-0.991028,0.449863,0.279695,-0.130992,54,273,589,6160
1644182400.126365,-0.007812,0.010132,-0.990662,0.236122,0.462901,-0.130992,46,281,585,6176
1644182400.174793,-0.00769,0.009155,-0.991333,0.129252,0.447634,-0.176794,52,280,582,6176
1644182400.223189,-0.007324,0.009094,-0.992615,0.220855,0.386565,-0.115725,41,286,587,6224
1644182400.271562,-0.007996,0.01178,-0.992859,0.266656,0.401832,-0.100458,42,277,591,6176
1644182400.319958,-0.008179,0.007385,-0.991638,0.159786,0.356031,-0.192061,42,277,572,6160
1644182400.36864,-0.009155,0.009521,-0.991821,0.266656,0.233893,-0.024122,47,273,582,6256
1644182400.419058,-0.00885,0.009949,-0.989197,0.236122,0.371298,-0.085191,46,281,592,6176
1644182400.469302,-0.006653,0.010376,-0.989258,0.327725,0.325496,0.006412,55,281,583,6240
1644182400.514326,-0.01062,0.008728,-0.987488,0.220855,0.386565,-0.222595,48,281,585,6224
1644182400.610339,-0.00885,0.008057,-0.992188,0.236122,0.279695,-0.130992,54,268,582,6224
1644182400.658693,-0.011414,0.011108,-0.991516,0.190321,0.386565,-0.054656,47,280,579,6224
1644182400.707087,-0.00769,0.012451,-0.991333,0.266656,0.401832,-0.024122,46,271,587,6224
1644182400.755481,-0.008057,0.011353,-0.991577,0.098718,0.447634,-0.085191,51,283,583,6176
1644182400.803895,-0.009094,0.009094,-0.990662,0.35826,0.279695,-0.130992,49,273,582,6160
1644182400.852315,-0.009888,0.010193,-0.991516,0.251389,0.508702,-0.161527,52,277,584,6224
1644182400.900729,-0.008667,0.009888,-0.994141,0.205588,0.371298,-0.069924,43,281,580,6128
1644182400.949084,-0.009033,0.012024,-0.992554,0.068183,0.356031,-0.176794,46,276,580,6176
1644182400.997473,-0.008301,0.012573,-0.990723,0.373527,0.340763,-0.130992,53,276,583,6112
1644182401.057214,-0.008484,0.011414,-0.991943,0.220855,0.294962,0.006412,40,275,579,6128
1644182401.096407,-0.007202,0.007019,-0.99115,-0.115023,0.447634,-0.115725,45,263,582,6160
1644182401.142674,-0.008301,0.009827,-0.992249,0.266656,0.462901,-0.237863,52,285,582,6160
1644182401.190999,-0.006897,0.012939,-0.990051,0.281924,0.478168,0.036947,58,271,578,6192
1644182401.239436,-0.009644,0.011414,-0.990601,0.266656,0.386565,0.006412,42,280,577,6160
1644182401.28781,-0.00946,0.009216,-0.991394,0.236122,0.386565,-0.085191,47,282,582,6192
1644182401.336224,-0.010254,0.008423,-0.991028,0.251389,0.447634,-0.085191,43,274,592,6224
1644182401.384648,-0.00885,0.012695,-0.991882,0.251389,0.294962,0.036947,45,275,584,6240
1644182401.433267,-0.007996,0.011902,-0.990479,0.159786,0.447634,-0.069924,43,286,585,6192
1644182401.482083,-0.008606,0.009277,-0.994446,0.205588,0.523969,-0.054656,51,276,594,6192
1644182401.532702,-0.007996,0.011536,-0.992676,0.190321,0.401832,-0.130992,36,269,576,6192
1644182401.582976,-0.009216,0.009277,-0.994873,0.373527,0.188092,-0.069924,52,277,584,6128
1644182401.628065,-0.006104,0.010071,-0.993347,0.266656,0.417099,-0.069924,45,280,582,6176
1644182401.723373,-0.006958,0.010132,-0.988525,0.144519,0.340763,-0.161527,47,275,579,6112
1644182401.771747,-0.010681,0.010071,-0.990417,0.098718,0.493435,-0.039389,59,275,586,6160
1644182401.820113,-0.005554,0.012695,-0.992065,0.281924,0.356031,-0.161527,48,274,576,6224
1644182401.868569,-0.006592,0.008545,-0.987671,0.129252,0.493435,0.021679,39,274,580,6160
1644182401.916957,-0.007996,0.010559,-0.990967,0.236122,0.462901,-0.085191,39,276,585,6128
1644182401.965356,-0.007324,0.012878,-0.990112,0.312458,0.523969,-0.192061,48,279,585,6224
1644182402.013722,-0.01062,0.011047,-0.992737,0.388794,0.432366,-0.039389,53,271,592,6176
1644182402.066154,-0.005798,0.008911,-0.992065,0.220855,0.371298,-0.069924,55,281,580,6256
1644182402.11049,-0.005066,0.009583,-0.989502,0.190321,0.371298,-0.024122,43,276,585,6224
1644182402.158901,-0.007568,0.008362,-0.991089,0.098718,0.310229,-0.161527,49,277,582,6176
1644182402.207286,-0.007935,0.007202,-0.991333,0.281924,0.386565,-0.192061,46,271,587,6176
1644182402.255689,-0.00647,0.008179,-0.99176,0.251389,0.508702,-0.161527,55,271,583,6176
1644182402.304075,-0.009705,0.009644,-0.991089,0.113985,0.417099,-0.085191,49,277,579,6128
1644182402.352488,-0.008911,0.011047,-0.991821,0.220855,0.401832,-0.008855,52,280,584,6288
1644182402.400851,-0.007935,0.01178,-0.991028,0.35826,0.340763,-0.14626,49,285,575,6160
1644182402.449214,-0.009521,0.009705,-0.992371,0.159786,0.478168,-0.14626,60,279,585,6176
1644182402.497638,-0.007507,0.010193,-0.991943,0.190321,0.417099,-0.085191,58,269,590,6112
1644182402.546046,-0.00885,0.010864,-0.991089,0.281924,0.539237,0.006412,51,276,580,6192
1644182402.594446,-0.008484,0.010071,-0.991699,0.388794,0.447634,-0.039389,61,273,584,6080
1644182402.643448,-0.008545,0.009033,-0.990723,0.35826,0.462901,-0.085191,54,280,582,6192
1644182402.694726,-0.007019,0.010986,-0.991333,0.251389,0.417099,0.067481,49,268,586,6176
1644182402.744136,-0.005493,0.009827,-0.991455,0.236122,0.325496,-0.069924,55,271,576,6160
1644182402.789083,-0.005127,0.008728,-0.991577,0.266656,0.432366,-0.115725,42,282,577,6176
1644182402.884902,-0.007568,0.009216,-0.992676,0.144519,0.356031,-0.115725,53,276,583,6160
1644182402.933228,-0.009277,0.011353,-0.991455,0.220855,0.432366,-0.024122,42,285,584,6176
1644182402.981592,-0.007568,0.011902,-0.994385,0.098718,0.325496,-0.115725,49,268,582,6176
1644182403.029994,-0.007446,0.008362,-0.992249,0.266656,0.325496,0.067481,55,276,585,6160
1644182403.078937,-0.007324,0.011597,-0.991272,0.388794,0.356031,-0.130992,47,273,591,6176
1644182403.126767,-0.008606,0.009155,-0.994019,0.236122,0.554504,-0.14626,47,285,582,6224
1644182403.175168,-0.007935,0.010864,-0.992188,0.480397,0.401832,0.006412,45,282,582,6176
1644182403.223534,-0.006958,0.00769,-0.994507,0.129252,0.478168,0.021679,47,273,575,6128
1644182403.271935,-0.008301,0.01062,-0.99054,0.068183,0.294962,-0.115725,41,281,587,6224
1644182403.320299,-0.007568,0.008118,-0.990845,0.113985,0.371298,-0.054656,55,264,585,6192
1644182403.36871,-0.008728,0.011841,-0.99054,0.159786,0.371298,-0.085191,55,279,576,6240
1644182403.417103,-0.00531,0.009583,-0.989868,0.190321,0.371298,-0.054656,49,277,582,6224
1644182403.465496,-0.008301,0.011536,-0.992371,0.251389,0.218626,-0.085191,52,273,589,6128
1644182403.513881,-0.007812,0.015076,-0.99231,0.144519,0.356031,-0.054656,55,276,585,6176
1644182403.562308,-0.006714,0.012207,-0.992065,0.022382,0.432366,-0.207328,54,280,584,6192
1644182403.610673,-0.008789,0.008301,-0.991821,0.144519,0.462901,-0.130992,51,271,592,6224
1644182403.659074,-0.008179,0.008911,-0.991638,0.297191,0.554504,0.036947,52,280,584,6176
1644182403.707425,-0.008911,0.010437,-0.991821,0.266656,0.432366,-0.14626,60,281,585,6176
1644182403.755839,-0.007507,0.00885,-0.99231,0.144519,0.371298,-0.207328,52,270,582,6192
1644182403.804547,-0.006714,0.008301,-0.99176,0.159786,0.310229,0.082748,53,279,585,6224
1644182403.855646,-0.00824,0.010376,-0.991882,0.220855,0.447634,-0.192061,48,281,592,6192
1644182403.90654,-0.010681,0.01062,-0.990479,0.297191,0.401832,-0.161527,49,275,591,6080
1644182403.95071,-0.007324,0.012878,-0.990601,0.022382,0.371298,-0.054656,53,279,583,6224
1644182404.046234,-0.005554,0.00885,-0.992737,0.220855,0.356031,-0.115725,49,280,589,6224
1644182404.094817,-0.003357,0.010498,-0.991089,0.205588,0.356031,-0.14626,51,283,592,6160
1644182404.143047,-0.006897,0.010437,-0.992065,0.312458,0.417099,-0.069924,48,264,578,6176
1644182404.191382,-0.007812,0.011719,-0.992188,0.159786,0.401832,-0.192061,53,283,578,6224
1644182404.239779,-0.00824,0.009583,-0.993408,0.281924,0.356031,-0.14626,41,281,576,6176
1644182404.288158,-0.008545,0.008911,-0.990845,0.312458,0.523969,-0.115725,47,280,584,6240
1644182404.336531,-0.009766,0.011353,-0.991882,0.129252,0.417099,-0.024122,49,268,577,6160
1644182404.385056,-0.009521,0.010132,-0.990173,0.022382,0.447634,-0.14626,49,275,591,6224
1644182404.433354,-0.009827,0.007812,-0.993286,0.144519,0.417099,-0.054656,47,275,577,6192
1644182404.481752,-0.009216,0.010254,-0.991028,0.35826,0.310229,-0.115725,54,270,586,6176
1644182404.530138,-0.005493,0.009216,-0.990906,0.312458,0.371298,-0.14626,46,283,587,6192
1644182404.578534,-0.01178,0.009277,-0.991089,0.220855,0.401832,-0.14626,49,263,589,6160
1644182404.626937,-0.00769,0.009583,-0.989014,0.236122,0.386565,-0.192061,43,274,599,6224
1644182404.675317,-0.00946,0.012085,-0.993652,0.342992,0.356031,0.052214,53,269,583,6176
1644182404.723726,-0.007141,0.012329,-0.991028,0.35826,0.356031,-0.085191,45,282,584,6176
1644182404.77215,-0.008789,0.00824,-0.992493,0.281924,0.508702,-0.085191,42,277,586,6192
1644182404.820493,-0.008484,0.009949,-0.989807,0.205588,0.63084,-0.100458,51,283,590,6192
1644182404.868934,-0.009583,0.009827,-0.989258,0.281924,0.356031,-0.222595,51,276,587,6224
1644182404.91766,-0.006226,0.011414,-0.992798,0.175053,0.356031,-0.024122,51,281,573,6224
1644182404.968041,-0.005127,0.011658,-0.99176,0.175053,0.340763,-0.115725,47,277,589,6160
1644182405.018279,-0.008667,0.013367,-0.99231,0.159786,0.432366,-0.100458,48,274,585,6224
1644182405.110917,-0.007874,0.010925,-0.990051,0.144519,0.340763,-0.054656,52,270,586,6176
1644182405.15928,-0.009277,0.008545,-0.988708,0.312458,0.523969,0.021679,58,279,578,6192
1644182405.207623,-0.009521,0.011414,-0.990723,0.236122,0.386565,-0.054656,51,276,578,6160
1644182405.256012,-0.011475,0.009766,-0.99115,0.297191,0.432366,-0.130992,49,277,582,6160
1644182405.304426,-0.007629,0.009949,-0.990173,0.175053,0.478168,-0.069924,53,259,590,6176
1644182405.352825,-0.007446,0.011414,-0.990967,0.159786,0.417099,-0.054656,48,286,580,6128
1644182405.401201,-0.008057,0.011658,-0.99353,0.236122,0.447634,-0.130992,53,279,573,6224
1644182405.449597,-0.007812,0.009583,-0.991455,0.098718,0.325496,-0.069924,61,265,584,6224
1644182405.497972,-0.007568,0.009827,-0.989868,0.129252,0.508702,-0.008855,52,270,579,6192
1644182405.546387,-0.00647,0.010254,-0.991882,0.068183,0.386565,-0.100458,42,282,584,6176
1644182405.594805,-0.008362,0.010071,-0.990112,0.373527,0.478168,-0.115725,65,271,583,6224
1644182405.643185,-0.008789,0.009583,-0.989563,0.159786,0.371298,-0.100458,45,275,586,6112
1644182405.691568,-0.010986,0.010315,-0.992432,0.159786,0.340763,-0.069924,54,277,575,6224
1644182405.739959,-0.010681,0.011475,-0.990112,0.037649,0.417099,-0.085191,51,274,590,6192
1644182405.788352,-0.007507,0.004761,-0.992554,0.175053,0.493435,-0.130992,42,280,591,6192
1644182405.836738,-0.006653,0.008667,-0.988953,0.037649,0.310229,-0.207328,45,282,598,6176
1644182405.885206,-0.009399,0.011719,-0.989685,0.159786,0.508702,0.006412,67,283,590,6176
1644182405.933779,-0.00531,0.011108,-0.991577,0.342992,0.386565,-0.085191,47,285,584,6192
1644182405.982315,-0.005798,0.01001,-0.990845,0.175053,0.401832,-0.085191,53,283,587,6160
1644182406.032175,-0.007812,0.012024,-0.990234,0.251389,0.417099,-0.100458,52,277,584,6192
1644182406.092049,-0.007629,0.010437,-0.990601,0.251389,0.585038,-0.008855,57,275,575,6160
1644182406.175534,-0.007935,0.008057,-0.99231,0.327725,0.325496,-0.054656,48,281,580,6192
1644182406.223946,-0.007141,0.008728,-0.990662,0.266656,0.371298,-0.222595,47,280,586,6176
1644182406.272424,-0.00647,0.009216,-0.989929,0.251389,0.432366,-0.054656,45,273,579,6176
1644182406.320681,-0.007446,0.006897,-0.990723,0.236122,0.478168,-0.14626,40,275,575,6176
1644182406.369085,-0.008606,0.01178,-0.991272,0.312458,0.294962,-0.069924,51,269,576,6128
1644182406.417489,-0.008362,0.010437,-0.991821,0.251389,0.325496,-0.024122,51,276,585,6240
1644182406.465868,-0.009705,0.011658,-0.991455,0.220855,0.294962,-0.222595,49,285,582,6192
1644182406.514295,-0.008362,0.009033,-0.993713,0.220855,0.356031,-0.207328,47,277,579,6160
1644182406.562694,-0.006714,0.012634,-0.989136,0.419328,0.371298,-0.085191,52,273,582,6160
1644182406.611155,-0.007629,0.01062,-0.993774,0.129252,0.523969,-0.054656,55,283,587,6160
1644182406.659454,-0.00885,0.011597,-0.992432,0.236122,0.523969,0.021679,41,281,573,6224
1644182406.707845,-0.01001,0.009033,-0.989502,0.205588,0.340763,-0.085191,48,281,578,6176
1644182406.756227,-0.007263,0.011597,-0.992737,0.342992,0.462901,-0.024122,53,283,587,6176
1644182406.804643,-0.007751,0.01178,-0.991821,0.297191,0.279695,-0.130992,51,276,578,6192
1644182406.85301,-0.007935,0.007629,-0.992188,0.144519,0.325496,-0.039389,49,273,586,6224
1644182406.901415,-0.008667,0.014099,-0.99054,0.175053,0.493435,-0.207328,51,276,585,6160
1644182406.949829,-0.00592,0.008606,-0.99353,0.297191,0.356031,-0.14626,53,274,583,6160
1644182406.998277,-0.009338,0.007263,-0.993652,0.068183,0.294962,-0.085191,47,275,579,6128
1644182407.060017,-0.006104,0.008972,-0.989441,0.068183,0.356031,-0.024122,49,280,589,6160
1644182407.100808,-0.009094,0.009644,-0.993408,0.205588,0.401832,0.021679,52,263,586,6176
1644182407.147805,-0.006775,0.012878,-0.989868,0.220855,0.325496,0.036947,42,277,579,6128
1644182407.192813,-0.008667,0.008911,-0.993713,0.175053,0.386565,-0.14626,51,268,586,6192
1644182407.288502,-0.005737,0.010559,-0.989014,0.113985,0.401832,-0.069924,47,287,582,6176
1644182407.336895,-0.008301,0.010254,-0.993835,0.175053,0.493435,-0.054656,55,279,585,6192
1644182407.385408,-0.007324,0.010925,-0.991699,0.35826,0.294962,-0.054656,51,274,580,6176
1644182407.43371,-0.007812,0.009827,-0.989868,0.175053,0.340763,-0.085191,45,273,591,6160
1644182407.482483,-0.007935,0.012573,-0.992981,0.175053,0.432366,-0.14626,55,276,580,6160
1644182407.530483,-0.008606,0.008789,-0.992126,0.220855,0.371298,-0.115725,42,287,582,6240
1644182407.578883,-0.009644,0.010559,-0.994324,0.251389,0.386565,-0.192061,52,275,584,6160
1644182407.627258,-0.009399,0.010437,-0.990784,0.205588,0.432366,-0.085191,54,268,575,6160
1644182407.675662,-0.009644,0.007446,-0.990601,0.220855,0.356031,-0.14626,49,280,579,6192
1644182407.724074,-0.007935,0.01178,-0.98999,0.08345,0.325496,-0.054656,42,275,589,6128
1644182407.77246,-0.010193,0.009155,-0.991699,0.404061,0.447634,-0.207328,49,277,575,6224
1644182407.820898,-0.010437,0.010132,-0.991272,0.297191,0.386565,0.067481,58,288,585,6128
1644182407.869285,-0.00885,0.008728,-0.992188,0.236122,0.325496,-0.268397,51,276,585,6160
1644182407.917682,-0.008362,0.011963,-0.993347,0.220855,0.401832,-0.039389,52,280,589,6240
1644182407.966068,-0.007935,0.010559,-0.991882,0.052916,0.386565,-0.100458,41,283,590,6224
1644182408.014469,-0.007263,0.011963,-0.991333,0.144519,0.432366,-0.069924,45,268,591,6192
1644182408.07943,-0.006836,0.011536,-0.990417,0.220855,0.371298,-0.176794,53,276,587,6224
1644182408.117699,-0.007446,0.009766,-0.991333,0.175053,0.24916,-0.024122,43,281,592,6160
1644182408.16048,-0.010925,0.008118,-0.99176,0.113985,0.371298,0.036947,39,266,585,6192
1644182408.210951,-0.006409,0.01178,-0.993103,0.205588,0.447634,-0.008855,47,277,568,6176
1644182408.26098,-0.008911,0.010376,-0.993286,0.205588,0.432366,-0.161527,47,282,582,6128
1644182408.306053,-0.008301,0.009338,-0.993835,0.159786,0.432366,0.052214,46,274,590,6192
1644182408.401561,-0.008728,0.009338,-0.992188,0.220855,0.447634,-0.054656,55,276,580,6224
1644182408.449957,-0.007019,0.01178,-0.990112,0.281924,0.539237,-0.192061,45,282,591,6256
1644182408.498358,-0.007019,0.011597,-0.99176,0.098718,0.279695,-0.207328,46,274,592,6224
1644182408.546728,-0.007385,0.009399,-0.993225,0.373527,0.401832,-0.115725,53,269,573,6128
1644182408.595757,-0.008057,0.00769,-0.990845,0.266656,0.294962,0.021679,54,277,584,6224
1644182408.643528,-0.006226,0.00708,-0.991455,0.144519,0.447634,-0.14626,52,280,584,6240
1644182408.691939,-0.009705,0.01123,-0.992676,0.144519,0.478168,-0.085191,52,273,582,6176
1644182408.740287,-0.010742,0.007874,-0.993591,0.404061,0.432366,-0.085191,52,273,572,6128
1644182408.788707,-0.009094,0.011658,-0.990967,0.297191,0.417099,-0.14626,43,279,573,6240
1644182408.837192,-0.010315,0.00708,-0.991821,0.236122,0.508702,-0.25313,43,279,576,6160
1644182408.885536,-0.007263,0.011169,-0.993591,0.205588,0.325496,0.021679,49,273,582,6176
1644182408.933939,-0.009827,0.008972,-0.990479,0.266656,0.371298,-0.237863,45,263,575,6160
1644182408.982332,-0.007629,0.008057,-0.991638,0.129252,0.478168,-0.039389,51,279,580,6112
1644182409.030702,-0.009338,0.007324,-0.992432,0.297191,0.432366,0.006412,64,275,582,6192
1644182409.08685,-0.009888,0.008301,-0.988708,0.098718,0.401832,-0.130992,42,277,586,6192
1644182409.127469,-0.007812,0.011108,-0.990845,0.175053,0.340763,-0.024122,57,277,584,6224
1644182409.175848,-0.006409,0.009705,-0.990356,0.205588,0.493435,-0.008855,43,279,590,6192
1644182409.224242,-0.012085,0.011414,-0.992493,0.098718,0.523969,0.021679,46,276,573,6192
1644182409.272615,-0.009583,0.008789,-0.990723,0.220855,0.523969,-0.039389,49,285,575,6224
1644182409.321375,-0.006836,0.010132,-0.993164,0.236122,0.417099,-0.192061,48,279,571,6224
1644182409.371888,-0.008301,0.010437,-0.992126,0.236122,0.432366,-0.069924,41,279,576,6112
1644182409.42197,-0.009399,0.010193,-0.991943,0.373527,0.386565,-0.14626,49,280,579,6176
1644182409.467089,-0.009033,0.009216,-0.993042,0.266656,0.417099,-0.100458,52,270,589,6224
1644182409.562998,-0.007507,0.009583,-0.993652,0.159786,0.432366,-0.14626,43,274,585,6256
1644182409.611377,-0.007629,0.011169,-0.990173,0.220855,0.24916,-0.115725,47,280,579,6176
1644182409.659771,-0.011353,0.010071,-0.991211,0.251389,0.462901,-0.008855,52,275,582,6128
1644182409.708166,-0.010315,0.011597,-0.991821,0.281924,0.340763,-0.024122,54,265,570,6160
1644182409.756543,-0.007263,0.011658,-0.990234,0.113985,0.432366,-0.008855,48,286,583,6224
1644182409.804995,-0.007751,0.008972,-0.990051,0.236122,0.356031,-0.054656,47,277,570,6160
1644182409.853401,-0.009949,0.011292,-0.992371,0.312458,0.356031,-0.314198,58,274,578,6224
1644182409.901799,-0.009827,0.010803,-0.992004,0.205588,0.417099,-0.130992,54,275,586,6224
1644182409.950178,-0.008118,0.009338,-0.991089,0.342992,0.386565,-0.085191,49,270,575,6192
1644182409.998549,-0.009399,0.01178,-0.99176,0.113985,0.554504,-0.207328,52,277,577,6160
1644182410.06146,-0.007629,0.009033,-0.991577,0.281924,0.432366,-0.115725,39,279,580,6192
1644182410.102878,-0.007019,0.009705,-0.992188,0.251389,0.203359,0.113282,57,282,586,6160
1644182410.143737,-0.009644,0.009888,-0.992798,0.327725,0.432366,-0.085191,51,271,583,6224
1644182410.192151,-0.006775,0.007996,-0.990601,0.220855,0.325496,-0.024122,49,275,584,6176
1644182410.240482,-0.007568,0.008301,-0.990112,0.342992,0.417099,-0.085191,48,283,585,6160
1644182410.28888,-0.006958,0.013733,-0.991455,0.342992,0.447634,-0.100458,36,291,578,6160
1644182410.337275,-0.008545,0.010193,-0.993225,0.144519,0.401832,0.036947,43,269,583,6128
1644182410.385676,-0.008484,0.012878,-0.991943,0.312458,0.279695,-0.008855,57,273,582,6224
1644182410.434374,-0.007019,0.010071,-0.989685,0.312458,0.447634,-0.130992,47,282,586,6160
1644182410.48494,-0.008484,0.009766,-0.991394,0.190321,0.462901,-0.039389,53,274,594,6160
1644182410.535074,-0.009338,0.010437,-0.99115,0.159786,0.294962,-0.100458,47,280,591,6160
1644182410.580166,-0.009583,0.011169,-0.990784,0.190321,0.340763,-0.115725,45,275,586,6176
1644182410.676015,-0.007874,0.009155,-0.994263,0.175053,0.401832,-0.054656,49,280,575,6224
1644182410.724427,-0.008423,0.009888,-0.989441,0.144519,0.294962,0.006412,43,274,590,6192
1644182410.772814,-0.006653,0.008301,-0.990112,0.205588,0.462901,-0.069924,47,280,586,6160
1644182410.821202,-0.008118,0.007385,-0.990906,0.251389,0.462901,-0.024122,38,280,577,6224
1644182410.869634,-0.010132,0.007507,-0.991211,0.297191,0.325496,0.036947,40,282,584,6224
1644182410.91804,-0.010254,0.008545,-0.994202,0.037649,0.600305,0.098015,46,274,583,6176
1644182410.966418,-0.009216,0.009949,-0.993103,0.113985,0.462901,-0.039389,59,268,579,6176
1644182411.014837,-0.010864,0.009766,-0.994202,0.205588,0.386565,-0.024122,52,270,586,6160
1644182411.067959,-0.008423,0.008179,-0.992249,0.129252,0.340763,-0.008855,52,280,591,6128
1644182411.116254,-0.005798,0.010925,-0.992004,0.312458,0.386565,-0.069924,49,277,584,6128
1644182411.159918,-0.00946,0.008423,-0.992249,0.297191,0.325496,-0.069924,52,277,593,6128
1644182411.208352,-0.00647,0.009216,-0.989868,0.342992,0.432366,-0.115725,45,282,586,6160
1644182411.256716,-0.007202,0.010132,-0.989502,0.35826,0.432366,0.052214,58,276,587,6176
1644182411.305228,-0.009583,0.00885,-0.993225,0.175053,0.447634,-0.14626,53,279,587,6160
1644182411.353541,-0.010376,0.008911,-0.990967,0.220855,0.310229,-0.115725,49,277,575,6128
1644182411.401925,-0.010742,0.01416,-0.989929,0.175053,0.24916,-0.192061,42,287,577,6224
1644182411.450307,-0.009827,0.007935,-0.990784,0.251389,0.432366,-0.161527,58,281,592,6176
1644182411.498679,-0.008179,0.011719,-0.993469,0.190321,0.340763,-0.069924,42,287,589,6160
1644182411.547104,-0.007935,0.013428,-0.991333,0.327725,0.432366,-0.268397,52,280,591,6176
1644182411.595765,-0.007751,0.007812,-0.989868,0.297191,0.478168,-0.069924,55,271,585,6160
1644182411.646283,-0.005188,0.009521,-0.991333,0.251389,0.325496,-0.161527,45,277,584,6160
1644182411.696413,-0.005615,0.006165,-0.99176,0.342992,0.478168,-0.176794,49,277,577,6240
1644182411.741516,-0.005432,0.011719,-0.990784,0.281924,0.432366,-0.344733,57,287,579,6080
1644182411.837441,-0.009338,0.010315,-0.991272,0.327725,0.585038,-0.085191,61,275,584,6224
1644182411.885864,-0.007202,0.009766,-0.989929,0.327725,0.447634,0.021679,39,283,585,6160
1644182411.934291,-0.005859,0.010315,-0.991577,0.144519,0.371298,-0.130992,54,268,572,6192
1644182411.982684,-0.00708,0.013123,-0.992065,0.159786,0.417099,-0.039389,55,276,585,6128
1644182412.031075,-0.00885,0.006042,-0.993103,0.129252,0.340763,-0.176794,38,280,591,6176
1644182412.079643,-0.008301,0.010925,-0.989014,0.159786,0.417099,-0.115725,46,275,593,6224
1644182412.127857,-0.007324,0.009583,-0.991455,0.175053,0.523969,0.098015,45,275,575,6176
1644182412.1762,-0.008728,0.010071,-0.993042,0.251389,0.432366,-0.14626,52,277,591,6192
1644182412.224636,-0.007263,0.009277,-0.991821,0.205588,0.462901,0.006412,51,274,585,6192
1644182412.273006,-0.006836,0.007202,-0.992188,0.312458,0.294962,-0.039389,47,270,575,6176
1644182412.321355,-0.007629,0.012573,-0.989624,0.220855,0.417099,0.082748,53,276,580,6160
1644182412.369769,-0.00647,0.010193,-0.988892,0.113985,0.417099,-0.161527,53,276,587,6192
1644182412.418184,-0.007751,0.010376,-0.990356,0.205588,0.432366,-0.054656,46,266,594,6192
1644182412.466554,-0.010315,0.008667,-0.991821,0.205588,0.462901,-0.14626,41,279,585,6176
1644182412.515009,-0.009644,0.008545,-0.992432,0.113985,0.356031,-0.176794,52,275,589,6176
1644182412.563352,-0.010742,0.010071,-0.990051,0.236122,0.462901,-0.024122,39,276,587,6224
1644182412.61173,-0.009033,0.010925,-0.991577,0.251389,0.172824,-0.085191,41,279,590,6176
1644182412.660124,-0.010681,0.010803,-0.992981,0.449863,0.371298,-0.054656,55,283,573,6160
1644182412.708513,-0.011841,0.006775,-0.990417,0.220855,0.401832,-0.085191,48,269,580,6192
1644182412.756955,-0.00824,0.008118,-0.991638,0.068183,0.478168,-0.100458,59,270,579,6224
1644182412.807364,-0.009216,0.011353,-0.990051,0.327725,0.417099,-0.085191,52,270,591,6192
1644182412.858232,-0.009949,0.00769,-0.989502,0.113985,0.401832,-0.008855,45,280,577,6224
1644182412.902951,-0.011536,0.007507,-0.992554,0.297191,0.325496,-0.054656,46,269,573,6224
1644182412.998952,-0.01001,0.007507,-0.993042,0.159786,0.356031,0.082748,58,276,585,6128
1644182413.06178,-0.009766,0.011841,-0.993225,0.236122,0.493435,-0.039389,51,283,578,6192
1644182413.098711,-0.010742,0.008545,-0.989868,0.251389,0.371298,-0.176794,58,279,583,6192
1644182413.144116,-0.010986,0.010498,-0.989868,0.190321,0.233893,-0.100458,57,282,584,6224
1644182413.192451,-0.008057,0.008789,-0.990295,0.297191,0.386565,-0.176794,60,274,585,6160
1644182413.240821,-0.010132,0.011597,-0.992249,0.159786,0.447634,-0.192061,52,275,579,6176
1644182413.289222,-0.005737,0.007385,-0.991333,0.175053,0.340763,0.067481,55,274,592,6192
1644182413.337635,-0.005798,0.009033,-0.98999,0.159786,0.386565,0.067481,43,281,578,6160
1644182413.386018,-0.007996,0.010254,-0.990417,0.236122,0.554504,-0.130992,47,270,584,6112
1644182413.434394,-0.010681,0.008118,-0.992615,0.266656,0.539237,-0.192061,52,273,586,6112
1644182413.482816,-0.009766,0.013184,-0.990234,0.251389,0.462901,-0.115725,48,271,590,6128
1644182413.531193,-0.008545,0.011963,-0.991821,0.159786,0.356031,-0.14626,48,271,580,6176
1644182413.57991,-0.009521,0.012756,-0.990234,0.327725,0.432366,0.052214,49,275,579,6128
1644182413.629106,-0.008728,0.009705,-0.990417,0.205588,0.24916,0.036947,58,274,576,6176
1644182413.679467,-0.008484,0.010376,-0.993164,0.297191,0.401832,-0.115725,40,277,591,6176
1644182413.729831,-0.007019,0.011169,-0.990173,0.312458,0.325496,-0.14626,47,273,579,6176
1644182413.821586,-0.008667,0.009216,-0.991638,0.297191,0.585038,-0.222595,40,285,593,6224
1644182413.869944,-0.00708,0.010376,-0.990601,0.220855,0.432366,-0.176794,47,270,582,6192
1644182413.91836,-0.009094,0.009949,-0.992737,-0.053954,0.264427,-0.054656,40,273,579,6128
1644182413.966774,-0.010498,0.010376,-0.992188,0.297191,0.493435,-0.192061,45,287,596,6224
1644182414.015198,-0.005371,0.008789,-0.991272,0.144519,0.310229,-0.161527,57,280,586,6256
1644182414.065098,-0.007996,0.00946,-0.993652,0.144519,0.294962,-0.161527,47,285,589,6160
1644182414.111903,-0.006348,0.008972,-0.992737,0.113985,0.24916,-0.039389,41,281,587,6224
1644182414.160346,-0.008423,0.010986,-0.990967,0.159786,0.493435,-0.207328,52,275,582,6192
1644182414.208699,-0.006775,0.010376,-0.992126,0.281924,0.386565,-0.024122,57,287,582,6176
1644182414.257094,-0.008911,0.007446,-0.990662,0.297191,0.218626,-0.222595,53,274,583,6192
1644182414.305486,-0.005371,0.007446,-0.991089,0.159786,0.508702,0.098015,40,275,575,6176
1644182414.353895,-0.010925,0.009033,-0.993591,0.129252,0.264427,-0.085191,40,282,577,6160
1644182414.402285,-0.008545,0.011169,-0.992493,0.327725,0.462901,-0.130992,52,282,579,6160
1644182414.450671,-0.008667,0.009827,-0.98938,0.312458,0.371298,-0.192061,53,271,587,6240
1644182414.499064,-0.005798,0.012451,-0.98938,0.266656,0.371298,-0.069924,46,283,590,6224
1644182414.547455,-0.006958,0.012512,-0.991272,0.281924,0.233893,0.067481,45,282,586,6176
1644182414.595841,-0.013,0.007568,-0.991699,0.404061,0.233893,-0.100458,49,277,568,6128
1644182414.644237,-0.008728,0.008789,-0.989258,0.281924,0.294962,-0.130992,48,283,585,6160
1644182414.692968,-0.008911,0.008667,-0.99292,0.022382,0.462901,-0.192061,46,269,585,6176
1644182414.741911,-0.007874,0.008362,-0.991394,0.35826,0.188092,-0.130992,51,279,578,6176
1644182414.792467,-0.005493,0.010498,-0.990173,0.342992,0.447634,-0.085191,49,275,579,6224
1644182414.842807,-0.007202,0.009521,-0.992493,0.113985,0.356031,-0.115725,46,279,583,6192
1644182414.88846,-0.007019,0.008911,-0.990295,0.35826,0.600305,-0.115725,49,270,584,6160
1644182414.983042,-0.010376,0.009521,-0.990967,0.220855,0.386565,-0.115725,47,277,577,6128
1644182415.031411,-0.007385,0.009216,-0.993042,0.08345,0.371298,-0.237863,46,283,583,6240
1644182415.082331,-0.009644,0.009094,-0.989563,0.449863,0.417099,-0.039389,47,275,598,6224
1644182415.128141,-0.009216,0.008667,-0.992004,0.129252,0.585038,0.052214,42,280,579,6224
1644182415.176544,-0.010315,0.009399,-0.99115,0.08345,0.310229,-0.130992,40,277,586,6160
1644182415.224988,-0.009705,0.008301,-0.992188,0.236122,0.508702,-0.100458,43,271,580,6128
1644182415.273329,-0.008728,0.00769,-0.992981,0.190321,0.340763,-0.161527,58,279,587,6192
1644182415.321736,-0.008972,0.010498,-0.991089,0.113985,0.294962,0.006412,49,277,579,6160
1644182415.370134,-0.010498,0.008362,-0.990845,0.144519,0.447634,-0.069924,49,285,582,6160
1644182415.418518,-0.009033,0.007751,-0.992737,0.190321,0.417099,-0.176794,43,266,585,6160
1644182415.466912,-0.006897,0.008423,-0.992188,0.220855,0.294962,-0.176794,57,268,593,6224
1644182415.515424,-0.007324,0.009705,-0.992249,0.297191,0.493435,-0.085191,43,276,583,6176
1644182415.563714,-0.011169,0.008057,-0.991394,0.220855,0.493435,-0.085191,41,283,580,6160
1644182415.612089,-0.008728,0.009888,-0.992004,0.236122,0.401832,-0.130992,51,271,580,6160
1644182415.660481,-0.011658,0.010071,-0.991699,0.175053,0.523969,-0.161527,39,281,590,6192
1644182415.708878,-0.00824,0.010315,-0.990356,0.312458,0.325496,-0.024122,42,275,591,6240
1644182415.757243,-0.008423,0.011047,-0.991455,0.327725,0.356031,-0.14626,41,283,580,6192
1644182415.806389,-0.012695,0.009705,-0.992004,0.266656,0.432366,-0.024122,49,277,582,6240
1644182415.854125,-0.009094,0.011475,-0.991455,0.251389,0.401832,-0.085191,38,277,582,6192
1644182415.904226,-0.011841,0.008484,-0.99231,0.281924,0.356031,-0.115725,54,268,584,6224
1644182415.954334,-0.006531,0.008972,-0.991333,0.08345,0.493435,-0.069924,42,277,586,6128
1644182416.004809,-0.007385,0.011169,-0.990234,0.220855,0.340763,-0.008855,36,281,587,6192
1644182416.069675,-0.005127,0.008972,-0.991638,0.236122,0.401832,-0.085191,51,271,578,6192
1644182416.144425,-0.007446,0.00885,-0.990356,0.220855,0.401832,-0.161527,47,268,584,6160
1644182416.192816,-0.009277,0.008362,-0.992493,0.236122,0.325496,-0.130992,43,269,585,6176
1644182416.241202,-0.010742,0.008789,-0.992798,0.236122,0.401832,-0.14626,46,281,580,6224
1644182416.289589,-0.010559,0.007935,-0.993469,0.175053,0.371298,-0.25313,52,273,579,6128
1644182416.337988,-0.007263,0.008911,-0.990295,0.205588,0.462901,-0.039389,51,269,592,6160
1644182416.38637,-0.008606,0.006897,-0.991089,0.190321,0.371298,-0.115725,51,281,587,6192
1644182416.434782,-0.006897,0.011475,-0.98877,0.281924,0.356031,-0.176794,47,277,579,6128
1644182416.48317,-0.007202,0.011047,-0.992249,0.236122,0.386565,-0.100458,54,275,582,6176
1644182416.53155,-0.008118,0.007141,-0.988953,0.175053,0.462901,-0.161527,53,269,585,6080
1644182416.579944,-0.005737,0.011292,-0.992065,0.297191,0.356031,-0.054656,54,270,579,6128
1644182416.628331,-0.010681,0.010376,-0.991577,0.373527,0.401832,-0.100458,48,279,590,6224
1644182416.676736,-0.009277,0.007263,-0.994263,0.129252,0.386565,-0.14626,47,277,577,6176
1644182416.725281,-0.006653,0.008789,-0.992249,0.236122,0.462901,0.067481,54,273,582,6192
1644182416.773525,-0.009766,0.009705,-0.992188,0.144519,0.279695,-0.008855,47,277,584,6192
1644182416.821949,-0.008545,0.01178,-0.990845,0.144519,0.356031,-0.008855,49,280,582,6224
1644182416.870347,-0.007202,0.009705,-0.991211,0.205588,0.264427,-0.100458,52,277,579,6160
1644182416.918749,-0.009766,0.012024,-0.993225,0.113985,0.371298,-0.25313,51,283,580,6176
1644182416.967131,-0.012878,0.011841,-0.988831,0.205588,0.401832,0.113282,49,275,586,6112
1644182417.068131,-0.006958,0.006958,-0.987976,0.35826,0.539237,0.021679,61,277,589,6240
1644182417.112399,-0.00885,0.010864,-0.991028,0.129252,0.462901,-0.085191,52,273,579,6128
1644182417.160657,-0.006042,0.008545,-0.989624,0.327725,0.310229,-0.192061,40,282,584,6176
1644182417.209046,-0.007629,0.011414,-0.993042,0.312458,0.356031,-0.192061,49,280,582,6176
1644182417.257435,-0.00708,0.008789,-0.990845,0.266656,0.401832,0.067481,47,273,584,6160
1644182417.30584,-0.008972,0.008606,-0.992676,0.388794,0.279695,-0.039389,61,277,575,6160
1644182417.354231,-0.00708,0.011292,-0.992615,0.251389,0.401832,-0.024122,48,286,576,6128
1644182417.402647,-0.010559,0.010559,-0.990662,0.098718,0.386565,-0.192061,41,274,590,6192
1644182417.451033,-0.008972,0.009949,-0.988342,0.098718,0.447634,-0.024122,54,285,577,6192
1644182417.49942,-0.007996,0.010254,-0.989685,0.144519,0.356031,-0.100458,42,282,589,6224
1644182417.547814,-0.010437,0.00946,-0.992798,0.205588,0.401832,-0.207328,58,279,583,6192
1644182417.596158,-0.009583,0.011047,-0.992126,0.175053,0.340763,-0.192061,46,281,585,6224
1644182417.64464,-0.008667,0.010681,-0.992493,0.35826,0.585038,-0.069924,51,279,578,6176
1644182417.693002,-0.009705,0.010071,-0.991028,0.098718,0.615573,-0.008855,46,274,583,6240
1644182417.741365,-0.008545,0.011414,-0.986877,0.098718,0.508702,-0.085191,54,273,593,6128
1644182417.789768,-0.007874,0.010986,-0.989075,0.419328,0.462901,-0.14626,55,266,590,6224
1644182417.838213,-0.007446,0.007812,-0.989807,0.129252,0.203359,-0.14626,48,274,592,6192
1644182417.888008,-0.010193,0.007629,-0.992554,0.205588,0.294962,-0.115725,57,277,591,6224
1644182417.938895,-0.006165,0.007202,-0.99054,0.388794,0.401832,0.113282,39,276,587,6176
1644182417.988694,-0.005981,0.008667,-0.993408,0.129252,0.432366,-0.008855,45,277,589,6160
1644182418.032973,-0.009705,0.011536,-0.992126,0.144519,0.600305,-0.192061,53,281,585,6128
1644182418.128555,-0.008057,0.010559,-0.989807,0.129252,0.432366,-0.069924,54,275,577,6176
1644182418.176894,-0.005615,0.011353,-0.992432,0.266656,0.310229,-0.100458,49,277,582,6224
1644182418.225406,-0.009033,0.009094,-0.990417,0.373527,0.417099,0.006412,64,277,589,6192
1644182418.273706,-0.005005,0.010071,-0.993286,0.236122,0.310229,-0.314198,41,274,585,6160
1644182418.32237,-0.007507,0.00946,-0.989746,0.297191,0.523969,-0.161527,48,269,580,6192
1644182418.370481,-0.00885,0.008911,-0.992676,0.129252,0.401832,-0.130992,51,281,585,6256
1644182418.418867,-0.009399,0.011841,-0.991516,0.159786,0.340763,-0.100458,54,275,584,6192
1644182418.467283,-0.009277,0.010803,-0.99054,0.220855,0.340763,0.006412,49,277,582,6160
1644182418.515661,-0.006836,0.014954,-0.990662,0.220855,0.340763,-0.100458,41,279,580,6224
1644182418.564117,-0.009644,0.012939,-0.99054,0.251389,0.24916,-0.069924,43,281,590,6080
1644182418.612463,-0.008667,0.010254,-0.990601,0.236122,0.340763,-0.161527,51,276,583,6224
1644182418.66085,-0.009827,0.014709,-0.990845,0.190321,0.371298,0.036947,53,276,578,6240
1644182418.70921,-0.008789,0.010681,-0.991455,0.220855,0.478168,-0.161527,46,276,578,6176
1644182418.757613,-0.009338,0.010254,-0.990845,0.144519,0.523969,-0.130992,47,285,591,6160
1644182418.806023,-0.01123,0.010559,-0.989868,0.129252,0.386565,-0.054656,46,264,583,6224
1644182418.854469,-0.009521,0.011169,-0.992249,0.220855,0.417099,-0.192061,42,280,584,6224
1644182418.902863,-0.010132,0.008118,-0.990784,0.144519,0.432366,-0.161527,51,271,587,6128
1644182418.95124,-0.008118,0.011414,-0.992493,0.205588,0.371298,0.052214,46,283,587,6160
1644182418.999612,-0.007812,0.009155,-0.994873,0.236122,0.401832,0.006412,58,274,587,6128
1644182419.066077,-0.007935,0.011475,-0.99292,0.205588,0.462901,0.021679,49,275,582,6128
1644182419.104599,-0.006042,0.009888,-0.993469,0.175053,0.462901,-0.039389,46,274,590,6224
1644182419.150909,-0.009705,0.008057,-0.99115,0.144519,0.447634,-0.039389,51,276,585,6224
1644182419.194042,-0.007141,0.007446,-0.993103,0.220855,0.340763,-0.130992,41,291,580,6160
1644182419.28995,-0.008362,0.010986,-0.989929,0.159786,0.462901,-0.14626,51,279,576,6192
1644182419.338323,-0.010376,0.007751,-0.991882,0.46513,0.356031,-0.085191,49,277,579,6192
1644182419.386713,-0.008179,0.010559,-0.990051,0.205588,0.401832,-0.085191,48,279,585,6224
1644182419.435331,-0.008911,0.011353,-0.990417,0.144519,0.478168,-0.008855,48,279,580,6080
1644182419.483517,-0.006836,0.008972,-0.991333,0.113985,0.233893,-0.085191,45,273,579,6224
1644182419.531911,-0.007935,0.007751,-0.99176,0.144519,0.432366,0.021679,48,274,585,6240
1644182419.580315,-0.006714,0.009766,-0.991394,0.144519,0.294962,-0.085191,45,277,572,6128
1644182419.6287,-0.012939,0.009277,-0.991394,0.144519,0.264427,-0.115725,52,285,582,6192
1644182419.677091,-0.006775,0.010193,-0.991028,0.266656,0.447634,-0.024122,49,277,575,6160
1644182419.725487,-0.007019,0.006409,-0.992065,0.098718,0.462901,-0.039389,53,276,583,6224
1644182419.773911,-0.011658,0.007996,-0.993652,0.08345,0.569771,-0.176794,52,268,584,6224
1644182419.822283,-0.008728,0.01062,-0.990723,0.175053,0.554504,-0.024122,53,271,587,6224
1644182419.870684,-0.007568,0.008545,-0.989502,0.159786,0.325496,-0.161527,54,277,577,6160
1644182419.919113,-0.007141,0.01062,-0.992554,0.220855,0.401832,-0.069924,49,273,586,6224
1644182419.967493,-0.00885,0.012451,-0.990234,0.312458,0.386565,-0.161527,42,273,586,6176
1644182420.015877,-0.00647,0.008606,-0.989563,0.297191,0.233893,-0.237863,57,287,586,6160
1644182420.081224,-0.007935,0.010803,-0.991394,0.220855,0.340763,-0.039389,59,292,582,6160
1644182420.117957,-0.007874,0.010742,-0.988586,0.098718,0.371298,-0.222595,47,275,586,6176
1644182420.162513,-0.006409,0.012634,-0.99054,0.129252,0.493435,-0.024122,49,275,577,6224
1644182420.257787,-0.01062,0.010132,-0.993164,0.113985,0.356031,-0.130992,55,266,585,6224
1644182420.306165,-0.006897,0.009277,-0.990356,0.205588,0.340763,-0.085191,43,269,585,6176
1644182420.354843,-0.007629,0.007935,-0.990173,0.220855,0.294962,-0.085191,53,283,585,6288
1644182420.402982,-0.008057,0.013977,-0.989441,0.312458,0.218626,-0.054656,45,277,584,6224
1644182420.451361,-0.007446,0.009827,-0.989746,0.08345,0.401832,-0.008855,53,286,585,6192
1644182420.499766,-0.004395,0.010071,-0.990784,0.175053,0.264427,-0.192061,45,282,586,6128
1644182420.548156,-0.007812,0.011292,-0.991943,0.220855,0.340763,-0.069924,49,277,586,6160
1644182420.596551,-0.009094,0.011292,-0.991821,0.205588,0.356031,-0.237863,47,280,577,6160
1644182420.644991,-0.007507,0.009888,-0.993347,0.342992,0.371298,-0.039389,52,268,579,6224
1644182420.693354,-0.007324,0.008606,-0.987366,0.190321,0.401832,-0.176794,48,274,594,6192
1644182420.741718,-0.008667,0.010437,-0.990112,0.144519,0.493435,-0.115725,59,273,584,6176
1644182420.790125,-0.008789,0.011658,-0.989868,0.022382,0.462901,-0.115725,59,280,589,6112
1644182420.838509,-0.007141,0.010742,-0.993713,0.327725,0.294962,-0.069924,48,283,587,6160
1644182420.886924,-0.006958,0.010803,-0.990479,0.190321,0.478168,0.006412,52,273,591,6176
1644182420.935341,-0.00708,0.012329,-0.991638,0.220855,0.356031,-0.008855,58,274,583,6192
1644182420.983726,-0.005188,0.009644,-0.99292,0.175053,0.356031,0.006412,57,273,586,6224
1644182421.032246,-0.008301,0.009766,-0.99054,0.236122,0.233893,-0.314198,42,270,591,6176
1644182421.0826,-0.007263,0.008789,-0.99231,0.373527,0.24916,-0.069924,58,276,580,6192
1644182421.130094,-0.006592,0.009399,-0.992981,0.205588,0.371298,0.006412,52,287,596,6240
1644182421.18004,-0.007751,0.01123,-0.993225,0.236122,0.386565,-0.008855,43,286,578,6192
1644182421.229048,-0.006653,0.011353,-0.991394,0.022382,0.401832,-0.161527,49,282,582,6192
1644182421.279247,-0.00824,0.013306,-0.989258,0.236122,0.233893,-0.069924,54,265,584,6160
1644182421.370839,-0.008118,0.010803,-0.990906,0.220855,0.24916,-0.054656,42,268,582,6176
1644182421.419218,-0.008301,0.009705,-0.990845,0.129252,0.462901,-0.069924,48,266,585,6128
1644182421.467611,-0.007446,0.01062,-0.990234,0.251389,0.371298,-0.008855,48,271,576,6192
1644182421.516017,-0.008911,0.009033,-0.991272,0.266656,0.432366,-0.054656,55,276,585,6224
1644182421.564405,-0.008789,0.007935,-0.992798,0.266656,0.371298,-0.100458,42,285,575,6176
1644182421.612818,-0.006653,0.010742,-0.99292,0.190321,0.371298,-0.207328,49,282,579,6176
1644182421.661199,-0.011108,0.008789,-0.989441,0.266656,0.233893,-0.14626,51,269,585,6160
1644182421.709597,-0.006287,0.009644,-0.992188,0.297191,0.478168,-0.100458,58,271,585,6192
1644182421.757956,-0.009949,0.010925,-0.99469,0.342992,0.294962,-0.085191,42,275,598,6224
1644182421.806371,-0.007141,0.009399,-0.992798,0.266656,0.462901,-0.237863,49,282,579,6176
1644182421.854779,-0.010742,0.007935,-0.990845,0.098718,0.356031,-0.069924,58,279,590,6224
1644182421.903218,-0.010559,0.01239,-0.990723,0.113985,0.279695,0.021679,43,279,580,6128
1644182421.951583,-0.011108,0.007568,-0.989441,0.068183,0.447634,-0.176794,48,274,587,6128
1644182421.999985,-0.007385,0.010986,-0.990417,0.159786,0.493435,-0.115725,43,271,585,6240
1644182422.066785,-0.011108,0.009888,-0.992126,0.205588,0.386565,-0.008855,43,279,578,6160
1644182422.099292,-0.008362,0.00946,-0.992615,0.190321,0.325496,-0.100458,46,281,583,6192
1644182422.145219,-0.009888,0.010498,-0.991211,0.175053,0.493435,-0.176794,55,262,580,6224
1644182422.193521,-0.007324,0.009399,-0.988342,0.08345,0.447634,-0.024122,48,274,590,6288
1644182422.241905,-0.008667,0.010925,-0.988708,0.144519,0.325496,0.021679,49,275,584,6224
1644182422.290381,-0.012634,0.011475,-0.99176,0.342992,0.371298,0.052214,57,280,584,6192
1644182422.341289,-0.008301,0.007507,-0.997192,0.297191,0.462901,0.036947,42,277,582,6224
1644182422.391043,-0.007812,0.009399,-0.989624,0.129252,0.340763,-0.085191,57,275,579,6128
1644182422.436171,-0.009338,0.009644,-0.991089,0.205588,0.478168,-0.14626,48,266,578,6240
1644182422.532391,-0.009216,0.009338,-0.990295,0.220855,0.371298,-0.268397,51,276,571,6224
1644182422.580644,-0.009888,0.010315,-0.988708,0.190321,0.310229,-0.085191,55,271,587,6160
1644182422.629024,-0.009155,0.010437,-0.993164,0.098718,0.462901,-0.024122,52,268,586,6176
1644182422.677439,-0.009521,0.010742,-0.990784,0.205588,0.279695,-0.14626,52,280,579,6224
1644182422.725828,-0.006409,0.009644,-0.989929,0.220855,0.417099,0.021679,42,277,589,6128
1644182422.774236,-0.009949,0.009338,-0.993042,0.266656,0.24916,-0.008855,43,271,578,6176
1644182422.822682,-0.007874,0.010132,-0.990356,0.281924,0.294962,-0.176794,52,280,579,6176
1644182422.871048,-0.00769,0.011475,-0.990356,0.297191,0.356031,-0.161527,53,276,580,6176
1644182422.919415,-0.00708,0.009827,-0.989685,0.327725,0.294962,-0.176794,57,277,586,6240
1644182422.967836,-0.007324,0.009277,-0.99353,0.419328,0.401832,-0.115725,47,280,582,6112
1644182423.016209,-0.00769,0.007385,-0.989746,0.220855,0.371298,-0.054656,45,273,584,6160
1644182423.064942,-0.008545,0.012634,-0.992004,0.266656,0.356031,-0.115725,43,274,583,6176
1644182423.112985,-0.008606,0.011841,-0.988708,0.175053,0.508702,-0.054656,43,279,580,6160
1644182423.161371,-0.006104,0.009155,-0.98938,0.205588,0.462901,-0.176794,45,277,579,6128
1644182423.209758,-0.009155,0.009888,-0.988892,0.312458,0.325496,0.036947,48,276,587,6128
1644182423.258139,-0.007874,0.012512,-0.990051,0.297191,0.417099,-0.130992,51,279,585,6224
1644182423.306559,-0.007935,0.00824,-0.991333,0.129252,0.432366,-0.008855,47,273,582,6192
1644182423.355416,-0.009705,0.01001,-0.990295,0.220855,0.432366,-0.207328,52,265,579,6224
1644182423.403332,-0.007019,0.01001,-0.98938,0.144519,0.310229,-0.176794,46,274,580,6176
1644182423.451778,-0.009155,0.009338,-0.991882,0.205588,0.478168,-0.008855,49,268,584,6224
1644182423.501971,-0.009644,0.009399,-0.99176,0.175053,0.417099,-0.115725,62,276,585,6128
1644182423.552345,-0.006775,0.009338,-0.990051,0.190321,0.432366,-0.100458,47,290,586,6128
1644182423.597622,-0.007202,0.010559,-0.991943,0.113985,0.432366,-0.008855,42,280,593,6160
1644182423.693704,-0.007629,0.010681,-0.991089,0.220855,0.493435,-0.085191,53,271,585,6192
1644182423.742081,-0.007812,0.010376,-0.992371,0.373527,0.432366,-0.130992,45,275,589,6224
1644182423.790475,-0.009827,0.005737,-0.991516,0.342992,0.310229,-0.115725,57,270,579,6192
1644182423.838878,-0.00708,0.007874,-0.992188,0.404061,0.554504,-0.25313,43,269,587,6288
1644182423.887282,-0.010986,0.009644,-0.994263,0.144519,0.554504,-0.054656,34,271,576,6160
1644182423.935691,-0.006592,0.009399,-0.989929,0.129252,0.447634,-0.283664,47,280,584,6192
1644182423.984094,-0.009338,0.009949,-0.991211,0.251389,0.523969,-0.054656,49,273,577,6176
1644182424.032516,-0.00708,0.009338,-0.99292,0.113985,0.432366,-0.039389,51,271,578,6256
1644182424.085333,-0.007935,0.008972,-0.991699,0.113985,0.386565,-0.14626,45,280,577,6160
1644182424.129247,-0.00946,0.00885,-0.991577,0.236122,0.493435,-0.14626,55,281,576,6176
1644182424.177622,-0.008118,0.013916,-0.992371,0.251389,0.401832,-0.100458,48,274,590,6192
1644182424.226014,-0.007996,0.010254,-0.993835,0.144519,0.432366,-0.085191,46,283,580,6192
1644182424.274408,-0.00824,0.008911,-0.989197,0.144519,0.462901,-0.192061,42,270,584,6176
1644182424.322833,-0.010925,0.00824,-0.991882,0.08345,0.340763,-0.039389,43,266,587,6192
1644182424.372427,-0.007202,0.011597,-0.990479,0.236122,0.233893,-0.085191,45,270,591,6240
1644182424.42271,-0.007812,0.008423,-0.992859,0.220855,0.447634,-0.207328,45,275,586,6128
1644182424.472954,-0.008423,0.012207,-0.991577,0.327725,0.447634,-0.100458,53,276,576,6176
1644182424.564872,-0.010498,0.00824,-0.987488,0.251389,0.218626,-0.192061,47,268,577,6224
1644182424.613175,-0.008179,0.010254,-0.991455,0.251389,0.340763,0.006412,55,281,583,6224
1644182424.661548,-0.008606,0.008179,-0.99054,0.251389,0.432366,0.113282,52,282,586,6192
1644182424.709916,-0.007812,0.009644,-0.990723,0.159786,0.493435,-0.222595,52,275,575,6192
1644182424.758317,-0.010132,0.00946,-0.992371,0.129252,0.340763,-0.14626,48,274,585,6128
1644182424.806734,-0.010864,0.01123,-0.990051,0.312458,0.508702,-0.176794,47,277,589,6160
1644182424.855184,-0.008484,0.011047,-0.988953,0.113985,0.294962,0.006412,45,280,579,6192
1644182424.903553,-0.006653,0.009216,-0.992432,0.236122,0.462901,-0.14626,48,271,585,6224
1644182424.951945,-0.009033,0.01123,-0.99408,0.08345,0.417099,-0.054656,43,279,562,6256
1644182425.000319,-0.010559,0.010315,-0.992004,0.281924,0.325496,0.067481,43,281,583,6192
1644182425.067631,-0.01001,0.008423,-0.991577,0.251389,0.462901,-0.192061,47,277,593,6192
1644182425.097211,-0.009399,0.005127,-0.992615,0.205588,0.432366,-0.100458,52,290,584,6176
1644182425.145483,-0.008423,0.010132,-0.992493,0.220855,0.401832,-0.054656,59,280,586,6160
1644182425.193873,-0.006042,0.010437,-0.992065,0.144519,0.508702,-0.100458,48,279,580,6176
1644182425.242282,-0.011169,0.009155,-0.98999,0.220855,0.417099,-0.14626,42,277,575,6224
1644182425.290652,-0.01001,0.008362,-0.990967,-0.053954,0.340763,-0.008855,49,275,582,6160
1644182425.339038,-0.006287,0.010925,-0.989563,0.113985,0.417099,-0.207328,48,271,576,6128
1644182425.387744,-0.008667,0.011108,-0.990601,0.266656,0.523969,-0.115725,54,275,582,6224
1644182425.436697,-0.006836,0.010376,-0.992676,0.190321,0.417099,-0.085191,51,276,578,6128
1644182425.487322,-0.006226,0.011292,-0.992615,0.175053,0.401832,-0.069924,53,274,578,6192
1644182425.537564,-0.007812,0.010254,-0.992981,0.281924,0.310229,-0.039389,49,270,591,6160
1644182425.629392,-0.008362,0.011169,-0.991638,0.175053,0.325496,-0.085191,48,274,585,6192
1644182425.677776,-0.007507,0.010986,-0.991882,0.220855,0.294962,-0.008855,59,273,586,6192
1644182425.726174,-0.009155,0.008728,-0.991028,0.281924,0.493435,-0.039389,53,283,585,6128
1644182425.774823,-0.006287,0.013733,-0.991211,0.205588,0.371298,-0.115725,61,268,586,6160
1644182425.822984,-0.006409,0.009644,-0.990601,0.205588,0.432366,-0.039389,51,276,585,6176
1644182425.871406,-0.010132,0.011536,-0.994812,-0.008153,0.310229,-0.207328,55,281,583,6176
1644182425.919801,-0.009094,0.009888,-0.992615,0.144519,0.585038,-0.115725,59,285,591,6176
1644182425.968186,-0.009644,0.009705,-0.993713,0.312458,0.615573,-0.085191,52,280,577,6224
1644182426.016598,-0.008423,0.010803,-0.990601,0.297191,0.356031,-0.069924,46,271,571,6192
1644182426.069197,-0.009338,0.008911,-0.989807,0.190321,0.432366,-0.161527,60,276,592,6128
1644182426.113415,-0.008484,0.009033,-0.991028,0.190321,0.218626,-0.085191,45,280,577,6128
1644182426.161732,-0.006226,0.010559,-0.989502,0.159786,0.310229,-0.115725,52,273,582,6160
1644182426.210135,-0.009399,0.011108,-0.990417,0.159786,0.294962,0.12855,49,273,593,6176
1644182426.258491,-0.007629,0.009644,-0.989441,0.342992,0.157557,-0.085191,48,279,580,6224
1644182426.306881,-0.008667,0.011047,-0.99408,0.220855,0.340763,0.006412,48,288,590,6176
1644182426.355277,-0.010742,0.011536,-0.990234,0.327725,0.310229,-0.100458,51,271,594,6160
1644182426.4037,-0.008606,0.009033,-0.99353,0.236122,0.340763,-0.008855,42,282,589,6160
1644182426.452395,-0.009583,0.010437,-0.991211,0.129252,0.462901,-0.100458,46,276,585,6176
1644182426.500791,-0.007141,0.011475,-0.994019,0.190321,0.325496,-0.176794,45,265,586,6224
1644182426.550513,-0.011719,0.006226,-0.992065,0.144519,0.417099,-0.192061,46,283,578,6192
1644182426.600993,-0.008606,0.010742,-0.98999,0.068183,0.371298,-0.161527,49,290,584,6160
1644182426.645981,-0.008789,0.009827,-0.992004,0.144519,0.356031,-0.14626,42,275,584,6224
1644182426.742457,-0.010315,0.007507,-0.992981,0.190321,0.340763,-0.161527,51,269,587,6176
1644182426.79082,-0.010864,0.010681,-0.992249,0.297191,0.447634,-0.024122,49,282,582,6240
1644182426.839222,-0.010864,0.008606,-0.991943,0.373527,0.310229,-0.161527,57,287,591,6160
1644182426.887657,-0.010315,0.010864,-0.990784,0.266656,0.24916,-0.192061,45,280,577,6240
1644182426.936058,-0.010742,0.010803,-0.995056,0.08345,0.493435,-0.085191,36,281,580,6160
1644182426.984457,-0.010803,0.009888,-0.991882,0.175053,0.264427,-0.085191,40,270,577,6160
1644182427.032859,-0.007202,0.011292,-0.990845,0.220855,0.508702,0.067481,42,277,579,6160
1644182427.086197,-0.009399,0.008789,-0.991089,0.251389,0.371298,-0.069924,49,275,589,6128
1644182427.129637,-0.009094,0.011597,-0.99115,0.007115,0.554504,-0.283664,49,282,584,6224
1644182427.17798,-0.008362,0.008606,-0.988708,0.144519,0.294962,-0.115725,45,282,586,6176
1644182427.226339,-0.009705,0.006042,-0.992065,0.266656,0.478168,-0.25313,41,279,590,6224
1644182427.274732,-0.01001,0.011353,-0.991638,0.281924,0.325496,-0.14626,53,274,590,6160
1644182427.323164,-0.010986,0.009888,-0.989685,0.251389,0.371298,-0.100458,49,273,582,6224
1644182427.371562,-0.010681,0.008545,-0.990906,0.08345,0.432366,-0.130992,57,263,582,6160
1644182427.422012,-0.007629,0.010437,-0.993286,0.129252,0.462901,0.006412,53,276,583,6160
1644182427.4722,-0.009766,0.010193,-0.993835,0.251389,0.417099,-0.024122,48,276,576,6176
1644182427.517357,-0.007019,0.009766,-0.991577,0.159786,0.325496,-0.25313,45,273,582,6224
1644182427.613527,-0.009766,0.010071,-0.99176,0.129252,0.401832,0.021679,53,281,583,6224
1644182427.661904,-0.008179,0.010742,-0.992615,0.220855,0.417099,-0.100458,41,274,594,6192
1644182427.71029,-0.008118,0.008911,-0.988647,0.220855,0.401832,-0.192061,45,280,579,6160
1644182427.758659,-0.006897,0.009644,-0.989136,0.098718,0.371298,-0.115725,47,282,582,6224
1644182427.807067,-0.010559,0.010315,-0.990967,0.266656,0.386565,0.12855,52,280,582,6224
1644182427.855439,-0.013,0.006836,-0.99054,0.190321,0.447634,-0.085191,48,276,580,6112
1644182427.903912,-0.009827,0.006226,-0.992188,0.190321,0.478168,-0.069924,46,276,585,6160
1644182427.952323,-0.006775,0.012817,-0.992676,0.419328,0.447634,-0.039389,58,288,587,6176
1644182428.000659,-0.007874,0.010742,-0.99353,0.113985,0.462901,0.021679,48,281,580,6160
1644182428.064757,-0.009827,0.012329,-0.992371,0.190321,0.508702,-0.100458,42,277,584,6224
1644182428.099603,-0.012329,0.008911,-0.992065,0.08345,0.401832,-0.222595,41,276,590,6192
1644182428.145868,-0.008911,0.010559,-0.993713,0.266656,0.325496,-0.115725,47,280,584,6128
1644182428.194282,-0.007812,0.010559,-0.990601,0.342992,0.478168,-0.100458,43,276,576,6128
1644182428.24266,-0.007629,0.012268,-0.991455,0.281924,0.401832,0.052214,58,271,592,6224
1644182428.291028,-0.007812,0.010559,-0.992981,0.220855,0.569771,-0.008855,49,280,589,6176
1644182428.339442,-0.01001,0.011414,-0.992249,0.220855,0.447634,-0.069924,59,280,589,6176
1644182428.387799,-0.01062,0.010803,-0.991394,0.129252,0.462901,-0.054656,48,271,587,6224
1644182428.436594,-0.009766,0.00769,-0.987976,0.175053,0.356031,-0.161527,52,270,596,6160
1644182428.484807,-0.008606,0.006897,-0.990845,0.205588,0.462901,-0.207328,48,279,573,6288
1644182428.534656,-0.00885,0.010071,-0.993042,0.098718,0.371298,-0.222595,43,281,580,6224
1644182428.584806,-0.009583,0.010437,-0.992432,0.312458,0.447634,-0.222595,40,277,577,6240
1644182428.634712,-0.011719,0.010681,-0.992065,0.236122,0.371298,-0.054656,39,269,585,6128
1644182428.679419,-0.011475,0.011963,-0.989441,0.220855,0.310229,-0.115725,51,274,578,6224
1644182428.775259,-0.008301,0.010498,-0.992004,0.190321,0.340763,-0.176794,47,275,579,6160
1644182428.823396,-0.006409,0.012207,-0.990417,0.266656,0.218626,0.052214,53,276,576,6192
1644182428.871753,-0.007629,0.009277,-0.992493,0.404061,0.417099,-0.237863,54,285,570,6240
1644182428.920159,-0.007935,0.010925,-0.992676,0.098718,0.493435,-0.085191,49,285,575,6192
1644182428.968541,-0.006531,0.008423,-0.991333,0.35826,0.401832,-0.024122,51,276,585,6224
1644182429.016941,-0.008057,0.00885,-0.99469,0.190321,0.432366,0.12855,55,266,576,6128
1644182429.066824,-0.007996,0.011047,-0.990967,0.373527,0.585038,-0.054656,48,274,597,6176
1644182429.11372,-0.008911,0.01001,-0.988586,0.327725,0.401832,-0.054656,47,282,586,6128
1644182429.162084,-0.010437,0.010132,-0.992676,0.342992,0.310229,-0.130992,52,287,582,6128
1644182429.210472,-0.008789,0.008911,-0.990662,0.373527,0.386565,-0.130992,49,282,584,6160
1644182429.258862,-0.008911,0.009888,-0.992493,0.205588,0.417099,-0.115725,41,276,587,6128
1644182429.307255,-0.008606,0.009399,-0.991028,0.373527,0.447634,-0.14626,48,276,578,6176
1644182429.355652,-0.009094,0.009277,-0.991577,0.129252,0.386565,0.067481,48,281,580,6176
1644182429.404053,-0.007507,0.009644,-0.992615,0.251389,0.386565,-0.130992,45,282,584,6160
1644182429.452455,-0.011047,0.010315,-0.990784,0.236122,0.371298,-0.14626,43,283,580,6224
1644182429.500833,-0.008179,0.009949,-0.988281,0.251389,0.462901,-0.024122,52,273,579,6192
1644182429.5492,-0.00592,0.008789,-0.991943,0.236122,0.401832,-0.115725,51,286,590,6224
1644182429.597612,-0.011902,0.009644,-0.991333,0.251389,0.432366,-0.176794,54,265,579,6080
1644182429.646029,-0.010193,0.009338,-0.990967,0.266656,0.203359,-0.024122,42,265,582,6176
1644182429.694456,-0.006104,0.010437,-0.992981,0.266656,0.401832,-0.161527,46,274,573,6224
1644182429.744884,-0.009033,0.009399,-0.990601,0.129252,0.478168,0.052214,36,276,580,6160
1644182429.795765,-0.010376,0.012146,-0.98938,0.144519,0.371298,-0.207328,45,270,589,6160
1644182429.84073,-0.008789,0.009399,-0.991211,0.129252,0.417099,-0.054656,53,276,580,6224
1644182429.936401,-0.010864,0.009277,-0.991028,0.236122,0.325496,-0.054656,35,280,586,6176
1644182429.984903,-0.006897,0.008667,-0.990967,0.205588,0.325496,-0.130992,48,271,587,6240
1644182430.033211,-0.00885,0.007324,-0.990356,0.281924,0.478168,-0.100458,54,273,579,6160
1644182430.081648,-0.009033,0.01123,-0.990112,0.129252,0.417099,-0.069924,43,276,585,6160
1644182430.129949,-0.007935,0.00708,-0.990967,0.342992,0.447634,-0.130992,46,274,583,6160
1644182430.178312,-0.008057,0.007935,-0.988953,0.388794,0.24916,-0.054656,48,274,587,6128
1644182430.226711,-0.007446,0.010986,-0.991882,0.251389,0.356031,-0.085191,43,274,578,6160
1644182430.275134,-0.011292,0.010559,-0.991638,0.220855,0.310229,-0.130992,53,286,583,6224
1644182430.323495,-0.010132,0.010376,-0.992249,0.327725,0.432366,-0.161527,43,266,590,6128
1644182430.371899,-0.006653,0.010864,-0.993896,0.08345,0.294962,-0.25313,51,279,576,6192
1644182430.420289,-0.007324,0.012695,-0.991638,0.205588,0.371298,-0.14626,40,275,579,6192
1644182430.46869,-0.007324,0.008606,-0.993408,0.205588,0.371298,0.006412,47,277,577,6160
1644182430.517083,-0.008362,0.010193,-0.991089,0.159786,0.493435,-0.207328,51,276,583,6176
1644182430.565453,-0.006165,0.011047,-0.992004,0.205588,0.447634,-0.024122,57,280,586,6192
1644182430.614447,-0.009277,0.007996,-0.989929,0.190321,0.478168,-0.25313,54,273,591,6160
1644182430.662284,-0.007507,0.008911,-0.992615,0.205588,0.310229,-0.054656,52,277,577,6224
1644182430.71064,-0.007446,0.010437,-0.994019,0.266656,0.447634,-0.25313,47,277,584,6240
1644182430.759029,-0.008423,0.010742,-0.990662,0.175053,0.340763,-0.115725,57,273,586,6128
1644182430.807479,-0.010071,0.006042,-0.992554,0.190321,0.462901,-0.130992,43,276,583,6192
1644182430.857159,-0.00769,0.010071,-0.98877,0.266656,0.523969,-0.192061,55,279,587,6160
1644182430.907146,-0.008606,0.011841,-0.990662,0.190321,0.310229,-0.100458,43,262,583,6176
1644182430.957572,-0.009827,0.009399,-0.992493,0.190321,0.478168,-0.130992,36,274,583,6192
1644182431.066873,-0.010315,0.008179,-0.990845,0.404061,0.371298,-0.069924,32,281,583,6240
1644182431.101213,-0.008789,0.006592,-0.992859,0.312458,0.432366,-0.207328,49,277,589,6224
1644182431.146188,-0.006226,0.010071,-0.991089,0.236122,0.417099,-0.268397,52,277,591,6160
1644182431.194688,-0.008118,0.009338,-0.990051,0.266656,0.401832,-0.115725,45,285,579,6192
1644182431.242972,-0.009216,0.009644,-0.995789,0.205588,0.432366,-0.14626,51,283,587,6176
1644182431.291367,-0.009216,0.007202,-0.99231,0.175053,0.508702,-0.115725,53,274,587,6160
1644182431.339765,-0.008484,0.008667,-0.990417,0.327725,0.310229,-0.237863,53,283,590,6192
1644182431.388147,-0.009521,0.009277,-0.993408,0.251389,0.371298,-0.100458,49,285,596,6176
1644182431.436547,-0.010681,0.00824,-0.988953,0.068183,0.401832,0.006412,53,274,583,6192
1644182431.484919,-0.009705,0.013611,-0.990295,0.251389,0.386565,-0.085191,52,273,586,6128
1644182431.533357,-0.009521,0.009399,-0.990967,0.236122,0.462901,-0.100458,48,271,573,6224
1644182431.5833,-0.007935,0.011658,-0.990356,0.175053,0.340763,-0.085191,53,276,576,6176
1644182431.633541,-0.008362,0.010681,-0.990601,0.113985,0.356031,-0.130992,40,280,575,6176
1644182431.683733,-0.010681,0.006226,-0.992004,0.190321,0.325496,-0.024122,46,274,576,6160
1644182431.775454,-0.006714,0.006775,-0.990173,0.205588,0.279695,-0.14626,55,276,587,6160
1644182431.823722,-0.010376,0.008911,-0.990662,0.052916,0.401832,-0.14626,52,273,563,6176
1644182431.872389,-0.009888,0.009888,-0.992798,0.35826,0.478168,-0.192061,42,277,582,6240
1644182431.920472,-0.009644,0.009399,-0.992493,0.159786,0.447634,0.021679,57,275,570,6176
1644182431.968887,-0.009399,0.008057,-0.992493,0.113985,0.447634,-0.054656,45,280,586,6176
1644182432.017262,-0.008606,0.012268,-0.991089,0.266656,0.447634,-0.085191,52,285,586,6160
1644182432.072579,-0.00946,0.010742,-0.992126,0.129252,0.264427,-0.069924,55,274,587,6176
1644182432.114062,-0.006714,0.012756,-0.991455,0.327725,0.417099,-0.130992,52,275,575,6176
1644182432.162449,-0.010437,0.008423,-0.989014,0.449863,0.417099,-0.176794,55,281,585,6176
1644182432.210821,-0.007263,0.009583,-0.990723,0.113985,0.539237,-0.14626,43,271,592,6160
1644182432.259212,-0.011658,0.009705,-0.99176,0.281924,0.310229,-0.069924,52,282,575,6192
1644182432.307592,-0.008545,0.012939,-0.993164,0.068183,0.401832,-0.039389,51,276,592,6176
1644182432.356009,-0.00769,0.010254,-0.992737,0.205588,0.310229,0.082748,49,280,579,6224
1644182432.404399,-0.004944,0.010864,-0.991028,0.190321,0.508702,-0.069924,46,279,590,6224
1644182432.452816,-0.007446,0.008179,-0.988586,0.281924,0.478168,-0.115725,52,273,586,6192
1644182432.501183,-0.006714,0.010925,-0.990112,0.266656,0.279695,-0.024122,55,274,580,6128
1644182432.549568,-0.008606,0.011353,-0.99115,0.266656,0.417099,-0.25313,47,280,582,6192
1644182432.597969,-0.01178,0.010132,-0.995544,0.236122,0.356031,-0.039389,48,283,580,6240
1644182432.646365,-0.008301,0.007324,-0.990112,0.327725,0.386565,-0.298931,41,269,583,6160
1644182432.694794,-0.00708,0.008728,-0.988586,0.312458,0.417099,0.021679,49,287,582,6176
1644182432.746141,-0.009094,0.008118,-0.990479,0.266656,0.371298,-0.069924,48,271,578,6192
1644182432.796031,-0.009644,0.014526,-0.992432,0.037649,0.401832,-0.207328,53,276,583,6176
1644182432.841318,-0.009949,0.007874,-0.990417,0.113985,0.356031,0.052214,64,285,582,6176
1644182432.936735,-0.008423,0.011536,-0.990784,0.236122,0.432366,-0.192061,52,277,582,6192
1644182432.98543,-0.00708,0.010559,-0.990051,0.297191,0.417099,-0.130992,40,275,579,6160
1644182433.033561,-0.007324,0.009277,-0.991516,0.312458,0.508702,-0.100458,53,276,578,6224
1644182433.082045,-0.007629,0.011475,-0.992798,0.129252,0.356031,-0.268397,42,273,596,6112
1644182433.130291,-0.011353,0.011597,-0.992065,0.190321,0.325496,-0.069924,43,281,580,6160
1644182433.178684,-0.011414,0.008423,-0.991516,0.144519,0.325496,-0.054656,43,276,583,6128
1644182433.227073,-0.008728,0.007385,-0.990234,0.236122,0.371298,-0.100458,51,274,587,6080
1644182433.27546,-0.006714,0.011963,-0.990845,0.266656,0.478168,-0.161527,54,273,579,6176
1644182433.323846,-0.006836,0.010986,-0.993042,0.266656,0.371298,-0.207328,41,281,585,6192
1644182433.372273,-0.007996,0.009399,-0.990967,0.312458,0.447634,-0.039389,45,282,584,6176
1644182433.420652,-0.011353,0.01178,-0.993896,0.220855,0.203359,-0.207328,48,276,587,6192
1644182433.469044,-0.006592,0.01062,-0.993347,0.266656,0.356031,-0.130992,47,277,589,6128
1644182433.517439,-0.007629,0.009949,-0.993286,0.236122,0.325496,-0.14626,49,270,584,6160
1644182433.56583,-0.006287,0.011292,-0.990845,0.236122,0.310229,-0.024122,52,263,596,6160
1644182433.614211,-0.008911,0.01062,-0.992065,0.190321,0.447634,-0.054656,48,286,585,6176
1644182433.662626,-0.008972,0.006165,-0.993713,0.098718,0.371298,-0.176794,47,270,589,6160
1644182433.711002,-0.010315,0.008728,-0.993408,0.098718,0.386565,-0.024122,40,273,589,6192
1644182433.759717,-0.010681,0.010254,-0.992859,0.190321,0.493435,0.021679,52,280,598,6160
1644182433.810015,-0.009155,0.010376,-0.992249,0.220855,0.371298,0.036947,65,271,576,6160
1644182433.860699,-0.010132,0.008911,-0.993042,0.205588,0.279695,-0.176794,51,283,583,6128
1644182433.905858,-0.00824,0.010132,-0.99054,0.205588,0.371298,-0.054656,47,277,577,6224
1644182434.001398,-0.007935,0.012024,-0.991272,0.297191,0.539237,-0.054656,38,280,584,6176
1644182434.060813,-0.005615,0.009766,-0.99292,0.266656,0.478168,-0.085191,48,271,585,6160
1644182434.101164,-0.006042,0.009705,-0.992737,0.35826,0.539237,-0.222595,39,262,583,6224
1644182434.146542,-0.007751,0.007874,-0.990906,0.190321,0.386565,-0.039389,55,274,583,6176
1644182434.195066,-0.008728,0.012024,-0.987976,0.037649,0.325496,-0.100458,49,282,579,6080
1644182434.243299,-0.00592,0.01062,-0.991333,0.052916,0.478168,-0.054656,41,279,583,6176
1644182434.291723,-0.008606,0.007507,-0.991394,0.510931,0.310229,-0.100458,49,287,572,6160
1644182434.340111,-0.009583,0.008972,-0.991577,0.205588,0.233893,-0.024122,51,276,587,6176
1644182434.388507,-0.007996,0.009766,-0.990723,0.281924,0.493435,0.098015,47,282,582,6176
1644182434.436923,-0.009827,0.009705,-0.992798,0.190321,0.569771,-0.100458,47,277,575,6192
1644182434.485277,-0.010559,0.012451,-0.993958,0.312458,0.401832,-0.207328,48,279,573,6224
1644182434.533809,-0.009827,0.009216,-0.992249,0.236122,0.462901,-0.008855,53,271,587,6224
1644182434.582718,-0.011658,0.011475,-0.991943,0.144519,0.386565,-0.008855,46,281,587,6160
1644182434.633131,-0.011597,0.009399,-0.995483,0.159786,0.462901,-0.054656,53,269,583,6224
1644182434.683175,-0.009888,0.01178,-0.992493,0.312458,0.386565,-0.222595,51,274,590,6128
1644182434.728495,-0.007935,0.007446,-0.991699,0.205588,0.233893,-0.176794,51,274,576,6192
1644182434.824044,-0.010315,0.011047,-0.989502,0.190321,0.432366,0.006412,53,283,587,6224
1644182434.872478,-0.007019,0.009338,-0.989319,0.312458,0.417099,-0.085191,48,276,585,6192
1644182434.920857,-0.006348,0.008972,-0.990906,0.205588,0.24916,0.052214,55,283,580,6224
1644182434.96923,-0.008118,0.009399,-0.992981,0.175053,0.310229,-0.14626,58,274,576,6128
1644182435.017646,-0.009033,0.012451,-0.990601,0.236122,0.386565,-0.100458,45,275,577,6240
1644182435.068364,-0.008911,0.010376,-0.992859,0.266656,0.432366,0.036947,46,269,590,6176
1644182435.114426,-0.007507,0.007751,-0.991394,0.205588,0.325496,-0.085191,49,273,586,6176
1644182435.16291,-0.008606,0.011047,-0.991577,0.251389,0.401832,-0.024122,47,280,584,6160
1644182435.211173,-0.007141,0.013,-0.991516,0.205588,0.340763,-0.100458,45,280,584,6192
1644182435.259588,-0.007019,0.008362,-0.990234,0.159786,0.340763,-0.115725,47,273,586,6160
1644182435.307947,-0.005615,0.010193,-0.990906,0.175053,0.371298,-0.130992,57,280,577,6112
1644182435.356359,-0.010193,0.008789,-0.989868,0.144519,0.417099,-0.069924,49,280,584,6160
1644182435.404755,-0.007568,0.007568,-0.990112,0.052916,0.310229,-0.130992,40,280,579,6128
1644182435.453162,-0.009521,0.009827,-0.991516,0.037649,0.417099,-0.176794,51,271,583,6176
1644182435.501534,-0.008911,0.01178,-0.98999,0.08345,0.417099,-0.14626,47,290,582,6224
1644182435.549926,-0.009155,0.010559,-0.990906,0.236122,0.340763,-0.130992,46,276,583,6240
1644182435.598311,-0.009277,0.011475,-0.993591,0.190321,0.371298,-0.14626,46,283,585,6240
1644182435.64671,-0.007568,0.009399,-0.992249,0.312458,0.356031,-0.176794,57,273,596,6192
1644182435.695144,-0.009399,0.010864,-0.993164,0.175053,0.386565,-0.176794,43,276,592,6176
1644182435.743797,-0.011353,0.011108,-0.992432,0.388794,0.386565,-0.161527,52,270,593,6128
1644182435.794768,-0.009888,0.008301,-0.99408,0.113985,0.386565,-0.069924,54,273,584,6240
1644182435.844505,-0.010254,0.008911,-0.99353,0.251389,0.340763,-0.008855,45,273,589,6176
1644182435.889971,-0.008362,0.010498,-0.995972,0.052916,0.447634,-0.085191,51,281,583,6128
1644182435.985495,-0.009155,0.010925,-0.990601,0.129252,0.401832,-0.008855,52,280,589,6176
1644182436.033899,-0.010437,0.006714,-0.989502,0.175053,0.447634,-0.14626,53,279,578,6240
1644182436.083011,-0.008972,0.006104,-0.990173,0.297191,0.401832,-0.207328,49,280,586,6192
1644182436.130672,-0.011597,0.007751,-0.992493,0.312458,0.417099,-0.085191,47,282,586,6224
1644182436.179057,-0.009766,0.007507,-0.993347,0.297191,0.356031,-0.085191,53,269,580,6192
1644182436.22753,-0.008423,0.011658,-0.993469,0.297191,0.371298,-0.283664,54,270,579,6192
1644182436.275844,-0.01062,0.008728,-0.992798,0.205588,0.386565,-0.207328,49,290,582,6128
1644182436.324243,-0.009033,0.006042,-0.990662,0.236122,0.432366,-0.008855,64,287,586,6176
1644182436.372657,-0.005615,0.00769,-0.992676,0.236122,0.218626,-0.14626,41,274,590,6192
1644182436.421038,-0.012146,0.008301,-0.989502,0.220855,0.462901,-0.130992,51,276,583,6192
1644182436.469401,-0.008606,0.006165,-0.991272,0.434595,0.569771,-0.25313,45,268,586,6160
1644182436.517818,-0.008972,0.009216,-0.992554,0.404061,0.310229,-0.039389,51,271,585,6192
1644182436.566215,-0.00824,0.007263,-0.992859,0.205588,0.432366,-0.176794,58,274,583,6176
1644182436.614655,-0.010132,0.009338,-0.992981,0.342992,0.432366,-0.161527,46,281,585,6224
1644182436.663025,-0.006775,0.008179,-0.993469,0.144519,0.386565,-0.069924,46,274,590,6224
1644182436.711396,-0.009521,0.009338,-0.989319,0.190321,0.356031,-0.192061,32,279,583,6176
1644182436.759876,-0.010681,0.007935,-0.990234,0.251389,0.264427,0.021679,45,273,589,6256
1644182436.808215,-0.009705,0.011658,-0.991821,0.175053,0.432366,-0.25313,65,276,587,6160
1644182436.858317,-0.009827,0.007568,-0.991516,0.266656,0.447634,0.036947,59,273,584,6176
1644182436.908626,-0.009399,0.009521,-0.990845,0.251389,0.508702,-0.115725,48,279,592,6112
1644182436.958993,-0.007812,0.009583,-0.98822,0.251389,0.340763,-0.039389,51,281,580,6240
1644182437.003531,-0.012573,0.009644,-0.989746,0.251389,0.432366,-0.039389,46,271,585,6224
1644182437.101166,-0.012268,0.010193,-0.991516,0.159786,0.310229,-0.161527,47,280,584,6176
1644182437.146892,-0.006348,0.009399,-0.99176,0.159786,0.615573,-0.192061,47,275,579,6256
1644182437.195281,-0.005676,0.008423,-0.990906,0.159786,0.371298,-0.192061,42,285,582,6176
1644182437.243687,-0.010681,0.012024,-0.993896,0.098718,0.356031,-0.130992,47,280,582,6192
1644182437.29208,-0.00946,0.008911,-0.991882,0.190321,0.417099,-0.100458,52,282,591,6176
1644182437.340469,-0.007751,0.012146,-0.99176,0.251389,0.523969,-0.207328,51,269,580,6192
1644182437.388863,-0.007202,0.01239,-0.991272,0.205588,0.310229,0.036947,57,280,589,6160
1644182437.437226,-0.010254,0.009155,-0.993835,0.220855,0.371298,-0.115725,61,282,579,6160
1644182437.485642,-0.009277,0.007874,-0.992798,0.022382,0.417099,-0.054656,47,273,589,6176
1644182437.534033,-0.009644,0.008362,-0.994263,0.190321,0.462901,-0.207328,62,274,587,6128
1644182437.582445,-0.00946,0.009094,-0.994202,0.236122,0.386565,-0.054656,47,270,586,6160
1644182437.631094,-0.008179,0.007385,-0.991028,0.312458,0.432366,-0.14626,55,281,583,6224
1644182437.681655,-0.009033,0.00885,-0.991882,0.312458,0.340763,-0.054656,51,281,580,6192
1644182437.731812,-0.006836,0.005859,-0.990173,0.175053,0.417099,-0.222595,42,273,591,6176
1644182437.776847,-0.009033,0.008667,-0.994263,0.281924,0.356031,-0.161527,52,277,579,6176
1644182437.872841,-0.007446,0.010132,-0.992859,0.266656,0.371298,-0.069924,57,270,584,6160
1644182437.921189,-0.01062,0.007874,-0.991272,0.190321,0.417099,0.006412,47,275,584,6160
1644182437.96961,-0.007935,0.008362,-0.991699,0.129252,0.432366,-0.069924,43,279,583,6224
1644182438.018002,-0.007751,0.006714,-0.992065,0.205588,0.356031,-0.192061,48,279,580,6192
1644182438.066619,-0.008484,0.012329,-0.989502,0.297191,0.371298,-0.085191,55,279,583,6176
1644182438.115042,-0.008789,0.008972,-0.991638,0.251389,0.340763,-0.176794,46,283,585,6192
1644182438.163158,-0.006958,0.009705,-0.992188,0.312458,0.310229,-0.115725,51,274,576,6160
1644182438.211539,-0.009521,0.008606,-0.993652,0.175053,0.462901,-0.222595,47,275,584,6192
1644182438.259935,-0.008667,0.010498,-0.99176,0.251389,0.401832,-0.069924,55,279,587,6240
1644182438.308302,-0.008728,0.011719,-0.991699,0.373527,0.356031,-0.192061,42,277,584,6192
1644182438.356714,-0.005127,0.010071,-0.990601,0.144519,0.447634,0.006412,48,271,590,6240
1644182438.405208,-0.007874,0.010864,-0.992371,0.175053,0.523969,-0.115725,43,271,583,6176
1644182438.453514,-0.010559,0.01001,-0.988525,0.159786,0.356031,-0.100458,49,277,586,6192
1644182438.501905,-0.01001,0.009033,-0.991699,0.175053,0.462901,0.036947,48,281,587,6128
1644182438.550274,-0.007446,0.008728,-0.990417,0.190321,0.340763,-0.054656,57,282,582,6240
1644182438.598659,-0.009277,0.009277,-0.992615,0.404061,0.371298,-0.192061,55,286,580,6224
1644182438.64707,-0.010498,0.008972,-0.991394,0.236122,0.508702,-0.008855,46,281,576,6176
1644182438.695468,-0.007385,0.008911,-0.991516,0.159786,0.279695,-0.054656,49,282,582,6160
1644182438.74386,-0.00769,0.013184,-0.989502,0.159786,0.386565,-0.237863,51,276,576,6160
1644182438.792576,-0.007996,0.011475,-0.989624,0.190321,0.493435,-0.130992,55,293,585,6128
1644182438.844364,-0.009399,0.008179,-0.990967,0.144519,0.462901,0.021679,48,279,587,6128
1644182438.894753,-0.008606,0.007629,-0.994263,0.236122,0.24916,0.021679,57,282,591,6176
1644182438.938858,-0.006775,0.009644,-0.992432,0.190321,0.401832,-0.054656,46,269,587,6224
1644182439.034241,-0.011719,0.01001,-0.992798,0.159786,0.310229,0.12855,41,274,587,6160
1644182439.085818,-0.006897,0.01178,-0.990784,0.312458,0.340763,-0.069924,53,276,585,6128
1644182439.131029,-0.011353,0.010315,-0.991333,0.404061,0.523969,-0.192061,53,276,576,6176
1644182439.179395,-0.006348,0.010559,-0.995361,0.175053,0.294962,-0.192061,48,276,585,6224
1644182439.227783,-0.008179,0.009827,-0.992065,0.144519,0.264427,-0.100458,61,273,589,6160
1644182439.276156,-0.007141,0.008911,-0.986023,0.35826,0.371298,-0.054656,43,266,585,6160
1644182439.324611,-0.009216,0.010193,-0.992249,0.159786,0.371298,-0.069924,41,276,590,6160
1644182439.372981,-0.008667,0.00946,-0.990295,0.144519,0.279695,-0.14626,53,262,585,6240
1644182439.421355,-0.008301,0.009888,-0.993286,0.220855,0.386565,-0.085191,51,281,590,6160
1644182439.469746,-0.008972,0.009216,-0.992676,0.113985,0.401832,-0.054656,59,280,577,6160
1644182439.518139,-0.006714,0.009338,-0.989746,0.236122,0.340763,-0.024122,47,273,586,6192
1644182439.56653,-0.008057,0.010498,-0.992554,0.236122,0.478168,0.036947,53,274,585,6176
1644182439.615057,-0.007141,0.007263,-0.991211,0.297191,0.432366,0.036947,64,282,589,6240
1644182439.663335,-0.009338,0.009338,-0.990356,0.205588,0.279695,-0.069924,48,279,585,6192
1644182439.71172,-0.010132,0.008301,-0.99353,0.159786,0.401832,-0.161527,52,292,572,6160
1644182439.760083,-0.010925,0.00946,-0.990906,0.205588,0.417099,-0.176794,55,279,587,6224
1644182439.808497,-0.011047,0.010193,-0.992798,0.098718,0.508702,-0.054656,53,281,578,6224
1644182439.856932,-0.008118,0.01178,-0.990784,0.419328,0.523969,0.052214,55,271,585,6176
1644182439.905717,-0.008423,0.010803,-0.992249,0.297191,0.462901,-0.14626,51,279,578,6224
1644182439.956278,-0.011658,0.008789,-0.992249,0.190321,0.356031,-0.085191,43,274,578,6192
1644182440.060914,-0.005066,0.009949,-0.990723,0.327725,0.447634,-0.130992,58,274,578,6224
1644182440.101237,-0.008423,0.011108,-0.99054,0.251389,0.432366,-0.14626,48,271,587,6128
1644182440.147272,-0.005859,0.013794,-0.990967,0.297191,0.462901,-0.14626,43,286,590,6224
1644182440.195649,-0.009155,0.00946,-0.990234,0.08345,0.401832,-0.085191,39,269,578,6160
1644182440.244044,-0.008789,0.009583,-0.988159,0.434595,0.417099,-0.176794,49,282,593,6192
1644182440.292424,-0.006897,0.010376,-0.991577,0.113985,0.493435,-0.130992,57,270,584,6160
1644182440.340827,-0.01001,0.011169,-0.990417,0.129252,0.340763,-0.115725,47,273,593,6192
1644182440.389213,-0.010254,0.010254,-0.991516,0.312458,0.356031,-0.192061,49,282,593,6240
1644182440.437596,-0.008362,0.00885,-0.994019,0.144519,0.371298,-0.207328,53,274,580,6176
1644182440.485991,-0.008972,0.007996,-0.991455,0.327725,0.294962,-0.069924,55,279,585,6240
1644182440.534389,-0.005249,0.00592,-0.992432,0.312458,0.478168,-0.100458,54,270,584,6224
1644182440.582934,-0.010193,0.008606,-0.993164,0.175053,0.279695,-0.100458,52,270,579,6192
1644182440.632265,-0.009888,0.008301,-0.992432,0.08345,0.615573,-0.130992,59,285,577,6224
1644182440.682766,-0.009216,0.006165,-0.990845,0.205588,0.462901,0.021679,47,282,584,6224
1644182440.732891,-0.005859,0.008667,-0.991394,0.144519,0.203359,-0.115725,46,276,580,6224
1644182440.824879,-0.006042,0.010437,-0.991882,0.08345,0.615573,-0.115725,48,279,576,6128
1644182440.873186,-0.011108,0.012573,-0.990784,0.144519,0.661374,-0.237863,58,271,585,6240
1644182440.921563,-0.008057,0.009705,-0.993042,0.236122,0.218626,-0.085191,52,273,591,6128
1644182440.969932,-0.009338,0.006531,-0.995422,0.297191,0.264427,-0.085191,55,266,578,6128
1644182441.018357,-0.008728,0.01062,-0.994629,0.266656,0.340763,-0.100458,55,276,585,6176
1644182441.067899,-0.010864,0.007141,-0.993225,0.236122,0.554504,-0.130992,49,285,589,6160
1644182441.115278,-0.007263,0.009583,-0.992615,0.220855,0.356031,0.036947,55,279,590,6256
1644182441.163536,-0.008667,0.008118,-0.990845,0.098718,0.432366,-0.192061,53,269,583,6224
1644182441.211944,-0.00769,0.010742,-0.991333,0.205588,0.432366,-0.085191,52,280,584,6224
1644182441.260331,-0.00769,0.006775,-0.99353,0.144519,0.417099,-0.161527,47,280,586,6176
1644182441.308726,-0.008423,0.010315,-0.992126,0.251389,0.554504,-0.100458,47,277,593,6224
1644182441.35711,-0.007446,0.007935,-0.990723,0.205588,0.371298,-0.100458,39,279,585,6240
1644182441.405488,-0.01001,0.010803,-0.991272,0.159786,0.386565,-0.130992,46,271,587,6224
1644182441.453894,-0.008423,0.010986,-0.992859,0.205588,0.24916,-0.207328,47,277,589,6160
1644182441.502315,-0.009949,0.010681,-0.992676,0.159786,0.401832,-0.207328,45,285,579,6176
1644182441.550679,-0.008301,0.010193,-0.994507,0.266656,0.386565,-0.008855,58,279,587,6224
1644182441.599075,-0.00885,0.010498,-0.99353,0.236122,0.417099,-0.039389,48,274,585,6240
1644182441.647743,-0.008484,0.009644,-0.99176,0.251389,0.417099,-0.069924,52,273,589,6224
1644182441.695865,-0.006958,0.009888,-0.995972,0.35826,0.340763,-0.176794,42,277,591,6224
1644182441.745807,-0.007507,0.010437,-0.991638,0.251389,0.325496,-0.069924,57,275,589,6176
1644182441.796178,-0.009155,0.013489,-0.995056,0.205588,0.432366,-0.100458,52,277,579,6224
1644182441.846885,-0.006104,0.009827,-0.991577,0.327725,0.325496,-0.100458,59,277,593,6128
1644182441.89087,-0.008362,0.010864,-0.991455,0.251389,0.371298,-0.024122,36,279,594,6192
1644182441.986204,-0.008545,0.01001,-0.990417,0.342992,0.24916,0.006412,47,287,579,6192
1644182442.034888,-0.009644,0.010742,-0.991455,0.205588,0.233893,-0.161527,43,279,587,6160
1644182442.083096,-0.00769,0.010376,-0.991394,0.08345,0.386565,0.006412,34,281,592,6176
1644182442.131345,-0.007751,0.010376,-0.991272,0.251389,0.233893,0.052214,51,276,583,6160
1644182442.179741,-0.008667,0.007385,-0.992493,0.175053,0.325496,-0.069924,47,290,582,6224
1644182442.228137,-0.007751,0.010681,-0.990295,0.175053,0.417099,-0.054656,51,281,587,6224
1644182442.276514,-0.009583,0.009827,-0.991943,0.159786,0.325496,-0.069924,47,277,584,6160
1644182442.324922,-0.008362,0.009277,-0.992004,0.236122,0.371298,-0.192061,53,274,590,6240
1644182442.373324,-0.00647,0.007996,-0.992493,0.205588,0.462901,0.098015,42,277,589,6224
1644182442.42171,-0.009521,0.006226,-0.990295,0.022382,0.432366,-0.085191,52,280,579,6160
1644182442.470099,-0.009338,0.009705,-0.992188,0.342992,0.401832,-0.298931,51,271,583,6128
1644182442.518501,-0.006836,0.010437,-0.992126,0.113985,0.356031,-0.115725,49,277,582,6128
1644182442.566885,-0.004944,0.007996,-0.993713,0.159786,0.447634,-0.14626,53,271,580,6080
1644182442.615308,-0.009644,0.009216,-0.990845,0.129252,0.264427,-0.176794,39,276,583,6224
1644182442.663657,-0.00885,0.013428,-0.991028,0.08345,0.401832,-0.192061,40,273,577,6160
1644182442.71207,-0.012085,0.009155,-0.991089,0.251389,0.264427,-0.161527,45,273,584,6192
1644182442.760435,-0.008789,0.009216,-0.99231,0.266656,0.294962,0.082748,55,276,585,6224
1644182442.80887,-0.00824,0.012451,-0.992859,0.251389,0.401832,0.174351,43,281,590,6160
1644182442.857288,-0.008118,0.009338,-0.99115,0.190321,0.310229,-0.100458,48,274,578,6160
1644182442.906783,-0.00824,0.008606,-0.992065,0.327725,0.340763,-0.222595,46,274,580,6128
1644182442.957246,-0.006042,0.012146,-0.993286,0.251389,0.569771,0.036947,52,270,589,6192
1644182443.007239,-0.009521,0.009033,-0.989197,0.190321,0.279695,-0.039389,49,282,584,6192
1644182443.101912,-0.008728,0.009766,-0.991699,0.312458,0.478168,0.006412,47,285,586,6240
1644182443.147606,-0.007324,0.010803,-0.991821,0.159786,0.462901,-0.130992,46,271,576,6160
1644182443.195981,-0.009888,0.010498,-0.99054,0.190321,0.310229,-0.039389,48,281,580,6128
1644182443.244406,-0.008301,0.009216,-0.993225,0.113985,0.356031,-0.25313,49,270,579,6080
1644182443.292803,-0.00769,0.010864,-0.990967,0.251389,0.356031,-0.115725,48,271,578,6192
1644182443.341176,-0.010254,0.00885,-0.992554,0.251389,0.523969,-0.14626,46,279,576,6240
1644182443.389541,-0.009827,0.010376,-0.992432,0.266656,0.310229,-0.207328,48,279,576,6192
1644182443.437962,-0.009888,0.008545,-0.99054,0.251389,0.508702,-0.054656,41,276,585,6192
1644182443.486351,-0.008789,0.007263,-0.990234,0.098718,0.310229,-0.161527,51,264,573,6080
1644182443.534779,-0.010803,0.01062,-0.992798,0.297191,0.508702,-0.115725,49,280,589,6160
1644182443.583151,-0.011169,0.009705,-0.992737,0.098718,0.371298,-0.130992,58,281,583,6256
1644182443.631542,-0.007935,0.011292,-0.993103,0.342992,0.508702,-0.207328,48,279,587,6240
1644182443.679935,-0.010132,0.010193,-0.991516,0.266656,0.325496,-0.14626,53,286,592,6240
1644182443.728323,-0.010071,0.008789,-0.992737,0.312458,0.340763,-0.008855,53,276,578,6192
1644182443.776712,-0.010376,0.010803,-0.993652,0.220855,0.447634,-0.069924,51,286,583,6160
1644182443.825182,-0.006836,0.01355,-0.993103,0.190321,0.356031,-0.054656,51,276,587,6176
1644182443.873549,-0.008057,0.010254,-0.991028,0.220855,0.417099,-0.008855,51,271,585,6224
1644182443.922382,-0.007263,0.011292,-0.99054,0.266656,0.447634,-0.085191,40,290,582,6192
1644182443.9726,-0.00824,0.011658,-0.990967,0.220855,0.356031,-0.268397,49,277,579,6160
1644182444.023219,-0.009155,0.010986,-0.988831,0.342992,0.508702,-0.024122,43,269,585,6176
1644182444.080549,-0.008484,0.012207,-0.98999,0.190321,0.508702,-0.069924,46,269,583,6160
1644182444.163931,-0.009094,0.008728,-0.993286,0.312458,0.294962,-0.069924,48,286,585,6160
1644182444.212399,-0.006836,0.008545,-0.991821,0.190321,0.554504,-0.054656,53,283,578,6192
1644182444.260611,-0.006226,0.009216,-0.989136,0.175053,0.264427,-0.130992,46,266,583,6224
1644182444.309002,-0.00708,0.00769,-0.991516,0.190321,0.554504,-0.100458,41,274,583,6240
1644182444.357415,-0.010071,0.011475,-0.989441,0.144519,0.417099,-0.100458,46,269,585,6160
1644182444.4058,-0.009338,0.009277,-0.99231,0.236122,0.279695,0.006412,58,271,583,6176
1644182444.454206,-0.00769,0.01355,-0.991882,0.220855,0.386565,-0.115725,54,280,584,6160
1644182444.502588,-0.008301,0.012207,-0.992615,0.190321,0.371298,-0.069924,53,281,583,6160
1644182444.551001,-0.010193,0.006226,-0.99176,0.297191,0.447634,-0.008855,39,283,583,6224
1644182444.599387,-0.012268,0.010132,-0.991699,0.266656,0.233893,-0.069924,52,270,579,6176
1644182444.647778,-0.009766,0.010498,-0.992859,0.190321,0.447634,-0.161527,47,275,584,6192
1644182444.69617,-0.00592,0.00824,-0.993225,0.068183,0.294962,-0.054656,49,280,584,6176
1644182444.744674,-0.011902,0.013794,-0.992188,0.281924,0.432366,-0.085191,48,291,583,6112
1644182444.792974,-0.010376,0.010498,-0.989197,0.281924,0.356031,-0.14626,43,276,580,6224
1644182444.841388,-0.008789,0.011047,-0.993103,0.205588,0.325496,-0.039389,54,273,589,6160
1644182444.889778,-0.009094,0.009705,-0.991028,0.342992,0.371298,-0.130992,39,274,590,6176
1644182444.938175,-0.006226,0.009521,-0.992981,0.220855,0.417099,-0.008855,45,275,582,6176
1644182444.986666,-0.007263,0.011169,-0.99115,0.175053,0.401832,-0.100458,49,275,586,6224
1644182445.035046,-0.009155,0.011719,-0.992371,0.205588,0.340763,0.006412,46,276,578,6192
1644182445.091504,-0.011658,0.011414,-0.994324,0.129252,0.325496,-0.100458,51,274,578,6160
1644182445.134792,-0.006714,0.007324,-0.991943,0.236122,0.478168,-0.100458,48,271,583,6192
1644182445.183784,-0.010071,0.010681,-0.992065,0.251389,0.447634,-0.069924,49,280,582,6176
1644182445.228871,-0.005249,0.005432,-0.992737,0.281924,0.356031,-0.039389,55,274,585,6176
1644182445.325422,-0.009521,0.009277,-0.993469,0.144519,0.386565,-0.298931,49,277,572,6176
1644182445.373661,-0.009521,0.011719,-0.991699,0.266656,0.462901,-0.100458,46,288,587,6176
1644182445.422058,-0.008057,0.011292,-0.990906,0.220855,0.523969,-0.008855,36,276,576,6176
1644182445.470454,-0.008789,0.010254,-0.992371,0.297191,0.478168,-0.130992,60,288,580,6160
1644182445.518841,-0.009705,0.012085,-0.989685,0.144519,0.523969,-0.024122,45,277,577,6240
1644182445.56724,-0.007751,0.008118,-0.990234,0.144519,0.356031,-0.085191,53,274,583,6176
1644182445.615631,-0.010803,0.009827,-0.990601,0.175053,0.386565,0.036947,40,287,579,6176
1644182445.664032,-0.009216,0.009583,-0.993103,0.205588,0.264427,-0.054656,47,270,579,6192
1644182445.712435,-0.010132,0.011597,-0.991943,0.251389,0.386565,0.021679,51,274,583,6192
1644182445.760823,-0.007324,0.008545,-0.991577,0.205588,0.340763,-0.039389,59,280,582,6160
1644182445.809204,-0.006165,0.011536,-0.991516,0.312458,0.493435,0.021679,51,283,578,6112
1644182445.857625,-0.010193,0.010986,-0.98938,0.190321,0.386565,-0.222595,65,279,585,6224
1644182445.906022,-0.008911,0.011353,-0.991333,0.190321,0.279695,-0.085191,53,276,578,6160
1644182445.954436,-0.007996,0.010376,-0.990723,0.236122,0.478168,-0.25313,53,271,583,6128
1644182446.002801,-0.006897,0.008362,-0.989014,0.251389,0.401832,0.067481,53,279,583,6192
1644182446.064651,-0.00885,0.009888,-0.991028,0.236122,0.188092,-0.25313,47,280,596,6224
1644182446.147974,-0.007874,0.010254,-0.990417,0.297191,0.432366,-0.085191,48,279,578,6176
1644182446.196335,-0.008362,0.009094,-0.993286,0.175053,0.508702,-0.207328,43,274,583,6128
1644182446.244909,-0.010681,0.007629,-0.992188,0.266656,0.478168,-0.039389,58,276,580,6128
1644182446.293131,-0.009033,0.01001,-0.992859,0.297191,0.432366,-0.222595,36,266,578,6128
1644182446.341501,-0.009644,0.009583,-0.990662,0.159786,0.264427,-0.100458,48,276,580,6176
1644182446.3899,-0.011292,0.007874,-0.994324,0.190321,0.539237,-0.115725,52,277,582,6176
1644182446.438306,-0.009766,0.009766,-0.992859,0.236122,0.401832,-0.085191,51,269,580,6128
1644182446.486698,-0.009277,0.010132,-0.991699,0.159786,0.417099,-0.115725,54,277,589,6224
1644182446.535118,-0.010254,0.009583,-0.992249,0.236122,0.279695,0.006412,57,292,579,6240
1644182446.5835,-0.00592,0.010193,-0.98938,0.388794,0.432366,-0.207328,43,286,578,6160
1644182446.631865,-0.005371,0.006042,-0.992249,0.449863,0.356031,-0.008855,49,285,577,6224
1644182446.680276,-0.009277,0.008484,-0.99176,0.342992,0.447634,-0.069924,48,279,585,6224
1644182446.728669,-0.008911,0.009644,-0.991882,0.205588,0.340763,-0.085191,49,277,589,6176
1644182446.777059,-0.008789,0.009766,-0.991699,0.190321,0.401832,-0.024122,42,268,582,6080
1644182446.825452,-0.007202,0.009766,-0.991333,0.144519,0.24916,-0.161527,57,275,593,6160
1644182446.873908,-0.010132,0.007141,-0.991516,0.236122,0.294962,-0.024122,55,279,578,6176
1644182446.922301,-0.00885,0.010437,-0.991821,0.190321,0.447634,-0.085191,54,282,593,6224
1644182446.97102,-0.010742,0.010925,-0.992798,0.129252,0.294962,-0.054656,45,285,584,6224
1644182447.019085,-0.007263,0.008789,-0.993103,0.236122,0.386565,-0.008855,57,282,582,6192
1644182447.082531,-0.010437,0.012634,-0.990173,0.159786,0.340763,-0.14626,45,282,579,6224
1644182447.164292,-0.007202,0.010315,-0.992188,0.342992,0.386565,-0.115725,51,276,583,6128
1644182447.21261,-0.006836,0.010742,-0.990417,0.236122,0.539237,-0.100458,51,276,594,6176
1644182447.260972,-0.01123,0.009399,-0.994385,0.220855,0.340763,-0.14626,47,273,589,6224
1644182447.309373,-0.009216,0.007202,-0.991272,0.220855,0.218626,-0.069924,49,280,584,6112
1644182447.357786,-0.009705,0.010437,-0.993347,0.327725,0.386565,-0.130992,48,269,578,6176
1644182447.406143,-0.006897,0.008789,-0.99176,0.236122,0.447634,-0.085191,45,277,593,6192
1644182447.454613,-0.008423,0.009583,-0.991638,0.068183,0.325496,-0.130992,43,271,594,6176
1644182447.502941,-0.009888,0.007568,-0.990662,0.129252,0.340763,-0.14626,48,279,585,6224
1644182447.551357,-0.008789,0.00647,-0.989868,0.175053,0.386565,-0.192061,46,283,590,6192
1644182447.599741,-0.005005,0.007629,-0.992493,0.404061,0.447634,-0.207328,51,274,580,6192
1644182447.648146,-0.005737,0.010986,-0.989441,0.220855,0.401832,0.113282,42,285,582,6224
1644182447.696528,-0.008301,0.009949,-0.990784,0.190321,0.310229,-0.115725,42,277,589,6160
1644182447.744958,-0.008667,0.008301,-0.990662,0.266656,0.279695,-0.207328,54,280,584,6128
1644182447.793307,-0.005493,0.009155,-0.992554,0.220855,0.401832,0.021679,47,273,589,6176
1644182447.841711,-0.005981,0.007996,-0.991638,0.159786,0.493435,-0.069924,46,271,585,6224
1644182447.890136,-0.006226,0.009644,-0.990967,0.236122,0.340763,-0.024122,42,282,577,6160
1644182447.938531,-0.008423,0.011719,-0.989746,0.022382,0.371298,-0.115725,48,274,585,6160
1644182447.986923,-0.006592,0.008606,-0.992371,0.175053,0.356031,-0.161527,54,265,577,6240
1644182448.035351,-0.011353,0.011475,-0.992493,0.205588,0.554504,-0.024122,48,274,592,6160
1644182448.08583,-0.006958,0.012207,-0.99176,0.236122,0.493435,-0.115725,52,282,596,6176
1644182448.133878,-0.007263,0.009583,-0.990417,0.205588,0.294962,-0.14626,45,285,586,6240
1644182448.184011,-0.012207,0.008911,-0.992371,0.266656,0.294962,0.006412,35,277,577,6224
1644182448.229097,-0.007446,0.009583,-0.989563,0.220855,0.325496,-0.115725,55,276,597,6128
1644182448.325616,-0.007141,0.011719,-0.991516,0.08345,0.401832,-0.222595,47,277,579,6192
1644182448.374038,-0.009277,0.009033,-0.991577,0.251389,0.356031,-0.14626,55,274,580,6240
1644182448.42243,-0.00592,0.008911,-0.99054,0.129252,0.447634,-0.085191,48,276,585,6192
1644182448.470811,-0.009888,0.009949,-0.994629,0.236122,0.401832,0.006412,52,275,577,6128
1644182448.519205,-0.008118,0.009766,-0.992065,0.175053,0.371298,-0.100458,52,280,586,6176
1644182448.567612,-0.007324,0.00824,-0.988831,0.236122,0.264427,-0.115725,43,279,583,6176
1644182448.615987,-0.008728,0.011414,-0.992676,0.205588,0.462901,-0.176794,47,270,584,6224
1644182448.664397,-0.006042,0.012573,-0.990967,0.068183,0.478168,-0.069924,38,275,570,6176
1644182448.71279,-0.010681,0.009888,-0.991516,0.144519,0.417099,0.021679,57,282,577,6128
1644182448.761176,-0.005859,0.01062,-0.991028,0.327725,0.356031,-0.115725,41,266,583,6176
1644182448.809601,-0.009949,0.007812,-0.991699,0.373527,0.447634,-0.069924,55,286,594,6192
1644182448.857967,-0.007874,0.00946,-0.991821,0.144519,0.401832,-0.14626,48,281,583,6192
1644182448.906389,-0.009521,0.010437,-0.99231,0.129252,0.478168,-0.130992,49,282,584,6224
1644182448.954788,-0.007996,0.010315,-0.991699,0.266656,0.417099,-0.008855,43,283,585,6160
1644182449.003153,-0.009705,0.010071,-0.992859,0.266656,0.340763,-0.054656,43,288,590,6240
1644182449.066671,-0.00946,0.012573,-0.989197,0.236122,0.264427,-0.054656,59,275,579,6080
1644182449.101614,-0.00824,0.010437,-0.990723,0.129252,0.386565,-0.207328,54,280,598,6160
1644182449.148311,-0.010498,0.013916,-0.990967,0.159786,0.462901,0.006412,54,277,593,6160
1644182449.196702,-0.009827,0.009827,-0.993408,0.312458,0.294962,-0.115725,60,279,599,6240
1644182449.245679,-0.008545,0.006836,-0.992371,0.266656,0.417099,-0.069924,51,281,597,6160
1644182449.296399,-0.008484,0.009827,-0.99292,0.251389,0.478168,-0.161527,49,282,582,6224
1644182449.346491,-0.009216,0.011047,-0.988647,0.113985,0.356031,-0.024122,54,276,578,6224
1644182449.391463,-0.008789,0.006836,-0.994629,0.251389,0.447634,0.082748,59,280,582,6224
1644182449.487042,-0.008179,0.009705,-0.992737,-0.02342,0.386565,-0.130992,46,281,580,6224
1644182449.535442,-0.009949,0.010315,-0.991943,0.129252,0.417099,-0.161527,46,276,580,6224
1644182449.583858,-0.007263,0.009766,-0.994934,0.266656,0.493435,-0.14626,57,275,577,6128
1644182449.632381,-0.00647,0.01355,-0.990723,0.251389,0.417099,-0.222595,40,268,586,6176
1644182449.681202,-0.010376,0.008484,-0.99176,0.220855,0.417099,-0.176794,43,279,587,6128
1644182449.729008,-0.007202,0.008911,-0.990601,0.266656,0.462901,-0.085191,49,280,584,6224
1644182449.777413,-0.009094,0.007751,-0.987793,0.220855,0.417099,-0.237863,52,280,584,6128
1644182449.825844,-0.007507,0.010742,-0.991028,0.297191,0.539237,-0.100458,49,285,582,6128
1644182449.87426,-0.010132,0.008667,-0.990662,0.175053,0.401832,0.021679,54,277,582,6160
1644182449.92265,-0.006287,0.005676,-0.992432,0.281924,0.417099,-0.008855,48,262,576,6240
1644182449.971047,-0.00708,0.006958,-0.993225,0.159786,0.24916,-0.222595,49,273,579,6192
1644182450.019426,-0.010315,0.00946,-0.993896,0.190321,0.417099,-0.192061,51,274,585,6240
1644182450.085424,-0.009399,0.010864,-0.991882,0.205588,0.371298,0.052214,42,287,584,6240
1644182450.116142,-0.005676,0.009644,-0.991394,0.251389,0.417099,-0.039389,36,283,585,6224
1644182450.164608,-0.010193,0.01062,-0.99231,0.175053,0.386565,-0.054656,43,274,594,6128
1644182450.21297,-0.00824,0.008423,-0.993225,0.113985,0.478168,-0.130992,52,268,591,6192
1644182450.261344,-0.007446,0.00531,-0.991943,0.159786,0.447634,-0.115725,53,279,585,6176
1644182450.309763,-0.008606,0.012085,-0.992554,0.08345,0.432366,-0.161527,41,281,590,6160
1644182450.358148,-0.008606,0.009155,-0.993347,0.236122,0.371298,-0.054656,53,276,587,6224
1644182450.408052,-0.011047,0.00885,-0.991699,0.159786,0.432366,-0.069924,54,280,582,6192
1644182450.458302,-0.01123,0.009094,-0.993286,0.159786,0.447634,-0.024122,49,273,577,6224
1644182450.508414,-0.008301,0.009277,-0.990051,0.205588,0.371298,-0.085191,51,281,585,6160
1644182450.600115,-0.008423,0.009216,-0.99115,0.205588,0.386565,-0.222595,48,281,566,6192
1644182450.648466,-0.007568,0.008789,-0.991333,0.129252,0.371298,-0.192061,41,279,576,6160
1644182450.696875,-0.008728,0.009277,-0.991821,0.251389,0.447634,-0.100458,49,277,572,6160
1644182450.745442,-0.007874,0.010132,-0.990784,0.205588,0.279695,-0.024122,54,273,579,6176
1644182450.793678,-0.006348,0.008911,-0.994263,0.236122,0.523969,-0.14626,54,275,579,6176
1644182450.842161,-0.007568,0.007874,-0.990967,0.266656,0.417099,-0.115725,43,274,580,6176
1644182450.890495,-0.009827,0.006287,-0.989319,0.175053,0.478168,-0.268397,49,277,586,6224
1644182450.938891,-0.008057,0.011047,-0.994568,0.175053,0.310229,-0.115725,39,279,578,6192
1644182450.987284,-0.010132,0.01123,-0.991028,0.190321,0.294962,0.036947,52,277,579,6160
1644182451.035675,-0.006897,0.010803,-0.990662,0.297191,0.310229,-0.130992,53,264,585,6192
1644182451.090112,-0.004395,0.004578,-0.992737,0.144519,0.523969,0.006412,54,280,584,6224
1644182451.132442,-0.009888,0.005127,-0.991211,0.266656,0.294962,-0.14626,51,269,590,6224
1644182451.180808,-0.007812,0.007568,-0.992188,0.373527,0.447634,-0.176794,46,274,585,6192
1644182451.229193,-0.00885,0.011719,-0.992004,0.113985,0.462901,-0.161527,51,274,578,6224
1644182451.277606,-0.006836,0.010315,-0.99176,0.190321,0.539237,-0.176794,53,281,592,6224
1644182451.32597,-0.009155,0.007324,-0.994751,0.144519,0.356031,-0.054656,53,276,594,6176
1644182451.374402,-0.006531,0.008301,-0.990295,0.236122,0.325496,-0.161527,42,290,591,6192
1644182451.424218,-0.00885,0.011414,-0.99054,0.251389,0.493435,0.036947,45,277,579,6176
1644182451.474551,-0.010498,0.010864,-0.989319,0.068183,0.401832,-0.100458,46,279,585,6192
1644182451.524946,-0.00824,0.007812,-0.990845,0.266656,0.401832,-0.100458,45,277,584,6080
1644182451.61633,-0.011475,0.009033,-0.991821,0.220855,0.417099,-0.222595,51,269,587,6128
1644182451.664854,-0.007935,0.010071,-0.993164,0.281924,0.447634,-0.008855,52,282,582,6192
1644182451.71313,-0.009399,0.007324,-0.992004,0.236122,0.432366,0.052214,49,285,584,6240
1644182451.761505,-0.007446,0.009338,-0.992676,0.35826,0.356031,-0.085191,43,279,580,6192
1644182451.809907,-0.011536,0.009094,-0.991089,0.220855,0.356031,-0.176794,47,273,582,6176
1644182451.85834,-0.010376,0.010681,-0.992126,0.068183,0.371298,-0.069924,46,279,578,6176
1644182451.906733,-0.009644,0.009583,-0.990479,0.190321,0.310229,-0.024122,43,269,587,6160
1644182451.955251,-0.009094,0.01001,-0.99353,0.251389,0.371298,0.021679,46,276,590,6160
1644182452.003532,-0.008972,0.010315,-0.992249,0.327725,0.432366,-0.192061,47,275,584,6176
1644182452.065508,-0.01001,0.005676,-0.992737,0.312458,0.371298,-0.008855,51,274,585,6160
1644182452.10269,-0.010498,0.010742,-0.992188,0.068183,0.462901,-0.14626,54,277,593,6128
1644182452.148664,-0.010315,0.008118,-0.99353,0.281924,0.462901,-0.192061,41,283,583,6160
1644182452.197053,-0.008606,0.009521,-0.993408,0.190321,0.294962,-0.14626,43,281,578,6160
1644182452.245445,-0.008057,0.009033,-0.990723,0.236122,0.356031,0.006412,49,263,591,6160
1644182452.293851,-0.009094,0.009888,-0.990295,0.159786,0.386565,-0.039389,47,275,586,6192
1644182452.342256,-0.011658,0.009949,-0.991882,0.236122,0.386565,-0.115725,55,271,590,6160
1644182452.390632,-0.010132,0.008667,-0.993591,0.175053,0.279695,-0.054656,54,285,582,6224
1644182452.43903,-0.007874,0.012207,-0.994385,0.342992,0.523969,-0.130992,51,274,587,6176
1644182452.487659,-0.009644,0.010864,-0.992859,0.159786,0.447634,-0.176794,45,275,593,6192
1644182452.536513,-0.00769,0.008606,-0.992676,0.419328,0.462901,-0.237863,57,273,586,6128
1644182452.587096,-0.007935,0.011047,-0.991943,0.312458,0.493435,0.006412,57,263,591,6192
1644182452.638726,-0.008606,0.011719,-0.991821,0.297191,0.447634,-0.176794,45,282,589,6160
1644182452.682163,-0.009827,0.00946,-0.992798,0.327725,0.386565,-0.207328,46,279,585,6176
1644182452.77776,-0.008484,0.011963,-0.991943,0.144519,0.340763,-0.069924,51,274,585,6176
1644182452.826146,-0.008606,0.008606,-0.993042,0.08345,0.432366,-0.085191,45,275,589,6192
1644182452.874908,-0.007263,0.011963,-0.990967,0.297191,0.24916,-0.115725,48,281,580,6192
1644182452.922992,-0.00708,0.012695,-0.989807,0.159786,0.340763,-0.085191,40,275,584,6224
1644182452.971383,-0.009827,0.008667,-0.993469,0.266656,0.386565,-0.192061,49,273,575,6192
1644182453.019783,-0.009583,0.01062,-0.991272,0.113985,0.493435,-0.085191,53,259,578,6160
1644182453.069398,-0.007996,0.009033,-0.990845,0.052916,0.340763,-0.008855,43,281,583,6160
1644182453.116518,-0.008179,0.007263,-0.992432,0.266656,0.340763,-0.222595,47,275,584,6128
1644182453.164921,-0.008545,0.010681,-0.988525,0.068183,0.340763,-0.008855,53,271,585,6224
1644182453.213315,-0.00708,0.011902,-0.992249,0.312458,0.478168,-0.207328,40,275,579,6224
1644182453.261692,-0.005005,0.01062,-0.989929,0.175053,0.401832,-0.024122,48,291,576,6176
1644182453.31009,-0.009338,0.010376,-0.993225,0.205588,0.417099,-0.039389,48,279,578,6176
1644182453.358475,-0.010437,0.010376,-0.9953,0.113985,0.462901,-0.130992,45,280,579,6176
1644182453.406885,-0.008911,0.009033,-0.992126,0.297191,0.539237,-0.039389,60,279,580,6192
1644182453.455276,-0.008972,0.009521,-0.990417,0.236122,0.462901,-0.176794,49,270,584,6224
1644182453.503647,-0.007263,0.007935,-0.991272,0.251389,0.371298,0.036947,45,282,586,6224
1644182453.55206,-0.008545,0.008972,-0.990173,0.281924,0.401832,-0.25313,54,277,593,6128
1644182453.600444,-0.007324,0.01062,-0.991211,0.159786,0.356031,0.021679,46,281,585,6224
1644182453.648834,-0.006958,0.007996,-0.993408,0.236122,0.310229,-0.25313,54,270,586,6224
1644182453.697283,-0.009033,0.007507,-0.989868,0.251389,0.462901,-0.054656,45,270,589,6192
1644182453.747668,-0.007202,0.008728,-0.990173,0.266656,0.340763,-0.14626,53,288,573,6224
1644182453.797967,-0.009583,0.009216,-0.991943,0.205588,0.493435,-0.100458,47,275,584,6192
1644182453.84288,-0.00885,0.010376,-0.99292,0.022382,0.340763,-0.222595,43,276,578,6192
1644182453.939238,-0.01062,0.011597,-0.993774,0.327725,0.523969,-0.100458,49,287,589,6160
1644182453.987632,-0.009277,0.008606,-0.99231,0.266656,0.462901,-0.207328,45,287,584,6160
1644182454.036008,-0.009155,0.009338,-0.99231,0.373527,0.539237,-0.039389,49,273,577,6160
1644182454.084515,-0.007751,0.011292,-0.992188,0.175053,0.294962,-0.237863,46,276,585,6224
1644182454.132819,-0.012695,0.010437,-0.992432,0.251389,0.264427,-0.069924,43,283,573,6240
1644182454.18117,-0.008179,0.00885,-0.992004,0.113985,0.417099,-0.115725,41,279,583,6128
1644182454.229563,-0.009094,0.009583,-0.993347,0.236122,0.340763,-0.054656,46,279,587,6192
1644182454.277932,-0.006287,0.010132,-0.994141,0.220855,0.432366,-0.14626,46,274,583,6240
1644182454.326339,-0.00769,0.010681,-0.992126,0.205588,0.279695,-0.085191,55,274,585,6192
1644182454.374755,-0.012085,0.009949,-0.99292,0.144519,0.401832,-0.130992,46,286,592,6176
1644182454.42315,-0.007507,0.008423,-0.992859,0.175053,0.401832,-0.161527,58,264,590,6160
1644182454.471522,-0.007629,0.010864,-0.99408,0.236122,0.325496,-0.024122,52,290,577,6160
1644182454.519921,-0.010803,0.012451,-0.994019,0.342992,0.340763,-0.069924,46,279,590,6224
1644182454.568305,-0.009521,0.009216,-0.992554,-0.02342,0.462901,-0.024122,47,285,582,6176
1644182454.616695,-0.009277,0.010437,-0.990967,0.266656,0.356031,-0.100458,49,280,591,6224
1644182454.665126,-0.010315,0.012268,-0.993164,0.175053,0.447634,-0.069924,41,269,597,6128
1644182454.713499,-0.005005,0.011169,-0.990784,0.327725,0.340763,-0.130992,54,273,579,6240
1644182454.761971,-0.010498,0.009338,-0.991028,0.220855,0.478168,-0.085191,57,280,586,6160
1644182454.811376,-0.00769,0.009338,-0.99115,-0.02342,0.24916,0.036947,52,275,577,6224
1644182454.862892,-0.009094,0.011719,-0.989563,0.220855,0.493435,-0.008855,51,279,583,6128
1644182454.907331,-0.008423,0.011353,-0.989624,0.281924,0.432366,0.006412,33,280,582,6176
1644182455.003944,-0.009399,0.009521,-0.992188,0.281924,0.371298,-0.161527,42,282,584,6176
1644182455.064855,-0.006409,0.012512,-0.993042,0.129252,0.432366,-0.25313,43,271,583,6192
1644182455.101319,-0.009949,0.010559,-0.991028,0.342992,0.401832,0.006412,52,265,584,6176
1644182455.149031,-0.010071,0.009216,-0.990417,0.144519,0.462901,-0.069924,49,273,584,6240
1644182455.197421,-0.008362,0.010193,-0.993408,0.129252,0.325496,-0.115725,45,270,584,6240
1644182455.245788,-0.009155,0.008118,-0.992737,0.175053,0.356031,-0.14626,46,281,590,6224
1644182455.294187,-0.009155,0.008484,-0.99292,0.342992,0.417099,0.082748,46,259,580,6224
1644182455.342603,-0.008301,0.006653,-0.991638,0.098718,0.386565,-0.069924,45,280,593,6128
1644182455.390982,-0.00946,0.011841,-0.990784,0.281924,0.371298,-0.130992,43,274,583,6160
1644182455.439383,-0.010498,0.008606,-0.991028,0.190321,0.417099,-0.115725,59,277,579,6192
1644182455.487774,-0.00415,0.00647,-0.993103,0.08345,0.539237,-0.222595,55,281,583,6160
1644182455.536162,-0.007996,0.009705,-0.990784,0.144519,0.264427,-0.054656,46,262,580,6192
1644182455.584541,-0.007874,0.010071,-0.992737,0.175053,0.569771,-0.192061,47,270,579,6192
1644182455.633286,-0.010132,0.009399,-0.989075,0.220855,0.417099,-0.054656,45,270,596,6176
1644182455.682416,-0.010071,0.010071,-0.98999,0.327725,0.508702,-0.130992,48,271,585,6176
1644182455.732787,-0.006775,0.00885,-0.992554,0.098718,0.417099,-0.192061,47,287,582,6112
1644182455.783044,-0.008545,0.01001,-0.989502,0.297191,0.462901,-0.085191,49,273,584,6160
1644182455.82816,-0.00647,0.012268,-0.991638,0.266656,0.386565,0.12855,51,279,580,6192
1644182455.92336,-0.010315,0.013855,-0.98999,0.190321,0.432366,-0.14626,39,279,576,6224
1644182455.971728,-0.009216,0.007324,-0.991333,0.129252,0.401832,-0.085191,45,275,586,6160
1644182456.020135,-0.009521,0.008667,-0.991394,0.129252,0.325496,-0.115725,45,273,572,6160
1644182456.069776,-0.008484,0.011414,-0.994385,0.205588,0.478168,-0.054656,53,279,594,6224
1644182456.116834,-0.009277,0.009277,-0.991699,0.342992,0.371298,-0.115725,45,277,589,6224
1644182456.165264,-0.006897,0.01062,-0.991577,0.373527,0.417099,-0.024122,43,264,580,6224
1644182456.213678,-0.00946,0.012024,-0.989685,0.251389,0.462901,0.006412,49,282,584,6224
1644182456.262059,-0.010132,0.00946,-0.989014,0.281924,0.310229,-0.054656,45,277,572,6160
1644182456.310436,-0.008118,0.011536,-0.993225,0.220855,0.325496,-0.100458,49,280,586,6192
1644182456.358842,-0.007507,0.012207,-0.989441,0.297191,0.386565,-0.115725,41,276,576,6080
1644182456.407217,-0.010803,0.011169,-0.992798,0.205588,0.417099,-0.054656,45,280,593,6224
1644182456.455639,-0.008179,0.008972,-0.989746,0.266656,0.325496,0.006412,49,273,579,6160
1644182456.504034,-0.006958,0.008667,-0.99353,0.159786,0.447634,-0.054656,49,280,586,6256
1644182456.552426,-0.009216,0.00885,-0.991272,0.022382,0.310229,-0.130992,46,281,587,6224
1644182456.600808,-0.007751,0.008911,-0.993103,0.281924,0.447634,0.021679,53,274,578,6160
1644182456.649212,-0.010986,0.007141,-0.989746,0.037649,0.188092,-0.161527,54,275,591,6176
1644182456.697592,-0.011475,0.009277,-0.990723,0.312458,0.478168,-0.069924,48,276,583,6160
1644182456.745986,-0.00531,0.011353,-0.995239,0.373527,0.417099,-0.054656,51,279,580,6160
1644182456.794434,-0.00769,0.008545,-0.989746,0.144519,0.447634,-0.222595,52,287,579,6224
1644182456.844735,-0.009033,0.008789,-0.993225,0.113985,0.340763,0.006412,45,287,596,6240
1644182456.894403,-0.006409,0.010254,-0.991699,0.144519,0.615573,0.082748,51,274,587,6192
1644182456.944555,-0.009583,0.009644,-0.993713,0.236122,0.478168,-0.008855,46,271,585,6176
1644182456.98922,-0.007874,0.009155,-0.992004,0.236122,0.371298,0.036947,47,282,586,6128
1644182457.086227,-0.010193,0.007751,-0.991089,0.068183,0.539237,0.067481,46,283,594,6192
1644182457.133133,-0.008972,0.011841,-0.991882,0.113985,0.447634,-0.130992,54,277,582,6224
1644182457.181513,-0.010986,0.01123,-0.990234,0.144519,0.340763,-0.161527,45,270,582,6160
1644182457.229912,-0.01062,0.010986,-0.990967,0.144519,0.447634,-0.14626,53,276,578,6176
1644182457.278297,-0.010986,0.008057,-0.991577,0.052916,0.325496,-0.100458,57,275,579,6256
1644182457.326699,-0.007507,0.009766,-0.991455,0.068183,0.356031,-0.100458,46,274,583,6176
1644182457.375119,-0.00946,0.008728,-0.991516,0.251389,0.386565,0.143817,59,277,579,6224
1644182457.423506,-0.009155,0.01123,-0.992493,0.144519,0.401832,-0.069924,53,288,585,6240
1644182457.471867,-0.008362,0.01123,-0.990723,0.159786,0.432366,-0.039389,51,274,578,6176
1644182457.520273,-0.006775,0.009033,-0.993652,0.297191,0.294962,0.006412,47,268,577,6176
1644182457.568671,-0.008728,0.011841,-0.99054,0.159786,0.569771,-0.069924,48,281,580,6192
1644182457.617062,-0.007141,0.009216,-0.993958,0.236122,0.371298,-0.14626,57,277,584,6240
1644182457.665425,-0.008728,0.00885,-0.993469,0.220855,0.401832,-0.085191,49,277,589,6176
1644182457.713845,-0.01123,0.008057,-0.992065,0.266656,0.447634,-0.176794,46,274,583,6224
1644182457.762253,-0.00708,0.011536,-0.991699,0.266656,0.310229,0.021679,59,270,596,6240
1644182457.810666,-0.008362,0.009766,-0.989502,0.266656,0.401832,-0.25313,48,264,585,6160
1644182457.859073,-0.008118,0.009705,-0.993347,0.449863,0.432366,-0.222595,42,265,593,6176
1644182457.907466,-0.010376,0.010132,-0.990906,0.266656,0.310229,-0.024122,59,282,586,6160
1644182457.956769,-0.010254,0.009766,-0.989441,0.068183,0.356031,0.036947,47,277,591,6224
1644182458.006998,-0.010132,0.007446,-0.990845,0.312458,0.432366,-0.008855,43,276,580,6176
1644182458.082784,-0.01123,0.011902,-0.990295,0.113985,0.508702,-0.085191,49,285,579,6176
1644182458.107567,-0.009155,0.011658,-0.994141,0.480397,0.417099,-0.192061,42,275,584,6128
1644182458.197757,-0.008179,0.010986,-0.994141,0.342992,0.279695,-0.115725,42,273,589,6112
1644182458.24615,-0.009827,0.008972,-0.990295,0.327725,0.508702,-0.14626,51,283,585,6192
1644182458.29455,-0.009338,0.011597,-0.990295,0.159786,0.432366,0.006412,55,276,587,6224
1644182458.342965,-0.009216,0.008423,-0.992371,0.220855,0.478168,-0.115725,51,264,583,6160
1644182458.391331,-0.007568,0.01178,-0.992737,0.129252,0.401832,-0.100458,48,274,585,6192
1644182458.439735,-0.008972,0.009888,-0.989014,0.175053,0.523969,0.006412,49,282,577,6176
1644182458.488093,-0.007385,0.009583,-0.99054,0.327725,0.356031,-0.222595,45,273,586,6128
1644182458.536509,-0.007996,0.010742,-0.991821,0.312458,0.279695,-0.268397,55,269,578,6192
1644182458.584904,-0.007507,0.008545,-0.992065,0.159786,0.24916,-0.25313,43,274,590,6176
1644182458.633326,-0.010193,0.007324,-0.992737,0.113985,0.508702,-0.222595,42,277,575,6128
1644182458.681697,-0.006897,0.007935,-0.990906,0.35826,0.432366,-0.069924,47,275,586,6224
1644182458.730066,-0.008484,0.00946,-0.991821,0.236122,0.279695,-0.115725,58,276,592,6112
1644182458.778485,-0.00946,0.010376,-0.993591,0.281924,0.325496,-0.024122,46,276,580,6240
1644182458.826925,-0.007507,0.01123,-0.989075,0.236122,0.340763,-0.161527,61,275,584,6224
1644182458.87531,-0.008545,0.009949,-0.991333,0.205588,0.508702,-0.207328,46,283,587,6192
1644182458.923712,-0.008606,0.009644,-0.991211,0.129252,0.386565,-0.222595,43,279,580,6192
1644182458.972145,-0.009766,0.010193,-0.992737,0.113985,0.432366,-0.039389,41,276,585,6160
1644182459.020476,-0.007568,0.007141,-0.991882,0.175053,0.432366,-0.161527,54,273,591,6192
1644182459.080822,-0.009155,0.011597,-0.990479,0.251389,0.371298,-0.115725,48,274,578,6256
1644182459.120709,-0.008545,0.01062,-0.990967,0.113985,0.371298,-0.130992,47,265,589,6192
1644182459.169433,-0.007996,0.010498,-0.992065,0.281924,0.371298,-0.115725,51,286,583,6176
1644182459.214375,-0.006287,0.009399,-0.992249,0.236122,0.432366,-0.14626,47,277,582,6160
1644182459.310802,-0.007141,0.008301,-0.990417,0.251389,0.371298,-0.085191,41,279,580,6128
1644182459.359173,-0.006958,0.007507,-0.991699,0.251389,0.417099,0.036947,59,268,572,6080
1644182459.407584,-0.007507,0.00708,-0.99054,0.236122,0.493435,-0.115725,49,273,577,6192
1644182459.455973,-0.008484,0.006409,-0.991699,0.175053,0.401832,-0.176794,51,274,576,6176
1644182459.504341,-0.007385,0.009888,-0.992615,0.205588,0.371298,-0.115725,43,286,585,6224
1644182459.552784,-0.008118,0.007263,-0.990051,0.251389,0.432366,-0.115725,36,276,583,6176
1644182459.601164,-0.006958,0.01239,-0.988159,0.08345,0.264427,-0.039389,58,269,580,6192
1644182459.649572,-0.008545,0.009399,-0.98999,0.113985,0.294962,-0.054656,38,277,584,6224
1644182459.697953,-0.00885,0.009277,-0.991821,0.251389,0.218626,0.021679,47,275,596,6176
1644182459.746319,-0.009949,0.008789,-0.992554,0.35826,0.340763,0.006412,54,280,579,6128
1644182459.794759,-0.009766,0.008911,-0.992432,0.205588,0.401832,-0.115725,47,282,582,6112
1644182459.843186,-0.00824,0.009766,-0.990784,0.098718,0.264427,-0.069924,59,273,586,6160
1644182459.891556,-0.007324,0.009949,-0.990662,0.129252,0.447634,-0.176794,40,282,582,6176
1644182459.939955,-0.008789,0.010376,-0.994751,0.281924,0.417099,-0.085191,46,281,573,6224
1644182459.988302,-0.006897,0.010864,-0.992737,0.098718,0.386565,-0.161527,48,276,576,6224
1644182460.036774,-0.007263,0.009094,-0.99469,0.419328,0.523969,-0.130992,39,276,578,6160
1644182460.097236,-0.007385,0.008789,-0.993408,0.281924,0.447634,0.036947,52,277,591,6176
1644182460.133486,-0.008606,0.005432,-0.990601,0.144519,0.432366,0.082748,49,282,579,6176
1644182460.181887,-0.011475,0.010132,-0.991333,0.129252,0.401832,-0.100458,59,282,596,6128
1644182460.230435,-0.010132,0.010437,-0.989868,0.342992,0.310229,-0.130992,48,274,580,6192
1644182460.281429,-0.010376,0.009827,-0.991211,0.205588,0.447634,-0.25313,43,279,583,6128
1644182460.331398,-0.009583,0.011597,-0.991272,0.129252,0.508702,-0.085191,39,271,583,6192
1644182460.376514,-0.008484,0.007996,-0.990601,0.266656,0.340763,-0.024122,42,277,577,6160
1644182460.472385,-0.009094,0.010376,-0.994202,0.312458,0.401832,-0.054656,53,274,580,6160
1644182460.520624,-0.006165,0.00946,-0.991638,0.297191,0.417099,-0.085191,55,281,580,6176
1644182460.569019,-0.009644,0.00946,-0.993408,0.052916,0.417099,-0.192061,58,269,585,6240
1644182460.617966,-0.007935,0.009155,-0.991699,0.175053,0.554504,0.082748,46,274,578,6128
1644182460.665781,-0.009888,0.01178,-0.992676,0.08345,0.386565,-0.039389,47,273,586,6128
1644182460.714206,-0.008301,0.008545,-0.992554,0.266656,0.356031,-0.14626,36,281,583,6160
1644182460.762609,-0.008667,0.008911,-0.991577,0.08345,0.386565,-0.176794,52,282,591,6192
1644182460.810993,-0.004395,0.008484,-0.994019,0.281924,0.478168,-0.237863,49,282,577,6160
1644182460.859423,-0.009827,0.009644,-0.991028,0.236122,0.371298,0.036947,45,270,577,6176
1644182460.907804,-0.009521,0.008545,-0.99176,0.251389,0.325496,-0.024122,42,275,582,6176
1644182460.956202,-0.009644,0.009338,-0.99353,0.297191,0.447634,-0.100458,35,280,586,6176
1644182461.004726,-0.008423,0.012024,-0.989929,0.220855,0.478168,-0.085191,46,276,585,6192
1644182461.062677,-0.006592,0.00824,-0.994751,0.175053,0.539237,-0.100458,51,279,578,6176
1644182461.10533,-0.009827,0.009216,-0.989258,0.251389,0.371298,-0.085191,61,270,582,6160
1644182461.149733,-0.009705,0.009216,-0.990234,0.327725,0.401832,-0.100458,55,283,583,6224
1644182461.198123,-0.00769,0.00824,-0.991211,0.297191,0.432366,-0.024122,51,281,583,6128
1644182461.246481,-0.009644,0.007202,-0.991272,0.190321,0.432366,-0.115725,45,285,584,6160
1644182461.294891,-0.007935,0.00946,-0.990417,0.251389,0.371298,-0.192061,47,275,591,6128
1644182461.343302,-0.010803,0.010315,-0.991455,0.129252,0.371298,-0.085191,53,279,585,6128
1644182461.391888,-0.009766,0.007263,-0.99353,0.236122,0.523969,0.006412,54,268,575,6112
1644182461.442452,-0.009155,0.008667,-0.99231,0.098718,0.218626,-0.130992,48,279,580,6192
1644182461.493459,-0.00592,0.007874,-0.991455,0.129252,0.218626,-0.085191,51,283,587,6128
1644182461.537905,-0.008484,0.00885,-0.992004,0.236122,0.523969,-0.008855,47,273,584,6192
1644182461.633669,-0.007019,0.009766,-0.993958,0.175053,0.432366,-0.024122,46,281,583,6176
1644182461.682042,-0.010925,0.008301,-0.992554,0.281924,0.508702,-0.100458,49,275,584,6176
1644182461.73044,-0.00769,0.009888,-0.990906,0.068183,0.386565,-0.054656,61,270,584,6224
1644182461.778834,-0.006409,0.012695,-0.991516,0.251389,0.401832,0.036947,52,285,579,6224
1644182461.827276,-0.007568,0.009277,-0.990906,0.052916,0.523969,-0.176794,59,275,570,6224
1644182461.875625,-0.009644,0.012817,-0.991333,0.266656,0.493435,-0.14626,43,274,583,6240
1644182461.924054,-0.009949,0.008728,-0.989685,0.190321,0.340763,-0.008855,48,274,587,6224
1644182461.972467,-0.008728,0.010254,-0.991943,0.236122,0.340763,-0.069924,40,268,575,6192
1644182462.020838,-0.00769,0.008606,-0.993103,0.297191,0.539237,-0.130992,40,280,577,6240
1644182462.073572,-0.009277,0.008118,-0.992065,0.266656,0.493435,-0.039389,52,277,591,6224
1644182462.117659,-0.00946,0.010132,-0.991577,0.236122,0.417099,-0.161527,48,276,571,6224
1644182462.165984,-0.00824,0.008423,-0.991455,0.312458,0.325496,-0.039389,42,268,579,6112
1644182462.214375,-0.00824,0.010742,-0.991882,0.312458,0.417099,-0.130992,54,282,582,6224
1644182462.262755,-0.007996,0.011169,-0.994812,0.205588,0.447634,-0.161527,43,286,578,6224
1644182462.311157,-0.008362,0.008972,-0.992676,0.129252,0.24916,-0.192061,52,277,586,6160
1644182462.359544,-0.008179,0.01001,-0.987793,0.297191,0.279695,0.067481,43,276,580,6176
1644182462.407936,-0.011169,0.010925,-0.991028,0.220855,0.325496,-0.100458,46,274,585,6192
1644182462.456332,-0.008911,0.009766,-0.991028,0.251389,0.340763,-0.039389,52,277,593,6160
1644182462.504769,-0.008789,0.010986,-0.992371,0.190321,0.462901,-0.008855,49,273,579,6160
1644182462.553202,-0.007202,0.007812,-0.991943,0.327725,0.523969,-0.085191,54,280,582,6160
1644182462.603798,-0.00769,0.009521,-0.991577,0.281924,0.340763,-0.069924,45,270,586,6128
1644182462.653772,-0.01001,0.00647,-0.993286,0.220855,0.478168,-0.14626,49,273,579,6176
1644182462.698838,-0.01062,0.009216,-0.99054,0.205588,0.417099,-0.039389,53,271,573,6112
1644182462.795348,-0.00415,0.011475,-0.992798,0.297191,0.218626,-0.176794,51,269,590,6256
1644182462.843464,-0.007874,0.01062,-0.992065,0.113985,0.432366,-0.329466,47,277,572,6128
1644182462.891898,-0.008484,0.010132,-0.990479,0.175053,0.432366,0.021679,54,280,584,6160
1644182462.940295,-0.007874,0.009216,-0.98877,0.175053,0.462901,-0.054656,49,270,577,6192
1644182462.988711,-0.007141,0.011292,-0.994507,0.35826,0.508702,0.036947,48,276,590,6160
1644182463.037067,-0.009094,0.013306,-0.992249,0.113985,0.462901,-0.085191,58,274,585,6192
1644182463.085558,-0.009277,0.010254,-0.992432,0.236122,0.294962,-0.100458,52,270,589,6176
1644182463.133905,-0.008179,0.010559,-0.989319,0.220855,0.447634,-0.054656,45,282,591,6192
1644182463.182242,-0.006592,0.008545,-0.989868,0.08345,0.432366,-0.130992,46,276,583,6160
1644182463.230628,-0.010315,0.00946,-0.991821,0.08345,0.340763,0.006412,47,273,584,6128
1644182463.279013,-0.01001,0.008667,-0.990784,0.312458,0.447634,-0.024122,53,274,585,6160
1644182463.3274,-0.006287,0.010376,-0.990601,0.190321,0.447634,-0.100458,36,271,583,6176
1644182463.375794,-0.012024,0.008484,-0.991882,0.342992,0.279695,-0.130992,42,282,586,6224
1644182463.424375,-0.00946,0.009399,-0.992188,0.144519,0.325496,-0.100458,33,270,589,6192
1644182463.473217,-0.006287,0.006775,-0.991516,0.342992,0.417099,-0.085191,53,281,590,6160
1644182463.523774,-0.008362,0.011658,-0.992371,0.220855,0.386565,-0.222595,46,281,583,6128
1644182463.574007,-0.007202,0.009155,-0.991699,0.205588,0.371298,-0.14626,45,277,591,6176
1644182463.618882,-0.008606,0.010681,-0.991394,0.236122,0.371298,-0.008855,51,274,576,6128
1644182463.714815,-0.006653,0.008789,-0.992004,0.190321,0.523969,-0.069924,49,273,575,6160
1644182463.762959,-0.007751,0.008911,-0.988586,0.220855,0.401832,-0.14626,45,273,586,6192
1644182463.811322,-0.007324,0.00885,-0.992493,0.388794,0.432366,-0.024122,49,275,586,6192
1644182463.859728,-0.008484,0.009521,-0.992004,0.175053,0.401832,-0.115725,45,277,582,6160
1644182463.908156,-0.005432,0.012512,-0.990479,0.159786,0.432366,-0.207328,43,269,573,6192
1644182463.956556,-0.00769,0.009338,-0.992676,0.159786,0.462901,-0.14626,53,279,583,6160
1644182464.004929,-0.010132,0.011658,-0.992554,0.175053,0.325496,-0.039389,52,273,570,6192
1644182464.065616,-0.01001,0.010742,-0.991211,0.144519,0.279695,-0.192061,58,274,583,6128
1644182464.101724,-0.008606,0.010925,-0.990723,0.098718,0.432366,-0.14626,55,276,583,6224
1644182464.150125,-0.008972,0.010864,-0.993347,0.327725,0.279695,0.021679,43,274,587,6160
1644182464.198525,-0.008118,0.010559,-0.990479,-0.053954,0.386565,-0.161527,48,281,580,6192
1644182464.246887,-0.010071,0.009583,-0.989441,0.129252,0.340763,-0.176794,46,279,592,6160
1644182464.295291,-0.010376,0.008911,-0.991455,0.35826,0.478168,-0.100458,48,279,590,6240
1644182464.343699,-0.00824,0.005737,-0.993042,0.190321,0.340763,-0.115725,49,275,579,6160
1644182464.392059,-0.009094,0.007507,-0.991577,0.190321,0.24916,-0.054656,59,265,591,6256
1644182464.44048,-0.007446,0.008911,-0.991211,0.113985,0.447634,-0.054656,59,275,591,6192
1644182464.488874,-0.00824,0.010742,-0.99408,0.052916,0.310229,-0.069924,47,273,575,6176
1644182464.537599,-0.009033,0.010925,-0.992798,0.297191,0.417099,-0.024122,55,274,583,6080
1644182464.58567,-0.009766,0.008606,-0.992065,0.129252,0.401832,-0.024122,49,265,586,6160
1644182464.635591,-0.007202,0.008728,-0.992493,0.098718,0.325496,-0.130992,47,273,589,6160
1644182464.685946,-0.009705,0.009888,-0.993103,0.144519,0.371298,-0.161527,48,276,583,6240
1644182464.736176,-0.009216,0.008911,-0.992737,0.236122,0.401832,-0.130992,53,271,585,6176
1644182464.780732,-0.009888,0.01001,-0.993042,0.159786,0.340763,-0.054656,46,264,578,6160
1644182464.875992,-0.011902,0.010315,-0.991882,0.220855,0.508702,-0.176794,42,290,582,6160
1644182464.924414,-0.010376,0.010071,-0.996826,0.220855,0.371298,-0.085191,35,275,579,6160
1644182464.972813,-0.006592,0.012451,-0.993774,-0.02342,0.279695,-0.024122,49,282,584,6192
1644182465.021198,-0.01001,0.00885,-0.994385,0.220855,0.371298,0.006412,49,270,572,6240
1644182465.069721,-0.009949,0.008606,-0.992737,0.281924,0.447634,-0.024122,55,274,585,6224
1644182465.117922,-0.006775,0.009766,-0.990845,0.281924,0.401832,-0.054656,48,286,592,6112
1644182465.166335,-0.008606,0.012207,-0.993103,0.113985,0.417099,-0.130992,52,285,577,6192
1644182465.214739,-0.008362,0.007751,-0.990479,0.098718,0.523969,0.082748,46,286,590,6176
1644182465.263129,-0.007935,0.012146,-0.990479,0.281924,0.600305,-0.069924,49,282,579,6128
1644182465.311484,-0.006531,0.008545,-0.992249,0.236122,0.569771,0.006412,62,283,587,6160
1644182465.359899,-0.010559,0.01239,-0.992126,0.236122,0.386565,-0.024122,49,273,596,6192
1644182465.408302,-0.009277,0.007996,-0.991333,0.251389,0.386565,-0.130992,54,285,589,6240
1644182465.456693,-0.007385,0.009521,-0.992004,0.190321,0.478168,-0.222595,48,276,578,6160
1644182465.505212,-0.009644,0.008728,-0.994995,0.251389,0.523969,-0.069924,55,271,585,6224
1644182465.553475,-0.008606,0.00824,-0.992432,0.098718,0.447634,-0.008855,48,274,580,6240
1644182465.601877,-0.009644,0.01062,-0.991394,0.297191,0.462901,-0.161527,51,283,585,6224
1644182465.650238,-0.01123,0.01001,-0.994507,0.175053,0.356031,-0.130992,43,281,585,6192
1644182465.698653,-0.010071,0.007263,-0.988892,0.281924,0.417099,0.113282,52,285,582,6224
1644182465.747013,-0.007874,0.012878,-0.991028,0.297191,0.386565,0.052214,55,283,580,6224
1644182465.797221,-0.010376,0.010559,-0.990417,0.144519,0.646107,-0.100458,48,276,573,6160
1644182465.846629,-0.006714,0.007385,-0.992065,0.220855,0.401832,0.052214,53,276,580,6176
1644182465.897121,-0.009521,0.006775,-0.990417,0.251389,0.356031,-0.100458,51,274,585,6192
1644182465.941632,-0.008972,0.011475,-0.992126,0.281924,0.462901,0.021679,51,281,578,6192
1644182466.037444,-0.008545,0.010864,-0.994995,0.113985,0.233893,-0.222595,43,269,583,6160
1644182466.086152,-0.010559,0.011353,-0.992493,0.113985,0.417099,-0.14626,41,274,585,6224
1644182466.134184,-0.011108,0.009766,-0.989136,0.266656,0.523969,0.036947,53,266,583,6192
1644182466.182596,-0.008301,0.007385,-0.992188,0.434595,0.417099,-0.207328,53,279,571,6192
1644182466.230969,-0.009277,0.009277,-0.993652,0.037649,0.478168,-0.130992,43,271,580,6224
1644182466.279352,-0.010071,0.009644,-0.991638,0.175053,0.432366,-0.130992,45,282,579,6160
1644182466.327736,-0.006714,0.009583,-0.993103,0.144519,0.279695,-0.298931,51,274,590,6176
1644182466.376161,-0.009033,0.011475,-0.990295,0.35826,0.508702,-0.222595,48,279,585,6080
1644182466.424593,-0.008545,0.009277,-0.992004,0.190321,0.386565,-0.161527,52,277,575,6176
1644182466.47293,-0.009644,0.008179,-0.991699,0.236122,0.325496,-0.069924,42,277,577,6176
1644182466.521336,-0.011047,0.010376,-0.992188,0.190321,0.432366,-0.130992,41,283,585,6192
1644182466.569722,-0.007385,0.009766,-0.989746,0.190321,0.340763,-0.161527,52,277,593,6192
1644182466.618109,-0.00708,0.009155,-0.99292,0.190321,0.523969,-0.069924,53,274,592,6128
1644182466.666506,-0.006531,0.008606,-0.993408,0.159786,0.264427,-0.130992,52,265,586,6192
1644182466.714896,-0.010254,0.00769,-0.99054,0.175053,0.432366,-0.130992,45,277,582,6192
1644182466.76329,-0.009216,0.00824,-0.991272,0.190321,0.401832,0.036947,46,279,590,6128
1644182466.811726,-0.009094,0.011353,-0.989197,0.098718,0.432366,-0.130992,48,281,590,6176
1644182466.86036,-0.009399,0.008423,-0.991638,0.144519,0.401832,-0.054656,40,277,593,6192
1644182466.908506,-0.007751,0.007874,-0.992004,0.144519,0.462901,-0.069924,55,274,583,6240
1644182466.95865,-0.007874,0.01062,-0.993408,0.159786,0.447634,-0.130992,42,285,586,6176
1644182467.067594,-0.006653,0.011047,-0.993286,0.08345,0.279695,-0.14626,64,277,586,6128
1644182467.102998,-0.009094,0.009521,-0.994141,0.175053,0.417099,-0.054656,46,274,580,6224
1644182467.150408,-0.005859,0.008667,-0.991821,0.190321,0.432366,0.021679,42,265,586,6160
1644182467.198838,-0.007263,0.009705,-0.992859,0.297191,0.478168,-0.085191,54,287,586,6224
1644182467.247196,-0.008972,0.010437,-0.993591,0.220855,0.340763,-0.14626,47,287,582,6224
