epoch,acc_x,acc_y,acc_z,rot_x,rot_y,rot_z,mag_x,mag_y,mag_z,temp
1644169800.016487,-0.009949,0.009094,-0.989746,0.312458,0.508702,-0.085191,57,268,570,5648
1644169800.066941,-0.012146,0.012207,-0.99231,0.251389,0.508702,0.036947,55,269,576,5648
1644169800.113278,-0.011414,0.004639,-0.995544,0.113985,0.371298,-0.161527,48,281,569,5648
1644169800.161623,-0.010559,0.007202,-0.992371,0.205588,0.264427,0.036947,46,279,569,5664
1644169800.210012,-0.011902,0.007324,-0.9953,0.129252,0.417099,-0.054656,51,269,569,5696
1644169800.258409,-0.006287,0.011475,-0.989807,0.175053,0.417099,-0.100458,49,280,577,5648
1644169800.306774,-0.012634,0.008057,-0.992798,0.190321,0.294962,-0.024122,51,266,578,5648
1644169800.35526,-0.010071,0.010742,-0.993958,0.297191,0.325496,-0.115725,51,269,566,5664
1644169800.403586,-0.009216,0.007812,-0.994324,0.342992,0.356031,-0.069924,45,273,575,5712
1644169800.451955,-0.011353,0.011597,-0.993652,0.175053,0.493435,-0.176794,46,269,578,5664
1644169800.500365,-0.010071,0.00946,-0.989319,0.281924,0.523969,-0.268397,53,271,580,5648
1644169800.548746,-0.008789,0.010193,-0.990723,0.281924,0.356031,-0.25313,55,266,573,5648
1644169800.597141,-0.012268,0.00824,-0.992554,0.373527,0.417099,-0.100458,49,275,575,5696
1644169800.645531,-0.010315,0.009644,-0.992615,0.236122,0.508702,0.098015,57,273,584,5664
1644169800.69392,-0.011169,0.008301,-0.99054,0.190321,0.325496,-0.14626,45,273,582,5664
1644169800.742308,-0.010437,0.007996,-0.990417,0.190321,0.432366,-0.130992,53,279,571,5696
1644169800.791109,-0.01001,0.008972,-0.992981,0.251389,0.401832,-0.115725,62,279,580,5664
1644169800.841716,-0.014038,0.011841,-0.994568,0.281924,0.508702,-0.130992,48,274,569,5712
1644169800.892689,-0.012756,0.010437,-0.993958,0.129252,0.294962,-0.069924,54,273,577,5648
1644169800.937533,-0.010071,0.010437,-0.990662,0.236122,0.386565,-0.039389,49,275,582,5712
1644169801.0327,-0.010925,0.007446,-0.991882,0.220855,0.417099,-0.192061,51,274,573,5664
1644169801.082744,-0.010376,0.011414,-0.991943,0.281924,0.371298,-0.085191,49,270,586,5696
1644169801.129461,-0.009399,0.008606,-0.996521,0.35826,0.447634,-0.130992,42,273,577,5696
1644169801.177818,-0.010864,0.009155,-0.993469,0.266656,0.523969,-0.161527,57,268,582,5648
1644169801.226218,-0.006958,0.006775,-0.99115,0.205588,0.508702,-0.192061,55,276,576,5728
1644169801.274665,-0.012146,0.007812,-0.98999,0.175053,0.401832,-0.161527,59,280,575,5696
1644169801.323015,-0.012878,0.009521,-0.994995,0.297191,0.279695,-0.069924,59,273,577,5648
1644169801.371365,-0.01001,0.010742,-0.992065,0.266656,0.340763,-0.237863,43,266,580,5584
1644169801.419778,-0.007507,0.01001,-0.990662,0.159786,0.325496,-0.130992,59,273,584,5712
1644169801.468176,-0.010742,0.008972,-0.992249,0.190321,0.432366,-0.085191,47,265,570,5696
1644169801.516555,-0.01001,0.008911,-0.98938,0.281924,0.493435,-0.130992,57,270,582,5696
1644169801.565093,-0.012756,0.009521,-0.994141,0.144519,0.356031,-0.237863,48,262,580,5648
1644169801.613338,-0.009155,0.010864,-0.991516,0.175053,0.371298,-0.100458,53,271,576,5648
1644169801.661739,-0.009766,0.009583,-0.993652,0.236122,0.493435,-0.222595,43,274,587,5664
1644169801.710122,-0.015503,0.00885,-0.993103,0.144519,0.539237,-0.130992,53,266,580,5696
1644169801.758517,-0.010193,0.008301,-0.992432,0.266656,0.539237,-0.085191,51,281,578,5696
1644169801.80691,-0.00946,0.010559,-0.993103,0.251389,0.325496,-0.085191,43,269,578,5664
1644169801.855845,-0.011658,0.008972,-0.994324,0.342992,0.523969,-0.024122,47,275,577,5712
1644169801.906465,-0.011536,0.007996,-0.993286,0.205588,0.340763,-0.130992,46,274,576,5664
1644169801.956719,-0.011719,0.007507,-0.991577,0.236122,0.432366,-0.069924,47,275,572,5664
1644169802.064948,-0.011108,0.00824,-0.992859,0.327725,0.233893,-0.176794,53,271,587,5648
1644169802.09902,-0.010986,0.010376,-0.994324,0.312458,0.340763,0.036947,45,280,577,5584
1644169802.145648,-0.011108,0.008118,-0.992432,0.312458,0.356031,-0.207328,46,279,576,5632
1644169802.194043,-0.011536,0.00824,-0.992798,0.113985,0.310229,-0.100458,54,277,572,5648
1644169802.242427,-0.009033,0.009399,-0.992371,0.220855,0.386565,-0.085191,55,283,583,5632
1644169802.290808,-0.011414,0.009766,-0.99292,0.266656,0.493435,0.006412,45,273,589,5664
1644169802.339189,-0.012573,0.009521,-0.995178,0.236122,0.356031,0.006412,47,277,570,5648
1644169802.387589,-0.010803,0.007446,-0.988464,0.236122,0.356031,-0.054656,59,277,572,5664
1644169802.435993,-0.00824,0.00824,-0.992798,0.144519,0.24916,-0.024122,49,275,575,5664
1644169802.484366,-0.008057,0.010376,-0.993958,0.281924,0.569771,-0.085191,55,271,592,5696
1644169802.533049,-0.010742,0.006287,-0.993225,0.266656,0.340763,0.113282,54,275,586,5696
1644169802.581775,-0.012573,0.010193,-0.99292,0.281924,0.493435,-0.161527,54,275,579,5648
1644169802.632437,-0.011841,0.008301,-0.992493,0.159786,0.585038,-0.222595,46,269,576,5664
1644169802.682575,-0.009888,0.008789,-0.993835,0.266656,0.417099,-0.192061,49,270,570,5728
1644169802.72781,-0.009766,0.010315,-0.988281,0.251389,0.401832,0.036947,41,271,578,5600
1644169802.823114,-0.009644,0.010986,-0.991882,0.251389,0.417099,-0.192061,45,280,568,5632
1644169802.87151,-0.010437,0.00708,-0.994751,0.175053,0.478168,-0.008855,40,273,575,5648
1644169802.919895,-0.012817,0.007996,-0.991882,0.236122,0.279695,-0.085191,54,268,575,5696
1644169802.968282,-0.011719,0.009033,-0.992432,0.327725,0.401832,-0.024122,42,285,572,5696
1644169803.016711,-0.011108,0.011536,-0.993225,0.297191,0.539237,0.021679,45,277,579,5712
1644169803.066387,-0.012817,0.008911,-0.993652,0.220855,0.539237,-0.176794,49,273,582,5648
1644169803.113562,-0.013489,0.008728,-0.992126,0.281924,0.447634,-0.069924,45,260,584,5712
1644169803.161848,-0.012024,0.010864,-0.992615,0.098718,0.356031,-0.085191,48,281,571,5664
1644169803.210234,-0.012146,0.008606,-0.996643,0.113985,0.371298,-0.130992,49,280,572,5664
1644169803.258601,-0.009827,0.009094,-0.989685,0.175053,0.478168,-0.222595,52,270,570,5696
1644169803.306979,-0.010864,0.009277,-0.990234,0.159786,0.386565,-0.024122,52,277,570,5696
1644169803.355391,-0.009155,0.009094,-0.994019,0.220855,0.523969,-0.237863,49,270,575,5760
1644169803.403792,-0.011108,0.008423,-0.992493,0.266656,0.310229,-0.130992,58,279,573,5648
1644169803.452231,-0.008606,0.006226,-0.990784,0.220855,0.493435,-0.085191,48,264,573,5776
1644169803.500577,-0.010986,0.009949,-0.990662,0.434595,0.447634,-0.085191,48,279,571,5696
1644169803.548957,-0.010132,0.01001,-0.992065,0.236122,0.310229,-0.207328,47,270,568,5648
1644169803.597315,-0.011658,0.011902,-0.991577,0.35826,0.188092,-0.100458,39,281,564,5632
1644169803.645743,-0.011292,0.008301,-0.992737,0.159786,0.279695,-0.054656,47,273,575,5600
1644169803.694132,-0.00946,0.009094,-0.992554,0.220855,0.401832,-0.161527,51,264,583,5664
1644169803.742952,-0.009521,0.010803,-0.989014,0.251389,0.417099,-0.039389,47,273,570,5648
1644169803.79314,-0.011292,0.012268,-0.99176,0.266656,0.508702,0.082748,54,277,575,5584
1644169803.843433,-0.009644,0.011719,-0.992737,0.251389,0.386565,0.006412,48,276,573,5648
1644169803.889351,-0.009766,0.008911,-0.991516,0.113985,0.340763,-0.054656,58,271,578,5664
1644169803.984536,-0.009583,0.008789,-0.989746,0.129252,0.569771,-0.314198,55,276,573,5648
1644169804.032928,-0.013245,0.01001,-0.991211,0.175053,0.447634,-0.115725,48,269,569,5664
1644169804.081399,-0.009888,0.010193,-0.991211,0.266656,0.462901,0.021679,49,275,579,5696
1644169804.129658,-0.010315,0.00946,-0.990723,0.144519,0.401832,-0.115725,54,285,577,5712
1644169804.17804,-0.008545,0.012573,-0.992065,0.220855,0.218626,0.006412,48,281,576,5728
1644169804.226427,-0.010071,0.010559,-0.991028,0.251389,0.478168,-0.176794,54,277,575,5632
1644169804.274801,-0.00946,0.010559,-0.991211,0.113985,0.401832,-0.161527,46,271,566,5648
1644169804.324058,-0.009644,0.010925,-0.99176,0.419328,0.386565,-0.130992,53,264,573,5648
1644169804.371594,-0.010498,0.00824,-0.99292,0.251389,0.432366,-0.085191,51,279,573,5696
1644169804.420001,-0.009766,0.009644,-0.99469,0.342992,0.447634,-0.207328,43,279,571,5664
1644169804.468379,-0.011536,0.01001,-0.992432,0.297191,0.386565,-0.130992,51,274,578,5696
1644169804.516751,-0.009338,0.013489,-0.991272,0.236122,0.523969,-0.192061,41,283,578,5632
1644169804.565248,-0.011719,0.009216,-0.990662,0.266656,0.203359,-0.008855,58,266,573,5648
1644169804.613566,-0.013367,0.007935,-0.991333,0.190321,0.539237,-0.161527,54,268,575,5648
1644169804.661952,-0.008789,0.009094,-0.99176,0.297191,0.462901,-0.100458,45,275,579,5600
1644169804.710332,-0.007874,0.00708,-0.990906,0.281924,0.462901,-0.161527,57,275,577,5696
1644169804.758694,-0.007507,0.010376,-0.994446,0.251389,0.432366,-0.161527,57,270,577,5664
1644169804.807486,-0.011658,0.009644,-0.990967,0.129252,0.432366,-0.008855,49,273,570,5664
1644169804.855541,-0.008728,0.009949,-0.992432,0.08345,0.325496,-0.176794,58,269,573,5696
1644169804.905174,-0.011597,0.006958,-0.992249,0.190321,0.523969,-0.085191,58,264,573,5728
1644169804.955375,-0.007629,0.010254,-0.992065,0.251389,0.478168,-0.069924,46,271,583,5664
1644169805.059688,-0.01062,0.010986,-0.991699,0.190321,0.432366,-0.176794,58,266,569,5712
1644169805.099552,-0.011963,0.009827,-0.990906,0.144519,0.432366,-0.039389,58,276,571,5664
1644169805.145845,-0.010376,0.012146,-0.992493,0.205588,0.325496,-0.100458,51,279,562,5648
1644169805.194974,-0.012512,0.00824,-0.993225,0.388794,0.447634,0.143817,57,280,582,5696
1644169805.24264,-0.00946,0.009949,-0.990112,0.220855,0.447634,-0.054656,51,264,569,5648
1644169805.291028,-0.012634,0.007446,-0.993896,0.35826,0.386565,-0.314198,48,283,571,5664
1644169805.339406,-0.013611,0.010742,-0.993652,0.205588,0.401832,-0.069924,53,271,571,5648
1644169805.387816,-0.008423,0.010986,-0.992188,0.144519,0.325496,-0.14626,57,268,570,5664
1644169805.436193,-0.012817,0.012695,-0.99115,0.312458,0.386565,-0.298931,59,275,568,5728
1644169805.484627,-0.00946,0.010498,-0.99176,0.312458,0.432366,-0.130992,52,268,579,5648
1644169805.532992,-0.009888,0.00824,-0.99231,0.449863,0.386565,-0.039389,53,264,578,5648
1644169805.581365,-0.010681,0.008972,-0.990601,0.236122,0.462901,-0.054656,48,266,580,5728
1644169805.629755,-0.008484,0.012207,-0.990723,0.251389,0.356031,-0.130992,42,282,568,5664
1644169805.678329,-0.006287,0.008301,-0.990479,0.327725,0.356031,-0.008855,47,265,584,5648
1644169805.727219,-0.010864,0.009033,-0.991577,0.251389,0.508702,-0.130992,52,268,563,5648
1644169805.778178,-0.008484,0.009216,-0.98999,0.190321,0.386565,0.098015,59,275,575,5696
1644169805.828421,-0.009949,0.010376,-0.993591,0.220855,0.508702,-0.375267,47,273,572,5664
1644169805.873377,-0.010193,0.009644,-0.991089,0.281924,0.447634,-0.115725,53,274,573,5664
1644169805.968534,-0.011475,0.006165,-0.991699,0.190321,0.371298,-0.298931,60,274,583,5664
1644169806.016917,-0.009583,0.008545,-0.992432,0.129252,0.371298,-0.039389,46,271,573,5664
1644169806.06712,-0.010742,0.005493,-0.993713,0.281924,0.462901,-0.008855,49,268,575,5696
1644169806.113696,-0.010681,0.008606,-0.992493,0.175053,0.447634,-0.008855,55,279,578,5696
1644169806.162049,-0.009277,0.009521,-0.989319,0.236122,0.24916,-0.192061,48,271,580,5632
1644169806.210417,-0.009644,0.010376,-0.988464,0.205588,0.493435,-0.069924,52,273,582,5696
1644169806.258808,-0.011353,0.007751,-0.992859,0.220855,0.447634,-0.115725,54,273,572,5712
1644169806.307217,-0.010986,0.007812,-0.991699,0.129252,0.340763,-0.176794,41,281,578,5648
1644169806.355613,-0.010376,0.00946,-0.991394,0.266656,0.447634,-0.14626,47,265,572,5664
1644169806.40402,-0.009094,0.009338,-0.990845,0.205588,0.585038,-0.085191,46,276,578,5648
1644169806.45241,-0.008484,0.007751,-0.989807,0.205588,0.279695,-0.176794,49,280,565,5648
1644169806.500804,-0.011414,0.006104,-0.99292,0.175053,0.310229,-0.100458,49,265,575,5696
1644169806.549183,-0.008118,0.011292,-0.993225,0.236122,0.462901,-0.039389,53,281,566,5648
1644169806.597574,-0.010498,0.010254,-0.992859,0.190321,0.386565,-0.024122,46,269,578,5696
1644169806.64596,-0.012024,0.008423,-0.993469,0.404061,0.462901,-0.024122,52,270,577,5664
1644169806.69435,-0.008362,0.008423,-0.992432,0.236122,0.340763,-0.161527,47,268,596,5648
1644169806.742753,-0.009399,0.011597,-0.991211,0.297191,0.371298,-0.130992,54,277,582,5648
1644169806.79112,-0.010254,0.012939,-0.992249,0.297191,0.310229,-0.100458,39,271,585,5664
1644169806.839566,-0.011902,0.008179,-0.99231,0.312458,0.432366,-0.207328,52,265,572,5664
1644169806.889028,-0.011292,0.006287,-0.993286,0.144519,0.523969,-0.008855,53,274,583,5696
1644169806.939261,-0.011963,0.010376,-0.993164,0.144519,0.294962,-0.14626,49,275,575,5696
1644169806.989731,-0.010803,0.008911,-0.992249,0.220855,0.401832,-0.115725,59,275,589,5664
1644169807.03413,-0.009277,0.00885,-0.99054,0.129252,0.340763,-0.161527,52,277,572,5648
1644169807.129897,-0.012024,0.010315,-0.991943,0.220855,0.478168,-0.268397,51,271,578,5696
1644169807.178239,-0.012024,0.011047,-0.989868,0.220855,0.508702,-0.130992,42,282,575,5664
1644169807.226624,-0.00946,0.008911,-0.993286,0.220855,0.279695,0.006412,49,277,572,5664
1644169807.275049,-0.012695,0.009644,-0.99231,0.281924,0.340763,-0.085191,60,276,580,5664
1644169807.323441,-0.011292,0.012329,-0.994934,0.266656,0.310229,-0.024122,42,280,577,5728
1644169807.371823,-0.010193,0.006653,-0.992249,0.342992,0.325496,-0.085191,40,277,579,5600
1644169807.420215,-0.012512,0.010376,-0.988342,0.236122,0.264427,-0.024122,48,281,573,5584
1644169807.468596,-0.012512,0.009766,-0.991089,0.068183,0.218626,-0.130992,36,269,578,5600
1644169807.516997,-0.014038,0.009827,-0.992432,0.236122,0.447634,0.021679,59,270,575,5600
1644169807.565382,-0.011169,0.00946,-0.993591,0.205588,0.432366,-0.115725,55,279,573,5664
1644169807.613792,-0.012329,0.011536,-0.992004,0.266656,0.310229,-0.176794,48,271,576,5664
1644169807.662235,-0.009033,0.010437,-0.991943,0.297191,0.401832,-0.069924,62,276,576,5664
1644169807.710555,-0.010742,0.007202,-0.991028,0.175053,0.417099,-0.14626,43,274,580,5648
1644169807.7589,-0.012085,0.00708,-0.990051,0.281924,0.356031,-0.115725,53,269,587,5664
1644169807.807344,-0.009705,0.009399,-0.990784,0.297191,0.447634,-0.130992,43,274,585,5648
1644169807.855763,-0.009094,0.010132,-0.992065,0.373527,0.523969,-0.115725,61,270,584,5664
1644169807.904168,-0.010498,0.008667,-0.989014,0.388794,0.325496,-0.024122,51,266,578,5696
1644169807.952927,-0.010864,0.009644,-0.994202,0.297191,0.417099,-0.024122,53,269,576,5696
1644169808.000932,-0.013,0.008789,-0.991394,0.205588,0.523969,-0.161527,58,276,566,5696
1644169808.070596,-0.010437,0.008606,-0.992676,0.205588,0.417099,-0.100458,53,264,587,5696
1644169808.105406,-0.009583,0.011169,-0.993042,0.190321,0.523969,-0.039389,57,282,577,5712
1644169808.147138,-0.01062,0.010681,-0.991028,0.388794,0.478168,-0.100458,46,274,573,5648
1644169808.242848,-0.008606,0.012085,-0.991333,0.342992,0.310229,-0.100458,46,274,571,5664
1644169808.291215,-0.009155,0.007507,-0.99231,0.297191,0.356031,-0.100458,54,280,570,5664
1644169808.339629,-0.008362,0.007935,-0.991272,0.159786,0.371298,-0.024122,55,266,571,5696
1644169808.388047,-0.005981,0.009766,-0.992371,0.297191,0.325496,0.036947,45,270,577,5696
1644169808.436389,-0.012634,0.014038,-0.990601,0.205588,0.478168,-0.024122,53,274,571,5600
1644169808.484805,-0.011658,0.007935,-0.991699,0.312458,0.325496,-0.298931,47,277,570,5648
1644169808.533189,-0.013794,0.009827,-0.990662,0.266656,0.462901,-0.14626,47,275,572,5648
1644169808.581592,-0.010437,0.008667,-0.992798,0.373527,0.417099,0.006412,49,273,570,5648
1644169808.629987,-0.01001,0.007019,-0.993286,0.327725,0.279695,-0.161527,49,265,577,5600
1644169808.678359,-0.007935,0.008545,-0.991943,0.205588,0.386565,-0.176794,45,273,575,5648
1644169808.726748,-0.009583,0.013,-0.992981,0.113985,0.462901,-0.100458,53,269,573,5664
1644169808.775244,-0.007812,0.009155,-0.98999,0.129252,0.462901,-0.100458,47,273,575,5696
1644169808.823553,-0.011658,0.011841,-0.991882,0.251389,0.340763,-0.085191,49,277,577,5664
1644169808.871975,-0.009949,0.01178,-0.991089,0.373527,0.462901,-0.100458,49,277,575,5648
1644169808.920358,-0.008179,0.010742,-0.991394,0.327725,0.478168,-0.130992,49,277,572,5664
1644169808.968758,-0.010864,0.010742,-0.990723,0.159786,0.539237,-0.069924,47,270,584,5696
1644169809.017143,-0.010986,0.01001,-0.991821,0.297191,0.417099,-0.085191,57,265,572,5760
1644169809.094371,-0.011963,0.01123,-0.991455,0.007115,0.310229,-0.054656,49,277,582,5712
1644169809.114769,-0.011597,0.010559,-0.991943,0.236122,0.478168,-0.008855,49,277,579,5648
1644169809.210647,-0.011963,0.009033,-0.99292,0.327725,0.356031,-0.085191,39,274,580,5664
1644169809.259032,-0.010376,0.00885,-0.990662,0.022382,0.371298,-0.161527,43,266,578,5696
1644169809.307436,-0.008423,0.011841,-0.991943,0.205588,0.493435,-0.130992,41,279,583,5696
1644169809.355801,-0.008545,0.010315,-0.991821,0.327725,0.401832,-0.130992,48,276,576,5648
1644169809.404224,-0.007874,0.011108,-0.992249,0.342992,0.478168,-0.130992,46,271,573,5664
1644169809.452602,-0.008057,0.010498,-0.992676,0.175053,0.554504,0.036947,52,277,572,5600
1644169809.500978,-0.013855,0.01001,-0.991394,0.35826,0.417099,-0.207328,46,269,573,5728
1644169809.549397,-0.008484,0.011108,-0.990906,0.175053,0.432366,-0.100458,55,266,585,5696
1644169809.597784,-0.009705,0.008667,-0.991882,0.266656,0.24916,-0.054656,39,279,566,5648
1644169809.646171,-0.011902,0.01062,-0.993164,0.113985,0.447634,-0.115725,38,275,577,5696
1644169809.694666,-0.010132,0.01239,-0.992249,0.190321,0.325496,-0.039389,52,277,568,5696
1644169809.742967,-0.009949,0.011902,-0.989868,0.251389,0.401832,-0.14626,51,279,564,5648
1644169809.791344,-0.00885,0.010803,-0.990173,0.129252,0.493435,-0.130992,52,268,577,5696
1644169809.839703,-0.007751,0.009399,-0.991089,0.113985,0.386565,0.113282,52,265,579,5648
1644169809.888169,-0.008423,0.012085,-0.99231,0.113985,0.310229,-0.054656,53,271,590,5648
1644169809.936563,-0.010742,0.010132,-0.993713,0.297191,0.371298,-0.008855,52,268,577,5648
1644169809.984924,-0.013916,0.012085,-0.992126,0.327725,0.264427,-0.176794,49,255,572,5696
1644169810.033336,-0.010132,0.010742,-0.992554,0.220855,0.356031,-0.054656,59,265,575,5696
1644169810.083035,-0.008606,0.007629,-0.989929,0.220855,0.310229,-0.130992,51,266,573,5584
1644169810.131137,-0.010559,0.01062,-0.993652,0.220855,0.523969,-0.130992,38,270,577,5648
1644169810.181649,-0.012207,0.00824,-0.993042,0.220855,0.325496,-0.237863,51,271,580,5648
1644169810.232264,-0.011475,0.009827,-0.992615,0.312458,0.600305,-0.192061,42,258,572,5712
1644169810.276378,-0.006836,0.010681,-0.991638,0.190321,0.218626,-0.25313,54,277,584,5696
1644169810.372064,-0.012146,0.011292,-0.994873,0.175053,0.493435,-0.085191,49,275,568,5648
1644169810.420437,-0.012939,0.011169,-0.992004,0.266656,0.371298,-0.176794,47,273,575,5664
1644169810.468851,-0.010193,0.006897,-0.991394,0.159786,0.417099,0.036947,52,268,579,5632
1644169810.517237,-0.00885,0.008972,-0.990784,0.190321,0.340763,-0.130992,45,275,577,5664
1644169810.565617,-0.010803,0.008301,-0.992676,0.113985,0.386565,0.006412,47,265,568,5712
1644169810.614027,-0.011597,0.009216,-0.995239,0.159786,0.356031,-0.237863,59,275,582,5648
1644169810.662429,-0.011414,0.009827,-0.991882,0.312458,0.462901,-0.024122,54,273,577,5664
1644169810.71081,-0.010315,0.007935,-0.993469,0.297191,0.356031,-0.100458,57,270,575,5648
1644169810.759198,-0.009033,0.012268,-0.990479,0.342992,0.478168,-0.039389,55,276,573,5648
1644169810.807595,-0.01239,0.010071,-0.990417,0.220855,0.401832,-0.176794,47,265,575,5648
1644169810.855984,-0.01001,0.010925,-0.991028,0.08345,0.462901,-0.054656,57,280,568,5696
1644169810.90438,-0.010559,0.009033,-0.994568,0.052916,0.310229,-0.069924,55,286,566,5648
1644169810.952772,-0.012512,0.008484,-0.993408,0.327725,0.447634,-0.054656,48,271,571,5664
1644169811.001154,-0.011597,0.008057,-0.992676,0.220855,0.401832,-0.008855,49,268,579,5648
1644169811.062831,-0.010132,0.01123,-0.992981,0.419328,0.478168,-0.100458,59,277,575,5760
1644169811.099144,-0.014221,0.00946,-0.992065,0.113985,0.462901,-0.161527,48,266,576,5648
1644169811.146276,-0.011292,0.00708,-0.991577,0.190321,0.401832,-0.130992,49,280,582,5664
1644169811.194686,-0.008301,0.008728,-0.992493,0.312458,0.508702,-0.054656,38,268,579,5664
1644169811.243223,-0.010925,0.006897,-0.991577,0.342992,0.478168,-0.115725,48,264,573,5664
1644169811.293285,-0.006958,0.010132,-0.989441,0.129252,0.478168,-0.130992,43,274,580,5648
1644169811.343613,-0.008667,0.00769,-0.990967,0.281924,0.401832,-0.085191,42,265,575,5664
1644169811.388613,-0.011414,0.01001,-0.992615,0.205588,0.523969,0.006412,52,270,579,5664
1644169811.485262,-0.008789,0.007812,-0.991089,0.297191,0.493435,-0.100458,51,281,571,5696
1644169811.533423,-0.010803,0.011292,-0.990112,0.236122,0.340763,-0.100458,51,269,569,5664
1644169811.581784,-0.011597,0.008789,-0.99115,0.312458,0.432366,-0.207328,49,282,561,5648
1644169811.630185,-0.010498,0.007996,-0.992737,0.190321,0.539237,-0.14626,52,270,575,5664
1644169811.678572,-0.011047,0.010986,-0.991577,0.266656,0.478168,-0.115725,43,279,576,5696
1644169811.726967,-0.010742,0.011902,-0.98999,0.342992,0.371298,-0.14626,48,266,585,5664
1644169811.775354,-0.009949,0.007751,-0.99176,0.297191,0.447634,-0.161527,46,264,576,5584
1644169811.823803,-0.010254,0.009766,-0.993958,0.297191,0.447634,-0.085191,45,270,579,5696
1644169811.87228,-0.011841,0.009155,-0.991394,0.419328,0.478168,-0.115725,42,270,575,5696
1644169811.920573,-0.010315,0.01001,-0.996094,0.327725,0.356031,-0.130992,51,276,573,5712
1644169811.968966,-0.01123,0.006592,-0.991394,0.205588,0.325496,-0.054656,42,265,577,5664
1644169812.01735,-0.011841,0.008911,-0.991638,0.129252,0.340763,-0.237863,54,280,575,5712
1644169812.071719,-0.008667,0.009583,-0.994141,0.175053,0.462901,-0.054656,47,275,575,5648
1644169812.114115,-0.012146,0.010376,-0.994446,0.037649,0.325496,-0.100458,60,281,576,5664
1644169812.162495,-0.010681,0.01062,-0.992676,0.297191,0.447634,-0.25313,53,271,578,5760
1644169812.210874,-0.010559,0.009583,-0.991516,0.190321,0.310229,-0.14626,35,265,582,5664
1644169812.259239,-0.011169,0.010193,-0.995483,0.190321,0.386565,-0.192061,65,281,585,5696
1644169812.307659,-0.00824,0.01001,-0.98938,0.129252,0.432366,-0.069924,43,274,592,5648
1644169812.356085,-0.008606,0.010986,-0.991699,0.129252,0.371298,-0.024122,58,274,578,5696
1644169812.404476,-0.008972,0.009949,-0.991821,0.236122,0.417099,-0.024122,49,273,577,5600
1644169812.4549,-0.010132,0.007568,-0.992371,0.281924,0.417099,-0.100458,46,281,571,5696
1644169812.505294,-0.007751,0.006226,-0.992371,0.236122,0.356031,-0.115725,51,276,578,5664
1644169812.550267,-0.011353,0.010376,-0.994141,0.236122,0.340763,-0.069924,49,275,579,5664
1644169812.646374,-0.009766,0.011963,-0.992249,0.220855,0.340763,-0.039389,49,277,572,5664
1644169812.694851,-0.009705,0.012024,-0.992615,0.297191,0.371298,-0.039389,51,281,569,5728
1644169812.743176,-0.012756,0.009827,-0.990356,0.175053,0.417099,-0.283664,54,273,577,5648
1644169812.791553,-0.008301,0.009399,-0.989197,0.251389,0.554504,-0.100458,45,275,579,5664
1644169812.839994,-0.01062,0.006592,-0.992798,0.327725,0.462901,-0.100458,47,263,582,5664
1644169812.888381,-0.008667,0.010559,-0.992737,0.236122,0.478168,-0.100458,51,269,564,5712
1644169812.936765,-0.011658,0.008423,-0.99292,0.251389,0.325496,-0.054656,39,279,571,5648
1644169812.985259,-0.009216,0.010193,-0.991638,0.205588,0.310229,-0.14626,46,269,576,5664
1644169813.033533,-0.010254,0.008545,-0.993958,0.098718,0.356031,-0.222595,41,269,573,5696
1644169813.090485,-0.013672,0.00885,-0.989502,0.205588,0.523969,-0.14626,49,282,582,5648
1644169813.130291,-0.007507,0.01001,-0.992065,0.220855,0.508702,-0.100458,53,276,562,5648
1644169813.17868,-0.011719,0.01239,-0.993103,0.129252,0.417099,-0.161527,55,281,580,5696
1644169813.22708,-0.011108,0.008606,-0.99176,0.113985,0.371298,-0.100458,64,280,586,5648
1644169813.275445,-0.009216,0.008972,-0.992676,0.190321,0.401832,-0.161527,57,275,582,5664
1644169813.323857,-0.010254,0.008057,-0.992493,0.144519,0.447634,-0.008855,54,273,577,5600
1644169813.372262,-0.012024,0.008484,-0.99176,0.144519,0.462901,-0.237863,54,265,582,5632
1644169813.420844,-0.011475,0.008484,-0.991821,0.159786,0.417099,-0.054656,52,265,570,5696
1644169813.471349,-0.013489,0.008423,-0.99408,0.404061,0.340763,-0.192061,47,277,572,5696
1644169813.52334,-0.012146,0.009766,-0.992065,0.220855,0.417099,-0.039389,48,271,576,5648
1644169813.566836,-0.012146,0.008972,-0.991821,0.236122,0.478168,-0.36,60,264,573,5600
1644169813.662609,-0.009277,0.008545,-0.989319,0.297191,0.356031,-0.008855,54,275,577,5696
1644169813.710972,-0.009827,0.00946,-0.99176,0.220855,0.417099,-0.176794,45,270,572,5776
1644169813.759353,-0.010681,0.010742,-0.988647,0.236122,0.371298,-0.039389,45,280,582,5648
1644169813.807754,-0.01178,0.007263,-0.98999,0.08345,0.508702,-0.14626,42,275,575,5632
1644169813.856196,-0.010193,0.007263,-0.992432,0.312458,0.447634,-0.207328,52,277,572,5696
1644169813.904638,-0.011719,0.009155,-0.99292,0.190321,0.386565,-0.130992,51,269,573,5648
1644169813.953019,-0.009277,0.009094,-0.993286,0.251389,0.371298,-0.14626,41,264,576,5664
1644169814.001325,-0.012634,0.008728,-0.990967,0.175053,0.325496,-0.161527,47,277,575,5648
1644169814.060645,-0.010742,0.009094,-0.990967,0.373527,0.401832,-0.130992,64,270,579,5696
1644169814.100963,-0.010437,0.007629,-0.993164,0.220855,0.417099,-0.161527,48,271,580,5648
1644169814.146514,-0.011108,0.009033,-0.993713,0.266656,0.340763,-0.161527,54,268,584,5648
1644169814.19488,-0.011047,0.010803,-0.991455,0.312458,0.340763,-0.039389,55,276,578,5712
1644169814.243284,-0.01239,0.009399,-0.990601,0.327725,0.508702,-0.069924,49,273,568,5696
1644169814.29167,-0.012817,0.008667,-0.994385,0.205588,0.401832,-0.161527,59,285,565,5696
1644169814.340061,-0.011353,0.008972,-0.991577,0.144519,0.340763,-0.024122,51,266,569,5632
1644169814.388472,-0.013123,0.009094,-0.989685,0.190321,0.462901,-0.069924,47,280,565,5696
1644169814.436838,-0.012146,0.008728,-0.991577,0.159786,0.462901,-0.115725,49,277,575,5664
1644169814.485215,-0.010254,0.010132,-0.98999,0.159786,0.279695,-0.069924,48,266,580,5696
1644169814.533695,-0.013489,0.011108,-0.992065,0.236122,0.371298,-0.130992,48,269,573,5648
1644169814.583016,-0.010254,0.011963,-0.989258,0.342992,0.340763,-0.192061,47,270,582,5648
1644169814.633495,-0.010742,0.010071,-0.992432,0.35826,0.325496,-0.268397,43,279,578,5712
1644169814.683779,-0.009399,0.010498,-0.990479,0.281924,0.325496,-0.085191,47,263,572,5584
1644169814.775612,-0.01062,0.009888,-0.989868,0.159786,0.386565,-0.207328,45,270,570,5648
1644169814.823956,-0.013733,0.010376,-0.99176,0.297191,0.478168,-0.069924,53,286,569,5664
1644169814.872426,-0.010681,0.011108,-0.991516,0.281924,0.340763,-0.085191,55,281,578,5712
1644169814.920771,-0.01123,0.007263,-0.990479,0.236122,0.569771,-0.069924,42,270,570,5696
1644169814.96917,-0.010315,0.008423,-0.992798,0.266656,0.447634,-0.14626,43,269,569,5696
1644169815.017557,-0.011963,0.009827,-0.992004,0.144519,0.340763,-0.115725,52,273,579,5712
1644169815.067524,-0.009399,0.007202,-0.992188,0.373527,0.371298,-0.130992,58,276,573,5696
1644169815.114374,-0.011292,0.011536,-0.991577,0.144519,0.432366,-0.192061,52,277,579,5648
1644169815.162715,-0.010742,0.009644,-0.992737,0.144519,0.401832,0.052214,46,279,578,5696
1644169815.211356,-0.010437,0.01123,-0.994141,0.190321,0.417099,-0.192061,46,276,569,5696
1644169815.259491,-0.01062,0.007996,-0.991943,0.312458,0.340763,-0.069924,53,269,573,5648
1644169815.307853,-0.013672,0.007019,-0.991028,0.342992,0.310229,-0.176794,47,282,575,5712
1644169815.356267,-0.007324,0.010437,-0.991089,0.266656,0.310229,-0.039389,48,276,580,5648
1644169815.404719,-0.010437,0.011963,-0.99176,0.175053,0.417099,-0.085191,42,270,579,5696
1644169815.453026,-0.011719,0.00824,-0.992493,0.159786,0.203359,-0.115725,52,270,570,5712
1644169815.501427,-0.005554,0.008667,-0.992065,0.266656,0.294962,-0.161527,57,270,582,5712
1644169815.549794,-0.010437,0.00885,-0.990967,0.373527,0.447634,0.021679,51,276,573,5664
1644169815.598214,-0.008972,0.010132,-0.992188,0.312458,0.340763,-0.100458,45,270,575,5712
1644169815.646581,-0.01001,0.010132,-0.990051,0.297191,0.356031,-0.039389,55,271,569,5648
1644169815.69562,-0.009766,0.011658,-0.991394,0.251389,0.371298,-0.192061,54,275,582,5648
1644169815.746679,-0.007751,0.006775,-0.990784,0.068183,0.371298,-0.008855,48,271,576,5728
1644169815.796437,-0.012451,0.007568,-0.993408,0.190321,0.417099,-0.192061,66,275,579,5648
1644169815.841302,-0.010498,0.008179,-0.99054,0.266656,0.386565,-0.130992,48,281,580,5664
1644169815.936992,-0.01062,0.00769,-0.99176,0.297191,0.279695,-0.054656,47,273,572,5696
1644169815.985444,-0.013306,0.008057,-0.993408,0.281924,0.508702,-0.085191,54,273,570,5696
1644169816.033781,-0.011719,0.007568,-0.993958,0.251389,0.325496,-0.039389,49,273,577,5648
1644169816.082323,-0.009399,0.011536,-0.99408,0.190321,0.310229,-0.14626,48,283,583,5632
1644169816.130565,-0.012695,0.009827,-0.988159,0.281924,0.417099,-0.115725,49,273,584,5648
1644169816.178888,-0.011414,0.010559,-0.992493,0.281924,0.340763,0.036947,49,270,572,5664
1644169816.227286,-0.009888,0.010071,-0.990784,0.205588,0.554504,-0.100458,49,260,575,5696
1644169816.27568,-0.010986,0.007874,-0.991028,0.205588,0.462901,-0.14626,51,281,578,5584
1644169816.324117,-0.010071,0.009094,-0.990784,0.312458,0.523969,-0.024122,52,275,565,5648
1644169816.372483,-0.009155,0.010254,-0.993225,0.312458,0.417099,-0.207328,43,271,576,5696
1644169816.420858,-0.010315,0.009155,-0.99469,0.419328,0.432366,-0.176794,49,270,572,5696
1644169816.469236,-0.009827,0.009827,-0.992126,0.113985,0.325496,-0.14626,46,271,578,5648
1644169816.517619,-0.009277,0.009033,-0.992676,0.08345,0.401832,-0.054656,52,277,582,5760
1644169816.566038,-0.008362,0.009766,-0.991455,0.236122,0.432366,-0.085191,49,275,572,5664
1644169816.614419,-0.012146,0.008362,-0.991699,0.129252,0.356031,-0.14626,52,277,570,5664
1644169816.662826,-0.007751,0.01062,-0.993042,0.373527,0.478168,-0.192061,65,271,583,5648
1644169816.7112,-0.011719,0.009216,-0.992798,0.373527,0.386565,0.113282,51,283,580,5728
1644169816.759579,-0.012512,0.010498,-0.992432,0.113985,0.462901,-0.176794,57,270,579,5648
1644169816.807982,-0.01001,0.012146,-0.99115,0.159786,0.356031,-0.161527,60,279,580,5696
1644169816.857446,-0.013184,0.007874,-0.993469,0.236122,0.371298,-0.161527,58,276,576,5648
1644169816.9085,-0.011536,0.009705,-0.992188,0.266656,0.340763,-0.085191,51,276,571,5648
1644169816.958155,-0.011169,0.009277,-0.99292,0.266656,0.356031,-0.237863,52,275,565,5728
1644169817.059295,-0.010864,0.011169,-0.993713,0.175053,0.294962,-0.100458,54,277,575,5648
1644169817.098323,-0.010925,0.012146,-0.99176,0.236122,0.310229,-0.130992,65,274,578,5600
1644169817.146733,-0.007812,0.009155,-0.992432,0.159786,0.462901,-0.024122,42,273,577,5648
1644169817.19522,-0.01123,0.00824,-0.992859,0.175053,0.279695,-0.100458,46,281,571,5696
1644169817.243497,-0.008545,0.011536,-0.994141,0.281924,0.523969,-0.192061,49,282,575,5632
1644169817.291891,-0.010437,0.008362,-0.99408,0.342992,0.371298,-0.14626,49,263,582,5728
1644169817.340242,-0.010254,0.009155,-0.993286,0.205588,0.294962,-0.085191,49,275,584,5648
1644169817.388664,-0.013367,0.011292,-0.994141,0.342992,0.508702,-0.130992,47,282,579,5648
1644169817.437057,-0.009827,0.010254,-0.993225,0.236122,0.554504,-0.054656,51,269,569,5664
1644169817.485437,-0.009521,0.009583,-0.99231,0.266656,0.371298,-0.100458,38,277,579,5728
1644169817.533833,-0.010559,0.008484,-0.993225,0.236122,0.371298,-0.008855,53,266,578,5696
1644169817.58224,-0.009399,0.006104,-0.992432,0.251389,0.417099,-0.14626,45,277,589,5664
1644169817.630606,-0.010376,0.009521,-0.992737,0.190321,0.462901,-0.100458,48,271,583,5696
1644169817.679046,-0.01062,0.008606,-0.993103,0.281924,0.539237,-0.069924,49,275,575,5728
1644169817.728411,-0.010803,0.010193,-0.992859,0.297191,0.493435,-0.161527,47,280,572,5648
1644169817.778979,-0.010925,0.009644,-0.991211,0.190321,0.371298,-0.222595,54,270,570,5648
1644169817.829122,-0.010498,0.008484,-0.990173,0.205588,0.417099,-0.085191,47,268,582,5664
1644169817.921018,-0.010254,0.012207,-0.989685,0.236122,0.417099,0.021679,49,270,570,5696
1644169817.969351,-0.010559,0.011169,-0.993591,0.404061,0.340763,-0.085191,53,276,573,5664
1644169818.017784,-0.009766,0.009888,-0.990723,0.144519,0.417099,-0.115725,51,264,585,5648
1644169818.068059,-0.011719,0.011047,-0.99292,0.434595,0.493435,-0.192061,58,271,583,5696
1644169818.114641,-0.007568,0.006775,-0.994019,0.266656,0.493435,-0.085191,55,276,573,5664
1644169818.16289,-0.009216,0.010376,-0.989746,0.175053,0.508702,-0.130992,42,268,582,5712
1644169818.211275,-0.008545,0.00885,-0.991028,0.205588,0.401832,-0.161527,53,279,585,5648
1644169818.259706,-0.010132,0.010437,-0.99115,0.266656,0.447634,-0.176794,55,281,576,5696
1644169818.308066,-0.009338,0.007935,-0.991455,0.373527,0.417099,-0.192061,51,264,580,5696
1644169818.356476,-0.011414,0.006958,-0.992371,0.266656,0.356031,-0.161527,43,269,583,5664
1644169818.404861,-0.010071,0.010925,-0.988831,0.266656,0.462901,-0.100458,61,268,579,5648
1644169818.453264,-0.010437,0.011902,-0.991333,0.129252,0.493435,-0.207328,53,274,578,5664
1644169818.501637,-0.008179,0.010315,-0.992126,0.236122,0.432366,-0.024122,57,282,589,5648
1644169818.550036,-0.011169,0.012695,-0.992065,0.327725,0.554504,-0.207328,42,270,575,5600
1644169818.598393,-0.009155,0.007996,-0.992798,0.159786,0.325496,-0.192061,51,274,578,5664
1644169818.646817,-0.010742,0.012146,-0.99054,0.159786,0.478168,-0.268397,49,275,577,5664
1644169818.695207,-0.010681,0.007751,-0.990479,0.312458,0.371298,0.006412,47,273,579,5648
1644169818.743596,-0.007812,0.009155,-0.990417,0.220855,0.386565,-0.14626,46,276,580,5648
1644169818.792044,-0.012512,0.007996,-0.994202,0.281924,0.371298,-0.100458,58,264,585,5696
1644169818.841727,-0.009766,0.012207,-0.990723,0.175053,0.417099,-0.176794,52,268,570,5696
1644169818.892284,-0.010132,0.011292,-0.992249,0.190321,0.432366,-0.100458,51,279,585,5664
1644169818.942339,-0.010315,0.006775,-0.992126,0.175053,0.294962,-0.14626,41,266,571,5600
1644169818.987018,-0.01123,0.009155,-0.992554,0.251389,0.401832,0.021679,47,273,575,5696
1644169819.082741,-0.011475,0.012268,-0.994019,0.236122,0.371298,-0.207328,49,275,579,5664
1644169819.130708,-0.014404,0.008789,-0.992004,0.236122,0.508702,-0.161527,45,277,582,5648
1644169819.179094,-0.010742,0.010559,-0.992554,0.220855,0.432366,-0.161527,47,280,568,5664
1644169819.227477,-0.013,0.008179,-0.991028,0.113985,0.432366,-0.039389,43,276,566,5648
1644169819.27588,-0.011169,0.011902,-0.991028,0.35826,0.401832,-0.14626,48,269,573,5664
1644169819.324292,-0.012695,0.009888,-0.994995,0.281924,0.615573,-0.085191,52,265,577,5632
1644169819.372683,-0.011902,0.012451,-0.994019,0.190321,0.340763,-0.130992,45,265,570,5696
1644169819.421063,-0.010376,0.006226,-0.99231,0.098718,0.493435,-0.069924,52,277,577,5664
1644169819.469457,-0.009888,0.010254,-0.993103,0.098718,0.569771,-0.024122,48,279,571,5648
1644169819.51786,-0.012756,0.006409,-0.994385,0.35826,0.478168,-0.054656,54,265,577,5696
1644169819.566236,-0.009399,0.009094,-0.992371,0.342992,0.554504,-0.176794,54,275,582,5696
1644169819.614714,-0.010193,0.009033,-0.98999,0.266656,0.340763,-0.100458,54,265,579,5696
1644169819.663017,-0.009949,0.010132,-0.993652,0.251389,0.462901,-0.054656,53,269,578,5696
1644169819.711409,-0.012146,0.010742,-0.991943,0.434595,0.371298,-0.024122,48,266,592,5712
1644169819.759784,-0.00824,0.009155,-0.992859,0.052916,0.539237,-0.115725,55,271,580,5648
1644169819.808235,-0.010315,0.00885,-0.992981,0.35826,0.233893,-0.176794,48,276,578,5664
1644169819.856575,-0.009705,0.011597,-0.992737,0.175053,0.493435,-0.130992,47,273,577,5664
1644169819.905416,-0.011597,0.009338,-0.99585,0.175053,0.356031,-0.054656,46,274,585,5712
1644169819.953671,-0.00885,0.008911,-0.993164,0.281924,0.447634,-0.039389,52,277,582,5600
1644169820.004045,-0.010925,0.010193,-0.992371,0.35826,0.371298,-0.115725,57,268,584,5712
1644169820.068048,-0.013855,0.009155,-0.993958,0.144519,0.523969,0.082748,57,273,577,5600
1644169820.103404,-0.010437,0.006775,-0.990479,0.175053,0.493435,0.052214,53,279,583,5664
1644169820.195454,-0.011475,0.01178,-0.992676,0.373527,0.478168,-0.314198,59,282,575,5696
1644169820.24369,-0.007935,0.012939,-0.991455,0.312458,0.432366,-0.024122,47,265,575,5712
1644169820.292381,-0.00708,0.010315,-0.991577,0.205588,0.447634,-0.039389,48,271,569,5696
1644169820.340477,-0.010559,0.00769,-0.99292,0.342992,0.294962,-0.207328,41,274,578,5648
1644169820.388881,-0.010498,0.010925,-0.993347,0.236122,0.447634,-0.207328,53,281,573,5760
1644169820.437261,-0.011108,0.011169,-0.992126,0.236122,0.417099,-0.100458,51,279,576,5600
1644169820.485623,-0.007385,0.00769,-0.99054,0.113985,0.462901,-0.100458,49,270,575,5696
1644169820.534053,-0.009644,0.008972,-0.99176,0.175053,0.478168,-0.130992,51,279,571,5600
1644169820.582459,-0.008972,0.009644,-0.990845,0.251389,0.386565,-0.176794,52,275,568,5712
1644169820.630834,-0.011353,0.010864,-0.992615,0.190321,0.508702,-0.176794,49,275,575,5696
1644169820.679226,-0.010681,0.010681,-0.993225,0.297191,0.417099,0.021679,48,276,580,5600
1644169820.727604,-0.011475,0.012085,-0.989136,0.281924,0.462901,0.036947,43,281,578,5648
1644169820.776009,-0.011353,0.007751,-0.990479,0.297191,0.356031,-0.207328,48,279,573,5648
1644169820.82443,-0.010864,0.01001,-0.992554,0.159786,0.340763,-0.176794,48,281,576,5664
1644169820.872825,-0.008545,0.009827,-0.989197,0.098718,0.325496,-0.176794,47,277,572,5632
1644169820.921208,-0.010315,0.00946,-0.990784,0.205588,0.447634,-0.115725,48,281,576,5648
1644169820.969607,-0.00592,0.008484,-0.993164,0.129252,0.325496,-0.161527,36,269,573,5696
1644169821.017992,-0.008789,0.010742,-0.990173,0.175053,0.432366,-0.085191,43,281,583,5664
1644169821.084685,-0.013489,0.010681,-0.993958,0.129252,0.279695,-0.237863,52,268,575,5664
1644169821.163133,-0.008911,0.009827,-0.989441,0.159786,0.264427,-0.161527,46,274,585,5664
1644169821.21152,-0.007385,0.01001,-0.990417,0.35826,0.325496,-0.14626,53,274,573,5664
1644169821.259893,-0.01178,0.01062,-0.992249,0.205588,0.432366,-0.085191,49,280,570,5664
1644169821.308291,-0.01123,0.008606,-0.990601,0.281924,0.493435,-0.161527,49,280,570,5648
1644169821.356676,-0.010986,0.007935,-0.993652,0.175053,0.386565,-0.054656,57,270,570,5536
1644169821.405123,-0.00946,0.006836,-0.990479,0.236122,0.432366,-0.069924,59,273,577,5632
1644169821.453482,-0.012024,0.008179,-0.991821,0.373527,0.294962,-0.115725,55,271,580,5648
1644169821.501851,-0.010437,0.01001,-0.99054,0.190321,0.493435,-0.100458,57,280,570,5728
1644169821.550248,-0.009705,0.008423,-0.994019,0.327725,0.340763,-0.008855,57,277,572,5664
1644169821.598652,-0.010437,0.007812,-0.992676,0.144519,0.371298,-0.237863,46,279,585,5664
1644169821.647036,-0.009521,0.007935,-0.991028,0.159786,0.417099,-0.069924,47,273,579,5648
1644169821.695441,-0.011475,0.00769,-0.993774,0.175053,0.462901,-0.25313,45,280,572,5600
1644169821.743828,-0.013428,0.01062,-0.990723,0.205588,0.478168,-0.161527,57,265,577,5648
1644169821.792237,-0.006714,0.010559,-0.99054,0.129252,0.264427,-0.329466,45,273,577,5632
1644169821.840627,-0.010437,0.008057,-0.993713,0.251389,0.432366,-0.039389,55,276,580,5664
1644169821.889026,-0.012512,0.010559,-0.98999,0.175053,0.432366,-0.161527,53,281,580,5664
1644169821.937387,-0.011169,0.008972,-0.98822,0.297191,0.462901,-0.176794,48,269,587,5696
1644169821.985804,-0.010864,0.009766,-0.989807,0.266656,0.310229,-0.069924,48,269,583,5696
1644169822.034215,-0.008423,0.01062,-0.991211,0.129252,0.432366,-0.115725,53,274,566,5664
1644169822.091154,-0.009338,0.009033,-0.99115,0.404061,0.493435,-0.161527,58,279,573,5728
1644169822.135199,-0.008728,0.010193,-0.994324,0.205588,0.401832,-0.054656,49,287,577,5728
1644169822.183823,-0.008362,0.007996,-0.991516,0.175053,0.569771,-0.222595,42,270,572,5664
1644169822.228877,-0.01062,0.010681,-0.992065,0.159786,0.386565,-0.008855,53,274,578,5696
1644169822.324489,-0.010559,0.01062,-0.991638,0.190321,0.371298,0.021679,48,279,576,5664
1644169822.37291,-0.010986,0.010193,-0.990417,0.327725,0.325496,0.006412,51,266,580,5664
1644169822.421286,-0.008911,0.008362,-0.992065,0.251389,0.294962,-0.14626,62,271,569,5696
1644169822.469667,-0.010193,0.008484,-0.992126,0.297191,0.508702,-0.14626,47,277,575,5648
1644169822.518068,-0.010559,0.010498,-0.990601,0.175053,0.325496,-0.283664,54,270,577,5600
1644169822.566456,-0.010864,0.009033,-0.994812,0.327725,0.447634,-0.085191,48,271,573,5648
1644169822.614863,-0.009705,0.010925,-0.990051,0.068183,0.371298,-0.100458,47,273,575,5712
1644169822.663237,-0.011292,0.009583,-0.993652,0.388794,0.539237,0.006412,51,276,573,5664
1644169822.711608,-0.012451,0.007874,-0.990845,0.236122,0.508702,0.021679,46,271,578,5664
1644169822.760014,-0.013367,0.009705,-0.993408,0.236122,0.386565,-0.14626,54,277,575,5664
1644169822.808408,-0.008606,0.009583,-0.991516,0.205588,0.294962,-0.130992,41,266,576,5536
1644169822.85684,-0.011414,0.009033,-0.995544,0.312458,0.340763,-0.054656,55,281,580,5696
1644169822.905327,-0.01001,0.007446,-0.993042,0.220855,0.386565,-0.085191,42,268,582,5664
1644169822.953624,-0.01123,0.008911,-0.990662,0.175053,0.371298,-0.237863,45,275,596,5632
1644169823.001987,-0.012573,0.010071,-0.995605,0.266656,0.371298,-0.024122,47,282,572,5696
1644169823.058878,-0.011292,0.010681,-0.992493,0.220855,0.386565,-0.085191,42,273,570,5664
1644169823.098942,-0.01001,0.011353,-0.992737,0.281924,0.386565,-0.008855,48,277,582,5648
1644169823.147136,-0.012268,0.013123,-0.993225,0.190321,0.294962,-0.25313,55,269,573,5648
1644169823.195504,-0.010498,0.007446,-0.992126,0.220855,0.401832,0.067481,52,273,577,5696
1644169823.244281,-0.010559,0.008118,-0.990845,0.175053,0.447634,0.021679,54,270,577,5696
1644169823.294403,-0.009766,0.007629,-0.994263,0.175053,0.371298,-0.085191,49,275,565,5648
1644169823.344925,-0.013428,0.009766,-0.991699,0.266656,0.310229,-0.192061,48,262,573,5696
1644169823.389781,-0.011475,0.010376,-0.994019,0.205588,0.417099,-0.207328,46,274,583,5696
1644169823.485861,-0.014282,0.011597,-0.992126,0.312458,0.554504,-0.115725,46,276,571,5664
1644169823.534274,-0.009216,0.01178,-0.991028,0.205588,0.478168,-0.237863,48,276,583,5696
1644169823.582664,-0.009155,0.00769,-0.992676,0.220855,0.386565,-0.222595,57,258,579,5664
1644169823.63105,-0.012085,0.009399,-0.991638,0.220855,0.386565,-0.115725,46,269,578,5712
1644169823.679428,-0.012878,0.007874,-0.991394,0.175053,0.447634,-0.100458,54,265,565,5696
1644169823.727824,-0.010742,0.00824,-0.992859,0.129252,0.447634,-0.039389,46,271,571,5648
1644169823.776209,-0.007996,0.009033,-0.993347,0.281924,0.356031,-0.100458,58,269,580,5696
1644169823.824656,-0.011047,0.011902,-0.99176,0.342992,0.310229,-0.054656,58,274,576,5648
1644169823.873075,-0.012268,0.011414,-0.992004,0.35826,0.417099,-0.14626,46,276,566,5712
1644169823.921438,-0.009766,0.00769,-0.992737,0.35826,0.386565,0.082748,52,275,579,5648
1644169823.969825,-0.008301,0.009033,-0.990906,0.205588,0.478168,-0.100458,64,270,572,5664
1644169824.019371,-0.010925,0.007935,-0.995117,0.342992,0.462901,-0.085191,49,275,575,5664
1644169824.083187,-0.010681,0.00946,-0.990784,0.297191,0.356031,-0.176794,49,277,572,5696
1644169824.115447,-0.009338,0.011536,-0.991699,0.129252,0.294962,-0.207328,51,276,580,5648
1644169824.163347,-0.009155,0.009033,-0.990662,0.236122,0.462901,-0.130992,45,280,577,5664
1644169824.211734,-0.009216,0.007874,-0.990479,0.327725,0.523969,-0.069924,52,282,584,5696
1644169824.260098,-0.011475,0.008667,-0.991699,0.098718,0.340763,-0.192061,53,269,583,5648
1644169824.308504,-0.011108,0.00824,-0.994019,0.312458,0.340763,-0.085191,52,263,584,5648
1644169824.356906,-0.011841,0.010742,-0.992126,0.205588,0.478168,-0.100458,39,281,578,5696
1644169824.406345,-0.008423,0.009888,-0.992554,0.129252,0.386565,-0.14626,53,279,578,5696
1644169824.456432,-0.011169,0.010071,-0.99469,0.190321,0.478168,-0.14626,52,270,575,5664
1644169824.506564,-0.009949,0.009827,-0.992065,0.144519,0.417099,-0.085191,49,280,575,5664
1644169824.551486,-0.013672,0.008423,-0.991943,0.098718,0.356031,-0.054656,49,276,585,5696
1644169824.647235,-0.009094,0.011047,-0.99292,0.327725,0.233893,-0.14626,53,262,571,5696
1644169824.695619,-0.009399,0.007874,-0.991516,0.342992,0.432366,-0.130992,49,282,568,5728
1644169824.744026,-0.009521,0.009521,-0.992859,0.266656,0.462901,-0.161527,48,269,571,5664
1644169824.792423,-0.011414,0.009705,-0.990417,0.236122,0.417099,-0.115725,49,282,577,5664
1644169824.840811,-0.011475,0.008118,-0.99115,0.281924,0.371298,-0.115725,53,279,576,5776
1644169824.889219,-0.010437,0.008667,-0.99054,0.312458,0.325496,-0.039389,30,270,575,5648
1644169824.937642,-0.008423,0.01062,-0.992249,0.312458,0.233893,0.021679,46,271,576,5648
1644169824.986023,-0.010437,0.009583,-0.99469,0.312458,0.401832,-0.14626,45,275,577,5696
1644169825.034428,-0.012817,0.011047,-0.991455,0.220855,0.294962,-0.100458,42,277,575,5712
1644169825.086345,-0.008179,0.010376,-0.99054,0.052916,0.279695,-0.100458,58,279,580,5696
1644169825.131208,-0.010498,0.009766,-0.993774,0.373527,0.310229,-0.024122,48,266,569,5648
1644169825.179546,-0.010254,0.009521,-0.994507,0.266656,0.417099,-0.085191,48,274,571,5696
1644169825.227934,-0.01062,0.008606,-0.992126,0.404061,0.279695,0.006412,55,259,578,5776
1644169825.276312,-0.011841,0.009033,-0.992798,0.281924,0.493435,-0.069924,51,269,578,5648
1644169825.32478,-0.013611,0.011292,-0.993713,0.220855,0.340763,-0.085191,40,280,579,5696
1644169825.37343,-0.011169,0.010498,-0.991272,0.220855,0.478168,-0.100458,54,275,570,5664
1644169825.423988,-0.011658,0.009338,-0.992737,0.327725,0.417099,-0.14626,48,269,583,5648
1644169825.474017,-0.010376,0.00946,-0.991455,0.236122,0.462901,-0.085191,47,263,575,5648
1644169825.519089,-0.011292,0.009521,-0.990906,0.220855,0.371298,-0.039389,42,277,582,5664
1644169825.615298,-0.009583,0.010071,-0.994873,0.08345,0.447634,-0.14626,48,274,576,5696
1644169825.663454,-0.010315,0.010315,-0.991089,0.08345,0.386565,-0.14626,57,280,563,5648
1644169825.711833,-0.012634,0.010254,-0.992004,0.175053,0.417099,-0.085191,51,276,573,5664
1644169825.760199,-0.01123,0.005737,-0.989319,0.129252,0.417099,-0.14626,40,280,575,5664
1644169825.808615,-0.013,0.006897,-0.991577,0.251389,0.447634,-0.130992,45,273,572,5648
1644169825.857007,-0.010925,0.011475,-0.994568,0.159786,0.325496,-0.008855,47,275,572,5632
1644169825.905441,-0.011047,0.007751,-0.991089,0.297191,0.447634,-0.039389,60,269,576,5696
1644169825.953835,-0.011047,0.009521,-0.990479,0.205588,0.417099,-0.115725,52,268,565,5600
1644169826.002228,-0.012146,0.007874,-0.990173,0.205588,0.447634,-0.130992,58,276,573,5600
1644169826.066351,-0.009827,0.006836,-0.990417,0.220855,0.508702,-0.039389,52,277,579,5712
1644169826.101585,-0.010132,0.009888,-0.993652,0.297191,0.417099,-0.100458,60,271,585,5696
1644169826.147363,-0.009399,0.00824,-0.992188,0.190321,0.325496,-0.039389,47,275,577,5648
1644169826.195787,-0.01123,0.007263,-0.99353,0.190321,0.447634,-0.069924,54,273,572,5664
1644169826.244172,-0.011353,0.01123,-0.992676,0.068183,0.432366,-0.085191,52,282,575,5696
1644169826.292587,-0.010437,0.011292,-0.991211,0.220855,0.356031,-0.024122,58,274,571,5664
1644169826.34096,-0.00885,0.008911,-0.994995,0.129252,0.462901,-0.14626,53,274,571,5664
1644169826.389606,-0.014282,0.007324,-0.991638,0.266656,0.218626,-0.008855,49,277,577,5696
1644169826.438109,-0.012085,0.008301,-0.994446,0.098718,0.447634,0.006412,47,273,577,5664
1644169826.488685,-0.006348,0.01123,-0.991516,0.251389,0.264427,0.067481,46,281,573,5696
1644169826.538744,-0.009583,0.01178,-0.992615,0.129252,0.264427,-0.130992,48,274,569,5664
1644169826.583135,-0.010132,0.008301,-0.992371,0.08345,0.508702,-0.115725,46,281,578,5664
1644169826.679672,-0.009216,0.009888,-0.992737,0.129252,0.386565,-0.069924,57,275,572,5696
1644169826.728057,-0.011353,0.009216,-0.991577,0.190321,0.325496,-0.237863,41,262,576,5648
1644169826.776464,-0.009155,0.010498,-0.993103,0.129252,0.340763,-0.207328,59,268,584,5648
1644169826.824881,-0.010193,0.010742,-0.994141,0.205588,0.462901,-0.207328,54,282,575,5696
1644169826.873265,-0.010315,0.008118,-0.994629,0.236122,0.294962,0.021679,55,271,576,5664
1644169826.921649,-0.009705,0.008789,-0.99176,0.159786,0.401832,-0.085191,51,269,571,5696
1644169826.97004,-0.012329,0.006897,-0.992432,0.35826,0.447634,-0.085191,49,270,572,5664
1644169827.018431,-0.014038,0.008728,-0.993835,0.251389,0.264427,-0.039389,51,281,576,5664
1644169827.07017,-0.009521,0.008911,-0.992432,0.007115,0.279695,-0.176794,52,273,575,5696
1644169827.115291,-0.011597,0.010498,-0.992737,0.144519,0.294962,-0.207328,48,271,580,5712
1644169827.163563,-0.011047,0.009094,-0.992859,0.251389,0.340763,-0.192061,40,275,575,5648
1644169827.211914,-0.010498,0.008606,-0.995178,0.129252,0.264427,-0.054656,46,279,573,5648
1644169827.260316,-0.009766,0.008057,-0.991333,0.236122,0.447634,-0.161527,49,273,577,5696
1644169827.308707,-0.01178,0.011597,-0.994141,0.052916,0.386565,-0.115725,45,280,577,5632
1644169827.357114,-0.010498,0.007568,-0.99231,0.251389,0.417099,0.036947,43,281,585,5632
1644169827.40553,-0.009766,0.007568,-0.991455,0.175053,0.401832,-0.115725,51,271,571,5664
1644169827.453902,-0.005859,0.010681,-0.990662,0.266656,0.432366,-0.085191,57,270,577,5696
1644169827.502273,-0.00885,0.012207,-0.994873,0.327725,0.508702,-0.085191,54,275,575,5648
1644169827.550681,-0.010742,0.008423,-0.991882,0.098718,0.386565,-0.161527,53,274,571,5696
1644169827.599346,-0.011292,0.007019,-0.994446,0.159786,0.417099,-0.207328,53,274,576,5648
1644169827.65007,-0.010559,0.012939,-0.993286,0.159786,0.294962,-0.008855,59,270,582,5648
1644169827.700014,-0.010254,0.008667,-0.993042,0.08345,0.386565,-0.130992,54,282,577,5648
1644169827.745161,-0.009338,0.007874,-0.991211,0.175053,0.417099,-0.069924,49,275,575,5648
1644169827.841048,-0.011292,0.010132,-0.991394,0.220855,0.325496,-0.100458,48,271,569,5696
1644169827.889454,-0.011047,0.008728,-0.991638,0.190321,0.462901,-0.069924,48,274,566,5664
1644169827.93785,-0.010376,0.010986,-0.991333,0.251389,0.24916,-0.207328,55,274,576,5664
1644169827.98624,-0.010071,0.00885,-0.989868,0.098718,0.325496,-0.024122,62,276,573,5696
1644169828.034677,-0.010498,0.009216,-0.99176,0.068183,0.371298,-0.192061,47,273,577,5664
1644169828.089899,-0.012512,0.009338,-0.993469,0.08345,0.356031,-0.161527,52,277,577,5664
1644169828.131364,-0.011841,0.009521,-0.99115,0.266656,0.585038,-0.161527,45,273,579,5728
1644169828.179757,-0.011841,0.00885,-0.990051,0.35826,0.203359,-0.054656,43,271,583,5664
1644169828.228154,-0.010193,0.009583,-0.989868,0.35826,0.279695,-0.085191,53,271,576,5696
1644169828.276522,-0.012207,0.011475,-0.989136,0.190321,0.478168,-0.069924,59,270,577,5664
1644169828.324928,-0.01239,0.010132,-0.989624,0.144519,0.386565,-0.130992,49,273,570,5648
1644169828.373332,-0.008972,0.01062,-0.99292,0.251389,0.447634,-0.14626,52,273,572,5696
1644169828.421719,-0.009033,0.008911,-0.992798,0.129252,0.386565,-0.054656,54,260,575,5664
1644169828.470073,-0.013123,0.008423,-0.995178,0.159786,0.462901,-0.130992,54,270,577,5696
1644169828.518495,-0.008057,0.006531,-0.990601,0.404061,0.462901,-0.130992,45,275,584,5584
1644169828.566892,-0.011108,0.010925,-0.993713,0.220855,0.478168,-0.115725,51,276,576,5648
1644169828.615263,-0.011169,0.006836,-0.992004,0.281924,0.401832,-0.130992,46,279,576,5648
1644169828.663665,-0.011597,0.009155,-0.992065,0.175053,0.447634,-0.024122,51,274,573,5696
1644169828.712143,-0.011475,0.01001,-0.992859,0.373527,0.417099,-0.14626,48,266,576,5664
1644169828.762532,-0.011169,0.009827,-0.992126,0.327725,0.325496,-0.161527,57,270,579,5600
1644169828.814229,-0.008484,0.01178,-0.990662,0.236122,0.508702,-0.069924,59,282,561,5664
1644169828.858449,-0.012268,0.010071,-0.993286,0.190321,0.462901,-0.054656,58,279,578,5696
1644169828.954064,-0.008301,0.011047,-0.991089,0.190321,0.356031,-0.008855,58,274,583,5696
1644169829.002445,-0.008484,0.010071,-0.989197,0.342992,0.401832,-0.100458,48,271,569,5648
1644169829.061988,-0.00946,0.009827,-0.992554,0.098718,0.401832,-0.069924,48,274,576,5696
1644169829.09953,-0.011475,0.008606,-0.992737,0.312458,0.325496,-0.100458,45,277,579,5648
1644169829.147567,-0.009888,0.006287,-0.99176,0.205588,0.462901,-0.161527,53,269,571,5664
1644169829.195965,-0.012939,0.01062,-0.991577,0.159786,0.264427,-0.069924,58,269,587,5632
1644169829.244363,-0.008606,0.012146,-0.991211,0.205588,0.340763,-0.024122,52,285,572,5776
1644169829.292755,-0.010376,0.008789,-0.992737,0.037649,0.447634,0.021679,51,271,580,5648
1644169829.341137,-0.011414,0.008179,-0.993408,0.159786,0.417099,-0.024122,53,279,573,5664
1644169829.389524,-0.010559,0.009888,-0.989502,0.113985,0.432366,-0.115725,57,277,575,5600
1644169829.437901,-0.01001,0.007507,-0.99176,0.312458,0.417099,-0.054656,53,279,590,5664
1644169829.486312,-0.011719,0.00824,-0.994995,0.175053,0.264427,0.021679,53,274,583,5648
1644169829.534697,-0.011597,0.010071,-0.98999,0.236122,0.188092,0.021679,46,276,576,5664
1644169829.583085,-0.011841,0.012146,-0.991577,0.175053,0.371298,-0.161527,54,280,589,5632
1644169829.631461,-0.011353,0.007263,-0.994141,0.190321,0.401832,-0.008855,46,257,578,5696
1644169829.680182,-0.010559,0.009827,-0.993042,0.113985,0.447634,-0.039389,45,270,572,5664
1644169829.729947,-0.010559,0.007202,-0.992432,0.022382,0.417099,-0.054656,49,275,577,5648
1644169829.779988,-0.010864,0.009216,-0.994019,0.220855,0.478168,-0.039389,54,265,582,5584
1644169829.830525,-0.011719,0.007996,-0.991516,0.08345,0.340763,0.036947,54,270,570,5648
1644169829.921872,-0.008728,0.010376,-0.994263,0.190321,0.386565,-0.100458,46,269,576,5648
1644169829.970249,-0.008972,0.011902,-0.992188,0.297191,0.310229,-0.130992,59,263,577,5696
1644169830.018651,-0.009705,0.007324,-0.992615,0.175053,0.294962,0.006412,51,276,573,5584
1644169830.068969,-0.010986,0.010437,-0.992615,0.205588,0.371298,-0.176794,53,274,578,5632
1644169830.115397,-0.011047,0.009583,-0.994446,0.251389,0.478168,-0.192061,45,275,577,5712
1644169830.163786,-0.013123,0.009338,-0.995605,0.144519,0.371298,-0.039389,49,270,570,5648
1644169830.21218,-0.010864,0.007141,-0.991516,0.175053,0.478168,-0.054656,52,270,577,5696
1644169830.260559,-0.011108,0.009827,-0.993347,0.251389,0.325496,-0.039389,53,276,578,5648
1644169830.308952,-0.012573,0.009888,-0.991394,0.297191,0.417099,-0.085191,54,280,572,5664
1644169830.357315,-0.009094,0.008972,-0.992432,0.190321,0.356031,-0.298931,49,277,579,5664
1644169830.405722,-0.012085,0.009705,-0.995361,0.404061,0.310229,-0.069924,57,277,577,5760
1644169830.454136,-0.012695,0.009094,-0.992981,0.312458,0.386565,-0.039389,47,275,570,5632
1644169830.502533,-0.010315,0.008484,-0.991882,0.236122,0.508702,-0.039389,41,283,576,5632
1644169830.55089,-0.012756,0.007385,-0.99176,0.327725,0.447634,-0.222595,49,268,572,5696
1644169830.59928,-0.010315,0.009644,-0.99292,0.236122,0.386565,0.036947,49,270,565,5696
1644169830.647674,-0.008179,0.008484,-0.991333,0.220855,0.432366,-0.085191,53,269,573,5600
1644169830.696065,-0.010559,0.009888,-0.99292,0.144519,0.554504,-0.130992,52,270,565,5696
1644169830.744458,-0.011169,0.009705,-0.991089,0.190321,0.325496,-0.100458,61,277,577,5600
1644169830.792885,-0.008972,0.009949,-0.990295,0.236122,0.386565,-0.054656,51,274,585,5648
1644169830.841698,-0.013062,0.009583,-0.993652,0.220855,0.523969,-0.008855,52,273,575,5648
1644169830.89312,-0.011292,0.00824,-0.994141,0.129252,0.493435,-0.14626,46,269,571,5696
1644169830.943588,-0.011292,0.010742,-0.992249,0.327725,0.600305,-0.176794,53,279,576,5648
1644169830.988282,-0.008606,0.009521,-0.993408,0.342992,0.310229,-0.192061,58,264,578,5728
1644169831.083329,-0.01123,0.007874,-0.993042,0.205588,0.294962,-0.176794,49,277,579,5648
1644169831.131626,-0.009399,0.010315,-0.992676,0.129252,0.294962,-0.100458,53,274,569,5648
1644169831.179981,-0.010498,0.007996,-0.993469,0.220855,0.325496,-0.176794,53,274,576,5760
1644169831.228363,-0.009766,0.007629,-0.99054,0.205588,0.447634,-0.024122,47,273,568,5584
1644169831.276739,-0.012695,0.007751,-0.992798,0.388794,0.340763,-0.069924,43,274,578,5696
1644169831.325173,-0.010864,0.007385,-0.990906,0.281924,0.417099,0.052214,51,283,578,5696
1644169831.373549,-0.00708,0.006714,-0.99292,0.266656,0.432366,0.098015,58,276,576,5632
1644169831.421934,-0.010437,0.009888,-0.993225,0.220855,0.508702,-0.039389,45,273,570,5696
1644169831.470302,-0.009399,0.009155,-0.993713,0.190321,0.386565,0.067481,55,279,578,5776
1644169831.518703,-0.010315,0.009888,-0.991638,0.312458,0.585038,-0.14626,55,276,571,5648
1644169831.567105,-0.01178,0.00769,-0.99353,0.175053,0.356031,-0.115725,49,285,584,5664
1644169831.615478,-0.010254,0.008423,-0.990723,0.236122,0.417099,-0.085191,46,266,576,5648
1644169831.663887,-0.012695,0.009033,-0.993042,0.35826,0.340763,-0.115725,46,276,580,5664
1644169831.712287,-0.010559,0.007629,-0.993713,0.266656,0.386565,-0.14626,46,274,580,5648
1644169831.760636,-0.012146,0.008118,-0.991089,0.159786,0.493435,-0.207328,57,273,575,5696
1644169831.809057,-0.010254,0.008484,-0.989929,0.281924,0.432366,-0.161527,59,273,572,5552
1644169831.857483,-0.009644,0.009094,-0.99176,0.251389,0.371298,-0.161527,52,270,575,5584
1644169831.906171,-0.009705,0.008728,-0.99231,0.327725,0.340763,-0.039389,54,268,579,5664
1644169831.954289,-0.012451,0.010559,-0.992554,0.312458,0.447634,-0.161527,45,270,586,5648
1644169832.004003,-0.008179,0.010071,-0.990967,0.129252,0.508702,-0.207328,58,279,571,5664
1644169832.074826,-0.01001,0.00647,-0.993347,0.251389,0.371298,-0.100458,41,286,583,5696
1644169832.111743,-0.011475,0.010437,-0.991028,0.236122,0.462901,-0.115725,49,273,575,5664
1644169832.196172,-0.010864,0.011108,-0.991272,0.342992,0.386565,-0.115725,51,264,580,5728
1644169832.244908,-0.007812,0.009949,-0.990967,0.281924,0.401832,-0.085191,46,269,583,5728
1644169832.292969,-0.012207,0.012146,-0.992737,0.113985,0.462901,-0.14626,49,275,582,5776
1644169832.341341,-0.010071,0.009338,-0.993347,0.297191,0.432366,-0.085191,51,271,571,5712
1644169832.389736,-0.009094,0.010315,-0.989624,0.35826,0.371298,0.006412,46,274,578,5664
1644169832.438127,-0.010803,0.010437,-0.990845,0.236122,0.478168,-0.039389,48,269,583,5712
1644169832.486504,-0.013062,0.006104,-0.992493,0.327725,0.478168,-0.008855,41,269,571,5632
1644169832.534895,-0.01178,0.010376,-0.992249,0.327725,0.508702,0.006412,51,279,571,5664
1644169832.583305,-0.011719,0.008789,-0.991699,0.35826,0.493435,-0.024122,55,269,571,5664
1644169832.631669,-0.010376,0.009277,-0.993286,0.068183,0.371298,-0.161527,55,264,576,5696
1644169832.680084,-0.010132,0.012573,-0.992188,0.068183,0.401832,-0.207328,53,274,580,5632
1644169832.728466,-0.011597,0.008484,-0.99353,0.251389,0.356031,-0.054656,52,277,575,5696
1644169832.776884,-0.010803,0.008362,-0.991211,0.266656,0.462901,-0.115725,52,277,589,5664
1644169832.825295,-0.01123,0.009766,-0.993042,0.220855,0.401832,-0.25313,46,279,580,5648
1644169832.873677,-0.01239,0.009094,-0.989258,0.144519,0.417099,-0.008855,49,270,577,5664
1644169832.922085,-0.012268,0.011047,-0.992371,0.129252,0.386565,-0.14626,46,286,585,5648
1644169832.970465,-0.008911,0.008179,-0.991089,0.052916,0.523969,-0.100458,48,276,580,5696
1644169833.018839,-0.012451,0.008789,-0.993713,0.236122,0.432366,-0.085191,46,281,585,5664
1644169833.093767,-0.012939,0.010498,-0.995361,0.052916,0.417099,-0.130992,46,271,580,5648
1644169833.115919,-0.007812,0.011902,-0.992493,0.281924,0.432366,-0.085191,59,268,582,5664
1644169833.212383,-0.012024,0.009399,-0.990906,0.312458,0.417099,-0.039389,49,273,565,5760
1644169833.260751,-0.008972,0.007629,-0.99231,0.266656,0.356031,-0.069924,43,276,583,5648
1644169833.309133,-0.011292,0.008972,-0.991516,0.266656,0.401832,-0.161527,46,276,571,5648
1644169833.357551,-0.011047,0.010498,-0.98938,0.236122,0.401832,-0.115725,53,262,569,5696
1644169833.405937,-0.010254,0.008545,-0.99292,0.281924,0.447634,0.036947,46,276,564,5664
1644169833.454336,-0.009521,0.008484,-0.993652,0.327725,0.615573,-0.115725,39,269,578,5760
1644169833.502707,-0.010132,0.00708,-0.99115,-0.02342,0.447634,-0.161527,46,271,576,5696
1644169833.551101,-0.008606,0.010864,-0.992798,0.098718,0.493435,-0.024122,46,274,566,5696
1644169833.599503,-0.011169,0.007874,-0.99292,0.373527,0.325496,0.098015,43,279,569,5664
1644169833.647904,-0.009583,0.009033,-0.99115,0.220855,0.493435,-0.130992,52,268,565,5664
1644169833.696281,-0.013062,0.009521,-0.990356,0.205588,0.310229,-0.14626,43,283,580,5664
1644169833.744707,-0.00885,0.009583,-0.993286,0.35826,0.356031,-0.069924,35,277,579,5696
1644169833.79308,-0.010803,0.009583,-0.993225,0.175053,0.371298,-0.039389,43,266,578,5728
1644169833.841459,-0.011963,0.00824,-0.990356,0.159786,0.432366,-0.14626,47,282,575,5696
1644169833.889894,-0.011475,0.009827,-0.994263,0.342992,0.447634,-0.161527,47,275,577,5696
1644169833.938251,-0.010681,0.007629,-0.990479,0.175053,0.386565,-0.069924,48,279,578,5696
1644169833.986672,-0.013855,0.00946,-0.989929,0.205588,0.462901,-0.024122,47,273,582,5648
1644169834.035086,-0.011169,0.008911,-0.991943,0.205588,0.478168,-0.069924,54,270,589,5728
1644169834.085972,-0.01239,0.011719,-0.994568,0.327725,0.478168,-0.054656,54,282,591,5648
1644169834.132297,-0.012085,0.008362,-0.990051,0.35826,0.279695,-0.268397,43,276,578,5648
1644169834.181974,-0.011536,0.008911,-0.993896,0.327725,0.447634,-0.115725,48,274,580,5648
1644169834.232323,-0.011047,0.008667,-0.993835,0.266656,0.340763,-0.069924,54,268,572,5712
1644169834.277413,-0.012024,0.009949,-0.992798,0.220855,0.340763,-0.100458,57,268,572,5696
1644169834.37376,-0.012939,0.009216,-0.990601,0.144519,0.340763,-0.14626,47,270,575,5696
1644169834.422391,-0.01239,0.008911,-0.991089,0.327725,0.523969,-0.100458,51,288,569,5600
1644169834.470523,-0.009216,0.009644,-0.994507,0.266656,0.600305,-0.115725,55,274,578,5648
1644169834.518907,-0.013306,0.007996,-0.991028,0.327725,0.325496,-0.14626,59,277,568,5664
1644169834.567304,-0.010437,0.011292,-0.992554,0.251389,0.340763,-0.085191,45,275,572,5648
1644169834.615696,-0.008362,0.008423,-0.992249,0.220855,0.264427,-0.222595,46,274,576,5648
1644169834.664099,-0.012573,0.008484,-0.992615,0.175053,0.478168,0.006412,46,276,576,5696
1644169834.712506,-0.012207,0.00708,-0.99353,0.266656,0.325496,-0.115725,48,274,569,5648
1644169834.76086,-0.012756,0.01001,-0.991821,0.220855,0.462901,-0.100458,53,281,576,5712
1644169834.809313,-0.009338,0.012024,-0.994934,0.35826,0.386565,-0.192061,55,274,573,5648
1644169834.857704,-0.010132,0.007629,-0.990356,0.205588,0.340763,-0.176794,61,265,582,5696
1644169834.906087,-0.012817,0.006531,-0.991333,0.220855,0.340763,-0.14626,53,276,583,5664
1644169834.954485,-0.010864,0.009216,-0.990417,0.190321,0.401832,-0.024122,55,264,576,5648
1644169835.002879,-0.010925,0.008606,-0.9953,0.297191,0.386565,-0.115725,57,277,572,5712
1644169835.060639,-0.012024,0.011597,-0.99054,0.236122,0.554504,-0.207328,45,277,579,5696
1644169835.100209,-0.011658,0.007507,-0.99115,0.205588,0.371298,-0.100458,40,270,579,5696
1644169835.148001,-0.013123,0.01001,-0.993835,0.113985,0.386565,-0.054656,51,279,566,5696
1644169835.196395,-0.012634,0.010071,-0.98822,0.144519,0.401832,-0.039389,47,273,582,5696
1644169835.245727,-0.011841,0.010437,-0.993286,0.35826,0.24916,-0.14626,49,282,577,5648
1644169835.293269,-0.007812,0.009644,-0.991516,0.236122,0.447634,-0.115725,55,286,587,5600
1644169835.34329,-0.011719,0.010376,-0.994812,0.281924,0.432366,-0.085191,48,281,566,5648
1644169835.393576,-0.009949,0.008667,-0.992737,0.190321,0.294962,-0.115725,57,268,582,5712
1644169835.438618,-0.010071,0.009521,-0.993225,0.46513,0.233893,-0.115725,60,283,571,5648
1644169835.53535,-0.011597,0.009216,-0.993103,0.312458,0.340763,-0.039389,51,266,571,5696
1644169835.583521,-0.010742,0.007935,-0.989685,0.236122,0.447634,-0.069924,57,277,577,5648
1644169835.631901,-0.012329,0.009155,-0.989563,0.190321,0.493435,-0.14626,53,271,585,5648
1644169835.680279,-0.010193,0.011353,-0.990173,0.281924,0.523969,0.021679,39,281,571,5696
1644169835.728679,-0.010559,0.009705,-0.991882,0.175053,0.508702,-0.14626,49,277,584,5696
1644169835.777076,-0.013428,0.010437,-0.990845,0.297191,0.310229,-0.100458,51,271,569,5664
1644169835.825504,-0.011108,0.00824,-0.991394,0.190321,0.325496,-0.115725,42,282,575,5808
1644169835.873914,-0.011841,0.008789,-0.99231,0.373527,0.371298,-0.039389,51,276,566,5664
1644169835.922297,-0.012085,0.008301,-0.993347,0.159786,0.340763,-0.039389,51,281,569,5584
1644169835.970641,-0.009583,0.007874,-0.99585,0.312458,0.340763,-0.130992,47,275,570,5696
1644169836.019066,-0.012756,0.005554,-0.99353,0.266656,0.279695,-0.100458,45,277,575,5600
1644169836.083955,-0.011292,0.011536,-0.992737,0.327725,0.356031,-0.100458,54,270,572,5664
1644169836.115829,-0.012268,0.008972,-0.991699,0.373527,0.432366,-0.024122,52,270,575,5712
1644169836.164987,-0.010925,0.009033,-0.991882,0.251389,0.310229,-0.085191,52,270,572,5696
1644169836.215239,-0.012329,0.006165,-0.993713,0.281924,0.432366,-0.161527,46,269,578,5664
1644169836.265369,-0.009094,0.00946,-0.993042,0.129252,0.294962,-0.130992,55,271,583,5696
1644169836.310417,-0.011169,0.007751,-0.989563,0.266656,0.356031,-0.069924,58,279,566,5664
1644169836.406708,-0.011169,0.007996,-0.992737,0.251389,0.417099,-0.069924,41,266,573,5648
1644169836.454512,-0.012085,0.007568,-0.992126,0.052916,0.462901,-0.14626,52,273,582,5600
1644169836.502969,-0.010254,0.008911,-0.993591,0.159786,0.417099,-0.008855,47,280,565,5712
1644169836.551322,-0.010681,0.009521,-0.992493,0.159786,0.310229,0.021679,47,275,572,5664
1644169836.599728,-0.009277,0.00824,-0.989319,0.159786,0.539237,-0.100458,47,268,579,5664
1644169836.648103,-0.013672,0.009827,-0.990662,0.113985,0.432366,-0.085191,43,264,580,5696
1644169836.696494,-0.009583,0.010437,-0.992798,0.236122,0.401832,-0.130992,45,270,577,5664
1644169836.744886,-0.008972,0.006714,-0.99353,0.205588,0.310229,-0.161527,49,277,584,5696
1644169836.793293,-0.013428,0.009644,-0.994263,0.159786,0.356031,-0.085191,48,281,580,5648
1644169836.841686,-0.012268,0.006531,-0.992798,0.190321,0.493435,-0.130992,49,270,572,5712
1644169836.890084,-0.012573,0.009888,-0.994385,0.236122,0.493435,-0.115725,45,273,584,5696
1644169836.938484,-0.009888,0.009766,-0.992493,0.236122,0.356031,0.052214,51,274,580,5664
1644169836.986876,-0.011047,0.007996,-0.992859,0.312458,0.508702,-0.115725,41,259,569,5664
1644169837.03526,-0.012085,0.008057,-0.989075,0.236122,0.401832,-0.008855,46,271,583,5648
1644169837.083722,-0.008789,0.009949,-0.992004,0.144519,0.462901,-0.161527,52,277,584,5696
1644169837.131985,-0.010864,0.00824,-0.989868,0.129252,0.432366,-0.039389,52,273,579,5600
1644169837.180403,-0.008972,0.010193,-0.992737,0.08345,0.401832,0.036947,53,271,583,5664
1644169837.228795,-0.010132,0.009827,-0.990234,0.129252,0.462901,-0.054656,49,270,565,5664
1644169837.27718,-0.010986,0.010681,-0.993286,0.190321,0.356031,-0.085191,45,270,577,5664
1644169837.327024,-0.008667,0.010986,-0.992859,0.144519,0.401832,-0.192061,59,265,570,5664
1644169837.377578,-0.010864,0.008362,-0.993347,0.144519,0.401832,-0.115725,43,279,576,5696
1644169837.422804,-0.01416,0.007019,-0.995483,0.281924,0.462901,-0.024122,55,271,571,5648
1644169837.519125,-0.012268,0.007568,-0.992432,0.297191,0.371298,-0.085191,43,276,585,5664
1644169837.567513,-0.009399,0.009338,-0.991333,0.419328,0.386565,-0.039389,41,266,585,5600
1644169837.615899,-0.012695,0.007751,-0.991394,0.144519,0.554504,0.021679,49,265,570,5584
1644169837.66431,-0.010254,0.00824,-0.993896,0.327725,0.447634,-0.054656,48,271,580,5696
1644169837.712693,-0.008728,0.009705,-0.992493,0.312458,0.401832,-0.115725,51,271,571,5664
1644169837.761076,-0.012817,0.00885,-0.989929,0.35826,0.432366,-0.100458,53,274,578,5648
1644169837.809481,-0.010559,0.011963,-0.993164,0.281924,0.279695,-0.115725,41,281,578,5696
1644169837.857914,-0.010864,0.010315,-0.992126,0.220855,0.401832,-0.085191,55,269,576,5664
1644169837.906289,-0.011414,0.011353,-0.99231,0.297191,0.401832,-0.008855,51,279,569,5648
1644169837.954754,-0.011475,0.008484,-0.990662,0.266656,0.310229,-0.054656,46,274,578,5648
1644169838.003094,-0.012207,0.010803,-0.992065,0.281924,0.417099,-0.115725,55,271,583,5712
1644169838.065127,-0.01178,0.010437,-0.992432,0.175053,0.523969,0.143817,55,276,573,5648
1644169838.103683,-0.009216,0.009644,-0.99231,0.190321,0.462901,-0.130992,49,273,577,5584
1644169838.148216,-0.00946,0.012939,-0.992371,0.266656,0.523969,-0.130992,52,263,584,5696
1644169838.196605,-0.010986,0.00885,-0.994629,0.220855,0.508702,-0.008855,52,270,584,5728
1644169838.245035,-0.008118,0.011169,-0.993286,0.098718,0.325496,-0.207328,49,285,579,5664
1644169838.293384,-0.009949,0.009277,-0.993408,0.251389,0.371298,-0.176794,51,279,580,5632
1644169838.341769,-0.012878,0.011047,-0.99231,0.510931,0.310229,-0.115725,51,271,578,5664
1644169838.390127,-0.008484,0.009399,-0.989502,0.281924,0.371298,-0.14626,59,277,570,5664
1644169838.438697,-0.015442,0.008179,-0.992371,0.251389,0.24916,-0.085191,52,273,572,5648
1644169838.489597,-0.011047,0.01001,-0.99231,0.312458,0.432366,-0.192061,43,279,580,5664
1644169838.539315,-0.010437,0.010864,-0.99408,0.266656,0.539237,-0.222595,43,269,585,5648
1644169838.58437,-0.011353,0.007507,-0.992004,0.251389,0.294962,-0.222595,53,283,573,5664
1644169838.680506,-0.011658,0.009033,-0.992371,0.190321,0.447634,-0.14626,40,265,572,5648
1644169838.728894,-0.010803,0.007446,-0.99292,0.08345,0.508702,-0.130992,53,274,573,5648
1644169838.77727,-0.006775,0.008362,-0.990173,0.327725,0.447634,-0.100458,48,276,571,5696
1644169838.825679,-0.011536,0.009216,-0.990906,0.251389,0.493435,-0.039389,52,275,568,5696
1644169838.87411,-0.007507,0.009644,-0.990479,0.129252,0.554504,-0.176794,47,270,584,5648
1644169838.922527,-0.013062,0.009521,-0.993896,0.236122,0.325496,-0.344733,40,275,570,5696
1644169838.970893,-0.010132,0.008179,-0.992554,0.266656,0.447634,-0.085191,62,281,583,5632
1644169839.019299,-0.01001,0.007324,-0.994446,0.190321,0.386565,0.052214,45,268,577,5728
1644169839.069442,-0.012451,0.007935,-0.994324,0.419328,0.325496,-0.130992,48,279,580,5632
1644169839.116054,-0.013123,0.008484,-0.992615,0.266656,0.493435,-0.14626,47,287,579,5648
1644169839.164433,-0.010986,0.01001,-0.99231,0.312458,0.539237,0.082748,51,283,571,5648
1644169839.212836,-0.010864,0.009155,-0.99292,0.144519,0.294962,-0.130992,51,274,571,5648
1644169839.261172,-0.012024,0.011902,-0.994263,0.175053,0.294962,-0.054656,49,287,582,5648
1644169839.309559,-0.010986,0.007446,-0.992249,0.266656,0.417099,-0.054656,53,283,578,5712
1644169839.357967,-0.010315,0.007446,-0.990051,0.175053,0.401832,-0.192061,54,273,591,5632
1644169839.406364,-0.009094,0.007324,-0.991516,0.220855,0.279695,-0.008855,53,271,580,5648
1644169839.454769,-0.013306,0.01001,-0.993042,0.220855,0.24916,-0.130992,43,266,576,5648
1644169839.503127,-0.010498,0.009766,-0.991638,0.266656,0.310229,-0.207328,54,268,582,5632
1644169839.551846,-0.010681,0.010315,-0.992065,0.266656,0.447634,-0.085191,45,268,575,5696
1644169839.602545,-0.011108,0.007874,-0.993347,0.129252,0.356031,-0.100458,49,268,579,5648
1644169839.653149,-0.01062,0.009033,-0.991211,0.35826,0.539237,-0.008855,54,277,572,5664
1644169839.697727,-0.008728,0.010071,-0.990479,0.266656,0.340763,-0.176794,42,273,572,5696
1644169839.793486,-0.010254,0.008728,-0.99054,0.312458,0.539237,-0.069924,48,266,578,5664
1644169839.841879,-0.010803,0.009277,-0.989868,0.205588,0.417099,-0.192061,41,271,576,5664
1644169839.890315,-0.01123,0.010925,-0.992493,0.281924,0.554504,-0.039389,45,280,570,5664
1644169839.938714,-0.010742,0.010132,-0.994202,0.281924,0.356031,-0.085191,46,269,576,5664
1644169839.987092,-0.012329,0.008972,-0.994629,0.35826,0.401832,0.113282,49,273,575,5696
1644169840.035484,-0.009888,0.00824,-0.993103,0.266656,0.417099,-0.054656,59,275,577,5664
1644169840.087118,-0.010681,0.008667,-0.992371,0.098718,0.447634,-0.130992,42,282,577,5600
1644169840.132306,-0.008789,0.007507,-0.991577,0.175053,0.371298,-0.085191,46,271,571,5664
1644169840.180627,-0.012268,0.006531,-0.993225,0.205588,0.493435,-0.054656,54,280,586,5648
1644169840.228985,-0.009827,0.007141,-0.995483,0.342992,0.279695,-0.069924,54,265,579,5648
1644169840.277372,-0.010681,0.008972,-0.994751,0.251389,0.371298,-0.054656,48,276,590,5712
1644169840.3258,-0.010681,0.007141,-0.99469,0.144519,0.447634,-0.130992,48,269,573,5696
1644169840.374175,-0.010864,0.006897,-0.993958,0.281924,0.462901,-0.054656,58,269,580,5600
1644169840.422613,-0.007019,0.009277,-0.992554,0.297191,0.447634,-0.008855,42,275,572,5648
1644169840.471357,-0.006409,0.009338,-0.99115,0.266656,0.508702,-0.054656,46,271,576,5728
1644169840.521859,-0.008606,0.008728,-0.991028,0.236122,0.279695,-0.100458,55,271,578,5696
1644169840.572062,-0.011475,0.011047,-0.989319,0.312458,0.508702,-0.115725,51,264,580,5696
1644169840.617224,-0.009521,0.009338,-0.989441,0.251389,0.356031,-0.130992,54,282,570,5664
1644169840.712928,-0.009583,0.009521,-0.991455,0.251389,0.432366,-0.207328,53,266,585,5664
1644169840.761284,-0.007507,0.008545,-0.993469,0.281924,0.585038,-0.085191,49,270,570,5728
1644169840.809686,-0.006714,0.010071,-0.993591,0.297191,0.493435,-0.039389,46,266,573,5664
1644169840.858056,-0.009827,0.009033,-0.992798,0.342992,0.371298,-0.085191,52,275,577,5664
1644169840.906514,-0.009521,0.008057,-0.990295,0.236122,0.417099,-0.054656,46,281,571,5664
1644169840.9549,-0.005249,0.009277,-0.991211,0.281924,0.325496,-0.054656,48,274,576,5664
1644169841.003289,-0.010559,0.012146,-0.990723,0.312458,0.462901,-0.054656,55,271,576,5632
1644169841.059241,-0.013245,0.007507,-0.991577,0.251389,0.325496,-0.192061,54,280,565,5760
1644169841.100065,-0.011414,0.008179,-0.991577,0.236122,0.325496,-0.115725,53,271,571,5712
1644169841.148467,-0.012146,0.011658,-0.98877,0.144519,0.478168,-0.176794,54,275,575,5648
1644169841.196866,-0.012329,0.008423,-0.990295,0.312458,0.294962,-0.161527,40,270,579,5648
1644169841.245319,-0.009705,0.01062,-0.992859,0.175053,0.310229,-0.14626,58,286,573,5696
1644169841.293657,-0.011841,0.010376,-0.989014,0.281924,0.432366,0.006412,55,274,573,5600
1644169841.34203,-0.009399,0.00824,-0.992188,0.327725,0.356031,-0.161527,59,273,572,5696
1644169841.390428,-0.010864,0.009583,-0.991455,0.327725,0.508702,-0.176794,49,270,577,5664
1644169841.438789,-0.009521,0.006958,-0.992554,0.35826,0.294962,-0.039389,48,274,566,5664
1644169841.487169,-0.011169,0.010132,-0.990723,0.266656,0.386565,-0.207328,58,274,566,5648
1644169841.53569,-0.012024,0.009155,-0.990479,0.297191,0.401832,-0.039389,45,280,579,5696
1644169841.583989,-0.009705,0.009338,-0.991882,0.159786,0.340763,-0.161527,51,266,578,5696
1644169841.634021,-0.009338,0.009338,-0.990356,0.266656,0.279695,-0.115725,46,266,585,5696
1644169841.68422,-0.007263,0.009949,-0.992615,0.144519,0.294962,-0.130992,46,266,583,5696
1644169841.734406,-0.013184,0.00885,-0.996277,0.220855,0.417099,-0.161527,58,276,573,5664
1644169841.778965,-0.01239,0.01001,-0.991028,0.220855,0.325496,0.082748,54,265,570,5600
1644169841.874336,-0.009399,0.009094,-0.99054,0.327725,0.294962,-0.207328,55,279,576,5696
1644169841.92278,-0.012878,0.009399,-0.990479,0.190321,0.279695,-0.100458,51,274,564,5648
1644169841.971103,-0.011108,0.007629,-0.992981,0.190321,0.356031,-0.039389,53,276,571,5696
1644169842.019498,-0.011658,0.008057,-0.99115,0.175053,0.569771,-0.192061,55,274,573,5728
1644169842.068503,-0.010132,0.008972,-0.991394,0.159786,0.539237,0.052214,53,264,580,5696
1644169842.116241,-0.009399,0.010498,-0.992126,0.175053,0.462901,-0.192061,42,275,568,5600
1644169842.164643,-0.009094,0.011292,-0.991577,0.220855,0.462901,-0.054656,45,275,579,5696
1644169842.213028,-0.010803,0.006897,-0.992676,0.281924,0.432366,-0.14626,45,265,575,5728
1644169842.261407,-0.013245,0.009644,-0.992249,0.236122,0.356031,-0.085191,45,270,568,5648
1644169842.309803,-0.007874,0.010315,-0.989258,0.251389,0.493435,-0.039389,36,276,576,5648
1644169842.3582,-0.010559,0.009216,-0.992493,0.205588,0.478168,-0.115725,47,270,582,5712
1644169842.406586,-0.00946,0.008606,-0.990295,0.175053,0.340763,-0.008855,46,279,573,5696
1644169842.455007,-0.008301,0.010193,-0.991882,0.297191,0.462901,-0.115725,54,277,582,5648
1644169842.503376,-0.013611,0.007202,-0.992493,0.190321,0.539237,0.113282,62,279,583,5648
1644169842.551741,-0.009888,0.010742,-0.989685,0.205588,0.417099,0.021679,47,270,575,5664
1644169842.600126,-0.00885,0.010925,-0.992615,0.297191,0.447634,-0.14626,60,279,573,5728
1644169842.648542,-0.011597,0.00946,-0.990051,0.129252,0.462901,-0.085191,62,274,576,5648
1644169842.696937,-0.00946,0.007446,-0.98999,0.297191,0.371298,0.067481,46,271,566,5600
1644169842.745739,-0.008118,0.010132,-0.992249,0.281924,0.493435,-0.115725,54,273,572,5648
1644169842.796874,-0.009644,0.008606,-0.994202,0.113985,0.478168,-0.130992,54,265,572,5664
1644169842.847351,-0.009827,0.013,-0.991028,0.281924,0.340763,-0.237863,54,277,570,5664
1644169842.891837,-0.013733,0.00946,-0.991089,0.266656,0.371298,-0.25313,58,283,573,5664
1644169842.987306,-0.010742,0.008301,-0.994324,0.113985,0.325496,-0.14626,55,271,573,5728
1644169843.035683,-0.012695,0.01001,-0.992188,0.144519,0.371298,0.036947,51,274,580,5632
1644169843.084472,-0.010132,0.010864,-0.989319,0.327725,0.371298,-0.024122,47,270,584,5664
1644169843.132423,-0.010132,0.008484,-0.993286,0.190321,0.356031,-0.192061,47,273,579,5696
1644169843.180823,-0.011414,0.005981,-0.991577,0.190321,0.340763,-0.054656,51,279,573,5632
1644169843.229221,-0.010864,0.008362,-0.992188,0.266656,0.569771,-0.039389,48,276,571,5712
1644169843.277586,-0.010742,0.006165,-0.992371,0.251389,0.340763,-0.085191,47,277,570,5664
1644169843.325986,-0.012024,0.009583,-0.990906,0.220855,0.523969,-0.161527,57,275,579,5648
1644169843.374381,-0.008484,0.009338,-0.990906,0.266656,0.279695,-0.054656,49,263,577,5648
1644169843.422803,-0.008301,0.010986,-0.993042,0.159786,0.493435,-0.085191,51,279,580,5648
1644169843.47119,-0.007751,0.010315,-0.993774,0.266656,0.493435,-0.069924,51,276,583,5664
1644169843.519572,-0.010803,0.008789,-0.990417,0.327725,0.554504,0.006412,53,254,576,5664
1644169843.567958,-0.010742,0.009033,-0.993042,0.129252,0.478168,-0.054656,45,277,572,5696
1644169843.616347,-0.009949,0.009338,-0.989685,0.205588,0.356031,-0.069924,49,270,565,5648
1644169843.664751,-0.008362,0.008362,-0.990479,0.251389,0.371298,-0.176794,49,275,579,5648
1644169843.713113,-0.00946,0.007385,-0.991821,0.175053,0.340763,0.052214,49,273,582,5648
1644169843.761512,-0.009399,0.009766,-0.992554,0.205588,0.340763,-0.161527,40,275,577,5696
1644169843.809956,-0.011536,0.00946,-0.99408,0.144519,0.478168,0.098015,47,270,575,5696
1644169843.858725,-0.010437,0.010376,-0.994507,0.236122,0.447634,0.006412,54,277,575,5664
1644169843.909076,-0.010315,0.010498,-0.992432,0.236122,0.478168,-0.039389,43,274,569,5600
1644169843.959347,-0.012085,0.009338,-0.988159,0.190321,0.325496,-0.085191,53,279,578,5696
1644169844.059854,-0.010254,0.007935,-0.991516,0.342992,0.264427,0.052214,48,271,571,5648
1644169844.100241,-0.010437,0.007507,-0.992981,0.236122,0.24916,-0.237863,55,276,592,5600
1644169844.148653,-0.01123,0.012268,-0.990051,0.281924,0.478168,-0.054656,49,268,568,5600
1644169844.197028,-0.011169,0.007996,-0.993042,0.251389,0.325496,-0.176794,48,266,573,5600
1644169844.245393,-0.010681,0.008057,-0.990784,0.251389,0.371298,-0.069924,58,279,571,5696
1644169844.293814,-0.01062,0.00946,-0.990173,0.098718,0.401832,-0.085191,46,266,576,5648
1644169844.342233,-0.010254,0.006348,-0.991089,0.266656,0.386565,-0.039389,47,277,579,5648
1644169844.390601,-0.011353,0.011292,-0.992493,0.144519,0.401832,-0.161527,48,264,578,5696
1644169844.439002,-0.012756,0.010315,-0.991333,0.266656,0.478168,-0.115725,58,274,566,5632
1644169844.487387,-0.00946,0.007751,-0.991333,0.297191,0.417099,-0.130992,42,275,579,5648
1644169844.535767,-0.00885,0.010803,-0.992065,0.297191,0.371298,0.113282,48,276,578,5712
1644169844.584166,-0.009033,0.010071,-0.991943,0.205588,0.371298,-0.130992,51,281,580,5664
1644169844.632537,-0.010803,0.007812,-0.990906,0.220855,0.356031,-0.100458,48,276,573,5648
1644169844.680928,-0.012451,0.007874,-0.992249,0.297191,0.462901,-0.161527,46,269,587,5664
1644169844.72935,-0.011353,0.010315,-0.99408,0.144519,0.356031,-0.161527,60,276,585,5760
1644169844.778155,-0.010193,0.006897,-0.994019,0.342992,0.554504,-0.25313,46,266,578,5664
1644169844.829577,-0.01239,0.010986,-0.991577,0.129252,0.417099,-0.100458,52,265,584,5664
1644169844.879685,-0.009338,0.008972,-0.991516,0.312458,0.340763,-0.054656,54,273,572,5664
1644169844.924225,-0.00708,0.009766,-0.991394,0.175053,0.508702,-0.054656,51,269,576,5648
1644169845.019721,-0.009399,0.009644,-0.992371,0.190321,0.325496,-0.039389,51,279,562,5648
1644169845.068422,-0.01062,0.00946,-0.992737,0.266656,0.356031,0.006412,57,273,575,5696
1644169845.116441,-0.010559,0.006775,-0.992615,0.251389,0.325496,-0.130992,47,280,586,5648
1644169845.164858,-0.011963,0.00946,-0.992676,0.281924,0.554504,-0.115725,49,273,570,5664
1644169845.213238,-0.012878,0.00885,-0.992126,0.205588,0.523969,-0.039389,47,282,582,5632
1644169845.261619,-0.010071,0.010315,-0.990723,0.342992,0.432366,-0.207328,47,268,577,5664
1644169845.310004,-0.007629,0.011169,-0.992676,0.434595,0.432366,-0.222595,52,273,568,5648
1644169845.358421,-0.009521,0.010315,-0.990845,0.266656,0.386565,-0.130992,47,273,563,5664
1644169845.406807,-0.009277,0.011414,-0.991028,0.129252,0.310229,-0.176794,51,276,571,5648
1644169845.455285,-0.012756,0.011841,-0.98938,0.297191,0.218626,-0.039389,48,269,578,5648
1644169845.503608,-0.009521,0.00824,-0.991272,0.220855,0.752977,-0.039389,55,266,583,5600
1644169845.551974,-0.013,0.008606,-0.990601,0.220855,0.386565,-0.054656,48,274,573,5664
1644169845.600362,-0.010193,0.012329,-0.993103,0.236122,0.340763,-0.115725,55,276,583,5600
1644169845.648751,-0.009583,0.00946,-0.991394,0.236122,0.325496,-0.069924,53,266,592,5632
1644169845.697134,-0.009827,0.010315,-0.992493,0.342992,0.386565,0.006412,40,263,579,5648
1644169845.745533,-0.009583,0.010071,-0.991333,0.098718,0.447634,-0.115725,54,270,579,5664
1644169845.793927,-0.008728,0.01001,-0.987305,0.281924,0.371298,-0.100458,54,285,577,5648
1644169845.842377,-0.009338,0.009094,-0.990356,-0.02342,0.432366,-0.115725,54,275,570,5760
1644169845.89079,-0.011169,0.007996,-0.99353,0.327725,0.233893,-0.207328,57,270,589,5648
1644169845.939959,-0.010193,0.010559,-0.990601,0.251389,0.356031,-0.054656,57,285,582,5648
1644169845.990371,-0.010681,0.009338,-0.987671,0.342992,0.371298,0.006412,52,265,570,5712
1644169846.040831,-0.01062,0.009888,-0.99231,0.159786,0.325496,-0.100458,49,282,579,5664
1644169846.091106,-0.009521,0.010803,-0.991089,0.297191,0.478168,-0.069924,49,275,579,5664
1644169846.181033,-0.011719,0.012512,-0.992493,0.327725,0.371298,-0.008855,57,273,575,5664
1644169846.229433,-0.008972,0.007568,-0.99353,0.220855,0.432366,-0.283664,62,274,571,5584
1644169846.277815,-0.011353,0.012329,-0.994019,0.08345,0.386565,-0.192061,41,274,573,5664
1644169846.326199,-0.01239,0.009705,-0.989624,0.175053,0.264427,-0.054656,58,281,571,5728
1644169846.374632,-0.005615,0.01001,-0.990051,0.205588,0.401832,-0.054656,47,270,568,5696
1644169846.423026,-0.013489,0.008728,-0.990234,0.113985,0.432366,-0.085191,55,276,576,5664
1644169846.471398,-0.005859,0.010681,-0.991882,0.068183,0.63084,-0.222595,43,281,573,5648
1644169846.51977,-0.010132,0.007019,-0.991394,0.266656,0.493435,-0.14626,54,265,577,5648
1644169846.568178,-0.013367,0.008789,-0.99115,0.266656,0.508702,-0.054656,60,266,573,5664
1644169846.616557,-0.008545,0.00824,-0.992554,0.281924,0.294962,0.006412,48,262,573,5584
1644169846.665081,-0.010864,0.011475,-0.992554,0.129252,0.294962,-0.085191,48,271,573,5600
1644169846.713361,-0.013367,0.008362,-0.990845,0.35826,0.539237,-0.25313,49,268,575,5600
1644169846.761719,-0.008301,0.007874,-0.992004,0.297191,0.401832,-0.115725,48,279,580,5696
1644169846.810129,-0.011597,0.010559,-0.992676,0.281924,0.340763,-0.069924,54,280,572,5696
1644169846.858564,-0.010986,0.01001,-0.992188,0.297191,0.523969,-0.176794,43,262,573,5648
1644169846.906945,-0.006836,0.009888,-0.993896,0.327725,0.417099,-0.115725,47,270,584,5664
1644169846.955473,-0.010864,0.011169,-0.990784,0.266656,0.447634,-0.085191,46,276,578,5664
1644169847.003995,-0.01062,0.009399,-0.992737,0.113985,0.279695,-0.069924,48,264,583,5648
1644169847.100488,-0.009827,0.009583,-0.99292,0.297191,0.478168,-0.115725,49,280,582,5664
1644169847.148861,-0.011902,0.005249,-0.994385,0.159786,0.447634,-0.100458,40,280,570,5648
1644169847.19724,-0.011047,0.008972,-0.992432,0.251389,0.356031,-0.192061,58,274,576,5712
1644169847.245631,-0.012024,0.011169,-0.992737,0.175053,0.340763,-0.130992,51,281,571,5696
1644169847.294037,-0.009583,0.009277,-0.989502,0.312458,0.401832,-0.161527,39,266,576,5760
1644169847.342443,-0.009644,0.009399,-0.990417,0.144519,0.325496,-0.115725,41,271,576,5696
1644169847.390826,-0.010437,0.012695,-0.991638,0.297191,0.356031,0.067481,45,268,584,5760
1644169847.43922,-0.01123,0.008911,-0.994995,0.175053,0.417099,-0.192061,52,265,570,5648
1644169847.487601,-0.010193,0.010437,-0.992065,0.251389,0.600305,-0.085191,47,275,582,5648
1644169847.535986,-0.009521,0.010742,-0.993225,0.297191,0.386565,-0.054656,41,266,576,5728
1644169847.584352,-0.010376,0.009399,-0.990112,0.266656,0.478168,-0.130992,46,279,573,5664
1644169847.632776,-0.00946,0.009033,-0.989563,0.159786,0.417099,-0.115725,58,279,576,5696
1644169847.681177,-0.01062,0.009827,-0.993225,0.342992,0.478168,-0.100458,48,266,578,5648
1644169847.729551,-0.011536,0.011597,-0.992432,0.159786,0.493435,-0.161527,49,268,568,5648
1644169847.777948,-0.007996,0.007812,-0.994019,0.251389,0.523969,-0.085191,45,268,582,5648
1644169847.826333,-0.010864,0.009521,-0.989929,0.220855,0.386565,-0.192061,64,270,572,5696
1644169847.874781,-0.009155,0.006958,-0.992493,0.129252,0.264427,0.036947,52,270,577,5648
1644169847.923163,-0.008606,0.009766,-0.990906,0.35826,0.432366,-0.115725,57,280,575,5664
1644169847.971557,-0.01001,0.010925,-0.992371,0.236122,0.508702,0.006412,52,270,582,5712
1644169848.020759,-0.010742,0.007568,-0.990723,0.251389,0.340763,-0.085191,53,276,578,5648
1644169848.080302,-0.009705,0.008423,-0.991089,0.159786,0.294962,-0.161527,57,273,572,5584
1644169848.121831,-0.012756,0.008545,-0.992126,0.113985,0.432366,-0.039389,53,269,583,5696
1644169848.166733,-0.01123,0.011841,-0.993347,0.129252,0.508702,-0.115725,42,275,568,5712
1644169848.261828,-0.01062,0.011597,-0.992615,0.251389,0.508702,-0.130992,53,271,578,5632
1644169848.310223,-0.011841,0.008484,-0.989258,0.113985,0.386565,-0.130992,42,275,570,5664
1644169848.358617,-0.00824,0.012207,-0.994446,0.236122,0.401832,0.098015,43,279,580,5648
1644169848.407013,-0.00824,0.008972,-0.991028,0.220855,0.356031,-0.069924,48,281,580,5664
1644169848.455411,-0.008667,0.008972,-0.991394,0.129252,0.478168,-0.008855,45,273,572,5664
1644169848.5038,-0.009949,0.010254,-0.991394,0.08345,0.371298,-0.085191,48,274,578,5648
1644169848.552196,-0.012573,0.007874,-0.993042,0.236122,0.432366,-0.085191,51,281,566,5664
1644169848.600583,-0.010437,0.009399,-0.99115,0.159786,0.325496,-0.115725,49,270,575,5648
1644169848.648969,-0.009216,0.010132,-0.988892,0.129252,0.401832,-0.069924,51,271,578,5664
1644169848.69737,-0.007507,0.007263,-0.994141,0.342992,0.356031,-0.024122,47,270,565,5648
1644169848.745735,-0.011047,0.009216,-0.993896,0.266656,0.508702,-0.100458,59,268,577,5696
1644169848.794171,-0.011536,0.010803,-0.992126,0.159786,0.615573,-0.008855,39,269,576,5664
1644169848.842516,-0.010132,0.009216,-0.990784,0.327725,0.447634,-0.283664,52,270,579,5696
1644169848.89097,-0.01001,0.009399,-0.992432,0.266656,0.371298,-0.176794,43,281,571,5664
1644169848.939355,-0.011414,0.010559,-0.99231,0.251389,0.340763,-0.039389,52,273,570,5648
1644169848.98775,-0.009705,0.010376,-0.992249,0.35826,0.401832,-0.039389,54,270,579,5664
1644169849.036126,-0.011047,0.007996,-0.993103,0.281924,0.371298,0.006412,52,277,584,5664
1644169849.086983,-0.007996,0.009644,-0.993225,0.190321,0.508702,0.021679,48,271,583,5696
1644169849.133201,-0.008667,0.011597,-0.989624,0.327725,0.478168,-0.207328,46,266,585,5632
1644169849.181852,-0.011475,0.010559,-0.992249,0.144519,0.417099,-0.130992,52,273,568,5664
1644169849.232512,-0.009277,0.010498,-0.988403,0.236122,0.539237,-0.314198,58,266,576,5632
1644169849.282825,-0.01001,0.010803,-0.989563,0.113985,0.310229,-0.024122,47,273,579,5696
1644169849.327772,-0.005981,0.011047,-0.992798,0.404061,0.401832,0.036947,51,271,578,5728
1644169849.423234,-0.010315,0.01123,-0.991272,0.205588,0.462901,-0.14626,47,277,572,5584
1644169849.471582,-0.007629,0.010925,-0.991699,0.175053,0.401832,-0.115725,49,273,570,5664
1644169849.519988,-0.012268,0.010986,-0.99408,0.281924,0.585038,0.052214,51,271,573,5664
1644169849.568376,-0.009583,0.009766,-0.992676,0.113985,0.478168,-0.25313,52,277,575,5712
1644169849.616769,-0.009033,0.011841,-0.990601,0.236122,0.432366,-0.176794,60,271,580,5648
1644169849.665168,-0.012329,0.009705,-0.989685,0.281924,0.462901,-0.115725,49,270,575,5664
1644169849.713565,-0.011047,0.009888,-0.991211,0.251389,0.493435,0.036947,54,277,575,5728
1644169849.761954,-0.012695,0.007141,-0.991943,0.35826,0.417099,-0.008855,57,277,575,5760
1644169849.810385,-0.01178,0.009583,-0.991211,0.251389,0.401832,0.036947,62,271,571,5648
1644169849.858836,-0.012268,0.009338,-0.990845,0.159786,0.523969,0.021679,61,277,570,5664
1644169849.907166,-0.010071,0.009521,-0.99176,0.388794,0.478168,-0.054656,57,273,575,5664
1644169849.955558,-0.011597,0.012817,-0.991882,0.175053,0.264427,-0.207328,57,273,575,5648
1644169850.003953,-0.009399,0.012207,-0.992126,0.113985,0.539237,-0.176794,52,275,575,5728
1644169850.065012,-0.011414,0.010254,-0.992432,0.236122,0.432366,0.021679,55,274,585,5696
1644169850.102546,-0.010071,0.009583,-0.992798,0.190321,0.310229,-0.054656,59,273,579,5664
1644169850.149085,-0.010925,0.010681,-0.992615,0.098718,0.401832,-0.069924,53,269,569,5664
1644169850.197465,-0.01178,0.011169,-0.992798,0.373527,0.432366,-0.176794,48,274,580,5664
1644169850.245861,-0.009094,0.008179,-0.991333,0.281924,0.432366,-0.085191,48,276,578,5664
1644169850.294249,-0.011597,0.009644,-0.99054,0.327725,0.371298,-0.100458,49,263,575,5664
1644169850.34294,-0.009216,0.009277,-0.992004,0.144519,0.447634,-0.024122,55,276,576,5664
1644169850.393476,-0.008301,0.00708,-0.994141,0.190321,0.340763,-0.100458,48,279,578,5712
1644169850.444447,-0.008545,0.009338,-0.992371,0.205588,0.401832,-0.14626,53,274,573,5648
1644169850.536178,-0.010925,0.009216,-0.991943,0.327725,0.417099,-0.14626,49,273,577,5584
1644169850.584839,-0.008728,0.010437,-0.988892,0.251389,0.447634,-0.024122,58,274,573,5664
1644169850.632989,-0.009399,0.007202,-0.99054,0.297191,0.462901,-0.222595,42,268,577,5648
1644169850.681363,-0.00769,0.009705,-0.993225,0.190321,0.554504,-0.039389,51,271,573,5696
1644169850.729734,-0.00946,0.008972,-0.992493,0.220855,0.401832,-0.039389,48,276,578,5696
1644169850.778158,-0.011536,0.009705,-0.99054,0.312458,0.340763,-0.14626,58,262,576,5664
1644169850.82659,-0.010437,0.009888,-0.990662,0.35826,0.340763,-0.054656,49,273,572,5600
1644169850.875257,-0.009949,0.007202,-0.988342,0.281924,0.493435,-0.085191,43,259,576,5664
1644169850.923357,-0.01123,0.008911,-0.990479,0.312458,0.539237,-0.054656,49,277,575,5728
1644169850.971754,-0.009644,0.010681,-0.989746,0.159786,0.279695,-0.115725,51,271,576,5696
1644169851.020139,-0.009399,0.012024,-0.993103,0.327725,0.447634,0.021679,52,273,582,5696
1644169851.08484,-0.00946,0.00946,-0.994263,0.159786,0.462901,0.159084,48,279,587,5664
1644169851.116903,-0.009766,0.009216,-0.989624,0.144519,0.478168,-0.130992,52,270,582,5696
1644169851.165266,-0.009216,0.010315,-0.992493,0.251389,0.523969,-0.054656,47,273,589,5664
1644169851.213673,-0.011963,0.011292,-0.991333,0.342992,0.539237,-0.130992,61,282,577,5664
1644169851.262064,-0.006958,0.013123,-0.993652,0.08345,0.478168,-0.100458,49,287,577,5728
1644169851.310428,-0.01123,0.009705,-0.992615,0.175053,0.432366,-0.024122,43,281,573,5712
1644169851.358811,-0.00885,0.008972,-0.991394,0.236122,0.340763,-0.176794,45,275,584,5664
1644169851.407228,-0.01001,0.012085,-0.990967,0.266656,0.371298,0.052214,45,268,582,5648
1644169851.455655,-0.011414,0.010498,-0.992859,0.342992,0.279695,-0.130992,45,280,579,5696
1644169851.506148,-0.01123,0.010864,-0.993042,0.113985,0.401832,-0.100458,59,270,572,5664
1644169851.556229,-0.011475,0.009888,-0.992432,0.342992,0.386565,-0.130992,53,276,569,5696
1644169851.601385,-0.00946,0.009521,-0.990906,0.113985,0.401832,-0.054656,55,271,580,5696
1644169851.697555,-0.010986,0.005859,-0.994141,0.236122,0.493435,-0.176794,49,268,572,5648
1644169851.745943,-0.010437,0.007935,-0.994995,0.388794,0.493435,-0.161527,46,274,566,5696
1644169851.794348,-0.009827,0.009033,-0.991882,0.35826,0.356031,-0.130992,43,271,576,5696
1644169851.842801,-0.009277,0.01001,-0.992676,0.190321,0.417099,-0.100458,51,274,566,5664
1644169851.891176,-0.011902,0.008728,-0.99115,0.08345,0.432366,-0.024122,55,269,573,5664
1644169851.939575,-0.009644,0.009705,-0.992249,0.495664,0.493435,-0.069924,46,279,569,5696
1644169851.987947,-0.012146,0.007874,-0.99231,0.236122,0.356031,-0.130992,52,273,577,5696
1644169852.036345,-0.009094,0.009949,-0.987488,0.342992,0.462901,-0.039389,54,273,575,5712
1644169852.096073,-0.011169,0.007263,-0.989258,0.159786,0.447634,-0.130992,47,265,593,5696
1644169852.133113,-0.009399,0.009705,-0.995361,0.449863,0.462901,-0.115725,48,269,573,5648
1644169852.181476,-0.012634,0.010742,-0.990845,0.220855,0.371298,0.12855,47,265,575,5664
1644169852.229868,-0.011658,0.011353,-0.992676,0.388794,0.478168,-0.161527,55,274,583,5664
1644169852.27826,-0.009094,0.009949,-0.990601,0.312458,0.432366,0.021679,52,290,577,5712
1644169852.326653,-0.009521,0.011475,-0.993469,0.342992,0.356031,-0.161527,54,280,577,5696
1644169852.375082,-0.007996,0.011353,-0.993164,0.220855,0.462901,-0.024122,47,270,582,5696
1644169852.423685,-0.011963,0.00946,-0.99231,0.175053,0.493435,-0.039389,41,286,571,5696
1644169852.474001,-0.008423,0.009705,-0.992065,0.449863,0.447634,-0.161527,47,270,568,5648
1644169852.524192,-0.007507,0.009155,-0.99115,0.144519,0.417099,-0.069924,52,282,582,5648
1644169852.569432,-0.00824,0.005981,-0.991272,0.236122,0.386565,-0.161527,51,274,573,5696
1644169852.665407,-0.010132,0.008484,-0.990601,0.297191,0.447634,-0.115725,49,273,570,5664
1644169852.713798,-0.01001,0.008301,-0.993042,0.297191,0.478168,0.082748,52,268,563,5536
1644169852.762382,-0.01123,0.009949,-0.992676,0.312458,0.310229,0.067481,58,259,578,5712
1644169852.810546,-0.008728,0.00708,-0.991394,0.388794,0.356031,-0.024122,43,279,576,5664
1644169852.858974,-0.011292,0.008972,-0.99353,0.236122,0.401832,-0.192061,53,279,564,5648
1644169852.907377,-0.012756,0.009216,-0.990417,0.220855,0.432366,-0.192061,51,269,573,5712
1644169852.955755,-0.009827,0.008606,-0.992126,0.159786,0.462901,-0.008855,45,277,577,5648
1644169853.004133,-0.010681,0.009888,-0.993286,0.297191,0.356031,-0.054656,60,276,573,5712
1644169853.062556,-0.011108,0.010315,-0.988403,0.144519,0.417099,-0.100458,59,280,582,5712
1644169853.10321,-0.010437,0.009277,-0.991272,0.144519,0.432366,-0.115725,57,268,591,5712
1644169853.149286,-0.010437,0.012939,-0.990112,0.312458,0.371298,0.067481,41,271,569,5696
1644169853.197692,-0.008362,0.009338,-0.988464,0.388794,0.401832,-0.069924,45,275,575,5664
1644169853.246042,-0.012146,0.008911,-0.992065,0.08345,0.493435,-0.161527,47,277,575,5648
1644169853.294475,-0.01062,0.011169,-0.992859,0.220855,0.585038,-0.069924,52,275,572,5632
1644169853.342869,-0.010803,0.008728,-0.99231,0.297191,0.279695,-0.054656,62,276,573,5664
1644169853.391246,-0.009705,0.009827,-0.994141,0.312458,0.340763,-0.008855,49,280,577,5696
1644169853.439612,-0.009705,0.010681,-0.989929,0.281924,0.462901,-0.176794,64,277,575,5664
1644169853.488007,-0.009949,0.009216,-0.989441,0.35826,0.386565,-0.008855,61,270,575,5648
1644169853.536413,-0.007202,0.010681,-0.994141,0.312458,0.447634,-0.054656,53,276,576,5632
1644169853.585468,-0.010803,0.009521,-0.990723,0.342992,0.417099,-0.024122,48,276,585,5648
1644169853.636194,-0.012146,0.009521,-0.991638,0.266656,0.432366,-0.115725,57,273,584,5728
1644169853.686652,-0.009644,0.013,-0.990051,0.236122,0.554504,-0.008855,51,274,578,5664
1644169853.731189,-0.011414,0.009277,-0.990601,0.220855,0.371298,-0.069924,45,287,579,5696
1644169853.826796,-0.012817,0.01001,-0.990295,0.388794,0.371298,-0.054656,58,264,578,5712
1644169853.875484,-0.011597,0.011047,-0.991699,0.113985,0.539237,-0.176794,52,268,575,5648
1644169853.923592,-0.013916,0.009827,-0.991699,0.236122,0.294962,-0.100458,52,282,582,5648
1644169853.97196,-0.010376,0.009766,-0.995483,0.297191,0.401832,-0.039389,51,269,571,5632
1644169854.020368,-0.008301,0.007507,-0.991516,0.297191,0.615573,-0.14626,48,279,569,5696
1644169854.068798,-0.009338,0.008972,-0.990051,0.342992,0.462901,-0.115725,46,274,578,5600
1644169854.117148,-0.011353,0.010437,-0.989563,0.373527,0.371298,-0.100458,48,262,585,5696
1644169854.165491,-0.013916,0.010132,-0.99231,0.251389,0.371298,-0.161527,47,275,570,5696
1644169854.213884,-0.008484,0.009033,-0.992493,0.281924,0.508702,0.082748,52,280,565,5664
1644169854.262288,-0.009521,0.008972,-0.989258,0.251389,0.523969,-0.130992,49,275,579,5664
1644169854.310668,-0.009521,0.008667,-0.99292,0.236122,0.539237,-0.085191,57,273,570,5600
1644169854.359058,-0.010315,0.008972,-0.988831,0.266656,0.417099,-0.069924,49,270,575,5648
1644169854.407442,-0.009644,0.012024,-0.990234,0.312458,0.386565,-0.207328,42,277,575,5696
1644169854.455827,-0.009277,0.010498,-0.990295,0.205588,0.356031,-0.100458,64,277,572,5696
1644169854.504211,-0.011108,0.011597,-0.993408,0.327725,0.478168,-0.192061,54,268,577,5648
1644169854.552612,-0.011475,0.010071,-0.98877,0.373527,0.386565,-0.14626,59,282,579,5728
1644169854.601009,-0.010986,0.007996,-0.992493,0.327725,0.401832,-0.039389,43,269,569,5696
1644169854.649396,-0.009705,0.008972,-0.990784,0.342992,0.478168,-0.024122,54,277,582,5648
1644169854.697785,-0.011963,0.009094,-0.993591,0.205588,0.569771,-0.085191,49,277,572,5664
1644169854.7462,-0.011963,0.008362,-0.991943,0.327725,0.386565,-0.024122,48,276,578,5712
1644169854.796442,-0.008972,0.009033,-0.993225,0.205588,0.447634,-0.039389,53,274,569,5664
1644169854.847224,-0.009705,0.007385,-0.992249,0.236122,0.417099,-0.115725,47,282,568,5648
1644169854.892296,-0.009644,0.008667,-0.991821,0.144519,0.356031,-0.085191,55,269,583,5696
1644169854.98817,-0.011719,0.010376,-0.992126,0.190321,0.432366,-0.054656,54,270,565,5648
1644169855.036564,-0.012634,0.010681,-0.993408,0.327725,0.493435,-0.008855,55,281,578,5584
1644169855.085021,-0.010559,0.011108,-0.995056,0.327725,0.478168,-0.176794,54,263,589,5664
1644169855.133337,-0.009033,0.011047,-0.990417,0.281924,0.432366,-0.161527,54,277,577,5648
1644169855.181693,-0.011597,0.011353,-0.993652,0.190321,0.478168,0.067481,57,280,577,5648
1644169855.230095,-0.00824,0.006897,-0.991882,0.236122,0.478168,-0.100458,52,277,565,5600
1644169855.278456,-0.007812,0.007812,-0.991516,0.220855,0.386565,-0.024122,45,275,584,5664
1644169855.32685,-0.009155,0.009705,-0.992554,0.159786,0.417099,-0.115725,51,274,576,5648
1644169855.375283,-0.010742,0.00946,-0.992981,0.251389,0.493435,0.052214,52,263,582,5664
1644169855.423656,-0.010254,0.00885,-0.990234,0.297191,0.432366,-0.115725,47,282,575,5664
1644169855.472034,-0.012573,0.010071,-0.992249,0.266656,0.478168,-0.100458,46,271,569,5664
1644169855.520427,-0.010925,0.011475,-0.992798,0.236122,0.523969,-0.069924,40,275,575,5664
1644169855.568816,-0.010864,0.009705,-0.992065,0.312458,0.478168,-0.176794,46,281,578,5664
1644169855.617215,-0.012817,0.012573,-0.993042,0.297191,0.401832,-0.100458,47,275,582,5664
1644169855.665603,-0.008362,0.008606,-0.993042,0.159786,0.432366,0.082748,48,283,573,5664
1644169855.71399,-0.010376,0.008484,-0.993164,0.281924,0.401832,-0.085191,62,276,580,5760
1644169855.762361,-0.007629,0.00885,-0.992188,0.236122,0.340763,0.006412,47,273,575,5648
1644169855.810768,-0.012573,0.009277,-0.994385,0.312458,0.554504,-0.100458,52,275,577,5632
1644169855.859174,-0.009827,0.009521,-0.993164,0.190321,0.478168,-0.085191,54,273,579,5664
1644169855.908777,-0.01178,0.009094,-0.99054,0.236122,0.493435,-0.14626,46,269,573,5632
1644169855.958938,-0.008545,0.006958,-0.990295,0.281924,0.569771,-0.054656,49,270,584,5584
1644169856.061364,-0.010559,0.009216,-0.993713,0.190321,0.401832,-0.100458,43,274,580,5696
1644169856.102207,-0.010132,0.00824,-0.991455,0.205588,0.493435,-0.176794,64,270,579,5664
1644169856.149544,-0.011292,0.00824,-0.990723,0.251389,0.478168,-0.069924,45,282,575,5664
1644169856.197897,-0.010071,0.011658,-0.991699,0.312458,0.401832,-0.100458,46,269,578,5664
1644169856.246268,-0.010925,0.007751,-0.993713,0.236122,0.386565,-0.176794,58,274,566,5696
1644169856.294717,-0.010254,0.010132,-0.989746,0.098718,0.401832,-0.237863,58,276,576,5664
1644169856.343079,-0.012573,0.009583,-0.991272,0.342992,0.340763,-0.130992,48,269,576,5648
1644169856.391443,-0.01062,0.011475,-0.993591,0.129252,0.294962,-0.192061,52,275,568,5696
1644169856.439859,-0.009399,0.009216,-0.991455,0.159786,0.386565,-0.085191,52,280,575,5664
1644169856.48825,-0.009705,0.007141,-0.993958,0.205588,0.310229,-0.100458,57,265,591,5648
1644169856.536638,-0.010559,0.010864,-0.993591,0.281924,0.294962,0.067481,49,273,570,5696
1644169856.585149,-0.007568,0.008911,-0.993958,0.113985,0.554504,0.113282,36,271,576,5712
1644169856.633818,-0.011353,0.01239,-0.991699,0.205588,0.462901,-0.100458,52,268,584,5648
1644169856.684389,-0.009583,0.009094,-0.991638,0.190321,0.432366,-0.237863,42,275,575,5696
1644169856.73451,-0.00824,0.00769,-0.989929,0.220855,0.493435,0.113282,52,277,575,5648
1644169856.779594,-0.008789,0.010132,-0.990784,0.342992,0.386565,-0.130992,42,273,584,5648
1644169856.875396,-0.011169,0.011475,-0.990295,0.373527,0.447634,-0.039389,39,276,580,5712
1644169856.923802,-0.009583,0.01001,-0.99353,0.312458,0.478168,0.036947,51,276,571,5696
1644169856.972424,-0.010925,0.00708,-0.990417,0.251389,0.569771,-0.130992,51,288,569,5648
1644169857.020578,-0.009827,0.010803,-0.990723,0.281924,0.417099,-0.130992,53,283,580,5664
1644169857.069124,-0.012024,0.009338,-0.993103,0.312458,0.493435,-0.024122,54,273,584,5696
1644169857.117287,-0.010498,0.010315,-0.990479,0.266656,0.294962,-0.130992,55,271,571,5712
1644169857.165709,-0.009766,0.010986,-0.991211,0.327725,0.432366,0.036947,53,269,566,5728
1644169857.21411,-0.008972,0.008606,-0.989868,0.35826,0.310229,-0.100458,54,280,572,5600
1644169857.262505,-0.011047,0.011414,-0.991577,0.342992,0.417099,-0.161527,57,273,577,5728
1644169857.310849,-0.00946,0.010925,-0.993164,0.35826,0.523969,0.082748,51,269,578,5664
1644169857.359266,-0.010193,0.006897,-0.992371,0.312458,0.401832,-0.069924,57,268,575,5664
1644169857.407703,-0.010925,0.009521,-0.99231,0.205588,0.340763,-0.085191,54,275,579,5648
1644169857.456051,-0.010925,0.010132,-0.993652,0.251389,0.478168,-0.085191,42,280,577,5696
1644169857.504456,-0.010742,0.007996,-0.992798,0.281924,0.386565,-0.161527,57,268,572,5648
1644169857.552851,-0.008545,0.011353,-0.991272,0.266656,0.432366,-0.161527,52,263,586,5712
1644169857.601231,-0.00946,0.010315,-0.992188,0.281924,0.356031,-0.100458,54,270,572,5696
1644169857.649588,-0.011963,0.010376,-0.992188,0.35826,0.310229,-0.024122,52,265,586,5664
1644169857.698008,-0.010986,0.006653,-0.994263,0.175053,0.508702,-0.039389,61,268,572,5664
1644169857.74637,-0.01239,0.00824,-0.993652,0.251389,0.417099,-0.222595,49,275,582,5648
1644169857.795725,-0.009644,0.010986,-0.992249,0.419328,0.386565,-0.222595,45,263,579,5648
1644169857.847163,-0.012268,0.007751,-0.992065,0.190321,0.356031,0.021679,47,280,575,5696
1644169857.897449,-0.009766,0.010498,-0.990601,0.113985,0.325496,-0.069924,45,282,572,5696
1644169857.988425,-0.01001,0.008911,-0.990112,0.373527,0.401832,-0.192061,43,262,576,5696
1644169858.03677,-0.007935,0.009766,-0.990479,0.144519,0.432366,-0.008855,47,285,577,5696
1644169858.090764,-0.012756,0.006714,-0.996155,0.251389,0.462901,-0.024122,45,285,584,5552
1644169858.13352,-0.009033,0.008972,-0.991455,0.312458,0.539237,-0.100458,52,277,577,5696
1644169858.181922,-0.008301,0.012207,-0.993774,0.220855,0.432366,0.082748,46,283,573,5648
1644169858.230293,-0.010986,0.010498,-0.99176,0.113985,0.371298,-0.161527,54,270,572,5696
1644169858.278661,-0.009949,0.009338,-0.992798,0.220855,0.340763,-0.024122,51,274,578,5600
1644169858.327088,-0.009766,0.008057,-0.990906,0.312458,0.371298,-0.069924,55,269,578,5648
1644169858.375469,-0.007263,0.007874,-0.991577,0.190321,0.508702,-0.100458,47,270,584,5648
1644169858.423869,-0.008423,0.007874,-0.992859,0.129252,0.447634,-0.039389,61,263,591,5664
1644169858.472269,-0.011536,0.010681,-0.993103,0.251389,0.493435,0.006412,51,276,585,5664
1644169858.52065,-0.01062,0.007568,-0.992004,0.205588,0.417099,-0.085191,41,271,590,5648
1644169858.569041,-0.009155,0.00647,-0.990051,0.175053,0.325496,-0.14626,54,275,582,5664
1644169858.617428,-0.009399,0.008972,-0.991455,0.159786,0.310229,-0.222595,51,266,587,5696
1644169858.665815,-0.012024,0.008423,-0.993164,0.175053,0.432366,0.036947,48,276,580,5664
1644169858.714185,-0.013611,0.009399,-0.992371,0.129252,0.325496,-0.130992,49,273,577,5664
1644169858.762667,-0.01062,0.00592,-0.992737,0.113985,0.417099,0.052214,49,263,589,5648
1644169858.811105,-0.013245,0.008789,-0.991577,0.144519,0.340763,-0.222595,54,285,575,5696
1644169858.861253,-0.010437,0.012085,-0.991638,0.297191,0.386565,-0.192061,48,281,576,5664
1644169858.911667,-0.013123,0.00647,-0.993774,0.220855,0.478168,-0.130992,52,270,572,5648
1644169858.96197,-0.013794,0.008911,-0.989502,0.236122,0.447634,-0.100458,57,263,572,5648
1644169859.006642,-0.009155,0.010193,-0.99115,0.236122,0.432366,0.021679,45,263,579,5648
1644169859.103206,-0.012634,0.008972,-0.991699,0.220855,0.310229,-0.024122,51,274,576,5648
1644169859.149714,-0.011047,0.009766,-0.991211,0.266656,0.432366,-0.161527,48,276,576,5696
1644169859.198113,-0.012756,0.007935,-0.992249,0.236122,0.432366,-0.14626,40,282,579,5696
1644169859.246477,-0.011047,0.009155,-0.992371,0.35826,0.340763,-0.222595,55,281,576,5648
1644169859.29488,-0.012573,0.009827,-0.994568,0.205588,0.432366,-0.008855,45,268,582,5648
1644169859.343262,-0.011597,0.012512,-0.993591,0.220855,0.371298,-0.14626,52,268,586,5696
1644169859.391676,-0.009399,0.011169,-0.994507,0.373527,0.401832,-0.329466,51,276,571,5584
1644169859.440034,-0.011414,0.008789,-0.992737,0.297191,0.417099,-0.14626,61,275,575,5696
1644169859.488454,-0.011536,0.011353,-0.995056,0.297191,0.432366,-0.008855,38,285,577,5664
1644169859.536845,-0.011841,0.009705,-0.98877,0.266656,0.432366,-0.085191,42,290,575,5648
1644169859.585244,-0.010498,0.010071,-0.991943,0.205588,0.432366,-0.039389,48,276,571,5648
1644169859.633628,-0.009949,0.010132,-0.993164,0.342992,0.417099,-0.069924,47,265,579,5728
1644169859.682017,-0.007996,0.009583,-0.993652,0.327725,0.340763,-0.054656,47,275,572,5664
1644169859.730418,-0.009521,0.012146,-0.989868,0.251389,0.478168,-0.100458,52,270,577,5664
1644169859.780386,-0.007629,0.006714,-0.990784,0.236122,0.478168,0.006412,48,276,580,5632
1644169859.830471,-0.010864,0.007996,-0.993042,0.144519,0.417099,-0.130992,62,281,576,5664
1644169859.881329,-0.008667,0.008484,-0.992371,0.144519,0.432366,-0.100458,48,271,576,5664
1644169859.972438,-0.012573,0.009766,-0.992249,0.144519,0.447634,-0.069924,53,281,569,5664
1644169860.020785,-0.013123,0.009766,-0.994568,0.281924,0.508702,-0.085191,47,265,577,5648
1644169860.069228,-0.010254,0.011536,-0.991577,0.159786,0.386565,-0.100458,51,274,585,5600
1644169860.11756,-0.010803,0.005859,-0.993164,0.281924,0.539237,0.143817,54,280,570,5648
1644169860.165906,-0.011536,0.010681,-0.994812,0.175053,0.462901,-0.14626,60,271,571,5648
1644169860.214317,-0.011414,0.011475,-0.991638,0.327725,0.371298,0.113282,52,277,568,5664
1644169860.262727,-0.010071,0.008545,-0.993164,0.327725,0.447634,-0.069924,48,283,566,5664
1644169860.311091,-0.009766,0.009155,-0.991516,0.190321,0.356031,0.006412,47,273,577,5584
1644169860.359498,-0.008789,0.011047,-0.991394,0.342992,0.356031,-0.130992,40,265,575,5712
1644169860.407878,-0.01001,0.009094,-0.99231,0.297191,0.401832,-0.024122,42,277,584,5648
1644169860.456271,-0.011169,0.007629,-0.992615,0.342992,0.493435,-0.085191,49,265,575,5696
1644169860.504718,-0.008911,0.00824,-0.992615,0.236122,0.447634,-0.024122,57,273,582,5584
1644169860.55305,-0.00824,0.011902,-0.994202,0.251389,0.371298,-0.069924,51,264,585,5664
1644169860.601405,-0.011292,0.008301,-0.996887,0.190321,0.432366,-0.14626,47,277,572,5664
1644169860.649826,-0.012024,0.008545,-0.991028,0.297191,0.264427,0.021679,47,270,582,5696
1644169860.698223,-0.010925,0.007385,-0.992126,0.144519,0.386565,0.036947,49,273,579,5712
1644169860.74661,-0.009155,0.009521,-0.991699,0.236122,0.447634,-0.192061,59,273,577,5648
1644169860.795212,-0.010071,0.006897,-0.992981,0.266656,0.432366,-0.039389,48,271,578,5632
1644169860.843453,-0.009277,0.011169,-0.993042,0.327725,0.432366,0.036947,47,270,572,5664
1644169860.893255,-0.009521,0.008911,-0.99054,0.08345,0.508702,-0.192061,53,269,569,5696
1644169860.943563,-0.010315,0.011841,-0.993652,0.159786,0.401832,0.006412,51,271,571,5696
1644169860.993766,-0.009583,0.008911,-0.99408,0.281924,0.386565,0.021679,47,270,584,5664
1644169861.038323,-0.009766,0.01062,-0.992859,0.266656,0.432366,-0.237863,59,273,582,5664
1644169861.133746,-0.008179,0.010071,-0.989319,0.419328,0.294962,-0.024122,53,269,569,5584
1644169861.182177,-0.010559,0.007141,-0.993713,0.236122,0.340763,-0.115725,51,274,576,5664
1644169861.230477,-0.010193,0.009827,-0.98938,0.327725,0.386565,-0.130992,51,274,573,5664
1644169861.278884,-0.012512,0.011658,-0.992737,0.342992,0.401832,-0.100458,52,282,575,5648
1644169861.327272,-0.009399,0.01123,-0.993591,0.129252,0.356031,-0.069924,38,268,575,5664
1644169861.375691,-0.009644,0.009338,-0.993958,0.434595,0.432366,-0.024122,54,275,579,5712
1644169861.424083,-0.009583,0.008606,-0.992004,0.327725,0.401832,-0.130992,46,276,569,5696
1644169861.472465,-0.010864,0.01239,-0.992493,0.327725,0.401832,0.006412,57,273,579,5664
1644169861.52086,-0.012085,0.010376,-0.992126,0.312458,0.401832,-0.192061,51,276,573,5696
1644169861.569257,-0.008789,0.00885,-0.989014,0.266656,0.417099,0.021679,53,276,592,5696
1644169861.617646,-0.012695,0.011169,-0.991821,0.236122,0.417099,-0.069924,49,280,575,5696
1644169861.66604,-0.009521,0.005859,-0.990479,0.129252,0.340763,-0.085191,54,280,577,5696
1644169861.714432,-0.007874,0.011047,-0.99115,0.190321,0.340763,-0.024122,46,279,576,5696
1644169861.762804,-0.007385,0.009827,-0.990295,0.220855,0.356031,-0.207328,55,281,587,5696
1644169861.811201,-0.008972,0.007446,-0.991943,-0.008153,0.432366,0.021679,54,265,577,5696
1644169861.859624,-0.008545,0.011597,-0.993591,0.297191,0.493435,-0.130992,53,286,576,5712
1644169861.908036,-0.009705,0.009155,-0.991333,0.190321,0.432366,-0.130992,55,266,583,5696
1644169861.956485,-0.013428,0.011292,-0.991211,0.175053,0.356031,0.021679,43,279,576,5696
1644169862.055842,-0.009094,0.010315,-0.991699,0.144519,0.462901,0.021679,45,273,582,5632
1644169862.101547,-0.008972,0.007385,-0.992493,0.251389,0.386565,-0.054656,43,276,580,5648
1644169862.149968,-0.012268,0.00946,-0.98999,0.007115,0.539237,-0.222595,49,280,584,5696
1644169862.198317,-0.011902,0.010376,-0.991943,0.129252,0.462901,-0.176794,49,270,579,5648
1644169862.246696,-0.012756,0.009827,-0.990906,0.404061,0.462901,-0.100458,53,264,576,5664
1644169862.295138,-0.007935,0.012573,-0.990112,0.297191,0.371298,-0.222595,51,274,573,5664
1644169862.343501,-0.008423,0.007996,-0.992065,0.175053,0.371298,0.174351,46,276,578,5648
1644169862.391893,-0.007019,0.009338,-0.992371,0.205588,0.447634,-0.192061,51,283,578,5584
1644169862.440274,-0.009277,0.009155,-0.989197,0.113985,0.478168,-0.100458,43,269,580,5696
1644169862.488644,-0.010925,0.010193,-0.991028,0.236122,0.417099,-0.085191,52,270,584,5664
1644169862.537062,-0.009033,0.007202,-0.992676,0.297191,0.310229,-0.207328,48,271,571,5632
1644169862.585457,-0.009766,0.009338,-0.992798,0.220855,0.401832,-0.130992,42,275,584,5632
1644169862.633849,-0.010986,0.009094,-0.991028,0.342992,0.478168,-0.130992,51,269,578,5632
1644169862.682246,-0.01123,0.008789,-0.990112,0.190321,0.310229,-0.054656,54,277,584,5728
1644169862.730623,-0.011536,0.012451,-0.991638,0.144519,0.554504,-0.100458,52,273,579,5648
1644169862.779033,-0.010437,0.00824,-0.99292,0.281924,0.508702,-0.069924,51,276,564,5760
1644169862.827406,-0.01001,0.010803,-0.991577,0.190321,0.371298,-0.069924,45,268,589,5648
1644169862.876875,-0.009033,0.007202,-0.993042,0.251389,0.24916,-0.085191,48,279,576,5664
1644169862.927504,-0.008118,0.00824,-0.992981,0.220855,0.417099,-0.176794,55,264,569,5648
1644169862.977176,-0.009155,0.00708,-0.99176,0.266656,0.279695,-0.176794,52,273,579,5664
1644169863.021744,-0.010071,0.010376,-0.993164,0.251389,0.462901,0.006412,49,273,577,5632
1644169863.117736,-0.010681,0.008362,-0.993896,0.297191,0.340763,-0.100458,54,273,575,5664
1644169863.166145,-0.010071,0.009399,-0.989563,0.190321,0.325496,-0.054656,45,268,572,5600
1644169863.214825,-0.008423,0.009583,-0.98938,0.190321,0.539237,-0.085191,45,285,575,5696
1644169863.262979,-0.009705,0.008484,-0.989685,0.220855,0.493435,-0.039389,53,283,580,5664
1644169863.311322,-0.009033,0.010742,-0.992798,0.129252,0.417099,-0.222595,39,279,576,5584
1644169863.359735,-0.009766,0.011108,-0.991699,0.175053,0.401832,-0.14626,52,268,570,5648
1644169863.408135,-0.009155,0.01178,-0.98999,0.266656,0.554504,-0.14626,53,274,569,5712
1644169863.456527,-0.009766,0.009216,-0.993469,0.297191,0.493435,0.036947,58,279,580,5664
1644169863.504919,-0.009766,0.008972,-0.993469,0.205588,0.401832,-0.069924,59,275,577,5632
1644169863.553316,-0.009827,0.010376,-0.990845,0.190321,0.462901,-0.115725,51,269,569,5664
1644169863.601663,-0.009766,0.007751,-0.990112,0.297191,0.203359,-0.008855,49,275,577,5648
1644169863.650077,-0.009766,0.011108,-0.990723,0.159786,0.417099,-0.054656,43,279,580,5696
1644169863.698473,-0.009277,0.010559,-0.992737,0.052916,0.478168,-0.207328,49,270,575,5648
1644169863.74683,-0.008362,0.009888,-0.993408,0.190321,0.447634,-0.100458,46,288,583,5696
1644169863.795257,-0.011292,0.009338,-0.993408,0.159786,0.478168,-0.237863,52,273,579,5664
1644169863.843651,-0.008911,0.011597,-0.989868,0.236122,0.417099,-0.069924,54,270,579,5648
1644169863.892041,-0.009216,0.009399,-0.99292,0.373527,0.447634,0.006412,48,269,566,5552
1644169863.94077,-0.008728,0.009277,-0.992798,0.190321,0.371298,-0.100458,48,271,583,5712
1644169863.98885,-0.011963,0.008728,-0.993225,0.297191,0.356031,-0.100458,52,282,586,5648
1644169864.038947,-0.012024,0.009399,-0.990784,0.281924,0.371298,0.006412,51,279,578,5696
1644169864.101917,-0.012207,0.013184,-0.990479,0.312458,0.478168,-0.176794,53,286,578,5648
1644169864.134891,-0.008484,0.008606,-0.992615,0.35826,0.294962,-0.008855,42,268,570,5648
1644169864.230725,-0.009216,0.010437,-0.990295,0.312458,0.493435,-0.054656,55,269,576,5664
1644169864.2791,-0.009949,0.01062,-0.991577,0.205588,0.447634,-0.130992,45,275,572,5696
1644169864.327514,-0.008972,0.009888,-0.992859,0.251389,0.386565,-0.024122,53,279,576,5664
1644169864.375873,-0.013855,0.01001,-0.989197,0.342992,0.325496,-0.069924,53,274,573,5600
1644169864.424295,-0.010315,0.011353,-0.990906,0.327725,0.493435,-0.130992,46,274,576,5728
1644169864.472691,-0.009888,0.010437,-0.99054,0.220855,0.356031,0.006412,48,279,569,5664
1644169864.521068,-0.012207,0.010193,-0.992615,0.342992,0.24916,0.021679,45,273,575,5648
1644169864.569472,-0.010376,0.008179,-0.991455,0.113985,0.401832,-0.085191,51,271,576,5664
1644169864.617823,-0.011902,0.008423,-0.990845,0.190321,0.371298,-0.008855,58,281,569,5728
1644169864.666242,-0.00946,0.009766,-0.992126,0.251389,0.432366,-0.085191,48,266,571,5648
1644169864.714718,-0.008118,0.008484,-0.990906,0.327725,0.356031,0.036947,38,270,586,5696
1644169864.763027,-0.01355,0.009827,-0.99353,0.266656,0.340763,-0.14626,49,277,572,5648
1644169864.811458,-0.008972,0.006287,-0.993408,0.129252,0.432366,-0.115725,59,280,584,5648
1644169864.859849,-0.01001,0.008728,-0.992554,0.281924,0.493435,-0.100458,47,282,575,5648
1644169864.908244,-0.013062,0.007324,-0.989929,0.205588,0.386565,-0.085191,51,279,576,5712
1644169864.956599,-0.010071,0.007446,-0.992065,0.159786,0.417099,-0.100458,45,280,575,5664
1644169865.005183,-0.011597,0.009949,-0.991699,0.098718,0.539237,-0.054656,36,279,573,5712
1644169865.067066,-0.012695,0.009338,-0.99054,0.480397,0.478168,-0.115725,52,280,572,5648
1644169865.105135,-0.011841,0.00708,-0.991516,0.281924,0.401832,-0.054656,51,279,583,5696
1644169865.152232,-0.010498,0.009216,-0.989807,0.220855,0.401832,-0.054656,60,271,578,5696
1644169865.202366,-0.013123,0.007507,-0.990112,0.236122,0.478168,-0.192061,54,277,572,5648
1644169865.247555,-0.008484,0.008179,-0.993042,0.08345,0.371298,-0.008855,54,270,575,5696
1644169865.343719,-0.00946,0.008301,-0.994263,0.266656,0.371298,-0.085191,58,262,571,5648
1644169865.392361,-0.010132,0.011719,-0.992615,0.205588,0.432366,-0.237863,48,276,566,5664
1644169865.44049,-0.007202,0.009033,-0.991516,0.175053,0.462901,-0.085191,52,275,582,5600
1644169865.48888,-0.010437,0.009583,-0.991211,0.236122,0.356031,-0.085191,57,273,584,5584
1644169865.537263,-0.011414,0.009888,-0.992432,0.220855,0.371298,-0.085191,54,268,570,5696
1644169865.585648,-0.009705,0.010559,-0.990723,0.098718,0.478168,0.006412,52,268,572,5648
1644169865.63403,-0.007874,0.010559,-0.991943,0.297191,0.264427,-0.14626,59,273,575,5664
1644169865.682467,-0.011414,0.007568,-0.991577,0.342992,0.432366,-0.268397,52,270,579,5664
1644169865.730851,-0.011475,0.006287,-0.989319,0.175053,0.386565,-0.207328,46,274,580,5712
1644169865.779227,-0.010681,0.009949,-0.991333,0.35826,0.417099,-0.176794,52,273,570,5648
1644169865.827659,-0.012146,0.012512,-0.990112,0.251389,0.371298,0.052214,47,270,582,5664
1644169865.876048,-0.010437,0.010193,-0.992615,0.281924,0.401832,0.021679,53,271,576,5648
1644169865.924459,-0.010864,0.009521,-0.990356,0.159786,0.447634,-0.039389,41,271,576,5664
1644169865.972848,-0.008118,0.010376,-0.991699,0.129252,0.462901,-0.054656,47,270,577,5696
1644169866.02122,-0.011658,0.012634,-0.990784,0.281924,0.371298,-0.161527,51,264,585,5664
1644169866.088733,-0.009399,0.010193,-0.992249,0.388794,0.310229,-0.024122,53,279,583,5648
1644169866.119201,-0.011597,0.010742,-0.991394,0.068183,0.417099,-0.054656,55,262,590,5712
1644169866.169409,-0.010498,0.009033,-0.994995,0.312458,0.401832,0.006412,58,264,585,5728
1644169866.219701,-0.012024,0.00769,-0.991028,0.373527,0.493435,-0.298931,51,269,573,5648
1644169866.31156,-0.00885,0.010376,-0.99231,0.175053,0.462901,-0.176794,41,276,585,5696
1644169866.359905,-0.009277,0.008484,-0.994934,0.327725,0.371298,-0.100458,51,276,580,5648
1644169866.408305,-0.007935,0.01062,-0.992126,0.251389,0.310229,-0.14626,46,264,583,5648
1644169866.4567,-0.011169,0.013062,-0.989807,0.236122,0.401832,-0.039389,42,273,575,5712
1644169866.505143,-0.009644,0.011719,-0.990417,0.220855,0.371298,-0.100458,43,271,583,5600
1644169866.553476,-0.012085,0.009827,-0.989807,0.35826,0.401832,-0.008855,59,273,572,5664
1644169866.601875,-0.010559,0.009399,-0.990051,0.312458,0.401832,0.036947,51,276,571,5664
1644169866.650259,-0.012878,0.00769,-0.994751,0.342992,0.462901,-0.008855,57,275,572,5664
1644169866.698648,-0.009521,0.009277,-0.991028,0.297191,0.417099,-0.115725,58,276,573,5648
1644169866.747018,-0.008789,0.007996,-0.993774,0.220855,0.432366,-0.130992,46,279,573,5696
1644169866.795421,-0.01239,0.01239,-0.993774,0.236122,0.401832,-0.207328,57,270,589,5664
1644169866.843884,-0.00885,0.009766,-0.991821,0.236122,0.401832,-0.100458,52,275,579,5664
1644169866.892336,-0.010803,0.009827,-0.994202,0.220855,0.432366,-0.192061,45,282,584,5696
1644169866.940643,-0.010742,0.009277,-0.990479,0.388794,0.371298,-0.085191,51,269,578,5600
1644169866.989037,-0.011108,0.010132,-0.992188,0.266656,0.432366,-0.069924,52,273,572,5696
1644169867.037386,-0.011047,0.008667,-0.990356,0.236122,0.340763,-0.130992,51,269,583,5696
1644169867.086382,-0.010864,0.010437,-0.993042,0.312458,0.325496,-0.024122,43,269,576,5728
1644169867.134171,-0.009949,0.010864,-0.992004,0.220855,0.401832,-0.192061,48,279,573,5696
1644169867.182575,-0.013916,0.011963,-0.989502,0.373527,0.417099,0.021679,40,277,568,5648
1644169867.231217,-0.009644,0.011169,-0.990906,0.342992,0.417099,0.052214,48,281,585,5664
