epoch,acc_x,acc_y,acc_z,rot_x,rot_y,rot_z,mag_x,mag_y,mag_z,temp
1644171600.062769,-0.009338,0.006531,-0.994324,0.373527,0.462901,-0.039389,53,276,569,5664
1644171600.101828,-0.012146,0.00885,-0.994202,0.373527,0.386565,-0.039389,47,280,572,5696
1644171600.146827,-0.008911,0.011902,-0.993652,0.190321,0.356031,-0.039389,51,266,580,5696
1644171600.195295,-0.01062,0.008484,-0.993164,0.251389,0.432366,-0.085191,60,274,578,5728
1644171600.243597,-0.014648,0.007263,-0.992859,0.266656,0.447634,-0.039389,43,279,576,5712
1644171600.292018,-0.009888,0.009338,-0.991455,0.251389,0.508702,-0.085191,59,280,568,5696
1644171600.340399,-0.010681,0.007263,-0.990112,0.08345,0.432366,-0.237863,53,279,573,5728
1644171600.388797,-0.011414,0.010803,-0.993164,0.281924,0.447634,-0.069924,55,271,571,5712
1644171600.437181,-0.010864,0.009827,-0.992188,0.175053,0.294962,-0.085191,40,270,582,5712
1644171600.485569,-0.01001,0.00769,-0.991821,0.297191,0.386565,0.036947,45,273,572,5728
1644171600.533964,-0.011536,0.009705,-0.991943,0.159786,0.218626,-0.039389,48,274,583,5696
1644171600.582646,-0.011047,0.009644,-0.990906,0.190321,0.462901,-0.130992,46,269,576,5760
1644171600.630762,-0.01239,0.007141,-0.99292,0.205588,0.646107,-0.14626,57,270,579,5648
1644171600.680313,-0.00946,0.009277,-0.99176,0.113985,0.447634,-0.222595,46,271,576,5696
1644171600.730593,-0.00885,0.008118,-0.991455,0.266656,0.356031,-0.100458,48,274,573,5696
1644171600.780817,-0.009155,0.009766,-0.990662,0.205588,0.600305,-0.161527,52,270,575,5760
1644171600.872768,-0.009033,0.010193,-0.993408,0.220855,0.462901,-0.207328,43,276,573,5648
1644171600.92112,-0.01123,0.007996,-0.992126,0.388794,0.432366,-0.085191,55,279,571,5664
1644171600.969516,-0.013184,0.011047,-0.990662,0.190321,0.386565,-0.268397,53,276,564,5728
1644171601.017901,-0.011536,0.008911,-0.992004,0.327725,0.325496,-0.085191,53,279,573,5648
1644171601.066346,-0.013,0.006958,-0.992676,0.159786,0.340763,-0.100458,49,280,575,5712
1644171601.114746,-0.013611,0.009705,-0.993347,0.297191,0.539237,-0.130992,49,275,575,5728
1644171601.163056,-0.008057,0.009949,-0.992676,0.175053,0.325496,-0.085191,40,280,568,5696
1644171601.211433,-0.009033,0.011536,-0.992859,0.220855,0.432366,0.006412,42,268,577,5664
1644171601.259828,-0.009583,0.008057,-0.991028,0.220855,0.340763,0.143817,49,277,586,5696
1644171601.308212,-0.009705,0.006287,-0.994324,0.266656,0.356031,-0.039389,51,276,583,5664
1644171601.356601,-0.008301,0.010193,-0.994934,0.098718,0.447634,-0.008855,46,274,580,5696
1644171601.405049,-0.011536,0.007019,-0.992676,0.205588,0.417099,-0.085191,47,277,584,5728
1644171601.453396,-0.008728,0.011902,-0.989685,0.236122,0.523969,-0.161527,45,273,584,5664
1644171601.501742,-0.010071,0.010132,-0.993042,0.220855,0.340763,0.067481,51,276,576,5760
1644171601.550157,-0.007263,0.012146,-0.991455,0.434595,0.478168,-0.130992,62,274,573,5664
1644171601.598533,-0.008972,0.009644,-0.990906,0.190321,0.462901,-0.161527,60,279,590,5648
1644171601.646953,-0.011536,0.010803,-0.990845,0.373527,0.432366,-0.161527,47,275,575,5696
1644171601.695323,-0.009705,0.009949,-0.99292,0.266656,0.569771,-0.222595,52,280,568,5648
1644171601.743728,-0.008118,0.00946,-0.991028,0.373527,0.356031,-0.069924,54,265,577,5664
1644171601.792242,-0.009644,0.008118,-0.994995,0.281924,0.340763,-0.192061,64,277,579,5696
1644171601.84273,-0.00946,0.009033,-0.992737,0.312458,0.371298,-0.130992,46,271,569,5728
1644171601.894077,-0.009949,0.007446,-0.991272,0.312458,0.401832,-0.192061,61,270,579,5728
1644171601.938682,-0.006958,0.007874,-0.992432,0.434595,0.386565,-0.085191,49,265,572,5696
1644171602.034112,-0.008423,0.007812,-0.994507,0.266656,0.264427,-0.100458,43,274,571,5696
1644171602.082566,-0.010559,0.008667,-0.993713,0.281924,0.356031,-0.115725,52,277,570,5760
1644171602.130834,-0.010986,0.009277,-0.991455,0.236122,0.447634,-0.024122,55,262,583,5696
1644171602.179247,-0.012024,0.009827,-0.990173,0.266656,0.279695,-0.130992,54,273,575,5600
1644171602.22763,-0.011353,0.008118,-0.990479,0.281924,0.523969,-0.100458,52,270,582,5632
1644171602.276023,-0.00885,0.009216,-0.993469,0.159786,0.371298,-0.024122,51,266,571,5712
1644171602.324422,-0.012817,0.00769,-0.991333,0.327725,0.478168,-0.176794,51,281,573,5664
1644171602.372833,-0.012695,0.008911,-0.990234,0.144519,0.478168,-0.069924,52,273,570,5648
1644171602.421199,-0.011414,0.009827,-0.993164,0.35826,0.264427,-0.207328,57,273,582,5696
1644171602.469581,-0.010925,0.00824,-0.991699,0.205588,0.417099,-0.161527,52,280,572,5648
1644171602.517978,-0.011292,0.007996,-0.992249,0.175053,0.447634,-0.176794,53,276,580,5664
1644171602.566368,-0.010925,0.00592,-0.991333,0.373527,0.386565,-0.115725,52,280,577,5696
1644171602.614766,-0.01001,0.00647,-0.990723,0.342992,0.523969,0.036947,48,274,576,5648
1644171602.663167,-0.009033,0.00885,-0.991028,0.312458,0.340763,0.006412,51,279,576,5712
1644171602.711544,-0.009888,0.009216,-0.990295,0.205588,0.340763,0.006412,49,285,579,5696
1644171602.7599,-0.008545,0.011169,-0.99115,0.312458,0.264427,-0.024122,52,277,579,5696
1644171602.808324,-0.010742,0.009827,-0.993469,0.236122,0.447634,0.067481,43,276,571,5696
1644171602.85707,-0.011047,0.010071,-0.99054,0.205588,0.417099,-0.024122,39,276,573,5696
1644171602.905236,-0.012573,0.011292,-0.992798,0.312458,0.386565,-0.039389,52,265,572,5664
1644171602.954909,-0.011414,0.010254,-0.992249,0.236122,0.508702,0.006412,54,270,575,5696
1644171603.062877,-0.013977,0.007324,-0.991699,0.312458,0.24916,0.021679,49,260,579,5696
1644171603.101185,-0.009094,0.00885,-0.993286,0.312458,0.401832,-0.14626,53,279,583,5696
1644171603.147063,-0.012329,0.00708,-0.992493,0.281924,0.539237,-0.115725,51,274,573,5728
1644171603.195461,-0.01062,0.013184,-0.989868,0.236122,0.478168,-0.069924,53,269,583,5696
1644171603.243852,-0.011475,0.010193,-0.994202,0.175053,0.356031,-0.085191,52,275,575,5632
1644171603.292249,-0.011902,0.008606,-0.994263,0.220855,0.462901,-0.100458,52,277,575,5696
1644171603.340633,-0.010742,0.008362,-0.992371,0.190321,0.310229,-0.14626,60,269,576,5664
1644171603.388994,-0.013428,0.010376,-0.99292,0.281924,0.371298,-0.069924,57,270,582,5648
1644171603.437368,-0.010498,0.009155,-0.99176,0.312458,0.417099,-0.024122,49,263,591,5728
1644171603.485783,-0.011108,0.007996,-0.990967,0.266656,0.356031,-0.130992,55,276,580,5696
1644171603.534176,-0.013184,0.00769,-0.99115,0.327725,0.417099,-0.069924,54,277,575,5696
1644171603.582597,-0.010986,0.011169,-0.995911,0.08345,0.447634,-0.100458,53,266,576,5696
1644171603.631226,-0.010315,0.005737,-0.990417,0.266656,0.401832,-0.024122,55,262,576,5760
1644171603.681829,-0.010254,0.011353,-0.99231,0.281924,0.325496,-0.25313,47,275,582,5664
1644171603.731855,-0.010254,0.008545,-0.991699,0.236122,0.462901,-0.176794,53,271,587,5696
1644171603.777021,-0.011597,0.006653,-0.990356,0.297191,0.478168,-0.024122,48,269,576,5600
1644171603.872959,-0.012268,0.008057,-0.991943,0.312458,0.371298,-0.237863,59,268,577,5696
1644171603.921345,-0.011536,0.00769,-0.991577,0.236122,0.371298,-0.14626,57,270,570,5648
1644171603.9697,-0.01355,0.006531,-0.993408,0.327725,0.462901,-0.039389,47,273,579,5760
1644171604.018098,-0.01123,0.008179,-0.99353,0.297191,0.417099,-0.054656,47,265,575,5664
1644171604.066575,-0.01239,0.009033,-0.988403,0.236122,0.493435,-0.176794,54,275,572,5664
1644171604.114897,-0.013123,0.009094,-0.987671,0.144519,0.523969,-0.069924,52,270,579,5696
1644171604.163299,-0.01062,0.007385,-0.993225,0.266656,0.447634,-0.192061,55,271,573,5696
1644171604.211708,-0.010254,0.00824,-0.992737,0.266656,0.432366,-0.069924,48,276,571,5696
1644171604.260057,-0.011658,0.010559,-0.991455,0.327725,0.203359,-0.130992,49,273,575,5728
1644171604.30848,-0.01178,0.00592,-0.993347,0.175053,0.432366,-0.054656,49,275,579,5760
1644171604.356867,-0.008545,0.00708,-0.990784,0.205588,0.386565,-0.130992,45,280,579,5648
1644171604.405349,-0.009705,0.007568,-0.991638,0.236122,0.386565,0.021679,49,275,572,5728
1644171604.453661,-0.01178,0.009277,-0.992004,0.251389,0.356031,0.021679,53,264,580,5712
1644171604.502047,-0.012939,0.011963,-0.993347,0.236122,0.508702,-0.14626,53,283,583,5712
1644171604.550429,-0.009094,0.009521,-0.993896,0.175053,0.432366,-0.161527,42,268,584,5664
1644171604.598811,-0.009888,0.007385,-0.991882,0.251389,0.401832,-0.085191,57,268,584,5664
1644171604.647209,-0.011841,0.009033,-0.992493,0.113985,0.478168,-0.176794,52,270,579,5696
1644171604.695797,-0.011963,0.011658,-0.990906,0.266656,0.569771,-0.100458,49,268,589,5696
1644171604.744228,-0.010559,0.01062,-0.994141,0.236122,0.432366,-0.115725,46,279,578,5728
1644171604.794653,-0.009094,0.010864,-0.994263,0.190321,0.325496,-0.024122,55,271,580,5664
1644171604.84476,-0.010742,0.010193,-0.994019,0.297191,0.493435,-0.008855,49,270,577,5712
1644171604.894572,-0.00946,0.007812,-0.991089,0.129252,0.417099,0.006412,58,276,583,5712
1644171604.985953,-0.009399,0.007751,-0.994141,0.205588,0.294962,-0.100458,61,273,579,5648
1644171605.034333,-0.010803,0.00885,-0.991699,0.236122,0.294962,0.036947,53,274,580,5712
1644171605.083075,-0.00647,0.010193,-0.991943,0.175053,0.386565,-0.008855,45,260,584,5664
1644171605.131046,-0.010376,0.009766,-0.992737,0.190321,0.508702,-0.085191,53,269,578,5712
1644171605.179449,-0.009644,0.009338,-0.992126,0.129252,0.523969,-0.069924,45,280,575,5696
1644171605.227857,-0.011292,0.00885,-0.98999,0.220855,0.523969,-0.085191,47,282,582,5664
1644171605.276213,-0.013306,0.009521,-0.993774,0.46513,0.325496,-0.161527,48,259,583,5728
1644171605.324652,-0.008728,0.007385,-0.992249,0.175053,0.508702,-0.130992,53,271,587,5664
1644171605.373049,-0.009338,0.009644,-0.992493,0.037649,0.432366,-0.130992,46,281,578,5648
1644171605.421415,-0.010071,0.00946,-0.993042,0.312458,0.447634,-0.100458,54,277,572,5728
1644171605.46981,-0.011902,0.008728,-0.992493,0.404061,0.417099,-0.161527,51,271,571,5728
1644171605.518207,-0.009705,0.010193,-0.992615,0.312458,0.508702,-0.039389,53,279,587,5776
1644171605.566586,-0.008118,0.009155,-0.990723,0.312458,0.508702,-0.283664,43,274,571,5760
1644171605.615154,-0.009583,0.010254,-0.98999,0.129252,0.294962,-0.100458,60,276,583,5664
1644171605.663378,-0.010681,0.007629,-0.992188,0.129252,0.401832,-0.085191,47,268,577,5712
1644171605.711766,-0.011169,0.005798,-0.991272,0.113985,0.401832,-0.115725,47,263,575,5728
1644171605.760164,-0.01178,0.010193,-0.993347,0.205588,0.417099,-0.100458,48,269,587,5712
1644171605.808592,-0.012817,0.009827,-0.991638,0.388794,0.356031,-0.008855,58,274,583,5712
1644171605.856988,-0.014404,0.007019,-0.991821,0.297191,0.493435,-0.039389,48,281,571,5696
1644171605.906916,-0.010864,0.008057,-0.991943,0.08345,0.310229,-0.268397,60,266,583,5728
1644171605.95715,-0.011475,0.011047,-0.991089,0.342992,0.462901,-0.008855,52,265,584,5648
1644171606.062975,-0.00592,0.011353,-0.990295,0.190321,0.569771,-0.069924,46,269,580,5728
1644171606.098887,-0.010559,0.010132,-0.992188,0.190321,0.356031,0.052214,57,277,577,5696
1644171606.147286,-0.010742,0.006226,-0.993347,0.251389,0.24916,-0.024122,40,275,575,5696
1644171606.195679,-0.008423,0.012695,-0.990234,0.129252,0.310229,-0.008855,45,280,577,5712
1644171606.244069,-0.014099,0.008789,-0.993652,0.297191,0.447634,-0.054656,42,273,582,5712
1644171606.292436,-0.011658,0.011292,-0.992371,0.266656,0.325496,-0.176794,45,277,579,5648
1644171606.340849,-0.009583,0.009338,-0.992493,0.46513,0.447634,-0.25313,46,274,585,5760
1644171606.389231,-0.012512,0.012512,-0.994934,0.297191,0.356031,-0.192061,61,268,586,5712
1644171606.437622,-0.012207,0.011169,-0.991943,0.480397,0.310229,-0.14626,51,271,580,5712
1644171606.486016,-0.009155,0.007629,-0.991516,0.281924,0.401832,-0.085191,58,274,580,5696
1644171606.534386,-0.010803,0.010315,-0.990601,0.373527,0.432366,-0.161527,57,273,586,5584
1644171606.582819,-0.00647,0.008118,-0.993164,0.281924,0.356031,-0.14626,45,270,584,5712
1644171606.631201,-0.013794,0.008484,-0.991821,0.342992,0.325496,0.006412,53,271,583,5712
1644171606.680398,-0.009094,0.009094,-0.994263,0.113985,0.462901,-0.115725,46,281,571,5712
1644171606.730996,-0.010132,0.011292,-0.992249,0.266656,0.310229,-0.008855,51,279,578,5648
1644171606.781075,-0.010193,0.009338,-0.991028,0.190321,0.294962,-0.024122,51,276,576,5760
1644171606.826837,-0.011475,0.010315,-0.991272,0.312458,0.493435,-0.161527,57,273,584,5664
1644171606.921578,-0.007629,0.009827,-0.99176,0.129252,0.233893,-0.115725,53,274,576,5696
1644171606.969949,-0.008728,0.012512,-0.993408,0.129252,0.462901,-0.039389,54,270,575,5696
1644171607.018363,-0.012451,0.009827,-0.99231,0.297191,0.386565,-0.008855,49,270,582,5696
1644171607.066948,-0.007996,0.01123,-0.993103,0.144519,0.325496,-0.100458,59,268,577,5648
1644171607.115286,-0.008057,0.010681,-0.99176,0.266656,0.447634,0.021679,58,276,573,5664
1644171607.163473,-0.00946,0.010742,-0.992065,0.144519,0.462901,-0.14626,51,266,571,5696
1644171607.211858,-0.011658,0.009766,-0.991943,0.205588,0.325496,-0.237863,48,274,583,5712
1644171607.260263,-0.010864,0.011902,-0.992188,0.159786,0.508702,-0.100458,52,268,582,5760
1644171607.308662,-0.008057,0.009644,-0.992432,0.266656,0.462901,-0.130992,52,268,589,5664
1644171607.357057,-0.01239,0.009094,-0.992676,0.129252,0.432366,-0.085191,46,266,583,5728
1644171607.405436,-0.010925,0.010925,-0.992676,0.281924,0.356031,0.021679,52,280,584,5696
1644171607.453823,-0.008301,0.012085,-0.992615,0.220855,0.386565,-0.069924,45,275,577,5664
1644171607.502255,-0.010864,0.008789,-0.993408,0.297191,0.356031,-0.054656,54,270,584,5712
1644171607.550618,-0.008057,0.011536,-0.98999,0.373527,0.401832,-0.054656,49,270,577,5648
1644171607.598967,-0.009033,0.012207,-0.992798,0.297191,0.340763,-0.192061,46,274,583,5696
1644171607.647395,-0.007019,0.008423,-0.99176,0.220855,0.447634,0.036947,35,270,579,5664
1644171607.695783,-0.011414,0.010742,-0.991455,0.190321,0.478168,-0.054656,46,288,587,5712
1644171607.744174,-0.009216,0.010376,-0.992371,0.327725,0.356031,-0.25313,53,274,580,5696
1644171607.792691,-0.010437,0.009705,-0.991272,0.236122,0.493435,-0.130992,49,280,586,5760
1644171607.841421,-0.011353,0.012207,-0.993896,0.190321,0.462901,-0.085191,40,273,577,5664
1644171607.892871,-0.008667,0.008911,-0.992554,0.236122,0.493435,-0.024122,41,279,576,5664
1644171607.943339,-0.010986,0.010681,-0.992126,0.281924,0.493435,-0.14626,53,266,573,5760
1644171607.987768,-0.013977,0.009888,-0.991272,0.159786,0.340763,-0.14626,47,280,565,5648
1644171608.083025,-0.010437,0.00824,-0.993103,0.08345,0.523969,0.006412,47,273,589,5712
1644171608.131325,-0.009644,0.009888,-0.994202,0.281924,0.478168,-0.100458,53,276,573,5632
1644171608.179689,-0.012146,0.009644,-0.992004,0.236122,0.447634,-0.176794,49,275,584,5712
1644171608.228081,-0.011963,0.008728,-0.990479,0.159786,0.325496,-0.069924,55,271,583,5712
1644171608.276454,-0.01001,0.009705,-0.993408,0.281924,0.554504,-0.069924,48,271,583,5696
1644171608.324854,-0.011536,0.010254,-0.992554,0.342992,0.218626,-0.192061,41,269,569,5696
1644171608.373255,-0.009094,0.010315,-0.992981,0.205588,0.432366,-0.115725,47,275,582,5760
1644171608.42163,-0.010437,0.010681,-0.991638,0.297191,0.417099,-0.115725,67,276,576,5648
1644171608.470045,-0.010864,0.010986,-0.991821,0.190321,0.279695,-0.161527,51,279,571,5664
1644171608.518426,-0.009766,0.009338,-0.99176,0.159786,0.417099,-0.14626,46,271,585,5728
1644171608.566823,-0.007751,0.009766,-0.990601,0.190321,0.493435,-0.14626,58,276,573,5696
1644171608.615291,-0.009888,0.01001,-0.992737,0.236122,0.356031,-0.115725,59,270,577,5696
1644171608.663617,-0.010559,0.007935,-0.99353,0.251389,0.508702,-0.161527,52,265,584,5664
1644171608.711989,-0.00946,0.011108,-0.992737,0.35826,0.264427,-0.192061,47,277,582,5696
1644171608.76036,-0.007629,0.008728,-0.993103,0.220855,0.539237,-0.008855,47,280,579,5696
1644171608.808767,-0.009155,0.008911,-0.993835,0.175053,0.371298,-0.14626,46,271,573,5776
1644171608.857198,-0.006531,0.01001,-0.990967,0.297191,0.386565,-0.100458,62,266,578,5696
1644171608.905827,-0.010132,0.007874,-0.992859,0.266656,0.371298,0.036947,54,275,584,5696
1644171608.954028,-0.009521,0.006897,-0.990479,0.312458,0.325496,-0.115725,46,269,580,5648
1644171609.057456,-0.010803,0.008972,-0.992371,0.236122,0.401832,-0.069924,48,279,585,5728
1644171609.099127,-0.011108,0.010315,-0.990967,0.312458,0.508702,-0.024122,58,271,585,5664
1644171609.147542,-0.008667,0.01001,-0.993225,0.129252,0.447634,-0.161527,46,279,578,5648
1644171609.195891,-0.008728,0.008911,-0.991699,0.037649,0.325496,-0.024122,55,274,583,5760
1644171609.244302,-0.012085,0.010193,-0.991699,0.205588,0.356031,-0.100458,47,268,584,5728
1644171609.292693,-0.011475,0.009766,-0.994324,0.266656,0.233893,-0.085191,60,286,578,5648
1644171609.341046,-0.012939,0.008728,-0.992615,0.281924,0.417099,-0.008855,53,269,580,5712
1644171609.389461,-0.009277,0.011597,-0.992188,0.236122,0.294962,-0.008855,55,262,571,5712
1644171609.437851,-0.011902,0.007385,-0.99176,0.205588,0.386565,-0.192061,48,276,585,5648
1644171609.486237,-0.007507,0.01062,-0.992126,0.297191,0.340763,0.082748,58,274,573,5696
1644171609.534651,-0.010254,0.007935,-0.992126,0.266656,0.523969,-0.192061,52,275,586,5696
1644171609.584018,-0.012329,0.009338,-0.994751,0.297191,0.417099,-0.161527,58,269,585,5760
1644171609.631419,-0.00885,0.01062,-0.992249,0.388794,0.600305,-0.115725,51,269,585,5728
1644171609.679778,-0.011719,0.013367,-0.993713,0.251389,0.24916,-0.024122,51,276,587,5696
1644171609.728191,-0.010986,0.01001,-0.992188,0.144519,0.356031,-0.069924,47,273,572,5664
1644171609.776654,-0.009521,0.007935,-0.990112,0.144519,0.585038,-0.207328,55,276,587,5664
1644171609.827044,-0.009155,0.010071,-0.991882,0.281924,0.386565,-0.130992,55,270,584,5712
1644171609.877683,-0.01001,0.009399,-0.99176,0.342992,0.356031,-0.008855,53,276,573,5664
1644171609.92279,-0.00647,0.012695,-0.992249,0.144519,0.386565,-0.115725,49,268,575,5696
1644171610.01857,-0.010254,0.011658,-0.991333,0.205588,0.554504,-0.207328,64,263,577,5648
1644171610.067041,-0.012268,0.009094,-0.991028,0.159786,0.310229,-0.237863,48,276,585,5648
1644171610.115266,-0.008789,0.008179,-0.991455,0.129252,0.462901,0.036947,49,273,577,5696
1644171610.163715,-0.009277,0.011841,-0.991943,0.342992,0.462901,0.082748,45,265,575,5648
1644171610.212332,-0.008484,0.00946,-0.991028,0.113985,0.417099,-0.054656,54,270,579,5696
1644171610.260465,-0.010742,0.013855,-0.990967,0.266656,0.432366,0.143817,47,275,579,5760
1644171610.30885,-0.011597,0.009583,-0.992004,0.236122,0.356031,0.036947,46,276,576,5664
1644171610.357277,-0.010803,0.00769,-0.992188,0.312458,0.432366,-0.161527,53,276,580,5712
1644171610.405665,-0.010803,0.007751,-0.990967,0.251389,0.386565,-0.192061,58,276,571,5664
1644171610.454074,-0.009766,0.00824,-0.990906,0.236122,0.371298,-0.100458,55,271,569,5648
1644171610.502461,-0.010742,0.009155,-0.989746,0.297191,0.386565,-0.085191,55,276,573,5664
1644171610.550845,-0.009888,0.005981,-0.993164,0.175053,0.447634,-0.115725,52,273,591,5728
1644171610.599241,-0.011047,0.009033,-0.993591,0.266656,0.417099,0.006412,53,271,578,5760
1644171610.647621,-0.01123,0.009094,-0.991516,0.251389,0.417099,0.006412,45,273,582,5696
1644171610.696012,-0.012512,0.008606,-0.992859,0.236122,0.386565,-0.100458,54,275,579,5760
1644171610.744403,-0.011047,0.007996,-0.991638,0.190321,0.462901,0.021679,46,274,578,5632
1644171610.792839,-0.011047,0.009277,-0.989807,0.052916,0.447634,-0.161527,60,266,578,5712
1644171610.841419,-0.009094,0.010864,-0.991394,0.312458,0.478168,-0.100458,39,276,571,5760
1644171610.889982,-0.009338,0.012512,-0.994568,0.159786,0.493435,-0.085191,52,268,582,5664
1644171610.940136,-0.01123,0.008057,-0.993347,0.190321,0.493435,-0.054656,53,266,576,5712
1644171610.990489,-0.009644,0.008728,-0.992188,0.175053,0.386565,-0.222595,58,271,576,5760
1644171611.034831,-0.010742,0.007446,-0.992126,0.220855,0.447634,-0.069924,55,274,580,5664
1644171611.131587,-0.010559,0.011902,-0.994873,0.220855,0.447634,-0.024122,51,259,578,5648
1644171611.179906,-0.013062,0.008911,-0.992798,0.251389,0.24916,-0.176794,43,274,578,5664
1644171611.228286,-0.012268,0.008911,-0.993835,0.129252,0.432366,0.12855,48,274,573,5664
1644171611.276671,-0.010315,0.009094,-0.993103,0.190321,0.371298,-0.176794,51,283,583,5712
1644171611.325109,-0.010925,0.010437,-0.992615,0.220855,0.447634,-0.008855,43,269,576,5712
1644171611.373476,-0.01178,0.009705,-0.992798,0.159786,0.417099,-0.008855,53,271,569,5712
1644171611.421869,-0.010986,0.010193,-0.993469,0.297191,0.493435,-0.069924,46,269,576,5712
1644171611.47025,-0.012451,0.00946,-0.990784,0.312458,0.600305,-0.008855,51,264,573,5696
1644171611.518652,-0.01178,0.011597,-0.990479,0.312458,0.356031,-0.130992,52,273,584,5696
1644171611.567023,-0.009888,0.008301,-0.993591,0.297191,0.417099,-0.085191,51,276,583,5648
1644171611.615432,-0.012451,0.00885,-0.990417,0.281924,0.508702,0.067481,45,268,575,5648
1644171611.663848,-0.011353,0.010437,-0.992432,0.236122,0.356031,-0.115725,46,269,585,5728
1644171611.712241,-0.009705,0.011841,-0.992554,0.236122,0.356031,-0.130992,49,280,570,5760
1644171611.760617,-0.007996,0.010071,-0.990356,0.266656,0.340763,-0.115725,54,277,582,5728
1644171611.809007,-0.010193,0.012695,-0.990173,0.113985,0.539237,-0.14626,57,275,584,5728
1644171611.857423,-0.011047,0.009766,-0.990906,0.205588,0.371298,-0.069924,43,276,576,5696
1644171611.905816,-0.009888,0.01123,-0.990295,0.312458,0.401832,-0.298931,48,276,585,5712
1644171611.954207,-0.011536,0.008423,-0.99408,0.190321,0.493435,0.052214,54,275,577,5712
1644171612.00295,-0.010254,0.009155,-0.990967,0.251389,0.294962,-0.283664,45,275,579,5648
1644171612.073226,-0.012817,0.008606,-0.992676,0.419328,0.447634,-0.115725,53,266,592,5728
1644171612.107061,-0.009705,0.012634,-0.990479,0.266656,0.340763,0.021679,53,274,587,5664
1644171612.148835,-0.012207,0.007568,-0.989807,0.297191,0.386565,-0.069924,51,283,578,5696
1644171612.244507,-0.009888,0.013672,-0.991638,0.205588,0.325496,-0.176794,48,274,580,5760
1644171612.29291,-0.009705,0.009766,-0.991821,0.281924,0.539237,-0.054656,42,273,579,5664
1644171612.341279,-0.011536,0.008179,-0.993591,0.297191,0.294962,-0.130992,52,277,575,5664
1644171612.389676,-0.010742,0.008728,-0.994873,0.175053,0.386565,0.052214,43,269,576,5664
1644171612.438061,-0.012146,0.010254,-0.991638,0.159786,0.462901,-0.222595,54,273,565,5728
1644171612.486446,-0.010132,0.008057,-0.992126,0.220855,0.417099,-0.054656,45,268,586,5664
1644171612.53487,-0.009949,0.008118,-0.992249,0.220855,0.523969,-0.130992,52,268,579,5712
1644171612.583247,-0.011353,0.00824,-0.992554,0.281924,0.447634,-0.008855,49,277,582,5728
1644171612.631632,-0.009521,0.00647,-0.996277,0.190321,0.264427,-0.008855,52,268,586,5664
1644171612.680022,-0.012573,0.009033,-0.991455,0.098718,0.432366,-0.085191,49,268,572,5712
1644171612.728411,-0.013367,0.01001,-0.991882,0.159786,0.356031,-0.039389,45,263,575,5728
1644171612.776805,-0.01062,0.007324,-0.991821,0.373527,0.447634,-0.054656,42,280,575,5696
1644171612.825298,-0.011353,0.008423,-0.992126,0.266656,0.432366,-0.115725,53,266,587,5712
1644171612.873638,-0.014099,0.008301,-0.993042,0.205588,0.523969,-0.314198,54,265,577,5664
1644171612.922021,-0.010132,0.010986,-0.992004,0.159786,0.371298,0.021679,48,274,585,5648
1644171612.970391,-0.010681,0.007996,-0.990662,0.190321,0.417099,-0.115725,57,273,582,5648
1644171613.0188,-0.011963,0.008118,-0.99231,0.08345,0.462901,-0.100458,45,265,591,5712
1644171613.085085,-0.012146,0.006287,-0.995056,0.266656,0.340763,-0.024122,52,268,568,5696
1644171613.117667,-0.009583,0.008606,-0.996277,0.220855,0.417099,-0.054656,53,276,578,5696
1644171613.167072,-0.011536,0.00824,-0.989075,0.175053,0.432366,-0.039389,48,274,585,5696
1644171613.217008,-0.012085,0.010193,-0.990479,0.175053,0.401832,-0.100458,51,271,583,5728
1644171613.309107,-0.010742,0.008911,-0.990662,0.312458,0.310229,-0.207328,49,280,577,5696
1644171613.357476,-0.00946,0.007019,-0.991028,0.220855,0.310229,-0.054656,43,271,573,5664
1644171613.405873,-0.009583,0.007568,-0.990051,0.220855,0.386565,-0.161527,47,270,577,5664
1644171613.454291,-0.012451,0.011841,-0.993286,0.266656,0.279695,0.021679,42,263,577,5696
1644171613.502682,-0.010376,0.011108,-0.994934,0.281924,0.386565,-0.130992,48,274,578,5648
1644171613.551056,-0.010315,0.008911,-0.99353,0.251389,0.462901,-0.069924,43,276,578,5664
1644171613.599455,-0.010132,0.009583,-0.991882,0.08345,0.325496,-0.008855,49,277,572,5712
1644171613.647837,-0.011719,0.008057,-0.990112,0.236122,0.371298,-0.069924,52,265,584,5712
1644171613.696222,-0.01123,0.008362,-0.991211,0.251389,0.340763,0.021679,52,268,579,5664
1644171613.744697,-0.011719,0.007202,-0.994019,0.342992,0.233893,0.067481,51,271,590,5696
1644171613.793024,-0.005981,0.011719,-0.990601,0.297191,0.508702,-0.069924,46,276,578,5696
1644171613.841413,-0.008423,0.010193,-0.991272,0.129252,0.294962,-0.100458,55,271,578,5664
1644171613.889805,-0.007568,0.010315,-0.991943,0.144519,0.325496,-0.008855,59,270,570,5712
1644171613.938204,-0.009827,0.009155,-0.988159,0.251389,0.401832,-0.115725,55,271,576,5648
1644171613.986615,-0.010071,0.006958,-0.992493,0.388794,0.401832,-0.024122,61,260,575,5664
1644171614.035042,-0.00824,0.008484,-0.992615,0.266656,0.325496,-0.008855,55,276,576,5712
1644171614.083536,-0.007324,0.008423,-0.99353,0.251389,0.417099,0.021679,46,274,573,5648
1644171614.13175,-0.012146,0.009155,-0.992798,0.220855,0.294962,-0.069924,46,274,576,5696
1644171614.180124,-0.010254,0.009705,-0.991272,0.129252,0.569771,-0.085191,51,283,580,5712
1644171614.228532,-0.009949,0.01123,-0.99115,0.113985,0.386565,-0.222595,51,269,578,5664
1644171614.278723,-0.010742,0.009216,-0.992188,0.220855,0.386565,0.052214,54,280,579,5648
1644171614.329195,-0.012451,0.010559,-0.992065,0.312458,0.356031,-0.14626,59,270,577,5664
1644171614.374052,-0.006958,0.009766,-0.991089,0.205588,0.386565,-0.130992,55,266,573,5696
1644171614.470481,-0.00946,0.006348,-0.993958,0.190321,0.218626,-0.207328,45,273,575,5760
1644171614.518846,-0.009705,0.010681,-0.993042,0.175053,0.523969,-0.176794,48,266,578,5712
1644171614.567245,-0.012024,0.011597,-0.991638,0.220855,0.371298,0.052214,55,271,571,5648
1644171614.615649,-0.011658,0.00824,-0.992432,0.220855,0.325496,-0.039389,52,273,579,5664
1644171614.664052,-0.012146,0.008362,-0.993774,0.404061,0.462901,-0.268397,41,276,587,5664
1644171614.712445,-0.010498,0.007812,-0.991516,0.08345,0.462901,-0.085191,47,268,577,5696
1644171614.760823,-0.008728,0.01178,-0.991638,0.205588,0.478168,-0.039389,52,273,579,5664
1644171614.809225,-0.008606,0.012146,-0.991821,0.159786,0.401832,-0.024122,45,285,586,5696
1644171614.857619,-0.010132,0.011658,-0.99292,0.144519,0.401832,0.036947,55,274,576,5664
1644171614.906038,-0.010742,0.009766,-0.990112,0.251389,0.294962,-0.085191,46,279,573,5712
1644171614.954443,-0.009216,0.010803,-0.99054,0.144519,0.615573,0.006412,49,270,570,5648
1644171615.002842,-0.010986,0.011536,-0.99292,0.251389,0.417099,-0.008855,47,282,570,5696
1644171615.05504,-0.009705,0.007446,-0.992493,0.236122,0.356031,-0.130992,49,265,579,5712
1644171615.099628,-0.008484,0.00946,-0.993958,0.327725,0.493435,0.021679,57,275,591,5696
1644171615.147911,-0.011108,0.008362,-0.990112,0.236122,0.24916,-0.039389,54,287,582,5696
1644171615.196332,-0.011963,0.007751,-0.988708,0.190321,0.508702,0.021679,45,268,584,5648
1644171615.244742,-0.010925,0.009094,-0.992004,0.342992,0.325496,-0.085191,48,271,576,5664
1644171615.293136,-0.012329,0.009521,-0.991943,0.342992,0.493435,-0.100458,43,266,587,5664
1644171615.341521,-0.010071,0.009644,-0.992737,0.251389,0.417099,-0.054656,57,280,575,5696
1644171615.389937,-0.011353,0.009644,-0.990662,0.175053,0.386565,-0.115725,54,275,572,5760
1644171615.440515,-0.011108,0.008667,-0.990723,0.266656,0.325496,-0.024122,55,271,583,5760
1644171615.490587,-0.009521,0.010132,-0.992981,0.297191,0.447634,-0.130992,52,280,575,5776
1644171615.535783,-0.010315,0.007996,-0.992615,0.327725,0.447634,0.052214,57,265,575,5712
1644171615.631837,-0.011169,0.008179,-0.990479,0.190321,0.371298,0.021679,51,271,580,5664
1644171615.680223,-0.010315,0.009094,-0.992615,0.281924,0.401832,-0.176794,51,274,576,5712
1644171615.728687,-0.010864,0.006592,-0.99054,0.297191,0.493435,0.082748,52,263,584,5664
1644171615.776994,-0.009033,0.008179,-0.990479,0.098718,0.508702,-0.069924,49,270,577,5776
1644171615.825411,-0.010925,0.008484,-0.993958,0.327725,0.279695,-0.024122,51,269,571,5696
1644171615.873868,-0.013062,0.009949,-0.993225,0.175053,0.371298,-0.069924,41,264,576,5712
1644171615.922257,-0.010986,0.009827,-0.99231,0.190321,0.447634,-0.176794,42,273,563,5760
1644171615.970612,-0.011963,0.008789,-0.995605,0.388794,0.508702,-0.130992,58,269,566,5696
1644171616.019031,-0.010559,0.011169,-0.994446,0.205588,0.447634,-0.100458,52,280,582,5760
1644171616.070403,-0.009766,0.009216,-0.989807,0.159786,0.432366,0.006412,54,263,575,5712
1644171616.115813,-0.010681,0.010376,-0.994019,0.251389,0.386565,-0.176794,46,274,576,5664
1644171616.164166,-0.009521,0.009583,-0.992798,0.327725,0.371298,-0.130992,54,280,584,5664
1644171616.212558,-0.012634,0.007996,-0.993103,0.266656,0.401832,0.082748,54,277,584,5728
1644171616.260909,-0.011475,0.009583,-0.992493,0.373527,0.554504,-0.161527,57,280,577,5664
1644171616.309322,-0.00769,0.009949,-0.991699,0.251389,0.386565,-0.054656,49,275,584,5712
1644171616.35772,-0.013,0.007996,-0.994446,0.159786,0.340763,0.036947,51,281,583,5712
1644171616.406122,-0.00885,0.011414,-0.992004,0.159786,0.371298,-0.14626,46,274,573,5648
1644171616.454497,-0.01001,0.007202,-0.99292,0.297191,0.386565,-0.14626,53,271,578,5728
1644171616.502881,-0.006714,0.010071,-0.989624,0.236122,0.447634,-0.039389,42,273,577,5728
1644171616.551716,-0.012878,0.007629,-0.992493,0.236122,0.508702,-0.207328,53,271,576,5696
1644171616.602651,-0.010132,0.007385,-0.990784,0.312458,0.294962,-0.054656,55,274,578,5664
1644171616.652622,-0.011169,0.009705,-0.992249,0.312458,0.478168,-0.054656,58,274,566,5712
1644171616.697526,-0.009705,0.010132,-0.993958,0.342992,0.371298,-0.176794,59,273,577,5696
1644171616.79325,-0.010437,0.010498,-0.992188,0.113985,0.478168,-0.192061,60,269,578,5728
1644171616.841611,-0.010193,0.00824,-0.993713,0.129252,0.340763,0.021679,43,264,569,5632
1644171616.890064,-0.011108,0.008301,-0.990906,0.342992,0.493435,-0.283664,45,270,577,5696
1644171616.938434,-0.01062,0.009033,-0.98938,0.175053,0.432366,0.098015,51,274,576,5696
1644171616.98684,-0.009033,0.006409,-0.991943,0.251389,0.218626,-0.100458,51,274,571,5664
1644171617.035299,-0.00946,0.010193,-0.991638,0.068183,0.462901,-0.069924,51,274,578,5712
1644171617.085877,-0.01123,0.008179,-0.991577,0.068183,0.478168,-0.298931,58,271,578,5776
1644171617.132,-0.00769,0.009949,-0.991516,0.388794,0.417099,-0.024122,53,276,573,5664
1644171617.180365,-0.010193,0.009521,-0.990112,0.205588,0.279695,0.021679,52,275,577,5664
1644171617.228743,-0.008972,0.009338,-0.992981,0.373527,0.600305,-0.207328,55,274,578,5760
1644171617.277141,-0.011597,0.007507,-0.993347,0.419328,0.508702,-0.054656,49,268,577,5712
1644171617.325531,-0.009033,0.009216,-0.992615,0.342992,0.386565,-0.130992,49,275,575,5664
1644171617.373922,-0.012329,0.006775,-0.991638,0.281924,0.478168,-0.192061,48,269,571,5664
1644171617.422334,-0.012024,0.011658,-0.993225,0.205588,0.493435,-0.14626,43,276,590,5648
1644171617.470694,-0.011902,0.010071,-0.994995,0.236122,0.447634,-0.161527,46,283,573,5696
1644171617.5191,-0.010193,0.009644,-0.991699,0.205588,0.569771,-0.039389,54,273,584,5712
1644171617.567882,-0.009094,0.008789,-0.990173,0.266656,0.386565,-0.085191,48,279,576,5696
1644171617.618267,-0.009155,0.009888,-0.991455,0.236122,0.401832,-0.222595,52,282,586,5696
1644171617.668363,-0.01001,0.009521,-0.995117,0.052916,0.432366,-0.176794,54,273,579,5696
1644171617.713386,-0.010376,0.006348,-0.989929,0.266656,0.401832,0.036947,46,276,578,5696
1644171617.809426,-0.010864,0.011292,-0.991455,0.297191,0.264427,-0.176794,52,270,584,5600
1644171617.857811,-0.009521,0.01001,-0.991943,0.434595,0.325496,-0.207328,55,264,578,5664
1644171617.906235,-0.010864,0.011108,-0.991272,0.236122,0.523969,-0.130992,54,280,579,5648
1644171617.954658,-0.011902,0.007629,-0.992798,0.190321,0.432366,-0.008855,33,270,577,5664
1644171618.003035,-0.01062,0.010132,-0.992798,0.297191,0.462901,-0.130992,59,273,575,5664
1644171618.064002,-0.010071,0.008667,-0.992371,0.373527,0.478168,-0.161527,55,276,578,5728
1644171618.099787,-0.010681,0.007446,-0.990723,0.236122,0.508702,-0.115725,43,279,569,5696
1644171618.148207,-0.007202,0.009216,-0.989563,0.129252,0.386565,-0.130992,42,273,575,5648
1644171618.196616,-0.009827,0.009949,-0.990479,0.35826,0.447634,-0.115725,54,275,570,5712
1644171618.245123,-0.008545,0.009644,-0.991089,0.297191,0.462901,0.021679,46,271,564,5712
1644171618.293395,-0.011841,0.012329,-0.992615,0.419328,0.386565,-0.207328,54,268,561,5664
1644171618.341777,-0.011414,0.010681,-0.989807,0.129252,0.539237,0.006412,52,273,577,5696
1644171618.390188,-0.011292,0.011169,-0.992493,0.312458,0.356031,-0.115725,46,266,573,5712
1644171618.438532,-0.010681,0.007446,-0.99353,0.220855,0.569771,-0.176794,51,271,573,5648
1644171618.486942,-0.008301,0.007141,-0.994751,0.129252,0.447634,-0.054656,58,274,576,5664
1644171618.535327,-0.011963,0.008484,-0.992188,0.205588,0.371298,-0.25313,46,264,583,5648
1644171618.583737,-0.010437,0.008484,-0.99054,0.281924,0.386565,-0.024122,42,275,563,5728
1644171618.633331,-0.012146,0.010071,-0.991943,0.281924,0.371298,0.006412,54,282,579,5664
1644171618.683711,-0.011536,0.00824,-0.988525,0.312458,0.478168,-0.192061,53,276,573,5808
1644171618.733748,-0.00885,0.011658,-0.988586,0.373527,0.356031,-0.115725,48,281,580,5600
1644171618.77835,-0.008789,0.010132,-0.990784,0.190321,0.478168,-0.14626,53,274,578,5696
1644171618.874082,-0.010925,0.011902,-0.99469,0.251389,0.600305,-0.054656,51,274,576,5712
1644171618.922523,-0.011047,0.008057,-0.990723,0.35826,0.493435,-0.207328,55,266,583,5712
1644171618.970852,-0.010986,0.009521,-0.990845,0.297191,0.539237,0.067481,49,270,577,5712
1644171619.019234,-0.007202,0.008484,-0.992432,0.251389,0.356031,-0.054656,54,265,570,5696
1644171619.067698,-0.010742,0.009705,-0.992676,0.251389,0.340763,-0.024122,45,277,582,5728
1644171619.115973,-0.010742,0.00946,-0.993774,0.205588,0.371298,-0.268397,48,264,571,5712
1644171619.16437,-0.009338,0.01062,-0.990967,0.236122,0.554504,-0.115725,45,277,570,5696
1644171619.212789,-0.010864,0.007812,-0.990234,0.190321,0.493435,-0.14626,51,271,573,5712
1644171619.26116,-0.01123,0.012207,-0.993286,0.281924,0.462901,-0.14626,45,273,579,5664
1644171619.309558,-0.010132,0.00885,-0.992188,0.190321,0.417099,-0.069924,54,273,579,5696
1644171619.357945,-0.009583,0.011902,-0.990906,0.266656,0.386565,-0.207328,45,282,575,5584
1644171619.406347,-0.012085,0.010071,-0.993896,0.098718,0.447634,-0.085191,52,282,568,5728
1644171619.454759,-0.009155,0.009216,-0.992798,0.266656,0.188092,0.006412,49,270,577,5696
1644171619.503137,-0.009094,0.012085,-0.991638,0.175053,0.432366,-0.161527,47,273,570,5648
1644171619.551472,-0.009338,0.008179,-0.991882,0.312458,0.371298,0.006412,53,276,580,5712
1644171619.599903,-0.007324,0.009338,-0.990479,0.205588,0.340763,-0.069924,51,276,578,5648
1644171619.6483,-0.007141,0.006226,-0.991943,0.205588,0.493435,-0.039389,47,270,577,5696
1644171619.696738,-0.011963,0.008484,-0.991699,0.175053,0.478168,-0.024122,51,269,587,5664
1644171619.745102,-0.009644,0.012817,-0.993042,0.312458,0.24916,-0.024122,55,281,573,5648
1644171619.795128,-0.010376,0.009583,-0.992737,0.404061,0.432366,-0.085191,53,274,573,5712
1644171619.844972,-0.011475,0.007141,-0.993408,0.205588,0.447634,0.006412,51,274,569,5728
1644171619.895347,-0.009094,0.010498,-0.991943,0.236122,0.523969,-0.008855,46,279,578,5696
1644171619.939848,-0.010986,0.012085,-0.991028,0.388794,0.523969,-0.008855,43,276,578,5648
1644171620.035425,-0.009277,0.010864,-0.992126,0.129252,0.432366,0.006412,57,265,572,5648
1644171620.084417,-0.00946,0.008423,-0.992493,0.190321,0.478168,-0.130992,59,273,575,5696
1644171620.132391,-0.010132,0.010437,-0.994263,0.419328,0.432366,-0.100458,54,285,570,5696
1644171620.180574,-0.011353,0.00946,-0.992371,0.052916,0.356031,-0.069924,45,275,582,5664
1644171620.228965,-0.011475,0.012878,-0.995178,0.236122,0.401832,-0.069924,59,263,568,5712
1644171620.277337,-0.010864,0.011047,-0.99469,0.144519,0.462901,-0.207328,52,273,577,5696
1644171620.325749,-0.008606,0.009583,-0.989319,0.297191,0.24916,-0.008855,54,282,572,5664
1644171620.374149,-0.009583,0.009338,-0.989746,0.190321,0.356031,0.036947,47,268,570,5728
1644171620.422565,-0.009033,0.007568,-0.992981,0.266656,0.401832,-0.115725,53,266,573,5728
1644171620.470897,-0.008484,0.009766,-0.992065,0.236122,0.432366,0.006412,52,275,575,5696
1644171620.519315,-0.009888,0.011353,-0.991394,0.205588,0.554504,-0.085191,48,274,583,5664
1644171620.567703,-0.008789,0.009583,-0.990356,0.404061,0.294962,-0.176794,53,271,578,5760
1644171620.616096,-0.008545,0.010254,-0.993591,0.175053,0.356031,-0.161527,53,286,576,5664
1644171620.664505,-0.008057,0.010376,-0.99176,0.144519,0.432366,-0.024122,48,271,571,5696
1644171620.712904,-0.010925,0.00946,-0.993408,0.190321,0.417099,-0.161527,58,271,585,5696
1644171620.761245,-0.01001,0.011292,-0.992493,0.327725,0.294962,-0.039389,58,269,576,5664
1644171620.809672,-0.010254,0.010437,-0.992493,0.205588,0.356031,-0.008855,49,273,584,5760
1644171620.858085,-0.011108,0.01062,-0.990906,0.404061,0.340763,-0.115725,45,275,579,5728
1644171620.906511,-0.013977,0.008606,-0.991211,0.297191,0.279695,-0.176794,53,266,585,5648
1644171620.956527,-0.009705,0.007263,-0.992554,0.236122,0.294962,0.098015,52,263,579,5728
1644171621.006508,-0.008728,0.010986,-0.992859,0.327725,0.508702,-0.115725,40,275,572,5648
1644171621.100416,-0.010437,0.008301,-0.992676,0.342992,0.386565,-0.085191,51,276,580,5696
1644171621.148384,-0.009094,0.012512,-0.990234,0.281924,0.356031,-0.115725,47,282,570,5648
1644171621.196774,-0.011353,0.009399,-0.989746,0.35826,0.493435,-0.100458,48,281,576,5664
1644171621.245162,-0.009399,0.011108,-0.989685,0.312458,0.356031,-0.14626,42,275,582,5664
1644171621.293576,-0.00946,0.010803,-0.99231,0.236122,0.371298,-0.085191,51,271,578,5776
1644171621.341958,-0.010071,0.008301,-0.992981,0.312458,0.218626,-0.100458,52,280,577,5712
1644171621.39035,-0.011108,0.009705,-0.989746,0.251389,0.432366,-0.283664,54,263,570,5760
1644171621.438705,-0.009277,0.007629,-0.993286,0.159786,0.356031,-0.054656,46,281,576,5760
1644171621.487107,-0.011597,0.00885,-0.990051,0.205588,0.356031,-0.192061,61,270,586,5696
1644171621.535508,-0.01062,0.010315,-0.989746,0.266656,0.417099,-0.115725,52,277,572,5712
1644171621.583935,-0.010986,0.011719,-0.990356,0.327725,0.386565,0.052214,55,269,573,5712
1644171621.632323,-0.009277,0.009399,-0.987732,0.205588,0.554504,-0.14626,54,282,579,5696
1644171621.680685,-0.010986,0.00885,-0.991394,0.327725,0.432366,0.006412,51,262,571,5696
1644171621.729077,-0.007568,0.011414,-0.990723,0.236122,0.508702,-0.115725,48,269,580,5728
1644171621.777654,-0.010315,0.009033,-0.991089,0.281924,0.478168,-0.024122,48,271,578,5728
1644171621.827235,-0.007568,0.009521,-0.990051,0.434595,0.417099,-0.024122,49,270,572,5712
1644171621.877972,-0.010986,0.008057,-0.991455,0.113985,0.462901,-0.176794,52,268,577,5760
1644171621.928155,-0.008484,0.007996,-0.992004,0.342992,0.386565,0.052214,59,268,572,5696
1644171622.019457,-0.01062,0.012329,-0.991211,0.205588,0.386565,-0.25313,48,274,576,5696
1644171622.067911,-0.009277,0.008057,-0.993774,0.251389,0.462901,-0.115725,54,270,579,5696
1644171622.116256,-0.008057,0.010803,-0.990845,0.098718,0.356031,-0.161527,43,269,571,5696
1644171622.164637,-0.010376,0.01062,-0.990967,0.388794,0.401832,-0.054656,54,265,575,5664
1644171622.213014,-0.008545,0.010803,-0.991638,0.266656,0.340763,-0.161527,55,286,580,5632
1644171622.261386,-0.012207,0.010254,-0.992065,0.266656,0.325496,-0.024122,51,269,571,5712
1644171622.309767,-0.010864,0.009644,-0.992493,0.312458,0.386565,-0.115725,57,282,565,5648
1644171622.358171,-0.012329,0.010132,-0.992859,0.113985,0.600305,-0.100458,52,275,577,5664
1644171622.406559,-0.010681,0.008484,-0.991272,0.220855,0.417099,-0.085191,55,274,578,5696
1644171622.455055,-0.011841,0.005798,-0.99292,0.098718,0.371298,-0.130992,46,274,573,5696
1644171622.5033,-0.010864,0.009033,-0.992371,0.281924,0.294962,-0.14626,60,264,585,5712
1644171622.551722,-0.012451,0.011353,-0.994812,0.220855,0.447634,-0.176794,54,265,579,5696
1644171622.600115,-0.007202,0.010803,-0.992737,0.388794,0.493435,-0.039389,54,273,579,5776
1644171622.648515,-0.009155,0.010071,-0.991272,0.251389,0.478168,-0.207328,55,274,576,5648
1644171622.696898,-0.009338,0.010132,-0.990356,0.113985,0.371298,-0.008855,46,276,587,5712
1644171622.745291,-0.011963,0.009094,-0.990845,0.220855,0.340763,-0.222595,46,274,583,5728
1644171622.793675,-0.010681,0.00824,-0.992676,0.113985,0.401832,-0.176794,53,283,578,5696
1644171622.842167,-0.009277,0.008911,-0.991882,0.205588,0.371298,-0.130992,46,276,583,5728
1644171622.890521,-0.012756,0.009705,-0.990234,0.373527,0.417099,-0.176794,54,268,572,5696
1644171622.940422,-0.009949,0.009705,-0.991272,0.297191,0.340763,-0.207328,53,271,569,5664
1644171622.990588,-0.012573,0.009583,-0.989685,0.388794,0.478168,-0.024122,46,274,576,5696
1644171623.061934,-0.009888,0.011414,-0.988831,0.266656,0.371298,-0.130992,47,277,579,5696
1644171623.090792,-0.009094,0.012024,-0.993652,0.236122,0.340763,-0.008855,48,274,590,5648
1644171623.180805,-0.010864,0.008179,-0.989807,0.449863,0.432366,-0.069924,52,277,577,5664
1644171623.229196,-0.013855,0.00885,-0.992981,0.266656,0.447634,-0.024122,58,266,573,5696
1644171623.277566,-0.010437,0.011047,-0.993103,0.236122,0.462901,-0.161527,47,282,570,5728
1644171623.325975,-0.011108,0.01001,-0.989746,0.449863,0.432366,-0.176794,47,265,582,5696
1644171623.374367,-0.011414,0.010071,-0.994202,0.190321,0.356031,-0.069924,53,276,566,5648
1644171623.422782,-0.013184,0.007202,-0.992249,0.251389,0.493435,0.021679,58,266,571,5712
1644171623.471143,-0.00946,0.009216,-0.992493,0.373527,0.432366,-0.069924,51,274,569,5648
1644171623.519539,-0.007935,0.012451,-0.991089,-0.038687,0.340763,-0.039389,54,273,575,5728
1644171623.567931,-0.010071,0.011475,-0.993103,0.327725,0.401832,-0.008855,53,266,576,5664
1644171623.616313,-0.010498,0.008606,-0.990295,0.35826,0.508702,-0.130992,51,271,587,5648
1644171623.664796,-0.008606,0.009705,-0.99353,0.297191,0.432366,-0.024122,58,266,583,5696
1644171623.713121,-0.006287,0.008179,-0.994019,0.175053,0.310229,-0.024122,48,271,569,5648
1644171623.761461,-0.011536,0.008789,-0.992432,0.175053,0.478168,-0.039389,47,270,584,5648
1644171623.809882,-0.009155,0.009888,-0.992859,0.098718,0.294962,-0.100458,53,281,573,5632
1644171623.858317,-0.011475,0.011597,-0.991943,0.266656,0.508702,-0.039389,59,273,572,5696
1644171623.906697,-0.012329,0.009644,-0.991272,0.144519,0.356031,-0.069924,57,268,575,5664
1644171623.955135,-0.011902,0.011841,-0.992981,0.266656,0.401832,-0.069924,52,268,575,5696
1644171624.003824,-0.010742,0.010986,-0.993835,0.312458,0.340763,-0.115725,54,273,575,5664
1644171624.100246,-0.011963,0.00885,-0.993042,0.251389,0.432366,-0.115725,53,276,576,5728
1644171624.148657,-0.00885,0.007324,-0.994446,0.419328,0.371298,-0.192061,47,275,568,5648
1644171624.19701,-0.009033,0.010132,-0.99469,0.35826,0.432366,-0.024122,57,280,565,5664
1644171624.245374,-0.012024,0.007751,-0.989441,0.236122,0.371298,-0.130992,47,265,575,5696
1644171624.293803,-0.011841,0.006409,-0.991577,0.220855,0.386565,0.067481,47,273,575,5728
1644171624.342241,-0.011414,0.009705,-0.992249,0.266656,0.493435,-0.085191,45,280,570,5664
1644171624.39054,-0.007935,0.008972,-0.990784,0.297191,0.401832,-0.085191,55,271,573,5712
1644171624.438967,-0.012146,0.007568,-0.991577,0.266656,0.508702,-0.130992,54,280,575,5664
1644171624.487345,-0.012146,0.009644,-0.992432,0.236122,0.24916,-0.100458,57,268,572,5760
1644171624.53575,-0.012756,0.01001,-0.990601,0.236122,0.340763,0.082748,52,277,579,5664
1644171624.58413,-0.013245,0.009399,-0.992249,0.297191,0.585038,-0.25313,58,274,583,5712
1644171624.632552,-0.011108,0.009399,-0.990723,0.35826,0.432366,-0.024122,55,269,585,5712
1644171624.680907,-0.011292,0.010193,-0.992065,0.175053,0.508702,-0.176794,53,274,587,5696
1644171624.729304,-0.008667,0.008789,-0.992798,0.129252,0.432366,-0.054656,54,275,577,5664
1644171624.777887,-0.009766,0.006287,-0.991882,0.205588,0.417099,0.006412,49,275,575,5664
1644171624.82839,-0.013184,0.007751,-0.993774,0.327725,0.417099,-0.008855,59,275,568,5712
1644171624.879238,-0.009583,0.008423,-0.994507,0.144519,0.340763,0.067481,53,271,576,5696
1644171624.924012,-0.009277,0.010071,-0.993896,0.022382,0.340763,-0.039389,51,279,569,5696
1644171625.019662,-0.014038,0.008789,-0.992981,0.297191,0.401832,0.021679,52,270,570,5696
1644171625.068168,-0.011414,0.008362,-0.992676,0.251389,0.356031,-0.130992,46,276,569,5712
1644171625.116394,-0.011536,0.011597,-0.991394,0.281924,0.493435,-0.161527,47,268,575,5696
1644171625.164867,-0.014282,0.008789,-0.990479,0.281924,0.401832,-0.100458,46,269,571,5696
1644171625.213225,-0.009521,0.008179,-0.991821,0.373527,0.310229,-0.176794,52,282,575,5776
1644171625.261615,-0.008362,0.01062,-0.992676,0.297191,0.386565,0.052214,64,280,582,5648
1644171625.309998,-0.009766,0.010681,-0.989563,0.190321,0.356031,-0.115725,43,276,573,5648
1644171625.358385,-0.008545,0.008911,-0.993469,0.342992,0.447634,-0.008855,60,274,573,5648
1644171625.406775,-0.011597,0.007996,-0.994202,0.144519,0.218626,0.006412,52,270,572,5664
1644171625.455271,-0.009766,0.008545,-0.989258,0.312458,0.523969,-0.207328,57,280,568,5696
1644171625.503582,-0.010376,0.009155,-0.990845,0.129252,0.417099,0.067481,40,273,577,5600
1644171625.55196,-0.010559,0.011719,-0.989075,0.281924,0.447634,-0.115725,43,266,573,5648
1644171625.600335,-0.010559,0.011353,-0.992249,0.144519,0.417099,-0.024122,51,271,580,5696
1644171625.648705,-0.010803,0.010071,-0.992004,0.190321,0.386565,0.006412,58,266,587,5696
1644171625.697125,-0.012024,0.009155,-0.992554,0.159786,0.127023,-0.039389,47,273,570,5664
1644171625.745521,-0.009888,0.009949,-0.989929,0.220855,0.523969,-0.024122,60,281,569,5664
1644171625.793943,-0.008667,0.008545,-0.992371,0.220855,0.478168,-0.054656,42,270,582,5664
1644171625.842346,-0.011353,0.00946,-0.990723,0.144519,0.508702,-0.100458,54,263,582,5664
1644171625.890728,-0.011169,0.009216,-0.993286,0.312458,0.432366,0.036947,55,264,578,5728
1644171625.940244,-0.009155,0.009827,-0.992004,0.205588,0.310229,-0.008855,57,268,577,5728
1644171625.9904,-0.01001,0.007935,-0.99231,0.113985,0.401832,-0.100458,51,257,571,5696
1644171626.052549,-0.01239,0.008484,-0.995483,0.205588,0.417099,-0.222595,52,280,584,5696
1644171626.088518,-0.01355,0.008972,-0.993835,0.220855,0.325496,-0.039389,47,277,582,5712
1644171626.181009,-0.010376,0.009521,-0.991882,0.236122,0.432366,-0.161527,48,266,583,5664
1644171626.229412,-0.009338,0.00885,-0.992798,0.190321,0.386565,-0.008855,49,273,572,5696
1644171626.277776,-0.010437,0.011108,-0.992859,0.266656,0.417099,-0.054656,58,276,573,5664
1644171626.326183,-0.011536,0.008728,-0.99231,0.144519,0.386565,-0.100458,54,268,579,5712
1644171626.374627,-0.008423,0.009705,-0.991882,0.175053,0.325496,-0.085191,58,271,569,5760
1644171626.423005,-0.010376,0.011292,-0.993286,0.190321,0.478168,-0.115725,42,273,572,5664
1644171626.471375,-0.007812,0.008301,-0.991455,0.617802,0.264427,0.006412,42,265,577,5696
1644171626.519765,-0.009338,0.010864,-0.99231,0.205588,0.462901,-0.039389,51,271,571,5712
1644171626.568155,-0.010437,0.009827,-0.990845,0.251389,0.523969,-0.207328,53,266,576,5696
1644171626.616552,-0.011353,0.010254,-0.991089,0.266656,0.508702,-0.100458,48,271,566,5696
1644171626.665068,-0.010132,0.010376,-0.990967,0.175053,0.371298,-0.008855,54,268,572,5728
1644171626.713339,-0.010254,0.007507,-0.992249,0.342992,0.508702,-0.100458,48,269,583,5696
1644171626.761697,-0.010315,0.011353,-0.989868,0.037649,0.462901,-0.130992,48,266,580,5696
1644171626.810141,-0.010071,0.010681,-0.992798,0.404061,0.493435,-0.024122,49,273,582,5728
1644171626.858534,-0.015381,0.009094,-0.993347,0.251389,0.417099,-0.054656,51,276,576,5664
1644171626.906889,-0.012268,0.008179,-0.993164,0.312458,0.325496,0.159084,49,277,577,5728
1644171626.955322,-0.010437,0.011536,-0.992126,0.220855,0.310229,-0.085191,52,265,572,5696
1644171627.00379,-0.008118,0.00769,-0.992737,0.388794,0.401832,-0.085191,53,279,585,5696
1644171627.067304,-0.011169,0.007202,-0.992981,0.327725,0.294962,-0.100458,53,274,583,5648
1644171627.106417,-0.012329,0.006897,-0.989929,0.220855,0.386565,-0.054656,46,276,576,5664
1644171627.151628,-0.01123,0.009888,-0.994934,0.129252,0.417099,-0.115725,58,271,573,5712
1644171627.201723,-0.012939,0.008179,-0.992065,0.388794,0.24916,-0.024122,51,266,578,5664
1644171627.246723,-0.009888,0.007019,-0.991516,0.205588,0.310229,-0.100458,46,271,573,5664
1644171627.342402,-0.011169,0.009277,-0.994324,0.297191,0.523969,-0.115725,48,271,578,5664
1644171627.390787,-0.010681,0.007141,-0.989624,0.175053,0.386565,-0.100458,49,268,572,5696
1644171627.439181,-0.011536,0.007935,-0.991821,0.190321,0.432366,-0.054656,49,265,579,5696
1644171627.487564,-0.011169,0.007751,-0.992676,-0.008153,0.356031,-0.207328,57,275,577,5696
1644171627.535936,-0.015076,0.00592,-0.990051,0.281924,0.233893,-0.14626,46,271,573,5648
1644171627.584366,-0.010254,0.009155,-0.992554,0.205588,0.340763,0.113282,62,279,576,5648
1644171627.632774,-0.011902,0.008057,-0.991394,0.35826,0.371298,-0.100458,41,276,571,5696
1644171627.681142,-0.011841,0.006897,-0.992188,0.312458,0.310229,-0.085191,48,281,583,5696
1644171627.729531,-0.012634,0.00769,-0.992371,0.236122,0.508702,0.052214,59,260,582,5712
1644171627.777915,-0.011047,0.007996,-0.991699,0.35826,0.478168,-0.085191,53,264,576,5712
1644171627.826349,-0.010925,0.008362,-0.98999,0.297191,0.432366,-0.161527,41,276,576,5712
1644171627.874771,-0.013489,0.009888,-0.992676,0.175053,0.356031,0.12855,52,268,572,5696
1644171627.923146,-0.010803,0.007812,-0.992004,0.327725,0.371298,-0.161527,49,270,582,5776
1644171627.971519,-0.012207,0.008423,-0.992554,0.342992,0.432366,-0.192061,36,271,573,5664
1644171628.019901,-0.00708,0.00824,-0.990967,0.35826,0.462901,-0.054656,64,275,589,5696
1644171628.079798,-0.01178,0.009338,-0.99115,0.266656,0.340763,-0.039389,60,274,587,5696
1644171628.118303,-0.007507,0.010376,-0.992126,0.312458,0.447634,-0.115725,48,279,585,5696
1644171628.166596,-0.011108,0.008118,-0.993347,0.175053,0.310229,-0.222595,57,277,579,5696
1644171628.216848,-0.009277,0.010498,-0.989685,0.037649,0.478168,-0.039389,48,274,576,5696
1644171628.266951,-0.009338,0.009521,-0.993713,0.46513,0.432366,0.052214,42,273,575,5712
1644171628.358593,-0.010864,0.007446,-0.99292,0.205588,0.493435,-0.14626,55,262,580,5664
1644171628.406995,-0.008301,0.011658,-0.991089,0.052916,0.493435,-0.039389,58,269,583,5648
1644171628.455394,-0.010437,0.010376,-0.990845,0.190321,0.523969,-0.069924,46,266,583,5712
1644171628.503791,-0.012939,0.01001,-0.991333,0.190321,0.523969,-0.237863,55,279,569,5696
1644171628.552387,-0.01178,0.008362,-0.991272,0.159786,0.447634,-0.130992,53,269,571,5664
1644171628.600549,-0.012695,0.008057,-0.98761,0.205588,0.462901,-0.085191,53,279,573,5664
1644171628.648949,-0.010925,0.008911,-0.99176,0.08345,0.401832,-0.14626,40,277,572,5728
1644171628.697331,-0.007996,0.00946,-0.99231,0.35826,0.493435,0.006412,47,265,589,5728
1644171628.745702,-0.009827,0.010437,-0.991272,0.251389,0.371298,-0.069924,41,276,580,5696
1644171628.794121,-0.008362,0.009583,-0.993164,0.175053,0.356031,-0.085191,54,280,577,5728
1644171628.842576,-0.009888,0.006653,-0.991028,0.175053,0.447634,-0.008855,48,269,583,5664
1644171628.890944,-0.01062,0.008972,-0.991821,0.297191,0.417099,-0.25313,53,276,585,5648
1644171628.939341,-0.009399,0.009033,-0.992554,0.281924,0.493435,-0.069924,53,266,578,5728
1644171628.987724,-0.009705,0.010437,-0.991699,0.312458,0.417099,-0.100458,47,280,572,5664
1644171629.036109,-0.012329,0.009766,-0.992188,0.068183,0.401832,-0.14626,49,273,579,5648
1644171629.085868,-0.009338,0.007324,-0.994324,0.404061,0.523969,-0.115725,48,274,580,5600
1644171629.132887,-0.008423,0.008423,-0.991028,0.281924,0.386565,-0.100458,51,269,576,5728
1644171629.181251,-0.010498,0.007507,-0.991943,0.236122,0.447634,-0.085191,51,274,583,5664
1644171629.229609,-0.012512,0.007812,-0.991455,0.449863,0.508702,0.021679,51,274,578,5696
1644171629.278038,-0.009949,0.008606,-0.992249,0.129252,0.417099,-0.100458,55,276,573,5712
1644171629.328264,-0.009766,0.009705,-0.99353,0.342992,0.508702,-0.024122,49,273,579,5696
1644171629.378574,-0.009155,0.007935,-0.993042,0.159786,0.371298,-0.130992,47,265,575,5696
1644171629.424395,-0.012329,0.010559,-0.992859,0.190321,0.386565,0.006412,43,266,580,5664
1644171629.519984,-0.010437,0.010376,-0.993347,0.190321,0.371298,-0.069924,58,276,576,5760
1644171629.568361,-0.012512,0.010986,-0.992249,0.373527,0.523969,-0.222595,47,277,577,5712
1644171629.616747,-0.009521,0.009338,-0.992004,0.144519,0.340763,-0.085191,58,274,576,5664
1644171629.665218,-0.009827,0.009033,-0.992249,0.144519,0.447634,-0.085191,58,271,576,5664
1644171629.713535,-0.012573,0.008423,-0.991455,0.342992,0.462901,-0.130992,49,270,579,5664
1644171629.761932,-0.011353,0.007935,-0.991699,0.327725,0.493435,0.082748,53,281,576,5648
1644171629.810326,-0.008179,0.010254,-0.990295,0.236122,0.264427,0.006412,58,276,566,5696
1644171629.858764,-0.010376,0.010559,-0.992981,0.190321,0.462901,0.006412,48,279,578,5712
1644171629.907151,-0.011841,0.011597,-0.992126,0.205588,0.417099,-0.25313,47,268,582,5664
1644171629.955546,-0.00708,0.008911,-0.991821,0.205588,0.478168,-0.14626,49,280,584,5648
1644171630.003942,-0.010559,0.010559,-0.992371,0.190321,0.447634,-0.054656,48,274,573,5712
1644171630.05916,-0.00824,0.010376,-0.991211,0.388794,0.462901,0.067481,47,270,591,5696
1644171630.100729,-0.007263,0.00885,-0.991089,0.220855,0.325496,-0.14626,54,280,577,5712
1644171630.149066,-0.008423,0.010742,-0.991089,0.175053,0.294962,-0.054656,55,274,566,5648
1644171630.197456,-0.009949,0.006714,-0.992126,0.190321,0.585038,-0.054656,54,277,575,5728
1644171630.245832,-0.012146,0.01123,-0.990723,0.342992,0.371298,-0.100458,59,273,579,5728
1644171630.294225,-0.010132,0.009888,-0.990051,0.068183,0.325496,-0.069924,38,280,584,5712
1644171630.34264,-0.01062,0.009033,-0.993042,0.129252,0.462901,-0.130992,51,264,573,5712
1644171630.391032,-0.010925,0.008728,-0.990845,0.098718,0.462901,0.036947,57,270,575,5696
1644171630.439428,-0.009827,0.009766,-0.991516,0.205588,0.264427,-0.085191,46,274,580,5760
1644171630.489696,-0.011536,0.008972,-0.991516,0.205588,0.508702,-0.207328,59,277,575,5728
1644171630.539992,-0.010803,0.010437,-0.991455,0.35826,0.340763,-0.192061,55,276,578,5712
1644171630.584901,-0.007019,0.008179,-0.993469,0.312458,0.493435,-0.085191,48,281,578,5648
1644171630.681345,-0.007935,0.01239,-0.992004,0.312458,0.325496,-0.176794,54,263,570,5696
1644171630.729738,-0.013123,0.010376,-0.992981,0.236122,0.386565,-0.115725,57,265,579,5760
1644171630.778131,-0.008362,0.006531,-0.990906,0.129252,0.279695,0.006412,59,282,575,5712
1644171630.82653,-0.009827,0.01239,-0.98999,0.220855,0.279695,-0.085191,55,266,580,5728
1644171630.875018,-0.010254,0.007751,-0.991943,0.251389,0.417099,-0.085191,46,276,576,5712
1644171630.923359,-0.013733,0.009583,-0.990784,0.205588,0.569771,-0.100458,57,277,572,5648
1644171630.971756,-0.010681,0.009155,-0.990845,0.098718,0.417099,-0.115725,49,277,586,5664
1644171631.020136,-0.009338,0.00824,-0.991089,0.159786,0.340763,0.006412,52,275,568,5728
1644171631.074926,-0.01062,0.008362,-0.990906,0.312458,0.493435,-0.130992,43,279,571,5696
1644171631.116949,-0.015076,0.010559,-0.99231,0.098718,0.401832,-0.085191,49,270,575,5648
1644171631.165293,-0.012573,0.010559,-0.990601,0.129252,0.386565,-0.085191,51,274,578,5760
1644171631.213671,-0.008057,0.008423,-0.98938,0.266656,0.356031,-0.069924,49,268,577,5664
1644171631.262018,-0.011597,0.011475,-0.991089,0.388794,0.478168,0.021679,51,264,580,5712
1644171631.310438,-0.01178,0.010071,-0.993652,0.236122,0.340763,-0.161527,51,274,590,5712
1644171631.358823,-0.008911,0.009583,-0.990173,0.052916,0.356031,-0.039389,60,274,578,5648
1644171631.407226,-0.01123,0.010864,-0.992981,0.236122,0.340763,-0.069924,48,266,583,5696
1644171631.45561,-0.008118,0.010986,-0.989746,0.297191,0.371298,-0.268397,53,271,583,5728
1644171631.503978,-0.00708,0.009827,-0.991333,0.251389,0.264427,-0.054656,41,274,578,5600
1644171631.552497,-0.011963,0.010803,-0.993225,0.220855,0.447634,0.052214,53,279,580,5696
1644171631.602337,-0.010315,0.010803,-0.991699,0.159786,0.386565,-0.176794,59,270,589,5696
1644171631.652336,-0.010803,0.006897,-0.992798,0.342992,0.386565,-0.161527,43,271,576,5696
1644171631.702508,-0.012573,0.009338,-0.99292,0.205588,0.447634,0.082748,61,273,582,5712
1644171631.794371,-0.013184,0.011047,-0.99469,0.098718,0.340763,-0.024122,48,269,571,5696
1644171631.842742,-0.008789,0.009827,-0.992493,0.327725,0.417099,-0.192061,54,268,579,5696
1644171631.891166,-0.010742,0.008301,-0.99231,0.251389,0.340763,-0.085191,54,273,575,5712
1644171631.939552,-0.012329,0.009888,-0.993958,0.388794,0.340763,-0.085191,59,263,586,5648
1644171631.987947,-0.009644,0.007446,-0.990662,0.098718,0.264427,-0.008855,41,269,578,5664
1644171632.036332,-0.009216,0.008972,-0.992859,0.220855,0.325496,-0.192061,53,269,578,5712
1644171632.089213,-0.010803,0.011902,-0.992676,0.404061,0.279695,-0.130992,58,269,587,5712
1644171632.133153,-0.01001,0.008911,-0.990601,0.266656,0.432366,-0.115725,47,277,582,5712
1644171632.181476,-0.01355,0.009766,-0.993835,0.297191,0.371298,-0.100458,57,270,572,5728
1644171632.229852,-0.009827,0.00946,-0.990784,0.175053,0.432366,-0.100458,51,274,580,5696
1644171632.278229,-0.006958,0.008911,-0.991455,0.022382,0.447634,-0.115725,46,281,573,5776
1644171632.326643,-0.011719,0.009827,-0.992737,0.404061,0.356031,-0.176794,48,269,573,5696
1644171632.375072,-0.012817,0.007385,-0.993103,0.404061,0.417099,0.098015,49,273,575,5664
1644171632.423433,-0.009888,0.009033,-0.990906,0.068183,0.203359,-0.085191,51,271,585,5664
1644171632.471809,-0.00885,0.009705,-0.992065,0.159786,0.462901,0.036947,55,266,578,5696
1644171632.520533,-0.011719,0.00824,-0.992126,0.205588,0.554504,-0.25313,47,270,570,5712
1644171632.569745,-0.008423,0.006348,-0.988831,0.266656,0.279695,-0.115725,46,274,580,5632
1644171632.620204,-0.010498,0.008972,-0.990234,0.312458,0.371298,-0.237863,53,271,571,5712
1644171632.670195,-0.011169,0.009155,-0.992004,0.113985,0.432366,-0.130992,51,264,580,5648
1644171632.762392,-0.012939,0.008179,-0.995789,0.205588,0.523969,-0.176794,54,258,582,5648
1644171632.810529,-0.013062,0.010071,-0.991394,0.159786,0.401832,-0.069924,41,266,580,5696
1644171632.858936,-0.00885,0.009583,-0.99231,0.266656,0.371298,-0.069924,58,266,585,5728
1644171632.907378,-0.012085,0.011047,-0.992493,0.08345,0.294962,-0.161527,52,273,572,5664
1644171632.95576,-0.009827,0.00769,-0.995605,0.266656,0.401832,-0.008855,52,270,572,5648
1644171633.004133,-0.012756,0.008728,-0.993225,0.220855,0.325496,-0.039389,53,283,585,5712
1644171633.065988,-0.011719,0.010071,-0.990967,0.312458,0.478168,0.006412,52,275,579,5728
1644171633.102308,-0.00824,0.008362,-0.991516,0.327725,0.615573,0.052214,38,275,577,5696
1644171633.149322,-0.012024,0.009399,-0.992615,0.266656,0.462901,-0.115725,58,279,576,5696
1644171633.197682,-0.013123,0.006958,-0.992371,0.220855,0.447634,-0.008855,53,271,573,5712
1644171633.246088,-0.010925,0.009521,-0.991211,0.342992,0.325496,-0.054656,55,283,569,5712
1644171633.29452,-0.009888,0.009216,-0.99353,0.205588,0.356031,-0.130992,47,277,584,5760
1644171633.342898,-0.011108,0.009521,-0.993042,0.312458,0.172824,-0.039389,49,275,589,5664
1644171633.391297,-0.008057,0.008484,-0.993835,0.251389,0.386565,-0.176794,46,274,590,5728
1644171633.439667,-0.01178,0.013,-0.992126,0.068183,0.325496,-0.039389,57,270,577,5728
1644171633.488058,-0.011169,0.009521,-0.992554,0.251389,0.325496,-0.130992,52,280,572,5696
1644171633.536778,-0.010498,0.008789,-0.991394,0.220855,0.401832,-0.024122,49,273,579,5648
1644171633.584872,-0.010071,0.008362,-0.992126,0.312458,0.340763,-0.115725,49,277,577,5664
1644171633.634696,-0.013916,0.009766,-0.990173,0.312458,0.417099,-0.039389,48,271,580,5712
1644171633.684694,-0.013184,0.014404,-0.990356,0.251389,0.447634,-0.115725,47,265,572,5664
1644171633.734796,-0.011658,0.009216,-0.990662,0.388794,0.356031,-0.14626,59,275,582,5664
1644171633.77958,-0.010559,0.00592,-0.993164,0.251389,0.493435,-0.054656,58,276,585,5696
1644171633.87542,-0.011536,0.012634,-0.990173,0.129252,0.493435,0.067481,47,275,582,5760
1644171633.923597,-0.011902,0.008606,-0.98999,0.175053,0.523969,-0.161527,47,285,572,5632
1644171633.971956,-0.010986,0.008911,-0.989685,0.266656,0.447634,-0.008855,51,271,578,5728
1644171634.020352,-0.00885,0.010132,-0.991272,0.190321,0.371298,-0.176794,52,273,570,5696
1644171634.068811,-0.00647,0.012085,-0.991699,0.251389,0.325496,-0.222595,51,276,573,5728
1644171634.117089,-0.010681,0.009644,-0.992249,0.297191,0.401832,-0.130992,60,271,583,5712
1644171634.165478,-0.012085,0.009277,-0.993042,0.175053,0.493435,-0.008855,58,276,576,5712
1644171634.213892,-0.009033,0.010681,-0.992859,0.281924,0.340763,-0.054656,48,271,576,5712
1644171634.262276,-0.011047,0.007751,-0.991272,0.281924,0.279695,-0.054656,51,279,571,5648
1644171634.310668,-0.011902,0.008484,-0.990967,0.281924,0.310229,-0.130992,57,273,579,5696
1644171634.359051,-0.010986,0.010254,-0.995605,0.312458,0.233893,0.021679,54,287,577,5776
1644171634.407452,-0.009155,0.010681,-0.988953,0.327725,0.447634,-0.25313,48,276,576,5648
1644171634.455832,-0.012085,0.007751,-0.991028,0.190321,0.294962,-0.192061,55,269,571,5696
1644171634.504208,-0.010742,0.009033,-0.99231,0.251389,0.294962,0.006412,57,280,572,5712
1644171634.55263,-0.012573,0.00824,-0.992615,0.144519,0.340763,0.113282,58,271,583,5664
1644171634.60101,-0.011292,0.008789,-0.990173,0.205588,0.523969,0.052214,46,281,587,5664
1644171634.649389,-0.011047,0.009521,-0.99115,0.190321,0.554504,-0.008855,52,277,579,5664
1644171634.698,-0.014038,0.010254,-0.990234,0.297191,0.340763,-0.024122,59,275,584,5696
1644171634.746816,-0.010986,0.008667,-0.993286,0.129252,0.325496,-0.085191,54,275,591,5648
1644171634.798009,-0.010498,0.006714,-0.991699,0.373527,0.462901,-0.008855,48,279,576,5648
1644171634.848572,-0.008972,0.011047,-0.992737,0.342992,0.386565,-0.100458,58,276,590,5728
1644171634.892911,-0.009949,0.00647,-0.991089,0.08345,0.371298,-0.14626,43,276,578,5712
1644171634.988144,-0.010803,0.012146,-0.99353,0.266656,0.447634,-0.085191,48,271,580,5696
1644171635.036541,-0.009705,0.009644,-0.989746,0.251389,0.569771,-0.024122,46,279,583,5712
1644171635.085798,-0.007385,0.010925,-0.995178,0.266656,0.462901,-0.100458,60,269,587,5760
1644171635.13331,-0.015991,0.008362,-0.991211,0.281924,0.569771,-0.039389,40,270,582,5664
1644171635.181692,-0.011963,0.006348,-0.991089,0.175053,0.432366,-0.192061,43,283,580,5728
1644171635.230081,-0.010071,0.011108,-0.991455,0.190321,0.218626,-0.115725,48,271,573,5712
1644171635.278456,-0.010864,0.01062,-0.991455,0.098718,0.356031,-0.069924,45,280,577,5664
1644171635.326862,-0.011475,0.008789,-0.988647,0.144519,0.447634,-0.115725,42,268,570,5776
1644171635.375249,-0.009949,0.009277,-0.992554,0.037649,0.386565,-0.069924,54,275,584,5696
1644171635.423661,-0.013245,0.007629,-0.992737,0.052916,0.401832,-0.115725,57,273,582,5648
1644171635.472033,-0.011536,0.012024,-0.992493,0.113985,0.340763,-0.008855,55,269,583,5664
1644171635.520397,-0.010559,0.010071,-0.993042,0.480397,0.310229,-0.115725,46,274,573,5696
1644171635.5688,-0.01001,0.008972,-0.992004,0.266656,0.401832,0.021679,59,273,572,5648
1644171635.617192,-0.009521,0.00885,-0.991211,0.236122,0.340763,-0.039389,59,275,577,5664
1644171635.665598,-0.012634,0.010864,-0.993774,0.297191,0.386565,0.052214,48,266,583,5664
1644171635.713988,-0.01001,0.007446,-0.992065,0.327725,0.508702,-0.115725,52,270,582,5696
1644171635.762397,-0.009094,0.011719,-0.991577,0.297191,0.371298,-0.054656,51,279,578,5696
1644171635.810808,-0.008911,0.008667,-0.992004,0.281924,0.432366,-0.100458,54,275,579,5632
1644171635.8592,-0.01593,0.009583,-0.995239,0.266656,0.371298,0.052214,64,270,572,5664
1644171635.909431,-0.011353,0.009216,-0.991272,0.190321,0.493435,-0.024122,59,273,570,5664
1644171635.959383,-0.009277,0.009033,-0.992981,0.373527,0.462901,-0.130992,59,268,582,5664
1644171636.063856,-0.011169,0.008423,-0.992554,0.404061,0.417099,0.052214,51,288,578,5696
1644171636.101101,-0.010864,0.007019,-0.992615,0.236122,0.371298,-0.054656,48,274,583,5696
1644171636.149496,-0.010071,0.007996,-0.992493,0.159786,0.432366,-0.130992,60,271,585,5696
1644171636.197896,-0.011841,0.01001,-0.990784,0.129252,0.218626,-0.054656,48,283,590,5648
1644171636.246268,-0.010315,0.009583,-0.993469,0.312458,0.523969,-0.115725,55,279,580,5712
1644171636.294714,-0.010437,0.00708,-0.992676,0.312458,0.462901,-0.008855,58,274,571,5664
1644171636.343064,-0.013245,0.008423,-0.993958,0.327725,0.294962,-0.100458,47,273,589,5664
1644171636.391471,-0.009521,0.008972,-0.99231,0.236122,0.371298,-0.176794,54,275,582,5664
1644171636.439847,-0.010742,0.00946,-0.992615,0.220855,0.447634,-0.100458,59,277,579,5696
1644171636.488241,-0.014038,0.006836,-0.992065,0.175053,0.462901,-0.008855,47,282,582,5728
1644171636.536625,-0.010803,0.00824,-0.993652,0.251389,0.523969,-0.237863,48,274,578,5664
1644171636.585052,-0.009827,0.008911,-0.99115,0.281924,0.462901,-0.222595,46,276,576,5696
1644171636.633412,-0.008545,0.006409,-0.994995,0.205588,0.264427,-0.100458,48,283,590,5696
1644171636.681998,-0.012451,0.008545,-0.99054,0.190321,0.462901,-0.054656,51,269,578,5712
1644171636.731356,-0.010925,0.00946,-0.991638,0.327725,0.356031,-0.054656,55,274,583,5696
1644171636.781806,-0.01178,0.008423,-0.993835,0.373527,0.447634,-0.069924,40,277,577,5664
1644171636.827669,-0.011963,0.010071,-0.992249,0.251389,0.386565,0.052214,58,271,571,5696
1644171636.923865,-0.012268,0.009399,-0.993469,0.205588,0.371298,-0.100458,54,270,584,5664
1644171636.972424,-0.009583,0.008545,-0.99231,0.236122,0.432366,-0.161527,40,268,577,5664
1644171637.020571,-0.009583,0.008118,-0.993958,0.113985,0.294962,-0.024122,51,274,576,5696
1644171637.069036,-0.010132,0.011963,-0.991577,0.266656,0.447634,-0.039389,55,269,573,5696
1644171637.11737,-0.008423,0.007935,-0.992371,0.129252,0.356031,-0.130992,54,277,575,5664
1644171637.165708,-0.010681,0.011475,-0.991028,0.312458,0.432366,-0.008855,45,277,575,5648
1644171637.214109,-0.010376,0.011902,-0.990784,0.144519,0.325496,-0.069924,59,275,575,5696
1644171637.262514,-0.013611,0.00769,-0.990051,0.373527,0.325496,-0.085191,53,276,578,5728
1644171637.31089,-0.009216,0.00769,-0.991455,0.236122,0.478168,-0.024122,42,275,579,5664
1644171637.359286,-0.011414,0.00824,-0.989136,0.236122,0.371298,-0.14626,53,271,576,5696
1644171637.407641,-0.011047,0.010315,-0.99292,0.236122,0.340763,-0.085191,55,269,583,5728
1644171637.456061,-0.010315,0.006287,-0.99115,0.297191,0.279695,0.036947,60,274,578,5696
1644171637.504459,-0.012085,0.009705,-0.992737,0.281924,0.325496,-0.115725,54,277,572,5664
1644171637.552844,-0.010437,0.00885,-0.99408,0.236122,0.340763,0.067481,49,268,577,5728
1644171637.601223,-0.009338,0.005737,-0.992126,0.266656,0.493435,-0.192061,54,277,584,5648
1644171637.649616,-0.007507,0.011108,-0.989807,0.205588,0.310229,-0.130992,49,282,577,5696
1644171637.698019,-0.011963,0.010193,-0.991333,0.220855,0.432366,-0.100458,49,282,584,5696
1644171637.746654,-0.010437,0.010132,-0.99292,0.251389,0.432366,-0.192061,61,280,579,5648
1644171637.795195,-0.010254,0.009949,-0.990417,0.175053,0.371298,-0.192061,49,275,593,5664
1644171637.845609,-0.012085,0.007019,-0.990479,0.419328,0.478168,-0.054656,51,274,580,5728
1644171637.896617,-0.011658,0.007751,-0.99231,0.312458,0.554504,-0.192061,58,264,580,5664
1644171637.988394,-0.010681,0.010864,-0.991943,0.281924,0.386565,-0.176794,43,276,578,5632
1644171638.036742,-0.009949,0.008484,-0.989197,0.35826,0.371298,0.006412,48,266,585,5712
1644171638.085381,-0.010132,0.007751,-0.992554,0.342992,0.478168,-0.100458,52,266,590,5648
1644171638.133584,-0.011414,0.008179,-0.991272,0.175053,0.371298,-0.039389,49,270,575,5776
1644171638.18192,-0.012451,0.008789,-0.992249,0.220855,0.310229,-0.115725,49,282,570,5664
1644171638.230316,-0.009033,0.012146,-0.991577,0.190321,0.447634,-0.100458,51,271,576,5696
1644171638.278682,-0.01123,0.009949,-0.988953,0.297191,0.264427,-0.039389,42,275,575,5728
1644171638.32707,-0.00769,0.010376,-0.99231,0.236122,0.447634,-0.069924,40,270,575,5648
1644171638.375484,-0.012268,0.011414,-0.99353,0.297191,0.325496,0.006412,52,263,579,5728
1644171638.423876,-0.011963,0.009949,-0.990967,0.281924,0.401832,-0.069924,52,270,575,5728
1644171638.472281,-0.010315,0.011047,-0.992554,0.129252,0.371298,-0.222595,54,280,570,5696
1644171638.520649,-0.011536,0.011292,-0.990967,0.236122,0.462901,-0.207328,51,276,571,5664
1644171638.56903,-0.010803,0.010071,-0.98822,0.205588,0.493435,-0.054656,51,283,578,5696
1644171638.617432,-0.012573,0.01239,-0.990662,0.281924,0.478168,-0.054656,52,277,568,5696
1644171638.665795,-0.007996,0.009094,-0.991333,0.342992,0.325496,-0.268397,49,277,577,5664
1644171638.714214,-0.010681,0.00885,-0.990417,0.35826,0.432366,0.067481,55,269,576,5664
1644171638.762618,-0.011047,0.010498,-0.99231,0.297191,0.432366,-0.085191,57,260,572,5648
1644171638.810988,-0.010376,0.012634,-0.99115,0.297191,0.478168,-0.100458,60,274,576,5696
1644171638.85943,-0.00946,0.010071,-0.990601,0.312458,0.447634,-0.192061,51,274,583,5696
1644171638.909233,-0.009949,0.009888,-0.991882,0.175053,0.356031,-0.039389,52,275,586,5664
1644171638.958869,-0.010803,0.009338,-0.992249,0.159786,0.386565,-0.054656,62,283,573,5696
1644171639.063716,-0.009766,0.008057,-0.992065,0.220855,0.356031,-0.008855,53,279,587,5664
1644171639.101436,-0.011597,0.009338,-0.993286,0.129252,0.493435,-0.069924,53,279,571,5712
1644171639.149753,-0.013306,0.008667,-0.994446,0.175053,0.523969,-0.192061,58,269,573,5728
1644171639.198124,-0.010376,0.009949,-0.992065,0.205588,0.600305,-0.222595,54,270,575,5728
1644171639.246495,-0.01123,0.006836,-0.993652,0.373527,0.493435,-0.268397,52,277,577,5696
1644171639.294944,-0.010803,0.008972,-0.99115,0.205588,0.462901,-0.039389,54,280,575,5648
1644171639.343311,-0.008972,0.007751,-0.993774,0.220855,0.478168,-0.085191,60,281,573,5664
1644171639.391695,-0.008728,0.007568,-0.991028,0.236122,0.478168,-0.085191,45,273,591,5760
1644171639.440053,-0.011292,0.005615,-0.993164,0.35826,0.264427,-0.008855,47,268,582,5760
1644171639.488461,-0.013123,0.007446,-0.992981,0.220855,0.478168,-0.054656,52,277,584,5712
1644171639.536841,-0.009949,0.007996,-0.993164,0.129252,0.371298,0.006412,48,269,583,5696
1644171639.58527,-0.010681,0.007874,-0.992188,0.281924,0.493435,-0.008855,45,273,577,5696
1644171639.633639,-0.013062,0.009521,-0.994202,0.144519,0.417099,-0.130992,51,271,576,5648
1644171639.682374,-0.011597,0.008423,-0.993347,0.220855,0.523969,-0.024122,52,268,582,5696
1644171639.731263,-0.009399,0.009827,-0.990723,0.113985,0.356031,0.067481,47,275,570,5664
1644171639.781841,-0.008667,0.010498,-0.994263,0.281924,0.340763,-0.161527,58,279,576,5696
1644171639.83182,-0.012878,0.007874,-0.991455,0.281924,0.386565,-0.100458,57,270,579,5696
1644171639.877479,-0.01178,0.00946,-0.99115,0.281924,0.462901,-0.039389,53,274,576,5632
1644171639.972439,-0.008362,0.010803,-0.99292,0.251389,0.539237,0.23542,52,275,586,5760
1644171640.020784,-0.00769,0.009583,-0.99054,0.297191,0.279695,-0.054656,51,274,576,5712
1644171640.069257,-0.014771,0.008728,-0.991943,0.159786,0.417099,-0.054656,49,268,582,5728
1644171640.117526,-0.011536,0.013062,-0.990417,0.159786,0.340763,-0.039389,52,258,582,5664
1644171640.165931,-0.010498,0.007202,-0.990906,0.205588,0.310229,-0.069924,55,264,587,5664
1644171640.214373,-0.010803,0.011169,-0.992737,0.281924,0.417099,-0.024122,49,277,579,5664
1644171640.262746,-0.009094,0.010315,-0.994019,0.205588,0.447634,0.082748,57,275,572,5712
1644171640.311155,-0.012329,0.006348,-0.989746,0.373527,0.447634,-0.039389,46,269,578,5664
1644171640.359509,-0.00946,0.008789,-0.991455,0.220855,0.554504,-0.130992,42,270,568,5712
1644171640.40793,-0.009521,0.010559,-0.990356,0.281924,0.447634,0.006412,48,276,576,5712
1644171640.456315,-0.012878,0.009033,-0.992004,0.297191,0.462901,-0.14626,42,275,579,5664
1644171640.504744,-0.011719,0.008301,-0.991028,0.205588,0.401832,-0.115725,45,277,582,5712
1644171640.553125,-0.013,0.011658,-0.991882,0.297191,0.325496,-0.008855,48,276,580,5648
1644171640.601495,-0.012939,0.006104,-0.994446,0.297191,0.401832,-0.207328,47,268,572,5712
1644171640.649884,-0.011597,0.009216,-0.989807,0.08345,0.432366,-0.130992,53,269,578,5664
1644171640.698278,-0.010864,0.012756,-0.994141,0.35826,0.371298,0.036947,53,269,580,5664
1644171640.746661,-0.01239,0.008606,-0.993164,0.08345,0.478168,-0.069924,52,270,577,5712
1644171640.79539,-0.007935,0.010376,-0.992737,0.297191,0.417099,-0.039389,49,277,591,5664
1644171640.84347,-0.009216,0.010254,-0.993774,0.205588,0.478168,-0.115725,48,279,583,5696
1644171640.893706,-0.007751,0.010498,-0.991943,0.281924,0.371298,-0.115725,41,276,580,5696
1644171640.943805,-0.009705,0.010498,-0.991699,0.327725,0.371298,-0.130992,52,268,582,5728
1644171640.994042,-0.011292,0.008911,-0.99408,0.190321,0.417099,-0.161527,49,273,586,5696
1644171641.038733,-0.01001,0.007019,-0.993347,0.327725,0.493435,-0.039389,45,273,572,5712
1644171641.133756,-0.009277,0.007935,-0.992859,0.281924,0.371298,-0.054656,48,269,576,5712
1644171641.182272,-0.01355,0.009338,-0.993591,0.342992,0.264427,-0.069924,60,279,585,5664
1644171641.230525,-0.009155,0.009338,-0.991882,0.220855,0.264427,-0.039389,54,273,582,5696
1644171641.278905,-0.009521,0.008667,-0.994141,0.159786,0.462901,-0.14626,59,263,579,5696
1644171641.327315,-0.011108,0.006287,-0.991089,0.327725,0.356031,-0.130992,38,277,575,5648
1644171641.375702,-0.01123,0.01001,-0.992493,0.175053,0.554504,-0.024122,55,279,576,5664
1644171641.424098,-0.00946,0.008728,-0.993103,0.342992,0.371298,-0.100458,40,260,568,5696
1644171641.472461,-0.007202,0.010132,-0.991638,0.312458,0.401832,-0.069924,51,274,573,5728
1644171641.520873,-0.007629,0.009521,-0.991394,0.144519,0.386565,-0.039389,54,265,572,5648
1644171641.569267,-0.008728,0.011414,-0.991943,0.098718,0.371298,-0.100458,39,276,590,5648
1644171641.617648,-0.007568,0.008057,-0.990417,0.281924,0.371298,0.036947,48,286,566,5696
1644171641.666044,-0.012573,0.009277,-0.989502,0.113985,0.371298,-0.054656,46,276,580,5728
1644171641.714464,-0.008667,0.010742,-0.991272,0.251389,0.432366,-0.176794,52,277,577,5776
1644171641.762833,-0.010315,0.007324,-0.990234,0.159786,0.417099,-0.008855,53,271,576,5664
1644171641.811231,-0.009521,0.010925,-0.991272,0.205588,0.447634,-0.130992,47,273,579,5664
1644171641.859651,-0.009338,0.008972,-0.99231,0.113985,0.554504,-0.192061,62,276,571,5664
1644171641.907997,-0.012085,0.009949,-0.993408,0.129252,0.569771,-0.039389,41,276,583,5728
1644171641.956465,-0.010315,0.00769,-0.992615,0.205588,0.386565,0.082748,59,277,582,5808
1644171642.056888,-0.012329,0.00708,-0.993591,0.190321,0.417099,-0.176794,48,271,583,5728
1644171642.101554,-0.00946,0.008118,-0.988953,0.190321,0.310229,-0.100458,51,281,583,5648
1644171642.149951,-0.012207,0.008972,-0.992615,0.144519,0.508702,-0.008855,48,281,583,5664
1644171642.198335,-0.013062,0.009399,-0.993347,0.327725,0.493435,-0.054656,52,275,575,5696
1644171642.246725,-0.011841,0.007019,-0.993042,0.205588,0.264427,-0.069924,43,274,578,5664
1644171642.29515,-0.013,0.004822,-0.993286,0.037649,0.462901,0.052214,52,265,584,5696
1644171642.343518,-0.011475,0.006531,-0.990845,0.312458,0.386565,-0.039389,51,279,576,5696
1644171642.391902,-0.009644,0.010132,-0.992065,0.236122,0.462901,-0.14626,47,273,579,5648
1644171642.440267,-0.010925,0.010315,-0.99115,0.281924,0.386565,-0.085191,59,270,584,5760
1644171642.488662,-0.01123,0.011536,-0.992126,0.312458,0.371298,-0.008855,54,270,579,5728
1644171642.537078,-0.008911,0.008545,-0.99115,0.236122,0.432366,-0.115725,48,266,578,5696
1644171642.585474,-0.009644,0.010254,-0.991577,0.297191,0.356031,-0.085191,43,274,573,5712
1644171642.633855,-0.010254,0.009338,-0.993286,0.220855,0.356031,-0.069924,45,280,572,5760
1644171642.682261,-0.009644,0.008667,-0.99231,0.388794,0.218626,-0.069924,54,275,570,5760
1644171642.730638,-0.012329,0.008301,-0.99408,0.159786,0.340763,-0.130992,47,270,582,5600
1644171642.779029,-0.011108,0.011536,-0.992676,0.129252,0.401832,0.021679,51,279,590,5696
1644171642.827469,-0.009644,0.014771,-0.993652,0.312458,0.447634,-0.054656,54,270,577,5712
1644171642.876219,-0.009766,0.010315,-0.990784,0.251389,0.478168,-0.222595,53,274,573,5696
1644171642.926787,-0.009888,0.008057,-0.993286,0.159786,0.371298,0.006412,57,275,565,5696
1644171642.976889,-0.011902,0.009155,-0.995544,0.35826,0.447634,0.021679,58,266,576,5648
1644171643.021313,-0.011597,0.010498,-0.992981,0.037649,0.325496,-0.085191,48,279,578,5664
1644171643.117798,-0.011719,0.010254,-0.991821,0.144519,0.432366,0.006412,51,274,583,5648
1644171643.166139,-0.010986,0.008545,-0.993164,0.175053,0.417099,-0.054656,54,275,575,5728
1644171643.214551,-0.009216,0.008118,-0.99231,0.266656,0.447634,-0.176794,54,270,572,5712
1644171643.262942,-0.012878,0.007446,-0.99292,0.220855,0.447634,-0.039389,64,263,570,5664
1644171643.311323,-0.010193,0.008179,-0.992798,0.159786,0.462901,0.006412,57,268,586,5760
1644171643.359715,-0.011475,0.006287,-0.993958,0.281924,0.279695,-0.222595,55,281,576,5664
1644171643.408102,-0.009644,0.010681,-0.992432,0.159786,0.371298,0.036947,42,280,582,5648
1644171643.456509,-0.011292,0.009705,-0.99408,0.236122,0.508702,-0.054656,47,268,579,5696
1644171643.504913,-0.011841,0.007874,-0.992004,0.281924,0.279695,-0.130992,41,264,571,5696
1644171643.553288,-0.009338,0.008423,-0.992004,0.281924,0.539237,-0.085191,41,266,580,5712
1644171643.60167,-0.008545,0.009277,-0.993408,0.251389,0.539237,-0.085191,58,269,585,5632
1644171643.650054,-0.010315,0.009949,-0.992371,0.266656,0.279695,-0.085191,58,271,583,5696
1644171643.698447,-0.010681,0.011719,-0.989624,0.220855,0.462901,-0.14626,43,274,576,5664
1644171643.74684,-0.012024,0.008911,-0.993652,0.144519,0.508702,-0.222595,45,275,579,5696
1644171643.795236,-0.01123,0.011047,-0.990479,0.236122,0.447634,-0.039389,45,277,579,5712
1644171643.843665,-0.010437,0.012268,-0.990051,0.175053,0.401832,-0.054656,57,275,577,5648
1644171643.892049,-0.011108,0.007751,-0.990784,0.251389,0.478168,-0.176794,52,275,584,5712
1644171643.940625,-0.008301,0.008057,-0.992859,0.251389,0.539237,-0.085191,57,263,591,5648
1644171643.989054,-0.009644,0.011353,-0.992615,0.251389,0.371298,-0.115725,48,276,587,5696
1644171644.039306,-0.008118,0.011597,-0.99115,0.281924,0.386565,0.067481,60,276,583,5728
1644171644.097446,-0.014465,0.008423,-0.993103,0.434595,0.401832,-0.085191,41,281,578,5664
1644171644.13418,-0.011902,0.011169,-0.991333,0.251389,0.539237,0.021679,64,280,584,5696
1644171644.230745,-0.009583,0.009949,-0.991943,0.297191,0.310229,-0.207328,52,273,572,5664
1644171644.279147,-0.01355,0.00647,-0.992554,0.129252,0.462901,-0.039389,53,286,580,5696
1644171644.327518,-0.01178,0.009033,-0.993164,0.251389,0.493435,-0.024122,49,275,568,5648
1644171644.375924,-0.010071,0.00592,-0.990784,0.220855,0.401832,-0.024122,48,271,580,5712
1644171644.424323,-0.011353,0.008789,-0.991211,0.220855,0.401832,-0.14626,57,268,577,5648
1644171644.472727,-0.009216,0.009216,-0.992249,0.190321,0.432366,-0.192061,49,263,577,5728
1644171644.521101,-0.011536,0.007812,-0.992432,0.327725,0.554504,-0.085191,53,271,580,5728
1644171644.569501,-0.012573,0.009033,-0.994446,0.236122,0.386565,-0.115725,43,274,576,5664
1644171644.617879,-0.011902,0.009888,-0.99115,0.175053,0.478168,-0.085191,43,274,576,5760
1644171644.666285,-0.010498,0.008972,-0.992554,0.388794,0.371298,-0.024122,47,277,568,5664
1644171644.714714,-0.012695,0.013611,-0.992249,0.236122,0.340763,0.036947,48,279,580,5712
1644171644.763034,-0.007263,0.006836,-0.989319,0.236122,0.447634,-0.054656,46,271,580,5696
1644171644.811432,-0.008545,0.011841,-0.991089,0.251389,0.386565,-0.008855,52,285,572,5712
1644171644.85987,-0.010071,0.008545,-0.990845,0.098718,0.386565,-0.268397,57,273,575,5728
1644171644.90826,-0.012146,0.008972,-0.991455,0.205588,0.508702,-0.115725,49,277,584,5712
1644171644.956626,-0.009094,0.009338,-0.990112,0.144519,0.325496,-0.100458,52,277,582,5664
1644171645.005103,-0.010498,0.008728,-0.990967,0.220855,0.539237,-0.161527,60,283,573,5648
1644171645.072916,-0.009583,0.008911,-0.99176,0.144519,0.340763,-0.100458,58,274,578,5696
1644171645.10601,-0.007202,0.009277,-0.991699,0.327725,0.24916,0.006412,58,276,576,5696
1644171645.15346,-0.012634,0.008362,-0.992493,0.281924,0.585038,-0.237863,49,273,577,5648
1644171645.202672,-0.009583,0.007996,-0.994995,0.220855,0.462901,-0.14626,55,264,573,5712
1644171645.247769,-0.006897,0.011658,-0.989441,0.312458,0.478168,-0.085191,60,274,569,5760
1644171645.343742,-0.009033,0.008606,-0.992065,0.297191,0.447634,-0.176794,54,280,572,5696
1644171645.392358,-0.009583,0.011963,-0.989746,0.266656,0.386565,-0.085191,55,274,576,5696
1644171645.44052,-0.010681,0.010437,-0.99054,0.312458,0.294962,-0.130992,57,282,579,5696
1644171645.489286,-0.008179,0.010193,-0.992676,0.404061,0.478168,-0.222595,42,273,577,5648
1644171645.537294,-0.00647,0.010559,-0.990845,0.266656,0.279695,-0.192061,47,273,582,5664
1644171645.585681,-0.009583,0.015198,-0.990601,0.251389,0.432366,-0.115725,51,274,585,5600
1644171645.634089,-0.009521,0.009827,-0.989929,0.098718,0.478168,0.006412,38,275,572,5648
1644171645.682502,-0.010315,0.008484,-0.992188,0.159786,0.371298,-0.161527,57,277,570,5696
1644171645.730868,-0.010071,0.008179,-0.987305,0.342992,0.340763,0.067481,49,268,579,5696
1644171645.779258,-0.012634,0.007263,-0.992004,0.220855,0.371298,-0.085191,47,273,575,5664
1644171645.827641,-0.010803,0.007507,-0.993042,0.220855,0.24916,-0.024122,52,273,575,5696
1644171645.876086,-0.008362,0.007202,-0.993225,0.266656,0.401832,-0.14626,55,271,578,5664
1644171645.924482,-0.010132,0.010071,-0.990173,0.159786,0.356031,-0.130992,48,279,571,5648
1644171645.972888,-0.009399,0.011536,-0.991455,0.236122,0.325496,-0.039389,54,280,577,5712
1644171646.021208,-0.012207,0.010132,-0.992188,0.312458,0.356031,-0.14626,52,280,577,5648
1644171646.082319,-0.01123,0.008911,-0.99054,0.220855,0.264427,-0.054656,49,275,572,5696
1644171646.118004,-0.011353,0.008423,-0.992798,0.236122,0.523969,0.067481,49,270,589,5600
1644171646.16662,-0.006897,0.011536,-0.990295,0.144519,0.356031,-0.115725,47,273,582,5664
1644171646.214996,-0.010498,0.010681,-0.992004,0.327725,0.356031,-0.14626,43,276,569,5728
1644171646.265535,-0.01178,0.011414,-0.994385,0.312458,0.371298,-0.237863,45,280,582,5728
1644171646.315706,-0.010315,0.009338,-0.990845,0.220855,0.371298,-0.115725,65,279,569,5664
1644171646.360809,-0.011719,0.008728,-0.989807,0.327725,0.264427,-0.100458,42,277,582,5728
1644171646.456706,-0.011108,0.012634,-0.991211,0.113985,0.356031,-0.085191,46,281,578,5696
1644171646.505368,-0.011902,0.00885,-0.990967,0.236122,0.356031,-0.100458,61,273,575,5728
1644171646.553505,-0.011353,0.006958,-0.994324,0.327725,0.340763,-0.14626,53,274,573,5696
1644171646.601897,-0.010925,0.010742,-0.991089,0.08345,0.340763,-0.085191,58,274,566,5696
1644171646.650253,-0.01178,0.007446,-0.990479,0.251389,0.615573,0.082748,47,260,579,5696
1644171646.698672,-0.008972,0.010925,-0.988464,0.327725,0.279695,-0.130992,43,271,573,5696
1644171646.747053,-0.010071,0.009277,-0.991333,0.113985,0.432366,-0.237863,42,275,570,5648
1644171646.795452,-0.010559,0.007935,-0.989868,0.251389,0.417099,-0.054656,61,275,584,5712
1644171646.843856,-0.009766,0.008545,-0.993164,0.113985,0.569771,-0.14626,47,268,582,5696
1644171646.892303,-0.012268,0.00824,-0.988831,0.251389,0.493435,-0.054656,52,270,577,5696
1644171646.940661,-0.010864,0.011169,-0.98877,0.098718,0.493435,-0.039389,51,271,576,5712
1644171646.989061,-0.008606,0.009583,-0.990417,0.190321,0.310229,0.067481,48,281,569,5728
1644171647.037462,-0.010986,0.012146,-0.991272,0.08345,0.371298,-0.054656,52,268,577,5664
1644171647.085861,-0.009033,0.006104,-0.98999,0.236122,0.447634,-0.192061,49,275,584,5696
1644171647.134219,-0.012573,0.007263,-0.993958,0.251389,0.462901,0.006412,52,270,586,5712
1644171647.182612,-0.010315,0.007263,-0.994507,0.312458,0.24916,-0.161527,52,282,582,5712
1644171647.230965,-0.01062,0.01001,-0.990356,0.404061,0.478168,-0.115725,47,270,582,5712
1644171647.27936,-0.011902,0.008789,-0.992554,0.297191,0.325496,-0.268397,38,268,570,5664
1644171647.327745,-0.011108,0.011719,-0.991333,0.251389,0.432366,-0.207328,48,279,587,5696
1644171647.376222,-0.011597,0.00708,-0.995056,0.175053,0.493435,-0.130992,55,279,580,5552
1644171647.427563,-0.009155,0.01123,-0.99176,0.220855,0.233893,-0.054656,55,271,571,5696
1644171647.477766,-0.009827,0.009216,-0.991699,0.266656,0.417099,-0.069924,51,276,585,5600
1644171647.522666,-0.014709,0.008728,-0.991333,0.297191,0.462901,-0.192061,48,276,578,5712
1644171647.618088,-0.009766,0.011536,-0.990417,0.220855,0.493435,-0.115725,51,266,580,5632
1644171647.666481,-0.011169,0.011414,-0.989929,0.342992,0.356031,-0.14626,51,283,580,5632
1644171647.714876,-0.011719,0.010315,-0.991821,0.129252,0.432366,-0.069924,54,277,577,5760
1644171647.76326,-0.009644,0.008179,-0.992188,0.388794,0.386565,-0.069924,49,285,591,5728
1644171647.811696,-0.010986,0.008728,-0.99231,0.236122,0.279695,-0.069924,39,271,578,5728
1644171647.860095,-0.008728,0.009521,-0.991516,0.266656,0.401832,-0.115725,47,275,572,5728
1644171647.908489,-0.010681,0.010681,-0.991943,0.205588,0.325496,-0.237863,47,280,575,5664
1644171647.956878,-0.010132,0.007263,-0.991943,0.159786,0.417099,0.006412,43,271,580,5664
1644171648.005347,-0.009583,0.00708,-0.991516,0.266656,0.356031,-0.085191,48,266,578,5728
1644171648.063276,-0.009644,0.011108,-0.99292,0.251389,0.294962,-0.222595,58,276,576,5664
1644171648.101959,-0.008606,0.01178,-0.993347,0.327725,0.356031,-0.100458,49,275,584,5712
1644171648.15037,-0.010132,0.008606,-0.993652,0.205588,0.371298,-0.14626,53,271,571,5712
1644171648.198797,-0.013428,0.008911,-0.994324,0.205588,0.554504,-0.222595,54,270,584,5728
1644171648.247173,-0.011047,0.010193,-0.991882,0.190321,0.356031,-0.192061,45,268,579,5760
1644171648.295567,-0.012817,0.00885,-0.993225,0.220855,0.386565,-0.069924,54,275,582,5696
1644171648.343964,-0.00946,0.009399,-0.99353,0.159786,0.462901,-0.054656,64,277,577,5760
1644171648.392385,-0.010559,0.007812,-0.992676,0.08345,0.447634,-0.176794,48,259,578,5664
1644171648.440737,-0.011719,0.010132,-0.992126,0.190321,0.417099,-0.069924,51,269,573,5728
1644171648.489352,-0.010376,0.010132,-0.991638,0.190321,0.401832,-0.069924,53,276,569,5696
1644171648.538118,-0.009827,0.009338,-0.994751,0.236122,0.310229,-0.085191,48,276,578,5728
1644171648.588215,-0.010132,0.007202,-0.990784,0.144519,0.279695,0.006412,47,265,586,5664
1644171648.638704,-0.01123,0.008057,-0.991333,0.113985,0.462901,-0.069924,57,268,579,5760
1644171648.683401,-0.01062,0.00769,-0.993896,0.159786,0.417099,-0.14626,54,273,575,5696
1644171648.779445,-0.006348,0.008728,-0.992004,0.236122,0.294962,-0.14626,48,274,571,5696
1644171648.827903,-0.012695,0.00885,-0.990906,0.266656,0.401832,-0.085191,54,280,572,5728
1644171648.876288,-0.012329,0.007446,-0.994385,0.205588,0.279695,-0.192061,55,274,578,5760
1644171648.92469,-0.008972,0.008179,-0.993469,0.205588,0.539237,-0.237863,58,276,583,5696
1644171648.973093,-0.009705,0.007568,-0.992737,0.220855,0.478168,-0.100458,51,262,573,5712
1644171649.021473,-0.010437,0.010498,-0.992126,0.037649,0.371298,-0.100458,55,276,571,5664
1644171649.070638,-0.010376,0.007385,-0.993896,0.159786,0.508702,0.052214,61,285,575,5760
1644171649.11819,-0.012268,0.008545,-0.993713,0.281924,0.417099,-0.100458,58,276,583,5728
1644171649.166594,-0.011414,0.010559,-0.991638,0.144519,0.279695,-0.192061,52,277,572,5808
1644171649.21512,-0.014648,0.010803,-0.991577,0.373527,0.325496,-0.100458,54,277,570,5696
1644171649.263373,-0.007996,0.008179,-0.992371,0.281924,0.447634,-0.176794,48,279,573,5664
1644171649.31178,-0.011597,0.005493,-0.989929,0.236122,0.386565,-0.100458,51,274,578,5696
1644171649.360162,-0.010498,0.009155,-0.992065,0.236122,0.447634,0.067481,51,269,576,5664
1644171649.408569,-0.009766,0.01001,-0.991089,0.281924,0.432366,-0.054656,48,266,576,5728
1644171649.456953,-0.010132,0.005981,-0.990906,0.434595,0.386565,-0.192061,54,282,570,5648
1644171649.505322,-0.007874,0.010132,-0.991638,0.144519,0.432366,-0.192061,55,276,578,5712
1644171649.553719,-0.009338,0.009521,-0.993347,0.297191,0.401832,-0.176794,49,265,584,5728
1644171649.602169,-0.008667,0.009277,-0.992676,0.068183,0.432366,-0.237863,51,271,583,5776
1644171649.650513,-0.009827,0.008972,-0.991577,0.113985,0.386565,-0.115725,45,280,579,5648
1644171649.699065,-0.012024,0.00769,-0.993835,0.266656,0.554504,-0.115725,60,266,580,5728
1644171649.749341,-0.010254,0.008667,-0.99292,0.312458,0.386565,-0.069924,64,275,582,5728
1644171649.800303,-0.011353,0.008911,-0.994202,0.266656,0.340763,-0.192061,48,274,590,5664
1644171649.845341,-0.013977,0.008911,-0.990906,0.327725,0.432366,-0.130992,59,275,584,5728
1644171649.94089,-0.010376,0.010864,-0.992493,0.236122,0.432366,-0.115725,52,280,586,5664
1644171649.989275,-0.008362,0.007751,-0.992615,0.08345,0.417099,0.052214,47,270,582,5728
1644171650.037673,-0.011292,0.009766,-0.990845,0.251389,0.264427,-0.054656,51,276,580,5664
1644171650.086179,-0.011658,0.00946,-0.992981,0.190321,0.386565,-0.161527,55,266,583,5664
1644171650.134415,-0.013977,0.006653,-0.992676,0.052916,0.417099,-0.176794,49,263,579,5776
1644171650.18282,-0.012878,0.007935,-0.994141,0.129252,0.401832,-0.161527,54,268,579,5696
1644171650.231187,-0.008545,0.009888,-0.99408,0.251389,0.417099,-0.039389,58,283,578,5696
1644171650.27956,-0.009705,0.01062,-0.991638,0.373527,0.325496,-0.039389,57,263,589,5760
1644171650.32798,-0.010925,0.009094,-0.993408,0.220855,0.432366,-0.207328,48,264,587,5584
1644171650.376378,-0.008789,0.010132,-0.991028,0.220855,0.325496,-0.130992,43,269,576,5664
1644171650.424769,-0.01123,0.011902,-0.990906,0.129252,0.478168,-0.069924,49,273,591,5696
1644171650.473169,-0.009888,0.007751,-0.992126,0.327725,0.325496,-0.024122,46,271,580,5696
1644171650.521539,-0.009399,0.007996,-0.992493,0.159786,0.447634,-0.329466,51,274,585,5696
1644171650.570223,-0.009155,0.007874,-0.994324,0.266656,0.554504,-0.14626,54,277,572,5664
1644171650.620004,-0.010803,0.008606,-0.990417,0.205588,0.478168,0.036947,49,270,579,5712
1644171650.67012,-0.010132,0.007141,-0.996155,0.175053,0.356031,-0.100458,49,273,577,5776
1644171650.720088,-0.009766,0.010681,-0.991272,0.312458,0.325496,-0.100458,54,273,584,5696
1644171650.811888,-0.009766,0.01062,-0.994263,0.159786,0.371298,0.021679,47,280,575,5760
1644171650.860308,-0.015808,0.006653,-0.994995,0.220855,0.386565,-0.176794,46,279,573,5696
1644171650.908719,-0.012878,0.009521,-0.993652,0.159786,0.401832,-0.130992,45,273,577,5664
1644171650.957088,-0.007874,0.010071,-0.992493,0.236122,0.371298,-0.14626,52,273,582,5696
1644171651.005459,-0.009094,0.009949,-0.994202,0.327725,0.279695,-0.36,49,275,577,5584
1644171651.064528,-0.011597,0.011353,-0.99353,0.098718,0.432366,0.021679,49,263,579,5712
1644171651.102281,-0.008057,0.006897,-0.993164,0.266656,0.417099,0.006412,47,275,575,5696
1644171651.150609,-0.01062,0.010498,-0.991211,0.281924,0.356031,0.098015,61,265,572,5728
1644171651.199001,-0.012817,0.009094,-0.993774,0.297191,0.447634,-0.130992,53,281,573,5712
1644171651.247396,-0.012634,0.008118,-0.991882,0.098718,0.493435,-0.100458,53,276,580,5664
1644171651.295791,-0.010742,0.011902,-0.991394,0.220855,0.310229,-0.115725,48,276,573,5696
1644171651.344183,-0.01239,0.011841,-0.991943,0.220855,0.325496,-0.054656,43,274,580,5696
1644171651.392594,-0.009705,0.011414,-0.99054,0.312458,0.24916,-0.161527,48,274,583,5664
1644171651.440962,-0.009644,0.009766,-0.991516,0.312458,0.371298,-0.14626,49,282,591,5664
1644171651.489375,-0.009583,0.009338,-0.991699,0.098718,0.462901,-0.176794,43,286,585,5696
1644171651.537841,-0.008362,0.010498,-0.993286,0.113985,0.371298,-0.207328,57,277,586,5664
1644171651.587539,-0.010071,0.009155,-0.991028,0.129252,0.462901,-0.14626,49,268,586,5664
1644171651.637978,-0.010315,0.00885,-0.992981,0.08345,0.371298,-0.039389,51,274,580,5760
1644171651.688328,-0.009827,0.008728,-0.993713,0.35826,0.478168,-0.192061,53,279,578,5664
1644171651.779674,-0.010071,0.009766,-0.993652,0.449863,0.401832,-0.069924,47,268,584,5632
1644171651.82807,-0.00708,0.009216,-0.990234,0.312458,0.356031,0.006412,42,273,577,5696
1644171651.87651,-0.012756,0.010925,-0.990479,0.190321,0.356031,-0.069924,51,271,578,5696
1644171651.924907,-0.010864,0.008606,-0.99408,0.220855,0.493435,0.113282,48,274,562,5696
1644171651.973314,-0.010376,0.00769,-0.992493,0.205588,0.493435,-0.085191,43,266,573,5712
1644171652.021701,-0.010254,0.009705,-0.993896,0.190321,0.508702,-0.176794,55,274,578,5760
1644171652.07021,-0.011902,0.012573,-0.990662,0.144519,0.417099,-0.039389,48,264,578,5696
1644171652.118458,-0.007751,0.011719,-0.991943,0.220855,0.432366,-0.100458,46,269,585,5712
1644171652.166829,-0.011658,0.008667,-0.990723,0.312458,0.340763,0.052214,53,266,580,5664
1644171652.215295,-0.010803,0.007324,-0.99353,0.175053,0.432366,-0.115725,58,266,583,5712
1644171652.263586,-0.010193,0.011536,-0.991028,0.251389,0.371298,-0.130992,49,280,584,5664
1644171652.311973,-0.01123,0.007751,-0.994202,0.113985,0.401832,-0.039389,49,270,586,5712
1644171652.36039,-0.010132,0.008057,-0.99231,0.312458,0.340763,-0.130992,49,277,582,5664
1644171652.408784,-0.009338,0.009216,-0.991272,0.205588,0.447634,-0.115725,57,277,582,5760
1644171652.457168,-0.009949,0.009155,-0.991455,0.144519,0.539237,-0.14626,47,275,582,5696
1644171652.505532,-0.014282,0.009949,-0.990479,0.220855,0.310229,-0.237863,59,270,575,5728
1644171652.553954,-0.010498,0.010132,-0.992065,0.281924,0.371298,-0.115725,52,275,577,5808
1644171652.602335,-0.010193,0.011108,-0.990417,0.159786,0.417099,-0.008855,52,282,584,5696
1644171652.651979,-0.008545,0.009705,-0.99176,0.251389,0.340763,-0.161527,49,270,584,5712
1644171652.702307,-0.009338,0.010986,-0.99353,0.220855,0.401832,-0.039389,60,269,585,5712
1644171652.75236,-0.009949,0.011841,-0.992859,0.419328,0.432366,-0.14626,45,275,582,5712
1644171652.844332,-0.007568,0.009216,-0.992371,0.144519,0.386565,-0.085191,48,281,573,5728
1644171652.89273,-0.010193,0.006287,-0.990845,0.297191,0.24916,-0.039389,62,271,573,5696
1644171652.941113,-0.009583,0.009521,-0.993042,0.220855,0.447634,-0.024122,51,271,571,5696
1644171652.989505,-0.010071,0.007324,-0.992493,0.175053,0.401832,-0.069924,59,263,582,5664
1644171653.037901,-0.010071,0.010254,-0.992493,0.175053,0.356031,-0.130992,53,271,578,5712
1644171653.090182,-0.010254,0.010559,-0.992676,0.388794,0.478168,-0.161527,47,275,582,5696
1644171653.13474,-0.009583,0.009766,-0.990723,0.144519,0.447634,0.021679,60,269,585,5728
1644171653.183045,-0.010315,0.008118,-0.991821,0.08345,0.417099,-0.207328,52,270,572,5776
1644171653.231438,-0.010742,0.007202,-0.992859,0.205588,0.554504,-0.069924,52,270,579,5760
1644171653.279791,-0.011841,0.012329,-0.991333,0.113985,0.478168,-0.039389,48,266,583,5712
1644171653.328212,-0.011353,0.009583,-0.990723,0.266656,0.340763,-0.100458,53,257,583,5712
1644171653.376594,-0.010803,0.007935,-0.993835,0.129252,0.340763,0.036947,51,281,590,5712
1644171653.425025,-0.008911,0.009949,-0.992249,0.281924,0.340763,-0.039389,53,283,585,5648
1644171653.473371,-0.01062,0.009583,-0.993408,0.281924,0.356031,-0.176794,46,276,573,5696
1644171653.521762,-0.008118,0.009766,-0.991577,0.327725,0.188092,-0.039389,43,271,580,5648
1644171653.570142,-0.011292,0.010559,-0.992676,0.144519,0.478168,-0.192061,55,271,573,5712
1644171653.620713,-0.009644,0.009216,-0.991577,0.220855,0.508702,-0.024122,48,271,578,5664
1644171653.670042,-0.007812,0.007812,-0.992615,0.190321,0.585038,-0.222595,47,277,575,5712
1644171653.720281,-0.009277,0.008972,-0.994446,0.098718,0.325496,-0.130992,53,264,571,5712
1644171653.812381,-0.009521,0.008606,-0.991089,0.205588,0.310229,-0.237863,51,279,578,5648
1644171653.860496,-0.009155,0.009216,-0.993958,0.144519,0.294962,-0.14626,62,266,576,5712
1644171653.908923,-0.010986,0.009521,-0.992981,-0.008153,0.401832,-0.14626,46,283,576,5632
1644171653.957326,-0.012634,0.008606,-0.995483,0.266656,0.447634,-0.176794,45,270,584,5760
1644171654.00568,-0.010376,0.009033,-0.990112,0.144519,0.478168,-0.039389,53,276,585,5696
1644171654.06423,-0.010864,0.010925,-0.990356,0.205588,0.294962,-0.130992,52,265,586,5696
1644171654.102557,-0.01062,0.007507,-0.991028,0.251389,0.24916,-0.130992,47,277,579,5712
1644171654.150881,-0.009705,0.009399,-0.990906,0.220855,0.356031,-0.222595,52,268,579,5728
1644171654.199202,-0.00769,0.009644,-0.991699,0.327725,0.340763,-0.207328,58,271,569,5664
1644171654.247604,-0.011902,0.011414,-0.991516,0.236122,0.523969,-0.100458,45,270,579,5760
1644171654.296014,-0.011658,0.01062,-0.989563,0.220855,0.386565,-0.008855,41,283,578,5696
1644171654.344428,-0.010193,0.012024,-0.993896,0.220855,0.386565,-0.100458,49,268,572,5712
1644171654.392802,-0.011902,0.01062,-0.99707,0.007115,0.447634,0.021679,47,270,575,5728
1644171654.441174,-0.010864,0.008423,-0.99231,0.190321,0.493435,-0.024122,55,264,585,5696
1644171654.489601,-0.009766,0.010498,-0.990967,0.266656,0.478168,-0.192061,52,277,577,5648
1644171654.537969,-0.011719,0.009216,-0.990784,0.175053,0.432366,-0.192061,49,270,593,5696
1644171654.586354,-0.009583,0.010742,-0.990662,0.281924,0.493435,-0.039389,47,270,579,5648
1644171654.63476,-0.009888,0.009277,-0.993286,0.342992,0.478168,-0.100458,54,282,579,5696
1644171654.683356,-0.011414,0.009277,-0.992615,0.281924,0.432366,0.021679,46,274,585,5760
1644171654.733798,-0.011292,0.011047,-0.994019,0.266656,0.447634,-0.14626,41,264,578,5648
1644171654.784019,-0.009949,0.009949,-0.994385,0.113985,0.417099,-0.161527,40,265,575,5648
1644171654.829077,-0.010315,0.01239,-0.991211,0.175053,0.401832,-0.054656,53,279,569,5664
1644171654.925386,-0.012085,0.009705,-0.991455,0.220855,0.401832,-0.130992,52,270,584,5696
1644171654.973531,-0.009277,0.009705,-0.99176,0.281924,0.508702,-0.207328,48,283,585,5712
1644171655.021905,-0.010742,0.007568,-0.988708,0.312458,0.478168,-0.039389,45,277,575,5696
1644171655.070365,-0.01239,0.009949,-0.992371,0.373527,0.325496,-0.054656,52,280,582,5760
1644171655.118636,-0.010193,0.009216,-0.991638,0.35826,0.417099,-0.039389,48,281,573,5648
1644171655.167048,-0.012024,0.009705,-0.990356,0.236122,0.462901,-0.192061,45,277,568,5648
1644171655.215425,-0.011414,0.011414,-0.99054,0.297191,0.539237,-0.14626,47,280,565,5760
1644171655.26385,-0.007507,0.010315,-0.992676,0.297191,0.432366,-0.008855,53,266,573,5712
1644171655.312238,-0.010071,0.009338,-0.992126,0.205588,0.310229,-0.237863,53,271,583,5664
1644171655.360614,-0.00885,0.009521,-0.993347,0.266656,0.356031,-0.130992,45,265,577,5648
1644171655.409002,-0.010254,0.007874,-0.991882,0.113985,0.279695,-0.14626,49,265,572,5664
1644171655.457371,-0.012573,0.010315,-0.990723,0.266656,0.401832,-0.130992,57,270,582,5696
1644171655.505775,-0.012024,0.009033,-0.992188,0.251389,0.432366,0.021679,48,276,578,5648
1644171655.554188,-0.014404,0.007751,-0.991333,0.220855,0.432366,0.006412,53,266,580,5712
1644171655.602541,-0.011902,0.009888,-0.992126,0.220855,0.401832,-0.008855,54,290,570,5664
1644171655.650951,-0.013733,0.007996,-0.992676,0.205588,0.386565,-0.25313,47,273,584,5696
1644171655.699359,-0.011841,0.00885,-0.991577,0.281924,0.294962,-0.176794,59,273,582,5664
1644171655.747704,-0.010681,0.008606,-0.990845,0.236122,0.401832,-0.069924,55,279,580,5632
1644171655.796238,-0.009521,0.007385,-0.98999,0.342992,0.386565,-0.039389,42,280,577,5712
1644171655.845774,-0.010315,0.006897,-0.995239,0.312458,0.340763,-0.054656,53,269,587,5696
1644171655.89624,-0.009033,0.010986,-0.990845,0.220855,0.462901,-0.161527,64,260,591,5712
1644171655.946285,-0.011658,0.010925,-0.99115,0.342992,0.401832,-0.039389,55,266,585,5664
1644171655.990751,-0.01416,0.006836,-0.992126,0.327725,0.340763,-0.161527,52,268,570,5648
1644171656.086564,-0.011536,0.008057,-0.994202,0.205588,0.417099,-0.069924,48,271,585,5664
1644171656.134859,-0.012024,0.007568,-0.993164,0.220855,0.340763,-0.14626,59,273,579,5776
1644171656.183242,-0.012512,0.009094,-0.990173,0.266656,0.218626,0.006412,39,271,578,5696
1644171656.231636,-0.012878,0.011414,-0.990784,0.113985,0.432366,-0.14626,46,276,578,5632
1644171656.280018,-0.008057,0.009033,-0.993408,0.297191,0.325496,-0.14626,52,280,570,5760
1644171656.328416,-0.011047,0.009827,-0.992798,0.388794,0.462901,-0.008855,55,271,576,5648
1644171656.376806,-0.014038,0.011353,-0.994324,0.266656,0.493435,-0.085191,54,270,575,5712
1644171656.425289,-0.011963,0.008972,-0.99115,0.251389,0.401832,-0.222595,51,259,585,5664
1644171656.473579,-0.009399,0.008301,-0.993164,0.342992,0.462901,-0.176794,49,270,582,5696
1644171656.52198,-0.011902,0.010742,-0.990845,0.312458,0.310229,-0.176794,57,270,565,5664
1644171656.570377,-0.008667,0.007141,-0.994873,0.175053,0.432366,-0.115725,45,275,579,5760
1644171656.618772,-0.011658,0.006653,-0.990051,0.236122,0.417099,-0.085191,61,275,584,5648
1644171656.66717,-0.010376,0.009583,-0.992493,0.312458,0.462901,-0.100458,60,276,578,5664
1644171656.715524,-0.013489,0.010559,-0.992676,0.281924,0.432366,0.082748,48,274,576,5696
1644171656.76394,-0.009949,0.009888,-0.993408,0.373527,0.264427,-0.100458,49,265,579,5712
1644171656.812398,-0.009827,0.011169,-0.992737,0.190321,0.508702,-0.25313,45,280,584,5712
1644171656.860763,-0.009949,0.011475,-0.992554,0.342992,0.371298,-0.085191,43,276,580,5728
1644171656.909154,-0.011169,0.010376,-0.991394,0.220855,0.432366,-0.130992,48,269,578,5648
1644171656.957555,-0.010376,0.009399,-0.992432,0.159786,0.340763,0.052214,59,273,582,5664
1644171657.06358,-0.010071,0.007019,-0.990479,0.236122,0.447634,0.036947,59,268,577,5648
1644171657.102672,-0.012329,0.010803,-0.991089,0.266656,0.462901,-0.085191,54,275,584,5696
1644171657.151062,-0.009827,0.010864,-0.991211,0.251389,0.462901,-0.14626,51,269,573,5664
1644171657.199462,-0.014465,0.009521,-0.989868,0.281924,0.478168,-0.085191,53,279,578,5664
1644171657.247829,-0.010071,0.011353,-0.993896,0.312458,0.539237,-0.161527,40,277,575,5712
1644171657.296211,-0.01178,0.009521,-0.992981,0.342992,0.371298,-0.176794,47,270,589,5712
1644171657.344704,-0.010498,0.009583,-0.992188,0.388794,0.478168,-0.130992,49,268,577,5696
1644171657.393041,-0.009644,0.00946,-0.990601,0.281924,0.493435,-0.100458,54,273,582,5760
1644171657.441416,-0.008362,0.01001,-0.986084,0.205588,0.417099,-0.024122,55,266,580,5728
1644171657.489815,-0.011597,0.010193,-0.992859,0.434595,0.264427,-0.207328,47,275,575,5664
1644171657.538182,-0.008667,0.006958,-0.992188,0.113985,0.386565,-0.14626,46,276,578,5760
1644171657.586573,-0.011047,0.010681,-0.994507,0.297191,0.188092,-0.039389,51,276,578,5664
1644171657.635022,-0.009277,0.011047,-0.990784,0.251389,0.432366,-0.192061,40,270,577,5648
1644171657.683359,-0.009949,0.009277,-0.991211,0.342992,0.401832,-0.085191,40,277,582,5728
1644171657.731777,-0.010742,0.008667,-0.99176,0.312458,0.417099,0.021679,47,273,579,5696
1644171657.78174,-0.009705,0.010315,-0.992798,0.342992,0.462901,-0.161527,52,273,575,5696
1644171657.833287,-0.010437,0.009338,-0.990723,0.342992,0.218626,-0.207328,51,279,585,5696
1644171657.87782,-0.01416,0.01123,-0.992065,0.449863,0.585038,-0.115725,55,279,580,5712
1644171657.973783,-0.009827,0.010986,-0.990112,0.159786,0.478168,0.006412,55,271,576,5712
1644171658.022451,-0.011353,0.008179,-0.990662,0.098718,0.462901,-0.161527,58,271,578,5760
1644171658.070586,-0.010681,0.007019,-0.994263,0.236122,0.462901,0.021679,38,268,584,5696
1644171658.118924,-0.012207,0.010803,-0.991455,0.266656,0.310229,0.006412,48,262,578,5696
1644171658.167285,-0.011597,0.011292,-0.990906,0.251389,0.356031,0.082748,57,268,563,5760
1644171658.215626,-0.009216,0.01001,-0.990112,0.08345,0.386565,0.021679,48,276,576,5696
1644171658.264063,-0.010071,0.006348,-0.988342,0.190321,0.401832,-0.100458,60,266,573,5696
1644171658.312461,-0.010681,0.011658,-0.99176,0.266656,0.325496,-0.176794,43,276,578,5696
1644171658.360842,-0.01355,0.008972,-0.991089,0.220855,0.310229,-0.085191,54,270,584,5712
1644171658.409221,-0.010559,0.009827,-0.991882,0.373527,0.279695,-0.130992,59,270,572,5712
1644171658.457613,-0.007812,0.012329,-0.988647,0.236122,0.325496,-0.14626,40,265,575,5696
1644171658.505997,-0.010193,0.00946,-0.990784,0.175053,0.294962,-0.161527,51,269,580,5696
1644171658.554416,-0.009583,0.010864,-0.991211,0.251389,0.508702,-0.115725,52,280,582,5696
1644171658.602787,-0.010376,0.011658,-0.989075,0.052916,0.371298,-0.207328,46,269,578,5696
1644171658.651185,-0.013428,0.010742,-0.993225,0.327725,0.401832,-0.100458,53,274,578,5664
1644171658.699563,-0.009766,0.011841,-0.991394,0.266656,0.478168,-0.207328,51,271,583,5664
1644171658.747927,-0.010376,0.012512,-0.992249,0.159786,0.371298,-0.130992,58,266,585,5728
1644171658.796342,-0.011658,0.01123,-0.989075,0.327725,0.432366,0.204885,55,274,566,5712
1644171658.845248,-0.008606,0.008728,-0.992249,0.113985,0.371298,-0.100458,53,269,573,5664
1644171658.89578,-0.011963,0.011292,-0.990784,0.236122,0.325496,-0.130992,55,264,573,5760
1644171658.946211,-0.011292,0.010559,-0.991394,0.159786,0.447634,-0.008855,59,275,582,5664
1644171658.990688,-0.008667,0.010437,-0.992188,0.236122,0.310229,-0.130992,42,260,582,5712
1644171659.08692,-0.00824,0.009705,-0.991577,0.236122,0.325496,-0.115725,59,270,577,5632
1644171659.135158,-0.010742,0.011597,-0.990479,0.190321,0.462901,-0.039389,47,280,575,5664
1644171659.183488,-0.008362,0.01178,-0.992065,0.312458,0.325496,-0.130992,47,275,577,5712
1644171659.231859,-0.008362,0.009033,-0.993408,0.205588,0.371298,-0.069924,51,279,571,5664
1644171659.280265,-0.012146,0.009583,-0.991394,0.205588,0.63084,-0.115725,51,274,585,5712
1644171659.328625,-0.009583,0.009094,-0.992615,0.388794,0.401832,-0.100458,47,263,577,5696
1644171659.377046,-0.010132,0.009338,-0.991333,0.251389,0.325496,0.082748,55,281,573,5728
1644171659.425422,-0.009583,0.008545,-0.992859,0.129252,0.523969,-0.192061,43,269,573,5664
1644171659.473838,-0.011475,0.01062,-0.994141,0.08345,0.401832,-0.207328,51,274,576,5600
1644171659.522241,-0.009033,0.007202,-0.992432,0.266656,0.493435,-0.130992,47,270,579,5712
1644171659.570605,-0.007996,0.011047,-0.992371,0.205588,0.371298,-0.069924,47,275,582,5712
1644171659.618982,-0.012146,0.007202,-0.992126,0.434595,0.24916,-0.054656,52,277,579,5664
1644171659.667357,-0.012512,0.011353,-0.992432,0.297191,0.462901,-0.039389,53,274,578,5696
1644171659.715775,-0.012756,0.010986,-0.990112,0.113985,0.340763,-0.069924,52,273,579,5760
1644171659.76417,-0.012024,0.008911,-0.990234,0.113985,0.569771,-0.14626,59,275,586,5696
1644171659.812569,-0.011169,0.006348,-0.992249,0.205588,0.508702,-0.039389,57,282,577,5632
1644171659.86097,-0.009705,0.010925,-0.996094,0.220855,0.371298,0.082748,64,280,596,5696
1644171659.909381,-0.008728,0.010681,-0.993652,0.373527,0.432366,-0.268397,55,274,585,5648
1644171659.958261,-0.012268,0.009949,-0.992737,0.159786,0.356031,0.067481,49,268,572,5728
1644171660.059874,-0.011108,0.007935,-0.989746,0.419328,0.478168,0.036947,53,274,583,5712
1644171660.102935,-0.00885,0.007935,-0.991699,0.129252,0.340763,-0.130992,49,265,577,5664
1644171660.15132,-0.012817,0.008301,-0.993042,0.236122,0.493435,0.036947,47,277,575,5728
1644171660.199672,-0.009644,0.01001,-0.993103,0.129252,0.462901,-0.054656,48,276,576,5696
1644171660.248046,-0.01123,0.010254,-0.990112,0.175053,0.325496,-0.192061,60,281,566,5648
1644171660.296454,-0.011963,0.010376,-0.99353,0.297191,0.539237,-0.207328,55,274,566,5696
1644171660.344861,-0.011169,0.011353,-0.99115,0.35826,0.432366,-0.115725,51,271,576,5728
1644171660.393268,-0.010559,0.010742,-0.991455,0.190321,0.356031,-0.176794,55,281,569,5648
1644171660.441623,-0.009888,0.010803,-0.994019,0.281924,0.371298,0.113282,45,280,579,5760
1644171660.490052,-0.008301,0.010254,-0.992249,0.190321,0.401832,-0.054656,51,271,580,5728
1644171660.53842,-0.009338,0.009949,-0.992004,0.113985,0.279695,-0.161527,47,275,579,5696
1644171660.586799,-0.012024,0.010315,-0.993896,0.327725,0.386565,-0.100458,43,281,562,5728
1644171660.635362,-0.011292,0.010498,-0.99054,0.266656,0.569771,-0.039389,55,276,580,5712
1644171660.683583,-0.009705,0.008667,-0.992004,0.190321,0.386565,0.006412,42,268,575,5696
1644171660.731972,-0.009827,0.010315,-0.994507,0.007115,0.340763,0.021679,57,268,586,5776
1644171660.78068,-0.010315,0.011963,-0.992554,0.281924,0.386565,-0.008855,58,264,580,5696
1644171660.829086,-0.010254,0.009888,-0.99231,0.205588,0.432366,-0.161527,53,266,576,5664
1644171660.879417,-0.010559,0.009583,-0.994324,0.297191,0.356031,0.006412,51,274,587,5696
1644171660.930377,-0.01123,0.00946,-0.994019,0.175053,0.386565,-0.085191,53,274,578,5664
1644171660.97497,-0.007629,0.007629,-0.98822,0.297191,0.233893,0.036947,47,273,582,5648
1644171661.070825,-0.011047,0.01416,-0.993652,0.312458,0.233893,0.006412,60,266,580,5712
1644171661.11907,-0.012207,0.00946,-0.991028,0.220855,0.340763,-0.222595,47,265,575,5664
1644171661.167465,-0.011658,0.013367,-0.994934,0.144519,0.310229,-0.069924,47,282,579,5664
1644171661.215868,-0.012329,0.008057,-0.990662,0.205588,0.523969,0.006412,45,280,584,5712
1644171661.264278,-0.012024,0.010437,-0.990662,0.312458,0.447634,-0.069924,48,269,578,5696
1644171661.312682,-0.00946,0.008667,-0.993103,0.159786,0.523969,-0.039389,45,268,582,5776
1644171661.36102,-0.007446,0.007446,-0.991455,0.251389,0.462901,-0.161527,46,271,576,5696
1644171661.409441,-0.008972,0.008484,-0.990906,0.281924,0.371298,0.021679,48,279,587,5712
1644171661.457837,-0.010437,0.009583,-0.99231,0.190321,0.340763,-0.085191,47,265,565,5696
1644171661.506225,-0.009155,0.00946,-0.991272,0.312458,0.508702,-0.085191,55,276,578,5696
1644171661.554786,-0.008423,0.009277,-0.99176,0.342992,0.508702,-0.069924,52,270,570,5648
1644171661.603795,-0.010742,0.011414,-0.991028,0.144519,0.371298,-0.039389,52,280,570,5664
1644171661.651381,-0.01123,0.008057,-0.99469,0.236122,0.279695,0.036947,49,280,584,5696
1644171661.699792,-0.012756,0.008667,-0.993103,0.190321,0.371298,-0.085191,55,281,578,5664
1644171661.748174,-0.009949,0.007996,-0.99054,0.297191,0.371298,-0.176794,48,271,573,5712
1644171661.796615,-0.008301,0.008972,-0.99231,0.236122,0.493435,-0.176794,54,277,582,5760
1644171661.845037,-0.011597,0.007812,-0.992188,0.327725,0.462901,-0.054656,53,274,580,5712
1644171661.893745,-0.008484,0.008484,-0.991516,0.175053,0.401832,-0.069924,45,270,575,5760
1644171661.941819,-0.012939,0.008789,-0.995483,0.281924,0.294962,-0.100458,40,282,572,5648
1644171661.991967,-0.01062,0.007751,-0.992859,0.251389,0.401832,-0.237863,52,277,582,5696
1644171662.052352,-0.008667,0.006714,-0.992493,0.144519,0.294962,-0.192061,46,281,585,5664
1644171662.091807,-0.011108,0.007568,-0.991211,0.205588,0.340763,0.067481,53,271,571,5632
1644171662.183698,-0.010742,0.010986,-0.98999,0.236122,0.478168,-0.207328,48,271,576,5696
1644171662.232082,-0.010681,0.010376,-0.992371,0.098718,0.417099,-0.024122,47,275,577,5696
1644171662.280457,-0.010132,0.010925,-0.993042,0.205588,0.386565,-0.25313,57,273,572,5696
1644171662.328881,-0.008606,0.010071,-0.992004,0.297191,0.432366,0.006412,33,268,584,5760
1644171662.377242,-0.011963,0.01062,-0.99469,0.159786,0.539237,-0.008855,54,280,582,5696
1644171662.425653,-0.010254,0.006714,-0.990662,0.373527,0.371298,-0.085191,58,279,571,5696
1644171662.474043,-0.010315,0.006775,-0.989441,0.373527,0.508702,-0.14626,53,274,571,5696
1644171662.522454,-0.009216,0.008545,-0.993469,0.251389,0.294962,0.036947,47,270,570,5696
1644171662.570825,-0.009521,0.00824,-0.9953,0.236122,0.417099,-0.207328,43,271,569,5696
1644171662.619211,-0.009583,0.011719,-0.992126,0.251389,0.371298,-0.130992,47,268,579,5728
1644171662.667605,-0.011169,0.008118,-0.993713,0.175053,0.356031,-0.085191,47,275,572,5712
1644171662.715991,-0.009399,0.010986,-0.991455,0.190321,0.325496,-0.25313,52,275,579,5648
1644171662.76437,-0.010071,0.011108,-0.990295,0.175053,0.432366,-0.054656,58,274,578,5696
1644171662.812814,-0.012695,0.010742,-0.993591,0.297191,0.325496,-0.100458,52,275,577,5696
1644171662.861195,-0.010132,0.007996,-0.99115,0.266656,0.417099,-0.024122,51,279,583,5664
1644171662.90959,-0.00592,0.009766,-0.99115,0.129252,0.340763,-0.008855,47,270,584,5728
1644171662.957993,-0.012878,0.011414,-0.992737,0.342992,0.401832,-0.161527,58,269,580,5728
1644171663.00662,-0.012085,0.007324,-0.992493,0.236122,0.478168,0.052214,51,269,571,5648
1644171663.076315,-0.008972,0.008179,-0.990723,0.113985,0.493435,-0.14626,48,271,583,5648
1644171663.111049,-0.011414,0.006775,-0.993103,0.251389,0.417099,-0.130992,57,270,577,5696
1644171663.155014,-0.010925,0.011108,-0.991638,0.129252,0.508702,-0.100458,52,275,577,5712
1644171663.205203,-0.010559,0.010925,-0.989929,0.220855,0.432366,-0.100458,52,277,579,5664
1644171663.296685,-0.012146,0.00885,-0.991272,0.404061,0.325496,-0.130992,54,277,579,5776
1644171663.345344,-0.010193,0.009094,-0.990845,0.327725,0.523969,-0.039389,54,273,577,5712
1644171663.393471,-0.011902,0.00946,-0.990967,0.251389,0.401832,-0.069924,49,280,570,5728
1644171663.441851,-0.011658,0.006958,-0.99408,0.297191,0.24916,-0.085191,53,283,578,5760
1644171663.490252,-0.010132,0.009094,-0.992493,0.373527,0.310229,-0.237863,53,279,573,5696
1644171663.538626,-0.008728,0.010071,-0.992554,0.220855,0.554504,-0.069924,55,274,576,5696
1644171663.587021,-0.012085,0.007263,-0.992737,0.205588,0.371298,-0.100458,51,264,578,5664
1644171663.635402,-0.012085,0.011108,-0.993225,0.068183,0.279695,-0.054656,49,268,570,5712
1644171663.683806,-0.009644,0.010437,-0.991638,0.373527,0.386565,-0.222595,49,268,575,5664
1644171663.732219,-0.010437,0.010559,-0.990051,0.190321,0.233893,0.036947,52,273,577,5696
1644171663.780583,-0.010742,0.01123,-0.991028,0.297191,0.447634,-0.130992,52,268,575,5648
1644171663.828978,-0.010925,0.010498,-0.993164,0.251389,0.356031,-0.008855,45,275,577,5648
1644171663.877398,-0.012268,0.00769,-0.994019,0.312458,0.340763,-0.176794,51,274,580,5632
1644171663.925794,-0.012085,0.007446,-0.994446,0.297191,0.294962,-0.069924,55,271,580,5696
1644171663.974196,-0.011169,0.010071,-0.992493,0.08345,0.539237,-0.14626,52,275,591,5776
1644171664.022597,-0.009521,0.01001,-0.992676,0.236122,0.356031,-0.283664,35,285,586,5760
1644171664.082421,-0.010254,0.010803,-0.990845,0.220855,0.371298,-0.085191,58,269,573,5712
1644171664.11932,-0.009949,0.013062,-0.994507,0.342992,0.401832,0.067481,47,277,586,5728
1644171664.168453,-0.010193,0.009583,-0.991699,0.266656,0.356031,-0.207328,40,282,575,5648
1644171664.217058,-0.011658,0.008545,-0.992981,0.144519,0.386565,-0.115725,53,281,578,5648
1644171664.267663,-0.012573,0.00824,-0.991943,0.205588,0.523969,-0.085191,53,276,590,5648
1644171664.318222,-0.010254,0.01001,-0.994568,0.205588,0.279695,-0.130992,57,268,579,5712
1644171664.409713,-0.010437,0.010864,-0.992188,0.098718,0.493435,-0.14626,54,273,575,5696
1644171664.458037,-0.011719,0.010742,-0.99353,0.281924,0.417099,-0.207328,43,276,576,5712
1644171664.506432,-0.014465,0.012512,-0.991821,0.342992,0.417099,-0.14626,54,273,568,5712
1644171664.554862,-0.008484,0.012817,-0.992798,0.312458,0.462901,-0.176794,51,279,580,5664
1644171664.603249,-0.010376,0.011047,-0.992126,0.175053,0.386565,0.006412,53,266,587,5728
1644171664.65163,-0.011353,0.009705,-0.993469,0.312458,0.340763,-0.008855,46,259,585,5760
1644171664.699993,-0.008911,0.009644,-0.990662,0.236122,0.401832,-0.085191,51,276,578,5648
1644171664.748376,-0.009033,0.011597,-0.992249,0.281924,0.523969,-0.192061,55,266,578,5712
1644171664.796778,-0.012329,0.010498,-0.991333,0.342992,0.310229,-0.176794,52,277,570,5728
1644171664.845346,-0.010254,0.008362,-0.991699,0.190321,0.371298,-0.14626,47,265,582,5696
1644171664.893633,-0.009277,0.011536,-0.992004,0.205588,0.432366,0.082748,53,264,573,5664
1644171664.941976,-0.011414,0.008118,-0.992554,0.419328,0.417099,0.036947,48,279,576,5664
1644171664.990398,-0.009155,0.011108,-0.992981,0.327725,0.310229,-0.130992,46,281,585,5648
1644171665.03879,-0.008667,0.010193,-0.992065,0.419328,0.310229,-0.024122,54,265,582,5648
1644171665.089198,-0.009338,0.009338,-0.993835,0.327725,0.478168,-0.14626,55,274,576,5712
1644171665.135533,-0.008789,0.00708,-0.99054,0.175053,0.432366,0.021679,52,275,586,5712
1644171665.183917,-0.008789,0.011719,-0.990234,0.251389,0.279695,0.021679,49,265,575,5664
1644171665.23232,-0.010498,0.009949,-0.991211,0.175053,0.417099,-0.161527,43,276,578,5664
1644171665.280689,-0.010437,0.009094,-0.991089,0.220855,0.294962,-0.176794,53,281,576,5696
1644171665.329455,-0.007629,0.005066,-0.990845,0.281924,0.401832,-0.207328,48,264,580,5664
1644171665.379821,-0.009094,0.008423,-0.991699,0.113985,0.478168,-0.039389,48,279,569,5664
1644171665.430801,-0.009705,0.009277,-0.992188,0.220855,0.478168,-0.024122,58,271,578,5696
1644171665.522718,-0.00946,0.009888,-0.994141,0.236122,0.447634,-0.100458,55,279,580,5696
1644171665.571036,-0.011475,0.008179,-0.992493,0.205588,0.646107,-0.069924,57,260,572,5664
1644171665.619418,-0.009094,0.009705,-0.99231,0.098718,0.233893,-0.130992,58,274,580,5728
1644171665.667802,-0.014038,0.007812,-0.992554,0.251389,0.508702,0.006412,57,282,584,5664
1644171665.716218,-0.011963,0.006836,-0.992554,0.236122,0.371298,-0.14626,47,273,577,5728
1644171665.764637,-0.011475,0.010498,-0.993591,0.236122,0.294962,-0.14626,51,276,576,5712
1644171665.813011,-0.012817,0.011292,-0.992737,0.297191,0.371298,-0.161527,54,277,577,5696
1644171665.861401,-0.012268,0.006775,-0.990845,0.236122,0.539237,-0.130992,53,266,578,5696
1644171665.909837,-0.010254,0.008545,-0.994019,0.251389,0.417099,-0.192061,40,268,565,5664
1644171665.958189,-0.012207,0.008301,-0.992737,0.342992,0.356031,-0.008855,47,277,579,5696
1644171666.006606,-0.010315,0.010254,-0.992554,0.236122,0.24916,-0.130992,47,273,579,5696
1644171666.063447,-0.011719,0.007202,-0.989807,0.175053,0.401832,-0.130992,52,277,579,5728
1644171666.10337,-0.010803,0.008057,-0.991028,0.35826,0.386565,-0.130992,39,276,576,5696
1644171666.151737,-0.010376,0.007324,-0.993042,0.205588,0.340763,-0.039389,58,262,576,5696
1644171666.200127,-0.010742,0.007141,-0.99115,0.404061,0.356031,-0.054656,55,276,576,5712
1644171666.24851,-0.010193,0.010437,-0.990234,0.251389,0.417099,0.036947,51,276,578,5664
1644171666.296893,-0.010986,0.009644,-0.991821,0.373527,0.478168,-0.176794,45,265,582,5664
1644171666.345294,-0.011841,0.006897,-0.992981,0.373527,0.478168,-0.176794,47,280,582,5712
1644171666.393689,-0.011658,0.008606,-0.991638,0.220855,0.508702,-0.115725,57,270,589,5728
1644171666.442312,-0.011414,0.010376,-0.99353,0.205588,0.432366,-0.024122,47,270,577,5696
1644171666.492815,-0.01178,0.008789,-0.991821,0.312458,0.417099,-0.14626,49,270,572,5696
1644171666.54269,-0.010864,0.009705,-0.994263,0.419328,0.188092,-0.14626,48,266,576,5696
1644171666.587647,-0.011658,0.009766,-0.99231,0.205588,0.508702,-0.115725,54,275,568,5728
1644171666.684051,-0.009216,0.007996,-0.990234,0.220855,0.539237,0.098015,52,280,572,5712
1644171666.732437,-0.011414,0.01239,-0.989624,0.068183,0.447634,-0.130992,40,277,570,5648
1644171666.780794,-0.010925,0.009521,-0.988953,0.190321,0.539237,-0.069924,58,276,580,5648
1644171666.829202,-0.01001,0.01001,-0.991028,0.266656,0.356031,-0.207328,52,280,572,5648
1644171666.877604,-0.008789,0.010071,-0.993469,0.220855,0.386565,-0.024122,47,280,570,5712
1644171666.926032,-0.01239,0.009338,-0.988892,0.236122,0.432366,-0.161527,57,273,579,5728
1644171666.974393,-0.011292,0.011963,-0.992188,0.175053,0.371298,-0.192061,46,286,580,5696
1644171667.022828,-0.012085,0.004944,-0.993591,0.220855,0.356031,-0.161527,53,271,580,5696
1644171667.074882,-0.00946,0.011597,-0.992371,0.113985,0.432366,-0.069924,43,269,580,5648
1644171667.119617,-0.009094,0.00824,-0.994385,0.205588,0.462901,-0.024122,47,285,584,5696
1644171667.167944,-0.009583,0.007935,-0.991943,0.220855,0.310229,-0.024122,46,271,576,5712
1644171667.216303,-0.010193,0.00946,-0.990295,0.144519,0.386565,-0.100458,57,273,577,5696
1644171667.264711,-0.009766,0.011719,-0.990845,0.327725,0.356031,-0.039389,55,266,580,5712
1644171667.313148,-0.008545,0.011902,-0.991943,0.236122,0.462901,-0.207328,52,282,579,5728
