epoch,acc_x,acc_y,acc_z,rot_x,rot_y,rot_z,mag_x,mag_y,mag_z,temp
1644181800.007713,-0.01001,0.008789,-0.99231,0.251389,0.539237,-0.161527,54,280,582,6224
1644181800.070436,-0.009033,0.009705,-0.995178,0.159786,0.24916,-0.130992,54,270,589,6160
1644181800.106248,-0.007141,0.006897,-0.991699,0.281924,0.294962,0.052214,49,275,586,6176
1644181800.15292,-0.008911,0.009399,-0.991699,0.098718,0.386565,-0.054656,42,275,589,6128
1644181800.201251,-0.007996,0.01062,-0.991699,0.190321,0.325496,-0.069924,47,282,582,6176
1644181800.249634,-0.009644,0.011536,-0.991089,0.098718,0.371298,-0.069924,54,282,586,6112
1644181800.298031,-0.009338,0.009644,-0.991821,0.205588,0.401832,-0.024122,51,283,573,6160
1644181800.34642,-0.008972,0.008972,-0.990967,0.342992,0.340763,-0.024122,58,276,594,6192
1644181800.394825,-0.010132,0.008057,-0.990112,0.266656,0.371298,-0.024122,54,277,584,6128
1644181800.443203,-0.009033,0.009827,-0.994873,0.251389,0.310229,-0.069924,46,281,590,6128
1644181800.491817,-0.008423,0.010132,-0.994629,-0.038687,0.386565,0.006412,62,291,580,6224
1644181800.539982,-0.007629,0.012085,-0.991638,0.266656,0.401832,-0.085191,43,269,583,6224
1644181800.588574,-0.009583,0.009827,-0.990051,0.266656,0.417099,0.052214,43,274,583,6128
1644181800.638482,-0.010498,0.01178,-0.993835,0.205588,0.417099,-0.100458,48,279,585,6176
1644181800.688736,-0.007446,0.012024,-0.99292,0.098718,0.24916,-0.207328,52,277,586,6160
1644181800.733819,-0.005493,0.009888,-0.989319,0.220855,0.447634,-0.115725,41,271,587,6192
1644181800.830337,-0.008667,0.011719,-0.993896,0.144519,0.310229,-0.054656,43,286,578,6160
1644181800.878706,-0.008179,0.008728,-0.991211,0.159786,0.340763,-0.14626,47,275,575,6192
1644181800.927162,-0.010254,0.008606,-0.992676,0.404061,0.432366,-0.085191,53,276,585,6160
1644181800.975559,-0.010437,0.011169,-0.992188,0.251389,0.340763,-0.024122,43,276,585,6224
1644181801.02396,-0.009399,0.008057,-0.992249,0.205588,0.386565,-0.14626,43,271,587,6160
1644181801.072371,-0.008728,0.009583,-0.992249,0.098718,0.493435,-0.130992,53,274,599,6128
1644181801.1207,-0.008789,0.007019,-0.989502,0.266656,0.462901,-0.176794,39,271,590,6080
1644181801.169102,-0.010864,0.010254,-0.99408,0.266656,0.417099,-0.130992,43,271,585,6192
1644181801.21748,-0.009155,0.008545,-0.991455,0.251389,0.539237,-0.054656,49,280,582,6160
1644181801.265886,-0.006348,0.009399,-0.993469,0.08345,0.386565,-0.069924,51,274,587,6240
1644181801.314293,-0.007629,0.008484,-0.991577,0.251389,0.310229,-0.192061,52,282,586,6224
1644181801.362675,-0.006714,0.009644,-0.994385,0.144519,0.356031,-0.085191,47,275,577,6176
1644181801.411064,-0.008606,0.009705,-0.994202,0.205588,0.24916,-0.207328,46,286,585,6048
1644181801.459452,-0.006592,0.009155,-0.994385,0.220855,0.264427,-0.176794,49,277,586,6176
1644181801.507825,-0.00708,0.013123,-0.994019,0.205588,0.432366,-0.008855,54,285,591,6128
1644181801.556223,-0.008728,0.00946,-0.992371,0.190321,0.539237,-0.024122,47,280,586,6128
1644181801.60472,-0.010681,0.007874,-0.992371,0.037649,0.371298,-0.100458,49,282,579,6128
1644181801.653032,-0.009094,0.010132,-0.992432,0.190321,0.478168,-0.039389,48,281,583,6128
1644181801.701421,-0.010315,0.00946,-0.992249,0.113985,0.371298,-0.130992,59,280,586,6160
1644181801.749822,-0.01123,0.008972,-0.991028,0.236122,0.371298,-0.192061,47,275,579,6160
1644181801.80062,-0.00946,0.006958,-0.992065,0.297191,0.478168,-0.176794,47,275,584,6224
1644181801.851441,-0.009705,0.006653,-0.994202,0.297191,0.356031,0.113282,60,286,578,6176
1644181801.895987,-0.010986,0.007507,-0.99408,0.297191,0.462901,-0.100458,49,277,579,6128
1644181801.991807,-0.011047,0.009338,-0.991943,0.373527,0.386565,-0.085191,46,274,583,6128
1644181802.040183,-0.005798,0.007874,-0.993164,0.327725,0.371298,-0.14626,58,271,576,6176
1644181802.092864,-0.010254,0.008972,-0.993896,0.312458,0.386565,-0.069924,61,270,586,6128
1644181802.136935,-0.010986,0.010132,-0.991089,0.297191,0.432366,-0.207328,54,282,591,6160
1644181802.185334,-0.009033,0.012634,-0.990234,0.373527,0.508702,-0.161527,53,274,590,6128
1644181802.23374,-0.006348,0.005981,-0.990662,0.236122,0.279695,-0.207328,45,277,593,6128
1644181802.282154,-0.007996,0.010437,-0.991577,0.068183,0.569771,-0.024122,54,282,582,6176
1644181802.33052,-0.008789,0.009277,-0.990906,0.220855,0.462901,-0.024122,48,271,585,6128
1644181802.378956,-0.009399,0.01001,-0.99408,0.35826,0.417099,-0.130992,55,283,587,6192
1644181802.427304,-0.009399,0.009216,-0.990906,0.35826,0.554504,-0.085191,43,279,583,6224
1644181802.475681,-0.006042,0.00946,-0.986694,0.098718,0.294962,-0.14626,53,283,585,6224
1644181802.524097,-0.008545,0.010132,-0.991882,0.312458,0.356031,0.021679,57,273,582,6128
1644181802.572488,-0.008545,0.009277,-0.990601,0.159786,0.386565,-0.115725,41,274,592,6160
1644181802.620873,-0.009033,0.009766,-0.99176,0.266656,0.432366,0.036947,52,275,586,6128
1644181802.669262,-0.006226,0.008423,-0.992554,0.35826,0.325496,-0.039389,58,276,580,6112
1644181802.717663,-0.007324,0.009216,-0.991272,0.342992,0.386565,-0.100458,49,277,586,6128
1644181802.766027,-0.009155,0.012207,-0.991394,0.175053,0.325496,-0.237863,46,276,583,6128
1644181802.815056,-0.00647,0.009216,-0.995056,0.297191,0.554504,0.006412,51,266,592,6192
1644181802.863008,-0.008667,0.010071,-0.989746,0.281924,0.432366,-0.039389,47,274,583,6176
1644181802.913425,-0.01001,0.010437,-0.99292,0.220855,0.371298,-0.130992,52,275,582,6160
1644181802.964481,-0.011108,0.007935,-0.992493,0.297191,0.264427,-0.130992,48,274,585,6160
1644181803.059946,-0.009277,0.01001,-0.992065,0.129252,0.493435,-0.054656,46,276,594,6080
1644181803.104995,-0.00824,0.008179,-0.989258,0.190321,0.432366,-0.130992,55,279,599,6224
1644181803.153188,-0.007629,0.011597,-0.991394,0.175053,0.447634,0.006412,54,273,582,6192
1644181803.201587,-0.009888,0.010315,-0.989868,0.159786,0.356031,-0.14626,41,281,576,6192
1644181803.249956,-0.01001,0.010071,-0.991089,0.190321,0.371298,-0.008855,51,279,587,6160
1644181803.298375,-0.008423,0.009399,-0.992615,0.08345,0.325496,-0.130992,54,282,577,6112
1644181803.346758,-0.009705,0.009094,-0.992126,0.312458,0.340763,-0.207328,45,282,584,6128
1644181803.395245,-0.010803,0.008972,-0.992798,0.190321,0.417099,0.143817,48,276,573,6224
1644181803.443538,-0.007446,0.008179,-0.991638,0.113985,0.478168,-0.069924,40,280,577,6128
1644181803.4923,-0.006531,0.008545,-0.991455,0.327725,0.447634,-0.085191,51,279,585,6160
1644181803.540332,-0.008728,0.011047,-0.992798,0.236122,0.356031,-0.054656,60,276,580,6192
1644181803.58873,-0.010071,0.007629,-0.992126,0.251389,0.294962,-0.085191,39,271,590,6112
1644181803.637119,-0.008728,0.010132,-0.992065,0.175053,0.432366,-0.039389,58,276,587,6128
1644181803.685513,-0.007812,0.009277,-0.992432,0.098718,0.585038,-0.298931,52,277,584,6192
1644181803.733882,-0.010315,0.008972,-0.992981,0.327725,0.417099,-0.130992,51,281,583,6160
1644181803.782282,-0.009827,0.00946,-0.988953,0.098718,0.417099,-0.115725,36,281,587,6128
1644181803.830727,-0.00769,0.010071,-0.990295,0.266656,0.310229,0.006412,52,270,584,6160
1644181803.880386,-0.009521,0.011414,-0.990845,0.327725,0.386565,-0.008855,35,280,584,6176
1644181803.930753,-0.009338,0.007446,-0.990723,0.007115,0.264427,0.052214,51,279,590,6160
1644181803.981002,-0.009766,0.01001,-0.992493,0.144519,0.447634,-0.054656,46,274,587,6176
1644181804.025742,-0.009827,0.01123,-0.991821,0.236122,0.417099,-0.298931,51,274,583,6192
1644181804.121032,-0.006165,0.007812,-0.990601,0.190321,0.523969,0.021679,55,274,585,6176
1644181804.169423,-0.009888,0.00946,-0.993408,0.342992,0.539237,-0.192061,43,279,580,6160
1644181804.217829,-0.006592,0.008118,-0.9953,0.266656,0.264427,-0.207328,52,270,589,6224
1644181804.2662,-0.006897,0.006287,-0.993103,0.236122,0.523969,0.021679,47,285,577,6160
1644181804.314812,-0.008972,0.009644,-0.991577,-0.038687,0.417099,-0.085191,48,269,585,6224
1644181804.362995,-0.009888,0.008606,-0.991821,0.342992,0.310229,0.036947,57,280,582,6128
1644181804.411402,-0.010559,0.008545,-0.992676,0.342992,0.401832,-0.024122,43,281,587,6160
1644181804.459796,-0.008728,0.009155,-0.991272,0.159786,0.401832,0.021679,49,277,582,6176
1644181804.508188,-0.009338,0.011353,-0.992493,0.08345,0.417099,-0.192061,42,275,591,6176
1644181804.556572,-0.010254,0.007568,-0.989929,0.281924,0.462901,-0.192061,42,282,589,6224
1644181804.605101,-0.006897,0.007629,-0.992737,0.159786,0.493435,-0.115725,54,275,586,6160
1644181804.653372,-0.00885,0.009216,-0.992737,0.236122,0.264427,-0.100458,41,281,580,6192
1644181804.70176,-0.010071,0.009949,-0.990601,0.144519,0.447634,-0.192061,40,273,589,6224
1644181804.750157,-0.011047,0.00885,-0.987366,0.281924,0.539237,-0.024122,41,286,590,6128
1644181804.798547,-0.00885,0.010071,-0.994019,0.35826,0.432366,-0.222595,46,286,576,6160
1644181804.846977,-0.009827,0.007507,-0.98999,0.236122,0.462901,-0.192061,48,279,583,6240
1644181804.895364,-0.007629,0.008972,-0.991333,0.205588,0.432366,-0.176794,42,277,586,6176
1644181804.943964,-0.007935,0.010559,-0.990967,0.190321,0.432366,-0.25313,57,268,586,6160
1644181804.992325,-0.008911,0.011169,-0.99292,0.236122,0.371298,-0.085191,48,279,587,6192
1644181805.042878,-0.010925,0.008423,-0.993347,0.251389,0.325496,-0.008855,60,279,590,6160
1644181805.098504,-0.005432,0.009949,-0.991028,0.220855,0.432366,0.036947,51,274,578,6176
1644181805.138402,-0.005676,0.009094,-0.992432,0.113985,0.371298,-0.207328,47,280,582,6128
1644181805.234095,-0.008728,0.008789,-0.99054,0.022382,0.356031,-0.085191,51,286,571,6112
1644181805.282471,-0.008423,0.011353,-0.990479,-0.038687,0.432366,-0.008855,38,280,577,6176
1644181805.330872,-0.010254,0.008667,-0.991211,0.144519,0.356031,-0.192061,57,273,582,6176
1644181805.379248,-0.010681,0.009399,-0.991577,0.35826,0.371298,-0.085191,42,275,582,6128
1644181805.427648,-0.009399,0.013062,-0.994019,0.220855,0.478168,-0.024122,47,275,577,6176
1644181805.476028,-0.010864,0.008728,-0.993896,0.251389,0.356031,-0.222595,43,281,587,6192
1644181805.524433,-0.010071,0.008789,-0.992615,-0.038687,0.508702,-0.100458,42,275,572,6160
1644181805.572842,-0.007202,0.011475,-0.992615,0.007115,0.447634,-0.192061,39,288,583,6160
1644181805.621197,-0.011169,0.00769,-0.989624,0.342992,0.325496,0.067481,66,280,591,6160
1644181805.669614,-0.008057,0.007751,-0.992188,0.08345,0.401832,-0.115725,46,276,583,6160
1644181805.718007,-0.008911,0.009399,-0.991882,0.159786,0.401832,-0.14626,52,273,577,6176
1644181805.766408,-0.011169,0.009338,-0.991516,0.205588,0.356031,-0.115725,47,287,586,6128
1644181805.814792,-0.010437,0.006897,-0.991455,0.068183,0.371298,-0.192061,49,285,602,6128
1644181805.863219,-0.011536,0.008484,-0.993835,0.190321,0.462901,-0.115725,40,273,593,6224
1644181805.911618,-0.01001,0.010254,-0.99292,0.205588,0.401832,-0.085191,54,280,577,6224
1644181805.960008,-0.010986,0.007812,-0.992371,0.098718,0.24916,-0.085191,53,276,583,6176
1644181806.008397,-0.006042,0.010498,-0.987793,0.175053,0.478168,-0.237863,42,273,582,6112
1644181806.076726,-0.010864,0.009766,-0.992554,0.236122,0.325496,-0.192061,53,279,597,6160
1644181806.105539,-0.010193,0.01062,-0.99054,0.175053,0.417099,-0.192061,53,276,578,6176
1644181806.154761,-0.01062,0.01001,-0.992126,0.068183,0.508702,-0.161527,51,276,580,6192
1644181806.203947,-0.010376,0.009155,-0.992004,0.052916,0.432366,-0.130992,47,270,586,6080
1644181806.254161,-0.008667,0.007935,-0.993591,0.113985,0.554504,-0.192061,49,270,579,6160
1644181806.299261,-0.008911,0.008484,-0.99176,0.205588,0.325496,-0.085191,55,279,592,6192
1644181806.395533,-0.008301,0.008667,-0.991272,0.327725,0.417099,-0.115725,35,273,586,6160
1644181806.443908,-0.009644,0.009155,-0.990723,0.037649,0.325496,-0.039389,40,268,579,6240
1644181806.492395,-0.008545,0.011292,-0.991821,0.098718,0.539237,0.052214,54,277,589,6192
1644181806.5407,-0.009155,0.010803,-0.988281,0.220855,0.478168,-0.054656,36,274,585,6160
1644181806.589069,-0.007629,0.007141,-0.993225,0.175053,0.401832,-0.039389,52,275,582,6192
1644181806.637467,-0.009827,0.011292,-0.993408,0.236122,0.462901,-0.100458,54,277,579,6112
1644181806.685846,-0.008606,0.009888,-0.992493,0.190321,0.539237,-0.130992,49,282,582,6240
1644181806.734264,-0.008179,0.007751,-0.991943,0.449863,0.340763,-0.130992,47,282,582,6128
1644181806.782661,-0.009155,0.010254,-0.993042,0.113985,0.371298,-0.176794,46,274,587,6192
1644181806.831036,-0.00885,0.009216,-0.992615,0.266656,0.24916,-0.039389,43,281,587,6128
1644181806.87947,-0.010071,0.009277,-0.991638,0.129252,0.340763,-0.130992,52,275,589,6128
1644181806.927852,-0.006958,0.01062,-0.993347,0.327725,0.401832,-0.054656,53,274,587,6192
1644181806.976239,-0.010742,0.010193,-0.992493,0.388794,0.356031,-0.085191,45,273,584,6224
1644181807.024641,-0.007263,0.009399,-0.992432,0.098718,0.356031,-0.024122,54,275,582,6192
1644181807.084668,-0.00824,0.011597,-0.994263,0.159786,0.523969,-0.176794,49,280,582,6176
1644181807.123015,-0.007446,0.009216,-0.991211,0.281924,0.401832,-0.008855,43,274,594,6160
1644181807.172914,-0.010071,0.010742,-0.991882,0.205588,0.371298,-0.008855,58,276,592,6128
1644181807.222316,-0.007874,0.01062,-0.99115,0.342992,0.523969,-0.024122,55,283,583,6224
1644181807.267366,-0.008728,0.010986,-0.993286,0.281924,0.462901,-0.054656,57,273,591,6240
1644181807.36336,-0.012695,0.007446,-0.992676,0.266656,0.508702,-0.039389,43,274,578,6128
1644181807.411731,-0.007568,0.011169,-0.993469,0.098718,0.417099,-0.085191,48,274,576,6160
1644181807.460131,-0.008606,0.011414,-0.991516,0.236122,0.356031,0.052214,47,273,579,6160
1644181807.508513,-0.008606,0.011719,-0.989563,0.220855,0.401832,-0.161527,49,280,584,6160
1644181807.556923,-0.010437,0.008179,-0.993896,0.266656,0.386565,-0.024122,48,279,585,6128
1644181807.605321,-0.008545,0.011597,-0.991882,0.266656,0.462901,-0.085191,48,279,580,6160
1644181807.653721,-0.010437,0.011292,-0.99176,0.175053,0.401832,-0.222595,53,271,592,6160
1644181807.70215,-0.012634,0.007751,-0.991211,0.373527,0.340763,-0.008855,55,281,590,6128
1644181807.750478,-0.008118,0.01062,-0.992493,0.159786,0.401832,0.036947,40,275,586,6160
1644181807.798896,-0.006531,0.009155,-0.990845,0.098718,0.462901,-0.069924,47,277,577,6112
1644181807.847291,-0.008606,0.008789,-0.993042,0.205588,0.386565,-0.14626,47,277,589,6112
1644181807.895714,-0.008911,0.009888,-0.993774,0.266656,0.508702,-0.069924,57,280,579,6176
1644181807.944085,-0.004333,0.009949,-0.991516,0.175053,0.432366,-0.130992,47,275,591,6112
1644181807.992507,-0.007812,0.007996,-0.993591,0.068183,0.523969,-0.161527,48,271,590,6080
1644181808.040895,-0.009949,0.010193,-0.993042,0.052916,0.523969,0.006412,59,287,586,6160
1644181808.092738,-0.011353,0.009888,-0.994202,0.251389,0.401832,0.113282,45,292,591,6224
1644181808.137701,-0.009399,0.009155,-0.992981,0.098718,0.294962,-0.192061,49,280,586,6160
1644181808.186285,-0.009399,0.010925,-0.991821,0.205588,0.478168,-0.130992,51,279,587,6176
1644181808.234759,-0.009216,0.011841,-0.990417,0.312458,0.432366,-0.115725,53,276,576,6176
1644181808.284912,-0.00824,0.008545,-0.993347,0.35826,0.325496,-0.008855,48,279,583,6240
1644181808.33536,-0.009277,0.011963,-0.991455,0.266656,0.310229,-0.176794,45,275,584,6112
1644181808.379661,-0.011475,0.008484,-0.993469,0.159786,0.478168,-0.085191,38,273,586,6160
1644181808.476441,-0.007812,0.011719,-0.991516,0.220855,0.432366,-0.085191,61,280,584,6160
1644181808.5249,-0.007568,0.009216,-0.992065,0.266656,0.478168,-0.085191,53,271,587,6128
1644181808.573202,-0.007568,0.010254,-0.993164,0.220855,0.462901,-0.085191,36,279,578,6192
1644181808.621602,-0.007751,0.011292,-0.990662,0.404061,0.432366,-0.222595,43,281,585,6192
1644181808.670007,-0.007019,0.008728,-0.991394,0.297191,0.340763,-0.008855,38,273,591,6080
1644181808.718395,-0.009949,0.008789,-0.99292,0.312458,0.401832,-0.039389,52,285,589,6160
1644181808.766769,-0.005493,0.009094,-0.987183,0.098718,0.447634,-0.176794,49,275,589,6128
1644181808.815287,-0.009888,0.008606,-0.994263,0.236122,0.417099,-0.024122,43,269,592,6160
1644181808.86358,-0.008362,0.00885,-0.990601,0.251389,0.417099,-0.115725,55,271,590,6224
1644181808.911947,-0.010803,0.009705,-0.992798,0.342992,0.371298,-0.115725,43,264,580,6160
1644181808.960381,-0.0047,0.008118,-0.99408,0.266656,0.462901,-0.25313,57,275,600,6160
1644181809.008728,-0.007019,0.010376,-0.992249,0.205588,0.325496,-0.237863,58,283,580,6176
1644181809.064995,-0.005981,0.010742,-0.991394,0.190321,0.417099,0.006412,49,282,586,6224
1644181809.105516,-0.009033,0.007385,-0.992065,0.220855,0.493435,-0.268397,53,276,590,6192
1644181809.153907,-0.008789,0.00946,-0.99176,0.266656,0.462901,-0.008855,48,271,580,6128
1644181809.202294,-0.012451,0.01062,-0.99231,0.297191,0.325496,-0.024122,45,280,591,6160
1644181809.250638,-0.009888,0.00885,-0.995056,0.113985,0.294962,0.067481,54,282,575,6192
1644181809.299053,-0.005737,0.012512,-0.992004,0.266656,0.356031,-0.14626,46,279,590,6080
1644181809.347712,-0.008606,0.009521,-0.993713,0.129252,0.432366,-0.054656,62,279,580,6224
1644181809.396591,-0.011047,0.009399,-0.987305,0.190321,0.508702,-0.176794,43,281,587,6192
1644181809.447166,-0.006226,0.008179,-0.988525,0.129252,0.401832,-0.115725,46,271,578,6176
1644181809.497569,-0.007935,0.008667,-0.989441,0.220855,0.188092,-0.176794,45,275,598,6176
1644181809.542254,-0.00885,0.006653,-0.990967,0.236122,0.310229,-0.14626,52,263,586,6160
1644181809.637794,-0.009827,0.009094,-0.991699,0.327725,0.401832,-0.14626,46,279,587,6240
1644181809.686198,-0.011292,0.011414,-0.99176,0.342992,0.432366,-0.054656,51,276,587,6176
1644181809.734832,-0.009888,0.009277,-0.992065,0.159786,0.447634,0.052214,49,268,582,6128
1644181809.78301,-0.008057,0.009827,-0.993103,0.373527,0.478168,-0.085191,60,271,583,6240
1644181809.831412,-0.008972,0.010254,-0.989868,0.251389,0.264427,0.021679,49,268,572,6192
1644181809.879822,-0.008179,0.009277,-0.992065,0.220855,0.417099,-0.115725,60,274,592,6128
1644181809.928216,-0.007935,0.012939,-0.993225,0.236122,0.401832,-0.024122,51,281,576,6224
1644181809.976612,-0.010376,0.010925,-0.99231,0.175053,0.493435,-0.069924,47,275,582,6240
1644181810.025118,-0.011292,0.010254,-0.989624,0.190321,0.493435,-0.192061,42,275,584,6224
1644181810.077652,-0.008728,0.009277,-0.991394,0.175053,0.310229,-0.222595,51,266,580,6160
1644181810.121732,-0.008728,0.009888,-0.994446,0.220855,0.539237,-0.100458,55,274,587,6176
1644181810.170143,-0.007507,0.009094,-0.989624,0.434595,0.462901,-0.039389,48,279,576,6112
1644181810.218525,-0.010132,0.007019,-0.992126,0.220855,0.523969,0.021679,43,279,587,6160
1644181810.266932,-0.010376,0.011047,-0.990601,0.266656,0.478168,-0.268397,49,277,589,6192
1644181810.315345,-0.009521,0.010559,-0.993896,0.205588,0.447634,-0.222595,47,277,584,6128
1644181810.363712,-0.007935,0.007935,-0.992126,0.281924,0.417099,-0.100458,48,279,587,6224
1644181810.412065,-0.009277,0.01123,-0.990723,0.266656,0.417099,-0.130992,43,271,594,6160
1644181810.460491,-0.009949,0.011292,-0.991943,0.281924,0.294962,-0.115725,58,274,599,6176
1644181810.508883,-0.007324,0.010193,-0.992676,0.220855,0.386565,0.021679,42,275,589,6160
1644181810.557756,-0.00824,0.012207,-0.994202,0.327725,0.279695,-0.100458,48,274,590,6160
1644181810.607923,-0.00946,0.011414,-0.993774,0.159786,0.294962,-0.192061,51,276,573,6160
1644181810.658046,-0.007019,0.01123,-0.996216,0.297191,0.462901,-0.115725,48,266,594,6176
1644181810.703145,-0.009521,0.009521,-0.992859,0.236122,0.554504,-0.130992,48,283,576,6160
1644181810.799228,-0.011536,0.010376,-0.991333,0.190321,0.371298,-0.176794,52,275,582,6192
1644181810.847653,-0.009705,0.008789,-0.992493,0.297191,0.417099,-0.008855,52,270,591,6160
1644181810.896044,-0.007385,0.010864,-0.993225,0.312458,0.371298,-0.161527,45,280,586,6160
1644181810.944454,-0.011047,0.009216,-0.989563,0.144519,0.371298,-0.115725,40,282,586,6192
1644181810.992872,-0.010376,0.008179,-0.994141,0.052916,0.386565,-0.115725,54,270,586,6160
1644181811.041247,-0.006836,0.011414,-0.99408,0.113985,0.294962,-0.130992,57,275,591,6160
1644181811.095386,-0.010315,0.008179,-0.991638,0.266656,0.401832,-0.085191,55,279,594,6160
1644181811.137985,-0.00946,0.008667,-0.991577,0.144519,0.371298,-0.14626,60,281,592,6080
1644181811.186382,-0.011353,0.007812,-0.991943,0.281924,0.478168,-0.25313,51,274,592,6176
1644181811.234792,-0.007446,0.008301,-0.99292,0.144519,0.401832,-0.176794,46,279,583,6160
1644181811.283185,-0.007446,0.007568,-0.991516,-0.008153,0.462901,-0.115725,46,274,573,6176
1644181811.331553,-0.008545,0.010254,-0.992188,0.175053,0.356031,-0.085191,52,285,586,6224
1644181811.379942,-0.010376,0.009216,-0.99292,0.220855,0.356031,-0.054656,48,288,585,6192
1644181811.428321,-0.007629,0.010315,-0.992126,0.266656,0.447634,-0.069924,55,281,587,6160
1644181811.476812,-0.010742,0.008606,-0.990356,0.144519,0.447634,-0.130992,55,276,597,6176
1644181811.526111,-0.009949,0.01178,-0.994019,0.205588,0.432366,-0.115725,58,271,583,6192
1644181811.576706,-0.005859,0.010071,-0.993042,0.297191,0.386565,-0.207328,46,274,587,6128
1644181811.626823,-0.009155,0.009766,-0.99176,0.175053,0.493435,-0.283664,46,283,583,6160
1644181811.718706,-0.009583,0.006836,-0.993958,0.175053,0.386565,-0.130992,47,273,586,6160
1644181811.767074,-0.00946,0.01001,-0.992432,0.205588,0.432366,-0.130992,48,274,592,6160
1644181811.815474,-0.007996,0.00946,-0.991882,0.113985,0.386565,-0.161527,48,274,583,6160
1644181811.863919,-0.008606,0.005432,-0.988708,0.266656,0.386565,-0.14626,46,266,587,6160
1644181811.912328,-0.01001,0.010925,-0.989624,0.205588,0.386565,0.036947,48,281,578,6128
1644181811.960704,-0.00885,0.010071,-0.991699,0.144519,0.386565,-0.115725,49,275,582,6128
1644181812.009103,-0.008179,0.00946,-0.99469,0.251389,0.417099,-0.085191,51,279,580,6224
1644181812.062312,-0.009277,0.008301,-0.99176,0.098718,0.401832,-0.130992,53,281,585,6128
1644181812.105902,-0.007507,0.006653,-0.990967,0.205588,0.417099,-0.085191,53,281,580,6176
1644181812.154251,-0.010925,0.008728,-0.990417,0.144519,0.401832,0.082748,51,279,573,6128
1644181812.202645,-0.007202,0.008789,-0.991699,0.236122,0.310229,-0.115725,48,276,583,6128
1644181812.250995,-0.009521,0.009583,-0.992737,0.327725,0.493435,-0.14626,47,285,579,6128
1644181812.299411,-0.007507,0.008179,-0.99054,0.480397,0.478168,0.067481,48,274,583,6112
1644181812.347773,-0.007996,0.009888,-0.989685,0.266656,0.356031,-0.069924,55,274,580,6176
1644181812.396173,-0.008545,0.010986,-0.991272,0.220855,0.462901,-0.161527,51,283,594,6192
1644181812.444632,-0.008789,0.00824,-0.992859,0.098718,0.493435,-0.024122,45,277,584,6160
1644181812.493009,-0.007935,0.009277,-0.994202,0.342992,0.356031,-0.039389,48,274,580,6224
1644181812.541379,-0.006592,0.01239,-0.992432,0.113985,0.310229,-0.039389,48,269,583,6160
1644181812.589768,-0.00708,0.00946,-0.992065,0.190321,0.478168,-0.115725,53,269,587,6160
1644181812.638562,-0.010193,0.011475,-0.988953,0.144519,0.401832,-0.222595,46,283,576,6224
1644181812.688913,-0.006531,0.009277,-0.99292,0.159786,0.386565,-0.069924,46,283,592,6128
1644181812.73932,-0.009827,0.009949,-0.991333,0.266656,0.417099,-0.039389,54,277,586,6128
1644181812.784056,-0.009338,0.011963,-0.991394,0.175053,0.356031,-0.054656,49,280,582,6160
1644181812.880162,-0.007751,0.008545,-0.99469,0.236122,0.478168,-0.024122,46,279,583,6176
1644181812.928548,-0.008606,0.007874,-0.990845,0.190321,0.508702,-0.085191,52,275,584,6176
1644181812.976923,-0.010132,0.008789,-0.992798,0.251389,0.356031,-0.054656,43,288,585,6224
1644181813.025357,-0.009338,0.007263,-0.990723,0.205588,0.356031,-0.161527,42,270,586,6112
1644181813.073775,-0.008911,0.009094,-0.991882,0.190321,0.417099,-0.054656,40,285,579,6160
1644181813.122183,-0.005859,0.009338,-0.994141,0.236122,0.493435,-0.192061,49,275,589,6192
1644181813.170499,-0.007874,0.009399,-0.991943,0.190321,0.432366,-0.14626,55,283,578,6160
1644181813.218879,-0.009399,0.00946,-0.99176,0.129252,0.417099,-0.161527,46,276,587,6128
1644181813.267246,-0.011108,0.009277,-0.990845,0.297191,0.340763,-0.054656,49,270,584,6176
1644181813.315655,-0.010437,0.010437,-0.990906,0.220855,0.432366,0.006412,46,269,592,6224
1644181813.364038,-0.013,0.009338,-0.991455,0.205588,0.554504,-0.039389,51,281,597,6160
1644181813.412459,-0.008789,0.009583,-0.99231,0.327725,0.386565,-0.130992,55,271,587,6176
1644181813.46084,-0.010925,0.009521,-0.992798,0.175053,0.325496,-0.207328,48,296,590,6128
1644181813.50921,-0.008972,0.007935,-0.991272,0.159786,0.462901,-0.207328,46,274,592,6112
1644181813.557625,-0.011108,0.008057,-0.993225,-0.008153,0.554504,-0.283664,52,268,584,6224
1644181813.605986,-0.008118,0.007507,-0.993164,0.312458,0.569771,-0.161527,45,275,591,6224
1644181813.654409,-0.007507,0.010742,-0.991882,0.297191,0.401832,-0.237863,52,268,584,6128
1644181813.702827,-0.008728,0.009949,-0.992249,0.159786,0.447634,-0.222595,39,274,587,6192
1644181813.751441,-0.006958,0.007446,-0.990112,0.327725,0.661374,-0.115725,48,279,590,6128
1644181813.802072,-0.008362,0.009827,-0.992188,0.220855,0.554504,-0.054656,53,276,592,6128
1644181813.853403,-0.009277,0.010742,-0.989441,0.297191,0.340763,-0.115725,51,274,590,6160
1644181813.897711,-0.008545,0.007996,-0.991455,0.159786,0.340763,0.021679,47,260,586,6192
1644181813.993202,-0.008606,0.007996,-0.991455,0.220855,0.462901,-0.100458,47,273,589,6176
1644181814.041585,-0.009033,0.012146,-0.992188,0.342992,0.310229,-0.085191,47,280,582,6176
1644181814.090134,-0.009338,0.009277,-0.992126,0.373527,0.401832,-0.008855,58,276,585,6160
1644181814.138386,-0.010071,0.008728,-0.991638,0.236122,0.371298,-0.115725,42,270,589,6192
1644181814.186737,-0.010315,0.010193,-0.992493,0.266656,0.294962,-0.008855,43,262,578,6112
1644181814.23522,-0.008362,0.007629,-0.989563,0.312458,0.462901,-0.14626,43,271,599,6160
1644181814.283499,-0.007629,0.009644,-0.993469,0.129252,0.417099,0.052214,47,277,577,6192
1644181814.331909,-0.00824,0.009216,-0.993286,0.281924,0.371298,-0.222595,47,273,584,6176
1644181814.380314,-0.008423,0.007812,-0.993469,0.327725,0.325496,-0.130992,52,275,586,6176
1644181814.428696,-0.009705,0.007874,-0.992615,0.312458,0.462901,-0.115725,59,270,589,6160
1644181814.477086,-0.006958,0.010376,-0.993164,0.266656,0.417099,-0.008855,47,275,582,6128
1644181814.525482,-0.00824,0.006348,-0.992249,0.190321,0.569771,-0.14626,52,270,593,6256
1644181814.573893,-0.011719,0.008728,-0.994324,0.205588,0.432366,-0.14626,47,277,582,6160
1644181814.62229,-0.010559,0.006592,-0.989868,0.251389,0.401832,-0.115725,57,275,589,6160
1644181814.670645,-0.010742,0.008362,-0.990662,0.08345,0.325496,-0.176794,42,275,584,6176
1644181814.71901,-0.010681,0.011353,-0.992554,0.113985,0.340763,-0.100458,52,290,579,6224
1644181814.76745,-0.00885,0.007141,-0.994385,0.220855,0.447634,-0.008855,42,285,582,6080
1644181814.81584,-0.007568,0.009094,-0.992798,0.113985,0.478168,-0.115725,52,275,582,6192
1644181814.864233,-0.010071,0.009644,-0.991272,0.251389,0.325496,-0.115725,53,269,590,6224
1644181814.9148,-0.009888,0.009338,-0.993469,0.159786,0.432366,-0.069924,52,285,582,6128
1644181814.964129,-0.008057,0.012634,-0.991638,0.205588,0.325496,-0.25313,48,274,590,6160
1644181815.062349,-0.011292,0.009216,-0.989136,0.205588,0.447634,-0.130992,49,268,589,6176
1644181815.106225,-0.009033,0.007935,-0.993896,0.159786,0.356031,-0.14626,39,271,587,6112
1644181815.154676,-0.005798,0.009521,-0.992676,0.266656,0.371298,-0.25313,40,277,591,6192
1644181815.202995,-0.012085,0.010559,-0.991028,0.404061,0.310229,-0.207328,43,279,583,6064
1644181815.251343,-0.008667,0.009216,-0.991394,0.236122,0.325496,-0.100458,57,273,593,6176
1644181815.299768,-0.008911,0.009521,-0.992432,0.236122,0.340763,-0.237863,49,285,589,6160
1644181815.348163,-0.005737,0.009583,-0.99231,0.113985,0.218626,0.113282,51,283,587,6112
1644181815.396561,-0.006165,0.009277,-0.993286,0.175053,0.371298,-0.176794,39,281,585,6160
1644181815.444933,-0.007507,0.009827,-0.992798,0.266656,0.432366,-0.100458,57,265,579,6224
1644181815.493321,-0.008057,0.008667,-0.989929,0.129252,0.63084,-0.085191,36,281,594,6192
1644181815.541729,-0.008911,0.009888,-0.990906,0.052916,0.432366,-0.14626,58,269,592,6224
1644181815.590123,-0.011292,0.011353,-0.992615,0.144519,0.417099,-0.069924,43,281,585,6240
1644181815.638516,-0.007385,0.00824,-0.990845,0.327725,0.325496,-0.207328,47,285,582,6224
1644181815.686898,-0.009155,0.009338,-0.989319,0.312458,0.462901,-0.115725,53,271,578,6224
1644181815.735292,-0.01001,0.008118,-0.991089,0.35826,0.493435,0.006412,46,276,578,6080
1644181815.783684,-0.006653,0.009644,-0.992126,0.220855,0.401832,-0.176794,48,279,590,6128
1644181815.832193,-0.010498,0.010315,-0.991699,0.281924,0.356031,-0.130992,39,276,587,6192
1644181815.882169,-0.007202,0.007935,-0.991272,0.236122,0.432366,-0.054656,45,273,584,6160
1644181815.932381,-0.007874,0.011047,-0.990112,0.175053,0.478168,0.006412,53,262,580,6128
1644181815.98302,-0.010132,0.010986,-0.992249,0.205588,0.539237,-0.130992,54,275,577,6224
1644181816.027171,-0.009155,0.012085,-0.992737,0.144519,0.523969,-0.085191,51,281,585,6224
1644181816.122518,-0.007446,0.009155,-0.991211,0.190321,0.386565,-0.008855,52,273,575,6160
1644181816.170859,-0.00946,0.009399,-0.992004,0.266656,0.310229,-0.085191,43,279,583,6224
1644181816.219262,-0.007568,0.010437,-0.992737,0.068183,0.493435,-0.069924,52,275,584,6192
1644181816.267644,-0.007507,0.009399,-0.994202,0.129252,0.523969,-0.085191,58,269,585,6224
1644181816.316031,-0.008118,0.009766,-0.990845,0.113985,0.356031,-0.130992,46,281,580,6192
1644181816.364455,-0.008118,0.01001,-0.992432,0.159786,0.340763,-0.039389,46,279,590,6176
1644181816.412859,-0.009888,0.007751,-0.993164,0.327725,0.554504,-0.176794,41,274,580,6128
1644181816.461238,-0.009277,0.010254,-0.992798,0.205588,0.478168,-0.176794,54,280,582,6192
1644181816.509641,-0.009949,0.008911,-0.995422,0.205588,0.462901,-0.130992,51,279,580,6192
1644181816.558014,-0.008606,0.009399,-0.991028,0.419328,0.417099,-0.14626,43,276,580,6224
1644181816.606416,-0.008606,0.008118,-0.993835,0.297191,0.478168,0.052214,45,285,586,6128
1644181816.654821,-0.006592,0.009277,-0.990845,0.342992,0.417099,-0.176794,43,281,590,6080
1644181816.703211,-0.009033,0.008789,-0.990112,0.113985,0.493435,-0.069924,55,279,583,6224
1644181816.751578,-0.008057,0.009644,-0.994629,0.266656,0.386565,-0.130992,40,294,584,6224
1644181816.799941,-0.009399,0.008484,-0.991882,0.159786,0.279695,-0.100458,55,257,583,6080
1644181816.848375,-0.010498,0.010376,-0.992737,0.266656,0.447634,-0.008855,48,279,587,6160
1644181816.896775,-0.007507,0.008423,-0.994446,0.281924,0.539237,-0.100458,57,268,593,6128
1644181816.945476,-0.011292,0.007751,-0.993835,0.190321,0.417099,0.021679,58,279,583,6176
1644181816.993745,-0.009338,0.008423,-0.992371,0.236122,0.203359,-0.008855,46,288,578,6240
1644181817.043886,-0.007996,0.008606,-0.993652,0.281924,0.340763,-0.344733,49,280,584,6176
1644181817.099595,-0.009644,0.00946,-0.993164,0.281924,0.447634,-0.054656,53,274,590,6128
1644181817.143587,-0.008362,0.010559,-0.993591,0.205588,0.508702,-0.100458,40,280,584,6160
1644181817.235504,-0.006104,0.008057,-0.991638,0.236122,0.401832,-0.130992,45,282,586,6128
1644181817.283864,-0.009949,0.011047,-0.995422,0.266656,0.508702,-0.054656,43,274,585,6160
1644181817.332397,-0.008972,0.009644,-0.993225,0.144519,0.356031,-0.085191,42,275,586,6160
1644181817.380646,-0.005798,0.00885,-0.992554,0.373527,0.386565,-0.069924,49,282,589,6224
1644181817.429045,-0.007202,0.009399,-0.992371,0.098718,0.386565,-0.161527,49,273,577,6176
1644181817.47743,-0.008972,0.011597,-0.991638,0.373527,0.417099,-0.024122,62,293,585,6160
1644181817.525828,-0.008972,0.009766,-0.993042,0.129252,0.462901,0.098015,39,283,592,6176
1644181817.574228,-0.009155,0.009949,-0.992188,0.281924,0.356031,-0.024122,57,275,593,6192
1644181817.622635,-0.009949,0.01062,-0.993713,0.205588,0.386565,-0.115725,42,282,570,6128
1644181817.671002,-0.007812,0.010986,-0.992493,0.159786,0.401832,-0.024122,53,274,583,6112
1644181817.719401,-0.010437,0.009888,-0.991943,0.175053,0.340763,-0.069924,54,270,584,6160
1644181817.767794,-0.00946,0.009766,-0.993042,0.266656,0.401832,-0.069924,43,264,587,6080
1644181817.816231,-0.008118,0.010071,-0.98938,0.175053,0.432366,-0.085191,49,282,584,6080
1644181817.864664,-0.008911,0.007141,-0.991577,0.068183,0.523969,-0.192061,55,279,587,6160
1644181817.913027,-0.008728,0.008179,-0.991943,0.175053,0.294962,-0.069924,48,283,578,6176
1644181817.961399,-0.00885,0.008667,-0.991211,0.220855,0.356031,-0.069924,58,274,594,6112
1644181818.009775,-0.01178,0.005127,-0.994202,0.327725,0.447634,-0.25313,45,275,589,6224
1644181818.070482,-0.008911,0.007996,-0.993469,0.159786,0.340763,-0.161527,53,269,583,6256
1644181818.113777,-0.010803,0.011475,-0.990234,0.251389,0.462901,-0.222595,51,266,587,6112
1644181818.156251,-0.006836,0.007507,-0.99115,0.220855,0.325496,-0.192061,51,276,585,6128
1644181818.206517,-0.006226,0.008911,-0.990479,0.068183,0.478168,-0.054656,55,276,583,6240
1644181818.256868,-0.00769,0.00885,-0.99115,0.236122,0.417099,-0.100458,47,265,584,6128
1644181818.34849,-0.008667,0.009827,-0.991028,0.098718,0.233893,-0.039389,48,279,592,6160
1644181818.39688,-0.007751,0.009094,-0.992615,0.236122,0.523969,-0.069924,47,275,596,6192
1644181818.445404,-0.010742,0.010742,-0.99176,0.312458,0.478168,-0.069924,54,282,579,6224
1644181818.493678,-0.011475,0.00824,-0.993469,0.175053,0.478168,-0.115725,53,274,587,6176
1644181818.542079,-0.011475,0.009216,-0.992737,0.159786,0.356031,-0.130992,47,280,582,6128
1644181818.590464,-0.010437,0.007019,-0.991089,0.281924,0.478168,-0.024122,54,277,589,6160
1644181818.638855,-0.009155,0.007568,-0.993286,0.113985,0.508702,-0.237863,54,270,584,6160
1644181818.687244,-0.008667,0.009399,-0.992737,0.052916,0.340763,-0.161527,49,280,586,6176
1644181818.735646,-0.007935,0.008301,-0.991821,0.144519,0.371298,-0.161527,40,273,593,6160
1644181818.784045,-0.008728,0.009949,-0.99115,0.068183,0.432366,0.082748,54,290,593,6176
1644181818.832501,-0.011292,0.009521,-0.98938,0.251389,0.432366,-0.14626,43,276,583,6128
1644181818.880835,-0.007935,0.008972,-0.989136,0.175053,0.371298,-0.085191,41,286,578,6176
1644181818.929272,-0.006592,0.007507,-0.992615,0.220855,0.371298,-0.054656,49,277,575,6160
1644181818.977656,-0.010681,0.008301,-0.994385,0.251389,0.325496,-0.024122,53,271,592,6224
1644181819.026062,-0.009277,0.009033,-0.993652,0.190321,0.294962,-0.039389,54,290,596,6160
1644181819.099238,-0.009094,0.010071,-0.992859,0.266656,0.294962,-0.176794,47,273,586,6224
1644181819.124771,-0.009338,0.007874,-0.993042,0.113985,0.493435,-0.024122,53,276,590,6080
1644181819.17495,-0.009766,0.00824,-0.990295,0.175053,0.417099,-0.130992,42,275,572,6128
1644181819.219618,-0.010498,0.010742,-0.989014,0.251389,0.478168,-0.222595,49,277,579,6192
1644181819.316342,-0.009155,0.012085,-0.993164,0.144519,0.462901,-0.100458,60,266,583,6128
1644181819.364866,-0.008667,0.008972,-0.991577,0.251389,0.340763,-0.008855,54,282,575,6160
1644181819.413158,-0.010132,0.010803,-0.99231,0.190321,0.401832,-0.283664,52,277,584,6160
1644181819.461514,-0.008423,0.009705,-0.99408,0.236122,0.310229,-0.069924,45,275,584,6160
1644181819.509909,-0.01123,0.011536,-0.990723,0.327725,0.417099,-0.008855,51,266,587,6128
1644181819.55832,-0.010193,0.009094,-0.991577,0.236122,0.508702,-0.024122,47,277,582,6160
1644181819.606707,-0.009216,0.007324,-0.990723,0.113985,0.325496,-0.14626,51,281,576,6160
1644181819.655126,-0.007751,0.010376,-0.990417,0.236122,0.325496,-0.008855,58,266,583,6128
1644181819.703495,-0.007935,0.010742,-0.993164,0.281924,0.356031,-0.024122,51,274,578,6192
1644181819.751876,-0.00769,0.007935,-0.990051,0.342992,0.401832,-0.130992,48,266,590,6176
1644181819.800287,-0.009155,0.011719,-0.990479,0.251389,0.462901,-0.024122,53,279,587,6160
1644181819.848721,-0.00824,0.009827,-0.990601,0.236122,0.24916,-0.085191,47,280,579,6224
1644181819.897106,-0.009949,0.010376,-0.991821,0.175053,0.462901,0.006412,39,283,590,6192
1644181819.945504,-0.009521,0.01001,-0.989258,0.266656,0.371298,-0.039389,54,280,589,6128
1644181819.993902,-0.00946,0.009338,-0.993774,0.08345,0.371298,-0.054656,61,273,589,6128
1644181820.042366,-0.009644,0.010315,-0.988892,0.113985,0.523969,-0.085191,43,281,583,6160
1644181820.090795,-0.008606,0.008301,-0.993286,0.281924,0.447634,-0.161527,49,287,586,6224
1644181820.139331,-0.010803,0.01123,-0.990967,0.297191,0.417099,-0.115725,47,268,579,6160
1644181820.187437,-0.010193,0.009033,-0.992676,0.281924,0.478168,-0.176794,54,275,579,6176
1644181820.235998,-0.006958,0.009644,-0.99115,0.205588,0.325496,-0.14626,38,282,584,6176
1644181820.286431,-0.009521,0.009644,-0.990723,0.129252,0.417099,-0.115725,52,280,582,6128
1644181820.336642,-0.011658,0.01123,-0.990295,0.373527,0.508702,-0.115725,51,281,580,6192
1644181820.381623,-0.009766,0.010498,-0.993713,0.297191,0.401832,-0.192061,53,279,585,6160
1644181820.477774,-0.008423,0.008911,-0.992432,0.220855,0.417099,-0.100458,39,274,578,6192
1644181820.526163,-0.010803,0.009155,-0.989563,0.251389,0.523969,-0.14626,51,286,592,6112
1644181820.57482,-0.008057,0.008789,-0.991211,0.190321,0.310229,-0.039389,52,280,582,6112
1644181820.622944,-0.008545,0.010498,-0.989807,0.236122,0.417099,-0.222595,53,281,580,6176
1644181820.671355,-0.011047,0.008545,-0.991516,0.037649,0.401832,-0.039389,42,287,593,6176
1644181820.719742,-0.010803,0.007568,-0.993713,0.388794,0.294962,0.036947,55,283,578,6176
1644181820.768137,-0.008911,0.011963,-0.99054,0.190321,0.417099,-0.069924,53,276,583,6128
1644181820.816531,-0.007935,0.008728,-0.992249,0.068183,0.478168,-0.039389,48,274,583,6128
1644181820.865108,-0.00592,0.009155,-0.993225,0.220855,0.356031,-0.161527,42,282,584,6128
1644181820.913378,-0.010864,0.004944,-0.992737,0.068183,0.401832,-0.054656,52,282,593,6192
1644181820.961729,-0.008423,0.009705,-0.992859,0.190321,0.447634,0.082748,47,273,584,6192
1644181821.010123,-0.010071,0.012451,-0.992126,0.342992,0.417099,-0.115725,46,274,585,6224
1644181821.068514,-0.007568,0.008179,-0.995483,0.236122,0.325496,-0.115725,55,276,585,6224
1644181821.106912,-0.011719,0.008545,-0.992004,0.220855,0.340763,-0.344733,55,281,585,6176
1644181821.155286,-0.00592,0.009644,-0.992859,0.113985,0.478168,-0.008855,49,273,586,6128
1644181821.203676,-0.007874,0.009521,-0.99231,0.068183,0.371298,-0.039389,43,266,594,6192
1644181821.252049,-0.008362,0.009033,-0.991333,0.175053,0.508702,-0.085191,53,276,587,6224
1644181821.300457,-0.011536,0.007874,-0.992371,0.190321,0.462901,-0.100458,48,291,587,6128
1644181821.348852,-0.009399,0.010193,-0.992249,0.037649,0.356031,-0.085191,58,281,573,6160
1644181821.397425,-0.011047,0.006653,-0.98999,0.220855,0.356031,-0.283664,55,279,580,6128
1644181821.447956,-0.008423,0.009399,-0.992432,0.297191,0.462901,-0.008855,53,279,580,6176
1644181821.498683,-0.010132,0.010071,-0.994263,0.251389,0.340763,-0.069924,49,282,582,6128
1644181821.543132,-0.010132,0.009644,-0.993774,0.205588,0.493435,-0.176794,59,273,584,6192
1644181821.639204,-0.009583,0.009827,-0.993652,0.251389,0.386565,-0.069924,40,287,579,6112
1644181821.687579,-0.008545,0.007751,-0.990906,0.251389,0.417099,-0.024122,40,273,582,6224
1644181821.735974,-0.010071,0.010376,-0.992065,0.281924,0.401832,-0.024122,51,276,590,6128
1644181821.784393,-0.009094,0.010498,-0.993896,0.08345,0.508702,-0.222595,52,273,575,6176
1644181821.832788,-0.007874,0.008911,-0.990784,0.205588,0.478168,-0.100458,53,274,578,6192
1644181821.881213,-0.010864,0.009583,-0.99054,0.251389,0.447634,-0.069924,51,279,583,6112
1644181821.929606,-0.009949,0.008972,-0.989197,0.251389,0.371298,-0.069924,51,281,587,6160
1644181821.978005,-0.010803,0.007324,-0.991577,0.175053,0.432366,-0.25313,48,269,585,6224
1644181822.026392,-0.010315,0.012268,-0.994202,0.266656,0.24916,0.098015,40,277,584,6160
1644181822.079156,-0.007751,0.009521,-0.991272,0.373527,0.310229,-0.069924,40,280,586,6240
1644181822.12315,-0.009949,0.007812,-0.991455,0.251389,0.417099,-0.085191,59,277,577,6224
1644181822.171531,-0.008606,0.010193,-0.991455,0.220855,0.508702,-0.207328,52,280,584,6160
1644181822.219891,-0.006531,0.010315,-0.992554,0.175053,0.508702,-0.054656,45,273,586,6160
1644181822.268314,-0.008667,0.009949,-0.992432,0.220855,0.371298,-0.024122,54,273,584,6176
1644181822.316683,-0.009766,0.011108,-0.990601,0.281924,0.478168,-0.222595,47,270,586,6192
1644181822.365143,-0.007751,0.009277,-0.991028,0.327725,0.401832,-0.054656,55,276,592,6112
1644181822.413493,-0.008667,0.009216,-0.991638,0.297191,0.218626,-0.192061,49,273,591,6160
1644181822.46189,-0.007507,0.007324,-0.991516,0.144519,0.386565,-0.054656,43,283,592,6160
1644181822.510247,-0.010376,0.011292,-0.993652,0.220855,0.203359,-0.085191,61,280,589,6224
1644181822.558714,-0.007263,0.00824,-0.989746,0.159786,0.569771,-0.176794,54,277,589,6112
1644181822.609388,-0.011414,0.008728,-0.99469,0.113985,0.432366,-0.130992,55,279,576,6176
1644181822.659431,-0.011963,0.013062,-0.989075,0.037649,0.356031,-0.024122,46,279,587,6176
1644181822.7044,-0.008362,0.007935,-0.99231,0.113985,0.401832,-0.085191,42,275,584,6128
1644181822.800637,-0.009644,0.009705,-0.989319,0.373527,0.447634,0.006412,48,279,573,6080
1644181822.849005,-0.007385,0.009216,-0.992737,0.175053,0.356031,0.067481,53,279,576,6256
1644181822.897454,-0.007935,0.010315,-0.990723,0.251389,0.417099,-0.130992,58,279,578,6128
1644181822.945852,-0.007812,0.011902,-0.990784,0.113985,0.447634,-0.207328,49,270,589,6160
1644181822.994254,-0.008423,0.012146,-0.993469,0.113985,0.386565,-0.100458,54,273,582,6176
1644181823.042643,-0.00647,0.010193,-0.993164,0.007115,0.432366,-0.115725,52,275,577,6128
1644181823.092376,-0.00885,0.007568,-0.992065,0.35826,0.325496,0.006412,55,271,585,6112
1644181823.139423,-0.010132,0.010193,-0.992798,0.220855,0.447634,-0.222595,57,277,600,6224
1644181823.187763,-0.010864,0.010437,-0.990051,0.205588,0.401832,-0.024122,46,271,583,6048
1644181823.236176,-0.007385,0.009583,-0.990967,0.266656,0.386565,0.082748,54,277,570,6048
1644181823.284541,-0.010559,0.00946,-0.992493,0.266656,0.539237,-0.192061,53,274,592,6160
1644181823.332971,-0.010071,0.007141,-0.991516,0.098718,0.386565,0.052214,45,285,575,6176
1644181823.381344,-0.010071,0.00769,-0.991516,0.266656,0.188092,0.067481,48,283,592,6160
1644181823.429737,-0.010254,0.011353,-0.993225,0.098718,0.386565,-0.161527,51,279,585,6160
1644181823.47845,-0.008484,0.009277,-0.99115,0.007115,0.401832,-0.054656,51,279,580,6112
1644181823.527402,-0.008118,0.010254,-0.993347,0.144519,0.356031,-0.069924,47,285,591,6128
1644181823.578016,-0.005371,0.012695,-0.992126,0.281924,0.417099,-0.176794,40,292,591,6112
1644181823.628376,-0.008484,0.008972,-0.989746,0.35826,0.569771,-0.024122,48,279,578,6160
1644181823.720106,-0.007324,0.006897,-0.993835,0.098718,0.417099,-0.192061,54,275,582,6160
1644181823.768466,-0.010864,0.012085,-0.989746,0.312458,0.386565,0.036947,52,277,586,6160
1644181823.81687,-0.007874,0.008118,-0.992371,0.327725,0.371298,-0.161527,42,273,575,6128
1644181823.865408,-0.009827,0.010681,-0.991455,0.236122,0.432366,-0.14626,59,282,579,6224
1644181823.91371,-0.006836,0.012451,-0.992554,0.236122,0.493435,-0.069924,46,288,585,6176
1644181823.962154,-0.007935,0.00708,-0.992737,0.281924,0.462901,0.021679,49,277,579,6224
1644181824.010495,-0.010254,0.008301,-0.990662,0.175053,0.371298,-0.024122,55,276,573,6128
1644181824.06706,-0.01001,0.007507,-0.992493,0.175053,0.340763,-0.115725,52,292,593,6128
1644181824.110552,-0.007385,0.009583,-0.993958,0.205588,0.432366,-0.268397,55,281,576,6176
1644181824.155692,-0.007751,0.007996,-0.991516,0.205588,0.401832,-0.069924,54,275,575,6128
1644181824.204032,-0.008484,0.010315,-0.993896,0.144519,0.371298,-0.024122,45,282,582,6160
1644181824.252451,-0.007935,0.008911,-0.991089,0.281924,0.325496,-0.130992,53,279,583,6160
1644181824.30081,-0.011353,0.007507,-0.992554,0.327725,0.325496,-0.283664,54,282,575,6128
1644181824.349206,-0.008972,0.010803,-0.99408,0.281924,0.279695,-0.054656,55,279,583,6192
1644181824.397589,-0.007874,0.012146,-0.989502,0.220855,0.310229,0.067481,51,288,590,6240
1644181824.445984,-0.009094,0.010132,-0.994324,0.251389,0.523969,-0.054656,59,275,586,6160
1644181824.494371,-0.007874,0.007629,-0.993469,0.251389,0.462901,0.067481,40,277,589,6160
1644181824.542781,-0.007263,0.009338,-0.989685,0.236122,0.310229,-0.054656,59,277,589,6240
1644181824.591315,-0.009827,0.009583,-0.992493,0.266656,0.371298,-0.008855,51,274,580,6192
1644181824.64178,-0.010742,0.010071,-0.992676,0.373527,0.386565,-0.115725,38,273,584,6112
1644181824.69193,-0.009094,0.009033,-0.993591,0.297191,0.493435,0.052214,42,275,582,6192
1644181824.737209,-0.00946,0.00769,-0.993896,0.434595,0.340763,-0.375267,38,273,586,6176
1644181824.833145,-0.008545,0.010315,-0.991638,0.297191,0.478168,-0.14626,52,275,570,6128
1644181824.881523,-0.008545,0.008362,-0.990112,0.266656,0.371298,-0.024122,60,279,580,6192
1644181824.929947,-0.010376,0.011536,-0.99292,0.220855,0.508702,-0.069924,46,274,580,6112
1644181824.978341,-0.009094,0.009033,-0.990906,0.220855,0.386565,-0.115725,64,277,584,6176
1644181825.02673,-0.009766,0.008789,-0.994873,0.327725,0.478168,-0.14626,59,270,584,6160
1644181825.075402,-0.008667,0.008484,-0.99292,0.175053,0.493435,-0.069924,53,274,599,6224
1644181825.12347,-0.007996,0.009888,-0.99292,0.129252,0.24916,-0.085191,51,288,597,6160
1644181825.171882,-0.006592,0.00592,-0.990173,0.098718,0.401832,-0.115725,47,277,577,6160
1644181825.220277,-0.008362,0.009521,-0.991455,0.08345,0.279695,-0.085191,52,273,577,6224
1644181825.268682,-0.010803,0.009033,-0.994141,0.327725,0.478168,-0.100458,52,275,584,6112
1644181825.317064,-0.006653,0.009033,-0.994324,0.098718,0.386565,-0.085191,59,273,586,6192
1644181825.365458,-0.007263,0.007935,-0.990784,0.205588,0.417099,-0.024122,49,270,586,6128
1644181825.413855,-0.009888,0.010864,-0.992188,0.129252,0.462901,-0.100458,47,277,596,6160
1644181825.462249,-0.008789,0.00885,-0.993164,0.205588,0.279695,-0.039389,62,279,585,6176
1644181825.510602,-0.01001,0.007751,-0.994263,0.098718,0.325496,-0.207328,65,274,585,6128
1644181825.559035,-0.009583,0.009155,-0.992371,0.312458,0.417099,0.159084,47,258,575,6176
1644181825.607415,-0.009827,0.009399,-0.993652,0.281924,0.462901,-0.283664,46,276,597,6160
1644181825.655804,-0.007324,0.009827,-0.992493,0.236122,0.310229,-0.207328,48,291,585,6176
1644181825.704212,-0.007751,0.010742,-0.990784,0.266656,0.401832,-0.176794,45,282,582,6192
1644181825.752625,-0.011475,0.010376,-0.991577,0.098718,0.554504,-0.192061,52,270,586,6176
1644181825.80468,-0.008789,0.011292,-0.98938,0.251389,0.294962,-0.176794,43,281,580,6128
1644181825.854467,-0.008179,0.008118,-0.991882,0.327725,0.386565,-0.085191,45,277,584,6224
1644181825.899061,-0.010254,0.009949,-0.990356,0.373527,0.432366,-0.115725,54,275,577,6224
1644181825.994963,-0.006958,0.009033,-0.993042,0.297191,0.325496,-0.14626,46,279,580,6224
1644181826.042996,-0.009644,0.008301,-0.992371,0.175053,0.508702,-0.176794,49,273,589,6128
1644181826.091477,-0.007996,0.011475,-0.990295,0.312458,0.462901,-0.054656,45,280,593,6176
1644181826.139737,-0.007202,0.009155,-0.992004,0.251389,0.478168,-0.100458,46,274,587,6176
1644181826.188137,-0.006958,0.00885,-0.991211,0.129252,0.401832,-0.161527,45,273,586,6176
1644181826.236512,-0.008789,0.00885,-0.99292,0.297191,0.401832,-0.176794,41,274,583,6128
1644181826.284895,-0.008606,0.010925,-0.99176,0.220855,0.325496,-0.100458,51,291,585,6176
1644181826.333308,-0.009521,0.007202,-0.992798,0.266656,0.417099,-0.115725,48,279,587,6192
1644181826.38171,-0.009277,0.01062,-0.991821,0.144519,0.340763,-0.161527,59,275,586,6080
1644181826.430087,-0.00824,0.009216,-0.990173,0.281924,0.401832,-0.115725,43,269,573,6160
1644181826.478482,-0.00647,0.009521,-0.990967,0.190321,0.600305,-0.237863,58,281,587,6128
1644181826.526878,-0.011292,0.009399,-0.991638,0.113985,0.478168,-0.100458,59,275,586,6224
1644181826.575292,-0.010803,0.009827,-0.991455,0.266656,0.386565,-0.176794,47,285,589,6128
1644181826.623686,-0.007629,0.008423,-0.990662,0.113985,0.554504,0.036947,41,281,578,6224
1644181826.67204,-0.009277,0.010193,-0.99408,0.175053,0.371298,-0.039389,52,270,584,6160
1644181826.720451,-0.011658,0.009766,-0.989807,0.113985,0.523969,-0.024122,42,277,589,6160
1644181826.768835,-0.01062,0.008728,-0.991577,0.266656,0.462901,-0.100458,46,286,585,6192
1644181826.81728,-0.010559,0.00885,-0.992126,0.342992,0.386565,-0.069924,57,273,593,6176
1644181826.867275,-0.008911,0.009644,-0.992737,0.205588,0.356031,-0.069924,43,283,585,6112
1644181826.91662,-0.009399,0.008423,-0.994812,0.236122,0.371298,-0.115725,55,281,585,6160
1644181826.966634,-0.007568,0.011047,-0.992371,0.312458,0.447634,-0.054656,42,280,584,6192
1644181827.072375,-0.007141,0.007385,-0.990417,0.175053,0.493435,-0.161527,51,279,583,6160
1644181827.109182,-0.006714,0.00946,-0.991577,0.281924,0.24916,-0.024122,54,273,589,6176
1644181827.155977,-0.010254,0.010986,-0.990784,0.129252,0.325496,-0.039389,57,268,593,6192
1644181827.204358,-0.005981,0.007996,-0.99231,0.236122,0.508702,-0.008855,47,277,586,6160
1644181827.252769,-0.011475,0.005798,-0.99115,0.266656,0.462901,-0.192061,52,275,591,6176
1644181827.301163,-0.011597,0.007019,-0.991333,0.251389,0.447634,-0.222595,57,265,586,6224
1644181827.349566,-0.007446,0.009338,-0.993225,0.342992,0.294962,0.082748,47,277,577,6128
1644181827.39794,-0.006226,0.012451,-0.991089,0.190321,0.417099,-0.207328,48,279,585,6224
1644181827.446332,-0.006165,0.010376,-0.991516,0.266656,0.310229,-0.14626,47,280,575,6192
1644181827.494748,-0.009277,0.008057,-0.994263,0.251389,0.356031,-0.008855,45,282,579,6288
1644181827.543144,-0.007385,0.011292,-0.990112,0.404061,0.371298,-0.192061,48,281,583,6112
1644181827.591516,-0.011047,0.008179,-0.992371,0.220855,0.508702,-0.176794,45,277,582,6176
1644181827.639925,-0.008301,0.014465,-0.992493,0.281924,0.478168,-0.115725,54,277,591,6176
1644181827.689909,-0.005554,0.010681,-0.993164,0.434595,0.432366,-0.130992,45,275,589,6224
1644181827.740085,-0.006409,0.008362,-0.992859,0.205588,0.539237,-0.130992,57,275,589,6176
1644181827.790125,-0.012085,0.010071,-0.991943,0.281924,0.356031,-0.222595,46,281,594,6176
1644181827.8819,-0.009583,0.00531,-0.992981,0.251389,0.462901,-0.25313,51,286,587,6080
1644181827.930291,-0.009949,0.008423,-0.993896,0.236122,0.401832,-0.085191,48,274,583,6240
1644181827.978728,-0.00946,0.009521,-0.991638,0.35826,0.24916,-0.039389,49,277,589,6224
1644181828.027084,-0.009644,0.00885,-0.990662,0.297191,0.356031,-0.054656,42,273,579,6080
1644181828.07609,-0.009949,0.01239,-0.992126,0.236122,0.325496,0.052214,52,273,584,6176
1644181828.123866,-0.009033,0.006104,-0.992371,0.175053,0.401832,-0.100458,48,269,578,6128
1644181828.172245,-0.009216,0.009399,-0.990417,0.281924,0.340763,-0.100458,48,274,578,6192
1644181828.220622,-0.008179,0.008606,-0.990417,0.113985,0.264427,-0.100458,54,280,589,6192
1644181828.269018,-0.00946,0.010071,-0.991577,0.297191,0.447634,-0.14626,53,279,594,6128
1644181828.317417,-0.00885,0.008911,-0.992798,0.327725,0.356031,-0.130992,47,275,596,6224
1644181828.365789,-0.006897,0.008301,-0.994385,0.144519,0.401832,-0.115725,51,279,583,6176
1644181828.414203,-0.007812,0.008423,-0.988037,0.144519,0.417099,-0.207328,48,276,583,6160
1644181828.462602,-0.012695,0.007019,-0.995239,0.281924,0.401832,-0.237863,55,286,580,6176
1644181828.510954,-0.005432,0.010925,-0.994141,0.175053,0.356031,-0.176794,58,283,590,6160
1644181828.55937,-0.01062,0.011658,-0.992676,0.098718,0.371298,-0.130992,43,291,578,6128
1644181828.607761,-0.010254,0.009705,-0.989502,0.129252,0.401832,-0.115725,55,288,580,6112
1644181828.656158,-0.009949,0.009094,-0.99115,0.281924,0.310229,-0.085191,67,276,585,6176
1644181828.704538,-0.007507,0.009094,-0.990234,0.205588,0.279695,-0.100458,42,270,589,6160
1644181828.752934,-0.009155,0.007202,-0.990662,0.068183,0.417099,0.113282,49,275,586,6192
1644181828.801913,-0.007996,0.009644,-0.993164,0.236122,0.279695,-0.237863,53,281,592,6128
1644181828.852721,-0.00946,0.009216,-0.992676,0.159786,0.356031,-0.039389,46,279,580,6160
1644181828.903494,-0.009644,0.009033,-0.994629,0.342992,0.340763,-0.192061,57,270,593,6176
1644181828.948317,-0.010803,0.008728,-0.990417,0.175053,0.523969,-0.085191,38,287,584,6128
1644181829.043346,-0.009827,0.009644,-0.993408,0.373527,0.462901,-0.25313,47,273,591,6160
1644181829.093643,-0.010132,0.007324,-0.992493,0.220855,0.401832,-0.100458,52,282,591,6176
1644181829.140124,-0.009583,0.007874,-0.990906,0.419328,0.340763,-0.14626,52,282,586,6128
1644181829.188474,-0.00885,0.010559,-0.993713,0.113985,0.264427,-0.130992,54,275,584,6128
1644181829.236859,-0.00647,0.007996,-0.990784,0.205588,0.493435,-0.054656,47,275,582,6256
1644181829.285228,-0.009521,0.008545,-0.992249,0.190321,0.493435,-0.115725,59,280,582,6128
1644181829.333657,-0.009949,0.010193,-0.992432,0.08345,0.432366,0.021679,46,276,592,6128
1644181829.382047,-0.006714,0.008545,-0.993591,0.236122,0.417099,-0.130992,51,266,583,6192
1644181829.430444,-0.010437,0.010071,-0.99115,0.159786,0.386565,-0.069924,48,276,583,6128
1644181829.478825,-0.010742,0.008606,-0.992615,0.159786,0.340763,-0.130992,51,276,585,6224
1644181829.527235,-0.011963,0.008179,-0.991211,0.266656,0.356031,-0.008855,52,285,577,6192
1644181829.575614,-0.010132,0.008057,-0.99353,0.205588,0.325496,-0.161527,45,280,582,6080
1644181829.624021,-0.007812,0.012512,-0.991638,0.236122,0.24916,-0.14626,48,274,587,6176
1644181829.672424,-0.008423,0.008057,-0.990784,0.175053,0.462901,-0.176794,51,283,590,6128
1644181829.720793,-0.011047,0.01062,-0.993774,0.251389,0.508702,0.021679,43,288,592,6192
1644181829.769183,-0.009338,0.009644,-0.992065,0.266656,0.310229,-0.130992,42,280,589,6160
1644181829.817576,-0.008972,0.007446,-0.991821,0.388794,0.371298,-0.115725,47,270,584,6160
1644181829.867398,-0.009766,0.007812,-0.990967,0.251389,0.447634,-0.130992,51,281,583,6192
1644181829.917165,-0.005981,0.006714,-0.990601,0.08345,0.508702,-0.130992,55,276,580,6224
1644181829.967516,-0.007263,0.007568,-0.991089,0.205588,0.478168,-0.161527,54,277,577,6176
1644181830.07491,-0.006592,0.011108,-0.991516,0.068183,0.462901,-0.192061,45,263,586,6192
1644181830.110845,-0.009827,0.00824,-0.990784,0.159786,0.264427,-0.100458,49,280,584,6224
1644181830.156341,-0.011108,0.007568,-0.991455,0.404061,0.340763,-0.069924,46,276,578,6128
1644181830.204741,-0.007629,0.009155,-0.991211,0.052916,0.356031,-0.192061,53,271,592,6160
1644181830.25314,-0.011414,0.011169,-0.992188,0.159786,0.386565,-0.069924,46,274,585,6160
1644181830.301522,-0.009216,0.011597,-0.989746,0.266656,0.417099,-0.161527,55,281,587,6160
1644181830.349898,-0.007874,0.010681,-0.992249,0.297191,0.417099,-0.14626,35,280,593,6160
1644181830.398309,-0.009216,0.011658,-0.992432,0.113985,0.386565,-0.130992,49,280,591,6224
1644181830.446684,-0.006226,0.008484,-0.989868,0.159786,0.386565,-0.069924,47,285,591,6080
1644181830.495125,-0.00769,0.013367,-0.99054,0.144519,0.371298,-0.008855,38,285,579,6080
1644181830.543482,-0.010803,0.010193,-0.992859,0.022382,0.340763,-0.024122,46,269,583,6160
1644181830.592151,-0.008972,0.009766,-0.991882,0.327725,0.386565,-0.130992,58,283,583,6192
1644181830.642689,-0.009766,0.011169,-0.991211,0.205588,0.386565,-0.207328,52,277,593,6160
1644181830.692974,-0.008667,0.011963,-0.99353,0.220855,0.340763,-0.024122,54,265,598,6192
1644181830.737843,-0.010803,0.008484,-0.992065,0.144519,0.340763,-0.085191,46,274,583,6080
1644181830.833811,-0.009155,0.00769,-0.990906,0.205588,0.523969,-0.054656,45,280,586,6128
1644181830.882435,-0.010681,0.011902,-0.993835,0.404061,0.279695,-0.115725,43,274,580,6160
1644181830.930655,-0.009399,0.007874,-0.995178,0.175053,0.447634,-0.207328,42,277,586,6160
1644181830.979016,-0.008118,0.01178,-0.992737,0.236122,0.371298,-0.14626,54,280,575,6176
1644181831.027444,-0.007874,0.010376,-0.990906,0.052916,0.554504,0.036947,49,277,589,6128
1644181831.076847,-0.007141,0.011658,-0.99115,0.404061,0.493435,-0.130992,60,281,578,6192
1644181831.124269,-0.010437,0.009033,-0.991699,0.098718,0.417099,-0.039389,53,274,573,6176
1644181831.172606,-0.011719,0.008911,-0.991943,0.312458,0.523969,-0.14626,54,282,579,6112
1644181831.221023,-0.010925,0.009094,-0.992676,0.175053,0.325496,-0.100458,46,286,583,6112
1644181831.269372,-0.009094,0.009033,-0.988953,0.205588,0.371298,-0.115725,54,275,589,6176
1644181831.317772,-0.007141,0.008728,-0.989624,0.175053,0.539237,-0.176794,47,277,582,6176
1644181831.366153,-0.005066,0.011536,-0.992004,0.129252,0.188092,0.036947,46,281,587,6224
1644181831.414717,-0.009216,0.010864,-0.99231,0.236122,0.478168,-0.192061,48,279,583,6176
1644181831.462999,-0.008423,0.008667,-0.992554,0.236122,0.340763,-0.207328,53,279,583,6080
1644181831.511372,-0.009888,0.008423,-0.989319,0.220855,0.294962,0.052214,47,280,579,6160
1644181831.559762,-0.008911,0.009766,-0.993774,0.236122,0.356031,-0.069924,52,285,589,6160
1644181831.60816,-0.006714,0.008972,-0.991821,0.220855,0.432366,-0.14626,45,277,593,6128
1644181831.656878,-0.009277,0.012268,-0.990173,0.129252,0.508702,-0.085191,45,268,593,6176
1644181831.704975,-0.007629,0.00885,-0.990662,0.297191,0.371298,-0.100458,47,275,582,6176
1644181831.754743,-0.008118,0.010803,-0.992798,0.297191,0.417099,-0.14626,48,274,576,6128
1644181831.804888,-0.00946,0.011414,-0.993958,0.159786,0.478168,-0.207328,48,283,585,6176
1644181831.855213,-0.006104,0.009094,-0.989075,0.175053,0.340763,-0.069924,41,281,578,6080
1644181831.899856,-0.006775,0.009705,-0.991455,0.159786,0.356031,-0.115725,48,274,587,6160
1644181831.995457,-0.009583,0.012756,-0.991577,0.236122,0.264427,-0.008855,52,273,596,6240
1644181832.043694,-0.009033,0.010925,-0.994324,0.220855,0.401832,0.052214,45,282,586,6128
1644181832.096148,-0.009766,0.007568,-0.991516,0.404061,0.325496,-0.237863,52,277,572,6192
1644181832.140462,-0.009277,0.00824,-0.990295,0.312458,0.401832,-0.039389,46,279,585,6160
1644181832.188839,-0.007385,0.009338,-0.991821,0.113985,0.523969,-0.176794,48,279,578,6160
1644181832.237245,-0.008179,0.009399,-0.989807,0.419328,0.432366,-0.130992,42,275,582,6128
1644181832.28562,-0.01062,0.008667,-0.991211,0.312458,0.340763,-0.115725,54,275,579,6160
1644181832.334024,-0.007385,0.011169,-0.99231,0.113985,0.447634,-0.115725,47,270,582,6192
1644181832.382434,-0.009705,0.009155,-0.992371,0.312458,0.401832,-0.161527,47,270,570,6128
1644181832.430816,-0.011475,0.009338,-0.994202,0.281924,0.356031,-0.085191,38,285,589,6160
1644181832.47923,-0.009155,0.009277,-0.994141,0.205588,0.478168,-0.100458,57,277,579,6224
1644181832.527619,-0.011108,0.007446,-0.993225,0.312458,0.432366,-0.130992,39,276,576,6224
1644181832.576011,-0.009338,0.007141,-0.993469,0.236122,0.294962,-0.14626,52,260,579,6240
1644181832.624414,-0.009521,0.00885,-0.990784,0.312458,0.401832,-0.085191,55,274,594,6112
1644181832.672811,-0.008667,0.009949,-0.990356,0.098718,0.325496,-0.192061,52,282,586,6240
1644181832.72119,-0.008789,0.008667,-0.99231,0.205588,0.386565,-0.008855,46,274,585,6176
1644181832.769615,-0.008667,0.007263,-0.992004,0.129252,0.615573,0.036947,52,287,591,6192
1644181832.818185,-0.007385,0.010071,-0.992615,0.220855,0.325496,-0.237863,48,271,583,6176
1644181832.869074,-0.010803,0.005493,-0.990479,0.342992,0.523969,-0.176794,49,277,586,6224
1644181832.918901,-0.010254,0.010254,-0.991394,0.129252,0.386565,-0.14626,52,282,584,6128
1644181832.963209,-0.008362,0.007507,-0.990784,0.159786,0.508702,-0.039389,42,282,593,6112
1644181833.070757,-0.011475,0.008606,-0.993591,0.190321,0.523969,-0.25313,51,286,594,6224
1644181833.108926,-0.009399,0.007324,-0.988098,0.281924,0.585038,-0.008855,45,275,586,6224
1644181833.156672,-0.009155,0.009338,-0.992737,0.297191,0.340763,0.006412,53,279,578,6128
1644181833.205186,-0.00647,0.011475,-0.993347,0.205588,0.371298,-0.14626,34,276,578,6080
1644181833.253469,-0.009644,0.008728,-0.993225,0.175053,0.386565,-0.115725,55,283,583,6160
1644181833.301852,-0.011108,0.009583,-0.990479,0.129252,0.569771,-0.115725,47,277,586,6160
1644181833.35021,-0.010071,0.009827,-0.988159,0.098718,0.523969,-0.085191,43,266,594,6160
1644181833.398651,-0.006958,0.009644,-0.992981,0.297191,0.371298,-0.14626,52,277,589,6240
1644181833.447042,-0.007263,0.010742,-0.992676,0.236122,0.386565,-0.085191,51,286,583,6160
1644181833.495434,-0.008423,0.010559,-0.992004,0.281924,0.386565,-0.237863,41,269,592,6128
1644181833.543818,-0.010132,0.010254,-0.995178,0.251389,0.523969,-0.100458,54,280,579,6160
1644181833.592245,-0.010498,0.009705,-0.989746,0.205588,0.325496,-0.130992,53,283,583,6160
1644181833.64207,-0.01062,0.008118,-0.993774,0.190321,0.432366,-0.130992,39,286,578,6112
1644181833.692474,-0.00946,0.010132,-0.990906,0.190321,0.356031,-0.085191,45,285,589,6224
1644181833.737426,-0.006653,0.007629,-0.992859,0.251389,0.447634,-0.024122,45,265,584,6160
1644181833.83424,-0.008423,0.008972,-0.990356,0.35826,0.478168,-0.069924,54,280,577,6160
1644181833.882615,-0.009827,0.009766,-0.989868,0.144519,0.539237,-0.222595,43,286,583,6080
1644181833.930971,-0.011414,0.009277,-0.993042,0.205588,0.447634,0.021679,42,273,572,6112
1644181833.979367,-0.009338,0.010132,-0.995483,0.220855,0.371298,-0.085191,55,283,573,6160
1644181834.027758,-0.00415,0.009155,-0.990662,0.205588,0.310229,-0.054656,48,281,576,6176
1644181834.076229,-0.007996,0.006958,-0.99292,0.144519,0.417099,-0.14626,45,275,589,6128
1644181834.124919,-0.009705,0.010864,-0.99231,0.129252,0.523969,-0.085191,53,269,576,6128
1644181834.17294,-0.009521,0.009216,-0.989136,0.236122,0.63084,-0.130992,52,280,577,6192
1644181834.221318,-0.009766,0.004395,-0.994141,0.144519,0.417099,-0.100458,49,287,584,6160
1644181834.269707,-0.009216,0.010071,-0.992981,0.236122,0.386565,-0.100458,54,275,589,6176
1644181834.318112,-0.00769,0.008484,-0.991211,0.404061,0.356031,0.036947,49,282,593,6176
1644181834.366503,-0.008911,0.00946,-0.992432,0.281924,0.478168,-0.192061,51,274,576,6160
1644181834.414909,-0.006531,0.011475,-0.992249,0.159786,0.417099,-0.268397,46,279,587,6128
1644181834.463289,-0.009216,0.010925,-0.991821,0.190321,0.447634,-0.161527,42,277,586,6128
1644181834.511656,-0.008179,0.01001,-0.991882,0.113985,0.447634,-0.085191,43,269,580,6160
1644181834.56007,-0.011047,0.009399,-0.991516,0.175053,0.554504,-0.100458,36,276,599,6128
1644181834.608429,-0.009033,0.010071,-0.992676,0.159786,0.508702,-0.024122,53,279,583,6160
1644181834.656862,-0.009216,0.010132,-0.992798,0.266656,0.462901,-0.039389,54,282,589,6192
1644181834.705229,-0.008301,0.01123,-0.992554,0.251389,0.386565,-0.115725,54,273,582,6192
1644181834.754351,-0.00708,0.009277,-0.991699,0.113985,0.340763,-0.222595,48,276,578,6176
1644181834.804435,-0.010315,0.008179,-0.991272,0.175053,0.523969,-0.115725,46,274,576,6080
1644181834.855829,-0.007568,0.010742,-0.994873,0.205588,0.340763,0.052214,49,280,582,6176
1644181834.90006,-0.011414,0.01001,-0.991638,0.404061,0.310229,-0.25313,54,282,575,6112
1644181834.995633,-0.010559,0.009644,-0.990601,0.08345,0.233893,-0.054656,57,285,589,6176
1644181835.044026,-0.007935,0.009033,-0.992981,0.251389,0.447634,-0.085191,49,287,584,6128
1644181835.092485,-0.010742,0.008545,-0.993225,0.190321,0.478168,-0.024122,48,283,599,6160
1644181835.140809,-0.008911,0.010254,-0.993896,0.175053,0.371298,-0.161527,54,273,582,6080
1644181835.189164,-0.00708,0.00946,-0.990173,0.297191,0.447634,-0.192061,55,274,585,6192
1644181835.237536,-0.00946,0.009094,-0.991272,0.129252,0.401832,0.006412,54,275,589,6160
1644181835.285956,-0.009277,0.01239,-0.991882,0.144519,0.325496,-0.14626,47,285,572,6080
1644181835.334361,-0.006958,0.01001,-0.990967,0.037649,0.508702,-0.25313,52,280,584,6224
1644181835.382769,-0.008118,0.009766,-0.990051,0.266656,0.539237,0.098015,49,273,579,6128
1644181835.431151,-0.008301,0.010742,-0.991882,0.266656,0.401832,-0.176794,36,276,585,6128
1644181835.479536,-0.008179,0.008118,-0.991699,0.144519,0.401832,-0.100458,55,276,580,6128
1644181835.52793,-0.009338,0.007996,-0.991821,0.327725,0.417099,-0.069924,54,282,589,6160
1644181835.576319,-0.011108,0.010742,-0.994568,0.236122,0.401832,-0.14626,52,287,582,6224
1644181835.62472,-0.008789,0.010559,-0.99176,0.220855,0.508702,0.174351,42,280,586,6176
1644181835.673114,-0.010559,0.009216,-0.99115,0.388794,0.218626,-0.054656,47,260,586,6128
1644181835.721488,-0.007629,0.010559,-0.992249,0.113985,0.340763,-0.008855,61,280,579,6128
1644181835.769861,-0.005432,0.012085,-0.992676,0.251389,0.386565,-0.069924,57,275,586,6160
1644181835.818271,-0.010437,0.008728,-0.992065,0.251389,0.462901,-0.176794,45,275,572,6080
1644181835.867247,-0.006287,0.011597,-0.990112,0.220855,0.401832,-0.039389,48,281,576,6192
1644181835.917306,-0.009155,0.007507,-0.992859,0.205588,0.340763,-0.054656,42,273,582,6128
1644181835.96755,-0.008728,0.01123,-0.989868,0.251389,0.493435,-0.14626,53,276,587,6128
1644181836.074514,-0.006958,0.011292,-0.990417,0.190321,0.462901,0.006412,61,275,589,6192
1644181836.111214,-0.008545,0.009766,-0.991333,0.236122,0.432366,-0.085191,43,281,592,6128
1644181836.157032,-0.010437,0.008118,-0.992065,0.35826,0.371298,-0.14626,53,276,583,6240
1644181836.205421,-0.007446,0.008362,-0.990479,0.08345,0.539237,-0.024122,48,271,587,6128
1644181836.253828,-0.009338,0.011658,-0.992249,0.236122,0.356031,-0.100458,43,276,585,6224
1644181836.302236,-0.007141,0.01062,-0.991821,0.190321,0.447634,0.006412,49,280,582,6192
1644181836.350602,-0.008057,0.009216,-0.992188,0.251389,0.478168,-0.008855,46,283,583,6160
1644181836.398995,-0.011169,0.010254,-0.993103,0.190321,0.401832,-0.024122,45,282,605,6160
1644181836.447391,-0.008057,0.009644,-0.989929,0.327725,0.325496,-0.069924,48,271,592,6224
1644181836.495744,-0.01001,0.010681,-0.990845,0.113985,0.462901,-0.161527,42,282,582,6160
1644181836.544175,-0.00708,0.00708,-0.991882,0.220855,0.417099,-0.024122,55,276,578,6176
1644181836.592803,-0.008362,0.009583,-0.991821,0.251389,0.371298,-0.039389,46,276,578,6192
1644181836.641573,-0.009705,0.009705,-0.991211,0.205588,0.356031,-0.024122,52,270,582,6224
1644181836.692074,-0.007751,0.006775,-0.990417,0.297191,0.447634,-0.039389,43,276,592,6128
1644181836.742261,-0.010376,0.009399,-0.991699,0.297191,0.203359,-0.207328,58,274,590,6224
1644181836.787294,-0.007568,0.008484,-0.991943,0.220855,0.264427,-0.222595,48,281,580,6160
1644181836.882971,-0.006653,0.010864,-0.992188,0.159786,0.294962,-0.100458,45,277,582,6160
1644181836.93134,-0.011902,0.010803,-0.989502,0.251389,0.386565,-0.14626,45,280,582,6160
1644181836.979708,-0.006897,0.010559,-0.991394,0.144519,0.432366,-0.100458,65,283,580,6176
1644181837.028129,-0.011292,0.01001,-0.990173,0.251389,0.264427,-0.25313,46,274,583,6112
1644181837.076572,-0.004944,0.009949,-0.993469,0.175053,0.386565,-0.100458,46,279,597,6160
1644181837.12507,-0.00769,0.009888,-0.993225,0.251389,0.478168,-0.039389,43,274,587,6176
1644181837.173285,-0.009827,0.01001,-0.990845,0.190321,0.279695,-0.192061,53,279,576,6192
1644181837.221714,-0.00946,0.007935,-0.993591,0.190321,0.417099,-0.115725,48,274,587,6128
1644181837.270079,-0.007568,0.008667,-0.991821,0.205588,0.432366,-0.161527,46,279,590,6128
1644181837.318504,-0.007324,0.010315,-0.989868,0.251389,0.24916,-0.100458,43,279,580,6192
1644181837.366861,-0.004944,0.009216,-0.99054,0.159786,0.386565,-0.115725,54,268,589,6128
1644181837.415343,-0.008667,0.012024,-0.991211,0.35826,0.432366,-0.039389,57,282,584,6160
1644181837.463691,-0.009033,0.008606,-0.99292,0.297191,0.478168,-0.069924,42,268,589,6128
1644181837.512044,-0.008545,0.009583,-0.99176,0.236122,0.447634,-0.039389,52,282,582,6128
1644181837.560462,-0.010559,0.011597,-0.991333,0.251389,0.417099,-0.039389,45,290,586,6128
1644181837.608846,-0.009033,0.011047,-0.98822,0.342992,0.294962,-0.176794,48,281,597,6176
1644181837.657234,-0.008301,0.007996,-0.991089,0.236122,0.417099,-0.222595,58,288,587,6112
1644181837.705992,-0.01123,0.009888,-0.993958,0.220855,0.462901,-0.054656,49,263,589,6192
1644181837.754058,-0.009216,0.010132,-0.990662,0.327725,0.356031,-0.161527,58,279,583,6080
1644181837.804397,-0.009216,0.007324,-0.992249,0.113985,0.508702,-0.161527,55,271,582,6112
1644181837.854767,-0.00885,0.009521,-0.991211,0.068183,0.447634,-0.161527,45,270,582,6128
1644181837.904769,-0.009155,0.009705,-0.994812,0.175053,0.325496,-0.14626,48,279,583,6160
1644181837.996007,-0.008057,0.010559,-0.990173,0.312458,0.356031,-0.130992,45,268,584,6176
1644181838.044381,-0.005127,0.009949,-0.990662,0.08345,0.310229,-0.054656,53,271,580,6048
1644181838.0928,-0.009399,0.012268,-0.991211,0.113985,0.371298,-0.130992,54,280,584,6192
1644181838.141172,-0.012512,0.010559,-0.992004,0.35826,0.417099,-0.192061,55,269,583,6128
1644181838.189523,-0.011169,0.007874,-0.994202,0.297191,0.462901,-0.054656,51,266,578,6160
1644181838.237955,-0.007874,0.007629,-0.99292,0.129252,0.279695,-0.069924,51,274,580,6160
1644181838.286325,-0.006348,0.010498,-0.991577,0.190321,0.279695,-0.14626,48,269,587,6160
1644181838.334718,-0.007141,0.009766,-0.993591,0.190321,0.417099,-0.115725,43,276,580,6176
1644181838.383146,-0.01001,0.012512,-0.990112,0.205588,0.401832,-0.100458,58,274,585,6128
1644181838.431523,-0.011047,0.005249,-0.992859,0.327725,0.462901,-0.054656,47,273,589,6160
1644181838.479922,-0.008484,0.008484,-0.991211,0.220855,0.356031,-0.14626,57,280,579,6176
1644181838.528306,-0.011108,0.010681,-0.99353,0.251389,0.340763,-0.130992,39,274,587,6112
1644181838.576696,-0.007385,0.009216,-0.98877,0.175053,0.508702,-0.115725,48,288,599,6176
1644181838.625124,-0.010864,0.010559,-0.992554,0.113985,0.279695,-0.054656,39,281,585,6176
1644181838.673479,-0.00647,0.011536,-0.991333,0.327725,0.371298,-0.085191,47,277,591,6080
1644181838.72188,-0.00647,0.006287,-0.989685,0.281924,0.478168,-0.054656,43,281,590,6176
1644181838.77027,-0.008606,0.009033,-0.991516,0.190321,0.401832,-0.085191,51,279,573,6176
1644181838.81904,-0.008423,0.009216,-0.991577,0.342992,0.554504,-0.207328,53,271,585,6160
1644181838.867509,-0.009766,0.013062,-0.994324,0.342992,0.447634,-0.085191,45,282,582,6128
1644181838.917037,-0.006348,0.008667,-0.990906,0.175053,0.401832,0.052214,46,279,585,6128
1644181838.967224,-0.009949,0.012756,-0.990417,0.068183,0.279695,-0.192061,53,279,592,6176
1644181839.070556,-0.009338,0.011475,-0.990479,0.220855,0.310229,-0.222595,48,288,583,6128
1644181839.110585,-0.010437,0.008728,-0.992615,0.297191,0.432366,-0.039389,58,269,590,6160
1644181839.157368,-0.010193,0.006592,-0.992126,0.190321,0.294962,-0.054656,48,279,580,6224
1644181839.205778,-0.010559,0.009216,-0.992859,0.266656,0.432366,-0.039389,49,285,589,6160
1644181839.254184,-0.010498,0.008484,-0.994446,0.205588,0.554504,-0.222595,45,270,591,6128
1644181839.302575,-0.010315,0.010803,-0.994934,0.342992,0.478168,-0.054656,53,274,585,6160
1644181839.350928,-0.009583,0.009644,-0.99292,0.342992,0.447634,-0.085191,45,277,582,6128
1644181839.399342,-0.007812,0.009644,-0.990723,0.159786,0.508702,-0.222595,53,276,585,6128
1644181839.447735,-0.00769,0.008789,-0.993652,0.159786,0.340763,-0.176794,43,283,583,6128
1644181839.496115,-0.009216,0.006226,-0.993958,0.205588,0.615573,-0.25313,55,276,576,6192
1644181839.54452,-0.009583,0.01123,-0.993652,0.236122,0.432366,0.052214,49,282,589,6176
1644181839.592934,-0.008789,0.008606,-0.989563,0.236122,0.340763,-0.100458,58,291,585,6112
1644181839.641268,-0.009705,0.011719,-0.992615,0.129252,0.417099,-0.069924,40,270,591,6080
1644181839.689695,-0.008484,0.00769,-0.990479,0.251389,0.417099,-0.130992,47,280,593,6176
1644181839.738241,-0.009705,0.00824,-0.993408,0.266656,0.371298,-0.14626,49,273,582,6224
1644181839.788735,-0.007751,0.008484,-0.991638,0.205588,0.310229,-0.024122,51,283,580,6176
1644181839.839174,-0.00946,0.00708,-0.992432,0.098718,0.432366,0.021679,57,265,586,6160
1644181839.884505,-0.007812,0.008789,-0.990845,0.312458,0.432366,-0.237863,54,275,598,6128
1644181839.980086,-0.007568,0.011047,-0.994324,0.159786,0.554504,-0.054656,55,281,578,6176
1644181840.028487,-0.008972,0.009033,-0.990601,0.236122,0.523969,-0.130992,40,270,586,6128
1644181840.077161,-0.008484,0.007935,-0.98999,0.08345,0.432366,-0.054656,53,279,585,6192
1644181840.125285,-0.010193,0.009155,-0.99231,0.068183,0.447634,0.006412,51,276,590,6128
1644181840.17363,-0.007629,0.007019,-0.993408,0.236122,0.356031,0.006412,53,281,583,6160
1644181840.222028,-0.009277,0.011475,-0.992554,0.113985,0.401832,0.006412,42,280,586,6224
1644181840.270714,-0.007019,0.010071,-0.995544,0.251389,0.371298,0.006412,45,280,586,6160
1644181840.318793,-0.011047,0.008423,-0.990295,0.236122,0.493435,-0.039389,48,279,583,6176
1644181840.367205,-0.008057,0.011292,-0.992981,0.220855,0.493435,-0.069924,40,273,596,6192
1644181840.415595,-0.008972,0.006714,-0.991272,0.190321,0.386565,-0.054656,59,268,579,6160
1644181840.463998,-0.010132,0.008789,-0.994812,0.205588,0.447634,-0.115725,60,286,590,6128
1644181840.512372,-0.011536,0.010498,-0.989929,0.35826,0.356031,-0.039389,45,285,591,6160
1644181840.560741,-0.010803,0.007751,-0.995056,0.297191,0.432366,0.021679,52,277,593,6224
1644181840.609161,-0.010437,0.007935,-0.993591,0.251389,0.371298,-0.054656,41,274,585,6128
1644181840.657556,-0.011047,0.007629,-0.990784,0.129252,0.417099,-0.100458,54,277,589,6128
1644181840.705941,-0.009338,0.010803,-0.993286,0.205588,0.325496,-0.100458,51,279,578,6224
1644181840.754477,-0.00946,0.011047,-0.993591,0.236122,0.462901,-0.054656,52,277,589,6176
1644181840.802793,-0.008972,0.009644,-0.994263,0.236122,0.554504,-0.039389,52,277,589,6176
1644181840.855371,-0.010315,0.009949,-0.992615,0.052916,0.325496,-0.024122,57,275,586,6240
1644181840.901033,-0.007812,0.008606,-0.990723,0.342992,0.585038,-0.14626,55,279,587,6160
1644181840.955463,-0.008301,0.008911,-0.992859,0.236122,0.371298,-0.115725,45,280,596,6128
1644181841.000372,-0.008484,0.009155,-0.994141,0.35826,0.340763,-0.008855,58,276,580,6176
1644181841.046051,-0.007446,0.011963,-0.990601,0.220855,0.539237,-0.085191,61,275,582,6160
1644181841.141576,-0.009766,0.013123,-0.993591,0.327725,0.371298,-0.207328,51,274,590,6160
1644181841.189854,-0.009216,0.01062,-0.991211,0.205588,0.417099,0.036947,46,276,590,6192
1644181841.238599,-0.007446,0.013184,-0.992065,0.190321,0.539237,-0.024122,57,268,582,6112
1644181841.288257,-0.007996,0.010559,-0.991333,0.190321,0.386565,-0.054656,51,276,585,6160
1644181841.335198,-0.006348,0.008301,-0.991882,0.190321,0.493435,0.098015,47,285,584,6176
1644181841.383482,-0.00885,0.00946,-0.992859,0.159786,0.508702,-0.100458,51,271,585,6176
1644181841.431878,-0.007568,0.010315,-0.993713,0.297191,0.508702,-0.100458,54,275,586,6192
1644181841.480189,-0.007629,0.009888,-0.992737,0.113985,0.478168,-0.115725,43,276,590,6080
1644181841.52855,-0.008179,0.009094,-0.992126,0.205588,0.340763,-0.100458,60,276,594,6128
1644181841.5772,-0.010559,0.012268,-0.992432,0.281924,0.417099,-0.039389,53,281,580,6176
1644181841.625395,-0.009888,0.008301,-0.995178,0.190321,0.371298,-0.222595,46,274,585,6128
1644181841.684896,-0.009094,0.009399,-0.991455,0.08345,0.294962,-0.222595,57,282,591,6128
1644181841.722318,-0.008484,0.01123,-0.990112,0.312458,0.340763,-0.024122,47,277,591,6128
1644181841.770592,-0.006592,0.013977,-0.989868,0.175053,0.417099,-0.008855,46,271,587,6128
1644181841.834072,-0.007812,0.012207,-0.993225,0.236122,0.294962,-0.054656,57,287,577,6128
1644181841.884101,-0.008301,0.01123,-0.992615,0.220855,0.432366,-0.100458,52,270,586,6160
1644181841.916072,-0.010376,0.006653,-0.990417,0.404061,0.508702,-0.222595,46,274,590,6080
1644181841.96431,-0.009277,0.007935,-0.99231,0.159786,0.401832,-0.008855,47,273,589,6240
1644181842.069911,-0.00824,0.010498,-0.993774,0.419328,0.371298,-0.161527,51,276,576,6160
1644181842.109287,-0.007629,0.010742,-0.990479,0.373527,0.478168,-0.024122,46,286,592,6160
1644181842.157711,-0.010315,0.00769,-0.993164,0.220855,0.218626,-0.054656,61,275,596,6128
1644181842.206139,-0.007935,0.009338,-0.992065,0.052916,0.356031,0.021679,52,268,586,6160
1644181842.254495,-0.011475,0.007874,-0.989868,0.129252,0.493435,-0.192061,45,277,577,6192
1644181842.302912,-0.009033,0.008911,-0.991333,0.46513,0.417099,0.021679,46,274,580,6160
1644181842.351292,-0.008728,0.00708,-0.990906,0.068183,0.462901,0.067481,47,280,586,6128
1644181842.399726,-0.00592,0.010132,-0.990967,0.175053,0.294962,-0.069924,49,277,591,6192
1644181842.448131,-0.008972,0.009277,-0.991577,-0.008153,0.371298,-0.115725,47,275,586,6176
1644181842.49652,-0.007141,0.008667,-0.994202,0.220855,0.417099,-0.054656,51,271,585,6192
1644181842.54488,-0.006531,0.008606,-0.989014,0.541466,0.401832,-0.085191,45,287,582,6176
1644181842.593307,-0.011658,0.008911,-0.992493,0.08345,0.462901,-0.192061,49,273,586,6176
1644181842.64169,-0.010254,0.009766,-0.994019,0.190321,0.340763,-0.039389,46,274,583,6176
1644181842.690108,-0.010986,0.008606,-0.993774,0.35826,0.310229,-0.008855,47,280,577,6160
1644181842.738711,-0.006348,0.009644,-0.990662,0.297191,0.356031,-0.054656,48,271,576,6112
1644181842.789131,-0.008606,0.011963,-0.991394,0.144519,0.386565,-0.268397,40,270,589,6128
1644181842.839892,-0.006958,0.010132,-0.991455,0.159786,0.340763,-0.039389,39,274,578,6128
1644181842.88395,-0.008972,0.008179,-0.993713,0.236122,0.462901,-0.008855,53,279,587,6160
1644181842.980466,-0.010071,0.007263,-0.992249,0.297191,0.371298,-0.054656,51,279,585,6160
1644181843.028858,-0.007446,0.008972,-0.990601,0.205588,0.371298,-0.161527,49,273,579,6128
1644181843.077269,-0.009766,0.011414,-0.993286,0.113985,0.340763,-0.039389,52,277,589,6176
1644181843.12556,-0.008179,0.011597,-0.990784,0.373527,0.386565,-0.176794,40,277,572,6224
1644181843.173986,-0.010742,0.007629,-0.992188,0.297191,0.432366,-0.115725,45,275,582,6192
1644181843.222384,-0.007263,0.010193,-0.99115,0.251389,0.462901,-0.192061,43,274,583,6160
1644181843.270757,-0.007385,0.009949,-0.991882,0.113985,0.340763,-0.039389,41,283,580,6176
1644181843.319158,-0.010315,0.010437,-0.992798,0.098718,0.371298,-0.054656,54,277,591,6128
1644181843.367548,-0.009705,0.008545,-0.991272,0.251389,0.447634,0.006412,46,283,585,6128
1644181843.415917,-0.009521,0.007751,-0.992065,0.281924,0.508702,-0.207328,59,280,586,6192
1644181843.464369,-0.011414,0.009644,-0.992065,0.159786,0.386565,-0.008855,58,276,566,6160
1644181843.512719,-0.008423,0.008789,-0.993896,0.022382,0.462901,-0.039389,60,271,590,6128
1644181843.561124,-0.009888,0.009277,-0.995972,0.251389,0.447634,-0.024122,45,277,589,6160
1644181843.609514,-0.009094,0.008789,-0.990601,0.052916,0.401832,-0.130992,48,279,587,6192
1644181843.657904,-0.010498,0.006897,-0.99353,0.175053,0.401832,-0.176794,52,277,575,6160
1644181843.706295,-0.006714,0.01123,-0.990112,0.281924,0.310229,-0.069924,52,273,584,6224
1644181843.755708,-0.010193,0.010193,-0.992065,0.190321,0.432366,0.082748,51,274,592,6192
1644181843.803144,-0.005676,0.009949,-0.993896,0.129252,0.417099,-0.100458,52,277,598,6080
1644181843.851548,-0.009644,0.010803,-0.990906,0.098718,0.356031,-0.008855,40,275,591,6128
1644181843.900802,-0.00769,0.007996,-0.990662,0.251389,0.386565,0.052214,55,264,580,6128
1644181843.950999,-0.007507,0.010315,-0.991516,0.129252,0.386565,-0.008855,43,271,576,6112
1644181844.001505,-0.010925,0.009949,-0.99231,0.266656,0.523969,-0.085191,43,276,585,6128
1644181844.0461,-0.009399,0.00647,-0.989624,0.205588,0.386565,-0.329466,51,276,585,6224
1644181844.141826,-0.008484,0.010681,-0.991455,0.175053,0.417099,-0.008855,59,277,593,6160
1644181844.190229,-0.007324,0.007874,-0.990112,0.113985,0.417099,-0.161527,47,280,582,6176
1644181844.238611,-0.010315,0.007812,-0.991882,0.129252,0.432366,-0.100458,57,273,582,6160
1644181844.286985,-0.006958,0.009949,-0.992737,0.266656,0.279695,-0.115725,38,277,584,6176
1644181844.335407,-0.008789,0.008118,-0.991821,0.190321,0.401832,-0.14626,47,282,593,6224
1644181844.3838,-0.009521,0.009033,-0.990906,0.205588,0.417099,-0.237863,49,280,582,6176
1644181844.432208,-0.008606,0.009644,-0.990295,0.098718,0.356031,-0.039389,53,274,585,6128
1644181844.480566,-0.007507,0.01062,-0.992554,0.113985,0.371298,-0.069924,41,271,571,6160
1644181844.528973,-0.008728,0.008484,-0.991455,0.342992,0.386565,-0.024122,54,275,579,6128
1644181844.577339,-0.010986,0.009033,-0.991638,0.052916,0.386565,-0.039389,48,281,587,6112
1644181844.625759,-0.005066,0.009705,-0.990234,0.281924,0.493435,-0.192061,49,280,582,6240
1644181844.674154,-0.005859,0.012939,-0.990845,0.220855,0.310229,0.052214,45,275,577,6224
1644181844.722559,-0.007446,0.008972,-0.992493,0.175053,0.356031,-0.039389,45,285,589,6160
1644181844.770935,-0.01062,0.008972,-0.992432,0.113985,0.356031,-0.100458,51,279,590,6224
1644181844.819374,-0.008911,0.008789,-0.993469,0.052916,0.310229,-0.222595,46,283,592,6160
1644181844.867762,-0.00946,0.008362,-0.990601,0.266656,0.294962,-0.024122,52,275,591,6160
1644181844.916137,-0.00769,0.009766,-0.99054,0.190321,0.478168,-0.054656,49,282,577,6256
1644181844.964627,-0.010498,0.007996,-0.98822,0.190321,0.508702,-0.054656,46,274,587,6160
1644181845.066674,-0.008728,0.009644,-0.992676,0.144519,0.447634,-0.100458,60,266,580,6240
1644181845.10966,-0.007996,0.010437,-0.991943,0.236122,0.447634,-0.054656,48,281,580,6176
1644181845.158066,-0.006897,0.009705,-0.991089,0.129252,0.340763,-0.130992,41,281,585,6240
1644181845.206471,-0.00946,0.007812,-0.994141,0.327725,0.432366,-0.298931,51,271,585,6160
1644181845.254847,-0.008728,0.007629,-0.990051,0.190321,0.386565,0.006412,52,275,584,6128
1644181845.303269,-0.009827,0.006714,-0.992493,0.266656,0.371298,-0.207328,47,277,582,6128
1644181845.351653,-0.008362,0.011108,-0.991577,0.159786,0.371298,-0.130992,47,280,589,6192
1644181845.400046,-0.008972,0.009827,-0.992004,0.220855,0.493435,-0.069924,51,276,594,6160
1644181845.44843,-0.010315,0.008606,-0.989685,0.281924,0.508702,-0.054656,47,280,582,6128
1644181845.496799,-0.009521,0.006897,-0.992126,0.205588,0.310229,-0.024122,57,270,593,6192
1644181845.545283,-0.010193,0.009338,-0.992004,0.007115,0.325496,-0.237863,45,270,584,6176
1644181845.593623,-0.008423,0.009399,-0.990356,0.159786,0.432366,-0.222595,48,269,580,6160
1644181845.642056,-0.011047,0.008911,-0.991882,0.190321,0.508702,-0.192061,51,279,580,6128
1644181845.690371,-0.007874,0.010681,-0.99054,0.113985,0.310229,-0.039389,49,280,582,6224
1644181845.738786,-0.008789,0.006897,-0.993591,0.144519,0.432366,-0.054656,46,276,585,6224
1644181845.787184,-0.008728,0.007996,-0.992126,0.373527,0.340763,-0.222595,35,285,589,6128
1644181845.835817,-0.008423,0.009949,-0.990967,0.266656,0.462901,-0.222595,57,275,579,6160
1644181845.88607,-0.005066,0.007751,-0.990112,0.175053,0.218626,-0.207328,49,270,579,6224
1644181845.93652,-0.010986,0.00769,-0.992615,0.190321,0.432366,-0.100458,46,279,580,6176
1644181845.986592,-0.005798,0.009888,-0.992981,0.312458,0.371298,0.021679,46,281,576,6192
1644181846.077642,-0.010132,0.010498,-0.993713,0.144519,0.325496,0.006412,43,274,585,6192
1644181846.125931,-0.010132,0.008789,-0.991394,0.175053,0.356031,0.098015,57,280,582,6112
1644181846.17432,-0.009766,0.010193,-0.992493,0.373527,0.493435,-0.237863,45,275,584,6176
1644181846.222733,-0.009277,0.010193,-0.99231,0.205588,0.279695,-0.192061,51,274,587,6160
1644181846.271097,-0.010864,0.011963,-0.991394,0.281924,0.432366,-0.375267,42,287,589,6176
1644181846.319503,-0.011658,0.010132,-0.991943,0.144519,0.386565,0.006412,42,273,591,6160
1644181846.367865,-0.006897,0.008057,-0.991272,0.190321,0.294962,-0.069924,51,279,590,6224
1644181846.416283,-0.009583,0.008118,-0.992188,0.159786,0.462901,-0.192061,53,266,585,6160
1644181846.46468,-0.009583,0.009216,-0.993225,0.113985,0.386565,-0.115725,53,279,592,6176
1644181846.513093,-0.010132,0.010132,-0.996338,0.098718,0.264427,0.021679,57,285,579,6176
1644181846.561465,-0.007751,0.01062,-0.99353,0.190321,0.493435,-0.207328,49,277,582,6176
1644181846.609869,-0.00946,0.010193,-0.995239,0.220855,0.493435,-0.161527,45,277,584,6256
1644181846.658251,-0.011963,0.008667,-0.992126,0.129252,0.371298,-0.192061,45,277,579,6160
1644181846.706645,-0.010864,0.010742,-0.991455,0.220855,0.386565,-0.161527,38,263,586,6176
1644181846.755083,-0.008545,0.010132,-0.993164,0.175053,0.432366,-0.268397,46,281,587,6224
1644181846.803438,-0.008179,0.007874,-0.991455,0.098718,0.417099,-0.100458,55,286,583,6240
1644181846.851872,-0.009766,0.009399,-0.991699,0.159786,0.432366,0.006412,43,271,580,6176
1644181846.900261,-0.007568,0.010498,-0.991333,0.220855,0.447634,-0.14626,39,279,573,6176
1644181846.948728,-0.008972,0.00885,-0.989441,0.327725,0.493435,0.021679,51,276,580,6160
1644181846.999194,-0.008667,0.011841,-0.991333,0.190321,0.279695,-0.024122,49,275,589,6224
1644181847.061047,-0.004456,0.011108,-0.991699,0.098718,0.386565,-0.085191,48,271,578,6160
1644181847.142715,-0.009277,0.009399,-0.991638,0.251389,0.478168,-0.039389,46,276,580,6160
1644181847.190568,-0.009644,0.009155,-0.991394,0.129252,0.325496,0.006412,53,274,573,6112
1644181847.238964,-0.00885,0.010864,-0.992432,0.266656,0.417099,-0.069924,49,273,579,6192
1644181847.287329,-0.008545,0.011597,-0.991699,0.175053,0.24916,0.036947,52,273,586,6128
1644181847.335749,-0.009521,0.009094,-0.992249,0.281924,0.294962,-0.008855,51,276,587,6160
1644181847.384144,-0.007751,0.009827,-0.992126,0.281924,0.432366,-0.161527,42,275,584,6128
1644181847.432555,-0.007019,0.006897,-0.994324,0.251389,0.279695,-0.100458,53,283,585,6160
1644181847.480926,-0.008972,0.009705,-0.991577,0.205588,0.386565,-0.085191,49,277,586,6192
1644181847.529323,-0.006348,0.007568,-0.992615,0.312458,0.386565,-0.100458,42,277,593,6176
1644181847.577716,-0.010071,0.01001,-0.995544,0.297191,0.401832,-0.100458,47,277,582,6112
1644181847.626103,-0.009155,0.006104,-0.991699,0.236122,0.508702,-0.039389,45,277,586,6112
1644181847.674522,-0.008911,0.009827,-0.991516,0.205588,0.447634,-0.161527,48,279,585,6080
1644181847.722919,-0.007446,0.009888,-0.991333,0.159786,0.325496,-0.115725,42,277,584,6064
1644181847.771286,-0.008118,0.010437,-0.992737,0.251389,0.371298,-0.298931,43,276,592,6160
1644181847.819679,-0.01123,0.010986,-0.991455,0.175053,0.523969,0.021679,42,282,579,6192
1644181847.868072,-0.008789,0.010437,-0.993652,0.159786,0.310229,-0.100458,51,283,592,6192
1644181847.916501,-0.009399,0.010376,-0.990662,0.297191,0.478168,-0.130992,49,273,586,6160
1644181847.965311,-0.009338,0.010315,-0.992004,0.342992,0.371298,-0.130992,51,279,590,6160
1644181848.068789,-0.006897,0.009644,-0.992371,0.205588,0.447634,-0.100458,46,271,580,6128
1644181848.110063,-0.010986,0.008667,-0.987671,0.113985,0.386565,-0.069924,55,276,592,6160
1644181848.158445,-0.01001,0.011353,-0.99353,0.190321,0.539237,0.036947,55,281,573,6176
1644181848.206816,-0.006897,0.008972,-0.992615,0.205588,0.478168,-0.130992,42,285,584,6176
1644181848.255273,-0.009705,0.010681,-0.991821,0.281924,0.264427,0.021679,51,281,594,6192
1644181848.303602,-0.006592,0.008423,-0.992065,0.281924,0.386565,-0.115725,51,279,580,6176
1644181848.351986,-0.011536,0.007935,-0.992554,0.08345,0.325496,-0.100458,53,276,583,6176
1644181848.400376,-0.00769,0.01123,-0.993286,0.236122,0.462901,-0.207328,47,273,584,6160
1644181848.448784,-0.007629,0.009521,-0.992676,0.190321,0.478168,-0.192061,51,281,585,6160
1644181848.497176,-0.009705,0.006714,-0.992798,0.159786,0.417099,-0.161527,47,280,579,6176
1644181848.545573,-0.009521,0.008423,-0.995056,0.388794,0.432366,-0.008855,45,277,586,6160
1644181848.593966,-0.005798,0.010986,-0.991455,0.205588,0.356031,0.006412,54,282,582,6176
1644181848.642366,-0.007874,0.007385,-0.991272,0.052916,0.310229,-0.176794,41,279,583,6176
1644181848.690741,-0.007141,0.008606,-0.991821,0.251389,0.401832,-0.14626,52,285,586,6176
1644181848.739133,-0.007324,0.009705,-0.993835,0.327725,0.661374,-0.130992,54,277,577,6176
1644181848.787521,-0.011536,0.009766,-0.990906,0.266656,0.478168,-0.039389,54,275,591,6112
1644181848.837554,-0.007507,0.00885,-0.992798,0.129252,0.233893,-0.024122,46,271,580,6224
1644181848.888282,-0.007568,0.009644,-0.990601,0.327725,0.478168,0.006412,40,282,579,6112
1644181848.93343,-0.008423,0.010925,-0.989868,0.144519,0.24916,-0.176794,47,282,579,6128
1644181849.029537,-0.010254,0.01123,-0.992249,0.342992,0.508702,-0.100458,46,269,585,6128
1644181849.078239,-0.006775,0.00885,-0.993164,0.098718,0.462901,-0.100458,49,270,591,6080
1644181849.126237,-0.006348,0.009338,-0.993164,0.205588,0.401832,-0.054656,57,292,593,6240
1644181849.174865,-0.013184,0.007874,-0.992798,0.113985,0.294962,0.021679,47,280,584,6112
1644181849.223063,-0.008362,0.009094,-0.991699,0.098718,0.371298,-0.024122,35,275,582,6112
1644181849.271467,-0.008728,0.008667,-0.990356,0.312458,0.447634,-0.054656,49,273,584,6224
1644181849.319821,-0.008545,0.009644,-0.990234,0.281924,0.356031,-0.085191,53,288,580,6192
1644181849.368241,-0.007751,0.006836,-0.992126,0.297191,0.386565,-0.115725,48,279,585,6080
1644181849.41663,-0.008606,0.010803,-0.99231,0.205588,0.279695,0.006412,48,266,580,6176
1644181849.465145,-0.007385,0.010376,-0.989685,0.068183,0.356031,-0.192061,47,275,584,6224
1644181849.513422,-0.00769,0.014587,-0.992249,0.251389,0.478168,-0.008855,52,275,584,6192
1644181849.561825,-0.008301,0.008423,-0.990234,0.251389,0.523969,-0.268397,54,280,586,6192
1644181849.610202,-0.011169,0.010925,-0.991272,0.129252,0.294962,-0.176794,52,282,582,6112
1644181849.658597,-0.004089,0.012634,-0.990662,0.236122,0.417099,-0.039389,46,269,590,6160
1644181849.706996,-0.010193,0.005493,-0.990112,0.068183,0.508702,-0.100458,45,277,582,6176
1644181849.755405,-0.010559,0.008728,-0.992493,0.159786,0.432366,-0.039389,58,269,583,6176
1644181849.803821,-0.01001,0.00769,-0.99054,0.220855,0.508702,0.036947,51,281,590,6192
1644181849.852215,-0.006897,0.010193,-0.993896,0.297191,0.325496,-0.161527,43,283,590,6128
1644181849.900611,-0.009277,0.008362,-0.992493,0.266656,0.401832,-0.054656,52,277,596,6176
1644181849.950099,-0.005127,0.006348,-0.992676,0.266656,0.478168,-0.176794,47,273,591,6224
1644181850.000609,-0.012451,0.010254,-0.988464,0.113985,0.432366,-0.085191,53,279,590,6112
1644181850.096578,-0.005859,0.010132,-0.992065,0.159786,0.340763,-0.130992,45,280,582,6176
1644181850.142558,-0.008789,0.008789,-0.988281,0.281924,0.417099,-0.283664,52,277,572,6080
1644181850.190917,-0.006226,0.007446,-0.991089,0.205588,0.386565,0.052214,45,277,575,6160
1644181850.239319,-0.006897,0.008911,-0.991577,-0.038687,0.417099,-0.039389,52,268,579,6176
1644181850.287671,-0.00824,0.009949,-0.990417,0.129252,0.340763,-0.039389,49,277,575,6176
1644181850.336091,-0.009583,0.009521,-0.993774,0.190321,0.340763,-0.085191,48,271,580,6192
1644181850.3845,-0.008423,0.008423,-0.989929,0.113985,0.432366,-0.069924,48,281,585,6128
1644181850.432912,-0.006592,0.008179,-0.991211,0.190321,0.478168,0.082748,47,282,591,6160
1644181850.481279,-0.009949,0.009338,-0.99353,0.113985,0.401832,-0.207328,46,274,580,6112
1644181850.529677,-0.010376,0.011536,-0.992493,0.266656,0.447634,-0.069924,49,273,584,6192
1644181850.578066,-0.010498,0.009338,-0.989685,0.236122,0.386565,-0.085191,54,270,589,6176
1644181850.626453,-0.010376,0.00708,-0.99408,0.175053,0.401832,-0.14626,49,280,586,6160
1644181850.674869,-0.009644,0.013245,-0.990784,0.129252,0.432366,-0.085191,53,276,578,6160
1644181850.723233,-0.009155,0.008484,-0.991455,0.144519,0.325496,-0.176794,48,274,590,6176
1644181850.771599,-0.009827,0.009888,-0.991516,0.129252,0.401832,-0.222595,43,279,592,6160
1644181850.820065,-0.008789,0.006836,-0.994141,0.419328,0.432366,0.052214,49,268,593,6128
1644181850.868753,-0.008057,0.010193,-0.995422,0.175053,0.386565,-0.115725,53,281,585,6128
1644181850.916864,-0.010254,0.011047,-0.99353,0.159786,0.432366,-0.054656,60,269,580,6192
1644181850.966438,-0.005432,0.006775,-0.990906,0.342992,0.478168,0.006412,47,277,586,6224
1644181851.070918,-0.010132,0.009094,-0.990295,0.327725,0.386565,-0.176794,52,268,584,6224
1644181851.112026,-0.007751,0.008911,-0.99115,0.327725,0.325496,-0.314198,65,276,590,6192
1644181851.15878,-0.008118,0.009827,-0.992554,0.190321,0.310229,-0.054656,39,276,578,6160
1644181851.207141,-0.009155,0.009827,-0.992004,0.220855,0.264427,-0.115725,51,269,592,6176
1644181851.255559,-0.010376,0.00885,-0.991333,0.297191,0.417099,-0.100458,45,277,577,6192
1644181851.303947,-0.010437,0.007629,-0.993408,0.236122,0.371298,0.052214,36,283,590,6176
1644181851.35236,-0.012207,0.010376,-0.992676,0.129252,0.401832,-0.130992,48,271,590,6240
1644181851.400742,-0.01123,0.008057,-0.991272,0.159786,0.340763,0.036947,51,279,590,6112
1644181851.449139,-0.010132,0.010254,-0.990173,0.205588,0.340763,0.067481,47,287,582,6160
1644181851.497528,-0.006042,0.009338,-0.991638,0.205588,0.401832,-0.085191,54,273,584,6160
1644181851.545917,-0.008667,0.008545,-0.992188,0.159786,0.310229,-0.130992,55,281,592,6160
1644181851.594635,-0.01001,0.010681,-0.989685,0.220855,0.340763,-0.115725,46,274,573,6192
1644181851.643836,-0.009705,0.009949,-0.992249,0.297191,0.371298,-0.054656,58,279,580,6192
1644181851.694133,-0.008545,0.011536,-0.990356,0.159786,0.493435,-0.161527,51,283,580,6160
1644181851.744464,-0.00769,0.01001,-0.989685,0.08345,0.371298,0.021679,41,279,587,6192
1644181851.836288,-0.009094,0.010376,-0.992371,0.175053,0.432366,-0.115725,49,282,572,6224
1644181851.884893,-0.007996,0.009399,-0.992432,0.190321,0.462901,-0.085191,47,270,575,6128
1644181851.933086,-0.009155,0.008484,-0.991211,0.190321,0.401832,-0.237863,57,277,584,6176
1644181851.981479,-0.008911,0.007812,-0.99115,0.144519,0.432366,-0.024122,49,275,584,6128
1644181852.029881,-0.007935,0.008301,-0.99115,0.266656,0.478168,-0.14626,57,277,577,6176
1644181852.07831,-0.007751,0.008301,-0.990479,0.266656,0.279695,-0.008855,49,275,591,6128
1644181852.126674,-0.006531,0.008545,-0.993225,0.220855,0.432366,0.006412,48,279,580,6176
1644181852.175061,-0.009094,0.009155,-0.991638,0.159786,0.600305,-0.008855,57,270,586,6080
1644181852.223419,-0.011047,0.010376,-0.992615,0.404061,0.279695,-0.085191,43,281,587,6176
1644181852.271807,-0.010132,0.012573,-0.989197,0.236122,0.447634,-0.14626,54,285,579,6192
1644181852.320176,-0.01062,0.00946,-0.990662,0.236122,0.554504,-0.192061,51,286,587,6176
1644181852.368598,-0.010559,0.011047,-0.990784,0.190321,0.310229,0.006412,60,274,583,6160
1644181852.416987,-0.009094,0.008911,-0.990479,0.190321,0.371298,-0.039389,55,271,578,6224
1644181852.465375,-0.006226,0.008728,-0.98999,0.312458,0.371298,0.021679,46,281,590,6160
1644181852.513781,-0.01001,0.007629,-0.990967,0.205588,0.401832,-0.054656,48,274,590,6160
1644181852.562176,-0.008484,0.009766,-0.991516,0.373527,0.600305,-0.069924,58,271,573,6160
1644181852.610561,-0.008362,0.008362,-0.993042,0.297191,0.371298,-0.14626,54,270,598,6224
1644181852.658938,-0.005188,0.01239,-0.991577,0.098718,0.478168,-0.054656,52,275,579,6176
1644181852.707311,-0.008118,0.009094,-0.994568,0.175053,0.310229,-0.176794,51,274,590,6224
1644181852.756123,-0.01062,0.009583,-0.991943,0.220855,0.310229,-0.161527,57,285,591,6128
1644181852.80654,-0.011047,0.011963,-0.992432,0.281924,0.325496,-0.161527,46,271,590,6128
1644181852.85694,-0.010193,0.009216,-0.992798,0.129252,0.417099,-0.192061,47,280,586,6128
1644181852.902182,-0.009155,0.011353,-0.990906,0.236122,0.523969,-0.069924,46,271,578,6160
1644181852.997744,-0.009033,0.010559,-0.993286,0.205588,0.294962,-0.25313,45,287,593,6160
1644181853.046111,-0.010071,0.008179,-0.992554,0.144519,0.386565,-0.130992,54,268,589,6224
1644181853.095426,-0.008667,0.011902,-0.99231,0.327725,0.508702,-0.085191,47,270,584,6112
1644181853.142934,-0.009155,0.009399,-0.994324,-0.115023,0.447634,0.052214,52,273,582,6192
1644181853.191278,-0.01001,0.007996,-0.994141,0.297191,0.478168,-0.222595,49,263,591,6224
1644181853.239658,-0.010315,0.012085,-0.990417,0.098718,0.401832,-0.115725,45,282,600,6160
1644181853.288023,-0.007446,0.008728,-0.992676,0.113985,0.569771,-0.115725,43,276,580,6048
1644181853.336447,-0.008606,0.00885,-0.995361,0.098718,0.417099,-0.100458,48,271,571,6192
1644181853.384862,-0.00769,0.008484,-0.992188,0.129252,0.401832,-0.008855,55,276,576,6160
1644181853.433252,-0.007996,0.009033,-0.991821,0.297191,0.340763,-0.039389,52,273,586,6224
1644181853.481628,-0.00708,0.009216,-0.990112,0.113985,0.356031,-0.039389,49,275,579,6128
1644181853.530024,-0.009399,0.009583,-0.992554,0.281924,0.233893,-0.115725,51,276,578,6176
1644181853.578441,-0.009949,0.008667,-0.992554,0.220855,0.386565,-0.130992,55,276,583,6192
1644181853.626783,-0.010437,0.007629,-0.993225,0.175053,0.294962,-0.115725,60,276,578,6160
1644181853.675195,-0.009705,0.007324,-0.99408,0.220855,0.432366,0.006412,58,276,583,6128
1644181853.723585,-0.009949,0.009155,-0.99292,0.220855,0.264427,-0.085191,51,271,585,6176
1644181853.771973,-0.010315,0.007996,-0.990417,0.098718,0.417099,-0.283664,39,286,576,6128
1644181853.820388,-0.009644,0.010559,-0.992371,0.297191,0.310229,0.067481,40,282,584,6192
1644181853.871685,-0.006775,0.010742,-0.993347,0.205588,0.539237,-0.024122,47,273,582,6160
1644181853.921346,-0.009827,0.007996,-0.992981,0.251389,0.478168,-0.207328,43,274,587,6176
1644181853.965891,-0.004944,0.011597,-0.99115,0.068183,0.310229,-0.100458,43,281,585,6160
1644181854.069627,-0.007996,0.011108,-0.993164,0.281924,0.478168,-0.100458,51,288,590,6160
1644181854.110753,-0.009277,0.007202,-0.991699,0.342992,0.340763,-0.192061,45,268,586,6160
1644181854.159159,-0.010437,0.008728,-0.992981,0.251389,0.356031,0.082748,43,286,580,6160
1644181854.20751,-0.008972,0.007324,-0.991028,0.190321,0.356031,-0.14626,49,282,584,6160
1644181854.255875,-0.00824,0.011719,-0.991882,0.113985,0.478168,-0.008855,62,262,583,6160
1644181854.304299,-0.011108,0.009705,-0.995178,0.159786,0.294962,-0.069924,54,287,572,6176
1644181854.352681,-0.00769,0.009094,-0.991455,0.220855,0.417099,-0.222595,46,274,571,6224
1644181854.401081,-0.010376,0.008728,-0.991638,0.266656,0.401832,0.006412,47,275,589,6128
1644181854.449472,-0.011292,0.007996,-0.990479,0.220855,0.417099,-0.085191,43,279,592,6176
1644181854.497886,-0.005554,0.009521,-0.994629,0.205588,0.401832,-0.100458,53,274,590,6128
1644181854.546264,-0.008667,0.008118,-0.993835,0.175053,0.478168,0.006412,46,276,580,6112
1644181854.594674,-0.010315,0.008179,-0.991394,0.297191,0.325496,0.067481,49,277,584,6160
1644181854.643026,-0.009583,0.009155,-0.994019,0.297191,0.432366,-0.054656,58,276,590,6160
1644181854.691432,-0.007263,0.009521,-0.992737,0.266656,0.401832,-0.268397,57,270,582,6160
1644181854.739824,-0.00824,0.007385,-0.992432,0.068183,0.371298,-0.25313,46,279,590,6224
1644181854.788533,-0.007568,0.010132,-0.991028,0.08345,0.310229,0.006412,42,282,596,6176
1644181854.837883,-0.007874,0.009216,-0.992004,0.266656,0.356031,0.082748,51,286,580,6128
1644181854.888502,-0.007935,0.01123,-0.994568,0.251389,0.417099,-0.130992,51,274,594,6128
1644181854.939077,-0.005859,0.013367,-0.992798,0.190321,0.417099,-0.054656,43,271,594,6176
1644181855.030229,-0.008423,0.013306,-0.992554,0.129252,0.188092,-0.085191,39,274,585,6240
1644181855.079033,-0.008728,0.011353,-0.993835,0.251389,0.386565,0.098015,49,273,586,6160
1644181855.126952,-0.009766,0.008118,-0.991272,0.129252,0.523969,0.052214,43,286,585,6192
1644181855.175419,-0.008667,0.011292,-0.989868,0.327725,0.63084,-0.14626,42,277,579,6128
1644181855.223774,-0.009399,0.012756,-0.99176,0.266656,0.371298,-0.008855,55,271,587,6128
1644181855.272178,-0.010437,0.009216,-0.988464,0.052916,0.401832,-0.14626,51,279,580,6080
1644181855.320546,-0.007446,0.008911,-0.988708,0.08345,0.325496,-0.14626,47,285,586,6176
1644181855.368956,-0.007935,0.010193,-0.992615,0.098718,0.478168,0.036947,51,283,590,6128
1644181855.417341,-0.008911,0.010742,-0.992188,0.175053,0.325496,-0.130992,48,276,587,6160
1644181855.465745,-0.007874,0.010925,-0.989014,0.251389,0.432366,-0.130992,49,285,577,6128
1644181855.514127,-0.00708,0.011597,-0.993713,0.190321,0.340763,-0.207328,45,285,577,6128
1644181855.56253,-0.008423,0.009094,-0.993347,0.205588,0.432366,-0.161527,53,271,583,6160
1644181855.610871,-0.004456,0.009094,-0.990784,0.113985,0.401832,-0.069924,48,279,585,6160
1644181855.659289,-0.009277,0.008362,-0.992554,0.236122,0.294962,-0.024122,53,276,585,6192
1644181855.707687,-0.008362,0.010315,-0.991699,0.220855,0.432366,-0.14626,52,285,586,6160
1644181855.756071,-0.006592,0.01001,-0.992188,0.281924,0.325496,-0.100458,43,271,583,6192
1644181855.804495,-0.009766,0.010437,-0.992188,0.205588,0.356031,-0.192061,58,276,587,6240
1644181855.853181,-0.007263,0.008362,-0.991089,0.220855,0.432366,-0.024122,42,280,589,6112
1644181855.901647,-0.007751,0.009827,-0.991516,0.251389,0.371298,-0.100458,46,274,590,6080
1644181855.951098,-0.008179,0.009155,-0.991821,0.129252,0.340763,-0.222595,48,271,576,6192
1644181856.001444,-0.009827,0.009644,-0.993042,0.236122,0.310229,-0.039389,53,274,594,6112
1644181856.065561,-0.007446,0.007996,-0.993958,0.266656,0.417099,-0.008855,51,276,583,6224
1644181856.103697,-0.006714,0.00708,-0.993713,0.266656,0.447634,-0.130992,48,276,583,6192
1644181856.191612,-0.005981,0.008911,-0.990967,0.159786,0.432366,-0.054656,46,279,580,6160
1644181856.239981,-0.011902,0.012939,-0.993652,0.129252,0.310229,-0.176794,53,271,578,6128
1644181856.288386,-0.00885,0.01239,-0.99353,0.220855,0.523969,0.006412,60,279,585,6224
1644181856.336785,-0.007019,0.008972,-0.99231,0.251389,0.310229,-0.039389,39,283,585,6176
1644181856.385198,-0.007263,0.008789,-0.993469,0.327725,0.233893,-0.085191,41,279,576,6176
1644181856.433588,-0.009033,0.008728,-0.99353,0.113985,0.447634,-0.329466,55,269,590,6192
1644181856.481975,-0.009583,0.007935,-0.990295,0.205588,0.462901,-0.14626,46,269,597,6128
1644181856.530381,-0.008484,0.010254,-0.992065,0.236122,0.264427,-0.268397,53,271,583,6128
1644181856.578769,-0.005676,0.008362,-0.993042,0.220855,0.417099,-0.161527,52,273,586,6112
1644181856.627147,-0.007996,0.00885,-0.993835,0.236122,0.356031,-0.115725,45,277,589,6160
1644181856.675522,-0.010803,0.008484,-0.993286,0.251389,0.386565,-0.069924,52,277,582,6128
1644181856.72395,-0.008667,0.009705,-0.990295,0.175053,0.279695,-0.039389,54,282,584,6160
1644181856.772354,-0.008911,0.008545,-0.994324,0.190321,0.356031,0.036947,53,283,587,6192
1644181856.820766,-0.00647,0.009521,-0.991028,0.098718,0.325496,-0.085191,38,275,589,6176
1644181856.869123,-0.009949,0.008179,-0.989441,0.297191,0.356031,0.12855,46,283,573,6128
1644181856.917554,-0.009155,0.008423,-0.991821,0.220855,0.432366,-0.25313,42,280,591,6128
1644181856.965947,-0.009155,0.008301,-0.993042,0.236122,0.447634,-0.085191,49,273,570,6224
1644181857.014714,-0.008728,0.009766,-0.992371,0.113985,0.401832,-0.054656,43,279,587,6128
1644181857.07637,-0.005432,0.010803,-0.990173,0.220855,0.447634,-0.054656,53,276,585,6160
1644181857.119648,-0.010864,0.009338,-0.994019,0.281924,0.371298,-0.100458,66,282,582,6192
1644181857.162438,-0.008423,0.009583,-0.989075,0.404061,0.417099,-0.192061,54,280,577,6192
1644181857.212496,-0.008789,0.011414,-0.988342,0.251389,0.340763,-0.14626,48,269,580,6160
1644181857.257419,-0.009827,0.008911,-0.994568,0.068183,0.310229,-0.130992,46,283,587,6128
1644181857.353052,-0.007385,0.010315,-0.990784,0.281924,0.24916,-0.085191,51,274,580,6224
1644181857.401435,-0.008911,0.009766,-0.991943,0.297191,0.24916,-0.14626,48,276,580,6192
1644181857.449823,-0.007507,0.008362,-0.990173,0.113985,0.325496,-0.130992,48,279,585,6112
1644181857.498191,-0.009521,0.008301,-0.991821,0.266656,0.493435,-0.069924,48,271,583,6176
1644181857.546611,-0.009949,0.007202,-0.991821,0.266656,0.523969,-0.115725,40,277,577,6176
1644181857.595036,-0.006775,0.01062,-0.989807,0.175053,0.478168,-0.024122,43,276,590,6160
1644181857.643404,-0.009888,0.007263,-0.990601,0.251389,0.386565,-0.100458,47,282,586,6128
1644181857.691797,-0.00885,0.010864,-0.99292,0.266656,0.554504,-0.008855,53,276,578,6192
1644181857.740189,-0.009277,0.007263,-0.988464,0.251389,0.462901,-0.14626,53,281,587,6176
1644181857.788587,-0.009521,0.011536,-0.991089,0.266656,0.310229,-0.207328,40,277,586,6112
1644181857.836996,-0.008545,0.010498,-0.990601,0.312458,0.508702,-0.085191,46,269,592,6160
1644181857.885413,-0.007019,0.009155,-0.991455,0.098718,0.493435,0.067481,46,281,580,6192
1644181857.933803,-0.007141,0.009583,-0.991455,0.068183,0.462901,0.021679,46,269,578,6176
1644181857.982255,-0.009888,0.009216,-0.990295,0.144519,0.447634,-0.115725,40,280,584,6160
1644181858.030583,-0.006714,0.006714,-0.990295,0.144519,0.508702,-0.115725,55,279,592,6112
1644181858.104983,-0.00885,0.00885,-0.993286,0.236122,0.325496,0.052214,42,277,584,6128
1644181858.128893,-0.00885,0.01123,-0.991394,0.251389,0.356031,0.021679,53,274,587,6160
1644181858.177758,-0.010315,0.011902,-0.990967,0.159786,0.401832,-0.329466,48,279,583,6192
1644181858.228467,-0.006714,0.007385,-0.993408,0.159786,0.356031,-0.100458,45,275,591,6192
1644181858.273024,-0.010925,0.007874,-0.99176,0.236122,0.462901,-0.039389,47,277,584,6128
1644181858.369261,-0.008362,0.009583,-0.991699,0.388794,0.356031,-0.054656,48,271,576,6112
1644181858.417665,-0.009399,0.010498,-0.989685,0.342992,0.478168,-0.085191,52,275,584,6176
1644181858.466058,-0.009033,0.010071,-0.993347,0.113985,0.371298,-0.130992,52,292,586,6160
1644181858.514461,-0.006531,0.010193,-0.992249,0.190321,0.417099,-0.222595,47,273,586,6256
1644181858.562859,-0.008789,0.010803,-0.99292,0.251389,0.447634,-0.100458,57,277,582,6048
1644181858.611245,-0.009521,0.010559,-0.992371,0.175053,0.233893,-0.207328,47,277,586,6160
1644181858.659644,-0.012268,0.008728,-0.991699,0.144519,0.417099,-0.054656,51,283,573,6224
1644181858.708047,-0.007996,0.010437,-0.991028,0.205588,0.356031,-0.192061,49,280,582,6128
1644181858.756431,-0.00946,0.011414,-0.991089,0.373527,0.401832,-0.268397,36,281,580,6224
1644181858.80485,-0.007385,0.008179,-0.99115,0.205588,0.508702,0.006412,55,276,580,6080
1644181858.853267,-0.007446,0.006226,-0.993774,0.08345,0.356031,-0.008855,49,273,582,6160
1644181858.901677,-0.010925,0.009216,-0.993103,0.220855,0.417099,-0.069924,43,283,583,6240
1644181858.950043,-0.009399,0.006897,-0.99054,0.266656,0.447634,-0.100458,43,283,587,6192
1644181858.998444,-0.009094,0.009766,-0.990906,0.297191,0.386565,-0.176794,46,276,587,6128
1644181859.046828,-0.008911,0.008484,-0.990356,0.098718,0.386565,0.052214,48,274,592,6128
1644181859.097318,-0.006897,0.010132,-0.989624,0.220855,0.371298,-0.100458,54,277,589,6160
1644181859.143581,-0.012329,0.008667,-0.991455,0.098718,0.340763,-0.069924,48,274,585,6128
1644181859.191974,-0.011902,0.010681,-0.99231,0.266656,0.294962,0.036947,48,271,599,6080
1644181859.240373,-0.008423,0.011414,-0.992615,0.220855,0.478168,-0.25313,41,281,583,6080
1644181859.288796,-0.011169,0.01001,-0.988098,0.190321,0.356031,-0.115725,41,271,578,6176
1644181859.338947,-0.006836,0.009644,-0.98938,0.205588,0.417099,-0.161527,51,274,587,6128
1644181859.389238,-0.004883,0.007019,-0.993286,0.205588,0.264427,-0.069924,48,274,587,6128
1644181859.434095,-0.009094,0.00885,-0.990784,0.144519,0.386565,-0.115725,48,283,592,6128
1644181859.530703,-0.00647,0.007935,-0.991455,0.251389,0.325496,-0.008855,57,280,589,6128
1644181859.579088,-0.011536,0.01062,-0.992371,0.205588,0.447634,-0.268397,45,280,575,6128
1644181859.627486,-0.00885,0.009888,-0.992432,0.312458,0.356031,-0.054656,45,280,589,6192
1644181859.67589,-0.006653,0.009033,-0.992249,0.159786,0.340763,-0.115725,53,269,590,6160
1644181859.724296,-0.006836,0.009094,-0.992615,0.159786,0.417099,-0.008855,54,280,584,6160
1644181859.772701,-0.008362,0.006531,-0.988464,0.327725,0.417099,-0.054656,60,288,580,6224
1644181859.821069,-0.008728,0.007874,-0.991089,0.327725,0.447634,-0.161527,57,273,586,6160
1644181859.869506,-0.008911,0.009949,-0.991455,0.251389,0.554504,-0.085191,43,274,583,6176
1644181859.9179,-0.007446,0.008362,-0.993591,0.159786,0.401832,-0.054656,49,285,586,6240
1644181859.966301,-0.008118,0.010315,-0.991333,0.052916,0.493435,-0.054656,48,269,587,6176
1644181860.014828,-0.009216,0.009827,-0.991943,0.312458,0.371298,-0.115725,51,274,583,6160
1644181860.075001,-0.008667,0.01001,-0.99231,0.205588,0.310229,-0.14626,57,277,589,6080
1644181860.114015,-0.005554,0.008789,-0.992737,0.205588,0.325496,-0.008855,48,276,580,6128
1644181860.159796,-0.007874,0.009766,-0.990662,0.175053,0.325496,-0.069924,47,268,589,6128
1644181860.208217,-0.008911,0.006714,-0.991699,0.281924,0.417099,-0.14626,45,270,584,6176
1644181860.256582,-0.008423,0.010498,-0.990479,0.220855,0.356031,-0.069924,53,271,580,6192
1644181860.305041,-0.007446,0.010437,-0.991516,0.205588,0.493435,-0.024122,55,283,592,6192
1644181860.353395,-0.009216,0.008728,-0.991516,0.129252,0.462901,-0.069924,34,274,583,6224
1644181860.401831,-0.009338,0.009155,-0.99292,0.159786,0.386565,0.006412,36,276,580,6224
1644181860.451896,-0.007751,0.010132,-0.99115,0.35826,0.462901,-0.069924,46,259,594,6192
1644181860.502342,-0.009399,0.011902,-0.989685,0.220855,0.203359,-0.329466,54,275,591,6080
1644181860.547355,-0.007874,0.011292,-0.995728,0.159786,0.447634,-0.039389,51,274,590,6160
1644181860.643764,-0.008118,0.010132,-0.990967,0.266656,0.371298,0.036947,54,282,586,6224
1644181860.692362,-0.008667,0.007263,-0.990173,0.068183,0.294962,-0.008855,58,274,585,6160
1644181860.740529,-0.009216,0.00647,-0.991943,0.205588,0.432366,-0.069924,42,270,593,6160
1644181860.788918,-0.008789,0.008179,-0.992676,0.205588,0.386565,-0.085191,55,271,583,6192
1644181860.837326,-0.008301,0.013245,-0.992065,0.266656,0.401832,-0.054656,57,277,584,6160
1644181860.885745,-0.009888,0.01001,-0.990479,0.190321,0.417099,-0.130992,41,269,576,6224
1644181860.934155,-0.006531,0.010132,-0.990112,0.251389,0.417099,-0.069924,48,279,583,6160
1644181860.982559,-0.009888,0.007629,-0.988953,0.205588,0.417099,-0.130992,47,277,589,6160
1644181861.030929,-0.008057,0.01239,-0.989929,0.220855,0.432366,-0.100458,51,266,597,6240
1644181861.092936,-0.008179,0.011841,-0.994385,0.312458,0.417099,-0.069924,39,288,590,6128
1644181861.127732,-0.010498,0.008179,-0.991089,0.251389,0.371298,-0.039389,54,280,582,6176
1644181861.176497,-0.007751,0.010864,-0.992188,0.144519,0.356031,0.082748,54,277,589,6240
1644181861.225471,-0.013,0.008789,-0.991394,0.175053,0.340763,-0.008855,45,268,575,6112
1644181861.276253,-0.008667,0.010803,-0.991882,0.175053,0.462901,-0.054656,46,281,578,6048
1644181861.326238,-0.00946,0.007263,-0.992249,0.35826,0.371298,-0.008855,47,270,575,6160
1644181861.418052,-0.009216,0.007874,-0.990601,0.449863,0.417099,-0.024122,52,277,575,6176
1644181861.466396,-0.007324,0.010742,-0.99231,0.113985,0.447634,-0.008855,49,287,582,6160
1644181861.514871,-0.010437,0.007996,-0.992249,0.175053,0.401832,-0.207328,58,276,592,6160
1644181861.563205,-0.008362,0.01001,-0.992737,0.281924,0.325496,0.021679,54,275,586,6160
1644181861.611607,-0.008911,0.008301,-0.992676,0.175053,0.447634,-0.176794,42,268,582,6112
1644181861.659992,-0.008179,0.011292,-0.989868,0.281924,0.264427,-0.14626,41,276,578,6128
1644181861.708384,-0.00531,0.009644,-0.989441,0.220855,0.417099,-0.298931,55,269,594,6224
1644181861.756763,-0.006226,0.00769,-0.992798,0.205588,0.371298,-0.115725,41,276,583,6176
1644181861.805171,-0.005798,0.009155,-0.989014,0.159786,0.417099,-0.14626,47,275,577,6160
1644181861.853576,-0.010254,0.008362,-0.989319,0.220855,0.356031,-0.054656,55,276,576,6128
1644181861.901996,-0.006165,0.009705,-0.989563,0.175053,0.279695,-0.14626,53,283,590,6128
1644181861.950397,-0.005371,0.009888,-0.991333,-0.038687,0.279695,-0.115725,51,291,585,6128
1644181861.998783,-0.008911,0.007141,-0.990845,0.205588,0.340763,0.036947,43,271,583,6176
1644181862.047174,-0.009888,0.010986,-0.991272,0.220855,0.478168,-0.161527,47,282,591,6224
1644181862.095603,-0.010193,0.011536,-0.992004,0.175053,0.462901,-0.085191,53,271,587,6080
1644181862.143954,-0.00592,0.010254,-0.991455,0.236122,0.417099,0.067481,52,275,584,6192
1644181862.192377,-0.007019,0.010315,-0.992249,0.129252,0.401832,-0.115725,48,274,592,6192
1644181862.240992,-0.005066,0.010559,-0.990417,0.220855,0.462901,0.113282,47,282,584,6128
1644181862.289128,-0.00885,0.011536,-0.99176,0.113985,0.386565,-0.130992,57,280,584,6176
1644181862.338668,-0.006958,0.010437,-0.993408,0.236122,0.478168,-0.192061,61,280,577,6224
1644181862.388899,-0.010437,0.010132,-0.99176,0.327725,0.356031,-0.054656,43,279,585,6192
1644181862.439071,-0.008972,0.010132,-0.99054,0.129252,0.371298,-0.069924,61,273,584,6192
1644181862.483556,-0.00824,0.009766,-0.990479,0.175053,0.401832,-0.161527,49,277,584,6224
1644181862.579499,-0.008118,0.008972,-0.993408,0.297191,0.401832,0.036947,54,277,570,6160
1644181862.627888,-0.009033,0.008301,-0.989136,0.281924,0.371298,-0.161527,47,263,586,6176
1644181862.676285,-0.009033,0.009705,-0.99054,0.098718,0.554504,-0.222595,51,279,580,6128
1644181862.724697,-0.009766,0.008972,-0.991821,0.098718,0.371298,-0.100458,53,276,573,6176
1644181862.773083,-0.009155,0.008972,-0.992859,0.175053,0.340763,0.220153,43,271,587,6176
1644181862.821471,-0.007935,0.007263,-0.994263,0.144519,0.569771,-0.130992,54,270,584,6176
1644181862.869859,-0.010803,0.009033,-0.99292,0.129252,0.340763,0.067481,46,274,573,6160
1644181862.918259,-0.008606,0.011719,-0.991821,0.159786,0.462901,-0.14626,45,292,586,6224
1644181862.966631,-0.010498,0.010071,-0.992676,0.144519,0.447634,-0.039389,39,271,587,6128
1644181863.015151,-0.007874,0.010498,-0.992432,0.297191,0.508702,-0.008855,49,275,586,6128
1644181863.068718,-0.008423,0.00769,-0.992798,0.068183,0.523969,-0.008855,47,275,600,6160
1644181863.111806,-0.008423,0.007996,-0.992737,0.190321,0.447634,-0.14626,43,276,583,6224
1644181863.160193,-0.008667,0.007324,-0.992065,0.236122,0.569771,-0.161527,45,270,584,6160
1644181863.208559,-0.00946,0.009888,-0.991516,0.236122,0.356031,-0.054656,55,279,587,6160
1644181863.256934,-0.008728,0.00885,-0.991272,0.251389,0.432366,-0.161527,52,277,586,6080
1644181863.305358,-0.00824,0.011047,-0.99585,0.220855,0.371298,-0.054656,49,275,584,6112
1644181863.353747,-0.01001,0.008484,-0.993713,0.236122,0.462901,-0.100458,57,282,582,6176
1644181863.40218,-0.007935,0.008118,-0.993103,0.327725,0.325496,-0.024122,48,279,590,6128
1644181863.451168,-0.006531,0.014221,-0.990967,0.175053,0.508702,-0.161527,48,279,585,6160
1644181863.5003,-0.007019,0.010315,-0.991882,0.190321,0.371298,-0.054656,54,280,579,6176
1644181863.550017,-0.006714,0.00769,-0.991089,0.281924,0.264427,0.006412,49,273,586,6192
1644181863.600178,-0.010925,0.009949,-0.991882,0.236122,0.356031,-0.115725,48,266,590,6176
1644181863.645369,-0.010315,0.009827,-0.988525,0.266656,0.432366,-0.008855,41,283,583,6192
1644181863.740884,-0.010132,0.010254,-0.98938,0.175053,0.432366,-0.024122,54,265,584,6224
1644181863.789274,-0.011658,0.008484,-0.992737,0.220855,0.585038,-0.14626,46,262,580,6192
1644181863.837714,-0.01123,0.010254,-0.990967,0.159786,0.432366,-0.024122,58,276,592,6128
1644181863.8861,-0.00885,0.010437,-0.992004,0.190321,0.401832,-0.008855,47,273,575,6224
1644181863.934498,-0.009766,0.011292,-0.992432,0.251389,0.325496,-0.024122,49,280,577,6176
1644181863.98291,-0.009399,0.009216,-0.992432,0.342992,0.340763,0.067481,45,277,582,6128
1644181864.031294,-0.009277,0.010681,-0.991638,0.205588,0.340763,-0.085191,40,280,586,6176
1644181864.084233,-0.006531,0.010315,-0.990906,0.068183,0.386565,-0.25313,53,276,583,6160
1644181864.128018,-0.008789,0.01178,-0.994446,0.205588,0.508702,-0.192061,54,273,591,6192
1644181864.176408,-0.008789,0.008423,-0.992126,0.175053,0.417099,-0.115725,49,275,579,6160
1644181864.224828,-0.009277,0.006531,-0.99292,0.175053,0.523969,-0.222595,48,283,585,6176
1644181864.273212,-0.006653,0.011841,-0.989624,0.205588,0.371298,-0.024122,47,287,579,6160
1644181864.321566,-0.008667,0.010925,-0.993225,-0.02342,0.432366,-0.085191,54,275,586,6128
1644181864.369995,-0.008667,0.009888,-0.992676,0.251389,0.325496,-0.161527,51,274,583,6160
1644181864.418373,-0.008484,0.008728,-0.991089,0.159786,0.325496,-0.054656,51,274,583,6192
1644181864.466769,-0.009705,0.00885,-0.989868,0.129252,0.462901,-0.14626,46,271,587,6160
1644181864.515163,-0.005798,0.012451,-0.990295,0.190321,0.508702,-0.176794,47,270,586,6160
1644181864.563556,-0.008911,0.011108,-0.990662,0.312458,0.325496,-0.100458,42,270,584,6160
1644181864.611964,-0.007935,0.009033,-0.991272,0.251389,0.478168,-0.115725,43,279,587,6128
1644181864.660503,-0.010681,0.008545,-0.992126,0.190321,0.417099,-0.100458,53,281,578,6240
1644181864.711123,-0.007812,0.010071,-0.99408,0.205588,0.539237,-0.161527,42,277,593,6160
1644181864.761352,-0.008423,0.010376,-0.992432,0.068183,0.24916,-0.115725,53,279,576,6192
1644181864.807012,-0.008606,0.008118,-0.991882,0.327725,0.569771,-0.054656,39,281,585,6160
1644181864.902472,-0.007263,0.010254,-0.993103,0.220855,0.417099,-0.024122,52,277,579,6176
1644181864.950734,-0.006348,0.00769,-0.98999,0.281924,0.447634,-0.115725,42,282,575,6128
1644181864.999132,-0.00769,0.00769,-0.993164,0.281924,0.447634,-0.085191,53,264,580,6128
1644181865.047527,-0.009521,0.010803,-0.990845,0.113985,0.371298,-0.039389,51,291,587,6224
1644181865.101995,-0.008789,0.009888,-0.994568,0.281924,0.294962,-0.100458,51,274,585,6240
1644181865.144283,-0.009766,0.010925,-0.988586,0.205588,0.417099,0.006412,51,276,578,6128
1644181865.192686,-0.009155,0.010559,-0.99054,0.190321,0.386565,-0.192061,46,276,580,6192
1644181865.241074,-0.006897,0.01178,-0.991211,0.144519,0.386565,-0.14626,46,271,578,6224
1644181865.289435,-0.008728,0.009277,-0.992615,0.144519,0.462901,-0.130992,49,277,572,6080
1644181865.337856,-0.010315,0.008057,-0.99054,0.205588,0.371298,0.052214,42,273,579,6176
1644181865.386237,-0.008484,0.009216,-0.993164,0.251389,0.203359,-0.115725,55,276,580,6192
1644181865.434638,-0.006531,0.007385,-0.991699,0.236122,0.401832,-0.100458,51,281,592,6128
1644181865.483038,-0.008362,0.00885,-0.990601,0.159786,0.462901,-0.115725,39,271,583,6176
1644181865.531427,-0.009583,0.009949,-0.992737,0.129252,0.462901,-0.268397,52,273,582,6112
1644181865.579839,-0.009521,0.009888,-0.991943,0.342992,0.462901,-0.069924,57,268,582,6192
1644181865.630089,-0.010681,0.010193,-0.989746,0.159786,0.356031,-0.039389,46,281,580,6128
1644181865.680327,-0.008484,0.009155,-0.992737,0.144519,0.508702,-0.039389,47,273,579,6160
1644181865.725406,-0.010437,0.011963,-0.991028,0.297191,0.356031,-0.14626,45,282,582,6160
1644181865.821772,-0.008301,0.011475,-0.991699,0.327725,0.432366,-0.085191,46,276,580,6160
1644181865.870178,-0.011169,0.009705,-0.994141,0.175053,0.462901,-0.130992,51,276,590,6160
1644181865.918581,-0.004822,0.009521,-0.990967,0.205588,0.371298,-0.161527,65,271,587,6192
1644181865.966978,-0.010071,0.01001,-0.991455,0.266656,0.585038,-0.039389,48,281,576,6128
1644181866.015377,-0.013123,0.010132,-0.993774,0.159786,0.432366,0.067481,49,280,575,6160
1644181866.073697,-0.008118,0.010742,-0.99292,0.205588,0.401832,0.021679,57,275,586,6224
1644181866.11404,-0.011658,0.010498,-0.990417,0.205588,0.340763,0.052214,51,269,590,6160
1644181866.160518,-0.010254,0.012512,-0.989624,0.297191,0.447634,0.052214,51,276,583,6160
1644181866.208923,-0.008911,0.010193,-0.991821,0.35826,0.310229,-0.085191,42,277,589,6176
1644181866.257291,-0.011414,0.010925,-0.99469,0.113985,0.371298,-0.024122,47,265,584,6160
1644181866.305673,-0.011292,0.011414,-0.991943,0.175053,0.417099,-0.222595,45,270,579,6176
1644181866.354089,-0.009277,0.009827,-0.990784,0.052916,0.600305,-0.115725,54,265,575,6160
1644181866.402496,-0.010925,0.009216,-0.989075,0.098718,0.386565,-0.085191,46,283,585,6240
1644181866.465479,-0.00824,0.010315,-0.990295,0.236122,0.417099,-0.130992,54,280,586,6160
1644181866.505356,-0.008728,0.007446,-0.991455,0.175053,0.386565,-0.176794,54,268,584,6160
1644181866.5555,-0.009155,0.009949,-0.990784,0.175053,0.325496,-0.054656,42,277,591,6128
1644181866.604185,-0.007263,0.010742,-0.993958,0.08345,0.523969,-0.161527,43,276,583,6112
1644181866.657704,-0.008911,0.00885,-0.990051,0.251389,0.447634,-0.161527,47,285,572,6160
1644181866.741205,-0.01123,0.009644,-0.991333,0.159786,0.432366,-0.024122,59,282,582,6160
1644181866.789659,-0.00708,0.012329,-0.992554,0.159786,0.432366,-0.054656,41,276,585,6160
1644181866.838022,-0.005676,0.009094,-0.991577,0.190321,0.401832,-0.222595,40,268,577,6160
1644181866.886357,-0.007812,0.009216,-0.990845,0.251389,0.371298,-0.008855,55,274,583,6192
1644181866.93481,-0.011108,0.008484,-0.993042,0.220855,0.340763,-0.069924,49,287,579,6240
1644181866.983453,-0.007019,0.009399,-0.993347,0.113985,0.340763,0.006412,54,280,586,6176
1644181867.033802,-0.00708,0.01001,-0.990723,0.129252,0.401832,-0.130992,52,285,586,6112
1644181867.084796,-0.007812,0.010254,-0.993408,0.220855,0.340763,-0.085191,47,277,593,6176
1644181867.132329,-0.007385,0.009399,-0.992126,0.236122,0.432366,-0.054656,52,282,589,6192
1644181867.176859,-0.009827,0.011902,-0.991699,0.236122,0.462901,-0.024122,60,276,583,6160
1644181867.226357,-0.009827,0.009888,-0.991089,0.175053,0.386565,-0.207328,46,288,585,6176
1644181867.273521,-0.01123,0.009521,-0.992615,0.312458,0.294962,-0.207328,54,280,579,6224
