epoch,acc_x,acc_y,acc_z,rot_x,rot_y,rot_z,mag_x,mag_y,mag_z,temp
1644159900.010438,-0.00824,0.01062,-0.992065,0.113985,0.325496,0.036947,49,277,575,5488
1644159900.063022,-0.011047,0.010925,-0.992493,0.281924,0.340763,-0.268397,49,277,584,5472
1644159900.107188,-0.008301,0.007629,-0.989929,0.312458,0.432366,0.006412,47,273,575,5424
1644159900.155586,-0.009155,0.010071,-0.990784,0.190321,0.462901,-0.039389,41,274,571,5408
1644159900.203981,-0.012329,0.008057,-0.991638,0.220855,0.447634,0.021679,47,270,570,5408
1644159900.252346,-0.009033,0.008118,-0.994141,0.175053,0.356031,-0.222595,48,271,578,5456
1644159900.300739,-0.011414,0.008057,-0.990845,0.327725,0.401832,-0.054656,45,277,577,5456
1644159900.349142,-0.011475,0.010681,-0.992615,0.144519,0.401832,0.082748,45,273,570,5424
1644159900.397529,-0.009338,0.010437,-0.99353,0.251389,0.493435,-0.039389,54,270,582,5456
1644159900.445895,-0.011841,0.009338,-0.992249,0.266656,0.371298,-0.130992,55,283,571,5456
1644159900.494298,-0.010376,0.008118,-0.992676,0.266656,0.401832,-0.054656,54,280,577,5488
1644159900.542732,-0.009949,0.008484,-0.993958,0.388794,0.310229,-0.054656,53,274,573,5408
1644159900.591093,-0.012939,0.009277,-0.993469,0.266656,0.401832,0.052214,55,271,573,5472
1644159900.639477,-0.010864,0.007996,-0.993042,0.159786,0.447634,-0.069924,54,265,570,5472
1644159900.687842,-0.009827,0.012512,-0.991211,0.236122,0.417099,-0.085191,55,269,571,5456
1644159900.736238,-0.011108,0.007874,-0.993347,0.251389,0.417099,-0.130992,48,271,576,5456
1644159900.785655,-0.009644,0.006042,-0.994324,0.373527,0.478168,0.021679,52,270,582,5408
1644159900.836677,-0.011658,0.008728,-0.991638,0.327725,0.447634,-0.085191,49,270,568,5424
1644159900.886988,-0.007568,0.00647,-0.993591,0.342992,0.401832,0.036947,49,282,579,5456
1644159900.97823,-0.010681,0.007629,-0.99469,0.327725,0.386565,-0.085191,53,271,578,5456
1644159901.026877,-0.01239,0.007874,-0.993408,0.404061,0.294962,-0.054656,43,274,576,5472
1644159901.075216,-0.013245,0.009888,-0.994019,0.175053,0.569771,-0.115725,47,285,589,5424
1644159901.123394,-0.010559,0.008606,-0.990662,0.175053,0.356031,-0.008855,53,276,569,5456
1644159901.171777,-0.01062,0.010681,-0.992859,0.190321,0.401832,-0.054656,42,277,575,5408
1644159901.220164,-0.011841,0.006592,-0.993713,0.266656,0.325496,-0.100458,59,265,577,5456
1644159901.268521,-0.010132,0.008728,-0.991699,0.327725,0.539237,-0.100458,51,281,578,5456
1644159901.31693,-0.011414,0.008606,-0.992737,0.159786,0.417099,-0.054656,46,271,573,5456
1644159901.365319,-0.011414,0.009644,-0.994446,0.113985,0.554504,-0.176794,52,277,568,5456
1644159901.413729,-0.007874,0.006531,-0.99231,0.251389,0.447634,-0.024122,54,280,570,5456
1644159901.46221,-0.008728,0.007324,-0.993591,0.251389,0.539237,-0.024122,54,282,568,5488
1644159901.510458,-0.008545,0.008972,-0.992493,0.327725,0.417099,-0.008855,51,281,587,5424
1644159901.558882,-0.011536,0.009705,-0.993896,0.190321,0.386565,-0.329466,52,280,579,5456
1644159901.607281,-0.010315,0.010376,-0.989624,0.434595,0.356031,-0.054656,49,280,582,5488
1644159901.655657,-0.00824,0.009277,-0.993591,0.205588,0.371298,-0.008855,62,281,573,5552
1644159901.704049,-0.008911,0.008911,-0.995789,0.220855,0.340763,-0.024122,46,274,573,5456
1644159901.752733,-0.013123,0.009399,-0.990662,0.220855,0.325496,-0.161527,51,281,583,5472
1644159901.801304,-0.009888,0.010315,-0.991943,0.08345,0.417099,-0.085191,45,275,579,5408
1644159901.852281,-0.008789,0.009155,-0.989807,0.236122,0.447634,0.021679,54,282,579,5520
1644159901.902619,-0.012634,0.007751,-0.992676,0.251389,0.447634,-0.069924,54,275,570,5456
1644159901.947469,-0.01001,0.008911,-0.991638,0.037649,0.386565,-0.069924,58,274,566,5376
1644159902.062413,-0.011536,0.007996,-0.992126,0.159786,0.462901,-0.115725,48,276,583,5456
1644159902.092018,-0.008667,0.012329,-0.990417,0.220855,0.401832,-0.115725,57,273,582,5424
1644159902.13952,-0.011353,0.006836,-0.990417,0.251389,0.462901,-0.024122,47,268,570,5472
1644159902.18793,-0.006592,0.009033,-0.99231,0.236122,0.386565,-0.222595,52,270,579,5456
1644159902.236341,-0.013245,0.011841,-0.990723,0.052916,0.417099,-0.008855,49,277,570,5424
1644159902.284732,-0.012268,0.011902,-0.993469,0.373527,0.417099,-0.039389,49,275,575,5456
1644159902.333128,-0.012085,0.009277,-0.990784,0.220855,0.447634,-0.024122,52,273,570,5456
1644159902.381496,-0.011475,0.009766,-0.993286,0.266656,0.539237,-0.100458,49,265,577,5456
1644159902.42989,-0.013,0.006165,-0.992859,0.175053,0.294962,-0.115725,48,281,578,5408
1644159902.478701,-0.010315,0.011353,-0.990234,0.449863,0.462901,-0.024122,51,266,576,5424
1644159902.52941,-0.010437,0.009033,-0.993408,0.434595,0.386565,-0.054656,47,273,575,5488
1644159902.579114,-0.011353,0.009277,-0.989929,0.281924,0.279695,-0.222595,54,265,579,5424
1644159902.624166,-0.008545,0.010254,-0.991943,0.236122,0.340763,-0.14626,51,279,569,5488
1644159902.720242,-0.011658,0.011414,-0.990295,0.220855,0.462901,-0.069924,55,271,573,5456
1644159902.768589,-0.010864,0.007751,-0.991394,0.266656,0.279695,-0.115725,48,279,580,5472
1644159902.816983,-0.010376,0.008606,-0.99408,0.098718,0.432366,-0.054656,46,274,571,5472
1644159902.865434,-0.010132,0.00946,-0.991455,0.144519,0.325496,-0.207328,62,274,573,5456
1644159902.913838,-0.010132,0.007996,-0.992432,0.205588,0.462901,-0.069924,52,275,570,5424
1644159902.962234,-0.007996,0.011353,-0.99231,0.129252,0.310229,-0.100458,52,270,561,5424
1644159903.010616,-0.010559,0.009033,-0.992065,0.205588,0.508702,-0.130992,49,282,572,5456
1644159903.062435,-0.011353,0.00946,-0.992432,0.297191,0.356031,-0.115725,55,279,571,5472
1644159903.107378,-0.00946,0.006958,-0.992615,0.098718,0.417099,-0.100458,47,273,577,5456
1644159903.155741,-0.010559,0.009644,-0.990051,0.129252,0.386565,-0.024122,47,273,570,5488
1644159903.20416,-0.010925,0.01001,-0.992615,0.205588,0.462901,-0.100458,57,270,579,5488
1644159903.25253,-0.012329,0.008179,-0.99231,0.297191,0.401832,-0.039389,49,285,572,5488
1644159903.300883,-0.010437,0.012695,-0.991028,0.236122,0.356031,-0.176794,65,271,583,5472
1644159903.349298,-0.009705,0.006104,-0.993408,0.35826,0.401832,0.052214,54,277,582,5408
1644159903.397658,-0.01062,0.007141,-0.994141,0.35826,0.432366,-0.039389,49,275,577,5520
1644159903.446082,-0.010803,0.010254,-0.99408,0.236122,0.386565,-0.085191,49,268,584,5408
1644159903.494479,-0.007996,0.010437,-0.991882,0.190321,0.417099,-0.176794,43,274,578,5456
1644159903.542866,-0.011902,0.011963,-0.992126,0.297191,0.508702,-0.207328,57,273,577,5456
1644159903.59129,-0.012817,0.007385,-0.99353,0.129252,0.371298,-0.039389,49,268,568,5376
1644159903.639911,-0.013062,0.009399,-0.993042,0.220855,0.447634,-0.14626,51,266,578,5408
1644159903.690367,-0.011658,0.010071,-0.992432,0.113985,0.386565,-0.14626,43,271,587,5472
1644159903.740501,-0.00946,0.008667,-0.991577,0.220855,0.493435,-0.130992,47,270,579,5408
1644159903.785751,-0.006592,0.009033,-0.990051,0.327725,0.356031,-0.161527,52,285,570,5424
1644159903.88161,-0.010071,0.009521,-0.99353,0.144519,0.340763,0.006412,45,273,572,5408
1644159903.930012,-0.008606,0.009399,-0.992249,0.312458,0.432366,-0.054656,59,277,579,5424
1644159903.978395,-0.009583,0.010803,-0.98999,0.297191,0.432366,-0.069924,60,274,576,5456
1644159904.026769,-0.009949,0.009277,-0.993591,0.327725,0.279695,0.006412,51,281,571,5360
1644159904.082835,-0.01062,0.01062,-0.990417,0.404061,0.462901,-0.100458,51,264,576,5520
1644159904.123592,-0.010498,0.009338,-0.992554,0.266656,0.539237,-0.024122,53,279,576,5456
1644159904.171927,-0.008911,0.010132,-0.992798,0.236122,0.478168,-0.207328,53,279,576,5424
1644159904.220285,-0.01123,0.01123,-0.994141,0.266656,0.539237,-0.054656,46,274,583,5456
1644159904.268692,-0.012512,0.009827,-0.993103,0.327725,0.325496,-0.069924,53,274,585,5456
1644159904.317089,-0.012817,0.01062,-0.99115,0.205588,0.356031,-0.085191,45,270,575,5456
1644159904.365476,-0.009521,0.008667,-0.99054,0.236122,0.462901,-0.237863,53,279,559,5424
1644159904.413892,-0.009338,0.010925,-0.991638,0.297191,0.401832,-0.069924,46,271,562,5472
1644159904.462276,-0.012085,0.009277,-0.993225,0.35826,0.417099,-0.085191,48,262,573,5472
1644159904.510633,-0.009155,0.009155,-0.993896,0.236122,0.294962,-0.14626,49,285,582,5488
1644159904.559047,-0.012207,0.010376,-0.992004,0.190321,0.386565,-0.161527,51,276,578,5456
1644159904.607432,-0.010132,0.007324,-0.993347,0.144519,0.508702,-0.192061,52,265,582,5360
1644159904.655784,-0.011963,0.008484,-0.991455,0.113985,0.417099,-0.14626,57,277,575,5456
1644159904.704208,-0.010864,0.009155,-0.991028,0.327725,0.417099,0.021679,49,280,565,5472
1644159904.753027,-0.009644,0.009155,-0.989746,0.35826,0.600305,-0.100458,45,277,572,5472
1644159904.803478,-0.008728,0.010498,-0.993835,0.266656,0.417099,-0.192061,61,285,572,5472
1644159904.853782,-0.010864,0.008545,-0.992371,0.236122,0.432366,-0.054656,52,275,575,5472
1644159904.899171,-0.011719,0.009521,-0.991211,0.388794,0.371298,-0.085191,46,271,566,5456
1644159904.994856,-0.01239,0.009033,-0.990417,0.159786,0.386565,-0.207328,49,270,575,5456
1644159905.060901,-0.008911,0.009521,-0.992126,0.327725,0.585038,-0.085191,52,275,584,5360
1644159905.095402,-0.008911,0.008423,-0.992188,0.113985,0.371298,-0.054656,60,276,590,5456
1644159905.139759,-0.010559,0.008789,-0.993591,0.266656,0.325496,-0.207328,49,277,579,5456
1644159905.1881,-0.009705,0.005005,-0.990967,0.144519,0.386565,-0.115725,67,276,571,5408
1644159905.236477,-0.01001,0.009033,-0.990295,0.251389,0.386565,0.021679,62,281,583,5472
1644159905.284852,-0.007996,0.00885,-0.992554,0.220855,0.447634,-0.069924,45,265,577,5424
1644159905.333242,-0.009521,0.009338,-0.992615,0.312458,0.523969,-0.222595,53,276,587,5376
1644159905.381655,-0.014221,0.010132,-0.994202,0.327725,0.310229,-0.115725,48,274,576,5456
1644159905.430041,-0.010986,0.008301,-0.990601,0.205588,0.447634,-0.085191,60,279,576,5424
1644159905.478506,-0.011353,0.010193,-0.990417,0.327725,0.585038,0.021679,42,277,579,5424
1644159905.527923,-0.008667,0.006287,-0.992493,0.236122,0.356031,-0.039389,47,277,575,5360
1644159905.578392,-0.008606,0.011719,-0.991394,0.205588,0.325496,0.036947,55,269,583,5456
1644159905.628484,-0.012451,0.008972,-0.991577,0.220855,0.462901,-0.130992,47,268,572,5424
1644159905.720402,-0.011353,0.009644,-0.992493,0.434595,0.432366,-0.161527,55,276,566,5488
1644159905.768755,-0.007568,0.009827,-0.992004,0.327725,0.188092,-0.237863,54,280,577,5424
1644159905.817169,-0.007751,0.010742,-0.991699,0.419328,0.462901,0.143817,48,276,573,5424
1644159905.865535,-0.010925,0.009644,-0.991577,0.175053,0.539237,-0.176794,54,282,579,5456
1644159905.913965,-0.010376,0.008301,-0.993408,0.144519,0.417099,-0.14626,49,287,589,5456
1644159905.962386,-0.008972,0.009155,-0.990112,0.281924,0.371298,-0.192061,58,283,569,5408
1644159906.010759,-0.011902,0.008057,-0.993958,0.068183,0.401832,-0.100458,54,280,565,5488
1644159906.065431,-0.009644,0.008179,-0.992859,0.281924,0.539237,-0.100458,65,286,583,5456
1644159906.107529,-0.010437,0.009888,-0.99115,0.266656,0.417099,0.052214,51,262,576,5472
1644159906.155893,-0.01123,0.008301,-0.988647,0.312458,0.356031,-0.207328,40,273,568,5424
1644159906.204283,-0.009766,0.010681,-0.993164,0.159786,0.371298,-0.161527,49,277,575,5408
1644159906.252673,-0.012634,0.008057,-0.99292,0.251389,0.417099,-0.085191,54,275,575,5424
1644159906.301057,-0.009766,0.013123,-0.990295,0.327725,0.478168,-0.054656,60,279,583,5424
1644159906.349446,-0.011169,0.006897,-0.991577,0.327725,0.493435,-0.130992,41,279,583,5520
1644159906.397809,-0.009216,0.010803,-0.991394,0.205588,0.493435,0.006412,53,269,583,5456
1644159906.446222,-0.008179,0.009338,-0.992065,0.327725,0.401832,-0.161527,47,275,586,5456
1644159906.494653,-0.010254,0.01239,-0.993286,0.052916,0.356031,-0.130992,47,273,577,5376
1644159906.543404,-0.01178,0.006775,-0.993408,0.251389,0.310229,-0.192061,58,281,580,5456
1644159906.593651,-0.010864,0.011292,-0.992188,0.220855,0.371298,-0.115725,60,266,573,5424
1644159906.643723,-0.012451,0.010681,-0.99292,0.190321,0.401832,-0.130992,57,275,582,5456
1644159906.688552,-0.00708,0.009583,-0.990417,0.098718,0.310229,-0.115725,54,277,577,5456
1644159906.785208,-0.008728,0.010559,-0.993042,0.266656,0.554504,-0.085191,42,275,570,5456
1644159906.833408,-0.01178,0.009521,-0.992798,0.144519,0.508702,-0.054656,49,270,582,5456
1644159906.881765,-0.008728,0.009033,-0.990845,0.08345,0.371298,-0.069924,42,285,575,5520
1644159906.930189,-0.013489,0.010071,-0.993347,0.281924,0.340763,0.021679,41,276,573,5408
1644159906.978539,-0.009583,0.00769,-0.994202,0.281924,0.539237,-0.039389,52,275,570,5424
1644159907.026941,-0.013794,0.010803,-0.990356,0.08345,0.386565,-0.100458,48,274,576,5456
1644159907.09093,-0.010986,0.010559,-0.992798,0.312458,0.401832,-0.161527,49,280,570,5456
1644159907.123695,-0.010925,0.009583,-0.992981,0.251389,0.417099,-0.161527,51,276,576,5552
1644159907.172071,-0.012756,0.010559,-0.993835,0.327725,0.386565,-0.14626,52,277,582,5488
1644159907.220449,-0.008301,0.011353,-0.991943,0.281924,0.233893,-0.024122,47,277,572,5456
1644159907.268815,-0.012451,0.00824,-0.994141,0.251389,0.310229,-0.130992,58,274,569,5424
1644159907.317243,-0.010376,0.01239,-0.991638,0.220855,0.340763,-0.161527,52,275,584,5424
1644159907.365625,-0.013428,0.00824,-0.991943,0.251389,0.478168,0.098015,51,276,578,5360
1644159907.414021,-0.010254,0.009155,-0.993164,0.419328,0.462901,-0.100458,55,279,590,5424
1644159907.462421,-0.011108,0.008301,-0.992676,0.236122,0.417099,-0.192061,45,275,577,5456
1644159907.510791,-0.008179,0.009155,-0.992798,0.144519,0.417099,-0.14626,61,277,591,5536
1644159907.559517,-0.01239,0.00946,-0.993225,0.342992,0.401832,-0.14626,41,274,571,5456
1644159907.608865,-0.008545,0.008484,-0.993286,0.129252,0.356031,0.082748,51,279,564,5424
1644159907.659225,-0.010315,0.007996,-0.991455,0.175053,0.325496,-0.130992,43,269,578,5424
1644159907.709342,-0.010071,0.007141,-0.98999,0.35826,0.325496,-0.222595,43,276,576,5424
1644159907.801131,-0.011597,0.010132,-0.989746,0.08345,0.462901,-0.054656,43,269,562,5456
1644159907.849571,-0.01062,0.01178,-0.993774,0.312458,0.447634,-0.024122,57,280,579,5456
1644159907.897945,-0.009766,0.004883,-0.992676,0.251389,0.325496,-0.085191,55,266,578,5456
1644159907.946339,-0.012878,0.009949,-0.99292,0.266656,0.340763,-0.161527,46,281,573,5456
1644159907.994743,-0.01062,0.00708,-0.992371,0.419328,0.294962,-0.085191,49,270,568,5456
1644159908.055133,-0.009644,0.008606,-0.992432,0.236122,0.447634,-0.222595,51,281,580,5472
1644159908.09198,-0.013062,0.009155,-0.99231,0.190321,0.462901,-0.237863,51,274,587,5472
1644159908.139865,-0.012146,0.007629,-0.99231,0.205588,0.539237,-0.024122,55,283,580,5456
1644159908.188242,-0.013,0.011108,-0.993225,0.251389,0.401832,-0.039389,49,275,575,5456
1644159908.236646,-0.012451,0.005493,-0.991699,0.266656,0.478168,-0.054656,48,276,576,5456
1644159908.285133,-0.006592,0.008728,-0.990234,0.251389,0.371298,-0.130992,48,264,576,5424
1644159908.333437,-0.013672,0.01001,-0.992737,0.175053,0.264427,-0.14626,48,286,569,5408
1644159908.381813,-0.009583,0.011414,-0.991272,0.175053,0.417099,-0.039389,52,268,577,5456
1644159908.430196,-0.010132,0.008606,-0.99054,0.220855,0.417099,-0.176794,51,269,578,5376
1644159908.478588,-0.010925,0.009521,-0.993042,0.052916,0.523969,0.082748,51,274,576,5472
1644159908.526979,-0.00946,0.008972,-0.990784,0.297191,0.294962,-0.14626,51,274,583,5520
1644159908.575358,-0.009277,0.010498,-0.992676,0.312458,0.523969,-0.115725,51,271,578,5424
1644159908.623994,-0.013916,0.009033,-0.991028,0.35826,0.447634,-0.192061,42,275,582,5424
1644159908.672777,-0.012512,0.00946,-0.991821,0.327725,0.386565,-0.100458,48,266,571,5408
1644159908.723342,-0.01239,0.008484,-0.994141,0.205588,0.325496,-0.008855,52,268,577,5488
1644159908.773614,-0.009949,0.009277,-0.993042,0.281924,0.386565,0.021679,57,268,584,5456
1644159908.819674,-0.008667,0.007324,-0.989868,0.236122,0.325496,-0.130992,52,275,577,5424
1644159908.914126,-0.012451,0.008484,-0.992188,0.236122,0.264427,-0.115725,53,271,566,5424
1644159908.962532,-0.009644,0.009338,-0.993225,0.220855,0.386565,0.082748,48,266,576,5456
1644159909.010885,-0.00708,0.012207,-0.995361,0.098718,0.340763,-0.085191,46,281,573,5424
1644159909.061752,-0.01178,0.007385,-0.991577,0.205588,0.508702,0.098015,52,282,582,5360
1644159909.107668,-0.011536,0.010559,-0.991882,0.281924,0.523969,-0.008855,47,273,577,5408
1644159909.156027,-0.010498,0.010986,-0.995667,0.281924,0.325496,-0.024122,52,268,570,5456
1644159909.204426,-0.010681,0.009216,-0.991577,0.266656,0.478168,-0.14626,46,281,580,5456
1644159909.252811,-0.010071,0.008179,-0.993225,0.144519,0.493435,-0.207328,41,274,587,5456
1644159909.301184,-0.008667,0.010803,-0.990906,0.266656,0.493435,0.052214,54,268,577,5424
1644159909.349605,-0.00824,0.009277,-0.990662,0.388794,0.462901,-0.008855,48,274,576,5472
1644159909.39799,-0.013062,0.008911,-0.993286,0.404061,0.508702,-0.069924,53,266,569,5472
1644159909.446393,-0.006287,0.010254,-0.992432,0.35826,0.356031,-0.024122,53,274,566,5472
1644159909.494748,-0.009277,0.010254,-0.991333,0.266656,0.554504,-0.176794,52,263,579,5456
1644159909.543188,-0.006958,0.009827,-0.991211,0.327725,0.493435,0.006412,59,273,572,5456
1644159909.591535,-0.009644,0.009705,-0.991882,0.098718,0.417099,-0.176794,55,279,578,5472
1644159909.639926,-0.013062,0.010193,-0.990967,0.220855,0.569771,-0.115725,48,266,569,5408
1644159909.688328,-0.010315,0.008118,-0.992737,0.312458,0.310229,-0.14626,54,285,577,5424
1644159909.736723,-0.011475,0.012207,-0.992004,0.159786,0.478168,0.067481,53,281,573,5424
1644159909.785146,-0.011047,0.009766,-0.992981,0.251389,0.432366,0.006412,51,264,569,5488
1644159909.835239,-0.00885,0.01123,-0.992249,0.220855,0.539237,-0.207328,43,264,576,5424
1644159909.884732,-0.010071,0.010071,-0.989929,0.144519,0.447634,-0.069924,48,269,580,5472
1644159909.934893,-0.00946,0.010132,-0.992554,0.220855,0.569771,-0.085191,53,281,576,5456
1644159909.979632,-0.010864,0.012268,-0.992432,0.144519,0.447634,-0.069924,53,269,578,5456
1644159910.078025,-0.012329,0.007935,-0.993652,0.46513,0.493435,-0.100458,49,277,582,5424
1644159910.123897,-0.008972,0.009888,-0.994019,0.129252,0.508702,-0.069924,53,269,573,5472
1644159910.172244,-0.008545,0.009216,-0.993286,0.297191,0.478168,-0.115725,58,264,569,5472
1644159910.220622,-0.012451,0.007751,-0.989807,0.327725,0.356031,-0.069924,51,269,578,5488
1644159910.269009,-0.012695,0.011169,-0.991455,0.129252,0.401832,-0.130992,47,270,579,5424
1644159910.317359,-0.01178,0.009033,-0.992249,0.205588,0.462901,-0.115725,57,270,579,5424
1644159910.365783,-0.009888,0.008423,-0.99408,0.297191,0.325496,0.052214,43,279,576,5424
1644159910.414187,-0.00946,0.008362,-0.991455,0.159786,0.432366,-0.192061,51,274,559,5456
1644159910.462587,-0.007751,0.009644,-0.991394,0.327725,0.401832,0.021679,51,269,580,5488
1644159910.510926,-0.010315,0.013,-0.991943,0.281924,0.417099,-0.192061,48,279,580,5424
1644159910.559336,-0.010681,0.009766,-0.993591,0.236122,0.462901,-0.024122,41,271,578,5472
1644159910.607719,-0.010498,0.009338,-0.993774,0.388794,0.417099,-0.039389,57,273,572,5456
1644159910.656128,-0.009216,0.010071,-0.992432,0.205588,0.401832,-0.085191,59,270,570,5456
1644159910.704512,-0.012573,0.011292,-0.993591,0.342992,0.356031,-0.14626,53,271,576,5424
1644159910.752882,-0.013794,0.008484,-0.989685,0.190321,0.432366,-0.054656,52,273,575,5456
1644159910.80128,-0.011536,0.009033,-0.993225,0.297191,0.294962,-0.085191,55,271,573,5472
1644159910.850161,-0.012512,0.009338,-0.993896,0.159786,0.417099,-0.085191,55,274,576,5424
1644159910.900129,-0.010376,0.007019,-0.99176,0.205588,0.478168,-0.100458,45,268,577,5424
1644159910.950478,-0.009705,0.009766,-0.992432,0.266656,0.447634,-0.130992,43,274,585,5456
1644159911.000856,-0.006775,0.009277,-0.993347,0.297191,0.417099,-0.024122,42,263,579,5488
1644159911.095326,-0.011841,0.007141,-0.992493,0.098718,0.325496,0.021679,60,266,571,5456
1644159911.14005,-0.009827,0.009888,-0.994995,0.404061,0.401832,-0.14626,48,279,587,5408
1644159911.188398,-0.012207,0.005676,-0.991211,0.220855,0.386565,-0.039389,52,263,572,5424
1644159911.236786,-0.011047,0.009888,-0.993713,0.327725,0.493435,-0.100458,52,277,577,5472
1644159911.285197,-0.009216,0.01178,-0.995239,0.129252,0.340763,-0.039389,61,282,575,5456
1644159911.333572,-0.01178,0.011414,-0.993286,0.220855,0.401832,-0.085191,57,273,568,5456
1644159911.381961,-0.009888,0.010437,-0.993896,0.35826,0.310229,-0.024122,52,277,568,5456
1644159911.430347,-0.010315,0.008667,-0.990723,0.236122,0.462901,-0.161527,57,282,572,5424
1644159911.478739,-0.015015,0.009766,-0.992676,0.281924,0.508702,-0.14626,46,283,576,5456
1644159911.527163,-0.012573,0.010071,-0.992004,0.08345,0.325496,-0.085191,49,270,577,5456
1644159911.575491,-0.009033,0.009888,-0.991821,0.434595,0.310229,-0.14626,48,264,571,5488
1644159911.623914,-0.006775,0.010071,-0.990906,0.144519,0.539237,-0.039389,52,277,577,5424
1644159911.672288,-0.011475,0.010864,-0.991699,0.266656,0.371298,-0.054656,58,281,564,5408
1644159911.720682,-0.010986,0.008667,-0.992004,0.190321,0.386565,0.052214,60,276,578,5408
1644159911.769073,-0.010193,0.011047,-0.992371,0.175053,0.447634,-0.115725,45,282,582,5456
1644159911.817466,-0.011108,0.012085,-0.990845,0.068183,0.462901,0.006412,57,265,570,5456
1644159911.865894,-0.008484,0.008667,-0.990601,0.144519,0.432366,-0.207328,57,265,568,5456
1644159911.914868,-0.008545,0.010437,-0.991638,0.175053,0.417099,0.036947,42,273,575,5472
1644159911.965273,-0.012695,0.009583,-0.993042,0.342992,0.340763,-0.024122,54,268,575,5472
1644159912.015684,-0.010071,0.009033,-0.990112,0.434595,0.417099,-0.024122,53,274,578,5456
1644159912.107877,-0.011353,0.009277,-0.99469,0.068183,0.340763,-0.161527,61,273,577,5456
1644159912.156208,-0.013,0.007568,-0.991272,0.098718,0.462901,-0.024122,34,276,569,5424
1644159912.204834,-0.01123,0.008118,-0.992676,0.251389,0.447634,-0.054656,49,277,563,5456
1644159912.252977,-0.012085,0.008301,-0.993042,0.297191,0.417099,-0.14626,51,269,578,5520
1644159912.301353,-0.01355,0.011108,-0.992676,0.175053,0.417099,0.006412,55,274,580,5424
1644159912.34974,-0.01123,0.004761,-0.991516,0.266656,0.432366,-0.192061,54,275,579,5536
1644159912.398135,-0.007019,0.00946,-0.99115,0.297191,0.432366,-0.069924,51,276,576,5488
1644159912.446522,-0.009521,0.011536,-0.991516,0.327725,0.371298,-0.14626,49,280,582,5520
1644159912.494909,-0.010132,0.011719,-0.993347,0.159786,0.294962,-0.161527,59,282,577,5424
1644159912.543303,-0.011536,0.010071,-0.99292,0.175053,0.478168,-0.024122,55,283,571,5456
1644159912.591692,-0.009949,0.009216,-0.991516,0.236122,0.340763,-0.100458,47,280,579,5472
1644159912.640055,-0.011963,0.009216,-0.990173,0.342992,0.432366,-0.085191,60,276,573,5456
1644159912.688474,-0.014648,0.010498,-0.991272,0.373527,0.478168,-0.008855,60,279,580,5488
1644159912.73687,-0.008911,0.008362,-0.992981,0.266656,0.325496,-0.14626,45,277,582,5408
1644159912.785258,-0.00885,0.008545,-0.991394,0.190321,0.401832,-0.161527,54,275,575,5456
1644159912.833645,-0.00769,0.009399,-0.989929,0.220855,0.417099,-0.054656,48,269,580,5456
1644159912.882084,-0.011902,0.011169,-0.992126,0.251389,0.569771,-0.085191,47,277,584,5360
1644159912.930752,-0.010071,0.009277,-0.991638,0.190321,0.294962,-0.314198,39,271,569,5472
1644159912.978843,-0.01123,0.009399,-0.991516,0.327725,0.478168,0.067481,47,273,572,5424
1644159913.028735,-0.011292,0.009399,-0.993408,0.281924,0.310229,-0.14626,55,279,571,5456
1644159913.085653,-0.012085,0.012573,-0.991638,0.144519,0.447634,-0.14626,49,270,586,5472
1644159913.128626,-0.01178,0.007385,-0.993408,0.449863,0.417099,-0.085191,49,277,582,5456
1644159913.173388,-0.012634,0.010498,-0.99054,0.205588,0.447634,-0.222595,35,290,579,5424
1644159913.269143,-0.012573,0.009094,-0.994019,0.159786,0.294962,-0.024122,54,270,572,5456
1644159913.317519,-0.012268,0.009705,-0.993347,0.266656,0.447634,0.021679,54,273,577,5408
1644159913.365905,-0.009521,0.009338,-0.992371,0.281924,0.432366,-0.130992,47,275,572,5536
1644159913.414308,-0.009521,0.007141,-0.990967,0.236122,0.478168,-0.176794,52,277,577,5472
1644159913.462712,-0.011475,0.007935,-0.990906,0.220855,0.600305,-0.130992,54,282,582,5456
1644159913.51107,-0.00885,0.011414,-0.994446,0.144519,0.508702,-0.36,43,276,573,5456
1644159913.559476,-0.01062,0.010803,-0.990234,0.35826,0.462901,-0.054656,45,268,572,5424
1644159913.607882,-0.010925,0.006592,-0.992065,0.327725,0.432366,-0.115725,58,271,576,5488
1644159913.65627,-0.009399,0.009094,-0.991577,0.312458,0.371298,-0.14626,45,277,575,5344
1644159913.704762,-0.01178,0.012756,-0.990845,0.236122,0.447634,-0.222595,46,271,576,5456
1644159913.753063,-0.012939,0.008972,-0.991882,0.281924,0.233893,-0.069924,48,281,578,5376
1644159913.801487,-0.008545,0.007446,-0.992798,0.175053,0.462901,0.052214,49,277,570,5456
1644159913.849868,-0.011292,0.010864,-0.992554,0.159786,0.523969,-0.024122,52,282,579,5424
1644159913.898227,-0.008789,0.01062,-0.99231,0.342992,0.294962,-0.100458,43,281,576,5472
1644159913.946648,-0.008423,0.008728,-0.992065,0.08345,0.386565,-0.039389,54,282,582,5408
1644159913.995087,-0.011414,0.008057,-0.990173,0.190321,0.340763,-0.176794,54,275,577,5488
1644159914.060894,-0.011475,0.007996,-0.99176,0.35826,0.340763,-0.192061,59,285,579,5424
1644159914.096313,-0.008545,0.011658,-0.99231,0.404061,0.432366,0.159084,51,281,583,5408
1644159914.140379,-0.013,0.011658,-0.990112,0.159786,0.539237,-0.192061,48,264,576,5488
1644159914.190343,-0.011047,0.008911,-0.995056,0.175053,0.432366,-0.054656,53,279,578,5424
1644159914.240658,-0.012695,0.007935,-0.991638,0.129252,0.523969,-0.176794,51,266,576,5488
1644159914.285893,-0.009888,0.010254,-0.993469,0.312458,0.401832,-0.054656,58,274,576,5456
1644159914.38238,-0.006287,0.010071,-0.992981,0.312458,0.386565,-0.115725,47,282,577,5456
1644159914.430475,-0.012085,0.008911,-0.993225,0.35826,0.539237,-0.054656,48,283,564,5456
1644159914.478893,-0.013489,0.008118,-0.991211,0.129252,0.310229,-0.176794,49,275,572,5456
1644159914.527238,-0.012817,0.009521,-0.993164,0.175053,0.356031,-0.130992,51,274,569,5424
1644159914.575669,-0.012207,0.010193,-0.989136,0.297191,0.356031,-0.085191,45,270,577,5456
1644159914.624083,-0.012329,0.006775,-0.991882,0.266656,0.417099,-0.115725,42,285,579,5456
1644159914.672466,-0.013123,0.012146,-0.991882,0.312458,0.600305,-0.130992,41,271,573,5424
1644159914.720841,-0.011719,0.007812,-0.992981,0.251389,0.569771,-0.085191,51,283,580,5456
1644159914.76923,-0.007263,0.008911,-0.993225,0.190321,0.600305,-0.14626,36,283,573,5424
1644159914.817662,-0.010132,0.009888,-0.99408,0.236122,0.386565,-0.100458,55,279,573,5520
1644159914.866056,-0.008057,0.009949,-0.989868,0.297191,0.401832,-0.024122,55,271,573,5520
1644159914.914447,-0.010315,0.009766,-0.991516,0.281924,0.432366,-0.039389,45,270,586,5472
1644159914.962835,-0.012146,0.01001,-0.99408,0.175053,0.432366,-0.115725,51,279,571,5472
1644159915.011183,-0.009827,0.010559,-0.992798,0.144519,0.401832,0.067481,35,287,575,5456
1644159915.107936,-0.012329,0.006592,-0.992981,0.205588,0.386565,-0.14626,52,280,584,5456
1644159915.156312,-0.009338,0.01001,-0.993774,0.251389,0.371298,-0.085191,40,277,575,5424
1644159915.204872,-0.007385,0.008301,-0.991516,0.098718,0.462901,-0.024122,52,270,572,5536
1644159915.253136,-0.011108,0.007446,-0.99176,0.175053,0.432366,0.052214,48,279,573,5456
1644159915.301512,-0.007568,0.00946,-0.99292,0.281924,0.417099,0.082748,49,268,575,5456
1644159915.349897,-0.013794,0.010315,-0.993225,0.312458,0.294962,-0.008855,52,275,572,5456
1644159915.398281,-0.010986,0.009644,-0.992554,0.236122,0.401832,-0.176794,43,274,578,5424
1644159915.446652,-0.008911,0.009583,-0.990967,0.175053,0.478168,-0.069924,46,271,576,5424
1644159915.495137,-0.01416,0.006775,-0.993103,0.220855,0.417099,-0.069924,54,273,579,5456
1644159915.543453,-0.010437,0.01001,-0.990662,0.297191,0.325496,-0.085191,52,273,577,5424
1644159915.591858,-0.010986,0.008484,-0.992615,0.052916,0.432366,-0.161527,55,279,580,5456
1644159915.640243,-0.009827,0.008789,-0.992859,0.297191,0.340763,-0.100458,53,271,576,5456
1644159915.688631,-0.009705,0.008362,-0.995056,0.190321,0.569771,-0.130992,52,273,579,5488
1644159915.737021,-0.01062,0.00885,-0.992493,0.266656,0.310229,-0.100458,45,277,577,5408
1644159915.785383,-0.009521,0.009338,-0.991821,0.404061,0.417099,-0.192061,48,271,576,5424
1644159915.833842,-0.01062,0.009827,-0.991943,0.35826,0.417099,-0.14626,48,264,578,5456
1644159915.882279,-0.008972,0.010071,-0.991699,0.236122,0.417099,-0.085191,53,281,571,5472
1644159915.930613,-0.011353,0.008545,-0.989563,0.342992,0.294962,-0.115725,52,268,584,5408
1644159915.979022,-0.010376,0.010071,-0.991028,0.388794,0.401832,-0.161527,49,270,575,5424
1644159916.028813,-0.009888,0.00885,-0.990906,0.236122,0.417099,-0.024122,51,274,578,5472
1644159916.087773,-0.010071,0.00824,-0.990845,0.220855,0.401832,-0.115725,55,276,583,5456
1644159916.128591,-0.012695,0.009888,-0.992798,0.281924,0.371298,-0.161527,49,265,584,5424
1644159916.173131,-0.012207,0.007874,-0.994019,0.144519,0.523969,-0.008855,49,282,582,5488
1644159916.269295,-0.009094,0.01001,-0.995239,0.08345,0.356031,-0.069924,52,273,577,5488
1644159916.317676,-0.008911,0.009705,-0.993164,0.312458,0.523969,-0.222595,48,264,569,5408
1644159916.366066,-0.007324,0.013428,-0.991699,0.175053,0.371298,-0.130992,43,276,578,5456
1644159916.414482,-0.01001,0.008606,-0.991943,0.159786,0.432366,-0.008855,47,270,575,5472
1644159916.462857,-0.011536,0.010498,-0.993408,0.281924,0.554504,-0.100458,45,273,568,5456
1644159916.511255,-0.008667,0.010803,-0.991211,0.281924,0.356031,0.098015,49,280,575,5408
1644159916.559641,-0.009521,0.010925,-0.992371,0.144519,0.493435,-0.176794,57,270,570,5424
1644159916.608038,-0.011414,0.010986,-0.992126,0.129252,0.462901,-0.085191,48,266,578,5408
1644159916.656426,-0.007324,0.008179,-0.993286,0.266656,0.432366,-0.054656,35,277,568,5456
1644159916.704839,-0.00824,0.009155,-0.994019,0.373527,0.493435,0.021679,42,277,582,5472
1644159916.753223,-0.010071,0.010803,-0.991516,0.220855,0.539237,-0.039389,51,276,578,5488
1644159916.801599,-0.013184,0.007935,-0.991882,0.35826,0.539237,-0.054656,57,285,577,5456
1644159916.850037,-0.007629,0.007751,-0.994507,0.190321,0.523969,-0.039389,55,283,583,5456
1644159916.898415,-0.007385,0.010681,-0.992737,0.297191,0.386565,-0.115725,57,277,579,5472
1644159916.946793,-0.010864,0.011047,-0.989868,0.251389,0.386565,-0.039389,48,266,583,5424
1644159916.995239,-0.009155,0.004211,-0.991211,0.312458,0.386565,-0.283664,48,283,578,5408
1644159917.057531,-0.005432,0.008911,-0.993042,0.205588,0.539237,-0.25313,57,268,582,5488
1644159917.096222,-0.010864,0.012207,-0.991211,0.266656,0.417099,-0.069924,52,273,582,5424
1644159917.145333,-0.011108,0.010681,-0.992126,0.373527,0.447634,-0.14626,49,263,577,5424
1644159917.237118,-0.015381,0.010376,-0.990906,0.205588,0.478168,-0.054656,46,279,571,5456
1644159917.28546,-0.007202,0.00116,-0.994995,0.190321,0.325496,-0.222595,48,281,573,5456
1644159917.333874,-0.016968,0.00592,-0.989807,0.251389,0.401832,-0.115725,51,274,573,5424
1644159917.382387,-0.010193,0.006775,-0.995605,0.236122,0.432366,-0.176794,43,266,571,5456
1644159917.43064,-0.00885,0.012268,-0.992981,0.281924,0.325496,-0.100458,46,271,566,5456
1644159917.479028,-0.014221,0.00946,-0.992126,0.342992,0.371298,-0.100458,47,275,572,5424
1644159917.527418,-0.005066,0.007141,-0.994446,0.297191,0.386565,-0.130992,51,274,576,5424
1644159917.575801,-0.011169,0.008667,-0.990601,0.297191,0.233893,0.067481,46,274,569,5456
1644159917.62422,-0.011169,0.011169,-0.991455,0.419328,0.478168,0.12855,53,286,571,5360
1644159917.672635,-0.008545,0.006409,-0.99176,0.236122,0.508702,-0.207328,48,274,583,5424
1644159917.720994,-0.009094,0.012268,-0.98999,0.098718,0.325496,-0.130992,49,273,568,5424
1644159917.769386,-0.00946,0.009338,-0.991333,0.35826,0.508702,-0.008855,42,275,579,5488
1644159917.817763,-0.008789,0.008545,-0.99353,0.220855,0.447634,-0.130992,49,270,579,5424
1644159917.866199,-0.007935,0.011414,-0.990784,0.266656,0.401832,-0.024122,45,273,584,5408
1644159917.914634,-0.013916,0.007019,-0.992554,0.190321,0.432366,-0.192061,48,283,578,5360
1644159917.962998,-0.008911,0.008179,-0.991089,0.159786,0.432366,-0.024122,54,277,582,5424
1644159918.011377,-0.011353,0.007751,-0.990906,0.251389,0.401832,-0.161527,49,273,582,5456
1644159918.074822,-0.012695,0.007385,-0.993042,0.281924,0.432366,-0.130992,55,281,573,5488
1644159918.156565,-0.012268,0.009644,-0.991089,0.251389,0.539237,-0.100458,54,280,568,5424
1644159918.204904,-0.00824,0.006592,-0.991577,0.251389,0.310229,-0.176794,64,273,577,5472
1644159918.253275,-0.007507,0.009399,-0.991882,0.220855,0.554504,-0.130992,58,276,578,5424
1644159918.30167,-0.009338,0.010498,-0.99292,0.449863,0.294962,-0.161527,42,280,570,5408
1644159918.350042,-0.010315,0.008301,-0.99115,0.297191,0.340763,0.067481,42,280,577,5488
1644159918.398428,-0.008362,0.00769,-0.993042,0.266656,0.279695,-0.130992,49,265,572,5456
1644159918.446835,-0.011658,0.010742,-0.992188,0.251389,0.508702,-0.161527,59,268,568,5456
1644159918.495221,-0.010315,0.007568,-0.992188,0.312458,0.356031,-0.054656,54,270,582,5488
1644159918.543611,-0.010315,0.008972,-0.996765,0.236122,0.340763,-0.008855,54,275,565,5424
1644159918.591988,-0.011536,0.009277,-0.991638,0.266656,0.646107,0.006412,54,282,577,5488
1644159918.640391,-0.00946,0.00824,-0.992432,0.312458,0.401832,-0.130992,54,275,579,5424
1644159918.688788,-0.011719,0.007385,-0.99469,0.327725,0.508702,-0.100458,47,282,577,5488
1644159918.737165,-0.008911,0.008362,-0.993469,0.190321,0.310229,0.006412,47,280,575,5456
1644159918.785567,-0.008789,0.012024,-0.992981,0.266656,0.371298,0.067481,51,279,578,5488
1644159918.833947,-0.010742,0.008423,-0.991699,0.342992,0.493435,-0.115725,46,274,576,5424
1644159918.882393,-0.011841,0.010071,-0.991516,0.098718,0.401832,-0.207328,53,276,578,5456
1644159918.930744,-0.009521,0.010254,-0.991333,0.251389,0.523969,-0.069924,49,270,572,5456
1644159918.979236,-0.01001,0.009277,-0.993591,0.251389,0.478168,0.021679,57,282,577,5456
1644159919.027564,-0.012878,0.007324,-0.992432,0.266656,0.356031,-0.100458,58,279,578,5408
1644159919.085131,-0.010498,0.008301,-0.990051,0.037649,0.279695,-0.161527,47,268,572,5456
1644159919.127575,-0.011658,0.00946,-0.991211,0.175053,0.417099,-0.039389,51,259,569,5408
1644159919.178287,-0.010254,0.008545,-0.991699,0.297191,0.340763,0.006412,51,274,566,5472
1644159919.22215,-0.014221,0.010071,-0.991821,0.281924,0.356031,-0.161527,41,276,569,5456
1644159919.317885,-0.013428,0.00946,-0.992188,0.236122,0.310229,-0.14626,53,262,580,5472
1644159919.366244,-0.010498,0.010498,-0.992249,0.281924,0.447634,-0.054656,42,277,572,5424
1644159919.414678,-0.011902,0.008423,-0.991089,0.144519,0.356031,-0.161527,54,277,565,5424
1644159919.463097,-0.011536,0.00885,-0.992676,0.175053,0.523969,-0.25313,36,283,576,5424
1644159919.511452,-0.009033,0.007751,-0.992615,0.373527,0.539237,-0.222595,41,281,576,5456
1644159919.559809,-0.008972,0.010925,-0.992188,0.098718,0.386565,-0.024122,45,277,575,5456
1644159919.6082,-0.012207,0.010498,-0.992493,0.129252,0.279695,0.021679,49,277,570,5408
1644159919.656613,-0.00946,0.007996,-0.993164,0.297191,0.340763,-0.100458,46,269,578,5424
1644159919.705152,-0.013123,0.009033,-0.99176,0.205588,0.432366,-0.14626,45,277,577,5456
1644159919.753404,-0.00946,0.008484,-0.991455,0.220855,0.417099,-0.268397,54,277,575,5408
1644159919.801766,-0.013794,0.008118,-0.992859,0.175053,0.386565,-0.039389,52,270,584,5488
1644159919.850178,-0.010376,0.009949,-0.992432,0.281924,0.462901,-0.085191,43,276,578,5456
1644159919.898562,-0.015015,0.007446,-0.992493,0.236122,0.432366,-0.039389,51,286,585,5456
1644159919.946954,-0.009521,0.008789,-0.992432,0.098718,0.569771,-0.024122,60,279,569,5408
1644159919.995345,-0.010071,0.008606,-0.992249,0.236122,0.371298,-0.161527,53,281,578,5520
1644159920.059628,-0.008728,0.007629,-0.993103,0.281924,0.478168,-0.161527,54,268,582,5344
1644159920.094164,-0.010193,0.009521,-0.989807,0.297191,0.386565,-0.14626,52,282,582,5456
1644159920.14047,-0.008545,0.009033,-0.990906,0.159786,0.569771,-0.100458,43,274,564,5424
1644159920.189005,-0.010376,0.009277,-0.992249,0.190321,0.432366,-0.192061,52,282,582,5424
1644159920.238152,-0.011902,0.007385,-0.99176,0.266656,0.325496,-0.054656,46,271,580,5424
1644159920.288377,-0.010437,0.010803,-0.991821,0.129252,0.447634,-0.054656,48,276,571,5472
1644159920.338402,-0.013428,0.011658,-0.992432,0.281924,0.432366,-0.115725,64,277,577,5424
1644159920.383552,-0.01123,0.008118,-0.994202,0.251389,0.478168,-0.008855,41,276,569,5424
1644159920.479187,-0.010376,0.010376,-0.992126,0.35826,0.371298,-0.054656,52,273,572,5424
1644159920.527565,-0.007935,0.008789,-0.992371,0.327725,0.462901,-0.192061,58,276,576,5456
1644159920.575959,-0.010498,0.007812,-0.993347,0.144519,0.432366,-0.161527,49,275,572,5456
1644159920.62435,-0.010498,0.008301,-0.994324,0.449863,0.432366,-0.161527,46,288,583,5456
1644159920.67276,-0.011353,0.009766,-0.994141,0.220855,0.24916,-0.100458,51,271,564,5456
1644159920.721146,-0.009766,0.008606,-0.993347,0.373527,0.401832,0.021679,48,276,583,5488
1644159920.769521,-0.011719,0.00885,-0.991577,0.281924,0.462901,-0.100458,52,270,575,5456
1644159920.817944,-0.012695,0.007446,-0.991028,0.205588,0.401832,-0.115725,52,277,575,5424
1644159920.866342,-0.009338,0.008423,-0.991089,0.220855,0.401832,-0.039389,38,275,572,5408
1644159920.914742,-0.009155,0.011047,-0.994507,0.098718,0.325496,-0.14626,49,270,572,5472
1644159920.963148,-0.009338,0.009766,-0.99176,0.312458,0.554504,-0.069924,48,279,566,5456
1644159921.011505,-0.010681,0.009338,-0.990601,0.297191,0.523969,-0.161527,59,282,586,5472
1644159921.068549,-0.008911,0.009705,-0.991455,0.190321,0.310229,-0.100458,51,281,576,5408
1644159921.108272,-0.01062,0.010925,-0.991394,0.327725,0.432366,0.021679,58,269,571,5344
1644159921.156646,-0.012939,0.00946,-0.992615,0.312458,0.523969,-0.14626,55,276,583,5456
1644159921.205073,-0.009888,0.010132,-0.990112,0.236122,0.218626,-0.069924,45,268,584,5488
1644159921.253392,-0.011108,0.011536,-0.989929,0.205588,0.447634,-0.100458,46,274,566,5456
1644159921.301809,-0.009338,0.010132,-0.994263,0.373527,0.417099,-0.100458,51,264,576,5456
1644159921.350504,-0.012573,0.009888,-0.990723,0.327725,0.478168,-0.130992,49,268,577,5456
1644159921.3995,-0.012268,0.011169,-0.992065,0.297191,0.294962,-0.176794,48,269,571,5456
1644159921.449693,-0.012085,0.008606,-0.991943,0.281924,0.585038,-0.192061,49,275,577,5456
1644159921.500352,-0.012146,0.008362,-0.992065,0.236122,0.493435,-0.100458,48,271,578,5456
1644159921.544928,-0.010132,0.011169,-0.991333,0.144519,0.493435,-0.14626,48,279,566,5456
1644159921.640583,-0.010498,0.008179,-0.993713,0.220855,0.325496,-0.039389,55,274,566,5520
1644159921.688927,-0.011108,0.007996,-0.992798,0.236122,0.356031,-0.130992,49,273,575,5376
1644159921.73732,-0.010498,0.010071,-0.990356,0.236122,0.432366,0.021679,53,266,576,5408
1644159921.785701,-0.012207,0.013306,-0.992004,0.190321,0.462901,-0.085191,54,282,572,5456
1644159921.834148,-0.013123,0.011414,-0.992249,0.266656,0.386565,-0.14626,52,273,572,5456
1644159921.882542,-0.014648,0.011902,-0.992981,0.281924,0.401832,-0.176794,43,279,573,5456
1644159921.930952,-0.011841,0.009827,-0.993896,0.190321,0.371298,-0.069924,51,276,576,5360
1644159921.979305,-0.013306,0.008118,-0.995789,0.175053,0.447634,-0.054656,54,273,579,5424
1644159922.027717,-0.012085,0.010437,-0.992615,0.251389,0.325496,-0.069924,53,271,573,5424
1644159922.078131,-0.010498,0.009705,-0.991699,0.236122,0.417099,-0.161527,54,273,582,5472
1644159922.124455,-0.011292,0.008606,-0.995483,0.251389,0.24916,-0.115725,57,273,577,5456
1644159922.172821,-0.011841,0.012329,-0.992065,0.190321,0.233893,0.036947,54,280,584,5488
1644159922.221211,-0.008545,0.008057,-0.989929,0.251389,0.539237,-0.069924,48,279,583,5456
1644159922.269598,-0.010315,0.007202,-0.991821,0.175053,0.432366,-0.130992,51,269,573,5456
1644159922.318001,-0.009705,0.012451,-0.993469,0.327725,0.523969,-0.130992,57,277,577,5424
1644159922.366382,-0.009277,0.010437,-0.994202,0.205588,0.371298,-0.100458,55,286,569,5536
1644159922.41478,-0.010437,0.01062,-0.988892,0.175053,0.447634,-0.100458,46,276,580,5456
1644159922.46317,-0.012512,0.010254,-0.991089,0.251389,0.462901,0.006412,54,277,572,5424
1644159922.51156,-0.009399,0.009155,-0.990051,0.342992,0.478168,-0.115725,48,271,578,5376
1644159922.560093,-0.012146,0.010742,-0.992126,0.205588,0.340763,-0.115725,58,279,578,5520
1644159922.610166,-0.011841,0.010132,-0.993713,0.220855,0.493435,0.006412,54,268,579,5408
1644159922.660531,-0.010437,0.011658,-0.993774,0.098718,0.371298,0.006412,53,279,578,5424
1644159922.705746,-0.010803,0.009583,-0.989197,0.236122,0.279695,0.021679,45,273,579,5408
1644159922.801892,-0.009766,0.008423,-0.992065,0.175053,0.585038,-0.192061,51,274,576,5472
1644159922.850358,-0.010376,0.010193,-0.991699,0.190321,0.432366,-0.192061,53,279,576,5360
1644159922.898704,-0.011536,0.008301,-0.99231,0.190321,0.325496,-0.085191,54,270,577,5456
1644159922.947098,-0.010376,0.010498,-0.993591,0.205588,0.386565,-0.054656,52,275,575,5472
1644159922.995487,-0.006836,0.009155,-0.994263,0.175053,0.432366,-0.130992,39,276,576,5472
1644159923.058791,-0.00946,0.01355,-0.992737,0.175053,0.356031,-0.14626,48,286,576,5424
1644159923.092746,-0.009583,0.007324,-0.991089,0.236122,0.569771,-0.130992,48,269,587,5472
1644159923.1408,-0.008118,0.009644,-0.992004,0.007115,0.493435,-0.039389,41,271,576,5472
1644159923.189012,-0.010254,0.010742,-0.990967,0.327725,0.264427,-0.130992,54,273,570,5456
1644159923.2374,-0.011597,0.010254,-0.991943,0.281924,0.356031,-0.039389,47,273,572,5472
1644159923.285787,-0.010315,0.010925,-0.993286,0.297191,0.401832,0.036947,47,280,575,5488
1644159923.334195,-0.011963,0.011353,-0.993103,0.266656,0.508702,-0.237863,51,271,576,5424
1644159923.382582,-0.012329,0.009521,-0.992737,0.251389,0.447634,-0.054656,51,286,580,5456
1644159923.430966,-0.012878,0.008972,-0.991638,0.220855,0.401832,-0.100458,53,276,583,5456
1644159923.479343,-0.009583,0.00885,-0.992004,0.266656,0.493435,-0.008855,51,269,573,5520
1644159923.527732,-0.011902,0.007263,-0.990479,0.46513,0.447634,-0.176794,49,265,570,5488
1644159923.576374,-0.011597,0.009583,-0.995789,0.251389,0.386565,-0.039389,46,274,566,5424
1644159923.626816,-0.009583,0.006409,-0.992249,0.297191,0.432366,-0.085191,45,285,579,5424
1644159923.676942,-0.011414,0.010925,-0.992432,0.236122,0.478168,-0.237863,62,269,583,5424
1644159923.722026,-0.011108,0.007874,-0.990051,0.159786,0.447634,-0.039389,52,270,572,5472
1644159923.81809,-0.008911,0.008362,-0.99353,0.159786,0.401832,-0.176794,54,277,579,5456
1644159923.866499,-0.009338,0.008057,-0.992004,0.205588,0.417099,-0.039389,53,281,573,5456
1644159923.914895,-0.006592,0.009949,-0.99353,0.449863,0.233893,-0.192061,49,277,572,5376
1644159923.963284,-0.01062,0.00769,-0.994995,0.297191,0.417099,-0.085191,47,277,577,5488
1644159924.011664,-0.010071,0.007935,-0.990356,0.037649,0.356031,-0.115725,52,275,579,5488
1644159924.06011,-0.007568,0.009705,-0.991211,0.266656,0.386565,-0.14626,61,273,589,5456
1644159924.108442,-0.01239,0.010132,-0.992371,0.220855,0.478168,-0.161527,51,274,583,5360
1644159924.1568,-0.00946,0.006958,-0.991516,0.236122,0.401832,-0.039389,43,271,583,5488
1644159924.205263,-0.011597,0.008789,-0.992859,0.159786,0.401832,-0.192061,43,269,571,5456
1644159924.253585,-0.010559,0.008606,-0.993164,0.297191,0.340763,-0.039389,55,276,571,5360
1644159924.301975,-0.010132,0.007019,-0.991882,0.129252,0.554504,-0.039389,43,274,576,5376
1644159924.350366,-0.009338,0.01178,-0.995728,0.251389,0.386565,-0.176794,51,269,583,5488
1644159924.398717,-0.009766,0.008667,-0.992493,0.297191,0.447634,-0.176794,53,276,578,5472
1644159924.44715,-0.00946,0.007568,-0.992065,0.434595,0.432366,-0.130992,46,288,573,5376
1644159924.495528,-0.008667,0.009705,-0.991638,0.342992,0.539237,-0.14626,59,273,586,5488
1644159924.543929,-0.012207,0.009033,-0.992004,0.35826,0.417099,-0.100458,51,266,578,5520
1644159924.59233,-0.011902,0.009827,-0.991577,0.190321,0.371298,-0.054656,54,263,582,5520
1644159924.640695,-0.010132,0.011292,-0.991028,0.251389,0.386565,-0.115725,46,269,573,5456
1644159924.689073,-0.01239,0.007141,-0.99408,0.129252,0.447634,-0.130992,46,271,576,5456
1644159924.737619,-0.010559,0.008606,-0.991577,0.266656,0.386565,-0.192061,49,273,577,5408
1644159924.7881,-0.008667,0.010742,-0.990051,0.129252,0.371298,-0.115725,46,266,580,5456
1644159924.838632,-0.010986,0.005371,-0.991455,0.159786,0.417099,-0.25313,54,282,575,5472
1644159924.883667,-0.010437,0.011108,-0.991882,0.388794,0.371298,-0.130992,51,288,573,5456
1644159924.979468,-0.009216,0.009033,-0.990601,0.144519,0.432366,-0.054656,55,279,580,5456
1644159925.027822,-0.010925,0.007874,-0.990601,0.327725,0.386565,-0.069924,52,280,568,5424
1644159925.078598,-0.010315,0.005737,-0.992188,0.159786,0.401832,-0.192061,47,277,568,5456
1644159925.124644,-0.012268,0.008728,-0.993103,0.220855,0.493435,-0.100458,48,276,571,5472
1644159925.172993,-0.011536,0.008911,-0.992065,0.35826,0.462901,-0.024122,51,274,566,5456
1644159925.221339,-0.012695,0.00769,-0.992615,0.312458,0.325496,0.052214,51,283,578,5456
1644159925.269768,-0.011963,0.008606,-0.992493,0.35826,0.493435,-0.25313,53,276,573,5408
1644159925.318152,-0.010437,0.009949,-0.993896,0.266656,0.386565,-0.14626,62,281,576,5472
1644159925.366554,-0.008667,0.012756,-0.991272,0.220855,0.386565,-0.069924,52,273,577,5472
1644159925.415065,-0.010315,0.009827,-0.991821,0.312458,0.478168,-0.054656,47,273,582,5456
1644159925.463353,-0.007996,0.007141,-0.993469,0.205588,0.523969,-0.192061,51,276,573,5456
1644159925.511691,-0.010498,0.010193,-0.993286,0.129252,0.371298,-0.176794,42,265,582,5344
1644159925.560118,-0.009827,0.008972,-0.989502,0.190321,0.508702,0.006412,51,283,578,5456
1644159925.608537,-0.010864,0.005676,-0.991943,0.297191,0.340763,-0.237863,45,277,586,5472
1644159925.656845,-0.010742,0.012085,-0.994629,0.281924,0.432366,-0.008855,53,274,580,5456
1644159925.705262,-0.01178,0.010437,-0.992188,0.251389,0.386565,-0.008855,52,275,582,5488
1644159925.75364,-0.01178,0.008911,-0.991821,0.159786,0.386565,-0.100458,48,274,566,5552
1644159925.802037,-0.009521,0.007385,-0.991028,0.220855,0.432366,-0.024122,48,281,578,5472
1644159925.850727,-0.011658,0.008362,-0.990662,0.236122,0.478168,-0.069924,53,271,583,5472
1644159925.900684,-0.008911,0.006104,-0.991272,0.297191,0.386565,-0.039389,48,276,566,5424
1644159925.950831,-0.009155,0.013,-0.990784,0.388794,0.310229,-0.222595,53,269,576,5424
1644159926.050794,-0.010437,0.011414,-0.991943,0.281924,0.462901,0.036947,51,274,573,5456
1644159926.093038,-0.012634,0.012207,-0.99231,0.266656,0.401832,-0.085191,53,274,578,5424
1644159926.140799,-0.009399,0.007874,-0.989746,0.175053,0.585038,-0.130992,49,280,577,5424
1644159926.189153,-0.008484,0.007874,-0.992493,0.251389,0.310229,-0.039389,38,277,582,5424
1644159926.237561,-0.008118,0.006958,-0.993347,0.175053,0.401832,-0.085191,46,274,587,5472
1644159926.28593,-0.010986,0.010925,-0.991699,0.205588,0.447634,-0.130992,48,279,580,5456
1644159926.334342,-0.006409,0.007568,-0.990601,0.342992,0.356031,-0.100458,40,265,568,5424
1644159926.382731,-0.012329,0.005493,-0.990601,0.327725,0.24916,-0.14626,59,260,575,5472
1644159926.431104,-0.008728,0.009583,-0.988708,0.220855,0.325496,-0.192061,58,274,580,5408
1644159926.479507,-0.011841,0.008118,-0.992554,0.35826,0.432366,-0.039389,43,269,576,5520
1644159926.527893,-0.010803,0.012024,-0.992676,0.159786,0.371298,-0.085191,46,276,578,5424
1644159926.576274,-0.00824,0.009338,-0.993347,0.113985,0.386565,-0.024122,45,280,579,5376
1644159926.624668,-0.010254,0.010498,-0.992371,0.175053,0.462901,-0.14626,57,263,577,5424
1644159926.673111,-0.01123,0.012268,-0.99176,0.205588,0.340763,-0.024122,48,274,583,5456
1644159926.723159,-0.012512,0.010803,-0.99176,0.373527,0.508702,-0.14626,57,277,579,5456
1644159926.773452,-0.007996,0.009155,-0.995056,0.159786,0.371298,-0.085191,61,270,577,5456
1644159926.818469,-0.009094,0.009155,-0.991272,0.205588,0.417099,-0.207328,51,276,578,5456
1644159926.915402,-0.010071,0.007141,-0.992371,0.098718,0.447634,-0.130992,59,268,572,5456
1644159926.963466,-0.008728,0.006775,-0.991882,0.297191,0.325496,-0.100458,42,277,575,5424
1644159927.011807,-0.009827,0.009766,-0.993958,0.281924,0.325496,0.067481,46,269,571,5456
1644159927.06028,-0.011292,0.008179,-0.995056,0.129252,0.401832,-0.222595,54,282,570,5424
1644159927.10851,-0.012024,0.008301,-0.993896,0.052916,0.386565,-0.161527,42,280,582,5424
1644159927.156947,-0.008362,0.007751,-0.992615,0.144519,0.356031,-0.054656,54,275,568,5456
1644159927.205326,-0.01123,0.010254,-0.989441,0.144519,0.447634,0.021679,58,281,578,5536
1644159927.253713,-0.009949,0.007568,-0.991089,0.342992,0.478168,-0.008855,57,275,579,5344
1644159927.302161,-0.012878,0.008301,-0.991333,0.281924,0.508702,-0.115725,47,275,582,5488
1644159927.350504,-0.007935,0.010986,-0.993164,0.266656,0.447634,-0.176794,51,283,580,5456
1644159927.398916,-0.007935,0.006104,-0.990845,0.205588,0.386565,-0.008855,40,277,577,5424
1644159927.447289,-0.01123,0.010925,-0.991455,0.159786,0.462901,0.006412,51,274,573,5472
1644159927.495656,-0.011658,0.01062,-0.991333,0.144519,0.340763,-0.14626,60,269,578,5424
1644159927.54409,-0.010925,0.010376,-0.991821,0.175053,0.356031,-0.069924,55,276,576,5456
1644159927.59247,-0.011353,0.006775,-0.993835,0.175053,0.371298,-0.207328,51,266,573,5456
1644159927.640839,-0.011719,0.011169,-0.992737,0.190321,0.401832,-0.008855,57,268,568,5456
1644159927.68921,-0.010681,0.008179,-0.990356,0.419328,0.294962,-0.024122,55,271,576,5472
1644159927.737624,-0.011292,0.00946,-0.992798,0.236122,0.554504,0.006412,47,280,572,5456
1644159927.786125,-0.009583,0.010498,-0.992371,0.342992,0.401832,-0.115725,47,273,575,5376
1644159927.83573,-0.011841,0.008423,-0.993958,0.220855,0.432366,-0.069924,41,279,583,5472
1644159927.886066,-0.010803,0.009949,-0.991211,0.129252,0.310229,-0.024122,47,265,582,5456
1644159927.936355,-0.010315,0.009338,-0.991821,0.266656,0.523969,-0.222595,55,281,571,5424
1644159927.980843,-0.011719,0.011475,-0.991455,0.236122,0.356031,-0.115725,48,281,573,5360
1644159928.076492,-0.011292,0.009521,-0.992065,0.388794,0.417099,-0.176794,54,280,579,5424
1644159928.124716,-0.009583,0.009155,-0.991699,0.236122,0.523969,-0.069924,53,276,578,5408
1644159928.17315,-0.010315,0.011475,-0.992249,0.190321,0.356031,-0.085191,57,270,575,5472
1644159928.22152,-0.01001,0.009399,-0.99231,0.236122,0.340763,-0.130992,43,286,578,5488
1644159928.269918,-0.010254,0.007446,-0.992371,0.266656,0.447634,-0.100458,52,275,575,5488
1644159928.318278,-0.011719,0.010437,-0.992981,0.266656,0.447634,-0.192061,46,279,573,5472
1644159928.366699,-0.008423,0.012634,-0.991211,0.098718,0.401832,0.052214,59,268,572,5424
1644159928.415107,-0.010803,0.010925,-0.991455,0.144519,0.462901,-0.085191,53,269,580,5472
1644159928.46347,-0.009766,0.007629,-0.991638,0.35826,0.401832,-0.100458,61,280,575,5456
1644159928.511863,-0.011841,0.011414,-0.99408,0.190321,0.523969,-0.161527,59,263,582,5472
1644159928.560252,-0.011902,0.01001,-0.993042,0.205588,0.432366,-0.008855,54,273,579,5472
1644159928.608626,-0.006836,0.01062,-0.992676,0.312458,0.386565,-0.024122,52,275,579,5456
1644159928.65703,-0.011414,0.008484,-0.989807,0.098718,0.310229,-0.14626,54,275,582,5472
1644159928.705419,-0.010071,0.006836,-0.993591,0.281924,0.417099,-0.161527,54,270,586,5520
1644159928.753792,-0.011475,0.010437,-0.988464,0.404061,0.371298,0.006412,47,273,584,5456
1644159928.802307,-0.01001,0.00946,-0.993286,0.159786,0.401832,0.082748,51,279,583,5456
1644159928.850621,-0.008118,0.009277,-0.989868,0.159786,0.371298,-0.130992,57,287,582,5424
1644159928.899016,-0.011475,0.007751,-0.992432,0.220855,0.462901,-0.054656,57,270,579,5536
1644159928.947395,-0.010315,0.010742,-0.992065,0.068183,0.340763,-0.115725,48,274,576,5408
1644159928.996813,-0.009521,0.011536,-0.992249,0.251389,0.340763,0.067481,60,269,573,5408
1644159929.092535,-0.009766,0.01178,-0.99292,0.175053,0.356031,-0.054656,48,271,580,5424
1644159929.140914,-0.010315,0.006714,-0.991699,0.404061,0.523969,-0.14626,51,264,573,5376
1644159929.189308,-0.010559,0.01001,-0.992676,0.342992,0.417099,-0.14626,43,262,585,5424
1644159929.237695,-0.009583,0.010986,-0.992676,0.220855,0.218626,0.052214,49,265,565,5424
1644159929.286074,-0.00946,0.010742,-0.98877,0.388794,0.432366,-0.039389,49,268,582,5376
1644159929.334489,-0.010071,0.010803,-0.991089,0.144519,0.585038,-0.024122,49,277,572,5472
1644159929.382901,-0.01178,0.007446,-0.99176,0.175053,0.279695,-0.176794,40,270,577,5488
1644159929.431261,-0.013184,0.008667,-0.992676,0.419328,0.63084,-0.024122,52,275,579,5376
1644159929.479663,-0.009033,0.010132,-0.992981,0.037649,0.401832,-0.024122,48,276,585,5456
1644159929.528037,-0.009705,0.010986,-0.992737,0.144519,0.386565,0.067481,49,273,570,5456
1644159929.576487,-0.009521,0.01123,-0.988953,0.297191,0.447634,-0.14626,36,269,576,5456
1644159929.624822,-0.009766,0.01062,-0.992859,0.220855,0.493435,-0.14626,53,274,578,5456
1644159929.673204,-0.010559,0.009766,-0.989075,0.434595,0.371298,-0.100458,51,274,583,5520
1644159929.721567,-0.009949,0.009155,-0.992249,0.220855,0.432366,-0.008855,49,263,577,5424
1644159929.770296,-0.011597,0.01001,-0.99115,0.098718,0.462901,-0.100458,57,273,579,5472
1644159929.818717,-0.010193,0.007935,-0.993042,0.068183,0.462901,-0.085191,51,281,576,5536
1644159929.869179,-0.011536,0.00885,-0.990845,0.205588,0.417099,-0.054656,51,274,585,5456
1644159929.919478,-0.010376,0.008301,-0.992188,0.281924,0.279695,-0.115725,58,276,587,5456
1644159929.964093,-0.010864,0.010681,-0.991455,0.129252,0.554504,-0.130992,49,280,579,5472
1644159930.060431,-0.011719,0.010986,-0.989319,0.159786,0.371298,0.021679,49,268,582,5424
1644159930.108727,-0.008423,0.00885,-0.99292,0.251389,0.539237,-0.192061,53,266,573,5456
1644159930.157083,-0.009766,0.008362,-0.992798,0.144519,0.24916,-0.069924,49,275,570,5408
1644159930.205495,-0.010071,0.009705,-0.991638,0.205588,0.523969,-0.054656,59,268,572,5472
1644159930.253868,-0.010071,0.007629,-0.992126,0.159786,0.294962,-0.176794,61,268,579,5424
1644159930.302258,-0.011902,0.00946,-0.99115,0.327725,0.371298,-0.069924,48,276,569,5456
1644159930.350667,-0.009521,0.010925,-0.99231,0.312458,0.356031,-0.085191,49,275,575,5488
1644159930.399064,-0.008911,0.010681,-0.990112,0.327725,0.371298,-0.100458,42,270,572,5424
1644159930.447454,-0.013428,0.009888,-0.993347,0.266656,0.417099,-0.115725,58,271,585,5456
1644159930.495803,-0.010254,0.007751,-0.99408,0.342992,0.432366,-0.100458,43,279,576,5456
1644159930.544224,-0.011475,0.010254,-0.992859,0.312458,0.340763,0.021679,49,290,586,5488
1644159930.592641,-0.010681,0.009033,-0.994141,0.251389,0.508702,-0.14626,53,279,580,5360
1644159930.641019,-0.011719,0.006714,-0.993286,0.312458,0.447634,-0.039389,58,274,580,5456
1644159930.689407,-0.009949,0.010376,-0.991699,0.175053,0.264427,-0.085191,48,271,580,5472
1644159930.737795,-0.012207,0.006958,-0.994141,0.113985,0.447634,-0.176794,47,280,584,5472
1644159930.786176,-0.010193,0.012878,-0.992493,0.190321,0.24916,-0.115725,43,279,576,5456
1644159930.834671,-0.00946,0.006836,-0.990234,0.190321,0.340763,-0.207328,54,268,584,5488
1644159930.883124,-0.00824,0.00946,-0.991943,0.236122,0.325496,-0.008855,53,274,573,5520
1644159930.931512,-0.009827,0.012573,-0.99176,0.327725,0.371298,-0.054656,46,264,583,5488
1644159930.980903,-0.01062,0.011047,-0.993774,0.281924,0.493435,-0.207328,67,274,580,5472
1644159931.031375,-0.008484,0.010071,-0.99231,0.205588,0.325496,-0.039389,46,276,580,5472
1644159931.082888,-0.008545,0.010559,-0.991455,0.251389,0.508702,-0.054656,54,273,572,5424
1644159931.12689,-0.011169,0.011414,-0.992554,0.113985,0.462901,-0.115725,53,279,564,5488
1644159931.221668,-0.012634,0.009827,-0.991028,0.159786,0.462901,-0.054656,57,268,575,5472
1644159931.270043,-0.009033,0.008118,-0.991882,0.144519,0.325496,-0.069924,51,269,571,5408
1644159931.31845,-0.011841,0.008728,-0.992432,0.236122,0.523969,-0.176794,43,279,571,5360
1644159931.366848,-0.011902,0.011169,-0.990906,0.281924,0.478168,-0.222595,42,270,579,5456
1644159931.415232,-0.009949,0.010864,-0.99054,0.190321,0.539237,-0.085191,55,269,573,5424
1644159931.463615,-0.011414,0.00769,-0.991455,0.129252,0.356031,-0.069924,48,266,573,5376
1644159931.512012,-0.012817,0.008911,-0.99176,0.144519,0.523969,-0.14626,42,275,584,5424
1644159931.560403,-0.00824,0.012695,-0.992065,0.342992,0.386565,-0.161527,52,277,575,5424
1644159931.608805,-0.009949,0.01001,-0.993896,0.220855,0.447634,-0.14626,42,268,582,5456
1644159931.657184,-0.009888,0.010803,-0.991943,0.159786,0.462901,-0.176794,48,276,571,5456
1644159931.705579,-0.009766,0.009399,-0.992004,0.205588,0.356031,-0.115725,46,281,578,5456
1644159931.753966,-0.008667,0.010071,-0.99176,0.068183,0.493435,-0.115725,49,280,582,5472
1644159931.802381,-0.010132,0.010132,-0.990662,0.236122,0.371298,-0.207328,49,270,579,5536
1644159931.850784,-0.009888,0.009216,-0.991089,0.251389,0.462901,-0.115725,45,275,575,5360
1644159931.899175,-0.011963,0.010315,-0.995239,0.175053,0.279695,-0.039389,57,273,577,5408
1644159931.947546,-0.010498,0.010803,-0.991821,0.113985,0.462901,-0.222595,45,282,570,5408
1644159931.995962,-0.010559,0.007202,-0.99054,0.266656,0.310229,-0.069924,41,276,590,5472
1644159932.064657,-0.009705,0.010071,-0.991943,0.266656,0.554504,-0.14626,57,282,572,5520
1644159932.100204,-0.008301,0.008057,-0.988647,0.220855,0.340763,-0.130992,49,282,575,5424
1644159932.144363,-0.010193,0.012024,-0.989929,0.251389,0.539237,-0.069924,51,276,576,5472
1644159932.193847,-0.010803,0.008667,-0.990356,0.35826,0.325496,-0.14626,54,270,577,5456
1644159932.238755,-0.008606,0.011658,-0.993347,0.159786,0.310229,-0.069924,49,280,570,5456
1644159932.334867,-0.010803,0.009888,-0.991394,0.159786,0.447634,-0.161527,39,269,564,5408
1644159932.383013,-0.01001,0.008911,-0.992737,0.159786,0.417099,-0.298931,46,279,578,5472
1644159932.4314,-0.012573,0.008301,-0.992493,0.220855,0.386565,-0.176794,47,270,584,5472
1644159932.479786,-0.010254,0.007874,-0.990417,0.251389,0.340763,-0.130992,53,276,571,5408
1644159932.528177,-0.010437,0.008301,-0.99292,0.144519,0.417099,-0.039389,49,282,579,5456
1644159932.576574,-0.009949,0.012329,-0.991394,0.205588,0.386565,-0.100458,49,275,582,5424
1644159932.625015,-0.010925,0.012756,-0.993835,0.144519,0.401832,-0.237863,52,268,577,5520
1644159932.673371,-0.00647,0.006531,-0.990601,0.159786,0.493435,-0.115725,57,273,570,5424
1644159932.721758,-0.009827,0.01178,-0.99353,0.144519,0.478168,-0.039389,52,277,575,5424
1644159932.770141,-0.01123,0.01062,-0.990051,0.388794,0.401832,-0.222595,53,281,585,5376
1644159932.818529,-0.007141,0.010498,-0.990784,0.220855,0.432366,-0.085191,53,283,580,5456
1644159932.866938,-0.012451,0.010437,-0.991211,0.236122,0.523969,-0.130992,51,276,573,5472
1644159932.915346,-0.011658,0.009583,-0.990784,0.220855,0.24916,-0.222595,52,275,586,5456
1644159932.963733,-0.012024,0.01001,-0.992676,0.266656,0.264427,-0.039389,51,276,580,5472
1644159933.012169,-0.00946,0.011292,-0.992981,0.129252,0.432366,-0.100458,52,273,582,5456
1644159933.071187,-0.010559,0.010742,-0.991516,0.251389,0.340763,-0.115725,54,265,579,5456
1644159933.109348,-0.009521,0.008728,-0.992676,0.190321,0.417099,-0.115725,54,270,575,5472
1644159933.159777,-0.01062,0.009766,-0.989258,0.129252,0.294962,-0.283664,55,269,578,5456
1644159933.208794,-0.007019,0.009766,-0.989807,0.266656,0.478168,-0.268397,46,279,576,5424
1644159933.258928,-0.010559,0.007751,-0.992432,0.220855,0.447634,-0.161527,53,276,569,5424
1644159933.350837,-0.011292,0.010498,-0.995605,0.08345,0.493435,-0.237863,53,274,571,5424
1644159933.399195,-0.012085,0.009766,-0.99054,0.327725,0.493435,0.036947,48,276,573,5456
1644159933.447575,-0.009277,0.009644,-0.992798,0.037649,0.447634,-0.085191,51,281,573,5456
1644159933.495976,-0.010559,0.011902,-0.992432,0.113985,0.386565,-0.100458,46,271,571,5472
1644159933.544422,-0.009705,0.008667,-0.993713,0.251389,0.340763,0.021679,46,274,569,5408
1644159933.592783,-0.007629,0.010437,-0.992188,0.388794,0.417099,-0.192061,47,268,575,5456
1644159933.64115,-0.008789,0.009338,-0.991272,0.068183,0.401832,-0.176794,52,273,575,5424
1644159933.689542,-0.010193,0.007324,-0.991028,0.159786,0.371298,-0.161527,51,264,578,5456
1644159933.73793,-0.008789,0.007202,-0.990601,0.098718,0.478168,-0.069924,55,266,580,5456
1644159933.78632,-0.00885,0.008057,-0.988831,0.220855,0.585038,-0.25313,41,274,576,5456
1644159933.83471,-0.012085,0.011902,-0.992493,0.144519,0.294962,-0.100458,46,274,571,5424
1644159933.883137,-0.01062,0.005127,-0.99176,0.251389,0.432366,-0.008855,51,276,573,5408
1644159933.931507,-0.011169,0.011353,-0.990784,0.297191,0.310229,-0.237863,57,290,575,5424
1644159933.979916,-0.010925,0.011414,-0.990967,0.266656,0.325496,-0.130992,52,273,582,5424
1644159934.028308,-0.012878,0.008667,-0.993591,0.251389,0.386565,-0.069924,45,273,575,5456
1644159934.076786,-0.009583,0.00769,-0.992371,0.175053,0.462901,-0.176794,55,281,578,5424
1644159934.125138,-0.009705,0.01123,-0.991821,0.190321,0.615573,-0.222595,54,277,579,5424
1644159934.173715,-0.006104,0.008362,-0.990112,0.266656,0.493435,-0.069924,54,270,579,5472
1644159934.221888,-0.013916,0.00885,-0.99408,0.388794,0.508702,-0.130992,51,269,583,5424
1644159934.271844,-0.012939,0.007141,-0.992737,0.190321,0.310229,-0.069924,43,276,580,5488
1644159934.322215,-0.011353,0.012085,-0.991394,0.266656,0.401832,-0.14626,60,271,576,5520
1644159934.372289,-0.007446,0.006958,-0.990784,0.159786,0.386565,-0.115725,48,269,569,5456
1644159934.416646,-0.009399,0.007507,-0.990723,0.236122,0.478168,-0.008855,54,273,582,5488
1644159934.512418,-0.011047,0.00946,-0.992859,0.297191,0.478168,0.006412,52,277,572,5424
1644159934.560595,-0.008606,0.008362,-0.991638,0.251389,0.523969,0.036947,53,266,578,5456
1644159934.608979,-0.013794,0.011292,-0.993774,0.236122,0.356031,-0.161527,40,277,572,5488
1644159934.657372,-0.012329,0.009155,-0.993164,0.281924,0.432366,-0.130992,53,271,573,5472
1644159934.705757,-0.011719,0.01001,-0.992615,0.46513,0.386565,-0.085191,54,273,589,5408
1644159934.754133,-0.008789,0.008972,-0.992676,0.190321,0.371298,-0.054656,61,270,575,5456
1644159934.802666,-0.007629,0.010254,-0.989319,0.236122,0.432366,-0.130992,43,276,578,5456
1644159934.850931,-0.010681,0.009949,-0.991272,0.205588,0.432366,-0.100458,55,279,573,5520
1644159934.899307,-0.009827,0.00708,-0.990784,0.266656,0.417099,0.006412,49,282,570,5488
1644159934.947705,-0.010254,0.012512,-0.98999,0.159786,0.417099,-0.008855,53,276,585,5424
1644159934.996078,-0.007935,0.010376,-0.992737,0.159786,0.371298,-0.268397,53,274,564,5456
1644159935.050663,-0.011475,0.009033,-0.989685,0.144519,0.401832,-0.130992,53,266,576,5472
1644159935.092883,-0.010986,0.009705,-0.989502,0.175053,0.371298,-0.130992,54,273,577,5472
1644159935.141231,-0.007812,0.01123,-0.992615,0.190321,0.462901,-0.039389,57,275,577,5472
1644159935.189613,-0.013,0.011353,-0.992981,0.373527,0.447634,-0.176794,45,275,570,5456
1644159935.238008,-0.010986,0.011292,-0.991943,0.312458,0.279695,-0.100458,54,275,570,5424
1644159935.286392,-0.010132,0.007263,-0.993774,0.144519,0.340763,-0.100458,53,271,569,5472
1644159935.334771,-0.008057,0.009949,-0.992554,0.281924,0.279695,-0.14626,48,283,566,5472
1644159935.383202,-0.009216,0.010803,-0.994568,0.190321,0.371298,-0.024122,51,269,580,5424
1644159935.432565,-0.011902,0.010559,-0.991699,0.236122,0.447634,-0.008855,51,283,573,5488
1644159935.483061,-0.01001,0.00885,-0.990112,0.205588,0.294962,-0.14626,45,280,584,5456
1644159935.533235,-0.010681,0.008301,-0.989929,0.236122,0.478168,-0.176794,51,271,569,5456
1644159935.62539,-0.00824,0.008789,-0.991516,0.190321,0.310229,0.067481,53,279,573,5536
1644159935.673519,-0.011597,0.009094,-0.993225,0.281924,0.386565,-0.14626,49,265,572,5424
1644159935.721935,-0.007996,0.008362,-0.99176,0.46513,0.462901,-0.130992,42,275,572,5488
1644159935.770283,-0.012512,0.006287,-0.994202,0.205588,0.432366,-0.192061,62,281,578,5472
1644159935.818731,-0.007874,0.009033,-0.992126,0.205588,0.478168,-0.115725,53,276,573,5472
1644159935.8671,-0.010864,0.009949,-0.990845,0.281924,0.294962,-0.222595,47,277,575,5552
1644159935.915485,-0.008484,0.011108,-0.989136,0.297191,0.386565,-0.100458,51,271,573,5456
1644159935.963898,-0.010864,0.01123,-0.990479,0.236122,0.294962,-0.161527,45,273,577,5408
1644159936.012286,-0.014343,0.007446,-0.991455,0.190321,0.447634,-0.237863,48,281,564,5424
1644159936.065009,-0.008545,0.010498,-0.991028,0.175053,0.417099,-0.085191,51,262,585,5456
1644159936.109019,-0.013184,0.012207,-0.991882,0.388794,0.432366,-0.192061,47,282,582,5408
1644159936.157409,-0.011597,0.010864,-0.993164,0.297191,0.325496,-0.085191,48,274,583,5456
1644159936.205798,-0.012329,0.010254,-0.991943,0.388794,0.432366,0.006412,53,276,578,5456
1644159936.254192,-0.010986,0.010559,-0.992981,0.388794,0.432366,-0.085191,58,274,571,5424
1644159936.302593,-0.010986,0.008301,-0.988281,0.205588,0.478168,0.006412,49,277,582,5456
1644159936.350964,-0.009766,0.009766,-0.992004,0.129252,0.325496,-0.36,54,275,572,5424
1644159936.399335,-0.010437,0.008667,-0.992615,0.251389,0.310229,0.067481,54,275,579,5488
1644159936.447739,-0.011353,0.012634,-0.98877,0.327725,0.432366,0.006412,49,282,575,5456
1644159936.496132,-0.009644,0.006592,-0.990112,0.35826,0.356031,-0.115725,49,277,577,5424
1644159936.545,-0.007446,0.012329,-0.993713,0.129252,0.493435,-0.085191,58,274,580,5456
1644159936.595511,-0.012695,0.010864,-0.991699,0.175053,0.340763,-0.161527,42,285,565,5456
1644159936.645616,-0.013611,0.01178,-0.990967,0.251389,0.478168,0.006412,49,273,572,5456
1644159936.690634,-0.00946,0.010986,-0.988525,0.236122,0.585038,-0.176794,52,275,572,5456
1644159936.786454,-0.009277,0.01239,-0.994751,0.205588,0.294962,-0.268397,46,279,566,5456
1644159936.834913,-0.01355,0.009644,-0.991394,0.08345,0.371298,-0.069924,51,271,580,5456
1644159936.883296,-0.01001,0.009827,-0.994446,0.266656,0.432366,-0.085191,62,271,573,5456
1644159936.931688,-0.007507,0.009644,-0.991028,0.113985,0.615573,-0.069924,52,270,575,5408
1644159936.98007,-0.009033,0.009155,-0.991943,0.129252,0.462901,-0.176794,54,273,572,5456
1644159937.028466,-0.012634,0.008423,-0.989075,0.175053,0.462901,-0.069924,49,285,570,5456
1644159937.080472,-0.010437,0.008484,-0.992554,0.159786,0.386565,-0.14626,49,277,582,5520
1644159937.125323,-0.011353,0.006958,-0.993774,0.052916,0.447634,-0.130992,53,274,569,5424
1644159937.173602,-0.011536,0.011597,-0.991821,0.35826,0.386565,-0.161527,40,282,579,5456
1644159937.221981,-0.011169,0.011963,-0.989258,0.251389,0.493435,-0.176794,48,281,576,5456
1644159937.270371,-0.009644,0.009949,-0.990356,0.175053,0.417099,-0.024122,47,282,584,5376
1644159937.318756,-0.013062,0.009155,-0.990662,0.297191,0.356031,-0.161527,47,273,570,5456
1644159937.367138,-0.012268,0.008423,-0.990723,0.312458,0.417099,-0.14626,61,275,577,5424
1644159937.4155,-0.010132,0.00769,-0.993042,0.190321,0.340763,0.082748,54,275,577,5424
1644159937.464225,-0.011841,0.009583,-0.993042,0.373527,0.401832,-0.130992,58,274,576,5520
1644159937.5132,-0.009155,0.012085,-0.991028,0.220855,0.386565,-0.14626,41,274,580,5424
1644159937.564205,-0.010742,0.010254,-0.988892,0.342992,0.569771,-0.161527,49,280,591,5424
1644159937.613952,-0.005676,0.01239,-0.990234,0.175053,0.432366,-0.115725,47,275,575,5424
1644159937.658763,-0.01062,0.010925,-0.990601,0.220855,0.447634,-0.268397,45,277,577,5424
1644159937.754275,-0.01123,0.010498,-0.990906,0.251389,0.447634,-0.14626,51,269,573,5424
1644159937.80267,-0.010742,0.00946,-0.988403,0.266656,0.340763,-0.192061,51,274,576,5472
1644159937.851066,-0.010071,0.007629,-0.98938,0.190321,0.401832,-0.069924,40,277,570,5456
1644159937.899464,-0.008789,0.010376,-0.994934,0.205588,0.539237,-0.222595,53,274,583,5456
1644159937.947861,-0.008301,0.010132,-0.991028,0.312458,0.417099,-0.008855,59,282,584,5472
1644159937.996247,-0.011292,0.007324,-0.99054,0.205588,0.340763,-0.222595,53,279,573,5488
1644159938.057468,-0.008728,0.010803,-0.991638,0.373527,0.218626,-0.039389,48,286,576,5456
1644159938.093022,-0.009277,0.00885,-0.989807,0.236122,0.447634,-0.069924,51,266,580,5456
1644159938.141392,-0.011841,0.012329,-0.992065,0.404061,0.401832,-0.115725,46,279,578,5344
1644159938.189776,-0.007019,0.010742,-0.991577,0.052916,0.386565,-0.14626,41,271,569,5456
1644159938.238167,-0.01062,0.009399,-0.99176,0.297191,0.310229,-0.115725,51,271,578,5472
1644159938.286546,-0.01062,0.009277,-0.991699,0.281924,0.401832,-0.069924,49,280,575,5376
1644159938.335073,-0.01123,0.010254,-0.991455,0.236122,0.401832,-0.024122,51,276,571,5456
1644159938.383342,-0.012085,0.009277,-0.992249,0.220855,0.493435,-0.14626,47,285,575,5408
1644159938.43172,-0.014526,0.007507,-0.99353,0.098718,0.539237,-0.024122,38,263,582,5424
1644159938.480085,-0.012634,0.010803,-0.990601,0.236122,0.401832,-0.039389,51,271,578,5424
1644159938.528488,-0.010437,0.010742,-0.991638,0.220855,0.523969,-0.115725,51,274,571,5456
1644159938.57688,-0.008789,0.011963,-0.99408,0.373527,0.508702,-0.008855,48,271,576,5424
1644159938.625383,-0.013855,0.008972,-0.991638,0.175053,0.386565,-0.054656,51,279,576,5424
1644159938.675079,-0.009949,0.01123,-0.994385,0.236122,0.340763,-0.054656,46,274,571,5456
1644159938.725181,-0.01062,0.008789,-0.992432,0.251389,0.386565,-0.115725,48,271,573,5408
1644159938.775494,-0.010193,0.007141,-0.994202,0.220855,0.417099,0.098015,55,269,587,5472
1644159938.867246,-0.009277,0.010254,-0.993164,0.297191,0.539237,-0.192061,59,277,572,5456
1644159938.915624,-0.009888,0.01062,-0.994995,0.08345,0.371298,-0.115725,52,287,577,5472
1644159938.964046,-0.010559,0.010193,-0.991943,0.327725,0.417099,-0.161527,47,268,582,5424
1644159939.012422,-0.008911,0.010559,-0.991028,0.068183,0.523969,0.082748,43,279,573,5488
1644159939.060884,-0.011414,0.01001,-0.992065,0.327725,0.447634,-0.14626,59,273,575,5488
1644159939.109198,-0.008118,0.008789,-0.993347,0.236122,0.478168,-0.100458,61,265,575,5408
1644159939.157565,-0.013123,0.008972,-0.991272,0.098718,0.356031,-0.100458,42,285,570,5408
1644159939.205947,-0.011475,0.009888,-0.992981,0.190321,0.356031,-0.115725,55,274,576,5472
1644159939.254323,-0.011658,0.008362,-0.992004,0.159786,0.493435,-0.039389,59,277,565,5536
1644159939.302713,-0.010986,0.009827,-0.991638,0.190321,0.478168,-0.161527,54,277,577,5408
1644159939.351099,-0.009399,0.010071,-0.99054,0.312458,0.401832,-0.100458,53,281,569,5424
1644159939.399504,-0.013367,0.012451,-0.993774,0.297191,0.523969,-0.069924,55,281,576,5376
1644159939.447906,-0.013123,0.009277,-0.989441,0.190321,0.462901,-0.130992,61,285,586,5472
1644159939.496294,-0.01178,0.009216,-0.992188,0.251389,0.401832,-0.039389,49,280,568,5456
1644159939.544703,-0.012939,0.007446,-0.993652,0.190321,0.478168,-0.192061,51,271,573,5424
1644159939.593082,-0.012085,0.010498,-0.994385,0.190321,0.432366,-0.085191,58,271,585,5408
1644159939.641456,-0.011353,0.010498,-0.991272,0.220855,0.478168,-0.115725,60,266,569,5456
1644159939.689859,-0.009521,0.007446,-0.989075,0.08345,0.417099,-0.176794,40,277,577,5536
1644159939.738219,-0.009216,0.008118,-0.989929,0.236122,0.493435,-0.161527,48,274,580,5360
1644159939.786989,-0.010437,0.00946,-0.993286,0.220855,0.371298,-0.237863,52,285,575,5456
1644159939.838616,-0.014038,0.006775,-0.991638,0.190321,0.417099,-0.085191,53,266,571,5456
1644159939.888606,-0.010376,0.008301,-0.99292,0.281924,0.539237,-0.176794,51,279,576,5456
1644159939.933126,-0.011353,0.007874,-0.992188,0.388794,0.340763,-0.14626,57,277,572,5488
1644159940.028593,-0.011047,0.01001,-0.990234,0.236122,0.447634,-0.14626,51,276,571,5488
1644159940.07712,-0.011108,0.011169,-0.988098,0.113985,0.264427,-0.069924,49,275,577,5424
1644159940.125337,-0.009644,0.009399,-0.991516,0.205588,0.508702,-0.085191,53,281,571,5456
1644159940.173753,-0.012085,0.006348,-0.994385,0.297191,0.386565,-0.161527,45,280,579,5472
1644159940.222374,-0.010986,0.009949,-0.991272,0.159786,0.432366,-0.115725,48,279,571,5472
1644159940.270506,-0.01355,0.009033,-0.992004,0.129252,0.478168,-0.130992,46,279,573,5536
1644159940.318909,-0.01062,0.008179,-0.991394,0.266656,0.493435,-0.085191,45,275,577,5456
1644159940.367307,-0.01001,0.007812,-0.990906,0.159786,0.340763,-0.25313,47,273,579,5456
1644159940.415687,-0.01178,0.010376,-0.99292,0.281924,0.523969,-0.069924,51,276,566,5472
1644159940.464091,-0.008362,0.009705,-0.992065,0.175053,0.478168,-0.085191,40,275,570,5456
1644159940.512453,-0.010437,0.00946,-0.992737,0.205588,0.356031,-0.298931,49,277,579,5488
1644159940.560871,-0.007019,0.008484,-0.98938,0.266656,0.432366,0.036947,43,281,583,5456
1644159940.609256,-0.007446,0.009277,-0.993958,0.419328,0.462901,-0.115725,54,275,577,5424
1644159940.657652,-0.010315,0.010132,-0.989319,0.266656,0.386565,-0.176794,60,279,576,5456
1644159940.706014,-0.009399,0.010803,-0.991577,0.388794,0.539237,-0.024122,55,274,580,5456
1644159940.754397,-0.01123,0.011902,-0.994446,0.297191,0.569771,-0.14626,53,276,580,5456
1644159940.802822,-0.011292,0.008545,-0.991455,0.190321,0.371298,-0.024122,43,281,585,5488
1644159940.8515,-0.012573,0.010254,-0.990784,0.297191,0.310229,-0.115725,46,274,576,5424
1644159940.899642,-0.010925,0.009827,-0.993774,0.251389,0.493435,-0.039389,46,281,569,5456
1644159940.949482,-0.010254,0.009949,-0.99292,0.236122,0.462901,0.006412,48,266,573,5424
1644159941.057217,-0.010559,0.009888,-0.990295,0.129252,0.493435,0.067481,51,271,583,5424
1644159941.093311,-0.013306,0.008301,-0.990601,0.266656,0.386565,-0.115725,60,281,583,5488
1644159941.14154,-0.010071,0.006775,-0.99176,0.281924,0.401832,-0.115725,59,275,575,5520
1644159941.189894,-0.01239,0.007874,-0.992615,0.190321,0.325496,-0.161527,47,282,582,5424
1644159941.238309,-0.010498,0.007874,-0.991394,0.236122,0.371298,-0.222595,57,265,577,5488
1644159941.286703,-0.011902,0.00885,-0.993042,0.327725,0.356031,0.067481,42,277,579,5456
1644159941.335207,-0.009155,0.008789,-0.993591,0.251389,0.523969,0.082748,54,275,582,5472
1644159941.383489,-0.009705,0.010864,-0.992126,0.327725,0.462901,-0.085191,36,274,578,5536
1644159941.431873,-0.014404,0.00824,-0.993103,0.175053,0.523969,-0.115725,47,275,582,5488
1644159941.480308,-0.011169,0.008789,-0.993347,0.175053,0.462901,0.006412,61,273,577,5456
1644159941.528648,-0.012878,0.008057,-0.99231,0.297191,0.478168,-0.100458,58,276,580,5360
1644159941.577011,-0.011536,0.010315,-0.989136,0.327725,0.325496,-0.237863,54,285,577,5424
1644159941.625485,-0.009827,0.007263,-0.992554,0.236122,0.371298,-0.283664,48,271,576,5408
1644159941.674223,-0.009583,0.007568,-0.990967,-0.008153,0.478168,-0.176794,54,265,577,5488
1644159941.72523,-0.011292,0.00885,-0.99054,0.342992,0.417099,-0.207328,58,276,571,5456
1644159941.774903,-0.006775,0.009216,-0.991699,0.266656,0.417099,-0.024122,51,276,569,5408
1644159941.820024,-0.012451,0.01123,-0.994446,0.144519,0.371298,0.098015,49,273,579,5424
1644159941.915797,-0.009888,0.009583,-0.99292,0.220855,0.493435,0.006412,52,273,572,5456
1644159941.964173,-0.011108,0.009399,-0.991455,0.281924,0.478168,-0.085191,47,277,572,5488
1644159942.012561,-0.012756,0.010132,-0.991516,0.113985,0.478168,-0.161527,41,281,571,5424
1644159942.063305,-0.012207,0.009705,-0.991089,0.052916,0.310229,-0.192061,59,280,577,5456
1644159942.109354,-0.008911,0.009155,-0.994812,0.281924,0.493435,-0.039389,61,282,584,5456
1644159942.15768,-0.009705,0.008057,-0.991089,0.266656,0.325496,0.021679,51,279,578,5456
1644159942.206088,-0.009521,0.007629,-0.991211,0.220855,0.356031,-0.085191,52,277,575,5456
1644159942.254469,-0.012756,0.010315,-0.992676,0.251389,0.462901,-0.054656,51,279,573,5456
1644159942.30287,-0.012085,0.010742,-0.994263,0.281924,0.325496,-0.161527,38,275,572,5456
1644159942.351277,-0.010254,0.010132,-0.991028,0.236122,0.24916,-0.222595,48,269,571,5456
1644159942.399654,-0.014343,0.01001,-0.993652,0.35826,0.356031,-0.024122,54,277,575,5424
1644159942.448025,-0.010681,0.008118,-0.992371,0.297191,0.508702,-0.024122,41,276,583,5456
1644159942.496417,-0.010681,0.006958,-0.993713,0.129252,0.478168,-0.192061,57,277,589,5424
1644159942.544843,-0.010742,0.008179,-0.992798,0.08345,0.447634,-0.130992,59,285,586,5424
1644159942.593239,-0.007446,0.007568,-0.989929,0.327725,0.432366,-0.14626,42,268,582,5424
1644159942.641582,-0.00824,0.009155,-0.995605,0.190321,0.401832,-0.039389,53,266,573,5456
1644159942.689992,-0.010437,0.010132,-0.992126,0.175053,0.356031,-0.192061,62,276,587,5408
1644159942.73838,-0.011475,0.00769,-0.993958,0.129252,0.401832,-0.054656,48,274,580,5456
1644159942.786774,-0.010925,0.009216,-0.992798,0.388794,0.325496,0.021679,57,270,584,5424
1644159942.835625,-0.010193,0.009277,-0.993286,0.098718,0.325496,-0.130992,48,276,573,5424
1644159942.887088,-0.012207,0.008484,-0.988831,0.220855,0.401832,0.006412,55,274,571,5472
1644159942.93707,-0.010986,0.012573,-0.992249,0.098718,0.386565,-0.115725,48,283,580,5424
1644159942.98157,-0.009888,0.010193,-0.991211,0.404061,0.554504,-0.100458,51,276,573,5424
1644159943.077348,-0.009399,0.011292,-0.992004,0.297191,0.478168,0.006412,57,275,575,5456
1644159943.125498,-0.009521,0.011047,-0.992249,0.098718,0.279695,-0.054656,42,270,575,5456
1644159943.173908,-0.011963,0.007019,-0.994812,0.236122,0.417099,-0.100458,53,266,573,5408
1644159943.222415,-0.009705,0.008728,-0.992004,0.404061,0.386565,-0.085191,58,279,566,5424
1644159943.270699,-0.01062,0.007935,-0.989746,0.342992,0.432366,0.021679,54,270,575,5456
1644159943.319103,-0.009827,0.009583,-0.99054,0.251389,0.233893,0.006412,52,270,582,5472
1644159943.367471,-0.012512,0.010498,-0.994141,0.251389,0.310229,-0.161527,52,270,575,5424
1644159943.415889,-0.009644,0.009033,-0.994324,0.312458,0.508702,-0.008855,53,279,576,5456
1644159943.464264,-0.010193,0.00946,-0.994507,0.449863,0.294962,-0.085191,46,281,566,5456
1644159943.512655,-0.010193,0.009033,-0.994019,0.098718,0.523969,-0.024122,43,279,573,5424
1644159943.561051,-0.011047,0.011169,-0.989441,0.08345,0.203359,0.006412,53,271,578,5408
1644159943.609434,-0.009766,0.00885,-0.992371,0.08345,0.432366,-0.115725,49,275,579,5424
1644159943.657849,-0.009216,0.00647,-0.994019,0.312458,0.447634,-0.024122,49,275,584,5456
1644159943.706212,-0.011963,0.008057,-0.991211,0.251389,0.386565,-0.222595,57,277,577,5488
1644159943.754826,-0.009338,0.010803,-0.991394,0.251389,0.478168,-0.100458,55,283,573,5456
1644159943.803006,-0.013306,0.007141,-0.993652,0.236122,0.294962,-0.192061,52,277,577,5424
1644159943.85138,-0.012451,0.007141,-0.99176,0.068183,0.401832,-0.100458,49,280,584,5536
1644159943.89999,-0.011597,0.010864,-0.991577,0.297191,0.478168,-0.024122,46,288,571,5424
1644159943.948575,-0.010803,0.009094,-0.991821,0.220855,0.417099,-0.100458,53,279,585,5424
1644159944.0548,-0.010498,0.012634,-0.991699,0.205588,0.371298,-0.008855,47,268,577,5376
1644159944.096646,-0.013062,0.005676,-0.991089,0.236122,0.539237,-0.130992,60,281,583,5360
1644159944.141702,-0.011353,0.009033,-0.993774,0.297191,0.417099,-0.115725,51,274,578,5456
1644159944.190114,-0.012573,0.009033,-0.992981,0.266656,0.462901,-0.268397,54,280,586,5456
1644159944.238506,-0.010498,0.011719,-0.990051,0.205588,0.233893,-0.085191,57,277,579,5408
1644159944.286898,-0.010315,0.010254,-0.990601,0.251389,0.386565,-0.100458,55,283,576,5536
1644159944.335286,-0.011719,0.007629,-0.989929,0.312458,0.417099,-0.222595,61,273,570,5472
1644159944.383677,-0.009827,0.007324,-0.99231,0.144519,0.508702,-0.069924,58,269,562,5456
1644159944.432059,-0.011841,0.009827,-0.994141,0.281924,0.462901,-0.130992,53,281,578,5424
1644159944.480951,-0.01178,0.008484,-0.994019,0.251389,0.310229,-0.039389,46,266,573,5456
1644159944.52886,-0.010071,0.009155,-0.989807,0.159786,0.478168,-0.039389,48,271,578,5456
1644159944.578833,-0.008606,0.007996,-0.989929,0.266656,0.447634,-0.054656,52,277,570,5456
1644159944.62884,-0.01062,0.008606,-0.991455,0.220855,0.325496,-0.14626,41,271,576,5424
1644159944.679126,-0.011292,0.010376,-0.990051,0.144519,0.462901,-0.039389,52,270,577,5472
1644159944.723636,-0.009277,0.009583,-0.991455,0.266656,0.218626,0.021679,55,276,576,5424
1644159944.819176,-0.010437,0.011353,-0.992493,0.190321,0.340763,-0.207328,55,279,569,5520
1644159944.867555,-0.010986,0.00647,-0.993469,0.175053,0.340763,-0.161527,58,274,578,5408
1644159944.915951,-0.011169,0.010132,-0.991577,0.159786,0.462901,-0.237863,43,264,571,5424
1644159944.964354,-0.010315,0.008423,-0.994568,0.205588,0.432366,-0.039389,55,269,571,5424
1644159945.012757,-0.007874,0.009033,-0.992981,0.297191,0.447634,-0.039389,53,276,578,5456
1644159945.061172,-0.011597,0.010315,-0.990662,0.190321,0.401832,-0.161527,51,276,590,5456
1644159945.109448,-0.011902,0.010498,-0.991943,0.007115,0.462901,-0.222595,54,273,577,5424
1644159945.157854,-0.009705,0.011414,-0.992065,0.236122,0.371298,-0.14626,51,281,580,5456
1644159945.206258,-0.012085,0.007324,-0.993896,0.144519,0.432366,-0.085191,48,281,583,5456
1644159945.254709,-0.012634,0.008728,-0.992371,0.236122,0.371298,-0.054656,51,281,571,5344
1644159945.303053,-0.01416,0.011108,-0.991516,0.342992,0.539237,-0.14626,42,277,577,5472
1644159945.351427,-0.009888,0.008972,-0.99292,0.175053,0.417099,-0.115725,54,277,577,5472
1644159945.399789,-0.010071,0.008667,-0.995605,0.281924,0.478168,-0.024122,42,275,570,5424
1644159945.448254,-0.010559,0.008057,-0.990906,0.236122,0.294962,-0.054656,49,277,579,5456
1644159945.496608,-0.009094,0.009033,-0.993774,0.220855,0.569771,-0.069924,53,266,585,5456
1644159945.545026,-0.010742,0.006348,-0.99353,0.144519,0.508702,-0.039389,55,271,578,5424
1644159945.593357,-0.012634,0.00708,-0.992615,0.236122,0.447634,-0.069924,54,268,579,5344
1644159945.641748,-0.010803,0.008301,-0.989929,0.175053,0.386565,-0.14626,57,273,572,5456
1644159945.690585,-0.012573,0.006897,-0.991333,0.251389,0.417099,-0.298931,53,276,585,5408
1644159945.738971,-0.01239,0.005066,-0.991638,0.35826,0.432366,-0.161527,49,270,575,5488
1644159945.790143,-0.011597,0.007385,-0.989746,0.236122,0.508702,-0.130992,47,277,582,5456
1644159945.840766,-0.010803,0.010254,-0.991943,0.220855,0.585038,-0.222595,51,266,573,5424
1644159945.885197,-0.009644,0.00885,-0.990417,0.022382,0.417099,-0.054656,40,275,568,5488
1644159945.980521,-0.012878,0.007141,-0.994995,0.236122,0.356031,-0.024122,47,280,577,5472
1644159946.028886,-0.011902,0.010986,-0.993347,0.129252,0.356031,-0.161527,51,274,583,5424
1644159946.077367,-0.012451,0.010803,-0.993958,0.190321,0.417099,-0.192061,48,271,583,5456
1644159946.125654,-0.010315,0.009094,-0.993774,0.404061,0.325496,-0.14626,47,277,579,5376
1644159946.174051,-0.011536,0.008362,-0.991333,0.404061,0.340763,-0.298931,54,287,577,5456
1644159946.222452,-0.01239,0.008484,-0.993652,0.327725,0.310229,-0.25313,46,269,569,5456
1644159946.270805,-0.010986,0.007507,-0.993286,0.175053,0.294962,-0.054656,45,268,579,5456
1644159946.319217,-0.00946,0.009644,-0.990601,0.251389,0.264427,-0.207328,48,276,573,5424
1644159946.367611,-0.011719,0.007874,-0.991333,0.373527,0.569771,-0.039389,48,276,580,5536
1644159946.415998,-0.008911,0.007141,-0.990479,0.236122,0.493435,-0.176794,41,266,573,5472
1644159946.4644,-0.007507,0.009338,-0.991699,0.342992,0.401832,-0.085191,41,271,578,5456
1644159946.512771,-0.010376,0.007019,-0.99292,0.159786,0.356031,-0.100458,61,275,572,5456
1644159946.561141,-0.010681,0.008911,-0.992249,0.281924,0.310229,-0.100458,73,277,570,5360
1644159946.60955,-0.008301,0.008911,-0.990845,0.236122,0.371298,-0.130992,39,276,573,5456
1644159946.657909,-0.008789,0.010864,-0.98938,0.342992,0.417099,-0.008855,58,281,583,5536
1644159946.70633,-0.01123,0.009155,-0.992493,0.205588,0.462901,0.006412,49,277,579,5456
1644159946.754697,-0.011292,0.010803,-0.993591,0.190321,0.508702,-0.054656,53,269,557,5456
1644159946.803175,-0.009644,0.00647,-0.991516,0.190321,0.432366,-0.14626,42,277,584,5424
1644159946.85155,-0.012756,0.009155,-0.993225,0.220855,0.401832,-0.054656,52,273,570,5456
1644159946.900761,-0.011292,0.009827,-0.990173,0.205588,0.447634,-0.207328,58,274,578,5424
1644159946.951107,-0.01123,0.007263,-0.993591,0.175053,0.462901,-0.25313,54,273,570,5456
1644159947.001633,-0.013672,0.009644,-0.994019,0.220855,0.401832,-0.100458,57,282,582,5344
1644159947.093438,-0.00824,0.007812,-0.989929,0.159786,0.462901,-0.314198,47,277,579,5488
1644159947.141824,-0.009521,0.00769,-0.994324,0.327725,0.462901,-0.222595,48,283,576,5408
1644159947.190225,-0.011108,0.010315,-0.991638,0.220855,0.417099,-0.192061,51,266,578,5424
1644159947.238629,-0.01001,0.00708,-0.991821,0.251389,0.401832,-0.222595,46,276,571,5424
1644159947.287004,-0.011353,0.009949,-0.990173,0.327725,0.447634,-0.085191,46,266,571,5472
1644159947.335393,-0.009766,0.012756,-0.993713,0.281924,0.569771,-0.039389,49,273,582,5424
1644159947.383804,-0.011047,0.007629,-0.992859,0.205588,0.401832,-0.115725,49,277,572,5456
1644159947.432242,-0.010864,0.010925,-0.995972,0.342992,0.569771,-0.176794,52,273,575,5424
1644159947.480574,-0.010132,0.010925,-0.993225,0.129252,0.661374,-0.130992,42,280,579,5488
1644159947.528946,-0.011169,0.009583,-0.991943,0.236122,0.462901,-0.237863,51,274,580,5456
1644159947.577314,-0.01123,0.008362,-0.992981,0.236122,0.417099,-0.100458,51,288,585,5424
1644159947.625774,-0.011047,0.010376,-0.992676,0.144519,0.356031,-0.115725,54,277,577,5376
1644159947.674108,-0.011414,0.008423,-0.99469,0.388794,0.432366,-0.192061,47,277,584,5456
1644159947.722522,-0.012756,0.00824,-0.992432,0.419328,0.462901,-0.268397,48,286,583,5456
1644159947.770894,-0.009277,0.012024,-0.99353,0.236122,0.371298,-0.085191,46,269,583,5488
1644159947.819906,-0.012512,0.006897,-0.994019,0.144519,0.569771,-0.085191,49,273,575,5472
1644159947.86993,-0.011658,0.006531,-0.99231,0.205588,0.493435,-0.268397,51,276,583,5424
1644159947.920402,-0.010742,0.010376,-0.994507,0.205588,0.462901,-0.115725,52,280,584,5456
1644159947.964731,-0.00769,0.010498,-0.991211,0.434595,0.401832,-0.054656,47,275,577,5472
1644159948.061362,-0.010559,0.00647,-0.991577,0.205588,0.371298,-0.100458,48,269,571,5472
1644159948.109609,-0.010437,0.008484,-0.992554,0.373527,0.401832,-0.039389,41,279,583,5376
1644159948.157994,-0.012512,0.006653,-0.994751,0.419328,0.508702,-0.130992,51,286,578,5488
1644159948.206403,-0.013611,0.010681,-0.992493,0.251389,0.478168,-0.207328,51,274,578,5376
1644159948.25478,-0.011414,0.007812,-0.993469,0.312458,0.340763,-0.008855,43,262,580,5424
1644159948.303183,-0.009827,0.007751,-0.993164,0.190321,0.386565,-0.161527,52,273,584,5456
1644159948.351573,-0.008911,0.008118,-0.991272,0.052916,0.371298,0.006412,52,273,572,5456
1644159948.399974,-0.011902,0.010742,-0.992737,0.297191,0.554504,-0.039389,48,276,576,5456
1644159948.448359,-0.014832,0.009583,-0.994141,0.144519,0.356031,-0.100458,57,268,579,5456
1644159948.496712,-0.013916,0.009888,-0.994141,0.113985,0.401832,0.036947,51,276,573,5456
1644159948.545273,-0.010986,0.009155,-0.993469,0.220855,0.294962,-0.039389,58,281,578,5472
1644159948.593537,-0.010925,0.009277,-0.993408,0.236122,0.371298,-0.222595,53,271,569,5456
1644159948.641913,-0.01062,0.009338,-0.992493,0.281924,0.356031,-0.069924,49,270,579,5424
1644159948.69028,-0.013916,0.012146,-0.990784,0.404061,0.401832,-0.192061,54,268,582,5520
1644159948.738708,-0.013245,0.008301,-0.993713,0.159786,0.264427,0.036947,51,269,585,5456
1644159948.787078,-0.011414,0.010681,-0.993408,0.175053,0.356031,-0.024122,55,279,573,5456
1644159948.835506,-0.012085,0.009338,-0.993286,0.098718,0.310229,-0.069924,53,281,578,5376
1644159948.883994,-0.01123,0.011169,-0.99176,0.342992,0.462901,0.067481,48,281,578,5456
1644159948.932329,-0.012451,0.009338,-0.996094,0.342992,0.462901,-0.207328,55,269,569,5456
1644159948.982174,-0.011353,0.009583,-0.993652,0.098718,0.447634,-0.039389,52,277,575,5408
1644159949.032436,-0.011292,0.008118,-0.993103,0.175053,0.371298,0.113282,52,270,586,5456
1644159949.08972,-0.00885,0.008484,-0.994812,0.327725,0.386565,-0.100458,42,280,579,5488
1644159949.127902,-0.012329,0.006287,-0.989563,0.159786,0.371298,-0.192061,45,277,577,5456
1644159949.222611,-0.013916,0.006775,-0.992493,0.281924,0.371298,-0.039389,59,270,575,5456
1644159949.270951,-0.013184,0.007019,-0.989807,0.144519,0.325496,-0.192061,64,280,577,5424
1644159949.319373,-0.010986,0.010803,-0.992065,0.297191,0.539237,0.021679,57,275,570,5456
1644159949.367754,-0.009888,0.009338,-0.993408,0.205588,0.356031,-0.176794,52,275,572,5456
1644159949.416212,-0.012573,0.008972,-0.993958,0.35826,0.447634,-0.085191,53,283,578,5456
1644159949.464529,-0.010498,0.007568,-0.993042,0.113985,0.310229,-0.14626,47,275,575,5360
1644159949.512938,-0.012939,0.011597,-0.991211,0.266656,0.356031,-0.14626,57,277,582,5424
1644159949.561327,-0.011536,0.008911,-0.993103,0.205588,0.508702,-0.192061,51,281,580,5456
1644159949.609681,-0.009338,0.01239,-0.993103,0.236122,0.493435,-0.115725,60,271,576,5472
1644159949.658096,-0.011841,0.008362,-0.991028,0.297191,0.233893,-0.100458,48,283,573,5376
1644159949.706483,-0.01123,0.009033,-0.990234,0.113985,0.478168,-0.069924,60,271,576,5424
1644159949.755038,-0.012329,0.01001,-0.993896,0.220855,0.523969,0.006412,53,279,580,5424
1644159949.803277,-0.011047,0.008911,-0.990356,0.113985,0.432366,-0.100458,48,274,571,5488
1644159949.851701,-0.011475,0.01062,-0.991211,0.297191,0.401832,-0.024122,52,277,582,5456
1644159949.900077,-0.011169,0.007629,-0.993469,0.266656,0.356031,0.067481,51,276,576,5408
1644159949.948462,-0.008484,0.011292,-0.993286,0.220855,0.478168,0.036947,45,285,572,5472
1644159949.996829,-0.01001,0.009338,-0.992676,0.190321,0.371298,-0.176794,53,279,585,5456
1644159950.061307,-0.010132,0.011292,-0.991211,0.129252,0.417099,-0.115725,46,279,580,5488
1644159950.100537,-0.00885,0.009644,-0.994934,0.327725,0.493435,-0.008855,51,279,576,5424
1644159950.143305,-0.012695,0.008179,-0.994995,0.205588,0.493435,-0.008855,47,280,570,5456
1644159950.192904,-0.010803,0.007751,-0.993713,0.327725,0.432366,-0.176794,55,274,576,5456
1644159950.243044,-0.012512,0.006531,-0.992432,0.159786,0.417099,-0.100458,55,281,583,5456
1644159950.287894,-0.010437,0.00885,-0.991882,0.281924,0.432366,-0.039389,52,277,579,5472
1644159950.383945,-0.011169,0.011475,-0.990845,0.251389,0.539237,-0.024122,52,277,575,5456
1644159950.432487,-0.012512,0.006531,-0.993408,0.190321,0.356031,-0.008855,61,273,579,5456
1644159950.480706,-0.012451,0.00946,-0.991272,0.327725,0.371298,0.021679,49,285,575,5456
1644159950.529127,-0.010132,0.008728,-0.991943,0.297191,0.432366,-0.207328,51,271,573,5472
1644159950.577499,-0.008301,0.010132,-0.991516,0.205588,0.371298,0.052214,52,270,572,5408
1644159950.625885,-0.009216,0.006897,-0.993774,0.098718,0.386565,-0.085191,40,275,575,5456
1644159950.674278,-0.011292,0.011414,-0.992676,0.068183,0.371298,-0.008855,53,281,571,5424
1644159950.72266,-0.008789,0.012329,-0.991089,0.205588,0.356031,-0.192061,51,274,569,5376
1644159950.771055,-0.012573,0.009216,-0.989441,0.190321,0.340763,-0.192061,61,273,577,5472
1644159950.819456,-0.007141,0.008362,-0.993225,0.190321,0.462901,-0.176794,45,268,570,5456
1644159950.867878,-0.009766,0.007507,-0.992615,0.190321,0.371298,-0.085191,51,276,573,5408
1644159950.916257,-0.010803,0.010254,-0.990662,0.190321,0.386565,-0.115725,54,273,577,5456
1644159950.964734,-0.010437,0.009888,-0.993347,0.205588,0.417099,-0.192061,42,277,582,5424
1644159951.013027,-0.012024,0.00824,-0.994141,0.434595,0.356031,-0.25313,57,277,563,5456
1644159951.082756,-0.01001,0.007812,-0.991638,0.068183,0.294962,-0.268397,55,266,576,5456
1644159951.110791,-0.01123,0.006836,-0.994141,0.159786,0.386565,-0.008855,52,275,572,5456
1644159951.161519,-0.011536,0.009827,-0.994141,0.251389,0.371298,-0.283664,46,281,576,5456
1644159951.210432,-0.011108,0.009338,-0.993164,0.129252,0.294962,-0.130992,43,283,583,5424
1644159951.255385,-0.011353,0.010559,-0.992249,0.205588,0.325496,-0.100458,51,274,587,5472
1644159951.351733,-0.011719,0.007385,-0.993774,0.113985,0.310229,-0.192061,52,273,584,5488
1644159951.400105,-0.012634,0.010437,-0.991638,0.342992,0.523969,-0.161527,47,270,572,5472
1644159951.4485,-0.010803,0.009216,-0.994995,0.098718,0.493435,-0.054656,55,271,576,5424
1644159951.496886,-0.010803,0.011353,-0.99176,0.236122,0.401832,-0.115725,49,277,579,5424
1644159951.545284,-0.009583,0.009827,-0.99292,0.251389,0.462901,-0.115725,46,274,571,5456
1644159951.593716,-0.010742,0.007751,-0.995972,0.190321,0.447634,0.098015,48,274,597,5424
1644159951.642071,-0.012207,0.009338,-0.994263,0.144519,0.310229,-0.192061,45,275,572,5376
1644159951.690423,-0.010437,0.008179,-0.992126,0.251389,0.585038,-0.100458,53,269,576,5376
1644159951.738825,-0.012268,0.008057,-0.992493,0.266656,0.462901,0.021679,45,268,577,5456
1644159951.787237,-0.011292,0.008667,-0.996521,0.281924,0.294962,-0.054656,40,282,577,5424
1644159951.835643,-0.014832,0.007751,-0.993286,0.205588,0.401832,-0.069924,42,277,577,5456
1644159951.884074,-0.012695,0.009033,-0.993713,0.281924,0.447634,-0.085191,53,274,580,5424
1644159951.932461,-0.011475,0.010925,-0.993286,0.281924,0.523969,-0.222595,53,274,573,5408
1644159951.980818,-0.010376,0.010864,-0.991272,0.297191,0.478168,-0.115725,53,266,578,5456
1644159952.029235,-0.014343,0.011353,-0.990967,0.327725,0.356031,-0.100458,48,274,583,5456
1644159952.083209,-0.010742,0.008911,-0.99408,0.205588,0.462901,-0.222595,54,282,572,5488
1644159952.126014,-0.010376,0.009766,-0.991821,0.342992,0.478168,-0.130992,52,275,579,5424
1644159952.174393,-0.011536,0.007324,-0.989563,0.342992,0.371298,-0.130992,52,275,579,5424
1644159952.222824,-0.009583,0.009399,-0.99115,0.251389,0.462901,-0.14626,42,270,572,5472
1644159952.272691,-0.010315,0.009583,-0.993713,0.312458,0.233893,-0.115725,49,275,579,5456
1644159952.323016,-0.010803,0.009949,-0.993713,0.159786,0.24916,-0.237863,52,273,579,5424
1644159952.373204,-0.012024,0.010071,-0.990417,0.098718,0.386565,-0.161527,53,274,578,5424
1644159952.417843,-0.011536,0.00885,-0.991272,0.236122,0.432366,-0.115725,43,274,573,5536
1644159952.513118,-0.011353,0.009888,-0.993652,0.205588,0.386565,-0.130992,47,270,577,5424
1644159952.561514,-0.01123,0.010376,-0.992188,0.327725,0.432366,0.052214,47,280,577,5456
1644159952.609885,-0.009521,0.008789,-0.990479,0.190321,0.401832,-0.207328,52,273,568,5472
1644159952.65829,-0.00946,0.00885,-0.990906,0.251389,0.371298,-0.14626,58,269,576,5424
1644159952.706673,-0.01123,0.00885,-0.992737,0.297191,0.554504,-0.054656,47,268,579,5424
1644159952.755105,-0.012451,0.006714,-0.992554,0.236122,0.508702,-0.161527,40,275,579,5456
1644159952.803457,-0.012939,0.008667,-0.990234,0.297191,0.417099,-0.14626,57,287,568,5488
1644159952.851842,-0.012512,0.01001,-0.992615,0.175053,0.386565,0.052214,48,281,571,5456
1644159952.900231,-0.009705,0.00946,-0.993103,0.297191,0.401832,-0.161527,48,291,564,5456
1644159952.948601,-0.012573,0.008118,-0.990784,0.281924,0.432366,-0.115725,51,269,583,5456
1644159952.996988,-0.011047,0.006958,-0.992676,0.129252,0.417099,-0.039389,48,269,576,5472
1644159953.050545,-0.013184,0.008972,-0.993103,0.236122,0.508702,-0.130992,58,271,580,5488
1644159953.093776,-0.013245,0.007751,-0.991882,0.220855,0.371298,-0.161527,54,270,591,5520
1644159953.14224,-0.010498,0.009705,-0.993347,0.220855,0.432366,-0.130992,40,282,575,5488
1644159953.190507,-0.012146,0.008118,-0.994507,0.281924,0.600305,-0.085191,46,276,571,5456
1644159953.238928,-0.010132,0.008911,-0.991882,0.190321,0.401832,-0.176794,61,277,591,5456
1644159953.287315,-0.010376,0.009094,-0.990601,0.175053,0.386565,-0.14626,55,274,571,5472
1644159953.335696,-0.010071,0.008972,-0.989868,0.281924,0.356031,-0.176794,54,277,577,5456
1644159953.38425,-0.012634,0.00824,-0.99292,0.281924,0.417099,-0.024122,48,271,578,5344
1644159953.432775,-0.011475,0.010254,-0.991272,0.190321,0.447634,-0.100458,42,270,577,5472
1644159953.483305,-0.013123,0.009216,-0.993347,0.022382,0.432366,-0.100458,49,270,579,5456
1644159953.533683,-0.012268,0.01001,-0.991577,0.129252,0.371298,-0.100458,41,274,578,5424
1644159953.578708,-0.011902,0.009644,-0.992371,0.297191,0.371298,-0.100458,52,277,568,5456
1644159953.674437,-0.010803,0.012146,-0.996277,0.327725,0.462901,-0.069924,46,271,573,5488
1644159953.722831,-0.011108,0.009094,-0.991333,0.251389,0.386565,-0.14626,41,276,573,5376
1644159953.771199,-0.010315,0.009705,-0.994812,0.251389,0.478168,-0.069924,47,273,570,5456
1644159953.81962,-0.009827,0.012085,-0.994446,0.388794,0.340763,0.036947,57,280,570,5520
1644159953.868012,-0.009155,0.010559,-0.994019,0.266656,0.294962,-0.039389,49,270,575,5472
1644159953.916377,-0.009583,0.010071,-0.990295,0.037649,0.401832,0.052214,49,268,575,5472
1644159953.964813,-0.010132,0.008789,-0.993042,0.220855,0.401832,-0.344733,42,275,572,5424
1644159954.013185,-0.010742,0.009644,-0.993774,0.297191,0.325496,-0.176794,46,276,587,5488
1644159954.064318,-0.007141,0.009338,-0.989624,0.190321,0.447634,-0.054656,46,279,578,5472
1644159954.109956,-0.011169,0.009827,-0.990967,0.281924,0.401832,-0.069924,51,276,566,5424
1644159954.158339,-0.011292,0.005371,-0.991638,0.312458,0.417099,-0.115725,51,274,580,5456
1644159954.206697,-0.010376,0.007385,-0.992798,0.190321,0.447634,-0.100458,46,269,569,5456
1644159954.255231,-0.011292,0.010376,-0.993469,0.144519,0.386565,-0.14626,48,286,576,5488
1644159954.303478,-0.011353,0.008972,-0.990845,0.129252,0.539237,-0.115725,41,271,583,5456
1644159954.351882,-0.014648,0.008362,-0.991394,0.113985,0.508702,-0.161527,48,281,580,5488
1644159954.400265,-0.012329,0.010315,-0.994385,0.35826,0.401832,-0.024122,55,264,569,5472
1644159954.448672,-0.012085,0.009705,-0.992737,0.251389,0.539237,-0.039389,46,279,583,5408
1644159954.497043,-0.010315,0.012268,-0.993835,0.266656,0.493435,-0.100458,52,275,575,5536
1644159954.54544,-0.009766,0.009949,-0.996582,0.159786,0.523969,-0.085191,54,273,577,5456
1644159954.594073,-0.008728,0.01062,-0.99292,0.220855,0.386565,-0.069924,45,268,577,5424
1644159954.644577,-0.010498,0.00885,-0.99054,0.251389,0.493435,-0.100458,39,266,569,5456
1644159954.69474,-0.013367,0.007385,-0.992615,0.220855,0.294962,-0.115725,43,266,578,5360
1644159954.739838,-0.009216,0.007507,-0.992371,0.266656,0.417099,-0.115725,49,273,577,5376
1644159954.835795,-0.008118,0.008057,-0.990479,0.220855,0.371298,-0.161527,41,269,576,5472
1644159954.884202,-0.007874,0.012329,-0.992065,0.175053,0.401832,-0.008855,51,283,569,5488
1644159954.932611,-0.011536,0.006714,-0.991638,0.266656,0.356031,-0.008855,51,276,569,5456
1644159954.980983,-0.012146,0.00885,-0.990845,0.281924,0.508702,0.021679,52,280,579,5472
1644159955.029367,-0.009399,0.010864,-0.990906,0.129252,0.447634,-0.008855,52,280,579,5472
1644159955.083072,-0.012268,0.011169,-0.99231,0.35826,0.432366,-0.039389,51,279,576,5488
1644159955.126114,-0.008789,0.013,-0.991638,0.236122,0.401832,-0.115725,45,273,577,5456
1644159955.174536,-0.008728,0.007507,-0.993225,0.113985,0.569771,-0.069924,51,276,583,5456
1644159955.222913,-0.008545,0.008606,-0.992004,0.312458,0.356031,-0.085191,59,277,570,5472
1644159955.271252,-0.009155,0.00824,-0.992432,0.327725,0.340763,0.052214,60,264,587,5456
1644159955.319644,-0.014832,0.007324,-0.9953,0.281924,0.462901,-0.115725,49,273,577,5456
1644159955.368053,-0.011292,0.008057,-0.994385,0.220855,0.279695,-0.14626,57,280,572,5424
1644159955.416447,-0.011963,0.008362,-0.990784,0.037649,0.523969,-0.069924,54,277,579,5456
1644159955.464845,-0.011658,0.009399,-0.991638,0.251389,0.356031,-0.024122,60,274,583,5376
1644159955.513223,-0.012451,0.009338,-0.990051,0.159786,0.356031,-0.176794,45,268,579,5488
1644159955.561752,-0.012634,0.01062,-0.990723,0.251389,0.447634,-0.115725,57,277,575,5408
1644159955.611131,-0.010132,0.009766,-0.991577,0.220855,0.371298,-0.085191,52,270,572,5456
1644159955.66148,-0.009766,0.00946,-0.990173,0.312458,0.371298,0.052214,60,269,569,5488
1644159955.711763,-0.010925,0.00946,-0.993652,0.175053,0.508702,-0.115725,45,273,579,5424
1644159955.80363,-0.009583,0.008789,-0.991943,0.35826,0.264427,-0.054656,47,280,577,5424
1644159955.851977,-0.013672,0.009033,-0.989624,0.251389,0.325496,-0.085191,60,286,576,5408
1644159955.900352,-0.010681,0.010437,-0.992554,0.373527,0.447634,-0.100458,45,282,570,5472
1644159955.948765,-0.010376,0.009216,-0.990479,0.388794,0.401832,-0.192061,54,270,579,5456
1644159955.99714,-0.008606,0.008301,-0.98999,0.098718,0.447634,-0.039389,54,277,582,5424
1644159956.048072,-0.010071,0.011169,-0.990662,0.129252,0.386565,-0.039389,51,286,573,5456
1644159956.093931,-0.007446,0.009033,-0.992065,0.251389,0.386565,-0.039389,48,281,583,5424
1644159956.142306,-0.011536,0.005737,-0.991516,0.388794,0.447634,-0.024122,61,277,579,5424
1644159956.190696,-0.008667,0.008606,-0.992615,0.175053,0.203359,-0.008855,46,286,578,5536
1644159956.239328,-0.013428,0.00824,-0.990173,0.220855,0.310229,-0.100458,46,264,576,5424
1644159956.287456,-0.010925,0.009033,-0.994324,0.144519,0.462901,-0.222595,49,277,563,5472
1644159956.335851,-0.01123,0.006653,-0.993958,0.175053,0.462901,-0.115725,55,276,573,5472
1644159956.384245,-0.008911,0.006287,-0.992493,0.220855,0.447634,-0.130992,53,274,578,5376
1644159956.432646,-0.009888,0.008545,-0.992432,0.388794,0.462901,-0.008855,52,277,577,5360
1644159956.481022,-0.012085,0.007263,-0.992371,0.220855,0.493435,-0.14626,54,270,579,5424
1644159956.529375,-0.010864,0.010315,-0.99115,0.205588,0.340763,-0.069924,48,266,571,5488
1644159956.577791,-0.009521,0.008728,-0.992676,0.266656,0.371298,-0.054656,52,273,577,5408
1644159956.626196,-0.013184,0.00824,-0.993652,0.220855,0.371298,-0.115725,53,264,585,5424
1644159956.674631,-0.014099,0.008179,-0.992371,0.113985,0.432366,-0.085191,49,277,575,5456
1644159956.723039,-0.008911,0.009155,-0.994751,0.175053,0.310229,-0.054656,46,269,573,5472
1644159956.773532,-0.010864,0.009766,-0.99115,0.297191,0.462901,0.021679,54,273,577,5488
1644159956.825277,-0.009888,0.008789,-0.99231,0.068183,0.386565,-0.024122,53,274,569,5472
1644159956.869256,-0.01123,0.008118,-0.993713,0.297191,0.294962,-0.237863,51,274,571,5424
1644159956.965248,-0.012329,0.007996,-0.991455,0.190321,0.325496,-0.024122,58,281,583,5456
1644159957.013332,-0.01062,0.006958,-0.993591,0.190321,0.294962,-0.100458,54,275,577,5424
1644159957.061836,-0.009644,0.010742,-0.989624,0.129252,0.417099,-0.237863,41,286,576,5424
1644159957.110073,-0.012939,0.011108,-0.992432,0.266656,0.401832,-0.130992,38,277,575,5456
1644159957.158453,-0.008972,0.008728,-0.992981,0.236122,0.371298,-0.161527,49,282,575,5488
1644159957.206859,-0.010986,0.009033,-0.99408,0.312458,0.386565,-0.161527,49,275,570,5456
1644159957.255226,-0.011475,0.00885,-0.993835,0.35826,0.493435,-0.115725,47,275,579,5360
1644159957.303619,-0.007812,0.012085,-0.992126,0.342992,0.523969,-0.024122,53,266,578,5424
1644159957.352019,-0.010559,0.007385,-0.990662,0.266656,0.508702,-0.069924,52,280,572,5488
1644159957.400422,-0.010803,0.006104,-0.991089,0.266656,0.356031,-0.115725,48,279,580,5456
1644159957.448817,-0.01001,0.010132,-0.990784,0.098718,0.478168,-0.008855,47,273,568,5408
1644159957.497178,-0.008911,0.007935,-0.991699,0.144519,0.585038,-0.14626,52,282,577,5456
1644159957.545588,-0.012451,0.010803,-0.991516,0.205588,0.417099,-0.298931,52,268,582,5472
1644159957.59399,-0.012268,0.011292,-0.990173,0.449863,0.401832,-0.14626,51,276,587,5472
1644159957.642389,-0.011719,0.008423,-0.990784,0.404061,0.371298,-0.039389,55,279,580,5408
1644159957.690758,-0.012939,0.011108,-0.992737,0.144519,0.401832,-0.25313,57,275,568,5488
1644159957.739125,-0.012329,0.009094,-0.991943,0.129252,0.417099,-0.176794,48,276,573,5456
1644159957.787531,-0.010742,0.012268,-0.993164,0.159786,0.447634,-0.039389,42,268,575,5456
1644159957.83616,-0.00885,0.010315,-0.991211,0.190321,0.554504,-0.222595,52,275,573,5488
1644159957.885864,-0.013367,0.007019,-0.991455,0.312458,0.371298,-0.130992,58,274,566,5456
1644159957.936329,-0.005432,0.00946,-0.992676,0.266656,0.432366,-0.161527,48,269,573,5408
1644159957.986326,-0.009094,0.008667,-0.990295,0.052916,0.294962,-0.039389,46,283,573,5408
1644159958.030775,-0.009033,0.009338,-0.992249,0.388794,0.508702,-0.237863,54,277,577,5408
1644159958.126267,-0.010193,0.00824,-0.991455,0.098718,0.417099,-0.085191,48,271,569,5376
1644159958.174855,-0.009949,0.009521,-0.991028,0.220855,0.447634,-0.115725,47,287,577,5520
1644159958.223045,-0.009888,0.009949,-0.994568,0.113985,0.325496,-0.207328,42,275,575,5376
1644159958.271413,-0.01062,0.008484,-0.991333,0.190321,0.523969,-0.039389,48,271,573,5456
1644159958.319798,-0.011414,0.008728,-0.989746,0.312458,0.401832,-0.008855,53,274,576,5488
1644159958.36821,-0.010559,0.007324,-0.990845,0.266656,0.447634,-0.207328,51,274,569,5520
1644159958.416574,-0.010193,0.010376,-0.991455,0.052916,0.401832,-0.14626,51,276,569,5536
1644159958.465028,-0.010437,0.009338,-0.990723,0.175053,0.371298,-0.100458,51,274,571,5424
1644159958.513385,-0.01123,0.01062,-0.990356,0.266656,0.432366,-0.054656,59,277,570,5472
1644159958.561774,-0.010864,0.009949,-0.990295,0.175053,0.508702,-0.237863,59,277,572,5456
1644159958.610162,-0.01239,0.008911,-0.992493,0.251389,0.447634,-0.130992,49,265,570,5424
1644159958.658553,-0.011414,0.010559,-0.992432,0.266656,0.417099,-0.085191,46,276,585,5456
1644159958.706934,-0.011353,0.01062,-0.994324,0.098718,0.417099,0.098015,45,275,577,5472
1644159958.755326,-0.01239,0.007751,-0.993469,0.205588,0.493435,-0.176794,58,276,590,5456
1644159958.803706,-0.011108,0.012451,-0.989807,0.220855,0.356031,0.006412,58,274,578,5536
1644159958.852166,-0.013,0.007751,-0.989563,0.312458,0.493435,-0.069924,49,275,579,5536
1644159958.900535,-0.01123,0.007751,-0.99292,0.251389,0.554504,-0.130992,48,281,580,5408
1644159958.948923,-0.009155,0.00946,-0.992432,0.052916,0.447634,-0.039389,53,269,580,5472
1644159958.997309,-0.010681,0.010315,-0.994812,0.251389,0.356031,-0.14626,53,269,585,5456
1644159959.094081,-0.012329,0.011169,-0.991577,0.327725,0.386565,-0.008855,46,279,590,5424
1644159959.142755,-0.008423,0.010986,-0.990051,0.266656,0.539237,-0.222595,52,277,577,5376
1644159959.19084,-0.010132,0.008911,-0.991638,0.266656,0.508702,-0.024122,62,271,587,5456
1644159959.239209,-0.013367,0.010132,-0.994141,0.281924,0.325496,-0.14626,55,271,576,5488
1644159959.287622,-0.010681,0.008545,-0.991089,0.251389,0.371298,-0.008855,60,266,576,5456
1644159959.335999,-0.010986,0.009521,-0.993958,0.205588,0.386565,-0.100458,59,277,575,5456
1644159959.384412,-0.010498,0.009155,-0.992798,0.312458,0.294962,0.036947,57,275,577,5536
1644159959.432807,-0.010742,0.010071,-0.992065,0.190321,0.401832,-0.100458,66,270,579,5456
1644159959.481174,-0.011414,0.010498,-0.990967,0.220855,0.432366,0.021679,47,287,570,5456
1644159959.529613,-0.009644,0.008911,-0.99231,0.08345,0.447634,-0.069924,52,280,565,5456
1644159959.577962,-0.011963,0.012329,-0.991394,0.251389,0.401832,-0.130992,59,273,582,5472
1644159959.626346,-0.009583,0.008606,-0.992798,0.190321,0.523969,-0.14626,54,280,575,5456
1644159959.674757,-0.010559,0.008423,-0.99292,0.236122,0.493435,-0.14626,61,277,575,5424
1644159959.723136,-0.01239,0.008301,-0.992432,0.388794,0.447634,-0.161527,59,270,568,5472
1644159959.771509,-0.012451,0.008179,-0.99231,0.251389,0.447634,-0.039389,49,263,572,5472
1644159959.819891,-0.012512,0.008301,-0.995728,0.205588,0.432366,0.052214,54,273,586,5408
1644159959.86834,-0.011536,0.010925,-0.991272,0.297191,0.294962,0.006412,46,266,569,5456
1644159959.917037,-0.009583,0.00824,-0.991943,0.159786,0.340763,-0.085191,59,280,579,5456
1644159959.967197,-0.009521,0.007324,-0.990723,-0.038687,0.356031,-0.069924,52,285,575,5456
1644159960.017447,-0.012451,0.010437,-0.992371,0.129252,0.371298,-0.192061,57,270,570,5376
1644159960.110245,-0.008118,0.01001,-0.990112,0.129252,0.325496,-0.069924,46,281,573,5424
1644159960.158631,-0.011353,0.009521,-0.990295,0.220855,0.554504,-0.069924,60,274,566,5520
1644159960.207053,-0.011963,0.00946,-0.990479,0.205588,0.462901,-0.085191,55,286,573,5424
1644159960.255427,-0.012512,0.008606,-0.991943,0.35826,0.401832,-0.207328,60,271,583,5520
1644159960.303824,-0.011475,0.008667,-0.991394,0.190321,0.432366,-0.14626,46,276,578,5424
1644159960.352241,-0.010437,0.010376,-0.99231,0.129252,0.417099,-0.085191,53,286,571,5472
1644159960.400625,-0.009521,0.009766,-0.991394,0.220855,0.462901,-0.14626,59,273,575,5424
1644159960.449007,-0.013672,0.006897,-0.991577,0.281924,0.554504,-0.115725,45,280,572,5472
1644159960.49737,-0.01178,0.008362,-0.991516,0.251389,0.386565,-0.130992,48,286,566,5520
1644159960.545788,-0.010376,0.009521,-0.992004,0.144519,0.432366,0.021679,45,273,565,5424
1644159960.594205,-0.008728,0.00708,-0.994873,0.205588,0.371298,-0.161527,53,271,578,5488
1644159960.642574,-0.012207,0.009766,-0.991882,0.312458,0.356031,-0.054656,49,280,577,5456
1644159960.690953,-0.010193,0.009949,-0.991028,0.281924,0.585038,-0.207328,51,266,573,5456
1644159960.739344,-0.011597,0.008606,-0.993347,0.388794,0.294962,-0.130992,51,271,580,5536
1644159960.787742,-0.008118,0.00946,-0.993164,0.205588,0.371298,-0.130992,46,271,573,5456
1644159960.836099,-0.009338,0.007935,-0.990356,0.35826,0.386565,-0.222595,45,282,582,5456
1644159960.884522,-0.010498,0.011536,-0.992798,0.190321,0.478168,-0.176794,58,271,587,5456
1644159960.933235,-0.009521,0.008423,-0.992371,0.098718,0.417099,-0.14626,42,273,584,5472
1644159960.981302,-0.011658,0.009094,-0.99292,0.113985,0.386565,0.006412,47,277,570,5456
1644159961.031553,-0.00769,0.008301,-0.992737,0.297191,0.523969,-0.024122,47,275,575,5456
1644159961.088692,-0.009705,0.009033,-0.991272,0.144519,0.478168,-0.100458,59,270,577,5360
1644159961.131032,-0.011902,0.007751,-0.990356,0.144519,0.325496,0.082748,58,274,583,5424
1644159961.176021,-0.008972,0.009766,-0.993347,0.251389,0.371298,0.082748,51,281,571,5456
1644159961.271572,-0.013916,0.009766,-0.994141,0.144519,0.417099,-0.054656,47,282,582,5472
1644159961.319987,-0.010803,0.00708,-0.991333,0.297191,0.340763,-0.192061,47,282,575,5536
1644159961.368353,-0.010193,0.007812,-0.991943,0.220855,0.615573,-0.069924,48,269,583,5488
1644159961.416756,-0.010071,0.009033,-0.992554,0.281924,0.447634,-0.161527,49,280,570,5488
1644159961.465169,-0.008606,0.009216,-0.992126,0.327725,0.417099,-0.100458,42,275,575,5472
1644159961.513543,-0.009277,0.009521,-0.992249,0.220855,0.325496,-0.161527,51,271,569,5456
1644159961.561902,-0.011169,0.009033,-0.991821,0.266656,0.340763,-0.100458,51,269,580,5360
1644159961.610309,-0.010986,0.006897,-0.991516,0.175053,0.478168,-0.054656,54,280,582,5424
1644159961.658698,-0.011536,0.012756,-0.991211,0.205588,0.401832,-0.100458,47,275,568,5456
1644159961.707097,-0.00946,0.012695,-0.992188,0.175053,0.432366,-0.161527,54,282,575,5424
1644159961.755482,-0.009155,0.008545,-0.991333,0.190321,0.508702,0.036947,41,276,578,5488
1644159961.803932,-0.012085,0.008179,-0.992737,0.251389,0.417099,-0.14626,43,269,571,5456
1644159961.852314,-0.008301,0.008118,-0.990784,0.266656,0.539237,-0.14626,51,271,576,5456
1644159961.900701,-0.008789,0.011292,-0.993347,0.175053,0.432366,-0.039389,55,271,573,5424
1644159961.949065,-0.012451,0.006104,-0.992371,0.205588,0.386565,-0.222595,41,271,578,5472
1644159961.997497,-0.010071,0.00769,-0.991699,0.022382,0.371298,-0.176794,51,271,573,5456
1644159962.059577,-0.010559,0.009888,-0.992188,0.159786,0.554504,-0.069924,53,271,583,5488
1644159962.097951,-0.012207,0.007324,-0.989014,0.113985,0.493435,-0.207328,53,276,578,5408
1644159962.142613,-0.00708,0.010437,-0.994568,0.342992,0.462901,-0.192061,45,270,582,5472
1644159962.191498,-0.009766,0.010193,-0.991028,0.373527,0.371298,-0.039389,52,270,577,5520
1644159962.242264,-0.011658,0.009766,-0.993408,0.236122,0.386565,-0.207328,46,276,580,5344
1644159962.291734,-0.008728,0.010254,-0.992188,0.144519,0.447634,0.021679,55,276,578,5472
1644159962.336971,-0.008606,0.010376,-0.991272,0.220855,0.539237,0.006412,53,279,576,5456
1644159962.432944,-0.011169,0.010071,-0.991882,0.159786,0.386565,-0.237863,57,273,575,5376
1644159962.481326,-0.011108,0.009155,-0.994507,0.144519,0.539237,-0.115725,51,266,578,5488
1644159962.529711,-0.010071,0.009521,-0.993591,0.281924,0.279695,0.021679,47,270,575,5424
1644159962.578097,-0.011475,0.00769,-0.99292,0.175053,0.493435,-0.176794,57,273,584,5456
1644159962.626477,-0.012207,0.009338,-0.992798,0.281924,0.401832,-0.192061,49,273,577,5424
1644159962.674882,-0.009155,0.009338,-0.990051,0.159786,0.279695,-0.100458,51,274,571,5456
1644159962.723284,-0.009033,0.009216,-0.992432,0.297191,0.462901,-0.192061,51,296,569,5456
1644159962.771669,-0.010376,0.007874,-0.993958,0.266656,0.233893,-0.237863,58,271,573,5456
1644159962.820075,-0.008667,0.008606,-0.989868,0.190321,0.294962,0.036947,40,275,570,5456
1644159962.868461,-0.010742,0.008301,-0.992737,0.220855,0.401832,-0.085191,53,271,576,5456
1644159962.916878,-0.010437,0.007568,-0.992188,0.190321,0.401832,-0.024122,53,266,571,5424
1644159962.965357,-0.013489,0.012451,-0.991394,0.08345,0.340763,-0.069924,51,279,585,5472
1644159963.013644,-0.010925,0.012939,-0.993774,0.251389,0.432366,-0.192061,55,288,580,5424
1644159963.087038,-0.013245,0.00708,-0.989258,0.312458,0.569771,-0.054656,65,274,576,5456
1644159963.110403,-0.010498,0.011047,-0.98999,0.144519,0.24916,-0.115725,48,276,573,5408
1644159963.15909,-0.011414,0.008728,-0.990906,0.251389,0.432366,-0.008855,53,279,580,5472
1644159963.208043,-0.012085,0.008606,-0.991821,0.297191,0.462901,-0.130992,51,269,580,5456
1644159963.258582,-0.010559,0.007568,-0.993347,0.175053,0.417099,-0.054656,57,265,582,5456
1644159963.308685,-0.010376,0.009094,-0.993713,0.266656,0.340763,-0.039389,57,270,584,5456
1644159963.353579,-0.008057,0.007935,-0.990723,0.037649,0.432366,-0.268397,51,279,573,5456
1644159963.4491,-0.01123,0.009338,-0.994385,0.312458,0.371298,-0.130992,54,277,577,5456
1644159963.497524,-0.007996,0.007874,-0.994141,0.220855,0.462901,-0.024122,49,273,575,5456
1644159963.545874,-0.01001,0.008423,-0.992004,0.052916,0.356031,-0.100458,43,274,571,5424
1644159963.594272,-0.00708,0.010925,-0.992065,0.205588,0.493435,-0.100458,47,265,575,5472
1644159963.642673,-0.010376,0.010315,-0.991211,0.205588,0.478168,-0.115725,51,274,583,5456
1644159963.691051,-0.012451,0.010071,-0.992188,0.327725,0.432366,-0.130992,55,281,573,5456
1644159963.739451,-0.010193,0.010071,-0.989868,0.281924,0.401832,0.036947,43,274,573,5456
1644159963.787843,-0.010864,0.008728,-0.992188,0.35826,0.462901,-0.130992,51,271,583,5456
1644159963.836277,-0.009949,0.008118,-0.991333,0.342992,0.478168,-0.069924,42,273,570,5424
1644159963.884731,-0.009033,0.011353,-0.992249,0.098718,0.432366,-0.085191,51,279,580,5456
1644159963.933073,-0.011841,0.010315,-0.990845,0.266656,0.264427,-0.207328,51,281,580,5424
1644159963.981444,-0.01239,0.009644,-0.99408,0.144519,0.478168,-0.176794,53,279,573,5472
1644159964.029838,-0.009888,0.01062,-0.989624,0.236122,0.478168,-0.024122,49,280,572,5488
1644159964.078682,-0.010071,0.007324,-0.989868,0.144519,0.356031,-0.161527,51,274,578,5520
1644159964.126559,-0.011047,0.007446,-0.993835,0.342992,0.417099,-0.069924,47,285,579,5456
1644159964.175001,-0.010437,0.008179,-0.992798,0.281924,0.447634,-0.039389,54,270,575,5488
1644159964.223355,-0.01001,0.010254,-0.991638,0.312458,0.401832,-0.14626,52,277,575,5472
1644159964.271738,-0.008911,0.006653,-0.993164,0.205588,0.462901,-0.14626,53,288,571,5456
1644159964.320138,-0.010193,0.006592,-0.992798,0.220855,0.478168,-0.115725,49,265,579,5472
1644159964.368797,-0.010986,0.007568,-0.993591,0.113985,0.340763,-0.130992,57,275,572,5456
1644159964.419451,-0.009888,0.009888,-0.990601,0.281924,0.371298,-0.085191,49,270,572,5488
1644159964.470009,-0.009827,0.009766,-0.990601,0.220855,0.401832,-0.222595,54,273,572,5488
1644159964.514551,-0.010071,0.011536,-0.991943,0.251389,0.447634,0.174351,54,277,579,5456
1644159964.610458,-0.009705,0.009766,-0.992432,0.175053,0.371298,0.006412,51,283,571,5456
1644159964.658835,-0.009827,0.008423,-0.992432,0.190321,0.478168,-0.161527,49,280,575,5520
1644159964.707217,-0.008606,0.009705,-0.993652,0.190321,0.417099,0.052214,51,269,573,5456
1644159964.755612,-0.011047,0.009338,-0.994324,0.220855,0.554504,-0.100458,52,277,575,5456
1644159964.80403,-0.01239,0.00885,-0.992615,0.205588,0.508702,-0.039389,48,274,583,5456
1644159964.852479,-0.011292,0.008972,-0.992554,0.312458,0.356031,-0.085191,49,268,579,5472
1644159964.900853,-0.010681,0.008606,-0.993713,0.220855,0.462901,-0.115725,42,280,579,5424
1644159964.949237,-0.014526,0.010803,-0.992004,0.266656,0.356031,-0.192061,46,274,573,5472
1644159964.997597,-0.007385,0.011475,-0.992432,0.052916,0.401832,-0.176794,57,273,577,5408
1644159965.058284,-0.009521,0.011658,-0.993164,0.342992,0.294962,-0.100458,60,271,573,5488
1644159965.096876,-0.01178,0.009277,-0.994812,0.236122,0.325496,-0.176794,59,268,584,5456
1644159965.142736,-0.012451,0.009033,-0.992004,0.175053,0.462901,-0.161527,60,276,576,5456
1644159965.191124,-0.007385,0.011353,-0.992065,0.281924,0.386565,-0.069924,54,275,582,5488
1644159965.23953,-0.008484,0.007507,-0.990601,0.266656,0.447634,-0.039389,54,277,575,5408
1644159965.287925,-0.010376,0.008484,-0.990417,0.159786,0.462901,-0.115725,52,273,575,5456
1644159965.336309,-0.012634,0.010254,-0.99292,0.312458,0.478168,-0.100458,51,276,583,5456
1644159965.38471,-0.012329,0.007812,-0.989685,0.266656,0.401832,-0.130992,59,263,577,5424
1644159965.4331,-0.010254,0.009949,-0.992859,0.281924,0.356031,-0.25313,53,274,583,5408
1644159965.481794,-0.011292,0.010071,-0.993286,0.052916,0.325496,-0.115725,55,269,587,5360
1644159965.529881,-0.011047,0.010803,-0.99231,0.159786,0.462901,-0.115725,49,263,575,5456
1644159965.580079,-0.008606,0.009949,-0.993469,0.35826,0.493435,-0.054656,57,268,563,5536
1644159965.630353,-0.009583,0.00708,-0.992981,0.312458,0.356031,-0.039389,49,275,572,5424
1644159965.675694,-0.012512,0.007751,-0.99115,0.297191,0.356031,-0.14626,54,285,575,5472
1644159965.771794,-0.009644,0.008667,-0.992065,0.220855,0.539237,-0.085191,47,270,572,5424
1644159965.820203,-0.009644,0.008789,-0.992371,0.220855,0.417099,-0.25313,51,279,576,5488
1644159965.868625,-0.008728,0.009155,-0.993225,0.236122,0.417099,-0.069924,51,271,578,5520
1644159965.917,-0.011963,0.009216,-0.993286,0.175053,0.417099,-0.161527,54,282,575,5456
1644159965.965848,-0.010437,0.010986,-0.992554,0.144519,0.279695,-0.039389,58,279,585,5488
1644159966.013797,-0.010681,0.006165,-0.992188,0.236122,0.478168,-0.008855,47,287,577,5424
1644159966.062295,-0.011414,0.009094,-0.991089,0.297191,0.523969,-0.054656,61,268,582,5472
1644159966.110593,-0.00769,0.008606,-0.990234,0.236122,0.386565,-0.192061,53,281,569,5360
1644159966.158936,-0.009521,0.008789,-0.992798,0.342992,0.310229,-0.130992,39,274,571,5488
1644159966.207332,-0.011902,0.010376,-0.992188,0.251389,0.462901,-0.008855,54,285,577,5456
1644159966.255692,-0.012329,0.007141,-0.99231,0.129252,0.508702,0.021679,49,268,586,5456
1644159966.304114,-0.01239,0.008911,-0.991272,0.404061,0.325496,-0.054656,47,268,586,5408
1644159966.352515,-0.011353,0.008545,-0.990845,0.220855,0.432366,-0.085191,54,285,572,5456
1644159966.400853,-0.013184,0.008301,-0.98999,0.236122,0.371298,-0.085191,58,281,580,5472
1644159966.449244,-0.010071,0.008423,-0.993347,0.297191,0.493435,-0.039389,59,280,570,5472
1644159966.49766,-0.013062,0.010559,-0.991394,0.175053,0.310229,-0.039389,58,274,571,5456
1644159966.546036,-0.010376,0.00885,-0.991699,0.342992,0.569771,0.052214,48,283,576,5536
1644159966.594439,-0.01123,0.008606,-0.993896,0.297191,0.386565,-0.176794,43,274,573,5456
1644159966.643057,-0.007935,0.010254,-0.994873,0.159786,0.417099,-0.161527,45,270,575,5456
1644159966.691736,-0.009827,0.006714,-0.989624,0.327725,0.401832,-0.161527,52,277,575,5488
1644159966.742344,-0.00885,0.008667,-0.990601,0.205588,0.462901,-0.130992,48,271,587,5424
1644159966.79231,-0.009338,0.012451,-0.99115,0.113985,0.478168,-0.14626,51,274,580,5472
1644159966.838311,-0.009583,0.00946,-0.992676,0.205588,0.523969,-0.115725,47,282,575,5456
1644159966.933226,-0.012268,0.008789,-0.991821,0.434595,0.417099,-0.008855,41,281,557,5488
1644159966.981586,-0.012024,0.009583,-0.990051,0.144519,0.356031,-0.14626,46,274,573,5472
1644159967.029954,-0.01001,0.010254,-0.992859,0.159786,0.340763,-0.192061,43,276,573,5456
1644159967.082187,-0.00946,0.010071,-0.99115,0.190321,0.310229,-0.176794,46,269,573,5408
1644159967.126765,-0.010193,0.006226,-0.990906,0.220855,0.371298,-0.039389,45,273,575,5520
1644159967.175215,-0.010071,0.007507,-0.992859,0.08345,0.447634,-0.268397,53,262,573,5456
1644159967.223512,-0.012512,0.006714,-0.991272,0.190321,0.478168,-0.14626,59,285,579,5456
1644159967.271894,-0.010132,0.010925,-0.992371,0.266656,0.432366,-0.039389,48,269,576,5488
