epoch,acc_x,acc_y,acc_z,rot_x,rot_y,rot_z,mag_x,mag_y,mag_z,temp
1644166800.063397,-0.011536,0.008545,-0.992737,0.190321,0.325496,0.098015,49,282,577,5648
1644166800.101835,-0.010132,0.009827,-0.99231,0.281924,0.447634,-0.039389,61,275,578,5600
1644166800.14618,-0.011902,0.007568,-0.993164,0.205588,0.417099,-0.069924,41,269,576,5664
1644166800.195137,-0.009705,0.009094,-0.994202,0.236122,0.447634,-0.085191,47,268,577,5648
1644166800.245389,-0.012695,0.010254,-0.992554,0.327725,0.447634,-0.069924,46,274,576,5664
1644166800.290562,-0.008179,0.008667,-0.992554,0.205588,0.386565,-0.024122,57,268,584,5648
1644166800.386628,-0.012756,0.008301,-0.99408,0.266656,0.401832,-0.069924,45,270,584,5584
1644166800.435269,-0.011047,0.01062,-0.989746,0.159786,0.417099,-0.100458,43,271,569,5648
1644166800.483435,-0.012024,0.009155,-0.992493,0.251389,0.447634,-0.176794,43,276,578,5632
1644166800.531821,-0.010742,0.01178,-0.992004,0.175053,0.401832,-0.207328,47,280,572,5648
1644166800.580209,-0.010132,0.006836,-0.994263,0.297191,0.417099,-0.176794,45,270,575,5584
1644166800.628596,-0.011536,0.007202,-0.992859,0.190321,0.508702,-0.237863,42,277,579,5536
1644166800.676983,-0.009766,0.009888,-0.992371,0.205588,0.462901,-0.100458,53,279,580,5632
1644166800.725371,-0.009521,0.006226,-0.991577,0.404061,0.508702,-0.176794,45,275,575,5632
1644166800.773783,-0.01062,0.009644,-0.99176,0.236122,0.340763,-0.024122,46,262,576,5648
1644166800.822173,-0.011169,0.008545,-0.992126,0.236122,0.493435,-0.192061,46,274,585,5664
1644166800.870561,-0.010254,0.01001,-0.992065,0.266656,0.417099,-0.14626,49,273,572,5600
1644166800.91897,-0.009888,0.011475,-0.990662,0.342992,0.493435,-0.069924,57,265,579,5584
1644166800.96735,-0.008118,0.011047,-0.990295,0.175053,0.417099,-0.008855,40,287,579,5648
1644166801.01576,-0.00946,0.008423,-0.989502,0.190321,0.432366,-0.237863,40,280,577,5600
1644166801.069697,-0.006775,0.00769,-0.99231,0.266656,0.447634,-0.115725,53,274,583,5632
1644166801.113476,-0.013123,0.007568,-0.992493,0.342992,0.417099,-0.176794,49,270,591,5584
1644166801.160891,-0.012085,0.008728,-0.991577,0.251389,0.386565,0.036947,53,264,587,5584
1644166801.209277,-0.010559,0.009705,-0.990295,0.35826,0.508702,-0.329466,51,279,571,5584
1644166801.257676,-0.009583,0.008301,-0.991943,0.236122,0.371298,-0.008855,60,276,573,5648
1644166801.306277,-0.010742,0.008545,-0.991333,0.35826,0.523969,-0.054656,55,269,580,5712
1644166801.356739,-0.014099,0.010864,-0.992188,0.129252,0.432366,-0.192061,41,279,571,5600
1644166801.407,-0.009827,0.00647,-0.99353,0.297191,0.493435,-0.054656,57,285,579,5600
1644166801.452054,-0.012878,0.008362,-0.990479,0.144519,0.417099,-0.085191,41,274,580,5696
1644166801.547999,-0.007507,0.012329,-0.991211,0.342992,0.432366,-0.161527,52,270,572,5648
1644166801.596395,-0.011353,0.009338,-0.993408,0.342992,0.417099,-0.085191,47,268,572,5728
1644166801.644852,-0.009705,0.008545,-0.994202,0.220855,0.569771,-0.25313,53,269,569,5648
1644166801.693198,-0.010681,0.007751,-0.992188,0.190321,0.371298,-0.100458,55,269,576,5632
1644166801.741575,-0.009277,0.009033,-0.992859,0.159786,0.294962,-0.161527,49,275,577,5584
1644166801.789966,-0.007935,0.008545,-0.993408,0.144519,0.325496,-0.25313,43,276,573,5600
1644166801.838349,-0.013306,0.005249,-0.989868,0.327725,0.462901,-0.054656,57,273,577,5648
1644166801.886778,-0.009338,0.007202,-0.994202,0.388794,0.523969,-0.008855,45,270,575,5648
1644166801.935283,-0.007629,0.009827,-0.990723,0.159786,0.432366,-0.085191,42,268,579,5536
1644166801.983573,-0.012878,0.008667,-0.994202,0.373527,0.523969,-0.069924,47,277,577,5600
1644166802.031962,-0.012878,0.00946,-0.991943,0.281924,0.462901,-0.085191,45,275,584,5632
1644166802.086616,-0.012817,0.00885,-0.987976,0.327725,0.447634,-0.130992,46,276,576,5648
1644166802.128704,-0.011047,0.010193,-0.992615,0.190321,0.447634,-0.25313,51,269,576,5584
1644166802.177091,-0.009399,0.01001,-0.991699,0.266656,0.447634,-0.130992,48,266,585,5648
1644166802.225483,-0.013123,0.009155,-0.991333,0.342992,0.493435,-0.024122,53,264,573,5584
1644166802.273872,-0.015015,0.007385,-0.992737,0.251389,0.447634,-0.054656,57,263,586,5648
1644166802.322602,-0.012573,0.010132,-0.991516,0.342992,0.462901,-0.069924,43,279,583,5664
1644166802.371486,-0.01355,0.007996,-0.991638,0.297191,0.294962,-0.085191,51,271,573,5664
1644166802.422522,-0.012939,0.009644,-0.993225,0.159786,0.401832,-0.14626,54,268,578,5600
1644166802.467735,-0.012146,0.008362,-0.992371,0.190321,0.401832,-0.039389,46,283,576,5648
1644166802.517583,-0.011353,0.008911,-0.994141,0.236122,0.447634,-0.207328,53,266,569,5648
1644166802.612634,-0.012939,0.009277,-0.991394,0.098718,0.233893,-0.161527,48,269,573,5584
1644166802.660991,-0.008057,0.007812,-0.99231,0.205588,0.417099,-0.161527,39,269,580,5632
1644166802.70939,-0.01239,0.008606,-0.993225,0.144519,0.417099,-0.130992,48,274,578,5696
1644166802.757749,-0.009705,0.006348,-0.992371,0.373527,0.615573,0.021679,52,275,579,5664
1644166802.806167,-0.011963,0.007568,-0.993225,0.159786,0.417099,0.021679,55,271,580,5648
1644166802.8546,-0.009644,0.010376,-0.993347,0.175053,0.401832,-0.085191,58,279,578,5600
1644166802.903019,-0.01001,0.009521,-0.991821,0.312458,0.432366,-0.222595,45,277,570,5552
1644166802.951383,-0.013306,0.004944,-0.992004,0.236122,0.447634,0.006412,55,279,571,5552
1644166802.999749,-0.008362,0.006836,-0.990295,0.342992,0.356031,-0.085191,57,282,584,5584
1644166803.057908,-0.011169,0.007263,-0.993164,0.342992,0.401832,-0.115725,53,279,587,5600
1644166803.096511,-0.008606,0.008423,-0.993469,0.251389,0.401832,-0.024122,59,275,575,5584
1644166803.145047,-0.010864,0.007751,-0.991333,0.327725,0.462901,-0.14626,46,266,576,5536
1644166803.193342,-0.010132,0.011658,-0.992554,0.281924,0.218626,0.021679,53,276,576,5648
1644166803.241721,-0.01123,0.007935,-0.991272,0.342992,0.432366,-0.14626,53,269,576,5584
1644166803.290104,-0.009644,0.007935,-0.99054,0.266656,0.508702,-0.100458,54,270,568,5664
1644166803.338497,-0.011658,0.009888,-0.991394,0.220855,0.432366,-0.161527,55,264,576,5600
1644166803.386864,-0.011658,0.010132,-0.994019,0.297191,0.203359,-0.085191,57,275,579,5696
1644166803.435453,-0.005859,0.009766,-0.993652,0.220855,0.462901,-0.085191,54,277,579,5600
1644166803.48369,-0.008606,0.007568,-0.993469,0.08345,0.386565,-0.176794,46,271,573,5584
1644166803.533596,-0.009888,0.010681,-0.991455,0.144519,0.371298,-0.054656,41,283,578,5536
1644166803.583913,-0.010925,0.006531,-0.993591,0.129252,0.447634,-0.130992,52,268,572,5632
1644166803.634571,-0.012695,0.007324,-0.993408,0.281924,0.600305,-0.069924,49,280,586,5648
1644166803.678742,-0.011047,0.009094,-0.991943,0.236122,0.386565,-0.069924,38,265,577,5600
1644166803.774011,-0.010315,0.01062,-0.991821,0.175053,0.386565,-0.039389,43,274,578,5600
1644166803.822429,-0.009521,0.007629,-0.992371,0.297191,0.401832,-0.069924,42,275,570,5648
1644166803.870786,-0.01062,0.009277,-0.99408,0.373527,0.340763,-0.207328,48,264,566,5648
1644166803.919187,-0.008789,0.01178,-0.990845,0.205588,0.310229,-0.100458,53,281,576,5648
1644166803.967567,-0.009705,0.010315,-0.991821,0.236122,0.432366,-0.130992,53,269,578,5536
1644166804.015944,-0.013855,0.007874,-0.990417,0.175053,0.401832,-0.25313,43,279,573,5584
1644166804.068881,-0.00946,0.006042,-0.99469,0.251389,0.447634,-0.054656,47,280,572,5648
1644166804.112717,-0.013306,0.005737,-0.99408,0.404061,0.493435,-0.14626,61,268,582,5632
1644166804.161099,-0.009949,0.011841,-0.992859,0.342992,0.279695,-0.115725,49,277,575,5600
1644166804.209496,-0.01062,0.005981,-0.994873,0.220855,0.478168,-0.192061,46,274,585,5712
1644166804.257921,-0.013611,0.006409,-0.994324,0.098718,0.462901,-0.100458,52,265,575,5520
1644166804.306237,-0.011169,0.010864,-0.993591,0.159786,0.371298,-0.161527,57,270,577,5600
1644166804.354712,-0.008789,0.007019,-0.992371,0.236122,0.539237,-0.054656,46,281,573,5536
1644166804.403064,-0.010437,0.009155,-0.992126,0.236122,0.371298,-0.069924,52,273,572,5584
1644166804.451439,-0.014221,0.010437,-0.990967,0.266656,0.417099,-0.14626,45,268,577,5584
1644166804.499826,-0.010681,0.009399,-0.990417,0.281924,0.417099,0.067481,59,280,575,5648
1644166804.54823,-0.009888,0.007935,-0.991028,0.419328,0.523969,-0.115725,45,265,577,5632
1644166804.596614,-0.009827,0.00885,-0.993103,0.159786,0.371298,-0.024122,48,264,583,5648
1644166804.645135,-0.008789,0.008545,-0.990295,0.220855,0.508702,-0.176794,47,275,572,5648
1644166804.693646,-0.011841,0.006775,-0.991699,0.129252,0.493435,-0.115725,40,282,568,5696
1644166804.744264,-0.013306,0.008057,-0.990479,0.068183,0.478168,-0.176794,47,270,575,5648
1644166804.794293,-0.008667,0.00885,-0.993225,0.373527,0.447634,-0.054656,42,282,591,5648
1644166804.839876,-0.00824,0.010071,-0.991577,0.297191,0.585038,-0.130992,60,274,566,5648
1644166804.935479,-0.010559,0.007935,-0.990601,0.251389,0.478168,-0.039389,57,263,563,5584
1644166804.983781,-0.009521,0.01178,-0.990662,0.220855,0.340763,-0.14626,52,282,572,5520
1644166805.032424,-0.011047,0.011414,-0.992615,0.144519,0.371298,0.067481,47,275,582,5584
1644166805.080621,-0.009583,0.007507,-0.989502,0.144519,0.386565,-0.069924,61,275,579,5584
1644166805.128882,-0.009766,0.010071,-0.990356,0.281924,0.401832,-0.100458,55,266,576,5600
1644166805.177297,-0.008423,0.011414,-0.992004,0.266656,0.371298,-0.069924,59,270,579,5648
1644166805.225684,-0.010376,0.009338,-0.993347,0.159786,0.417099,-0.069924,57,268,577,5648
1644166805.274047,-0.008972,0.010315,-0.993958,0.281924,0.264427,0.006412,58,276,578,5648
1644166805.322459,-0.011536,0.008301,-0.993164,0.312458,0.371298,-0.192061,39,264,573,5648
1644166805.370855,-0.012573,0.007996,-0.98761,0.220855,0.401832,-0.207328,43,276,566,5648
1644166805.419265,-0.007568,0.007019,-0.993103,0.373527,0.447634,-0.130992,46,274,580,5664
1644166805.46763,-0.010071,0.008667,-0.99176,0.175053,0.432366,-0.314198,48,283,569,5648
1644166805.516024,-0.011658,0.009766,-0.993896,0.297191,0.600305,0.036947,47,275,584,5600
1644166805.564412,-0.013489,0.010254,-0.993408,0.08345,0.478168,-0.100458,46,269,571,5584
1644166805.612827,-0.008179,0.009521,-0.994812,0.129252,0.478168,-0.100458,49,270,570,5648
1644166805.661198,-0.010498,0.009033,-0.993835,0.220855,0.539237,-0.069924,52,270,582,5648
1644166805.709576,-0.011108,0.010376,-0.99115,0.220855,0.401832,-0.069924,54,282,568,5600
1644166805.757968,-0.009521,0.009949,-0.995667,0.236122,0.462901,-0.024122,46,271,576,5664
1644166805.806636,-0.009888,0.011108,-0.991516,0.220855,0.294962,-0.130992,49,275,579,5648
1644166805.856096,-0.010986,0.007812,-0.993042,0.159786,0.340763,-0.085191,49,263,582,5584
1644166805.906673,-0.011536,0.008606,-0.993469,0.327725,0.462901,-0.207328,54,275,579,5584
1644166805.956535,-0.012207,0.009277,-0.993652,0.159786,0.462901,-0.054656,54,270,579,5648
1644166806.057336,-0.010925,0.008484,-0.98938,0.159786,0.447634,-0.054656,51,269,583,5648
1644166806.098183,-0.011353,0.010986,-0.992188,0.35826,0.447634,-0.14626,59,268,582,5648
1644166806.145124,-0.010864,0.008484,-0.992065,0.373527,0.417099,-0.14626,48,276,569,5632
1644166806.19349,-0.010498,0.007751,-0.994568,0.129252,0.340763,-0.069924,52,277,577,5584
1644166806.241877,-0.009338,0.009338,-0.992126,0.159786,0.447634,0.006412,58,281,573,5648
1644166806.290251,-0.012451,0.01123,-0.992493,0.220855,0.432366,-0.115725,54,273,568,5632
1644166806.338663,-0.011475,0.009338,-0.993958,0.205588,0.417099,-0.115725,48,271,580,5632
1644166806.387057,-0.011536,0.009155,-0.990662,0.266656,0.478168,0.052214,48,269,573,5536
1644166806.435445,-0.011353,0.009888,-0.991089,0.266656,0.447634,-0.222595,53,266,580,5584
1644166806.48383,-0.013672,0.00769,-0.989197,0.129252,0.371298,-0.039389,41,283,583,5664
1644166806.53229,-0.009705,0.007263,-0.992981,0.144519,0.569771,-0.283664,54,273,584,5664
1644166806.580593,-0.010437,0.00885,-0.994141,0.113985,0.417099,-0.192061,49,273,577,5632
1644166806.629322,-0.010986,0.008789,-0.992615,0.266656,0.447634,-0.039389,54,277,579,5552
1644166806.678113,-0.008789,0.007263,-0.992188,0.236122,0.417099,-0.14626,49,268,579,5648
1644166806.728708,-0.009216,0.008606,-0.994751,0.159786,0.569771,-0.054656,49,277,577,5648
1644166806.779015,-0.013428,0.011841,-0.989868,0.220855,0.417099,-0.039389,57,268,582,5632
1644166806.823798,-0.01239,0.007385,-0.990784,0.175053,0.493435,-0.100458,55,271,566,5600
1644166806.919376,-0.009705,0.009705,-0.992493,0.266656,0.554504,-0.176794,49,275,565,5584
1644166806.967764,-0.010559,0.011169,-0.99176,0.159786,0.478168,-0.069924,55,266,576,5584
1644166807.016165,-0.009338,0.006775,-0.993958,0.220855,0.340763,-0.069924,47,273,577,5584
1644166807.067998,-0.011963,0.010925,-0.991028,0.220855,0.401832,-0.207328,47,270,584,5584
1644166807.112949,-0.014954,0.010254,-0.991394,0.205588,0.432366,-0.161527,53,274,578,5664
1644166807.161279,-0.01123,0.01062,-0.99292,0.281924,0.432366,0.052214,48,274,578,5664
1644166807.209685,-0.011841,0.008789,-0.992065,0.144519,0.356031,-0.069924,49,282,570,5696
1644166807.25808,-0.012268,0.007019,-0.991272,0.190321,0.340763,-0.130992,51,262,580,5648
1644166807.306447,-0.011841,0.00885,-0.991882,0.175053,0.371298,-0.222595,48,274,576,5584
1644166807.354883,-0.010071,0.008484,-0.990479,0.113985,0.508702,-0.069924,45,282,575,5664
1644166807.403266,-0.013916,0.008301,-0.992432,0.190321,0.432366,-0.085191,53,266,564,5584
1644166807.451647,-0.011719,0.006348,-0.991699,0.251389,0.218626,-0.115725,51,279,576,5536
1644166807.50004,-0.008301,0.009033,-0.991272,0.220855,0.356031,-0.039389,42,277,575,5632
1644166807.548421,-0.009949,0.010437,-0.994568,0.266656,0.340763,0.006412,55,274,578,5584
1644166807.596789,-0.010742,0.009888,-0.99353,0.297191,0.340763,-0.14626,48,271,580,5552
1644166807.645184,-0.011108,0.008911,-0.993103,0.236122,0.478168,-0.14626,53,266,569,5664
1644166807.693581,-0.012268,0.007874,-0.991516,0.113985,0.401832,-0.039389,49,270,577,5584
1644166807.74198,-0.012878,0.009521,-0.992981,0.312458,0.554504,0.052214,45,263,579,5584
1644166807.790372,-0.009705,0.010071,-0.991577,0.342992,0.371298,-0.14626,54,275,572,5584
1644166807.840312,-0.010193,0.010315,-0.990967,0.236122,0.447634,-0.130992,54,280,577,5648
1644166807.890667,-0.010254,0.009216,-0.992798,0.297191,0.294962,-0.054656,47,265,584,5600
1644166807.941017,-0.007202,0.010742,-0.991516,0.144519,0.462901,-0.161527,43,274,578,5648
1644166807.985499,-0.012024,0.00885,-0.991882,0.175053,0.447634,-0.176794,47,285,582,5552
1644166808.080825,-0.012817,0.007629,-0.989258,0.312458,0.447634,-0.054656,47,273,584,5632
1644166808.129118,-0.011353,0.008423,-0.990601,0.35826,0.432366,-0.130992,58,271,569,5632
1644166808.177462,-0.013367,0.00824,-0.992188,0.297191,0.462901,-0.085191,57,273,575,5664
1644166808.225924,-0.006958,0.011047,-0.993958,0.08345,0.478168,-0.100458,46,271,573,5600
1644166808.274255,-0.010498,0.009705,-0.989502,0.129252,0.371298,-0.008855,52,268,577,5584
1644166808.322682,-0.010071,0.011963,-0.991821,0.266656,0.462901,-0.161527,51,276,578,5632
1644166808.371062,-0.009888,0.009949,-0.991516,0.266656,0.600305,-0.024122,57,280,575,5664
1644166808.419424,-0.011353,0.011536,-0.992371,0.190321,0.432366,-0.024122,49,270,572,5584
1644166808.46784,-0.009033,0.007202,-0.991089,0.205588,0.462901,-0.161527,55,274,580,5632
1644166808.516225,-0.01239,0.008789,-0.992065,0.08345,0.371298,-0.115725,53,276,583,5584
1644166808.564712,-0.012695,0.010498,-0.991211,0.266656,0.508702,-0.085191,60,279,569,5664
1644166808.613014,-0.01239,0.007263,-0.992371,0.281924,0.523969,-0.069924,54,265,568,5600
1644166808.661397,-0.013245,0.007446,-0.99115,0.220855,0.340763,0.006412,58,274,576,5632
1644166808.709769,-0.01062,0.00824,-0.992126,0.297191,0.417099,-0.024122,54,270,572,5600
1644166808.758155,-0.01178,0.007629,-0.992676,0.236122,0.371298,0.082748,49,273,579,5600
1644166808.806568,-0.009155,0.010315,-0.992737,0.159786,0.417099,-0.115725,54,280,579,5648
1644166808.855051,-0.011963,0.009277,-0.991943,0.129252,0.554504,0.006412,55,274,573,5664
1644166808.903414,-0.010254,0.009216,-0.992004,0.251389,0.493435,-0.14626,51,276,585,5584
1644166808.952194,-0.011963,0.008789,-0.991821,0.144519,0.447634,-0.207328,55,276,576,5584
1644166809.001951,-0.008118,0.006775,-0.993469,0.220855,0.432366,-0.115725,48,269,578,5648
1644166809.064899,-0.008118,0.009399,-0.990906,0.236122,0.417099,-0.039389,52,277,572,5584
1644166809.103405,-0.009949,0.01001,-0.992371,0.266656,0.264427,-0.130992,52,280,579,5648
1644166809.147222,-0.012573,0.00946,-0.991394,0.175053,0.585038,-0.176794,59,270,579,5664
1644166809.24208,-0.011047,0.00708,-0.992737,0.297191,0.478168,-0.069924,55,264,578,5648
1644166809.290464,-0.013611,0.008484,-0.992859,0.480397,0.340763,-0.024122,49,270,575,5600
1644166809.338861,-0.010986,0.008911,-0.993225,0.35826,0.340763,-0.008855,40,275,584,5648
1644166809.387254,-0.011597,0.009583,-0.992737,0.205588,0.646107,-0.039389,51,264,585,5600
1644166809.435638,-0.008179,0.010254,-0.992615,0.266656,0.523969,-0.069924,45,280,565,5648
1644166809.484034,-0.010986,0.00946,-0.993286,0.281924,0.462901,-0.054656,45,275,575,5552
1644166809.532448,-0.008911,0.007751,-0.992065,0.220855,0.478168,-0.085191,48,279,580,5584
1644166809.580817,-0.009766,0.006775,-0.990295,0.281924,0.493435,-0.130992,47,275,572,5664
1644166809.629182,-0.009705,0.008728,-0.994873,0.281924,0.432366,-0.039389,47,275,572,5584
1644166809.67756,-0.013916,0.010864,-0.991577,0.342992,0.371298,-0.25313,47,282,579,5648
1644166809.725987,-0.014282,0.011963,-0.99176,0.144519,0.294962,0.052214,43,276,576,5648
1644166809.774391,-0.009705,0.007629,-0.990601,0.312458,0.523969,-0.390534,54,273,577,5584
1644166809.822794,-0.009521,0.010254,-0.992432,0.281924,0.417099,-0.100458,49,277,582,5600
1644166809.871204,-0.013245,0.00885,-0.992493,0.205588,0.325496,-0.100458,54,273,579,5664
1644166809.919585,-0.008667,0.009399,-0.991333,0.35826,0.462901,-0.14626,41,279,580,5632
1644166809.967973,-0.012756,0.01062,-0.993042,0.373527,0.417099,0.006412,51,269,580,5664
1644166810.016378,-0.011292,0.010681,-0.991882,0.205588,0.371298,-0.115725,51,264,578,5600
1644166810.088804,-0.011536,0.010864,-0.989685,0.251389,0.478168,-0.069924,46,274,583,5584
1644166810.161538,-0.011719,0.01123,-0.989502,0.144519,0.432366,-0.069924,51,276,566,5600
1644166810.209877,-0.009766,0.008728,-0.992615,0.236122,0.294962,-0.207328,48,276,571,5552
1644166810.258268,-0.009399,0.009949,-0.992188,0.419328,0.417099,-0.069924,53,269,569,5696
1644166810.306664,-0.009766,0.009705,-0.995667,0.220855,0.462901,-0.237863,47,273,572,5600
1644166810.355102,-0.010864,0.007141,-0.991333,0.327725,0.462901,-0.100458,39,269,573,5600
1644166810.403465,-0.011475,0.007019,-0.993713,0.327725,0.401832,-0.100458,42,277,575,5600
1644166810.451875,-0.007019,0.010803,-0.991455,0.297191,0.401832,-0.115725,52,263,577,5648
1644166810.500211,-0.011963,0.009277,-0.989441,0.190321,0.447634,0.006412,46,269,562,5664
1644166810.548625,-0.010864,0.009705,-0.98938,0.190321,0.447634,-0.100458,48,279,578,5600
1644166810.59701,-0.011108,0.009094,-0.992004,0.297191,0.447634,0.067481,52,280,579,5664
1644166810.645372,-0.009277,0.011353,-0.991394,0.373527,0.386565,-0.039389,52,268,575,5600
1644166810.693804,-0.00885,0.012817,-0.992493,0.35826,0.508702,0.082748,51,274,573,5600
1644166810.742245,-0.010803,0.008423,-0.991943,0.113985,0.371298,-0.314198,43,276,585,5664
1644166810.79057,-0.009705,0.008484,-0.994263,0.220855,0.493435,-0.054656,49,280,584,5600
1644166810.838965,-0.010864,0.011902,-0.993103,0.236122,0.523969,-0.069924,52,277,579,5600
1644166810.887396,-0.01239,0.00708,-0.993591,0.068183,0.554504,-0.237863,49,263,570,5696
1644166810.935786,-0.01001,0.007874,-0.992126,0.312458,0.462901,-0.176794,55,279,580,5600
1644166810.98441,-0.011597,0.011108,-0.991821,0.281924,0.447634,-0.176794,48,281,580,5584
1644166811.032599,-0.009888,0.010559,-0.988831,0.251389,0.386565,-0.008855,57,270,575,5536
1644166811.08407,-0.013184,0.007996,-0.991943,0.205588,0.523969,-0.069924,52,273,575,5600
1644166811.132346,-0.008789,0.008179,-0.995178,0.144519,0.417099,-0.100458,51,264,573,5648
1644166811.182444,-0.011169,0.010498,-0.993347,0.419328,0.493435,-0.192061,49,270,572,5584
1644166811.274515,-0.009583,0.004883,-0.99353,0.068183,0.340763,-0.024122,48,276,576,5600
1644166811.32287,-0.012024,0.007874,-0.991943,0.419328,0.340763,0.021679,42,285,582,5600
1644166811.371232,-0.011841,0.007263,-0.992004,0.281924,0.508702,0.006412,53,271,571,5584
1644166811.419646,-0.010742,0.008545,-0.992065,0.251389,0.493435,0.036947,58,271,576,5584
1644166811.46804,-0.011292,0.007263,-0.992371,0.190321,0.432366,-0.207328,42,268,563,5536
1644166811.516418,-0.010559,0.009644,-0.990295,0.251389,0.447634,-0.161527,49,277,577,5648
1644166811.564829,-0.006042,0.006836,-0.993164,0.434595,0.356031,-0.069924,57,273,575,5648
1644166811.613201,-0.009766,0.009399,-0.992493,0.495664,0.401832,-0.192061,49,273,577,5696
1644166811.661613,-0.010559,0.00708,-0.990601,0.327725,0.417099,-0.008855,42,280,582,5536
1644166811.709992,-0.010498,0.00824,-0.990662,0.251389,0.386565,-0.069924,48,283,569,5584
1644166811.758362,-0.008911,0.009399,-0.992432,0.159786,0.356031,-0.039389,46,283,583,5648
1644166811.806858,-0.008423,0.009583,-0.991699,0.236122,0.417099,-0.14626,51,274,571,5648
1644166811.855289,-0.011902,0.008911,-0.99054,0.266656,0.371298,-0.024122,51,271,566,5632
1644166811.903597,-0.01123,0.007263,-0.99176,0.175053,0.356031,0.036947,49,275,572,5648
1644166811.951979,-0.007935,0.007385,-0.991943,0.190321,0.371298,-0.130992,59,265,568,5584
1644166812.000334,-0.010193,0.007935,-0.991394,0.297191,0.401832,-0.008855,60,271,573,5632
1644166812.061842,-0.009338,0.010132,-0.989929,0.388794,0.371298,0.021679,54,277,572,5648
1644166812.099292,-0.010437,0.007812,-0.99292,0.251389,0.371298,-0.161527,52,277,577,5632
1644166812.145475,-0.011353,0.008667,-0.990723,0.236122,0.523969,-0.069924,54,270,575,5552
1644166812.193939,-0.012024,0.009766,-0.993469,0.236122,0.401832,0.021679,47,277,570,5648
1644166812.24407,-0.013611,0.009888,-0.989136,0.220855,0.401832,-0.085191,43,271,580,5584
1644166812.294421,-0.008667,0.009766,-0.99115,0.312458,0.447634,-0.039389,54,280,572,5664
1644166812.339546,-0.011902,0.009949,-0.992126,0.205588,0.279695,-0.085191,51,269,576,5600
1644166812.435819,-0.009277,0.009644,-0.992065,0.205588,0.401832,-0.14626,55,262,571,5648
1644166812.484261,-0.010864,0.009705,-0.990967,0.297191,0.585038,-0.130992,57,270,572,5664
1644166812.532627,-0.01123,0.007019,-0.991577,0.113985,0.447634,-0.161527,43,279,573,5600
1644166812.581004,-0.009644,0.009888,-0.991089,0.129252,0.310229,-0.176794,48,274,573,5648
1644166812.629381,-0.012085,0.008972,-0.991577,0.190321,0.523969,-0.008855,51,274,578,5632
1644166812.677794,-0.012024,0.011353,-0.990845,0.175053,0.432366,-0.130992,59,277,577,5600
1644166812.726175,-0.010803,0.009644,-0.989685,0.297191,0.462901,-0.176794,36,279,573,5648
1644166812.77463,-0.010498,0.006714,-0.992371,0.220855,0.539237,-0.176794,58,276,578,5632
1644166812.823024,-0.009521,0.011902,-0.991211,0.190321,0.371298,0.082748,57,275,568,5600
1644166812.871407,-0.009827,0.006836,-0.993591,0.113985,0.371298,-0.069924,40,277,572,5648
1644166812.919781,-0.01355,0.00708,-0.992859,0.281924,0.417099,0.113282,53,271,583,5600
1644166812.96819,-0.009338,0.008789,-0.98938,0.068183,0.478168,-0.100458,58,271,576,5600
1644166813.016558,-0.010437,0.008423,-0.994995,0.281924,0.508702,0.006412,57,285,575,5584
1644166813.08557,-0.009827,0.007874,-0.991211,0.251389,0.356031,-0.192061,58,269,587,5552
1644166813.113551,-0.012634,0.010254,-0.996033,0.190321,0.310229,0.021679,48,276,578,5664
1644166813.161698,-0.010986,0.010498,-0.992432,0.388794,0.432366,0.036947,49,280,565,5584
1644166813.21008,-0.011353,0.008362,-0.992737,0.342992,0.478168,-0.100458,40,273,579,5632
1644166813.25848,-0.010864,0.009521,-0.995178,0.129252,0.508702,-0.069924,46,279,571,5536
1644166813.30719,-0.010254,0.009583,-0.992798,0.113985,0.386565,-0.085191,42,273,565,5600
1644166813.356665,-0.013062,0.00769,-0.992493,0.327725,0.447634,-0.25313,45,275,575,5648
1644166813.406989,-0.009338,0.009583,-0.993896,0.281924,0.493435,-0.222595,52,275,568,5552
1644166813.457108,-0.010437,0.008789,-0.992615,0.35826,0.371298,-0.192061,52,282,575,5600
1644166813.548831,-0.012329,0.008667,-0.992188,0.281924,0.432366,-0.085191,53,279,583,5712
1644166813.597198,-0.010681,0.012573,-0.991577,0.35826,0.356031,-0.207328,49,277,575,5584
1644166813.645583,-0.009094,0.007751,-0.99353,0.35826,0.401832,0.036947,66,275,579,5600
1644166813.694005,-0.011414,0.00946,-0.994751,0.373527,0.386565,-0.130992,46,279,566,5600
1644166813.742403,-0.009521,0.006042,-0.989502,0.388794,0.294962,-0.14626,51,266,573,5584
1644166813.790777,-0.006531,0.008545,-0.991821,0.35826,0.386565,-0.100458,42,277,572,5584
1644166813.839217,-0.009399,0.010498,-0.993469,0.190321,0.279695,-0.085191,48,276,578,5600
1644166813.887597,-0.010498,0.009583,-0.992859,0.144519,0.401832,0.036947,45,270,575,5600
1644166813.935982,-0.008484,0.01062,-0.992493,0.297191,0.356031,-0.100458,48,266,580,5632
1644166813.984403,-0.007874,0.009399,-0.990662,0.297191,0.356031,0.036947,43,271,573,5600
1644166814.032772,-0.011475,0.010315,-0.994141,0.251389,0.325496,-0.054656,55,276,576,5648
1644166814.089335,-0.011841,0.010803,-0.992371,0.251389,0.356031,-0.207328,46,274,576,5632
1644166814.129519,-0.011719,0.010315,-0.990967,0.175053,0.310229,-0.130992,49,277,575,5600
1644166814.177912,-0.011475,0.011353,-0.992004,0.251389,0.432366,-0.069924,51,279,576,5648
1644166814.226258,-0.011169,0.010437,-0.988831,0.266656,0.447634,-0.085191,51,264,580,5632
1644166814.27469,-0.009277,0.00647,-0.99115,0.312458,0.523969,-0.192061,53,274,578,5552
1644166814.323308,-0.008789,0.00885,-0.992249,0.236122,0.523969,-0.130992,49,273,575,5584
1644166814.372279,-0.011108,0.008179,-0.99231,0.281924,0.401832,-0.130992,51,266,583,5632
1644166814.422758,-0.010986,0.009888,-0.995605,0.144519,0.462901,-0.069924,48,266,566,5600
1644166814.472897,-0.010559,0.006531,-0.989868,0.35826,0.386565,0.021679,40,260,577,5632
1644166814.518008,-0.010376,0.009766,-0.991577,0.205588,0.447634,-0.054656,51,276,580,5648
1644166814.613418,-0.010742,0.009521,-0.993042,0.205588,0.478168,0.021679,46,276,578,5600
1644166814.661794,-0.012878,0.009705,-0.990845,0.327725,0.508702,-0.024122,48,276,576,5600
1644166814.710187,-0.00708,0.010254,-0.992737,0.281924,0.539237,-0.14626,55,274,571,5648
1644166814.758562,-0.008423,0.009338,-0.994873,0.098718,0.432366,0.021679,51,276,578,5600
1644166814.806971,-0.012146,0.008484,-0.99054,0.312458,0.508702,-0.008855,52,277,570,5536
1644166814.855392,-0.011963,0.01178,-0.993103,0.342992,0.340763,-0.115725,54,270,572,5600
1644166814.903811,-0.01001,0.005676,-0.990845,0.404061,0.386565,-0.024122,55,276,573,5600
1644166814.95218,-0.012878,0.010071,-0.993652,0.281924,0.508702,-0.069924,41,271,573,5584
1644166815.000543,-0.011047,0.006897,-0.991333,0.35826,0.493435,-0.100458,51,266,580,5648
1644166815.060699,-0.013367,0.005859,-0.992676,0.404061,0.371298,-0.100458,57,280,577,5584
1644166815.101074,-0.011902,0.009949,-0.991638,0.159786,0.432366,-0.130992,52,270,572,5600
1644166815.1457,-0.012024,0.010681,-0.990906,0.205588,0.401832,-0.054656,54,268,577,5552
1644166815.194116,-0.009216,0.008484,-0.991516,0.236122,0.585038,-0.130992,49,273,570,5648
1644166815.242497,-0.008423,0.007935,-0.991028,0.159786,0.478168,-0.115725,46,279,573,5632
1644166815.290863,-0.013794,0.006775,-0.990906,0.266656,0.294962,-0.069924,48,274,578,5552
1644166815.339242,-0.010864,0.00885,-0.994263,0.297191,0.478168,-0.024122,48,279,580,5584
1644166815.387641,-0.011414,0.007751,-0.994629,0.220855,0.539237,-0.161527,60,271,583,5600
1644166815.436037,-0.010925,0.006897,-0.992126,0.251389,0.417099,-0.176794,49,275,582,5584
1644166815.484475,-0.010132,0.006836,-0.990662,0.220855,0.294962,-0.161527,43,269,569,5600
1644166815.534884,-0.009521,0.010132,-0.994446,0.190321,0.478168,-0.14626,48,266,573,5632
1644166815.585096,-0.010925,0.007202,-0.992371,0.205588,0.294962,-0.115725,51,279,576,5632
1644166815.630202,-0.010559,0.00946,-0.990845,0.205588,0.401832,-0.054656,48,271,573,5664
1644166815.726377,-0.012817,0.004822,-0.994385,0.327725,0.386565,-0.039389,53,271,573,5648
1644166815.774953,-0.010681,0.010803,-0.99054,0.251389,0.325496,-0.176794,51,274,576,5696
1644166815.823172,-0.014465,0.009766,-0.992126,0.251389,0.462901,-0.237863,40,280,582,5600
1644166815.871598,-0.009583,0.009521,-0.99353,0.46513,0.462901,-0.039389,55,281,576,5552
1644166815.919963,-0.011719,0.008728,-0.991333,0.266656,0.508702,-0.100458,36,279,578,5584
1644166815.968365,-0.011414,0.011902,-0.992859,0.312458,0.447634,-0.176794,57,265,584,5632
1644166816.016768,-0.012207,0.009277,-0.989441,0.342992,0.417099,0.189618,48,276,578,5600
1644166816.068513,-0.009521,0.006897,-0.994385,0.190321,0.340763,-0.085191,60,281,571,5600
1644166816.11359,-0.01001,0.008667,-0.992737,0.312458,0.417099,-0.069924,53,269,573,5648
1644166816.161908,-0.009644,0.008972,-0.990723,0.190321,0.401832,-0.054656,51,276,580,5536
1644166816.210297,-0.011108,0.008301,-0.990479,0.388794,0.508702,-0.024122,39,262,571,5552
1644166816.258662,-0.012512,0.010132,-0.992615,0.236122,0.432366,-0.192061,49,270,577,5600
1644166816.307052,-0.007996,0.007568,-0.992065,0.281924,0.401832,-0.008855,43,281,573,5648
1644166816.355441,-0.010376,0.01001,-0.994507,0.190321,0.371298,-0.008855,49,277,565,5584
1644166816.403826,-0.011841,0.007935,-0.9953,0.144519,0.340763,-0.039389,51,274,580,5648
1644166816.452251,-0.008362,0.006958,-0.992432,0.159786,0.462901,-0.14626,54,265,565,5600
1644166816.500601,-0.013184,0.008179,-0.993164,0.281924,0.493435,-0.405802,58,274,578,5648
1644166816.548992,-0.007324,0.009583,-0.994934,0.297191,0.310229,0.006412,55,271,571,5584
1644166816.597415,-0.013184,0.009521,-0.992432,0.327725,0.462901,-0.14626,59,275,570,5648
1644166816.64598,-0.012207,0.008972,-0.990723,0.220855,0.432366,-0.069924,53,270,570,5648
1644166816.696386,-0.009766,0.012268,-0.990662,0.08345,0.386565,-0.115725,48,271,580,5648
1644166816.746519,-0.010254,0.009644,-0.994385,0.251389,0.356031,-0.085191,51,279,578,5584
1644166816.79183,-0.010681,0.007019,-0.993652,0.190321,0.401832,-0.085191,55,276,576,5584
1644166816.887778,-0.012939,0.006775,-0.991882,0.236122,0.325496,-0.130992,47,275,575,5584
1644166816.936165,-0.00824,0.009216,-0.990173,0.449863,0.401832,-0.054656,41,276,573,5584
1644166816.984618,-0.011169,0.009827,-0.993103,0.266656,0.493435,-0.100458,47,277,577,5664
1644166817.03296,-0.010315,0.008423,-0.994812,0.297191,0.386565,0.036947,52,268,563,5536
1644166817.081522,-0.011841,0.009216,-0.98999,0.297191,0.294962,-0.008855,51,274,580,5600
1644166817.12975,-0.010803,0.006714,-0.993408,0.220855,0.554504,-0.192061,53,266,583,5696
1644166817.178098,-0.011353,0.010498,-0.992188,0.266656,0.264427,-0.008855,41,274,571,5584
1644166817.226483,-0.009644,0.008911,-0.990662,0.327725,0.478168,-0.25313,58,271,573,5552
1644166817.274873,-0.008728,0.010864,-0.992432,0.251389,0.401832,-0.161527,41,276,580,5600
1644166817.323277,-0.013062,0.008972,-0.992371,0.144519,0.508702,-0.054656,45,280,568,5536
1644166817.37165,-0.009155,0.007874,-0.991638,0.190321,0.493435,0.006412,58,274,578,5600
1644166817.420038,-0.010132,0.008179,-0.991821,0.190321,0.554504,-0.085191,48,271,566,5552
1644166817.468435,-0.013733,0.009583,-0.993774,0.190321,0.447634,-0.024122,52,268,577,5664
1644166817.516827,-0.009949,0.009705,-0.993713,0.159786,0.401832,-0.054656,55,271,580,5600
1644166817.565219,-0.012756,0.009399,-0.993225,0.159786,0.447634,-0.008855,51,276,576,5600
1644166817.613606,-0.009338,0.007751,-0.994812,0.327725,0.325496,-0.069924,54,280,582,5600
1644166817.661969,-0.008484,0.011169,-0.991028,0.419328,0.310229,-0.085191,42,268,572,5600
1644166817.710384,-0.012817,0.005676,-0.989502,0.098718,0.356031,0.082748,52,268,586,5648
1644166817.75877,-0.011963,0.008484,-0.991333,0.419328,0.417099,-0.100458,49,277,575,5584
1644166817.807609,-0.01062,0.009949,-0.994019,0.205588,0.493435,-0.100458,51,269,580,5600
1644166817.858758,-0.013306,0.007324,-0.993591,0.113985,0.401832,-0.115725,51,271,590,5696
1644166817.909139,-0.010559,0.008972,-0.991516,0.205588,0.447634,-0.069924,49,277,570,5584
1644166817.953694,-0.011536,0.006653,-0.991028,0.236122,0.294962,-0.039389,46,269,569,5600
1644166818.065356,-0.012695,0.005798,-0.992432,0.373527,0.569771,-0.085191,38,280,575,5600
1644166818.097634,-0.009521,0.010193,-0.992004,0.220855,0.600305,-0.069924,39,269,580,5632
1644166818.145949,-0.013489,0.006409,-0.990601,0.098718,0.386565,-0.192061,53,276,580,5696
1644166818.194311,-0.010986,0.010498,-0.98938,0.251389,0.340763,-0.161527,41,271,573,5584
1644166818.242692,-0.012634,0.009399,-0.993347,0.236122,0.462901,-0.069924,54,263,586,5536
1644166818.291079,-0.01062,0.011475,-0.993469,0.236122,0.417099,-0.054656,48,266,571,5536
1644166818.339448,-0.010071,0.01001,-0.991943,0.205588,0.478168,0.082748,53,274,576,5648
1644166818.387848,-0.010132,0.008972,-0.992188,0.251389,0.554504,-0.115725,53,276,573,5664
1644166818.436245,-0.009583,0.011902,-0.991272,0.205588,0.371298,-0.100458,61,273,575,5648
1644166818.484643,-0.012024,0.009949,-0.990906,0.35826,0.447634,-0.085191,45,273,586,5600
1644166818.533365,-0.009888,0.010559,-0.98822,0.098718,0.325496,0.006412,54,280,577,5584
1644166818.582318,-0.013184,0.010498,-0.992188,0.342992,0.386565,-0.115725,57,275,579,5664
1644166818.632741,-0.009888,0.009644,-0.992493,0.220855,0.340763,-0.176794,60,279,573,5600
1644166818.683142,-0.012756,0.012207,-0.992676,0.113985,0.279695,-0.039389,46,266,576,5584
1644166818.728269,-0.011047,0.007019,-0.992615,0.327725,0.478168,-0.176794,47,280,579,5600
1644166818.823371,-0.009949,0.010437,-0.993774,0.327725,0.554504,-0.25313,52,277,575,5600
1644166818.871751,-0.008057,0.010986,-0.993652,0.144519,0.417099,-0.115725,43,274,569,5648
1644166818.920182,-0.012024,0.006653,-0.993652,0.327725,0.356031,-0.14626,49,275,572,5648
1644166818.968574,-0.012024,0.00708,-0.99115,0.159786,0.340763,-0.192061,51,279,571,5664
1644166819.016973,-0.01001,0.01001,-0.993591,0.327725,0.478168,-0.069924,47,280,572,5584
1644166819.068706,-0.01123,0.010376,-0.992249,0.220855,0.325496,-0.024122,52,275,572,5600
1644166819.113727,-0.012146,0.00946,-0.991638,0.297191,0.233893,-0.14626,48,269,573,5648
1644166819.162193,-0.01239,0.008667,-0.991638,0.159786,0.310229,-0.130992,40,277,577,5584
1644166819.210546,-0.010986,0.010559,-0.991882,0.297191,0.371298,-0.176794,47,268,568,5600
1644166819.258927,-0.013672,0.00885,-0.989441,0.098718,0.340763,-0.176794,52,275,568,5648
1644166819.307278,-0.01062,0.011353,-0.991028,0.144519,0.478168,0.021679,55,274,566,5584
1644166819.3557,-0.011292,0.007324,-0.993713,0.297191,0.508702,-0.222595,55,286,573,5584
1644166819.404087,-0.01001,0.009705,-0.993286,0.434595,0.478168,-0.069924,61,268,572,5648
1644166819.4525,-0.009644,0.010071,-0.993469,0.327725,0.401832,0.067481,52,268,570,5584
1644166819.50085,-0.010498,0.00769,-0.994202,0.236122,0.478168,-0.039389,43,266,571,5648
1644166819.549237,-0.010742,0.010803,-0.992859,0.327725,0.386565,-0.192061,57,273,572,5584
1644166819.597657,-0.009583,0.01001,-0.993835,0.113985,0.340763,-0.069924,46,269,580,5664
1644166819.646824,-0.011169,0.011353,-0.992798,0.281924,0.401832,-0.161527,53,279,583,5664
1644166819.694458,-0.011597,0.013672,-0.989929,0.251389,0.371298,-0.054656,49,270,572,5664
1644166819.744455,-0.009766,0.010925,-0.989014,0.068183,0.356031,-0.161527,57,270,575,5600
1644166819.794993,-0.011414,0.010071,-0.991394,0.190321,0.401832,-0.115725,39,279,576,5584
1644166819.8449,-0.01001,0.010437,-0.993225,0.144519,0.508702,-0.054656,53,281,583,5648
1644166819.889466,-0.012451,0.012024,-0.990723,0.220855,0.478168,-0.115725,62,269,559,5584
1644166819.984904,-0.010254,0.010681,-0.992981,0.175053,0.386565,-0.115725,53,271,564,5584
1644166820.033198,-0.009888,0.007385,-0.992004,0.205588,0.447634,-0.268397,52,270,577,5696
1644166820.081627,-0.009888,0.013,-0.992188,0.251389,0.340763,-0.054656,51,279,576,5648
1644166820.129898,-0.009338,0.00769,-0.99353,0.46513,0.417099,-0.207328,45,275,572,5648
1644166820.178288,-0.010437,0.009277,-0.992126,0.175053,0.508702,-0.192061,54,268,577,5696
1644166820.226689,-0.012451,0.009888,-0.99176,0.297191,0.401832,-0.100458,57,280,575,5632
1644166820.275113,-0.009521,0.009033,-0.992981,0.281924,0.417099,0.006412,45,277,575,5584
1644166820.323481,-0.008789,0.007874,-0.994263,0.129252,0.432366,-0.176794,55,279,569,5600
1644166820.371856,-0.00708,0.010437,-0.993347,0.312458,0.462901,-0.192061,48,276,573,5648
1644166820.420264,-0.008972,0.010681,-0.98999,0.297191,0.340763,-0.054656,53,269,566,5552
1644166820.468648,-0.008728,0.009888,-0.990051,0.342992,0.539237,-0.115725,52,265,579,5600
1644166820.517039,-0.009705,0.00824,-0.991089,0.480397,0.340763,-0.130992,53,271,569,5600
1644166820.565422,-0.008423,0.011963,-0.992798,0.251389,0.493435,-0.054656,52,273,572,5648
1644166820.613793,-0.008667,0.007812,-0.990784,0.220855,0.24916,-0.085191,51,274,576,5696
1644166820.662236,-0.009216,0.00885,-0.993042,0.129252,0.462901,-0.100458,61,265,570,5584
1644166820.710593,-0.011047,0.010071,-0.992249,0.327725,0.401832,0.021679,55,274,580,5584
1644166820.758963,-0.010315,0.010315,-0.99292,0.266656,0.432366,-0.207328,54,270,582,5664
1644166820.807431,-0.009155,0.010498,-0.989075,0.373527,0.264427,0.036947,47,277,575,5584
1644166820.855796,-0.00946,0.009949,-0.989868,0.236122,0.432366,-0.085191,48,274,573,5664
1644166820.905854,-0.011719,0.010681,-0.988098,0.327725,0.508702,-0.130992,58,271,573,5648
1644166820.956417,-0.009338,0.01062,-0.992432,0.327725,0.294962,-0.069924,47,277,589,5600
1644166821.006427,-0.010925,0.010376,-0.993774,0.327725,0.462901,-0.054656,60,276,573,5632
1644166821.074207,-0.008484,0.011475,-0.991821,0.35826,0.310229,-0.069924,54,260,577,5600
1644166821.146106,-0.013245,0.009277,-0.990967,0.373527,0.310229,-0.192061,48,281,576,5600
1644166821.194501,-0.012268,0.009644,-0.99176,0.205588,0.462901,-0.130992,51,271,576,5584
1644166821.242874,-0.011169,0.01123,-0.991699,0.251389,0.325496,-0.161527,55,271,583,5648
1644166821.291268,-0.009033,0.009399,-0.992859,0.281924,0.462901,-0.207328,48,269,576,5584
1644166821.339659,-0.013184,0.010559,-0.992188,0.190321,0.508702,-0.130992,55,271,576,5648
1644166821.388049,-0.010132,0.008545,-0.990906,0.266656,0.401832,-0.100458,42,273,575,5552
1644166821.436445,-0.014221,0.008118,-0.993591,0.266656,0.432366,-0.130992,47,277,579,5584
1644166821.484847,-0.013245,0.008545,-0.993652,0.205588,0.478168,-0.130992,54,277,575,5584
1644166821.53324,-0.010376,0.010132,-0.993713,0.175053,0.325496,-0.069924,42,270,579,5536
1644166821.58163,-0.010864,0.011047,-0.994263,0.327725,0.340763,-0.100458,53,269,576,5584
1644166821.630017,-0.012512,0.009949,-0.989929,0.144519,0.264427,-0.100458,61,280,577,5648
1644166821.678399,-0.010376,0.008301,-0.991394,0.327725,0.356031,-0.115725,46,274,583,5632
1644166821.726808,-0.012207,0.009094,-0.992798,0.35826,0.432366,-0.054656,47,275,570,5648
1644166821.775256,-0.010193,0.007141,-0.995422,0.190321,0.386565,-0.085191,53,274,580,5600
1644166821.823606,-0.013184,0.010681,-0.990784,0.220855,0.356031,-0.130992,41,276,578,5600
1644166821.871975,-0.010681,0.007812,-0.990662,0.281924,0.554504,-0.176794,53,266,580,5584
1644166821.92039,-0.014648,0.00708,-0.990662,0.251389,0.432366,-0.054656,54,277,570,5584
1644166821.968775,-0.008667,0.010071,-0.990356,0.220855,0.401832,0.036947,52,275,575,5648
1644166822.017191,-0.009827,0.007935,-0.990906,0.373527,0.554504,-0.161527,57,280,577,5584
1644166822.08133,-0.009705,0.006165,-0.992493,0.113985,0.371298,-0.207328,52,280,582,5584
1644166822.120092,-0.012207,0.008545,-0.992432,0.266656,0.417099,-0.14626,46,281,580,5632
1644166822.210706,-0.011108,0.010803,-0.991882,0.220855,0.417099,-0.207328,40,268,568,5584
1644166822.259057,-0.009949,0.010742,-0.99231,0.281924,0.264427,-0.222595,57,280,577,5648
1644166822.307454,-0.010681,0.009949,-0.990967,0.236122,0.493435,-0.176794,59,280,575,5552
1644166822.355864,-0.01178,0.010864,-0.994995,0.205588,0.401832,-0.237863,54,280,575,5712
1644166822.404262,-0.010254,0.008362,-0.990723,0.236122,0.340763,-0.130992,48,283,571,5600
1644166822.452672,-0.009583,0.008057,-0.993652,0.404061,0.356031,-0.100458,54,268,565,5584
1644166822.501,-0.011841,0.011169,-0.991333,0.35826,0.310229,-0.115725,55,264,573,5600
1644166822.549421,-0.010254,0.013,-0.990356,0.251389,0.340763,-0.115725,55,276,580,5600
1644166822.597811,-0.011108,0.006409,-0.993286,0.08345,0.447634,-0.039389,49,265,565,5600
1644166822.646205,-0.009521,0.010193,-0.995178,0.342992,0.340763,-0.130992,59,273,570,5600
1644166822.6947,-0.011963,0.005554,-0.993958,0.297191,0.432366,-0.161527,47,270,584,5536
1644166822.74299,-0.011108,0.00824,-0.993774,0.404061,0.539237,-0.14626,41,279,571,5696
1644166822.791371,-0.010864,0.011719,-0.989197,0.419328,0.264427,-0.14626,55,271,578,5648
1644166822.839811,-0.008362,0.012817,-0.99115,0.251389,0.386565,-0.024122,57,273,582,5648
1644166822.888203,-0.011169,0.010559,-0.995056,0.236122,0.371298,-0.192061,41,281,580,5584
1644166822.936601,-0.012451,0.010803,-0.990601,0.35826,0.356031,-0.008855,46,271,571,5600
1644166822.985049,-0.011658,0.008789,-0.993347,0.312458,0.447634,-0.085191,57,277,570,5664
1644166823.03337,-0.01062,0.008972,-0.992615,0.266656,0.356031,-0.024122,54,275,570,5584
1644166823.087783,-0.010925,0.009521,-0.990417,0.251389,0.508702,-0.14626,48,271,590,5696
1644166823.133659,-0.008972,0.007935,-0.990784,0.113985,0.356031,-0.069924,55,269,580,5536
1644166823.182997,-0.01062,0.009644,-0.992859,0.159786,0.447634,-0.115725,45,273,572,5584
1644166823.228579,-0.009644,0.006592,-0.994263,0.495664,0.462901,-0.069924,42,263,572,5696
1644166823.323664,-0.010986,0.009277,-0.99176,0.35826,0.493435,0.006412,52,273,579,5712
1644166823.372056,-0.011475,0.009216,-0.992188,0.297191,0.508702,-0.207328,47,273,577,5664
1644166823.420441,-0.012634,0.00946,-0.99353,0.205588,0.585038,-0.14626,47,268,577,5584
1644166823.468838,-0.010193,0.009338,-0.991272,0.08345,0.325496,-0.085191,52,275,586,5648
1644166823.517226,-0.009277,0.009277,-0.989014,0.327725,0.325496,-0.283664,47,270,570,5664
1644166823.565613,-0.009277,0.00946,-0.994385,0.113985,0.447634,-0.085191,47,277,582,5648
1644166823.614016,-0.011475,0.007446,-0.99115,0.236122,0.340763,-0.039389,42,277,577,5648
1644166823.66242,-0.011169,0.009033,-0.991821,0.342992,0.462901,-0.039389,41,269,578,5600
1644166823.710788,-0.008728,0.01001,-0.99231,0.266656,0.447634,-0.192061,53,269,564,5632
1644166823.759179,-0.008728,0.008789,-0.993103,0.35826,0.523969,-0.115725,53,274,573,5648
1644166823.807583,-0.010437,0.008972,-0.993958,0.190321,0.508702,-0.100458,53,264,564,5648
1644166823.856012,-0.01239,0.009644,-0.991028,0.251389,0.447634,0.036947,52,273,577,5648
1644166823.904401,-0.012939,0.006287,-0.994507,0.159786,0.310229,-0.054656,49,270,575,5648
1644166823.952813,-0.009155,0.010803,-0.992676,0.266656,0.493435,-0.130992,55,271,580,5664
1644166824.001152,-0.013,0.009766,-0.99054,0.251389,0.462901,-0.085191,53,276,576,5584
1644166824.064371,-0.010498,0.007629,-0.990967,0.35826,0.462901,-0.237863,32,279,576,5584
1644166824.101925,-0.011353,0.007019,-0.990479,0.281924,0.417099,-0.024122,54,277,572,5664
1644166824.146323,-0.011414,0.007324,-0.992249,0.236122,0.356031,-0.161527,61,277,584,5648
1644166824.194696,-0.010132,0.008606,-0.994629,0.266656,0.493435,-0.176794,70,281,580,5648
1644166824.24346,-0.014343,0.009216,-0.992554,0.190321,0.523969,0.067481,54,280,579,5664
1644166824.293216,-0.009521,0.009583,-0.992065,0.342992,0.417099,-0.268397,59,282,575,5584
1644166824.343533,-0.012268,0.010681,-0.992371,0.281924,0.462901,-0.039389,47,270,570,5600
1644166824.388629,-0.013611,0.009766,-0.992737,0.388794,0.325496,-0.176794,45,265,568,5648
1644166824.485183,-0.010925,0.011841,-0.991028,0.297191,0.417099,-0.039389,48,271,583,5552
1644166824.533426,-0.012451,0.012695,-0.991211,0.113985,0.523969,0.036947,47,275,570,5600
1644166824.581812,-0.012817,0.005005,-0.992676,0.419328,0.600305,0.052214,52,275,575,5648
1644166824.630206,-0.011841,0.010071,-0.992798,0.205588,0.371298,0.052214,54,273,582,5600
1644166824.678589,-0.011414,0.008728,-0.989746,0.297191,0.401832,0.052214,46,276,573,5584
1644166824.726978,-0.010193,0.008911,-0.992371,0.220855,0.340763,-0.130992,54,263,572,5584
1644166824.775372,-0.009094,0.008057,-0.993103,0.419328,0.417099,-0.039389,49,275,575,5584
1644166824.82378,-0.011475,0.006592,-0.990845,0.220855,0.371298,-0.100458,55,271,576,5600
1644166824.872447,-0.012085,0.007202,-0.992798,0.312458,0.462901,-0.192061,48,264,578,5664
1644166824.920588,-0.009399,0.008362,-0.993469,0.113985,0.401832,-0.008855,49,277,579,5648
1644166824.968978,-0.013306,0.005981,-0.992188,0.388794,0.356031,0.036947,48,269,573,5600
1644166825.017338,-0.011475,0.009277,-0.99231,0.129252,0.371298,0.021679,48,271,585,5552
1644166825.074004,-0.011597,0.010986,-0.992249,0.236122,0.447634,0.067481,45,273,579,5648
1644166825.114167,-0.010803,0.006714,-0.993774,0.419328,0.401832,0.021679,62,276,576,5600
1644166825.162508,-0.01355,0.010437,-0.991272,0.236122,0.233893,-0.237863,49,287,577,5600
1644166825.210883,-0.014465,0.00647,-0.992249,0.175053,0.340763,-0.100458,52,270,582,5552
1644166825.259275,-0.011475,0.007507,-0.99231,0.342992,0.401832,-0.130992,54,280,577,5600
1644166825.307677,-0.010742,0.009949,-0.992371,0.404061,0.447634,-0.161527,52,275,575,5536
1644166825.356231,-0.011536,0.010925,-0.993286,0.220855,0.432366,0.12855,53,274,564,5648
1644166825.406767,-0.008484,0.009338,-0.991211,0.205588,0.462901,0.006412,53,276,576,5648
1644166825.456928,-0.011353,0.009033,-0.993958,0.251389,0.386565,-0.024122,52,277,570,5648
1644166825.501962,-0.01178,0.008118,-0.991333,0.297191,0.294962,-0.069924,49,270,575,5648
1644166825.597999,-0.009277,0.010986,-0.992859,0.342992,0.523969,-0.100458,49,273,579,5584
1644166825.646372,-0.011719,0.00885,-0.991943,0.251389,0.539237,-0.024122,49,270,565,5632
1644166825.694841,-0.010681,0.009888,-0.990173,0.251389,0.523969,-0.100458,57,275,577,5552
1644166825.743192,-0.010559,0.010559,-0.993225,0.220855,0.371298,-0.176794,45,280,575,5648
1644166825.791573,-0.009521,0.010193,-0.991638,0.190321,0.432366,-0.100458,51,274,571,5632
1644166825.839961,-0.012756,0.009277,-0.989441,0.236122,0.340763,0.036947,53,276,580,5696
1644166825.8884,-0.010254,0.009155,-0.992981,0.342992,0.386565,-0.237863,54,270,575,5648
1644166825.936777,-0.011108,0.010498,-0.991211,0.175053,0.447634,-0.039389,47,268,575,5632
1644166825.985283,-0.010803,0.010681,-0.990356,0.129252,0.325496,-0.039389,51,271,569,5648
1644166826.033571,-0.011658,0.006409,-0.992798,0.144519,0.356031,-0.008855,52,277,584,5584
1644166826.095388,-0.009033,0.009216,-0.991699,0.312458,0.417099,-0.25313,55,274,573,5648
1644166826.130356,-0.009888,0.011902,-0.991455,0.373527,0.539237,-0.024122,54,277,575,5648
1644166826.178697,-0.011475,0.008545,-0.991882,0.297191,0.401832,-0.024122,58,279,573,5584
1644166826.227096,-0.011047,0.007324,-0.993591,0.266656,0.478168,-0.207328,47,265,575,5584
1644166826.275479,-0.006836,0.008789,-0.991882,0.190321,0.294962,-0.192061,53,274,576,5600
1644166826.324204,-0.012512,0.00946,-0.994751,0.373527,0.386565,-0.176794,49,275,577,5584
1644166826.373176,-0.007935,0.009155,-0.991394,0.190321,0.386565,-0.14626,58,271,573,5552
1644166826.423692,-0.013062,0.008789,-0.991882,0.312458,0.371298,-0.069924,53,271,583,5696
1644166826.473939,-0.010254,0.012024,-0.990112,0.297191,0.401832,-0.176794,51,279,571,5632
1644166826.565835,-0.013916,0.009583,-0.992859,0.404061,0.63084,-0.161527,54,275,563,5536
1644166826.614216,-0.010132,0.009583,-0.991455,0.236122,0.386565,-0.039389,48,271,578,5632
1644166826.662615,-0.012268,0.01062,-0.991272,0.236122,0.432366,-0.115725,58,271,573,5648
1644166826.710975,-0.013794,0.012695,-0.993469,0.236122,0.310229,-0.069924,48,279,573,5648
1644166826.759354,-0.00885,0.008789,-0.992371,0.35826,0.462901,-0.100458,54,273,572,5536
1644166826.807773,-0.010315,0.012085,-0.99231,0.266656,0.340763,-0.192061,43,274,569,5584
1644166826.856155,-0.010376,0.011658,-0.990906,0.113985,0.386565,-0.176794,54,273,582,5648
1644166826.904744,-0.009094,0.010681,-0.994812,0.236122,0.356031,-0.14626,51,266,566,5584
1644166826.953012,-0.011597,0.012451,-0.990295,0.190321,0.478168,-0.161527,51,271,571,5584
1644166827.001369,-0.011292,0.008545,-0.991394,0.205588,0.264427,-0.100458,41,266,580,5632
1644166827.061718,-0.008545,0.010132,-0.99176,0.175053,0.417099,-0.222595,47,280,584,5632
1644166827.098356,-0.009033,0.009338,-0.990662,0.175053,0.371298,-0.161527,54,270,591,5648
1644166827.146541,-0.009399,0.010559,-0.993713,0.297191,0.401832,-0.268397,46,276,571,5648
1644166827.194917,-0.010132,0.009949,-0.992249,0.236122,0.401832,0.082748,45,273,582,5648
1644166827.243328,-0.010498,0.011047,-0.98999,0.266656,0.325496,0.021679,47,263,570,5664
1644166827.291714,-0.010803,0.011353,-0.991211,0.297191,0.356031,-0.039389,55,281,580,5584
1644166827.340107,-0.012024,0.00885,-0.993469,0.419328,0.417099,-0.176794,52,275,572,5648
1644166827.38851,-0.010986,0.006897,-0.990295,0.35826,0.478168,-0.14626,57,270,575,5600
1644166827.437401,-0.013489,0.008606,-0.992554,0.35826,0.432366,-0.024122,48,276,566,5648
1644166827.487907,-0.00946,0.009521,-0.990417,0.175053,0.417099,-0.130992,60,264,569,5584
1644166827.538273,-0.012329,0.009033,-0.990723,0.312458,0.371298,-0.222595,45,275,575,5584
1644166827.582679,-0.009827,0.008057,-0.993652,0.312458,0.554504,-0.054656,48,279,569,5664
1644166827.678835,-0.009155,0.009033,-0.991821,0.236122,0.462901,-0.161527,48,271,569,5648
1644166827.727215,-0.01123,0.010803,-0.99054,0.404061,0.340763,-0.161527,53,279,562,5648
1644166827.775622,-0.011963,0.00885,-0.990295,0.327725,0.447634,-0.161527,48,271,576,5552
1644166827.824025,-0.010437,0.010071,-0.992798,0.113985,0.432366,-0.054656,51,271,566,5600
1644166827.872427,-0.012634,0.01001,-0.993713,0.159786,0.462901,-0.115725,45,277,579,5584
1644166827.920793,-0.013,0.013306,-0.993347,0.281924,0.401832,-0.222595,51,276,578,5648
1644166827.969186,-0.012939,0.011108,-0.990112,0.175053,0.401832,-0.100458,48,274,571,5632
1644166828.017572,-0.010986,0.01123,-0.992554,0.297191,0.585038,-0.115725,41,271,578,5584
1644166828.067721,-0.011353,0.008484,-0.98999,0.236122,0.264427,0.006412,42,273,579,5648
1644166828.11431,-0.012024,0.010254,-0.992126,0.312458,0.417099,-0.14626,49,275,577,5648
1644166828.162719,-0.008728,0.010376,-0.98938,0.266656,0.294962,-0.161527,52,273,565,5584
1644166828.211093,-0.008545,0.007568,-0.992798,0.205588,0.462901,-0.039389,54,275,570,5584
1644166828.259462,-0.014526,0.010559,-0.991272,0.220855,0.447634,-0.100458,64,270,582,5648
1644166828.307864,-0.01123,0.007874,-0.991516,0.342992,0.432366,-0.069924,57,273,570,5584
1644166828.35627,-0.009033,0.007874,-0.994446,0.342992,0.24916,-0.008855,47,277,582,5584
1644166828.404661,-0.011902,0.011292,-0.991089,0.342992,0.325496,-0.069924,58,276,573,5584
1644166828.453064,-0.010498,0.006897,-0.991516,0.175053,0.432366,0.006412,47,270,570,5664
1644166828.501419,-0.011536,0.010437,-0.991516,0.068183,0.508702,-0.100458,55,269,578,5584
1644166828.549879,-0.011719,0.008362,-0.991211,0.129252,0.401832,-0.207328,58,279,583,5584
1644166828.5992,-0.009644,0.007874,-0.991211,0.205588,0.432366,0.098015,59,275,568,5600
1644166828.649627,-0.010803,0.011719,-0.991455,0.175053,0.478168,-0.192061,42,270,584,5648
1644166828.699906,-0.008667,0.007812,-0.991882,0.190321,0.432366,-0.115725,53,266,571,5664
1644166828.791777,-0.012451,0.009827,-0.992615,0.205588,0.478168,-0.069924,51,271,571,5584
1644166828.840211,-0.011047,0.009644,-0.990112,0.266656,0.432366,-0.054656,49,275,575,5600
1644166828.88861,-0.008728,0.011902,-0.991943,0.297191,0.523969,-0.085191,48,276,578,5600
1644166828.93698,-0.011169,0.009399,-0.99231,0.236122,0.462901,-0.115725,47,275,563,5584
1644166828.985387,-0.01062,0.007751,-0.993164,0.297191,0.432366,-0.054656,51,269,573,5632
1644166829.033755,-0.01062,0.009338,-0.992859,0.236122,0.493435,-0.024122,62,269,583,5648
1644166829.089118,-0.009827,0.008362,-0.991089,0.312458,0.478168,-0.008855,42,275,582,5584
1644166829.130523,-0.012024,0.007629,-0.993408,0.281924,0.310229,0.021679,49,277,575,5648
1644166829.178911,-0.01001,0.010071,-0.991943,-0.008153,0.478168,-0.069924,49,273,577,5648
1644166829.227291,-0.011536,0.008301,-0.990234,0.159786,0.294962,-0.14626,48,269,573,5600
1644166829.275661,-0.011719,0.009766,-0.991272,0.281924,0.386565,-0.085191,55,271,573,5648
1644166829.324168,-0.011658,0.008667,-0.990845,0.251389,0.462901,-0.192061,54,275,582,5648
1644166829.373467,-0.011108,0.008179,-0.992615,0.190321,0.356031,-0.14626,51,264,578,5600
1644166829.423974,-0.013123,0.00824,-0.991638,0.373527,0.325496,-0.085191,51,276,576,5664
1644166829.474126,-0.010681,0.008057,-0.991394,0.297191,0.371298,-0.008855,52,268,582,5696
1644166829.566059,-0.012024,0.009644,-0.993225,0.312458,0.539237,-0.039389,52,292,575,5664
1644166829.614429,-0.011597,0.012756,-0.993164,0.297191,0.356031,-0.268397,55,276,578,5648
1644166829.662803,-0.008484,0.009155,-0.991699,0.266656,0.401832,-0.008855,53,281,569,5648
1644166829.711191,-0.013916,0.00824,-0.993347,0.236122,0.401832,-0.100458,53,271,573,5584
1644166829.759573,-0.01355,0.009094,-0.993835,0.129252,0.508702,-0.085191,54,275,565,5600
1644166829.807961,-0.010437,0.00708,-0.992554,0.342992,0.447634,-0.161527,43,269,576,5584
1644166829.856394,-0.010132,0.010864,-0.99292,0.373527,0.294962,-0.237863,43,276,566,5696
1644166829.904809,-0.007935,0.007935,-0.991516,0.159786,0.417099,0.036947,53,276,569,5552
1644166829.953196,-0.012024,0.008484,-0.991394,0.297191,0.417099,-0.039389,54,273,575,5600
1644166830.001581,-0.013977,0.009216,-0.988708,0.236122,0.432366,-0.115725,53,283,566,5552
1644166830.066492,-0.009521,0.01001,-0.992798,0.205588,0.310229,-0.100458,54,273,577,5600
1644166830.100697,-0.00824,0.009705,-0.992371,0.236122,0.386565,-0.100458,55,271,569,5536
1644166830.146706,-0.010803,0.009644,-0.991638,0.281924,0.432366,0.067481,48,274,559,5584
1644166830.195222,-0.008057,0.009949,-0.991516,0.251389,0.401832,-0.039389,57,263,579,5648
1644166830.243497,-0.009338,0.010803,-0.993103,0.190321,0.401832,-0.054656,52,270,575,5648
1644166830.291891,-0.008423,0.010132,-0.993408,0.220855,0.279695,-0.069924,51,276,573,5632
1644166830.340273,-0.013062,0.008484,-0.993896,0.312458,0.432366,-0.130992,51,274,571,5696
1644166830.388643,-0.011902,0.00592,-0.99231,0.449863,0.539237,0.021679,48,276,580,5600
1644166830.43705,-0.013184,0.006531,-0.994324,0.113985,0.432366,-0.024122,59,275,577,5664
1644166830.485488,-0.009583,0.010376,-0.991821,0.281924,0.24916,-0.176794,43,276,559,5600
1644166830.536045,-0.012695,0.008301,-0.990906,0.129252,0.386565,-0.176794,48,279,566,5600
1644166830.586126,-0.010254,0.007324,-0.993225,0.113985,0.646107,0.098015,54,282,577,5664
1644166830.631264,-0.009338,0.009827,-0.994019,0.312458,0.523969,-0.054656,49,277,565,5648
1644166830.727385,-0.009644,0.010559,-0.992493,0.098718,0.340763,-0.115725,46,276,580,5600
1644166830.77581,-0.011536,0.008423,-0.991394,0.220855,0.417099,-0.161527,54,270,575,5632
1644166830.824181,-0.014709,0.010437,-0.991943,0.312458,0.417099,-0.115725,52,270,575,5632
1644166830.872612,-0.00946,0.009705,-0.994446,0.220855,0.508702,-0.054656,51,271,564,5600
1644166830.920982,-0.009583,0.008545,-0.991394,0.281924,0.523969,-0.176794,47,277,577,5600
1644166830.969384,-0.012939,0.009949,-0.991882,0.236122,0.554504,-0.069924,53,271,566,5584
1644166831.017772,-0.012573,0.011902,-0.992615,0.037649,0.493435,-0.085191,47,270,575,5648
1644166831.069942,-0.009827,0.009705,-0.991699,0.205588,0.447634,-0.100458,53,281,571,5648
1644166831.114559,-0.011719,0.009399,-0.991943,0.297191,0.493435,-0.039389,58,276,578,5584
1644166831.162916,-0.009949,0.008545,-0.993347,0.236122,0.432366,-0.314198,51,269,576,5600
1644166831.211306,-0.011108,0.008545,-0.989746,0.297191,0.447634,-0.130992,49,275,570,5648
1644166831.259663,-0.010254,0.008789,-0.989868,0.129252,0.356031,0.052214,55,271,573,5648
1644166831.308072,-0.009583,0.009949,-0.992615,0.205588,0.310229,-0.069924,49,277,579,5632
1644166831.356465,-0.010376,0.00769,-0.990784,0.113985,0.417099,-0.176794,47,280,577,5584
1644166831.404867,-0.010803,0.008667,-0.99231,0.281924,0.447634,-0.054656,64,277,575,5600
1644166831.453251,-0.011108,0.009766,-0.991272,0.312458,0.417099,-0.176794,49,280,579,5648
1644166831.501607,-0.013428,0.011047,-0.989868,0.266656,0.523969,-0.176794,55,271,580,5584
1644166831.55002,-0.009155,0.011719,-0.992188,0.175053,0.462901,-0.039389,48,279,583,5536
1644166831.598414,-0.010315,0.007629,-0.993347,0.297191,0.432366,-0.176794,62,274,578,5600
1644166831.646836,-0.013123,0.010925,-0.991394,0.35826,0.523969,-0.14626,55,271,571,5648
1644166831.697088,-0.010132,0.01001,-0.993225,0.388794,0.340763,-0.115725,51,274,578,5648
1644166831.747718,-0.012634,0.006226,-0.991455,0.35826,0.478168,-0.039389,45,275,565,5648
1644166831.792507,-0.011841,0.008789,-0.992493,0.266656,0.569771,-0.069924,51,274,569,5664
1644166831.888793,-0.010132,0.009277,-0.991516,0.297191,0.478168,0.021679,51,276,583,5600
1644166831.937184,-0.005798,0.011108,-0.992004,0.342992,0.386565,-0.176794,51,283,578,5648
1644166831.985561,-0.010986,0.008301,-0.992065,0.312458,0.432366,-0.039389,49,277,572,5536
1644166832.033973,-0.011841,0.011536,-0.991272,0.281924,0.325496,-0.237863,53,281,576,5648
1644166832.082545,-0.007263,0.009644,-0.992737,0.297191,0.233893,-0.100458,48,269,576,5584
1644166832.13075,-0.007874,0.01062,-0.98938,0.419328,0.401832,-0.054656,52,282,577,5600
1644166832.179102,-0.007141,0.007874,-0.992554,0.175053,0.386565,0.006412,57,275,575,5552
1644166832.22749,-0.006226,0.011169,-0.990479,0.129252,0.523969,-0.054656,58,266,571,5664
1644166832.275858,-0.010376,0.011292,-0.993225,0.373527,0.417099,-0.024122,60,283,573,5648
1644166832.324275,-0.010254,0.010681,-0.990479,0.266656,0.569771,-0.268397,54,273,575,5600
1644166832.37268,-0.010803,0.009033,-0.991333,0.220855,0.340763,-0.161527,45,270,575,5632
1644166832.421061,-0.011108,0.007996,-0.992676,0.281924,0.386565,0.052214,48,279,571,5664
1644166832.469763,-0.007385,0.009827,-0.992615,0.312458,0.508702,0.006412,46,266,569,5600
1644166832.517847,-0.012817,0.008545,-0.991089,0.297191,0.478168,-0.130992,57,270,582,5648
1644166832.56748,-0.010315,0.008972,-0.992859,0.434595,0.264427,0.113282,46,271,578,5584
1644166832.617853,-0.010437,0.011047,-0.988953,0.068183,0.523969,-0.085191,52,275,572,5584
1644166832.668092,-0.013062,0.005554,-0.993774,0.144519,0.462901,-0.085191,48,274,576,5600
1644166832.759769,-0.007385,0.008423,-0.990356,0.175053,0.585038,-0.115725,52,270,579,5584
1644166832.808163,-0.011841,0.008911,-0.991394,0.327725,0.417099,-0.039389,52,270,572,5648
1644166832.856547,-0.010376,0.008911,-0.992493,0.327725,0.600305,-0.100458,51,269,583,5600
1644166832.905055,-0.010681,0.008606,-0.993713,0.266656,0.493435,-0.039389,49,265,584,5584
1644166832.953385,-0.01001,0.011047,-0.990295,0.08345,0.371298,-0.024122,57,280,572,5600
1644166833.001731,-0.011108,0.008545,-0.994019,0.251389,0.356031,-0.14626,43,271,573,5584
1644166833.061093,-0.010742,0.009644,-0.989014,0.144519,0.508702,0.082748,54,275,582,5696
1644166833.0985,-0.008484,0.01062,-0.991211,0.159786,0.493435,-0.039389,55,271,578,5632
1644166833.146948,-0.010742,0.012512,-0.990295,0.144519,0.401832,-0.054656,57,277,572,5584
1644166833.195477,-0.011108,0.010864,-0.99176,0.327725,0.371298,-0.115725,49,275,570,5648
1644166833.243732,-0.01239,0.010437,-0.991943,0.175053,0.539237,-0.085191,52,275,575,5648
1644166833.292167,-0.008118,0.009583,-0.990723,0.144519,0.432366,-0.085191,58,271,580,5552
1644166833.340511,-0.008423,0.010437,-0.989075,0.342992,0.493435,-0.054656,47,273,582,5584
1644166833.388918,-0.012085,0.008362,-0.995361,0.205588,0.325496,-0.069924,47,270,577,5600
1644166833.437437,-0.009644,0.009338,-0.992737,0.175053,0.264427,-0.25313,61,275,568,5648
1644166833.487801,-0.013428,0.009644,-0.993774,0.342992,0.447634,-0.161527,47,273,575,5584
1644166833.538126,-0.010315,0.007507,-0.993164,0.327725,0.508702,-0.100458,48,274,564,5632
1644166833.588363,-0.01239,0.010925,-0.99176,0.281924,0.615573,-0.161527,41,274,576,5632
1644166833.679239,-0.013977,0.00885,-0.99585,0.404061,0.478168,-0.069924,62,269,566,5584
1644166833.727633,-0.011536,0.009583,-0.99115,0.404061,0.432366,-0.207328,49,275,572,5584
1644166833.776018,-0.012207,0.010376,-0.994507,0.190321,0.508702,-0.039389,40,280,572,5648
1644166833.824434,-0.010559,0.008728,-0.99292,0.205588,0.447634,-0.25313,52,273,561,5648
1644166833.872818,-0.009094,0.009521,-0.991699,0.35826,0.356031,-0.192061,55,269,571,5584
1644166833.921186,-0.012146,0.008911,-0.994507,0.266656,0.356031,-0.069924,43,269,569,5632
1644166833.969586,-0.010254,0.008545,-0.994568,0.205588,0.310229,-0.14626,49,270,572,5600
1644166834.017984,-0.009155,0.007446,-0.992249,0.236122,0.523969,-0.192061,51,276,571,5536
1644166834.068764,-0.011963,0.00708,-0.992371,0.342992,0.478168,-0.054656,51,274,576,5552
1644166834.114764,-0.010742,0.006775,-0.993103,0.220855,0.325496,-0.130992,58,281,571,5648
1644166834.163129,-0.011108,0.008484,-0.992126,0.236122,0.325496,-0.039389,51,283,571,5600
1644166834.211487,-0.010986,0.009155,-0.991821,0.388794,0.356031,-0.024122,47,275,575,5664
1644166834.259857,-0.010803,0.009216,-0.992493,0.129252,0.478168,-0.008855,45,285,579,5552
1644166834.308279,-0.011536,0.009094,-0.989014,0.266656,0.340763,-0.283664,48,274,562,5584
1644166834.356672,-0.010925,0.008789,-0.990356,0.266656,0.447634,-0.054656,52,275,579,5648
1644166834.40509,-0.009583,0.007629,-0.99115,0.236122,0.386565,0.082748,51,276,576,5600
1644166834.453445,-0.00885,0.008301,-0.989929,0.236122,0.600305,-0.085191,54,277,572,5648
1644166834.501809,-0.011902,0.009216,-0.992432,0.281924,0.279695,-0.085191,55,274,571,5584
1644166834.550205,-0.01178,0.007996,-0.991089,0.312458,0.340763,-0.176794,48,262,571,5696
1644166834.599102,-0.011719,0.007996,-0.991699,0.113985,0.462901,-0.115725,52,263,575,5648
1644166834.649555,-0.011902,0.007202,-0.991089,0.007115,0.447634,-0.115725,46,274,566,5648
1644166834.699599,-0.007385,0.010803,-0.994263,0.220855,0.279695,-0.161527,53,266,576,5600
1644166834.744652,-0.009583,0.01001,-0.989319,0.297191,0.478168,-0.069924,52,277,575,5664
1644166834.840618,-0.011414,0.009399,-0.992798,0.220855,0.508702,-0.054656,43,279,562,5648
1644166834.88897,-0.011169,0.006958,-0.992371,0.312458,0.325496,-0.024122,52,268,572,5536
1644166834.937377,-0.01178,0.012573,-0.989868,0.129252,0.386565,-0.192061,52,277,570,5584
1644166834.985777,-0.012085,0.008911,-0.992798,0.373527,0.554504,-0.161527,54,277,577,5648
1644166835.034185,-0.011658,0.008789,-0.989075,0.281924,0.493435,-0.222595,46,274,578,5584
1644166835.091104,-0.011658,0.00885,-0.99231,0.404061,0.508702,-0.085191,49,280,577,5632
1644166835.130938,-0.010559,0.006592,-0.992004,0.205588,0.401832,-0.161527,51,271,571,5600
1644166835.179301,-0.01062,0.012695,-0.988953,0.175053,0.508702,-0.054656,55,274,573,5632
1644166835.227672,-0.009338,0.009216,-0.992554,0.342992,0.417099,-0.115725,53,269,573,5600
1644166835.27605,-0.009216,0.007385,-0.992859,0.220855,0.539237,0.052214,46,281,587,5600
1644166835.32448,-0.011047,0.009583,-0.989319,0.404061,0.401832,-0.130992,55,269,580,5600
1644166835.37288,-0.007996,0.006165,-0.995117,0.297191,0.401832,-0.039389,42,270,570,5648
1644166835.42155,-0.010925,0.008484,-0.989502,0.098718,0.371298,0.159084,48,262,578,5664
1644166835.47087,-0.00946,0.006592,-0.99115,0.236122,0.356031,-0.115725,54,270,579,5584
1644166835.521386,-0.011719,0.008484,-0.993835,0.205588,0.386565,-0.237863,54,275,589,5648
1644166835.5713,-0.006409,0.007446,-0.989624,0.205588,0.432366,-0.039389,52,282,582,5648
1644166835.66322,-0.00824,0.01123,-0.989746,0.205588,0.493435,-0.192061,43,274,573,5648
1644166835.711588,-0.007446,0.011475,-0.991089,0.159786,0.371298,-0.192061,43,271,569,5664
1644166835.759972,-0.004578,0.010681,-0.989868,0.190321,0.462901,-0.085191,47,273,570,5648
1644166835.808367,-0.007812,0.01123,-0.990417,0.312458,0.462901,-0.192061,46,276,571,5648
1644166835.856774,-0.011414,0.008118,-0.990356,0.373527,0.356031,-0.161527,42,265,582,5600
1644166835.905211,-0.012146,0.009827,-0.990906,0.113985,0.478168,-0.14626,46,274,564,5648
1644166835.953582,-0.008911,0.010437,-0.990356,0.281924,0.340763,-0.085191,51,281,580,5648
1644166836.002006,-0.011841,0.008728,-0.991943,0.388794,0.386565,-0.222595,45,273,572,5584
1644166836.066296,-0.011902,0.009521,-0.993958,0.236122,0.432366,0.021679,59,280,584,5600
1644166836.101704,-0.01178,0.011353,-0.992371,0.297191,0.432366,-0.130992,60,271,576,5584
1644166836.147082,-0.008728,0.008057,-0.993469,0.144519,0.401832,-0.192061,59,265,582,5600
1644166836.195508,-0.011536,0.010498,-0.993958,0.205588,0.432366,-0.192061,51,274,571,5600
1644166836.243893,-0.009644,0.010315,-0.991333,0.205588,0.371298,-0.14626,52,275,575,5584
1644166836.292298,-0.01001,0.009155,-0.990234,0.190321,0.523969,-0.054656,54,280,572,5648
1644166836.340666,-0.005859,0.008911,-0.991943,0.068183,0.371298,-0.008855,47,268,572,5600
1644166836.38904,-0.009338,0.010315,-0.991333,0.388794,0.401832,-0.100458,47,273,582,5648
1644166836.437448,-0.011963,0.010559,-0.993042,0.373527,0.462901,-0.100458,52,280,565,5648
1644166836.485847,-0.009521,0.011475,-0.989685,0.236122,0.356031,-0.268397,43,274,583,5552
1644166836.534266,-0.00647,0.007446,-0.994385,0.144519,0.462901,-0.008855,53,279,587,5648
1644166836.583004,-0.01123,0.009583,-0.991211,0.220855,0.325496,-0.039389,51,279,576,5664
1644166836.633856,-0.011841,0.008606,-0.9953,0.220855,0.478168,0.006412,55,271,587,5648
1644166836.683849,-0.013306,0.009705,-0.99054,0.159786,0.401832,-0.237863,62,286,583,5600
1644166836.728764,-0.012451,0.010132,-0.991577,0.281924,0.401832,-0.115725,54,265,575,5584
1644166836.824854,-0.010132,0.008972,-0.993103,0.46513,0.462901,-0.054656,48,286,573,5632
1644166836.87302,-0.009827,0.009583,-0.991577,0.281924,0.493435,-0.222595,51,271,566,5632
1644166836.921381,-0.009399,0.009399,-0.990845,0.220855,0.279695,-0.192061,53,276,569,5584
1644166836.969786,-0.011902,0.011047,-0.9953,0.144519,0.401832,0.006412,42,277,575,5584
1644166837.018178,-0.009216,0.009033,-0.992493,0.327725,0.157557,-0.054656,51,274,573,5600
1644166837.069099,-0.008606,0.00946,-0.990112,0.236122,0.447634,-0.161527,51,271,576,5648
1644166837.115108,-0.011719,0.01178,-0.988464,0.297191,0.447634,-0.161527,52,277,570,5600
1644166837.163313,-0.011597,0.010986,-0.992249,0.281924,0.462901,-0.039389,49,275,575,5648
1644166837.211701,-0.010925,0.008972,-0.988953,0.266656,0.447634,-0.069924,51,279,573,5584
1644166837.260066,-0.009155,0.01123,-0.991211,0.175053,0.432366,-0.115725,49,275,572,5648
1644166837.308455,-0.008789,0.009216,-0.990723,0.144519,0.493435,-0.024122,47,277,572,5600
1644166837.356857,-0.00885,0.006958,-0.990417,0.251389,0.356031,-0.161527,55,276,576,5600
1644166837.405334,-0.009521,0.010559,-0.989502,0.281924,0.417099,-0.115725,52,273,577,5648
1644166837.453665,-0.009583,0.009766,-0.991943,0.190321,0.523969,0.006412,49,280,568,5584
1644166837.50204,-0.00769,0.01123,-0.992676,0.205588,0.356031,-0.054656,54,270,572,5648
1644166837.550436,-0.013611,0.009644,-0.991577,0.205588,0.462901,-0.039389,45,277,577,5584
1644166837.598821,-0.009766,0.007996,-0.992126,0.205588,0.386565,-0.024122,46,269,580,5632
1644166837.647202,-0.008789,0.008728,-0.992981,0.190321,0.447634,-0.115725,53,274,559,5696
1644166837.695602,-0.010803,0.009583,-0.991943,0.373527,0.356031,-0.192061,47,270,579,5600
1644166837.744021,-0.009094,0.009216,-0.992371,0.419328,0.340763,-0.14626,48,276,576,5600
1644166837.794251,-0.008484,0.008972,-0.992981,0.419328,0.462901,-0.100458,49,270,582,5664
1644166837.845235,-0.008545,0.012146,-0.992126,0.236122,0.508702,-0.054656,41,271,578,5648
1644166837.890139,-0.010071,0.008972,-0.991089,0.281924,0.508702,-0.14626,52,277,577,5648
1644166837.985962,-0.006592,0.010132,-0.992432,0.175053,0.340763,0.021679,41,274,566,5584
1644166838.034382,-0.008606,0.009216,-0.98999,0.251389,0.386565,-0.054656,55,269,566,5648
1644166838.084069,-0.008362,0.010742,-0.99353,0.159786,0.523969,-0.054656,59,275,579,5600
1644166838.131143,-0.00885,0.007751,-0.991272,0.129252,0.447634,-0.069924,52,277,568,5584
1644166838.179519,-0.008484,0.009705,-0.990295,0.144519,0.264427,-0.192061,53,271,573,5632
1644166838.22788,-0.010254,0.010132,-0.993896,0.251389,0.493435,-0.100458,45,277,575,5584
1644166838.276283,-0.010559,0.007996,-0.99176,0.327725,0.554504,-0.14626,53,274,569,5664
1644166838.324683,-0.01178,0.009155,-0.989746,0.281924,0.462901,-0.207328,57,263,570,5600
1644166838.37307,-0.011658,0.00885,-0.989868,0.220855,0.401832,-0.14626,51,266,576,5648
1644166838.421464,-0.007263,0.008728,-0.988708,0.281924,0.371298,-0.054656,57,273,582,5584
1644166838.469839,-0.007812,0.010376,-0.992126,0.297191,0.340763,-0.054656,59,268,577,5648
1644166838.518232,-0.010864,0.009827,-0.991943,0.297191,0.462901,-0.039389,59,277,582,5600
1644166838.566632,-0.010925,0.006836,-0.991516,0.220855,0.432366,-0.039389,53,274,571,5648
1644166838.615139,-0.009583,0.011902,-0.991272,0.175053,0.386565,-0.100458,54,273,575,5600
1644166838.663431,-0.008606,0.010742,-0.993652,0.373527,0.401832,-0.222595,54,277,579,5584
1644166838.711781,-0.005493,0.010437,-0.991455,0.297191,0.554504,-0.161527,52,275,570,5648
1644166838.76019,-0.010193,0.009949,-0.991455,0.205588,0.508702,0.113282,58,274,576,5664
1644166838.808566,-0.009644,0.009949,-0.990295,0.220855,0.417099,-0.14626,45,268,577,5584
1644166838.857006,-0.008423,0.010803,-0.994446,0.251389,0.493435,-0.161527,45,265,570,5648
1644166838.906971,-0.011658,0.008484,-0.989746,0.297191,0.539237,-0.069924,47,280,568,5664
1644166838.956818,-0.012939,0.009766,-0.990967,0.388794,0.401832,-0.085191,49,270,582,5632
1644166839.065349,-0.011597,0.008484,-0.993347,0.35826,0.401832,-0.008855,59,275,579,5664
1644166839.101174,-0.012146,0.010498,-0.992188,0.281924,0.356031,-0.100458,57,277,582,5648
1644166839.147355,-0.011475,0.009644,-0.991882,0.342992,0.386565,-0.192061,60,276,566,5664
1644166839.195703,-0.008179,0.010681,-0.992371,0.281924,0.462901,-0.100458,49,265,572,5632
1644166839.244094,-0.012634,0.008057,-0.991699,0.312458,0.371298,-0.024122,61,273,577,5648
1644166839.292494,-0.011353,0.008179,-0.99176,0.35826,0.371298,-0.008855,48,279,569,5600
1644166839.340865,-0.010498,0.010803,-0.991089,0.190321,0.447634,-0.298931,57,277,575,5584
1644166839.389266,-0.009583,0.008667,-0.991394,0.205588,0.432366,0.036947,53,276,569,5600
1644166839.437622,-0.009338,0.010437,-0.993774,0.220855,0.493435,-0.069924,49,263,577,5600
1644166839.486035,-0.010864,0.010742,-0.993286,0.068183,0.539237,-0.039389,55,266,580,5600
1644166839.534434,-0.011719,0.005859,-0.991089,0.190321,0.371298,-0.054656,58,271,569,5648
1644166839.5831,-0.009827,0.00885,-0.992249,0.098718,0.447634,-0.14626,62,266,571,5664
1644166839.632427,-0.009583,0.008362,-0.994202,0.281924,0.417099,-0.115725,51,271,580,5664
1644166839.682988,-0.011047,0.010864,-0.993591,0.098718,0.417099,-0.25313,48,259,587,5584
1644166839.732904,-0.008972,0.009949,-0.989197,0.220855,0.340763,0.036947,46,271,578,5648
1644166839.824873,-0.009949,0.008972,-0.988831,0.236122,0.340763,0.006412,51,269,576,5600
1644166839.873212,-0.011719,0.010986,-0.993225,0.220855,0.356031,-0.054656,51,279,576,5584
1644166839.921591,-0.011536,0.006897,-0.991577,0.236122,0.294962,-0.054656,46,269,571,5600
1644166839.970029,-0.011902,0.010071,-0.991638,0.236122,0.279695,-0.161527,52,273,572,5648
1644166840.018376,-0.009216,0.010681,-0.991821,0.159786,0.371298,-0.039389,45,275,572,5664
1644166840.066801,-0.010864,0.009277,-0.989014,0.388794,0.371298,-0.039389,40,270,577,5600
1644166840.115255,-0.009766,0.009033,-0.992859,0.342992,0.356031,-0.130992,51,279,569,5648
1644166840.163524,-0.009827,0.007751,-0.993469,0.236122,0.539237,-0.161527,53,266,571,5648
1644166840.211895,-0.008667,0.008789,-0.990723,0.388794,0.294962,-0.14626,48,269,564,5584
1644166840.260284,-0.009155,0.011475,-0.988403,0.297191,0.356031,-0.039389,47,265,575,5648
1644166840.308655,-0.009155,0.00769,-0.993164,0.312458,0.508702,-0.039389,58,276,571,5584
1644166840.35707,-0.012573,0.007751,-0.995483,0.144519,0.447634,-0.100458,51,274,573,5584
1644166840.405465,-0.010071,0.009094,-0.992004,0.342992,0.386565,-0.115725,53,269,566,5664
1644166840.454131,-0.010254,0.007935,-0.990906,0.175053,0.523969,-0.100458,57,273,577,5648
1644166840.502281,-0.010071,0.00824,-0.987061,0.159786,0.310229,-0.176794,41,269,580,5648
1644166840.550631,-0.011414,0.010376,-0.99115,0.159786,0.24916,-0.176794,45,282,577,5648
1644166840.59902,-0.011169,0.009766,-0.994934,0.266656,0.340763,-0.100458,47,290,572,5696
1644166840.64741,-0.010742,0.010559,-0.993103,0.297191,0.310229,-0.176794,52,277,579,5584
1644166840.69578,-0.009033,0.009949,-0.989197,0.113985,0.417099,-0.085191,51,262,571,5664
1644166840.744244,-0.009827,0.008972,-0.991821,0.266656,0.386565,-0.100458,51,279,569,5600
1644166840.794348,-0.011536,0.008789,-0.99231,0.159786,0.325496,0.036947,54,270,568,5648
1644166840.845598,-0.009583,0.01062,-0.991577,0.266656,0.417099,-0.085191,53,276,566,5648
1644166840.890306,-0.012939,0.012878,-0.991699,0.35826,0.340763,-0.192061,48,266,566,5648
1644166840.98617,-0.010437,0.007568,-0.99231,0.297191,0.432366,-0.100458,61,273,568,5632
1644166841.034857,-0.009888,0.010681,-0.992554,0.251389,0.462901,0.006412,55,269,571,5600
1644166841.083014,-0.010376,0.009827,-0.991211,0.281924,0.417099,-0.024122,48,279,578,5600
1644166841.13133,-0.009216,0.009644,-0.990601,0.205588,0.386565,-0.069924,41,281,576,5584
1644166841.179703,-0.013489,0.009705,-0.992065,0.297191,0.462901,0.098015,51,266,569,5664
1644166841.228085,-0.011108,0.009766,-0.992371,0.388794,0.401832,-0.207328,51,266,578,5600
1644166841.276485,-0.00824,0.010437,-0.992126,0.175053,0.417099,-0.069924,53,279,578,5584
1644166841.324862,-0.010376,0.011902,-0.992676,0.205588,0.356031,-0.161527,55,274,571,5648
1644166841.37328,-0.01001,0.009277,-0.990234,0.297191,0.279695,-0.100458,48,274,571,5648
1644166841.421664,-0.010071,0.008484,-0.992554,0.129252,0.432366,-0.100458,42,265,575,5584
1644166841.470055,-0.011169,0.010498,-0.994019,0.251389,0.340763,-0.130992,55,264,573,5632
1644166841.518439,-0.012024,0.011047,-0.992188,0.113985,0.264427,-0.115725,51,283,578,5584
1644166841.566834,-0.012146,0.009216,-0.989685,0.190321,0.478168,-0.008855,54,273,565,5600
1644166841.615265,-0.010803,0.006714,-0.993713,0.327725,0.356031,-0.14626,51,279,573,5584
1644166841.663622,-0.010254,0.008423,-0.991821,0.175053,0.371298,-0.130992,55,276,583,5600
1644166841.711996,-0.010193,0.008545,-0.992004,0.129252,0.325496,-0.25313,51,271,571,5632
1644166841.760368,-0.012268,0.006531,-0.992249,0.052916,0.432366,0.006412,49,270,575,5632
1644166841.808794,-0.009705,0.010193,-0.993896,0.236122,0.401832,-0.130992,42,277,582,5664
1644166841.857222,-0.009033,0.009216,-0.993835,0.236122,0.417099,-0.192061,59,275,582,5600
1644166841.907305,-0.009399,0.007446,-0.991516,0.144519,0.417099,-0.039389,41,266,578,5664
1644166841.956873,-0.010498,0.008484,-0.992981,0.236122,0.401832,-0.14626,53,266,578,5584
1644166842.065029,-0.011658,0.008423,-0.991272,0.419328,0.340763,-0.069924,45,275,570,5632
1644166842.099112,-0.011841,0.009216,-0.991882,0.297191,0.569771,-0.039389,43,271,587,5600
1644166842.147527,-0.012756,0.011475,-0.992065,0.129252,0.371298,-0.176794,53,279,573,5648
1644166842.195902,-0.010559,0.007629,-0.987427,0.113985,0.447634,-0.115725,52,268,563,5664
1644166842.244266,-0.01178,0.008423,-0.991943,0.266656,0.478168,-0.192061,49,275,572,5552
1644166842.292691,-0.007507,0.010071,-0.993958,0.312458,0.447634,-0.100458,51,276,566,5632
1644166842.341075,-0.008423,0.011719,-0.990417,0.190321,0.24916,-0.222595,49,268,579,5648
1644166842.389464,-0.010071,0.010193,-0.990784,0.266656,0.523969,-0.024122,65,271,576,5648
1644166842.43785,-0.010498,0.009216,-0.992737,0.190321,0.401832,-0.115725,51,269,580,5648
1644166842.486247,-0.011108,0.010864,-0.992859,0.297191,0.462901,-0.161527,49,273,577,5648
1644166842.534653,-0.013123,0.006653,-0.994568,0.098718,0.24916,-0.085191,43,271,578,5584
1644166842.583116,-0.010132,0.00647,-0.991638,0.144519,0.386565,0.067481,47,273,572,5584
1644166842.631935,-0.009521,0.010803,-0.993774,0.281924,0.462901,-0.085191,58,281,569,5648
1644166842.682539,-0.00946,0.008545,-0.993286,0.251389,0.401832,-0.024122,57,275,584,5600
1644166842.732759,-0.01062,0.008789,-0.990906,0.266656,0.310229,0.082748,46,271,569,5648
1644166842.777651,-0.007812,0.009094,-0.991943,0.220855,0.478168,-0.054656,54,270,575,5600
1644166842.873412,-0.011963,0.010193,-0.991943,0.236122,0.294962,-0.054656,34,264,571,5696
1644166842.921763,-0.009888,0.010315,-0.991211,0.251389,0.356031,0.021679,57,268,572,5648
1644166842.970186,-0.009277,0.008484,-0.993774,0.266656,0.356031,-0.130992,43,279,576,5648
1644166843.018544,-0.009766,0.010132,-0.992493,0.266656,0.462901,-0.085191,60,279,562,5696
1644166843.06762,-0.00946,0.010254,-0.99176,0.266656,0.493435,-0.14626,55,269,578,5632
1644166843.115324,-0.007019,0.011841,-0.99353,0.327725,0.401832,-0.039389,43,281,569,5648
1644166843.163703,-0.00885,0.009827,-0.993103,0.144519,0.447634,-0.130992,57,273,579,5584
1644166843.212142,-0.013306,0.007385,-0.993469,0.144519,0.340763,-0.100458,46,262,566,5664
1644166843.260492,-0.011963,0.007141,-0.991699,0.281924,0.462901,-0.115725,42,270,572,5648
1644166843.308861,-0.011963,0.009888,-0.991821,0.251389,0.371298,-0.130992,51,283,578,5584
1644166843.357273,-0.009705,0.007874,-0.991943,0.342992,0.340763,-0.161527,46,279,576,5712
1644166843.405665,-0.010071,0.009094,-0.993225,0.373527,0.325496,-0.069924,55,286,571,5584
1644166843.45406,-0.012024,0.011169,-0.994263,0.251389,0.447634,-0.115725,52,282,577,5648
1644166843.502435,-0.009888,0.007446,-0.992065,0.220855,0.508702,-0.176794,52,265,572,5648
1644166843.550841,-0.010559,0.008972,-0.994385,0.266656,0.401832,-0.161527,43,262,578,5632
1644166843.599192,-0.012024,0.010193,-0.992126,0.190321,0.478168,-0.161527,48,264,573,5600
1644166843.647605,-0.010986,0.008362,-0.993835,0.281924,0.432366,-0.161527,51,269,580,5664
1644166843.695993,-0.010193,0.011475,-0.991333,0.236122,0.401832,-0.024122,54,294,570,5664
1644166843.744395,-0.011353,0.010376,-0.991211,0.068183,0.264427,-0.161527,55,274,576,5600
1644166843.792853,-0.009888,0.009888,-0.995667,0.220855,0.386565,0.067481,60,276,580,5648
1644166843.844142,-0.009888,0.007751,-0.990784,0.327725,0.447634,-0.085191,49,268,575,5648
1644166843.894736,-0.009094,0.009521,-0.992371,0.129252,0.462901,-0.069924,42,273,579,5552
1644166843.939389,-0.012939,0.007141,-0.993835,0.190321,0.371298,-0.130992,43,279,583,5584
1644166844.034909,-0.01239,0.013062,-0.991089,0.159786,0.462901,-0.069924,42,270,579,5584
1644166844.083198,-0.010925,0.009399,-0.989929,0.113985,0.417099,-0.14626,54,282,577,5632
1644166844.131519,-0.010315,0.009827,-0.993896,0.098718,0.401832,-0.039389,48,276,578,5648
1644166844.179908,-0.009949,0.007935,-0.99353,0.037649,0.401832,-0.100458,48,276,571,5552
1644166844.228291,-0.010376,0.006348,-0.989685,0.297191,0.432366,-0.222595,41,271,569,5648
1644166844.276666,-0.01239,0.007324,-0.990356,0.46513,0.462901,-0.024122,51,279,569,5600
1644166844.325111,-0.011658,0.01001,-0.992554,0.373527,0.340763,-0.024122,47,277,570,5600
1644166844.373475,-0.008911,0.009521,-0.992249,0.220855,0.447634,-0.207328,53,269,571,5600
1644166844.421867,-0.009888,0.010803,-0.994568,0.266656,0.493435,-0.039389,51,279,569,5648
1644166844.470249,-0.011719,0.009705,-0.992188,0.236122,0.310229,-0.268397,54,280,575,5536
1644166844.518639,-0.012451,0.007996,-0.992188,0.159786,0.585038,-0.176794,49,277,568,5584
1644166844.567033,-0.010681,0.010559,-0.989014,0.190321,0.447634,-0.192061,52,275,572,5552
1644166844.615422,-0.010315,0.009705,-0.990906,0.144519,0.325496,-0.222595,54,287,570,5648
1644166844.663822,-0.012085,0.005981,-0.991333,0.205588,0.508702,-0.207328,57,273,570,5584
1644166844.712413,-0.011292,0.010254,-0.991333,0.220855,0.417099,-0.100458,43,274,569,5600
1644166844.760552,-0.009766,0.006714,-0.991028,0.205588,0.325496,-0.100458,43,279,590,5584
1644166844.80898,-0.012329,0.009827,-0.990906,0.281924,0.386565,-0.069924,49,265,572,5648
1644166844.857387,-0.010986,0.009399,-0.99054,0.281924,0.371298,-0.069924,52,275,579,5648
1644166844.906224,-0.012024,0.007263,-0.994202,0.297191,0.401832,-0.115725,49,285,575,5584
1644166844.956196,-0.009949,0.009583,-0.992798,0.297191,0.585038,-0.130992,62,266,571,5600
1644166845.064301,-0.010986,0.008728,-0.992615,0.205588,0.493435,-0.14626,42,273,579,5600
1644166845.099411,-0.013611,0.007568,-0.994934,0.236122,0.462901,-0.222595,57,275,584,5584
1644166845.147725,-0.01062,0.008911,-0.993164,0.297191,0.447634,-0.176794,55,283,569,5600
1644166845.196105,-0.012329,0.009094,-0.993591,0.373527,0.554504,-0.25313,47,273,577,5584
1644166845.244502,-0.009705,0.011047,-0.992981,0.068183,0.462901,-0.069924,47,277,579,5584
1644166845.292904,-0.011292,0.007019,-0.990601,0.251389,0.508702,0.082748,53,274,583,5648
1644166845.34125,-0.011963,0.007324,-0.991638,0.297191,0.264427,-0.039389,45,273,575,5648
1644166845.389632,-0.010376,0.007874,-0.993103,0.08345,0.554504,-0.207328,54,275,577,5648
1644166845.438059,-0.01123,0.009033,-0.992615,0.373527,0.432366,-0.069924,54,265,577,5648
1644166845.486448,-0.011536,0.005432,-0.991089,0.312458,0.539237,-0.176794,53,269,576,5488
1644166845.534849,-0.010437,0.006958,-0.991028,0.190321,0.508702,-0.054656,41,281,580,5632
1644166845.583226,-0.01001,0.00769,-0.992188,0.342992,0.478168,-0.085191,53,279,573,5648
1644166845.631624,-0.013184,0.010193,-0.990906,0.175053,0.356031,-0.115725,46,271,583,5584
1644166845.681701,-0.00885,0.010071,-0.993591,0.236122,0.386565,-0.14626,54,275,575,5648
1644166845.731914,-0.012207,0.006836,-0.992798,0.068183,0.447634,0.036947,54,282,579,5648
1644166845.781982,-0.011719,0.008789,-0.990112,0.373527,0.310229,-0.14626,42,277,572,5632
1644166845.873607,-0.010071,0.009155,-0.994568,0.175053,0.417099,-0.085191,54,273,577,5584
1644166845.922,-0.009216,0.006653,-0.993103,0.46513,0.493435,-0.024122,45,277,572,5584
1644166845.970352,-0.013489,0.009033,-0.990479,0.312458,0.24916,-0.100458,54,270,565,5632
1644166846.018754,-0.01001,0.009705,-0.991638,0.220855,0.508702,-0.100458,45,273,579,5600
1644166846.067174,-0.010742,0.009277,-0.992065,0.144519,0.371298,-0.039389,59,280,579,5584
1644166846.115553,-0.011658,0.009888,-0.994446,0.175053,0.493435,0.021679,49,270,575,5648
1644166846.163921,-0.009277,0.010193,-0.992615,0.281924,0.294962,-0.024122,53,266,566,5648
1644166846.212362,-0.008972,0.010925,-0.990601,0.190321,0.310229,-0.024122,57,273,572,5584
1644166846.260712,-0.010742,0.008667,-0.992004,0.434595,0.478168,-0.192061,51,264,578,5664
1644166846.309133,-0.013428,0.007568,-0.990723,0.327725,0.478168,-0.130992,53,281,571,5648
1644166846.357485,-0.008911,0.008667,-0.991943,0.175053,0.417099,-0.085191,55,264,571,5584
1644166846.405905,-0.009521,0.007751,-0.991394,0.281924,0.569771,-0.14626,48,276,578,5648
1644166846.454306,-0.01123,0.009766,-0.990234,0.281924,0.401832,-0.130992,52,285,579,5648
1644166846.50267,-0.011108,0.009949,-0.989685,0.205588,0.386565,0.052214,59,277,579,5584
1644166846.551077,-0.010681,0.010071,-0.991516,0.297191,0.417099,-0.008855,61,277,572,5552
1644166846.599469,-0.010376,0.009827,-0.992554,0.297191,0.523969,0.021679,52,270,572,5648
1644166846.648057,-0.010071,0.008911,-0.992676,0.236122,0.371298,-0.085191,48,269,583,5664
1644166846.696264,-0.01062,0.00769,-0.994568,0.205588,0.493435,-0.085191,47,275,570,5632
1644166846.745705,-0.011292,0.007019,-0.992737,0.297191,0.401832,-0.192061,46,274,578,5696
1644166846.796149,-0.00946,0.01062,-0.990723,0.327725,0.310229,-0.161527,42,268,579,5648
1644166846.846384,-0.009888,0.008301,-0.99292,0.266656,0.356031,-0.161527,53,276,578,5584
1644166846.890912,-0.009888,0.008606,-0.99176,0.266656,0.523969,-0.069924,58,274,585,5632
1644166846.986573,-0.010437,0.010803,-0.990662,0.144519,0.432366,-0.039389,51,271,573,5600
1644166847.035404,-0.009216,0.009583,-0.991333,0.144519,0.417099,-0.085191,46,269,585,5632
1644166847.083436,-0.008423,0.008728,-0.994019,0.129252,0.356031,0.006412,51,283,576,5584
1644166847.13171,-0.010925,0.006409,-0.99231,0.220855,0.493435,-0.176794,53,279,573,5632
1644166847.180105,-0.011597,0.008972,-0.992859,0.251389,0.478168,-0.085191,47,270,575,5648
1644166847.228491,-0.012573,0.012939,-0.993408,0.281924,0.432366,0.021679,49,273,570,5648
1644166847.276861,-0.011108,0.011353,-0.992432,0.251389,0.310229,-0.008855,48,266,571,5584
1644166847.325275,-0.010376,0.012329,-0.992188,0.190321,0.371298,-0.161527,48,276,576,5600
1644166847.373647,-0.007874,0.010254,-0.989136,0.266656,0.478168,-0.054656,45,282,570,5552
1644166847.422064,-0.011658,0.010254,-0.991516,0.205588,0.417099,-0.024122,51,266,564,5600
1644166847.470452,-0.009949,0.01062,-0.991699,0.129252,0.447634,-0.100458,60,276,569,5600
1644166847.518852,-0.010498,0.010193,-0.99176,0.175053,0.340763,-0.024122,49,270,572,5648
1644166847.567232,-0.013184,0.009827,-0.991394,0.190321,0.478168,-0.039389,53,274,573,5584
1644166847.615614,-0.01178,0.009521,-0.990051,0.312458,0.401832,-0.054656,49,280,579,5584
1644166847.664011,-0.010498,0.009888,-0.989502,0.312458,0.401832,-0.115725,51,276,583,5584
1644166847.712417,-0.01062,0.007812,-0.992004,0.327725,0.493435,-0.054656,46,281,576,5648
1644166847.760793,-0.008179,0.007385,-0.994568,0.297191,0.386565,-0.100458,57,268,579,5600
1644166847.809229,-0.008362,0.008362,-0.992371,0.251389,0.356031,0.006412,53,281,585,5600
1644166847.857642,-0.011597,0.012085,-0.992554,0.281924,0.417099,-0.25313,36,269,571,5648
1644166847.908808,-0.011658,0.008728,-0.991638,0.175053,0.539237,-0.14626,49,273,584,5648
1644166847.958535,-0.010681,0.010132,-0.991821,0.251389,0.493435,-0.069924,59,275,570,5584
1644166848.065121,-0.013428,0.011353,-0.992493,0.297191,0.401832,0.021679,58,274,569,5648
1644166848.100738,-0.010742,0.009766,-0.991211,0.068183,0.432366,-0.115725,39,274,578,5600
1644166848.14791,-0.009705,0.008118,-0.993164,0.312458,0.569771,-0.069924,57,275,577,5600
1644166848.196307,-0.008423,0.009277,-0.990845,0.159786,0.523969,-0.069924,47,275,568,5632
1644166848.244714,-0.010925,0.009766,-0.98938,0.281924,0.478168,-0.100458,41,269,573,5600
1644166848.293088,-0.007996,0.009644,-0.992554,0.266656,0.523969,-0.069924,51,279,580,5648
1644166848.341479,-0.011841,0.01062,-0.991699,0.266656,0.386565,-0.008855,59,270,572,5600
1644166848.389867,-0.009949,0.011475,-0.991638,0.220855,0.493435,-0.069924,48,276,580,5584
1644166848.438259,-0.010376,0.010254,-0.993164,0.129252,0.310229,-0.237863,47,268,577,5584
1644166848.486623,-0.012756,0.010742,-0.991455,0.404061,0.493435,-0.192061,54,260,577,5664
1644166848.535161,-0.010742,0.01123,-0.990051,0.449863,0.417099,-0.085191,58,271,566,5552
1644166848.583445,-0.008667,0.008362,-0.990662,0.266656,0.417099,-0.115725,43,279,562,5600
1644166848.632035,-0.010315,0.009277,-0.990173,0.113985,0.310229,-0.192061,47,255,575,5648
1644166848.68301,-0.009277,0.009338,-0.993347,0.129252,0.462901,-0.130992,55,276,580,5648
1644166848.733242,-0.008728,0.007446,-0.991455,0.297191,0.447634,-0.130992,42,277,575,5648
1644166848.777754,-0.011292,0.007629,-0.989624,0.297191,0.447634,0.006412,54,273,568,5584
1644166848.873815,-0.011536,0.006653,-0.993835,0.205588,0.386565,-0.237863,45,270,572,5584
1644166848.922417,-0.009766,0.008545,-0.994629,0.327725,0.539237,-0.100458,49,277,572,5632
1644166848.970576,-0.012756,0.007874,-0.990051,0.297191,0.569771,-0.222595,53,269,562,5600
1644166849.018943,-0.009827,0.008057,-0.990723,0.159786,0.493435,-0.008855,48,274,573,5728
1644166849.067796,-0.012329,0.006226,-0.991394,0.190321,0.585038,-0.130992,53,271,578,5648
1644166849.11574,-0.010498,0.008911,-0.99231,0.266656,0.462901,-0.115725,47,270,596,5632
1644166849.1641,-0.010376,0.00885,-0.993347,0.144519,0.340763,-0.100458,40,268,568,5648
1644166849.212527,-0.013184,0.009155,-0.993164,0.281924,0.417099,0.052214,48,276,573,5600
1644166849.260895,-0.010742,0.008484,-0.993286,0.266656,0.264427,-0.115725,53,274,573,5584
1644166849.309287,-0.009705,0.009216,-0.992493,0.205588,0.493435,-0.192061,41,276,573,5600
1644166849.357679,-0.008789,0.006836,-0.992798,0.434595,0.401832,-0.237863,48,279,573,5648
1644166849.406044,-0.012329,0.008545,-0.991211,0.236122,0.264427,-0.054656,53,276,571,5648
1644166849.454473,-0.011597,0.007935,-0.992065,0.327725,0.585038,-0.008855,42,277,577,5632
1644166849.502858,-0.01178,0.008667,-0.990845,0.297191,0.401832,-0.100458,54,275,572,5648
1644166849.551232,-0.013977,0.011047,-0.991211,0.205588,0.417099,0.006412,43,276,580,5600
1644166849.599623,-0.009705,0.01001,-0.991028,0.144519,0.356031,-0.054656,48,288,573,5632
1644166849.648015,-0.012024,0.011292,-0.992615,0.236122,0.233893,-0.115725,47,282,575,5584
1644166849.696418,-0.010925,0.008057,-0.994751,0.175053,0.371298,0.052214,60,271,580,5584
1644166849.745527,-0.009033,0.009705,-0.991028,0.342992,0.386565,-0.085191,45,268,568,5600
1644166849.794773,-0.008423,0.009521,-0.992371,0.266656,0.478168,0.067481,48,276,576,5600
1644166849.846259,-0.009888,0.009705,-0.993286,0.297191,0.356031,-0.130992,55,274,576,5648
1644166849.890367,-0.006531,0.011475,-0.99353,0.297191,0.386565,-0.176794,54,273,565,5696
1644166849.986793,-0.012207,0.009583,-0.992798,0.220855,0.325496,-0.039389,43,279,576,5648
1644166850.035416,-0.014099,0.00708,-0.993713,0.266656,0.447634,-0.069924,57,285,565,5600
1644166850.083658,-0.01062,0.008545,-0.992798,0.220855,0.310229,-0.192061,43,279,571,5584
1644166850.131955,-0.011841,0.00592,-0.995789,0.312458,0.600305,-0.115725,45,280,577,5584
1644166850.180309,-0.009766,0.01001,-0.993713,0.266656,0.417099,-0.115725,41,271,569,5632
1644166850.228704,-0.013611,0.009094,-0.992004,0.373527,0.264427,0.113282,48,279,564,5584
1644166850.277084,-0.012451,0.007385,-0.994019,0.373527,0.340763,-0.039389,43,274,569,5664
1644166850.325475,-0.010864,0.008362,-0.992432,0.159786,0.462901,0.036947,57,273,577,5584
1644166850.373887,-0.010864,0.008423,-0.990356,0.190321,0.340763,-0.344733,47,268,577,5664
1644166850.422293,-0.010254,0.007996,-0.992188,0.251389,0.325496,-0.085191,43,274,564,5584
1644166850.470649,-0.009827,0.009155,-0.992615,0.175053,0.432366,-0.008855,55,269,573,5536
1644166850.519007,-0.01239,0.006836,-0.992981,0.266656,0.478168,-0.100458,53,271,573,5648
1644166850.567426,-0.010742,0.009216,-0.994202,0.159786,0.386565,-0.115725,49,270,575,5584
1644166850.615826,-0.011047,0.009155,-0.992859,0.327725,0.462901,-0.039389,47,268,577,5648
1644166850.664214,-0.011047,0.008301,-0.992371,0.266656,0.447634,-0.069924,52,280,570,5664
1644166850.712621,-0.010254,0.009338,-0.990356,0.327725,0.493435,-0.069924,48,276,576,5648
1644166850.760992,-0.012695,0.010437,-0.993103,0.159786,0.432366,-0.085191,46,279,573,5600
1644166850.809382,-0.010925,0.009277,-0.992065,0.220855,0.325496,-0.130992,47,273,575,5664
1644166850.858343,-0.010864,0.01123,-0.991394,0.175053,0.447634,-0.100458,53,276,576,5552
1644166850.90974,-0.010254,0.01178,-0.993408,0.236122,0.386565,-0.176794,49,270,575,5648
1644166850.959464,-0.01239,0.009705,-0.9953,0.236122,0.569771,-0.100458,40,268,570,5664
1644166851.057607,-0.012146,0.009399,-0.994263,0.129252,0.508702,-0.054656,59,275,575,5648
1644166851.099749,-0.009766,0.008301,-0.992065,0.327725,0.493435,0.021679,53,274,587,5600
1644166851.148155,-0.009827,0.008057,-0.992737,0.297191,0.417099,-0.024122,60,274,569,5584
1644166851.196477,-0.011475,0.009155,-0.989502,0.342992,0.371298,-0.069924,48,279,578,5584
1644166851.244888,-0.010132,0.008484,-0.994141,0.251389,0.386565,-0.14626,43,271,566,5536
1644166851.293291,-0.011047,0.006836,-0.992676,-0.02342,0.462901,-0.130992,51,271,573,5552
1644166851.341685,-0.012146,0.010376,-0.992981,0.251389,0.478168,-0.192061,48,271,564,5552
1644166851.390073,-0.010864,0.008789,-0.993652,0.205588,0.478168,0.006412,54,270,572,5648
1644166851.438461,-0.014099,0.00946,-0.990234,0.175053,0.386565,-0.268397,49,280,572,5664
1644166851.486842,-0.011108,0.009216,-0.99115,0.175053,0.371298,0.082748,47,273,579,5648
1644166851.535235,-0.011047,0.008362,-0.995483,0.236122,0.325496,-0.069924,60,274,566,5648
1644166851.583629,-0.012634,0.008911,-0.991211,0.342992,0.447634,-0.222595,45,263,575,5536
1644166851.632029,-0.010803,0.010315,-0.991699,0.251389,0.24916,-0.100458,59,268,572,5584
1644166851.680386,-0.013306,0.01062,-0.992859,0.236122,0.356031,0.098015,48,274,583,5584
1644166851.728814,-0.010986,0.008118,-0.992371,0.281924,0.356031,-0.176794,57,273,568,5584
1644166851.777341,-0.011108,0.009033,-0.990784,0.281924,0.417099,-0.100458,49,265,575,5552
1644166851.826726,-0.01178,0.006409,-0.99054,0.113985,0.417099,-0.176794,51,276,571,5600
1644166851.87754,-0.013,0.009094,-0.993225,0.388794,0.340763,-0.237863,55,276,583,5584
1644166851.92823,-0.011536,0.00946,-0.991821,0.129252,0.264427,-0.069924,54,275,572,5648
1644166852.019183,-0.011108,0.01001,-0.994568,0.281924,0.462901,-0.008855,58,276,566,5632
1644166852.067634,-0.012268,0.012024,-0.995728,0.404061,0.478168,0.006412,57,275,577,5584
1644166852.115885,-0.010803,0.011353,-0.99054,0.159786,0.325496,-0.115725,55,264,569,5600
1644166852.164312,-0.008972,0.010132,-0.99054,0.388794,0.432366,-0.100458,47,265,575,5600
1644166852.212707,-0.010193,0.006897,-0.992859,0.35826,0.401832,-0.085191,41,274,573,5664
1644166852.261097,-0.012512,0.009033,-0.994019,0.175053,0.478168,-0.100458,55,279,573,5648
1644166852.309471,-0.007996,0.010193,-0.991272,0.266656,0.508702,-0.100458,58,276,573,5664
1644166852.35788,-0.01355,0.007324,-0.991455,0.129252,0.478168,-0.161527,51,274,573,5664
1644166852.406267,-0.011108,0.009033,-0.98877,0.266656,0.585038,-0.054656,58,281,580,5584
1644166852.454712,-0.012939,0.011169,-0.993774,0.205588,0.478168,0.036947,43,271,578,5648
1644166852.503066,-0.009583,0.012268,-0.992004,0.404061,0.401832,0.052214,60,269,580,5600
1644166852.551439,-0.009827,0.010437,-0.99353,0.190321,0.264427,-0.024122,47,282,565,5600
1644166852.599834,-0.011536,0.01355,-0.995667,0.205588,0.493435,-0.115725,55,271,569,5552
1644166852.648226,-0.01062,0.008362,-0.991943,0.251389,0.478168,-0.039389,57,273,572,5584
1644166852.696608,-0.008728,0.010925,-0.990784,0.220855,0.386565,0.067481,48,271,576,5648
1644166852.745044,-0.012024,0.008301,-0.992249,0.236122,0.401832,-0.069924,54,273,570,5648
1644166852.793431,-0.013184,0.006897,-0.990845,0.159786,0.417099,-0.130992,43,271,580,5632
1644166852.842181,-0.013611,0.009399,-0.988403,0.236122,0.478168,-0.130992,48,266,578,5648
1644166852.890216,-0.012146,0.006836,-0.993286,0.297191,0.417099,-0.115725,55,271,576,5584
1644166852.939808,-0.013367,0.00946,-0.994934,0.327725,0.325496,-0.069924,55,269,564,5648
1644166852.98991,-0.010559,0.008789,-0.991638,0.327725,0.447634,-0.222595,59,282,582,5696
1644166853.052422,-0.009888,0.01062,-0.993103,0.388794,0.371298,-0.024122,48,276,576,5632
1644166853.089447,-0.013672,0.008667,-0.991577,0.434595,0.478168,-0.039389,53,269,580,5648
1644166853.180502,-0.012207,0.008911,-0.991394,0.175053,0.508702,-0.008855,53,281,566,5664
1644166853.22888,-0.010559,0.009583,-0.991943,0.266656,0.386565,-0.069924,51,269,571,5584
1644166853.277261,-0.010986,0.010193,-0.992126,0.388794,0.539237,-0.192061,46,271,571,5664
1644166853.325668,-0.010132,0.008606,-0.990845,0.251389,0.447634,-0.130992,47,268,572,5632
1644166853.374061,-0.01001,0.007874,-0.991882,0.251389,0.508702,-0.100458,46,281,564,5696
1644166853.422475,-0.012695,0.011047,-0.994324,0.388794,0.264427,-0.25313,60,279,573,5600
1644166853.470849,-0.009644,0.010193,-0.991028,0.312458,0.432366,-0.115725,51,271,569,5552
1644166853.519249,-0.011169,0.006531,-0.992493,0.388794,0.493435,-0.069924,53,269,573,5536
1644166853.567616,-0.010315,0.009644,-0.995605,0.297191,0.432366,-0.024122,41,283,571,5584
1644166853.616023,-0.010498,0.007202,-0.992249,0.281924,0.417099,-0.024122,46,279,576,5600
1644166853.664432,-0.009827,0.01001,-0.992004,0.35826,0.356031,-0.115725,41,266,569,5648
1644166853.712825,-0.008972,0.007263,-0.99176,0.297191,0.462901,-0.161527,53,281,578,5648
1644166853.761175,-0.010742,0.008118,-0.993225,0.327725,0.554504,-0.085191,52,265,577,5600
1644166853.80963,-0.010071,0.009216,-0.993042,0.220855,0.508702,-0.161527,53,279,573,5600
1644166853.858011,-0.00885,0.012085,-0.991211,0.266656,0.478168,-0.130992,55,264,573,5648
1644166853.906395,-0.012146,0.008911,-0.993164,0.236122,0.356031,-0.130992,54,268,579,5648
1644166853.954804,-0.011536,0.008545,-0.99408,0.342992,0.401832,-0.207328,49,263,575,5648
1644166854.003164,-0.010559,0.009277,-0.991943,0.144519,0.401832,-0.161527,45,275,565,5536
1644166854.066742,-0.009644,0.006226,-0.995056,0.281924,0.371298,-0.115725,52,273,582,5584
1644166854.106511,-0.009949,0.010681,-0.991455,0.327725,0.386565,-0.085191,51,266,580,5600
1644166854.150496,-0.009521,0.010254,-0.990723,0.175053,0.325496,0.067481,53,279,571,5664
1644166854.200554,-0.010986,0.007996,-0.992737,0.251389,0.493435,-0.100458,47,280,572,5552
1644166854.245891,-0.012512,0.010132,-0.991699,0.281924,0.401832,-0.14626,47,273,570,5584
1644166854.341861,-0.009644,0.008484,-0.993958,0.46513,0.508702,-0.100458,59,270,575,5632
1644166854.390257,-0.009216,0.009338,-0.990356,0.281924,0.340763,-0.176794,48,274,576,5600
1644166854.43864,-0.010498,0.007385,-0.994324,0.480397,0.386565,-0.039389,49,270,572,5584
1644166854.487053,-0.009827,0.010559,-0.993652,0.434595,0.401832,-0.161527,46,269,573,5664
1644166854.535419,-0.010986,0.008667,-0.992676,0.388794,0.294962,-0.176794,52,275,575,5664
1644166854.583837,-0.012024,0.008606,-0.992615,0.098718,0.585038,0.067481,52,275,568,5648
1644166854.63224,-0.011536,0.010925,-0.994263,0.251389,0.478168,0.006412,48,274,571,5648
1644166854.680612,-0.009399,0.009644,-0.992249,0.220855,0.417099,0.021679,42,270,577,5648
1644166854.729004,-0.009888,0.007935,-0.991211,0.144519,0.401832,-0.039389,48,276,562,5600
1644166854.777399,-0.011658,0.011292,-0.991882,0.281924,0.478168,-0.161527,42,287,582,5552
1644166854.825807,-0.009827,0.010864,-0.992493,0.144519,0.523969,-0.085191,47,275,572,5664
1644166854.87422,-0.009521,0.007507,-0.994019,0.297191,0.356031,-0.192061,48,276,576,5536
1644166854.922604,-0.010864,0.008484,-0.99176,0.266656,0.340763,-0.161527,54,273,572,5648
1644166854.970987,-0.012695,0.008301,-0.991821,0.190321,0.386565,-0.130992,54,273,577,5600
1644166855.019387,-0.009094,0.008667,-0.990601,0.190321,0.294962,-0.115725,62,269,571,5648
1644166855.082833,-0.013306,0.008789,-0.993103,0.190321,0.508702,-0.100458,52,265,579,5632
1644166855.116308,-0.009399,0.011902,-0.991333,0.434595,0.417099,-0.176794,54,280,575,5696
1644166855.16667,-0.010803,0.011353,-0.991455,0.251389,0.279695,-0.024122,48,279,580,5648
1644166855.216857,-0.012146,0.011475,-0.993958,0.266656,0.386565,-0.024122,55,264,576,5552
1644166855.261961,-0.012024,0.006958,-0.992554,0.159786,0.386565,-0.161527,54,270,575,5664
1644166855.358048,-0.011597,0.007629,-0.995178,0.159786,0.401832,0.036947,57,270,575,5648
1644166855.406439,-0.009949,0.007507,-0.993164,0.022382,0.432366,-0.115725,54,275,584,5632
1644166855.454859,-0.010742,0.007874,-0.995117,0.129252,0.371298,-0.069924,46,271,573,5584
1644166855.503263,-0.010803,0.009888,-0.991394,0.220855,0.432366,-0.222595,53,269,578,5648
1644166855.551631,-0.013184,0.008545,-0.994995,0.144519,0.539237,-0.14626,57,273,572,5584
1644166855.600023,-0.01062,0.010681,-0.993286,0.281924,0.462901,-0.039389,53,279,573,5584
1644166855.648414,-0.013062,0.007874,-0.992065,0.251389,0.417099,-0.222595,43,281,583,5584
1644166855.6968,-0.011475,0.009399,-0.990845,0.266656,0.417099,-0.14626,39,266,573,5584
1644166855.745191,-0.010803,0.009277,-0.990662,0.236122,0.493435,-0.25313,55,274,571,5600
1644166855.793602,-0.012756,0.008545,-0.992798,0.266656,0.371298,-0.069924,45,273,570,5584
1644166855.842011,-0.00885,0.007751,-0.994568,0.297191,0.508702,-0.085191,62,283,571,5600
1644166855.890364,-0.008301,0.010132,-0.992615,0.419328,0.218626,-0.085191,47,275,579,5632
1644166855.938811,-0.009521,0.007324,-0.989319,0.35826,0.447634,0.006412,54,268,584,5600
1644166855.987193,-0.009949,0.008911,-0.992737,0.281924,0.585038,-0.085191,46,276,576,5648
1644166856.035583,-0.010071,0.006836,-0.993591,0.297191,0.447634,-0.039389,46,271,569,5664
1644166856.084059,-0.01001,0.009888,-0.991089,0.266656,0.386565,0.052214,60,279,578,5664
1644166856.132321,-0.008423,0.008728,-0.991028,0.281924,0.401832,0.021679,57,277,582,5600
1644166856.180706,-0.011353,0.009094,-0.992188,0.35826,0.310229,-0.192061,52,275,586,5584
1644166856.229074,-0.010315,0.009338,-0.99176,0.327725,0.417099,0.021679,47,282,577,5552
1644166856.27788,-0.00946,0.007874,-0.99292,0.144519,0.569771,-0.192061,49,270,579,5584
1644166856.328105,-0.01062,0.006531,-0.992554,0.404061,0.493435,-0.161527,53,276,578,5696
1644166856.378289,-0.010193,0.011597,-0.992126,0.098718,0.401832,-0.192061,55,279,580,5664
1644166856.423362,-0.010315,0.009949,-0.990906,0.205588,0.310229,-0.054656,46,279,573,5648
1644166856.519421,-0.012085,0.004089,-0.994751,0.281924,0.478168,-0.192061,57,273,572,5648
1644166856.567816,-0.012329,0.009399,-0.992004,0.312458,0.585038,0.006412,47,280,579,5552
1644166856.61621,-0.014465,0.009705,-0.995361,0.251389,0.554504,-0.069924,59,275,572,5648
1644166856.664864,-0.011292,0.00824,-0.993347,0.251389,0.539237,0.036947,43,271,580,5632
1644166856.713012,-0.011841,0.005249,-0.992737,0.35826,0.356031,-0.024122,54,280,577,5584
1644166856.761399,-0.010193,0.010803,-0.991943,0.205588,0.493435,-0.039389,40,270,577,5584
1644166856.809782,-0.01355,0.004944,-0.991638,0.205588,0.462901,-0.054656,39,274,578,5584
1644166856.858221,-0.011841,0.010864,-0.98999,0.281924,0.493435,0.021679,45,282,568,5600
1644166856.906611,-0.008545,0.007263,-0.993164,0.251389,0.325496,-0.192061,45,270,565,5648
1644166856.955139,-0.009399,0.009766,-0.991272,0.495664,0.371298,-0.100458,46,271,569,5648
1644166857.003386,-0.008484,0.005493,-0.98877,0.098718,0.310229,-0.207328,53,271,569,5648
1644166857.063913,-0.010193,0.010193,-0.991455,0.35826,0.401832,-0.161527,54,268,582,5584
1644166857.103848,-0.010925,0.007507,-0.990967,0.190321,0.478168,-0.069924,43,274,573,5584
1644166857.148477,-0.011047,0.008728,-0.992371,0.266656,0.585038,-0.130992,54,270,589,5600
1644166857.196909,-0.009094,0.008179,-0.989319,0.35826,0.539237,-0.130992,54,273,570,5648
1644166857.245298,-0.011475,0.009338,-0.993286,0.297191,0.371298,-0.085191,46,276,576,5584
1644166857.293683,-0.013306,0.008118,-0.993469,0.205588,0.432366,-0.069924,54,277,572,5552
1644166857.342069,-0.011475,0.008667,-0.992126,0.129252,0.325496,-0.069924,53,274,573,5520
1644166857.390769,-0.011658,0.008423,-0.991882,0.266656,0.371298,-0.054656,47,270,570,5600
1644166857.4397,-0.012756,0.01178,-0.992371,0.35826,0.432366,-0.100458,54,275,570,5584
1644166857.489936,-0.012695,0.009399,-0.990967,0.342992,0.447634,0.021679,46,269,576,5600
1644166857.540228,-0.009705,0.007568,-0.991516,0.144519,0.401832,-0.115725,52,275,572,5600
1644166857.585268,-0.009399,0.009705,-0.990723,0.404061,0.523969,-0.14626,49,265,584,5584
1644166857.680817,-0.01239,0.00824,-0.991211,0.342992,0.417099,0.067481,41,266,571,5552
1644166857.729199,-0.010254,0.007751,-0.993286,0.266656,0.371298,-0.207328,45,280,568,5664
1644166857.777564,-0.008606,0.009399,-0.99353,0.266656,0.432366,-0.176794,53,276,564,5648
1644166857.825966,-0.011841,0.008484,-0.990173,0.312458,0.432366,0.052214,53,274,566,5648
1644166857.874419,-0.008911,0.010071,-0.992981,0.205588,0.508702,-0.100458,51,271,566,5648
1644166857.922826,-0.012085,0.007874,-0.991882,0.190321,0.371298,-0.192061,47,275,572,5648
1644166857.971205,-0.011108,0.011536,-0.995056,0.159786,0.493435,-0.008855,40,270,570,5664
1644166858.019594,-0.011719,0.008362,-0.992371,0.327725,0.523969,0.021679,45,277,572,5584
1644166858.070178,-0.009216,0.007629,-0.989929,0.266656,0.401832,-0.039389,54,273,579,5648
1644166858.116361,-0.010315,0.006104,-0.99176,0.220855,0.401832,-0.054656,42,280,575,5632
1644166858.164717,-0.009277,0.009644,-0.99231,0.266656,0.371298,-0.085191,57,273,570,5648
1644166858.213119,-0.013367,0.011719,-0.98999,0.08345,0.233893,-0.054656,52,275,568,5648
1644166858.261468,-0.010193,0.010254,-0.990845,0.190321,0.340763,-0.176794,39,281,564,5600
1644166858.309877,-0.011169,0.005371,-0.993286,0.190321,0.462901,0.036947,53,271,576,5648
1644166858.358281,-0.010193,0.006348,-0.993713,0.297191,0.386565,-0.192061,48,276,578,5664
1644166858.406638,-0.011597,0.008179,-0.994263,0.113985,0.401832,-0.100458,48,276,580,5648
1644166858.455098,-0.010742,0.008789,-0.99292,0.220855,0.478168,-0.054656,58,271,571,5648
1644166858.503434,-0.014038,0.009888,-0.991577,0.327725,0.371298,-0.192061,52,270,582,5632
1644166858.551908,-0.009338,0.009033,-0.991577,0.251389,0.325496,0.052214,49,280,577,5696
1644166858.600833,-0.012024,0.007019,-0.99054,0.190321,0.417099,-0.069924,52,273,575,5648
1644166858.65136,-0.012512,0.009888,-0.992737,0.266656,0.493435,-0.008855,47,268,572,5648
1644166858.701454,-0.00885,0.008362,-0.990906,0.281924,0.447634,0.082748,55,271,569,5584
1644166858.746439,-0.008545,0.01178,-0.993469,0.281924,0.325496,-0.100458,53,274,573,5664
1644166858.842643,-0.012573,0.008057,-0.992188,0.175053,0.294962,0.021679,49,268,575,5600
1644166858.890613,-0.013367,0.009277,-0.991943,0.281924,0.478168,-0.069924,57,260,577,5728
1644166858.938996,-0.009399,0.008728,-0.992493,0.220855,0.417099,0.036947,51,266,573,5584
1644166858.987398,-0.009399,0.011414,-0.990723,0.251389,0.462901,-0.024122,58,269,573,5520
1644166859.035758,-0.010559,0.009399,-0.989685,0.373527,0.386565,-0.085191,64,275,584,5600
1644166859.087864,-0.010376,0.010132,-0.989746,0.373527,0.478168,-0.054656,53,274,576,5600
1644166859.132576,-0.010986,0.008606,-0.995483,0.205588,0.356031,-0.024122,43,276,576,5648
1644166859.180906,-0.00885,0.010254,-0.991638,0.220855,0.356031,-0.14626,47,273,575,5648
1644166859.22929,-0.010559,0.010437,-0.990479,0.266656,0.523969,0.052214,51,281,571,5664
1644166859.277658,-0.008423,0.007263,-0.992615,0.159786,0.294962,-0.039389,47,290,572,5648
1644166859.32608,-0.012207,0.006409,-0.991394,0.205588,0.523969,-0.14626,51,264,590,5600
1644166859.374472,-0.009094,0.009766,-0.994202,0.434595,0.493435,-0.100458,49,275,579,5648
1644166859.422878,-0.010559,0.010132,-0.990479,0.144519,0.478168,-0.14626,47,275,575,5632
1644166859.471254,-0.012451,0.010986,-0.991821,0.251389,0.478168,-0.14626,60,269,580,5648
1644166859.519641,-0.012695,0.006958,-0.99176,0.236122,0.523969,-0.069924,54,277,579,5648
1644166859.568344,-0.012939,0.010559,-0.993958,0.281924,0.310229,-0.14626,62,276,573,5632
1644166859.618096,-0.009277,0.009949,-0.994202,0.205588,0.478168,-0.192061,47,280,582,5600
1644166859.668109,-0.009644,0.005615,-0.992554,0.205588,0.508702,-0.130992,52,273,568,5664
1644166859.718148,-0.008545,0.007141,-0.990845,0.388794,0.310229,-0.192061,51,266,578,5664
1644166859.809986,-0.010986,0.009705,-0.99176,0.266656,0.447634,-0.100458,52,270,575,5632
1644166859.85835,-0.009705,0.011169,-0.994324,0.266656,0.508702,-0.14626,51,271,571,5648
1644166859.9068,-0.011658,0.009216,-0.993469,0.251389,0.432366,-0.069924,41,259,571,5632
1644166859.95523,-0.009766,0.010437,-0.991516,0.281924,0.432366,-0.024122,58,271,576,5600
1644166860.003577,-0.013123,0.008057,-0.992737,0.266656,0.554504,-0.085191,48,266,580,5648
1644166860.064842,-0.010803,0.009338,-0.993652,0.159786,0.294962,-0.130992,45,268,577,5552
1644166860.103151,-0.009094,0.009277,-0.993164,0.190321,0.371298,-0.085191,51,269,578,5600
1644166860.148758,-0.010376,0.008789,-0.993042,0.373527,0.401832,-0.100458,54,275,575,5648
1644166860.197113,-0.013916,0.007935,-0.991699,0.251389,0.386565,-0.161527,53,276,576,5600
1644166860.245465,-0.010742,0.00824,-0.991455,0.220855,0.386565,-0.161527,60,266,571,5632
1644166860.293916,-0.011414,0.010803,-0.99353,0.327725,0.432366,0.052214,43,271,573,5600
1644166860.342299,-0.00885,0.007751,-0.993225,0.190321,0.401832,-0.130992,54,282,586,5648
1644166860.390684,-0.009399,0.006775,-0.992981,0.098718,0.539237,-0.085191,46,266,576,5648
1644166860.439063,-0.008179,0.010742,-0.993469,0.220855,0.478168,-0.268397,47,277,579,5648
1644166860.487458,-0.010376,0.008789,-0.993286,0.129252,0.462901,-0.207328,54,280,575,5600
1644166860.535845,-0.011292,0.009155,-0.993652,0.327725,0.447634,-0.054656,51,274,564,5648
1644166860.584234,-0.009583,0.009583,-0.991699,0.220855,0.401832,-0.069924,51,283,569,5536
1644166860.632648,-0.012634,0.00946,-0.991699,0.266656,0.478168,-0.207328,61,275,582,5648
1644166860.681996,-0.011169,0.010254,-0.99176,0.327725,0.371298,-0.237863,49,282,577,5632
1644166860.732349,-0.011658,0.008423,-0.993469,0.266656,0.356031,-0.024122,46,276,576,5584
1644166860.782607,-0.009338,0.009827,-0.993652,0.251389,0.462901,-0.054656,46,279,583,5712
1644166860.875158,-0.011475,0.008667,-0.994446,0.281924,0.325496,-0.115725,52,270,565,5584
1644166860.923035,-0.014099,0.009705,-0.99115,0.251389,0.371298,0.036947,47,277,565,5696
1644166860.971397,-0.014709,0.008911,-0.995911,0.220855,0.401832,-0.14626,55,286,576,5648
1644166861.019773,-0.01001,0.007263,-0.991394,0.098718,0.401832,-0.161527,48,281,578,5600
1644166861.069351,-0.009766,0.007324,-0.992371,0.144519,0.294962,-0.008855,45,268,577,5648
1644166861.116496,-0.009888,0.008789,-0.992371,0.098718,0.279695,-0.25313,54,285,575,5600
1644166861.164906,-0.01123,0.011169,-0.992493,0.35826,0.508702,-0.085191,46,271,573,5632
1644166861.213311,-0.012512,0.010132,-0.993103,0.052916,0.340763,-0.115725,54,275,572,5648
1644166861.261703,-0.01178,0.007629,-0.992859,0.266656,0.386565,0.006412,48,274,573,5584
1644166861.310071,-0.011841,0.010193,-0.991211,0.175053,0.279695,-0.008855,55,271,578,5648
1644166861.358481,-0.009949,0.01123,-0.990601,0.098718,0.554504,-0.176794,49,282,575,5632
1644166861.406876,-0.01001,0.009216,-0.994202,0.266656,0.523969,-0.008855,57,270,565,5600
1644166861.455303,-0.010437,0.008484,-0.991638,0.113985,0.462901,-0.085191,41,276,578,5664
1644166861.503668,-0.009155,0.010803,-0.991394,0.190321,0.508702,-0.207328,57,277,575,5632
1644166861.552043,-0.009277,0.010254,-0.990723,0.236122,0.432366,-0.100458,42,275,570,5584
1644166861.600415,-0.012573,0.008789,-0.991577,0.220855,0.356031,-0.130992,48,279,569,5632
1644166861.648815,-0.010742,0.009705,-0.992126,0.342992,0.386565,-0.069924,59,265,570,5664
1644166861.697188,-0.010498,0.010437,-0.993286,0.266656,0.432366,-0.161527,51,266,573,5600
1644166861.745573,-0.007629,0.012024,-0.99054,0.113985,0.417099,-0.192061,51,281,587,5600
1644166861.794454,-0.010437,0.009705,-0.994873,0.297191,0.371298,-0.069924,57,273,577,5584
1644166861.846073,-0.010925,0.007019,-0.991577,0.35826,0.417099,-0.222595,54,277,570,5696
1644166861.89644,-0.010986,0.006409,-0.990906,0.373527,0.386565,-0.085191,48,283,573,5600
1644166861.940614,-0.011597,0.008301,-0.989868,0.342992,0.371298,-0.192061,49,268,575,5664
1644166862.035966,-0.013062,0.009521,-0.994995,0.327725,0.371298,-0.115725,48,276,576,5664
1644166862.084474,-0.012024,0.006287,-0.989868,0.220855,0.447634,-0.054656,51,266,571,5584
1644166862.13273,-0.009338,0.009399,-0.991455,0.144519,0.523969,-0.115725,43,266,578,5600
1644166862.181102,-0.010071,0.010498,-0.99176,0.251389,0.356031,-0.14626,52,275,565,5600
1644166862.229495,-0.009094,0.012268,-0.991882,0.190321,0.447634,-0.115725,55,271,566,5632
1644166862.277886,-0.010315,0.008301,-0.991577,0.342992,0.371298,-0.069924,53,276,571,5648
1644166862.326278,-0.011841,0.01001,-0.990784,0.388794,0.279695,-0.161527,60,276,573,5664
1644166862.374695,-0.011658,0.008484,-0.992554,0.08345,0.279695,-0.222595,43,271,571,5584
1644166862.423087,-0.015808,0.008667,-0.995667,0.175053,0.294962,-0.085191,42,263,570,5664
1644166862.471482,-0.009705,0.007629,-0.990417,0.281924,0.310229,-0.039389,47,273,572,5664
1644166862.519845,-0.011536,0.008118,-0.99115,0.236122,0.417099,-0.024122,46,276,571,5664
1644166862.568233,-0.009521,0.011902,-0.99054,0.175053,0.340763,-0.176794,52,287,572,5648
1644166862.616618,-0.010925,0.010132,-0.992371,0.159786,0.508702,-0.100458,53,264,573,5584
1644166862.665035,-0.01355,0.008789,-0.994812,0.220855,0.554504,-0.161527,52,270,577,5600
1644166862.713402,-0.011169,0.009338,-0.996765,0.281924,0.401832,-0.14626,54,270,577,5632
1644166862.761768,-0.010437,0.010437,-0.991943,0.312458,0.432366,-0.115725,52,270,575,5584
1644166862.810194,-0.011597,0.008118,-0.992126,0.190321,0.340763,-0.069924,49,277,575,5600
1644166862.858636,-0.010803,0.006226,-0.992249,0.404061,0.371298,-0.069924,54,275,565,5632
1644166862.907604,-0.012512,0.009033,-0.991882,0.327725,0.447634,-0.115725,54,260,575,5584
1644166862.957838,-0.010437,0.008728,-0.994934,0.480397,0.401832,0.052214,49,277,579,5600
1644166863.06693,-0.010193,0.008545,-0.991272,0.266656,0.417099,-0.115725,53,276,566,5536
1644166863.103485,-0.009033,0.008484,-0.990662,0.312458,0.478168,-0.115725,48,279,585,5600
1644166863.148914,-0.011047,0.010681,-0.991699,0.281924,0.523969,-0.085191,42,277,575,5584
1644166863.197307,-0.011597,0.01239,-0.991211,0.327725,0.523969,-0.192061,57,270,584,5632
1644166863.245674,-0.01123,0.006226,-0.99231,0.129252,0.447634,-0.054656,51,276,576,5648
1644166863.2941,-0.009399,0.010803,-0.992371,0.342992,0.493435,-0.085191,52,270,575,5632
1644166863.342486,-0.008972,0.01062,-0.98822,0.205588,0.340763,-0.024122,51,274,576,5584
1644166863.390874,-0.009583,0.007446,-0.989929,0.419328,0.447634,-0.039389,42,270,570,5696
1644166863.439266,-0.011963,0.010437,-0.994873,0.266656,0.523969,-0.100458,47,273,572,5648
1644166863.487653,-0.012146,0.009766,-0.989441,0.236122,0.462901,-0.130992,52,273,577,5584
1644166863.53604,-0.009521,0.00885,-0.990845,0.205588,0.264427,-0.25313,53,271,573,5648
1644166863.584775,-0.011414,0.009827,-0.991516,0.236122,0.493435,-0.130992,49,277,572,5648
1644166863.633611,-0.010193,0.007019,-0.992981,0.404061,0.401832,-0.054656,47,277,572,5600
1644166863.684548,-0.012329,0.007935,-0.994446,0.159786,0.386565,-0.085191,61,273,572,5648
1644166863.734261,-0.013184,0.009705,-0.990723,0.266656,0.371298,-0.176794,49,273,579,5648
1644166863.779488,-0.009644,0.008606,-0.993835,0.236122,0.447634,-0.100458,47,277,570,5600
1644166863.874913,-0.009277,0.009521,-0.99231,0.312458,0.371298,-0.085191,52,268,572,5584
1644166863.923202,-0.011536,0.009094,-0.990906,0.266656,0.432366,-0.161527,41,269,571,5600
1644166863.97159,-0.012329,0.008545,-0.991333,0.098718,0.24916,-0.14626,57,275,570,5584
1644166864.019958,-0.009338,0.008911,-0.989929,0.190321,0.386565,-0.008855,58,262,576,5648
1644166864.068416,-0.013733,0.008057,-0.98877,0.220855,0.554504,0.006412,48,276,571,5600
1644166864.116746,-0.011169,0.012085,-0.991089,0.281924,0.371298,-0.008855,54,270,570,5600
1644166864.165138,-0.01062,0.009399,-0.991394,0.144519,0.432366,-0.176794,43,271,576,5648
1644166864.21352,-0.010925,0.00592,-0.990601,0.190321,0.401832,-0.039389,57,260,577,5648
1644166864.261897,-0.011658,0.009277,-0.993652,0.220855,0.554504,-0.085191,55,264,583,5648
1644166864.310268,-0.010559,0.010681,-0.992371,0.342992,0.508702,0.006412,54,282,570,5648
1644166864.358684,-0.011169,0.008606,-0.991638,0.236122,0.508702,-0.069924,51,276,571,5600
1644166864.407064,-0.012085,0.007385,-0.992065,0.266656,0.401832,-0.100458,61,265,584,5648
1644166864.455464,-0.010742,0.008179,-0.991638,0.08345,0.340763,-0.054656,48,279,573,5600
1644166864.503835,-0.008728,0.008118,-0.992676,0.236122,0.279695,-0.024122,54,280,568,5584
1644166864.552244,-0.004761,0.010071,-0.994019,0.159786,0.371298,-0.130992,48,271,578,5648
1644166864.60063,-0.007263,0.00824,-0.990845,0.052916,0.401832,-0.14626,49,273,577,5648
1644166864.649016,-0.010193,0.008667,-0.994629,0.297191,0.371298,-0.115725,57,273,584,5648
1644166864.697383,-0.009644,0.009521,-0.990784,0.266656,0.188092,0.067481,52,282,582,5600
1644166864.745769,-0.010071,0.01123,-0.990112,0.205588,0.386565,-0.039389,55,266,573,5600
1644166864.794238,-0.012207,0.008423,-0.993591,0.281924,0.432366,0.082748,58,266,573,5632
1644166864.844789,-0.012207,0.008667,-0.990051,0.251389,0.340763,-0.14626,57,273,568,5664
1644166864.895786,-0.008362,0.00885,-0.990234,0.342992,0.462901,-0.207328,51,276,578,5600
1644166864.940445,-0.010315,0.010986,-0.99292,0.144519,0.325496,-0.008855,55,266,569,5584
1644166865.036176,-0.011292,0.00708,-0.990906,0.205588,0.478168,-0.115725,60,274,583,5664
1644166865.085293,-0.010986,0.006897,-0.99054,0.251389,0.508702,-0.115725,46,274,576,5536
1644166865.132938,-0.009705,0.007385,-0.994446,0.281924,0.310229,-0.176794,52,275,572,5648
1644166865.181311,-0.011169,0.007935,-0.991577,0.388794,0.432366,0.036947,47,268,568,5648
1644166865.22969,-0.012024,0.007874,-0.990234,0.190321,0.340763,-0.024122,49,273,568,5632
1644166865.278095,-0.00946,0.00885,-0.992676,0.220855,0.447634,-0.100458,51,271,578,5648
1644166865.326486,-0.011108,0.007385,-0.993042,0.312458,0.447634,-0.100458,45,275,563,5584
1644166865.374868,-0.012207,0.01062,-0.99054,0.068183,0.462901,-0.069924,48,276,573,5600
1644166865.423289,-0.009644,0.00769,-0.989746,0.266656,0.310229,-0.222595,62,279,580,5584
1644166865.471663,-0.010193,0.009033,-0.99176,0.205588,0.340763,-0.130992,48,271,580,5632
1644166865.520061,-0.011719,0.006897,-0.992615,0.327725,0.462901,-0.161527,55,279,566,5584
1644166865.56844,-0.010193,0.009338,-0.995605,0.190321,0.447634,-0.085191,52,270,568,5664
1644166865.616818,-0.009888,0.00708,-0.991638,0.297191,0.386565,-0.085191,47,270,568,5648
1644166865.665295,-0.010071,0.00885,-0.991455,0.08345,0.325496,-0.054656,41,276,571,5648
1644166865.713609,-0.01062,0.010803,-0.993408,0.419328,0.462901,-0.100458,49,275,570,5648
1644166865.761999,-0.011414,0.006042,-0.993835,0.281924,0.401832,-0.069924,51,279,571,5648
1644166865.81039,-0.008362,0.00769,-0.990723,0.205588,0.661374,-0.069924,51,276,578,5600
1644166865.858786,-0.00769,0.01001,-0.991028,0.236122,0.371298,-0.085191,51,279,571,5600
1644166865.907231,-0.011597,0.00885,-0.992188,0.266656,0.417099,-0.024122,57,273,582,5648
1644166865.956784,-0.011719,0.008667,-0.992371,0.281924,0.569771,-0.130992,55,269,571,5632
1644166866.056046,-0.01532,0.004944,-0.993164,0.190321,0.63084,-0.283664,49,273,572,5600
1644166866.100781,-0.010925,0.011353,-0.991943,0.190321,0.493435,-0.222595,58,283,573,5632
1644166866.149156,-0.011963,0.006592,-0.991211,0.404061,0.478168,-0.176794,43,279,578,5600
1644166866.197502,-0.011414,0.009094,-0.99176,0.266656,0.386565,-0.039389,36,271,564,5632
1644166866.245882,-0.010376,0.009705,-0.99292,0.236122,0.386565,-0.314198,57,280,577,5648
1644166866.294303,-0.010742,0.007996,-0.99292,0.113985,0.417099,-0.039389,59,275,575,5584
1644166866.342711,-0.009827,0.008484,-0.993042,0.266656,0.462901,-0.14626,53,269,576,5600
1644166866.391076,-0.011169,0.008179,-0.991821,0.220855,0.340763,-0.085191,54,265,575,5648
1644166866.439468,-0.009521,0.009949,-0.99231,0.266656,0.493435,-0.069924,51,271,578,5648
1644166866.487839,-0.010071,0.010193,-0.990784,0.251389,0.386565,0.052214,62,274,576,5632
1644166866.53624,-0.012268,0.010559,-0.993408,0.35826,0.493435,-0.054656,53,269,583,5584
1644166866.584642,-0.012695,0.009644,-0.992737,0.312458,0.371298,-0.130992,57,285,577,5632
1644166866.633055,-0.01001,0.007629,-0.993469,0.327725,0.386565,-0.283664,42,273,582,5648
1644166866.681417,-0.010742,0.008423,-0.993103,0.175053,0.325496,-0.085191,49,277,579,5696
1644166866.729817,-0.009277,0.009827,-0.989807,0.266656,0.432366,-0.054656,46,271,576,5584
1644166866.778193,-0.012756,0.010559,-0.991394,0.297191,0.401832,0.021679,47,273,577,5632
1644166866.826828,-0.013245,0.008057,-0.991333,0.266656,0.478168,-0.008855,49,280,584,5600
1644166866.876596,-0.010803,0.011841,-0.990173,0.205588,0.478168,-0.085191,59,273,577,5600
1644166866.927418,-0.009399,0.009949,-0.99054,0.175053,0.233893,-0.085191,41,269,580,5632
1644166866.978179,-0.01062,0.009277,-0.993591,0.297191,0.417099,-0.176794,51,281,592,5584
1644166867.06863,-0.013916,0.012939,-0.992981,0.281924,0.325496,-0.192061,59,265,572,5632
1644166867.11693,-0.011353,0.011414,-0.988586,0.129252,0.493435,0.052214,49,277,579,5584
1644166867.16547,-0.010559,0.009521,-0.992615,0.327725,0.432366,0.021679,49,273,575,5648
1644166867.213753,-0.008179,0.009521,-0.992371,0.205588,0.356031,-0.008855,45,275,570,5648
1644166867.262242,-0.011047,0.011963,-0.992371,0.159786,0.356031,-0.024122,57,270,584,5632
1644166867.310525,-0.009338,0.007507,-0.992981,0.205588,0.340763,-0.161527,47,275,570,5632
