epoch,acc_x,acc_y,acc_z,rot_x,rot_y,rot_z,mag_x,mag_y,mag_z,temp
1644170400.011075,-0.008728,0.007263,-0.994202,0.266656,0.340763,-0.176794,55,269,580,5664
1644170400.075156,-0.008179,0.006897,-0.992554,0.236122,0.371298,0.036947,58,276,583,5664
1644170400.109543,-0.009888,0.011047,-0.99292,0.236122,0.294962,-0.176794,64,277,589,5696
1644170400.156212,-0.009644,0.010071,-0.994568,0.419328,0.417099,-0.115725,58,281,587,5664
1644170400.204637,-0.008606,0.009216,-0.990906,0.297191,0.432366,-0.054656,45,287,572,5648
1644170400.253379,-0.009094,0.012878,-0.990784,0.190321,0.478168,-0.039389,52,282,582,5664
1644170400.304065,-0.011169,0.009277,-0.992126,0.236122,0.340763,0.036947,51,281,583,5632
1644170400.353856,-0.011108,0.009399,-0.993469,0.35826,0.325496,-0.176794,48,276,557,5664
1644170400.39906,-0.008301,0.009644,-0.993958,0.190321,0.432366,-0.130992,51,257,576,5696
1644170400.495235,-0.011902,0.010254,-0.991028,0.190321,0.356031,-0.069924,54,282,575,5664
1644170400.543381,-0.006714,0.007751,-0.994202,0.08345,0.386565,-0.115725,41,271,562,5728
1644170400.591751,-0.00946,0.00769,-0.991577,0.175053,0.264427,-0.237863,48,279,566,5696
1644170400.640126,-0.009399,0.012695,-0.991089,0.205588,0.24916,-0.054656,47,265,572,5712
1644170400.688533,-0.010742,0.009155,-0.992126,0.08345,0.386565,-0.130992,40,270,565,5664
1644170400.736912,-0.008972,0.010498,-0.991394,0.159786,0.432366,-0.039389,43,269,573,5648
1644170400.78531,-0.009888,0.009888,-0.993774,0.205588,0.401832,-0.130992,58,271,564,5696
1644170400.833755,-0.011414,0.008423,-0.992676,0.190321,0.478168,-0.14626,47,277,563,5648
1644170400.88219,-0.011902,0.011475,-0.992249,0.404061,0.493435,-0.192061,45,282,565,5648
1644170400.930524,-0.008667,0.011047,-0.990662,0.281924,0.432366,0.021679,64,270,568,5728
1644170400.978905,-0.01178,0.010742,-0.993835,0.144519,0.371298,-0.115725,51,264,576,5648
1644170401.027303,-0.010437,0.010254,-0.992004,0.159786,0.371298,-0.192061,47,280,584,5648
1644170401.088031,-0.010986,0.010681,-0.99231,0.251389,0.523969,-0.115725,43,274,583,5696
1644170401.124067,-0.010498,0.009888,-0.990051,0.236122,0.203359,-0.008855,55,274,569,5664
1644170401.172461,-0.008911,0.008179,-0.991638,0.281924,0.478168,-0.100458,57,270,579,5696
1644170401.221146,-0.013245,0.010315,-0.991272,0.373527,0.371298,-0.024122,52,270,570,5664
1644170401.271811,-0.013428,0.007446,-0.991638,0.251389,0.462901,-0.130992,43,266,573,5664
1644170401.321794,-0.008911,0.011597,-0.991394,0.220855,0.401832,-0.130992,49,273,575,5584
1644170401.366954,-0.010376,0.011475,-0.989502,0.159786,0.523969,-0.039389,54,265,577,5664
1644170401.46279,-0.008118,0.009766,-0.989197,0.220855,0.401832,-0.192061,47,268,575,5648
1644170401.511162,-0.011414,0.011841,-0.990173,0.35826,0.386565,0.052214,54,282,579,5648
1644170401.559534,-0.01178,0.012024,-0.992371,0.388794,0.233893,-0.024122,55,274,571,5696
1644170401.607963,-0.010254,0.01123,-0.991882,0.266656,0.279695,-0.14626,52,277,570,5648
1644170401.656325,-0.007568,0.013184,-0.991577,0.220855,0.356031,-0.039389,59,275,572,5648
1644170401.704756,-0.012085,0.010132,-0.991455,0.281924,0.447634,-0.14626,59,277,577,5648
1644170401.753116,-0.012329,0.008972,-0.992554,-0.008153,0.325496,-0.085191,42,270,575,5696
1644170401.801538,-0.012817,0.009277,-0.994385,0.281924,0.401832,0.052214,57,268,570,5696
1644170401.849953,-0.006836,0.011108,-0.991272,0.113985,0.386565,-0.024122,49,277,577,5664
1644170401.898339,-0.00946,0.010132,-0.992554,0.068183,0.447634,-0.024122,52,275,575,5664
1644170401.946725,-0.010071,0.009827,-0.991821,0.08345,0.340763,0.067481,47,268,582,5648
1644170401.995229,-0.007629,0.008789,-0.989197,0.205588,0.462901,-0.14626,51,279,576,5600
1644170402.055546,-0.009277,0.009949,-0.989746,0.190321,0.371298,-0.008855,49,273,577,5696
1644170402.09269,-0.011047,0.009644,-0.992981,0.175053,0.310229,-0.14626,49,280,575,5648
1644170402.140268,-0.010071,0.010193,-0.990845,0.144519,0.371298,-0.039389,54,260,582,5664
1644170402.188615,-0.007996,0.007935,-0.988953,0.35826,0.401832,-0.115725,46,274,580,5600
1644170402.237007,-0.008484,0.010315,-0.991943,0.129252,0.417099,-0.008855,52,273,582,5776
1644170402.285428,-0.011292,0.009827,-0.990417,0.251389,0.294962,-0.130992,53,281,564,5648
1644170402.333821,-0.008972,0.009583,-0.991394,0.342992,0.569771,-0.100458,39,283,585,5648
1644170402.38257,-0.012268,0.012634,-0.98877,0.159786,0.371298,-0.024122,51,264,573,5664
1644170402.432919,-0.010254,0.008789,-0.994568,0.052916,0.478168,0.006412,59,270,582,5664
1644170402.483128,-0.007324,0.009338,-0.993164,0.205588,0.447634,-0.237863,55,288,580,5584
1644170402.52831,-0.008179,0.01062,-0.990784,0.266656,0.24916,-0.008855,54,273,579,5712
1644170402.624175,-0.008911,0.010437,-0.99353,0.190321,0.417099,-0.024122,52,275,579,5664
1644170402.672567,-0.010376,0.010132,-0.991272,0.327725,0.371298,-0.161527,51,271,573,5664
1644170402.72094,-0.012512,0.009888,-0.990845,0.281924,0.401832,-0.069924,46,279,564,5696
1644170402.769308,-0.012939,0.008484,-0.992126,0.159786,0.432366,-0.130992,42,280,577,5648
1644170402.817694,-0.010071,0.010437,-0.991516,0.159786,0.386565,-0.25313,51,271,583,5696
1644170402.866146,-0.013916,0.010193,-0.991028,0.266656,0.401832,-0.161527,51,281,578,5696
1644170402.914533,-0.010132,0.012085,-0.992249,0.052916,0.493435,-0.085191,52,273,572,5664
1644170402.962951,-0.009766,0.01001,-0.991455,0.373527,0.340763,-0.14626,55,279,576,5648
1644170403.011339,-0.010498,0.009033,-0.992188,0.266656,0.356031,-0.14626,51,276,573,5712
1644170403.063995,-0.00885,0.010437,-0.991333,0.251389,0.356031,0.052214,58,269,578,5696
1644170403.108062,-0.008118,0.00885,-0.989136,0.404061,0.371298,0.021679,49,292,575,5712
1644170403.156465,-0.012085,0.008789,-0.991211,0.266656,0.356031,-0.115725,54,273,575,5648
1644170403.204858,-0.009033,0.011353,-0.990967,0.113985,0.401832,-0.024122,52,277,584,5648
1644170403.253255,-0.009949,0.01178,-0.994446,0.08345,0.310229,-0.069924,54,277,572,5648
1644170403.301621,-0.010254,0.009155,-0.990295,0.144519,0.447634,-0.024122,54,270,579,5712
1644170403.350014,-0.009338,0.010193,-0.992432,0.190321,0.325496,-0.100458,45,273,575,5664
1644170403.398405,-0.011047,0.01123,-0.989807,0.220855,0.356031,-0.039389,40,275,577,5696
1644170403.446767,-0.011658,0.00769,-0.993774,0.251389,0.569771,-0.115725,45,268,579,5712
1644170403.495193,-0.007446,0.009094,-0.991699,0.220855,0.356031,-0.192061,54,265,579,5664
1644170403.54392,-0.008972,0.010132,-0.992371,0.342992,0.661374,-0.192061,48,274,583,5696
1644170403.594358,-0.008789,0.007996,-0.992065,0.251389,0.401832,-0.069924,53,266,578,5600
1644170403.644473,-0.011353,0.008057,-0.99231,0.251389,0.462901,-0.085191,43,276,576,5600
1644170403.689594,-0.01062,0.011475,-0.991028,0.297191,0.432366,-0.085191,53,274,573,5664
1644170403.785515,-0.009521,0.010742,-0.99115,0.08345,0.432366,-0.115725,53,279,576,5600
1644170403.833942,-0.010803,0.009155,-0.990356,0.022382,0.325496,-0.130992,47,287,575,5664
1644170403.882426,-0.007568,0.011169,-0.99054,0.175053,0.340763,-0.054656,46,283,573,5648
1644170403.93075,-0.011597,0.009155,-0.990906,0.08345,0.340763,-0.024122,51,274,573,5712
1644170403.97913,-0.011353,0.007568,-0.990845,0.281924,0.294962,-0.130992,42,273,570,5648
1644170404.027528,-0.011475,0.011292,-0.991882,0.08345,0.401832,-0.130992,54,263,572,5664
1644170404.075951,-0.012085,0.009338,-0.98999,0.342992,0.371298,-0.25313,52,275,586,5648
1644170404.124318,-0.011169,0.010986,-0.989014,0.281924,0.310229,-0.298931,53,274,566,5664
1644170404.172674,-0.011658,0.009399,-0.995056,0.098718,0.310229,-0.100458,52,270,579,5664
1644170404.221107,-0.007874,0.00946,-0.991577,0.098718,0.340763,-0.115725,47,273,575,5600
1644170404.269448,-0.010925,0.009277,-0.994629,0.190321,0.462901,0.12855,53,274,564,5664
1644170404.317842,-0.008606,0.010071,-0.990723,0.236122,0.508702,-0.130992,53,281,573,5600
1644170404.36621,-0.007935,0.011169,-0.994507,0.220855,0.24916,-0.054656,48,271,578,5664
1644170404.414701,-0.008545,0.008484,-0.992554,0.434595,0.417099,-0.100458,51,279,573,5664
1644170404.463019,-0.009155,0.009949,-0.990356,0.08345,0.462901,-0.115725,49,258,577,5712
1644170404.511393,-0.012451,0.010437,-0.994995,0.220855,0.371298,-0.024122,51,281,571,5632
1644170404.559784,-0.009705,0.011597,-0.991089,0.266656,0.447634,-0.008855,61,270,577,5664
1644170404.608181,-0.010803,0.01355,-0.990784,0.175053,0.325496,-0.192061,51,274,571,5648
1644170404.656564,-0.01178,0.007996,-0.990784,0.052916,0.432366,-0.115725,53,274,576,5728
1644170404.705377,-0.007812,0.009705,-0.992432,0.281924,0.493435,-0.161527,46,271,573,5648
1644170404.755023,-0.009277,0.007568,-0.991577,0.236122,0.340763,-0.039389,45,275,582,5728
1644170404.805242,-0.007385,0.009033,-0.992249,0.175053,0.447634,-0.25313,51,276,569,5664
1644170404.850145,-0.009766,0.010132,-0.992004,0.388794,0.432366,-0.115725,47,268,584,5648
1644170404.946931,-0.010742,0.009949,-0.990112,0.205588,0.523969,-0.069924,55,266,573,5648
1644170404.995476,-0.010925,0.008911,-0.992615,0.175053,0.600305,-0.100458,52,273,579,5696
1644170405.043803,-0.012512,0.009338,-0.99115,0.251389,0.447634,-0.008855,57,270,568,5648
1644170405.093689,-0.012085,0.007629,-0.991821,0.113985,0.325496,-0.054656,57,280,575,5664
1644170405.140504,-0.010254,0.009644,-0.992432,0.220855,0.432366,-0.008855,55,266,571,5696
1644170405.188869,-0.009155,0.006958,-0.993896,0.175053,0.417099,-0.085191,54,275,572,5696
1644170405.237259,-0.013245,0.007202,-0.993591,0.236122,0.462901,-0.069924,47,270,582,5664
1644170405.285635,-0.010437,0.006775,-0.989624,0.052916,0.401832,-0.054656,48,274,580,5696
1644170405.334055,-0.01239,0.006592,-0.993042,0.113985,0.417099,-0.085191,48,269,578,5664
1644170405.382441,-0.008972,0.009827,-0.990723,0.113985,0.432366,0.052214,52,273,570,5712
1644170405.430822,-0.012573,0.007751,-0.990784,0.251389,0.371298,-0.14626,55,266,580,5600
1644170405.479198,-0.009827,0.009888,-0.991821,0.175053,0.356031,-0.085191,48,286,578,5664
1644170405.527603,-0.011047,0.011902,-0.991333,0.190321,0.417099,-0.085191,61,277,570,5664
1644170405.57599,-0.010986,0.008057,-0.992676,0.205588,0.508702,-0.130992,53,271,583,5648
1644170405.624372,-0.011719,0.009216,-0.992798,0.220855,0.294962,-0.207328,47,268,577,5696
1644170405.672807,-0.01001,0.009888,-0.992554,0.449863,0.508702,-0.024122,49,275,579,5760
1644170405.722624,-0.011169,0.009583,-0.990356,0.251389,0.294962,-0.115725,55,271,587,5664
1644170405.772967,-0.009705,0.010132,-0.993774,0.35826,0.432366,-0.054656,51,286,580,5712
1644170405.823144,-0.010681,0.012085,-0.992004,0.068183,0.310229,-0.085191,49,277,570,5648
1644170405.91506,-0.010193,0.010681,-0.99353,0.205588,0.356031,-0.024122,41,279,566,5712
1644170405.963161,-0.009399,0.007874,-0.992493,0.388794,0.310229,-0.222595,48,262,576,5600
1644170406.011521,-0.011475,0.009705,-0.992432,0.205588,0.340763,-0.222595,57,277,572,5664
1644170406.064958,-0.009521,0.008667,-0.992126,0.388794,0.508702,-0.100458,51,269,576,5664
1644170406.108307,-0.010315,0.007874,-0.990417,0.129252,0.432366,-0.283664,42,270,570,5648
1644170406.156695,-0.007629,0.007507,-0.992249,0.175053,0.478168,-0.008855,47,273,577,5600
1644170406.205136,-0.013916,0.011353,-0.99054,0.327725,0.585038,-0.054656,45,270,565,5664
1644170406.253473,-0.010986,0.00885,-0.990967,0.220855,0.447634,-0.14626,45,265,568,5664
1644170406.30188,-0.005249,0.00824,-0.990173,0.205588,0.371298,-0.176794,42,277,577,5664
1644170406.350273,-0.009644,0.010376,-0.991394,0.190321,0.401832,-0.115725,51,271,573,5664
1644170406.398631,-0.010986,0.009949,-0.989929,0.129252,0.340763,0.052214,48,283,573,5584
1644170406.447055,-0.009399,0.009888,-0.990967,0.388794,0.24916,-0.130992,53,271,587,5664
1644170406.495451,-0.012085,0.009888,-0.990479,0.175053,0.462901,-0.14626,55,266,571,5648
1644170406.543847,-0.011536,0.008301,-0.989319,0.419328,0.294962,0.036947,59,275,586,5648
1644170406.592306,-0.010681,0.012085,-0.991028,0.312458,0.310229,-0.054656,59,275,570,5664
1644170406.640621,-0.00946,0.009216,-0.991211,0.220855,0.371298,-0.039389,43,274,580,5664
1644170406.688998,-0.009827,0.010559,-0.989075,0.236122,0.417099,-0.054656,59,268,575,5664
1644170406.737711,-0.011414,0.012573,-0.992676,0.220855,0.432366,-0.237863,55,269,573,5600
1644170406.78787,-0.008545,0.010254,-0.991943,0.251389,0.447634,-0.14626,49,268,577,5712
1644170406.83639,-0.008789,0.007629,-0.990967,0.251389,0.340763,-0.100458,54,265,584,5648
1644170406.886755,-0.012634,0.006897,-0.992554,0.129252,0.401832,-0.100458,48,283,576,5664
1644170406.936626,-0.00946,0.008484,-0.989746,0.297191,0.539237,-0.130992,53,279,569,5696
1644170407.027725,-0.010437,0.009216,-0.992432,0.052916,0.386565,0.036947,58,269,571,5648
1644170407.07619,-0.011414,0.009399,-0.99231,0.220855,0.279695,0.006412,46,279,587,5648
1644170407.12449,-0.008362,0.009521,-0.990662,0.159786,0.371298,0.021679,55,281,576,5648
1644170407.172885,-0.008118,0.009338,-0.992798,0.113985,0.310229,-0.085191,52,280,579,5648
1644170407.221246,-0.01123,0.006348,-0.991394,0.281924,0.462901,-0.054656,52,273,577,5648
1644170407.269625,-0.009277,0.01062,-0.99231,0.327725,0.386565,-0.024122,55,271,583,5648
1644170407.318027,-0.009766,0.006958,-0.994202,0.175053,0.325496,-0.069924,48,271,569,5648
1644170407.36644,-0.011047,0.010681,-0.993713,0.297191,0.356031,-0.100458,46,281,569,5664
1644170407.414838,-0.007446,0.008728,-0.991699,0.052916,0.356031,-0.176794,46,264,566,5584
1644170407.463227,-0.00769,0.012695,-0.992676,0.08345,0.264427,-0.069924,49,268,575,5648
1644170407.511583,-0.008911,0.007874,-0.990356,0.175053,0.508702,-0.039389,49,277,577,5664
1644170407.559991,-0.012085,0.007812,-0.991272,0.159786,0.310229,-0.100458,45,277,582,5712
1644170407.608384,-0.010986,0.007751,-0.991577,0.297191,0.447634,-0.069924,46,279,580,5648
1644170407.656778,-0.01178,0.009888,-0.99176,0.373527,0.371298,-0.130992,41,276,578,5648
1644170407.705164,-0.008362,0.009644,-0.992126,0.236122,0.24916,-0.161527,47,275,570,5696
1644170407.753537,-0.010681,0.009338,-0.990845,0.297191,0.417099,-0.069924,53,271,578,5664
1644170407.802032,-0.010315,0.009521,-0.993652,0.220855,0.325496,-0.039389,45,270,572,5696
1644170407.850699,-0.013306,0.01239,-0.992676,0.007115,0.310229,-0.069924,46,279,578,5696
1644170407.898784,-0.011108,0.00769,-0.991821,0.35826,0.523969,0.036947,51,259,580,5632
1644170407.949204,-0.012024,0.010376,-0.992126,0.220855,0.386565,-0.039389,57,270,575,5664
1644170407.999087,-0.008728,0.010498,-0.994141,0.220855,0.24916,-0.085191,52,273,575,5664
1644170408.070619,-0.010315,0.010681,-0.992615,0.098718,0.264427,-0.130992,43,281,573,5664
1644170408.101612,-0.008301,0.013184,-0.991272,0.281924,0.462901,-0.039389,51,271,573,5696
1644170408.189061,-0.009888,0.007446,-0.991699,0.175053,0.478168,-0.115725,51,276,571,5664
1644170408.237438,-0.011475,0.010742,-0.992065,0.08345,0.478168,-0.069924,43,271,571,5696
1644170408.285827,-0.00946,0.008667,-0.990967,0.113985,0.447634,-0.25313,58,274,578,5696
1644170408.334255,-0.013611,0.010254,-0.992188,0.220855,0.356031,0.036947,51,266,580,5632
1644170408.382645,-0.008423,0.00946,-0.993896,0.113985,0.264427,-0.039389,68,275,579,5648
1644170408.431017,-0.014771,0.005554,-0.991211,0.190321,0.493435,-0.130992,46,281,580,5696
1644170408.479393,-0.00769,0.006042,-0.991943,0.205588,0.340763,0.006412,43,271,569,5696
1644170408.527809,-0.011902,0.007751,-0.995239,0.373527,0.24916,0.098015,52,280,577,5664
1644170408.576198,-0.010498,0.008484,-0.992371,0.312458,0.356031,-0.268397,52,277,575,5664
1644170408.624693,-0.009521,0.011169,-0.991089,0.312458,0.432366,-0.222595,39,279,578,5712
1644170408.672995,-0.009277,0.009644,-0.992188,0.327725,0.417099,-0.085191,53,274,578,5696
1644170408.721363,-0.008606,0.011047,-0.991821,0.129252,0.447634,-0.085191,52,277,561,5648
1644170408.769754,-0.008545,0.010193,-0.991455,0.251389,0.294962,-0.237863,49,265,579,5664
1644170408.818197,-0.011475,0.005798,-0.990295,0.236122,0.447634,-0.268397,61,273,575,5712
1644170408.866598,-0.01178,0.008423,-0.992065,0.251389,0.386565,-0.298931,52,287,568,5648
1644170408.915018,-0.00885,0.009521,-0.99353,0.281924,0.24916,-0.14626,64,273,582,5696
1644170408.963369,-0.008423,0.007019,-0.990112,0.144519,0.417099,-0.25313,47,275,572,5632
1644170409.011748,-0.007629,0.01001,-0.992493,0.297191,0.401832,-0.161527,45,273,570,5664
1644170409.108451,-0.008179,0.00824,-0.992554,0.037649,0.478168,-0.069924,53,271,578,5632
1644170409.15687,-0.012939,0.010986,-0.993591,0.205588,0.371298,-0.14626,42,273,579,5664
1644170409.205383,-0.014038,0.01001,-0.992798,0.205588,0.462901,-0.115725,48,271,571,5648
1644170409.253671,-0.008789,0.00769,-0.993164,0.266656,0.478168,-0.115725,45,270,570,5712
1644170409.302053,-0.008301,0.009888,-0.991821,0.251389,0.447634,-0.069924,51,276,571,5664
1644170409.35044,-0.013916,0.009888,-0.992432,0.281924,0.569771,-0.14626,49,275,575,5600
1644170409.398827,-0.006958,0.007568,-0.993591,0.327725,0.447634,0.036947,51,271,573,5648
1644170409.447219,-0.01123,0.011963,-0.990662,0.159786,0.462901,-0.130992,49,285,575,5648
1644170409.495599,-0.011841,0.008728,-0.990845,0.342992,0.279695,-0.130992,38,273,582,5712
1644170409.543989,-0.01123,0.008545,-0.992249,0.205588,0.432366,-0.115725,49,275,572,5696
1644170409.592411,-0.011597,0.010742,-0.991333,0.190321,0.340763,-0.085191,48,279,566,5696
1644170409.640787,-0.009155,0.009521,-0.991089,0.220855,0.462901,-0.039389,43,271,569,5632
1644170409.68918,-0.010132,0.010376,-0.992249,0.175053,0.462901,-0.192061,48,274,576,5696
1644170409.737562,-0.010132,0.011719,-0.992249,0.159786,0.356031,-0.176794,48,276,583,5648
1644170409.785959,-0.010254,0.009705,-0.990906,0.236122,0.325496,-0.069924,41,269,576,5664
1644170409.83441,-0.009521,0.011475,-0.990234,0.175053,0.371298,-0.192061,51,281,576,5584
1644170409.882804,-0.009338,0.010437,-0.991821,0.205588,0.554504,-0.100458,53,264,569,5664
1644170409.931172,-0.009399,0.011841,-0.990295,0.35826,0.386565,-0.069924,55,271,583,5712
1644170409.979583,-0.011902,0.010071,-0.99292,0.236122,0.203359,-0.008855,57,285,579,5664
1644170410.028729,-0.007263,0.007507,-0.993042,0.098718,0.447634,0.052214,60,283,573,5600
1644170410.088687,-0.008667,0.00708,-0.989868,0.266656,0.356031,-0.085191,43,269,580,5648
1644170410.125385,-0.011658,0.010193,-0.992737,0.266656,0.310229,-0.207328,51,276,569,5712
1644170410.221495,-0.008911,0.00769,-0.993958,0.098718,0.279695,0.021679,53,271,578,5696
1644170410.269889,-0.010559,0.01239,-0.987976,0.129252,0.401832,-0.161527,53,279,576,5696
1644170410.318239,-0.00769,0.01062,-0.991089,0.205588,0.386565,-0.237863,45,280,572,5696
1644170410.366645,-0.008484,0.009766,-0.991394,0.113985,0.264427,-0.115725,51,276,583,5760
1644170410.415076,-0.011108,0.007568,-0.99292,0.205588,0.371298,-0.14626,52,275,579,5728
1644170410.463437,-0.008423,0.010437,-0.993408,0.220855,0.401832,-0.130992,54,268,572,5696
1644170410.511835,-0.012573,0.010254,-0.990417,0.159786,0.340763,-0.192061,54,268,572,5664
1644170410.560217,-0.010925,0.010132,-0.993347,0.098718,0.371298,-0.069924,51,279,580,5696
1644170410.608604,-0.011658,0.009705,-0.99292,0.312458,0.493435,-0.115725,47,270,572,5664
1644170410.656992,-0.013123,0.010559,-0.991028,0.220855,0.386565,-0.024122,43,276,583,5600
1644170410.705381,-0.011414,0.009888,-0.99231,0.159786,0.63084,-0.176794,41,279,576,5648
1644170410.753768,-0.010986,0.009338,-0.990906,0.281924,0.417099,-0.176794,46,276,578,5648
1644170410.802229,-0.008972,0.00769,-0.993347,0.266656,0.325496,-0.024122,49,287,584,5648
1644170410.850608,-0.009521,0.010498,-0.991394,0.236122,0.493435,-0.054656,52,273,577,5664
1644170410.898998,-0.011353,0.012207,-0.991577,0.251389,0.478168,0.052214,43,279,573,5696
1644170410.947377,-0.011353,0.008179,-0.98999,0.342992,0.539237,-0.207328,49,275,584,5648
1644170410.995773,-0.012085,0.00769,-0.99353,0.388794,0.432366,-0.130992,47,280,575,5664
1644170411.055905,-0.008911,0.007751,-0.992615,0.404061,0.508702,-0.161527,46,271,573,5664
1644170411.092741,-0.012451,0.010315,-0.990723,0.113985,0.523969,-0.024122,48,274,573,5648
1644170411.142378,-0.010864,0.009338,-0.990784,0.220855,0.401832,-0.237863,47,270,579,5696
1644170411.1916,-0.013184,0.009583,-0.992859,0.251389,0.493435,-0.100458,45,273,577,5648
1644170411.241664,-0.011414,0.008728,-0.991638,0.297191,0.462901,-0.085191,58,266,573,5648
1644170411.286926,-0.009644,0.008728,-0.989197,0.297191,0.417099,-0.115725,49,275,572,5664
1644170411.382871,-0.005493,0.009644,-0.991699,0.190321,0.325496,0.036947,53,274,569,5648
1644170411.431214,-0.00885,0.009705,-0.990479,0.251389,0.447634,-0.161527,49,268,577,5664
1644170411.479637,-0.012146,0.010376,-0.989319,0.312458,0.203359,-0.130992,42,270,572,5664
1644170411.528029,-0.01062,0.008057,-0.990234,0.251389,0.386565,-0.192061,59,280,568,5696
1644170411.576416,-0.008484,0.008972,-0.992188,0.113985,0.371298,-0.100458,47,277,572,5648
1644170411.624802,-0.011108,0.011108,-0.992737,0.113985,0.478168,-0.085191,57,270,570,5664
1644170411.673195,-0.012939,0.010437,-0.992249,0.236122,0.447634,-0.130992,47,270,579,5648
1644170411.721586,-0.008728,0.009644,-0.988464,0.236122,0.600305,-0.237863,48,276,578,5648
1644170411.77,-0.011902,0.010132,-0.991638,0.144519,0.310229,-0.024122,51,271,571,5712
1644170411.81837,-0.008606,0.012512,-0.992981,0.236122,0.432366,-0.161527,57,268,582,5648
1644170411.866809,-0.00885,0.006531,-0.993042,0.205588,0.340763,-0.192061,57,275,575,5664
1644170411.915287,-0.008606,0.010803,-0.990906,0.373527,0.478168,-0.054656,47,282,575,5648
1644170411.96359,-0.010559,0.011597,-0.992126,0.190321,0.432366,-0.069924,47,282,577,5648
1644170412.011948,-0.012024,0.00946,-0.990601,0.205588,0.386565,-0.085191,47,277,570,5664
1644170412.07807,-0.009888,0.01001,-0.992798,0.312458,0.447634,-0.085191,62,274,585,5600
1644170412.11024,-0.012695,0.011047,-0.99054,0.236122,0.340763,-0.161527,51,274,576,5632
1644170412.157072,-0.009277,0.007812,-0.991943,0.251389,0.447634,-0.14626,54,270,582,5664
1644170412.205492,-0.009888,0.009338,-0.99176,0.236122,0.508702,0.12855,55,279,580,5632
1644170412.253884,-0.008545,0.007446,-0.992371,0.113985,0.233893,-0.100458,49,280,572,5648
1644170412.303663,-0.009583,0.009705,-0.990295,0.373527,0.508702,-0.130992,46,281,578,5664
1644170412.353965,-0.009094,0.007874,-0.989441,0.251389,0.462901,-0.222595,48,281,576,5648
1644170412.404279,-0.012146,0.010071,-0.992004,0.35826,0.523969,-0.192061,57,273,575,5696
1644170412.495842,-0.007935,0.010681,-0.98938,0.113985,0.24916,-0.085191,55,279,576,5648
1644170412.544233,-0.009766,0.009583,-0.990723,0.205588,0.539237,-0.14626,52,265,570,5664
1644170412.592629,-0.008545,0.010986,-0.991699,0.159786,0.508702,-0.069924,43,266,583,5696
1644170412.64097,-0.013489,0.008606,-0.993774,0.098718,0.417099,-0.237863,47,277,575,5728
1644170412.689372,-0.008972,0.010071,-0.990234,0.190321,0.585038,-0.085191,52,280,568,5696
1644170412.737787,-0.010803,0.009766,-0.993042,0.129252,0.340763,-0.14626,53,262,564,5760
1644170412.786159,-0.008301,0.011353,-0.990417,0.327725,0.340763,-0.069924,49,280,570,5648
1644170412.834676,-0.011841,0.014343,-0.991943,0.175053,0.432366,-0.130992,43,276,571,5648
1644170412.882991,-0.010803,0.009521,-0.993042,0.236122,0.447634,-0.268397,46,279,564,5664
1644170412.931379,-0.008972,0.01001,-0.98938,0.190321,0.478168,-0.115725,55,269,578,5632
1644170412.979795,-0.008301,0.008667,-0.990234,0.297191,0.386565,-0.069924,54,275,579,5712
1644170413.028172,-0.010925,0.009949,-0.992737,0.08345,0.493435,-0.008855,54,270,572,5696
1644170413.08812,-0.00946,0.008911,-0.99115,0.220855,0.356031,-0.008855,39,288,580,5648
1644170413.124936,-0.008301,0.011414,-0.992737,0.129252,0.294962,-0.161527,51,269,571,5728
1644170413.173533,-0.012573,0.008606,-0.991516,0.266656,0.447634,-0.283664,52,277,575,5760
1644170413.221907,-0.011963,0.007935,-0.993469,0.205588,0.462901,0.067481,49,277,556,5648
1644170413.272491,-0.013,0.010742,-0.992615,0.236122,0.340763,-0.176794,49,282,568,5632
1644170413.323031,-0.00946,0.010498,-0.989197,0.342992,0.310229,-0.100458,52,268,568,5664
1644170413.36791,-0.008362,0.008789,-0.991394,0.297191,0.417099,-0.069924,54,280,579,5648
1644170413.463658,-0.010803,0.007751,-0.991455,0.175053,0.417099,-0.054656,54,270,577,5632
1644170413.512021,-0.007935,0.009033,-0.991699,0.052916,0.417099,-0.039389,45,287,575,5648
1644170413.560412,-0.010498,0.009644,-0.989685,0.159786,0.462901,-0.024122,40,273,577,5648
1644170413.608811,-0.010193,0.009644,-0.99115,0.281924,0.401832,-0.176794,52,273,577,5696
1644170413.657196,-0.01062,0.009644,-0.990906,0.144519,0.401832,-0.222595,47,277,582,5664
1644170413.705602,-0.01239,0.011719,-0.992737,0.312458,0.294962,0.036947,58,279,569,5600
1644170413.753976,-0.008423,0.010803,-0.99176,0.312458,0.325496,-0.085191,58,266,573,5584
1644170413.802377,-0.007751,0.009583,-0.992188,0.08345,0.447634,-0.207328,49,277,572,5696
1644170413.850774,-0.013672,0.007935,-0.990662,0.159786,0.279695,-0.069924,52,280,572,5664
1644170413.899225,-0.009216,0.007751,-0.988098,0.068183,0.325496,-0.130992,40,263,575,5632
1644170413.9476,-0.007446,0.012085,-0.993469,0.190321,0.188092,0.006412,51,286,578,5664
1644170413.995963,-0.009521,0.009949,-0.988281,0.236122,0.417099,-0.054656,54,277,570,5664
1644170414.063395,-0.009644,0.009949,-0.990601,0.190321,0.462901,-0.161527,45,275,572,5712
1644170414.094915,-0.009033,0.007935,-0.991516,0.342992,0.523969,-0.207328,51,276,580,5648
1644170414.14111,-0.009949,0.007874,-0.990906,0.266656,0.447634,-0.085191,46,274,576,5600
1644170414.189518,-0.011963,0.011719,-0.992188,0.098718,0.356031,-0.14626,52,277,572,5664
1644170414.237869,-0.01001,0.008972,-0.991699,0.205588,0.340763,-0.024122,54,268,589,5648
1644170414.286289,-0.008972,0.010254,-0.992126,0.190321,0.432366,-0.054656,52,275,575,5648
1644170414.334689,-0.008301,0.011108,-0.993225,0.251389,0.340763,-0.069924,60,269,576,5696
1644170414.383315,-0.010925,0.007385,-0.990356,0.342992,0.371298,-0.161527,52,263,577,5696
1644170414.43376,-0.01062,0.010071,-0.990479,0.449863,0.386565,-0.130992,53,279,566,5760
1644170414.483869,-0.009216,0.008667,-0.991394,0.297191,0.340763,-0.069924,53,271,573,5712
1644170414.529081,-0.009644,0.012939,-0.992554,0.113985,0.493435,-0.085191,53,271,576,5664
1644170414.625261,-0.009216,0.009216,-0.98938,0.35826,0.340763,-0.085191,51,281,569,5712
1644170414.673418,-0.011108,0.01062,-0.988647,0.251389,0.294962,-0.115725,48,266,587,5696
1644170414.72178,-0.009155,0.010071,-0.99054,0.327725,0.462901,-0.039389,48,276,569,5696
1644170414.770187,-0.011597,0.009399,-0.992493,0.190321,0.279695,-0.054656,48,269,571,5664
1644170414.818617,-0.007507,0.010132,-0.992615,0.251389,0.417099,-0.069924,38,277,582,5648
1644170414.867171,-0.011841,0.009216,-0.990601,0.266656,0.340763,-0.039389,41,274,569,5664
1644170414.915381,-0.011292,0.011169,-0.991028,0.175053,0.554504,0.021679,53,281,573,5648
1644170414.963797,-0.012146,0.010254,-0.993652,0.190321,0.432366,0.082748,53,274,576,5648
1644170415.012197,-0.012634,0.012817,-0.99292,0.113985,0.340763,-0.176794,54,268,575,5664
1644170415.069226,-0.008362,0.008545,-0.992981,0.159786,0.508702,-0.069924,43,276,585,5696
1644170415.108924,-0.009949,0.011353,-0.992188,0.190321,0.386565,-0.100458,58,276,590,5648
1644170415.157311,-0.007385,0.009094,-0.993164,0.175053,0.340763,-0.085191,55,274,571,5760
1644170415.205683,-0.010498,0.009766,-0.991821,0.297191,0.325496,-0.085191,48,279,571,5728
1644170415.254105,-0.010437,0.010071,-0.990356,0.205588,0.462901,0.021679,53,276,571,5648
1644170415.302505,-0.011902,0.010681,-0.991516,0.220855,0.188092,-0.237863,49,282,582,5696
1644170415.350881,-0.009705,0.010681,-0.991455,0.159786,0.539237,-0.024122,47,275,577,5696
1644170415.399264,-0.011292,0.011047,-0.991455,0.159786,0.386565,-0.115725,53,269,580,5696
1644170415.447662,-0.009949,0.012878,-0.992249,0.251389,0.417099,-0.054656,59,258,589,5648
1644170415.49604,-0.011108,0.011719,-0.991882,0.251389,0.401832,-0.115725,51,271,580,5648
1644170415.544967,-0.009644,0.012451,-0.992859,0.144519,0.493435,-0.085191,60,266,576,5632
1644170415.59517,-0.00824,0.009338,-0.99054,0.220855,0.417099,-0.130992,46,271,576,5696
1644170415.645409,-0.008362,0.009399,-0.992432,0.251389,0.386565,-0.069924,46,274,578,5664
1644170415.690486,-0.008972,0.01062,-0.990234,0.510931,0.462901,-0.100458,53,271,580,5648
1644170415.786368,-0.009399,0.01123,-0.992493,0.236122,0.447634,-0.008855,47,275,575,5696
1644170415.834973,-0.011841,0.009033,-0.992126,0.281924,0.432366,-0.100458,42,270,561,5648
1644170415.883222,-0.011475,0.01062,-0.992554,0.190321,0.233893,-0.237863,66,275,572,5696
1644170415.931593,-0.010864,0.008423,-0.989441,0.08345,0.264427,0.021679,49,275,582,5648
1644170415.979979,-0.012085,0.009216,-0.988403,0.175053,0.386565,-0.008855,54,273,570,5664
1644170416.028374,-0.010803,0.01001,-0.990356,0.129252,0.462901,0.067481,46,283,571,5728
1644170416.076868,-0.009888,0.010437,-0.990723,0.205588,0.462901,-0.192061,54,268,577,5760
1644170416.125176,-0.010681,0.009399,-0.989014,0.220855,0.493435,0.067481,49,273,577,5664
1644170416.173524,-0.010254,0.009827,-0.989624,0.205588,0.432366,-0.039389,47,275,565,5600
1644170416.22191,-0.009888,0.009399,-0.99292,0.144519,0.371298,-0.085191,43,274,578,5600
1644170416.270279,-0.00946,0.010559,-0.990173,0.159786,0.24916,-0.069924,54,270,577,5648
1644170416.31866,-0.008545,0.007385,-0.992249,0.220855,0.340763,-0.176794,45,273,575,5600
1644170416.367085,-0.010315,0.009094,-0.991333,0.266656,0.493435,-0.161527,47,263,584,5648
1644170416.415476,-0.010132,0.007874,-0.992798,0.251389,0.356031,0.036947,52,275,577,5728
1644170416.463843,-0.010315,0.007812,-0.992065,0.327725,0.127023,-0.14626,41,271,573,5664
1644170416.512273,-0.009888,0.012939,-0.990234,0.220855,0.386565,-0.069924,53,276,576,5648
1644170416.56064,-0.009583,0.008179,-0.994995,0.297191,0.432366,-0.222595,51,271,573,5728
1644170416.609035,-0.010132,0.01123,-0.990417,0.312458,0.233893,-0.237863,53,279,578,5664
1644170416.657426,-0.011353,0.010132,-0.992432,0.144519,0.386565,-0.115725,54,277,577,5648
1644170416.705937,-0.010925,0.007935,-0.990784,0.281924,0.401832,-0.115725,52,277,582,5696
1644170416.756186,-0.008301,0.011902,-0.990906,0.35826,0.401832,-0.024122,45,282,569,5696
1644170416.806834,-0.00946,0.010925,-0.992188,0.159786,0.386565,-0.100458,57,268,577,5696
1644170416.851975,-0.009094,0.009521,-0.989868,0.129252,0.447634,-0.100458,38,280,572,5584
1644170416.947797,-0.006958,0.007935,-0.993896,0.190321,0.371298,-0.100458,49,275,568,5664
1644170416.996165,-0.009644,0.009766,-0.991699,0.220855,0.340763,-0.100458,43,271,569,5696
1644170417.057909,-0.009521,0.009949,-0.992371,0.175053,0.340763,-0.085191,49,280,570,5648
1644170417.094922,-0.011658,0.010803,-0.991028,0.251389,0.417099,-0.115725,52,277,582,5728
1644170417.141332,-0.009705,0.009338,-0.991333,0.205588,0.386565,0.021679,51,276,576,5632
1644170417.189722,-0.009338,0.009766,-0.990295,0.327725,0.356031,-0.14626,45,270,577,5664
1644170417.238115,-0.010071,0.009521,-0.992493,0.220855,0.417099,0.006412,42,277,575,5728
1644170417.286503,-0.010559,0.008423,-0.991089,0.266656,0.417099,-0.268397,48,283,583,5648
1644170417.33491,-0.011414,0.008179,-0.992676,0.205588,0.417099,-0.192061,47,268,568,5696
1644170417.383269,-0.009216,0.009644,-0.99353,0.251389,0.386565,-0.130992,49,270,565,5696
1644170417.431675,-0.007629,0.007812,-0.991638,0.205588,0.401832,-0.085191,54,273,577,5664
1644170417.480031,-0.008606,0.00885,-0.988037,0.312458,0.340763,-0.100458,49,280,582,5600
1644170417.528442,-0.008972,0.008911,-0.989624,0.205588,0.294962,-0.039389,46,271,578,5664
1644170417.576845,-0.006836,0.009705,-0.994202,0.281924,0.417099,-0.069924,46,269,580,5648
1644170417.625559,-0.008911,0.012634,-0.989197,0.281924,0.432366,-0.100458,49,277,572,5648
1644170417.674978,-0.009338,0.010498,-0.991333,0.205588,0.432366,-0.008855,46,266,576,5632
1644170417.725427,-0.009644,0.01123,-0.993652,0.205588,0.432366,-0.176794,55,276,571,5600
1644170417.775367,-0.008972,0.010803,-0.991943,0.205588,0.310229,-0.024122,48,269,573,5664
1644170417.867201,-0.00885,0.010315,-0.993164,0.068183,0.401832,-0.100458,49,270,568,5728
1644170417.915606,-0.011108,0.010559,-0.991089,0.052916,0.401832,-0.024122,57,275,575,5696
1644170417.963999,-0.008179,0.008423,-0.992981,0.190321,0.478168,-0.207328,51,276,580,5728
1644170418.012436,-0.010132,0.008301,-0.991638,0.175053,0.310229,-0.069924,52,265,572,5648
1644170418.065429,-0.01062,0.007996,-0.991577,0.373527,0.386565,0.021679,47,275,577,5600
1644170418.109164,-0.009949,0.009583,-0.989197,0.175053,0.401832,-0.161527,55,271,576,5696
1644170418.157516,-0.012024,0.010681,-0.992432,0.144519,0.447634,-0.039389,57,270,579,5664
1644170418.205922,-0.013245,0.007812,-0.992615,0.159786,0.432366,-0.039389,52,268,577,5648
1644170418.254296,-0.00946,0.010376,-0.989929,0.342992,0.478168,-0.100458,51,276,569,5648
1644170418.302722,-0.011108,0.010132,-0.991394,0.281924,0.432366,-0.069924,53,279,571,5584
1644170418.351076,-0.009705,0.009216,-0.991211,0.220855,0.508702,-0.039389,48,274,573,5664
1644170418.399483,-0.011963,0.007446,-0.992493,0.251389,0.340763,-0.192061,54,265,575,5664
1644170418.447865,-0.013611,0.01001,-0.991638,0.236122,0.417099,-0.115725,54,285,577,5648
1644170418.49626,-0.011108,0.009094,-0.99176,0.220855,0.279695,-0.130992,54,275,577,5696
1644170418.544657,-0.010864,0.008179,-0.993225,0.175053,0.356031,-0.100458,47,273,570,5664
1644170418.593056,-0.010193,0.009338,-0.995178,0.159786,0.401832,0.021679,45,275,570,5648
1644170418.641429,-0.009094,0.008728,-0.991638,0.08345,0.417099,-0.100458,48,279,578,5648
1644170418.689825,-0.010925,0.009705,-0.99176,0.220855,0.478168,-0.130992,48,276,578,5696
1644170418.738217,-0.010315,0.009094,-0.991211,0.220855,0.386565,-0.100458,61,277,570,5664
1644170418.787013,-0.009521,0.008179,-0.992004,0.35826,0.432366,-0.054656,48,269,580,5648
1644170418.83742,-0.010132,0.01062,-0.993164,0.236122,0.294962,0.006412,52,270,582,5648
1644170418.888619,-0.012024,0.011536,-0.991455,0.08345,0.447634,-0.039389,49,275,570,5664
1644170418.932912,-0.011719,0.010742,-0.992004,0.281924,0.523969,-0.024122,36,266,571,5664
1644170419.028601,-0.007812,0.009277,-0.988464,0.266656,0.386565,-0.069924,55,271,564,5664
1644170419.079545,-0.009094,0.010071,-0.989136,0.159786,0.539237,-0.069924,59,270,572,5632
1644170419.125395,-0.011475,0.009033,-0.99176,0.068183,0.24916,-0.130992,49,270,570,5648
1644170419.173736,-0.009277,0.008362,-0.990112,0.190321,0.294962,-0.039389,42,273,565,5648
1644170419.222178,-0.011353,0.00769,-0.993225,0.35826,0.417099,-0.039389,45,273,570,5664
1644170419.270496,-0.008911,0.010803,-0.993042,0.35826,0.310229,-0.115725,46,271,573,5696
1644170419.318913,-0.010071,0.011902,-0.993835,0.266656,0.447634,-0.207328,54,273,561,5696
1644170419.367302,-0.007263,0.009338,-0.991821,0.434595,0.569771,-0.283664,47,268,577,5760
1644170419.415685,-0.008789,0.008972,-0.99115,0.144519,0.310229,-0.054656,39,286,585,5712
1644170419.464086,-0.010986,0.013489,-0.99176,0.144519,0.340763,-0.054656,55,274,576,5600
1644170419.516172,-0.009155,0.008118,-0.990906,0.205588,0.417099,-0.008855,45,270,579,5648
1644170419.560861,-0.011047,0.009766,-0.989197,0.251389,0.600305,0.021679,45,273,577,5648
1644170419.609248,-0.011902,0.00592,-0.988892,0.312458,0.432366,-0.008855,52,270,575,5696
1644170419.657645,-0.012512,0.010498,-0.991882,0.251389,0.462901,-0.085191,49,280,579,5600
1644170419.706036,-0.011902,0.008911,-0.992188,0.388794,0.447634,-0.130992,51,276,576,5600
1644170419.754401,-0.008728,0.011841,-0.990479,0.449863,0.356031,-0.115725,58,281,583,5600
1644170419.802836,-0.011536,0.009827,-0.991211,0.327725,0.340763,-0.085191,43,274,569,5648
1644170419.852036,-0.008789,0.008789,-0.990234,0.312458,0.356031,-0.176794,46,276,569,5648
1644170419.902163,-0.012573,0.008301,-0.991577,0.205588,0.325496,-0.069924,43,269,573,5696
1644170419.952522,-0.011169,0.009888,-0.990112,0.220855,0.356031,-0.024122,53,266,573,5664
1644170419.997403,-0.008545,0.007629,-0.992859,0.190321,0.340763,0.021679,47,275,565,5648
1644170420.093333,-0.008179,0.012329,-0.991577,0.404061,0.432366,-0.054656,49,263,577,5760
1644170420.141601,-0.007324,0.009827,-0.990845,0.159786,0.24916,-0.14626,48,276,571,5664
1644170420.18993,-0.012573,0.010132,-0.99353,0.175053,0.325496,0.006412,55,276,571,5696
1644170420.238334,-0.010376,0.006836,-0.991882,0.159786,0.356031,-0.115725,53,274,571,5664
1644170420.286712,-0.008667,0.011475,-0.990051,0.205588,0.539237,0.036947,58,274,580,5712
1644170420.33514,-0.009216,0.010315,-0.99469,0.098718,0.294962,-0.085191,58,274,585,5648
1644170420.383495,-0.009949,0.010132,-0.991333,0.144519,0.386565,-0.008855,52,275,582,5664
1644170420.431869,-0.009827,0.012146,-0.992249,0.220855,0.264427,-0.14626,45,268,577,5648
1644170420.480275,-0.010071,0.010559,-0.993225,0.190321,0.432366,-0.039389,43,283,571,5696
1644170420.528684,-0.010681,0.00824,-0.990906,0.327725,0.386565,-0.039389,48,274,571,5664
1644170420.57706,-0.00946,0.008911,-0.991394,0.327725,0.432366,-0.024122,55,274,566,5696
1644170420.625449,-0.01062,0.009399,-0.993408,0.205588,0.539237,-0.069924,45,277,572,5648
1644170420.673823,-0.012207,0.008728,-0.992493,0.144519,0.294962,-0.344733,48,274,580,5696
1644170420.722246,-0.009521,0.008606,-0.994812,0.113985,0.432366,-0.237863,53,266,576,5648
1644170420.770627,-0.008667,0.008972,-0.990051,0.159786,0.432366,-0.008855,57,285,575,5632
1644170420.819016,-0.009155,0.011108,-0.99292,0.327725,0.432366,-0.14626,59,260,579,5664
1644170420.86741,-0.009888,0.008728,-0.990845,0.251389,0.432366,-0.054656,49,282,575,5696
1644170420.916002,-0.007935,0.007874,-0.991638,0.404061,0.585038,-0.054656,49,268,570,5760
1644170420.964248,-0.011108,0.009338,-0.990723,0.266656,0.432366,-0.069924,59,277,577,5600
1644170421.014014,-0.01001,0.007324,-0.990845,0.373527,0.447634,-0.008855,47,263,579,5600
1644170421.075339,-0.009583,0.010315,-0.990845,0.098718,0.432366,-0.100458,53,286,573,5696
1644170421.114874,-0.006714,0.010986,-0.992615,0.281924,0.462901,0.006412,58,276,573,5696
1644170421.159059,-0.010742,0.010803,-0.992188,0.159786,0.447634,-0.237863,52,273,572,5664
1644170421.254545,-0.009583,0.007874,-0.991211,0.327725,0.310229,-0.283664,53,271,576,5728
1644170421.302908,-0.007935,0.011597,-0.992188,0.220855,0.493435,0.021679,46,274,571,5648
1644170421.351299,-0.008179,0.006775,-0.989746,0.297191,0.417099,-0.069924,48,281,571,5664
1644170421.399692,-0.00946,0.009644,-0.991516,0.205588,0.462901,0.006412,46,279,576,5648
1644170421.448091,-0.009888,0.008057,-0.991089,0.404061,0.447634,-0.176794,57,270,565,5712
1644170421.496485,-0.010376,0.005981,-0.991516,0.342992,0.310229,-0.100458,55,269,571,5632
1644170421.544859,-0.012024,0.007263,-0.992432,0.144519,0.539237,-0.069924,51,276,576,5696
1644170421.593265,-0.010193,0.007751,-0.989746,0.159786,0.386565,-0.024122,47,277,565,5712
1644170421.641665,-0.010437,0.007019,-0.993103,0.220855,0.523969,-0.054656,51,269,580,5600
1644170421.690041,-0.009033,0.008911,-0.991943,0.281924,0.493435,0.098015,46,276,578,5648
1644170421.738441,-0.01062,0.011963,-0.990784,0.08345,0.478168,0.036947,40,265,579,5664
1644170421.786823,-0.008789,0.006226,-0.991272,0.190321,0.356031,-0.039389,45,275,572,5696
1644170421.835294,-0.009094,0.011169,-0.990173,0.297191,0.508702,-0.161527,66,273,584,5664
1644170421.883653,-0.007812,0.010071,-0.99054,0.236122,0.508702,-0.14626,61,275,577,5696
1644170421.932037,-0.011292,0.011414,-0.990723,0.297191,0.386565,-0.054656,48,281,576,5648
1644170421.980423,-0.009766,0.011475,-0.992249,0.327725,0.294962,-0.085191,54,275,579,5696
1644170422.028813,-0.009766,0.010071,-0.990601,0.312458,0.417099,0.067481,49,268,577,5696
1644170422.082497,-0.012634,0.008972,-0.98999,0.175053,0.432366,-0.039389,49,282,575,5584
1644170422.125619,-0.009705,0.00946,-0.991638,0.281924,0.493435,0.036947,49,275,577,5664
1644170422.175985,-0.011169,0.008606,-0.993896,0.327725,0.462901,0.006412,52,280,577,5648
1644170422.225129,-0.01178,0.011719,-0.990051,0.129252,0.432366,-0.100458,57,275,591,5648
1644170422.27544,-0.010742,0.01062,-0.990417,0.190321,0.462901,-0.237863,58,274,576,5712
1644170422.320268,-0.010071,0.007568,-0.991821,0.388794,0.371298,-0.039389,48,271,578,5664
1644170422.415886,-0.013794,0.006348,-0.993164,0.342992,0.371298,-0.024122,52,270,577,5600
1644170422.4643,-0.011292,0.009094,-0.992065,0.144519,0.401832,-0.14626,62,281,564,5648
1644170422.512689,-0.010681,0.008179,-0.993164,0.220855,0.539237,-0.161527,59,260,575,5648
1644170422.561047,-0.010498,0.011108,-0.994324,0.098718,0.371298,-0.100458,48,269,580,5664
1644170422.609452,-0.009827,0.009399,-0.993713,0.266656,0.325496,-0.176794,57,280,579,5664
1644170422.657861,-0.008911,0.009216,-0.990723,0.220855,0.417099,-0.176794,46,283,573,5632
1644170422.706239,-0.010742,0.008484,-0.993469,0.297191,0.371298,-0.085191,53,274,573,5664
1644170422.754675,-0.011597,0.006348,-0.99353,0.404061,0.24916,-0.176794,41,274,573,5664
1644170422.803033,-0.012451,0.009583,-0.991516,0.342992,0.462901,-0.130992,49,277,572,5696
1644170422.851411,-0.011169,0.007751,-0.989685,0.113985,0.478168,-0.100458,46,283,573,5600
1644170422.899845,-0.008484,0.008118,-0.993896,0.266656,0.523969,-0.176794,43,279,580,5696
1644170422.948255,-0.006836,0.010132,-0.991089,0.266656,0.478168,-0.14626,46,274,573,5648
1644170422.996624,-0.00946,0.006775,-0.989746,0.281924,0.523969,-0.069924,46,281,566,5664
1644170423.063171,-0.009399,0.011353,-0.992188,0.08345,0.539237,0.036947,59,277,586,5696
1644170423.096099,-0.011353,0.008423,-0.990906,0.251389,0.356031,0.098015,48,266,569,5696
1644170423.141763,-0.012939,0.008362,-0.991028,0.449863,0.356031,-0.054656,48,291,571,5648
1644170423.190143,-0.009949,0.008057,-0.993652,0.220855,0.462901,-0.115725,58,281,580,5664
1644170423.23854,-0.012573,0.010132,-0.991882,0.281924,0.279695,-0.283664,49,268,582,5696
1644170423.286926,-0.010437,0.009399,-0.991699,0.159786,0.24916,-0.024122,47,285,575,5664
1644170423.33578,-0.009644,0.010132,-0.990295,0.35826,0.371298,-0.14626,49,270,584,5648
1644170423.386766,-0.013062,0.009949,-0.98938,0.129252,0.432366,0.052214,54,275,577,5712
1644170423.436344,-0.011353,0.008118,-0.993042,0.220855,0.340763,-0.069924,51,283,569,5696
1644170423.481458,-0.010498,0.012817,-0.992432,0.297191,0.294962,-0.100458,49,273,579,5648
1644170423.57727,-0.010803,0.008057,-0.992493,0.236122,0.371298,-0.039389,46,269,576,5696
1644170423.625641,-0.011047,0.007812,-0.99231,0.312458,0.417099,-0.024122,45,270,582,5648
1644170423.674071,-0.012024,0.008789,-0.990784,0.266656,0.462901,-0.130992,53,274,576,5696
1644170423.722454,-0.010315,0.008484,-0.993958,0.175053,0.478168,-0.161527,45,275,572,5664
1644170423.770827,-0.010803,0.008301,-0.991516,0.342992,0.401832,-0.115725,58,264,571,5696
1644170423.81926,-0.010925,0.006287,-0.99231,0.404061,0.508702,0.021679,48,269,580,5632
1644170423.867668,-0.010498,0.004333,-0.989563,0.205588,0.386565,-0.039389,47,275,582,5728
1644170423.916049,-0.013,0.00946,-0.994202,0.236122,0.462901,-0.039389,60,281,573,5648
1644170423.964462,-0.008789,0.009033,-0.992493,0.327725,0.172824,-0.039389,52,282,577,5648
1644170424.012817,-0.010437,0.008789,-0.994019,0.190321,0.508702,-0.222595,39,271,578,5648
1644170424.065513,-0.010376,0.006775,-0.992859,0.205588,0.294962,-0.161527,48,279,573,5696
1644170424.109599,-0.011292,0.009094,-0.991516,0.251389,0.401832,-0.069924,57,273,577,5712
1644170424.157968,-0.011475,0.008301,-0.993713,0.129252,0.462901,0.021679,43,279,585,5728
1644170424.206354,-0.009155,0.009277,-0.991089,0.281924,0.310229,-0.024122,52,273,577,5664
1644170424.254731,-0.010864,0.009155,-0.991333,0.342992,0.401832,-0.207328,46,276,583,5712
1644170424.303147,-0.009949,0.010864,-0.989868,0.159786,0.386565,-0.115725,64,270,582,5696
1644170424.351517,-0.011597,0.007507,-0.99292,0.342992,0.493435,-0.008855,40,287,575,5696
1644170424.399912,-0.010132,0.008667,-0.993652,0.022382,0.279695,-0.069924,57,263,570,5648
1644170424.448323,-0.010559,0.011902,-0.991577,0.190321,0.386565,0.006412,45,268,586,5664
1644170424.497993,-0.009766,0.01178,-0.991272,0.129252,0.310229,-0.115725,45,282,572,5664
1644170424.548171,-0.010559,0.008606,-0.99231,0.159786,0.294962,0.052214,52,273,582,5648
1644170424.598311,-0.008423,0.011475,-0.992371,0.129252,0.356031,-0.100458,51,262,573,5696
1644170424.690259,-0.008667,0.009521,-0.991089,0.144519,0.462901,-0.14626,51,271,576,5664
1644170424.738625,-0.010986,0.010986,-0.991211,0.190321,0.493435,0.052214,54,275,582,5712
1644170424.787024,-0.010925,0.010254,-0.991516,0.052916,0.356031,0.021679,53,274,569,5632
1644170424.835461,-0.010681,0.01123,-0.990906,0.205588,0.478168,-0.069924,58,266,578,5696
1644170424.88387,-0.008423,0.010986,-0.990479,0.327725,0.523969,-0.054656,52,282,575,5696
1644170424.932269,-0.00769,0.011292,-0.992493,0.098718,0.371298,-0.100458,42,273,584,5712
1644170424.980656,-0.009705,0.008728,-0.993286,0.190321,0.340763,-0.176794,48,271,578,5664
1644170425.02904,-0.010132,0.010925,-0.990417,0.281924,0.447634,-0.085191,48,266,585,5664
1644170425.081364,-0.012085,0.010559,-0.992737,0.327725,0.447634,-0.100458,49,277,582,5648
1644170425.12578,-0.012085,0.011536,-0.989258,0.144519,0.340763,-0.100458,55,286,580,5648
1644170425.174169,-0.010925,0.010864,-0.992371,0.281924,0.386565,-0.14626,55,274,573,5648
1644170425.222565,-0.009338,0.007751,-0.992188,0.342992,0.401832,-0.024122,49,275,575,5632
1644170425.27091,-0.008423,0.009216,-0.993652,0.281924,0.417099,-0.130992,55,276,578,5648
1644170425.319771,-0.006592,0.009338,-0.991455,0.175053,0.203359,-0.207328,48,281,578,5696
1644170425.369781,-0.009949,0.009216,-0.990967,0.220855,0.478168,-0.130992,51,266,576,5648
1644170425.420034,-0.009888,0.009399,-0.991821,0.113985,0.371298,0.143817,48,271,580,5648
1644170425.465153,-0.00708,0.009949,-0.991577,0.388794,0.294962,0.006412,48,274,580,5696
1644170425.561291,-0.011902,0.009399,-0.991699,0.205588,0.401832,-0.161527,57,273,570,5648
1644170425.60969,-0.009155,0.008179,-0.99353,0.129252,0.569771,0.036947,48,271,569,5696
1644170425.658063,-0.012024,0.012329,-0.990112,0.373527,0.356031,-0.069924,48,279,569,5776
1644170425.706418,-0.009827,0.007751,-0.993774,0.342992,0.585038,-0.207328,43,271,580,5664
1644170425.754832,-0.010132,0.01239,-0.992188,0.159786,0.523969,-0.024122,59,277,572,5648
1644170425.803431,-0.009949,0.009521,-0.990356,0.419328,0.417099,-0.039389,49,277,570,5696
1644170425.85168,-0.01123,0.009705,-0.99353,0.297191,0.356031,-0.115725,48,271,573,5696
1644170425.900056,-0.007202,0.009338,-0.990845,0.419328,0.294962,-0.115725,46,269,569,5664
1644170425.948456,-0.00824,0.007507,-0.990784,0.251389,0.371298,-0.115725,49,270,568,5696
1644170425.996824,-0.011169,0.009216,-0.991272,0.129252,0.310229,0.082748,47,277,582,5696
1644170426.059484,-0.01001,0.010498,-0.992126,0.281924,0.432366,-0.192061,51,274,571,5648
1644170426.097738,-0.012878,0.007629,-0.991272,0.205588,0.386565,-0.008855,46,274,573,5648
1644170426.141953,-0.008423,0.008118,-0.990662,0.35826,0.340763,-0.130992,43,279,573,5648
1644170426.190362,-0.011841,0.010193,-0.990601,0.190321,0.371298,-0.069924,57,280,582,5648
1644170426.238755,-0.009033,0.008118,-0.992859,0.266656,0.401832,0.098015,43,271,578,5664
1644170426.287137,-0.011475,0.009827,-0.989502,0.205588,0.401832,-0.161527,51,276,583,5600
1644170426.335505,-0.010071,0.007812,-0.990295,0.220855,0.371298,-0.039389,47,273,577,5728
1644170426.383927,-0.007629,0.009399,-0.993042,0.129252,0.417099,-0.14626,54,273,572,5664
1644170426.432388,-0.010864,0.011169,-0.995789,0.220855,0.478168,-0.130992,51,271,566,5664
1644170426.481685,-0.010986,0.011353,-0.99176,0.312458,0.279695,-0.14626,46,276,585,5648
1644170426.532687,-0.009277,0.010376,-0.993103,0.129252,0.310229,-0.039389,59,270,568,5664
1644170426.582408,-0.010559,0.009888,-0.989807,0.327725,0.585038,-0.176794,54,287,575,5696
1644170426.67431,-0.011353,0.007751,-0.99115,0.251389,0.310229,-0.085191,42,282,572,5648
1644170426.722645,-0.011353,0.008545,-0.992615,0.266656,0.386565,-0.176794,48,274,578,5696
1644170426.771042,-0.010193,0.008606,-0.991089,0.251389,0.310229,-0.222595,59,270,575,5664
1644170426.819432,-0.012268,0.008545,-0.990601,0.144519,0.447634,-0.14626,53,279,569,5648
1644170426.867853,-0.013123,0.007935,-0.992004,0.236122,0.417099,-0.100458,47,277,577,5648
1644170426.916256,-0.011719,0.011414,-0.993958,0.327725,0.417099,-0.192061,53,271,562,5696
1644170426.964775,-0.013062,0.008789,-0.992432,0.327725,0.478168,-0.14626,42,277,565,5696
1644170427.013066,-0.008423,0.008484,-0.991272,0.236122,0.294962,0.021679,52,275,575,5728
1644170427.061648,-0.010376,0.00946,-0.994324,0.266656,0.417099,-0.100458,51,279,578,5696
1644170427.109815,-0.012634,0.009766,-0.99353,0.312458,0.340763,0.036947,54,275,575,5696
1644170427.158183,-0.009521,0.006958,-0.990234,0.220855,0.554504,-0.115725,45,273,568,5664
1644170427.206563,-0.009277,0.009399,-0.99115,0.159786,0.24916,-0.130992,54,280,572,5728
1644170427.255083,-0.010071,0.007446,-0.99054,0.236122,0.539237,-0.25313,52,275,582,5648
1644170427.30335,-0.010376,0.009583,-0.991638,0.281924,0.279695,0.036947,47,268,582,5648
1644170427.351745,-0.010376,0.009949,-0.994568,0.068183,0.356031,-0.237863,47,270,582,5648
1644170427.400126,-0.006714,0.010071,-0.991211,0.220855,0.554504,0.006412,41,266,578,5696
1644170427.448531,-0.010925,0.010376,-0.992737,0.35826,0.432366,-0.100458,42,268,577,5648
1644170427.496912,-0.008972,0.008545,-0.988831,0.342992,0.432366,0.021679,48,276,576,5664
1644170427.545303,-0.010864,0.00946,-0.990601,0.281924,0.386565,-0.237863,46,269,583,5664
1644170427.593993,-0.010742,0.006653,-0.992554,0.205588,0.401832,-0.115725,42,277,579,5664
1644170427.644347,-0.00824,0.009399,-0.994202,0.266656,0.417099,-0.069924,58,279,585,5648
1644170427.694557,-0.010437,0.010376,-0.993286,0.297191,0.432366,-0.100458,53,281,576,5584
1644170427.739717,-0.009521,0.008423,-0.992249,0.281924,0.386565,-0.054656,49,270,579,5664
1644170427.835632,-0.010071,0.008606,-0.992676,0.373527,0.417099,0.098015,51,266,569,5696
1644170427.884101,-0.010376,0.005249,-0.991272,0.266656,0.325496,-0.039389,46,279,578,5648
1644170427.932475,-0.009644,0.007751,-0.990967,0.236122,0.340763,0.036947,51,276,569,5648
1644170427.98085,-0.009705,0.00946,-0.993347,0.297191,0.462901,0.006412,53,279,571,5664
1644170428.029277,-0.010376,0.011475,-0.99054,0.144519,0.462901,0.082748,61,275,570,5648
1644170428.077735,-0.011108,0.009155,-0.991455,0.175053,0.233893,-0.085191,43,276,580,5648
1644170428.126044,-0.011047,0.009705,-0.992554,0.159786,0.417099,0.052214,46,271,573,5600
1644170428.174359,-0.01178,0.009033,-0.991516,0.342992,0.401832,-0.054656,47,270,582,5600
1644170428.22275,-0.012146,0.00885,-0.990845,0.205588,0.401832,0.021679,49,270,575,5648
1644170428.271163,-0.009644,0.009827,-0.989929,0.373527,0.508702,0.021679,48,274,573,5632
1644170428.319534,-0.007935,0.01062,-0.991394,0.266656,0.447634,-0.161527,52,263,575,5664
1644170428.367943,-0.009827,0.013367,-0.99115,0.297191,0.447634,-0.100458,51,274,583,5648
1644170428.416336,-0.009521,0.011963,-0.992676,0.342992,0.493435,-0.008855,59,277,577,5696
1644170428.464749,-0.009949,0.010559,-0.991638,0.297191,0.432366,-0.161527,45,280,577,5600
1644170428.51311,-0.010071,0.010559,-0.993713,0.159786,0.462901,-0.069924,49,265,577,5696
1644170428.561477,-0.009949,0.006165,-0.994507,0.312458,0.233893,-0.069924,48,281,569,5648
1644170428.609891,-0.011292,0.008179,-0.988831,0.251389,0.447634,-0.130992,52,277,579,5584
1644170428.658281,-0.01062,0.008484,-0.988525,0.129252,0.401832,0.036947,58,266,578,5664
1644170428.706674,-0.01001,0.011658,-0.991455,0.312458,0.356031,-0.100458,55,266,578,5664
1644170428.75576,-0.010376,0.009216,-0.991943,0.281924,0.478168,0.021679,58,286,576,5696
1644170428.807449,-0.009338,0.009583,-0.991089,0.190321,0.371298,-0.115725,48,279,576,5600
1644170428.857555,-0.011414,0.010681,-0.992004,0.266656,0.310229,-0.039389,62,281,573,5648
1644170428.948655,-0.01239,0.009705,-0.990479,0.159786,0.508702,-0.085191,53,286,580,5696
1644170428.997063,-0.009949,0.009949,-0.99231,0.312458,0.356031,-0.024122,57,273,575,5664
1644170429.057635,-0.010254,0.012512,-0.990845,0.297191,0.356031,-0.25313,54,265,575,5648
1644170429.096571,-0.011169,0.006226,-0.992188,0.205588,0.356031,-0.192061,55,266,583,5664
1644170429.142242,-0.01239,0.010864,-0.994629,0.281924,0.508702,0.082748,54,273,586,5696
1644170429.190563,-0.009338,0.009094,-0.989807,0.236122,0.356031,0.021679,52,277,577,5696
1644170429.238972,-0.009583,0.009277,-0.989258,0.129252,0.386565,-0.069924,49,277,577,5696
1644170429.287365,-0.010925,0.008606,-0.99292,0.159786,0.310229,-0.115725,42,268,570,5632
1644170429.335756,-0.010254,0.010925,-0.98877,0.220855,0.539237,-0.222595,51,281,573,5696
1644170429.38416,-0.010803,0.008789,-0.992981,0.266656,0.294962,-0.14626,54,280,570,5696
1644170429.432551,-0.010254,0.007935,-0.992737,0.297191,0.508702,0.021679,42,265,584,5664
1644170429.480922,-0.011414,0.010437,-0.991089,0.175053,0.447634,-0.207328,52,273,575,5664
1644170429.529313,-0.009949,0.007568,-0.994263,0.175053,0.523969,-0.039389,51,276,583,5712
1644170429.577704,-0.011963,0.005737,-0.992493,0.388794,0.493435,-0.207328,53,271,580,5664
1644170429.626141,-0.012085,0.009827,-0.995178,0.113985,0.340763,-0.069924,43,274,573,5696
1644170429.674958,-0.008484,0.007507,-0.990601,0.251389,0.371298,-0.237863,52,268,582,5696
1644170429.725554,-0.014099,0.009888,-0.992554,0.35826,0.478168,-0.069924,55,271,580,5760
1644170429.775636,-0.011536,0.009827,-0.992126,0.220855,0.462901,-0.008855,53,276,569,5648
1644170429.820768,-0.009766,0.008545,-0.989929,0.266656,0.325496,-0.100458,48,274,571,5648
1644170429.916474,-0.010864,0.010681,-0.990784,0.327725,0.493435,-0.008855,60,264,573,5696
1644170429.964888,-0.01123,0.009827,-0.991333,0.297191,0.432366,-0.222595,48,271,569,5648
1644170430.013257,-0.009644,0.008667,-0.993469,0.205588,0.523969,-0.069924,49,280,568,5664
1644170430.068889,-0.011414,0.009399,-0.993774,0.266656,0.401832,-0.100458,55,276,576,5648
1644170430.110013,-0.010986,0.007507,-0.991394,0.342992,0.310229,-0.192061,49,280,579,5728
1644170430.158415,-0.00946,0.006775,-0.993713,0.175053,0.432366,-0.054656,41,281,578,5696
1644170430.206819,-0.011658,0.010193,-0.99231,0.373527,0.508702,0.052214,49,275,575,5648
1644170430.255304,-0.009155,0.007751,-0.992554,0.327725,0.462901,-0.100458,48,264,573,5648
1644170430.303619,-0.01062,0.010864,-0.990479,0.281924,0.340763,-0.161527,43,276,578,5664
1644170430.351997,-0.012207,0.010193,-0.991272,0.205588,0.447634,-0.14626,52,277,575,5696
1644170430.400392,-0.01123,0.012207,-0.993896,0.175053,0.356031,0.021679,49,277,568,5664
1644170430.448783,-0.009338,0.008911,-0.994263,0.220855,0.356031,-0.176794,51,269,571,5664
1644170430.497191,-0.01123,0.010559,-0.994873,0.297191,0.432366,0.021679,53,269,576,5728
1644170430.545561,-0.012634,0.007446,-0.992737,0.175053,0.508702,0.067481,46,283,573,5696
1644170430.593952,-0.007812,0.007446,-0.993103,0.052916,0.523969,-0.100458,51,274,578,5664
1644170430.642344,-0.009949,0.009277,-0.992249,0.281924,0.325496,-0.039389,52,265,589,5664
1644170430.690734,-0.011841,0.009644,-0.992493,0.175053,0.447634,-0.130992,43,281,576,5600
1644170430.739108,-0.011536,0.009216,-0.990234,0.236122,0.24916,0.021679,57,268,568,5696
1644170430.788587,-0.014038,0.010071,-0.991943,0.205588,0.401832,-0.100458,49,275,565,5648
1644170430.838748,-0.010925,0.010437,-0.991821,0.037649,0.417099,-0.054656,51,283,568,5696
1644170430.889291,-0.009827,0.009277,-0.993225,0.266656,0.188092,-0.14626,53,264,571,5648
1644170430.933615,-0.010925,0.008484,-0.99054,0.327725,0.264427,-0.176794,46,271,569,5664
1644170431.029464,-0.013123,0.009338,-0.99353,0.342992,0.585038,-0.192061,51,271,576,5648
1644170431.07793,-0.01123,0.009705,-0.990051,0.205588,0.356031,-0.039389,61,265,586,5648
1644170431.126209,-0.012817,0.007812,-0.993713,0.404061,0.233893,-0.069924,52,277,570,5696
1644170431.174687,-0.008179,0.009521,-0.995483,0.251389,0.386565,-0.008855,52,275,575,5648
1644170431.222992,-0.009583,0.007874,-0.992126,0.236122,0.493435,-0.039389,45,277,572,5632
1644170431.271377,-0.012024,0.008362,-0.99469,0.068183,0.203359,0.006412,62,276,580,5728
1644170431.319778,-0.012146,0.01062,-0.993347,0.205588,0.447634,-0.130992,53,281,580,5760
1644170431.368163,-0.009033,0.009521,-0.991455,0.373527,0.371298,-0.085191,55,269,562,5648
1644170431.416547,-0.009888,0.009583,-0.993164,0.236122,0.294962,-0.130992,57,277,575,5600
1644170431.46499,-0.007385,0.008179,-0.992676,0.236122,0.325496,-0.161527,53,286,573,5728
1644170431.51333,-0.007019,0.007874,-0.993164,0.342992,0.417099,-0.054656,59,273,575,5632
1644170431.561895,-0.009888,0.004211,-0.991821,0.205588,0.432366,-0.192061,53,274,576,5696
1644170431.610417,-0.013489,0.010681,-0.993896,0.342992,0.294962,-0.039389,52,275,570,5696
1644170431.660792,-0.009766,0.007996,-0.990967,0.190321,0.340763,-0.085191,49,270,572,5648
1644170431.710856,-0.010193,0.01123,-0.993164,0.35826,0.325496,0.052214,47,273,572,5648
1644170431.756035,-0.009155,0.009583,-0.992249,0.205588,0.478168,0.036947,48,266,578,5696
1644170431.852091,-0.006836,0.010559,-0.99115,0.113985,0.401832,-0.14626,53,279,569,5696
1644170431.900483,-0.009338,0.008789,-0.993652,0.327725,0.356031,0.006412,42,270,572,5696
1644170431.94888,-0.011414,0.007751,-0.99292,0.297191,0.417099,-0.130992,57,275,575,5648
1644170431.997267,-0.01062,0.009277,-0.991211,0.113985,0.371298,-0.161527,59,282,572,5664
1644170432.063196,-0.010437,0.009338,-0.990295,0.236122,0.615573,0.021679,49,273,575,5664
1644170432.094821,-0.010742,0.007141,-0.992981,0.312458,0.432366,0.021679,53,279,578,5648
1644170432.142418,-0.013306,0.005798,-0.991821,0.281924,0.401832,-0.115725,58,271,580,5648
1644170432.190805,-0.010376,0.00946,-0.99054,0.159786,0.432366,0.036947,62,279,573,5664
1644170432.239187,-0.013123,0.008728,-0.992126,0.144519,0.371298,0.006412,49,282,575,5648
1644170432.287578,-0.009155,0.011414,-0.992554,0.205588,0.386565,0.082748,52,273,577,5664
1644170432.335974,-0.009644,0.008301,-0.990417,0.190321,0.432366,-0.024122,43,266,573,5664
1644170432.384365,-0.010437,0.010559,-0.992981,0.190321,0.478168,0.113282,45,268,582,5584
1644170432.432762,-0.009155,0.010742,-0.990784,0.113985,0.447634,0.006412,57,273,572,5664
1644170432.481137,-0.009583,0.01001,-0.994202,0.205588,0.447634,-0.298931,45,270,575,5696
1644170432.529854,-0.00946,0.011902,-0.992188,0.129252,0.417099,-0.222595,57,260,570,5648
1644170432.580154,-0.011047,0.011841,-0.992249,0.190321,0.432366,-0.130992,51,269,571,5696
1644170432.630414,-0.010925,0.009888,-0.992126,0.220855,0.447634,-0.054656,52,273,577,5728
1644170432.675727,-0.009888,0.005676,-0.993225,0.266656,0.386565,-0.069924,58,269,569,5696
1644170432.771468,-0.010498,0.008606,-0.993469,0.220855,0.417099,-0.161527,48,283,578,5696
1644170432.819875,-0.011353,0.009766,-0.991455,0.144519,0.325496,0.098015,58,269,576,5648
1644170432.868289,-0.010315,0.011536,-0.98999,0.327725,0.432366,-0.14626,45,277,575,5648
1644170432.916703,-0.008057,0.010071,-0.991943,0.190321,0.432366,-0.024122,48,276,580,5728
1644170432.965121,-0.006592,0.009583,-0.990173,0.281924,0.386565,-0.115725,60,279,571,5696
1644170433.013489,-0.009033,0.007996,-0.994507,0.266656,0.478168,-0.100458,48,271,566,5648
1644170433.064239,-0.012329,0.00946,-0.992554,0.159786,0.310229,-0.069924,47,270,579,5664
1644170433.110275,-0.013062,0.012756,-0.991211,0.175053,0.478168,-0.008855,57,275,575,5728
1644170433.158614,-0.010193,0.007202,-0.99292,0.266656,0.493435,0.113282,53,269,578,5712
1644170433.207002,-0.011597,0.010254,-0.992188,0.190321,0.447634,-0.039389,51,279,573,5696
1644170433.255365,-0.007629,0.010132,-0.991089,0.297191,0.432366,0.052214,52,277,579,5696
1644170433.30378,-0.010559,0.011353,-0.991211,0.236122,0.371298,-0.069924,48,276,578,5712
1644170433.352232,-0.011047,0.011475,-0.992371,0.205588,0.340763,-0.130992,36,264,564,5696
1644170433.400565,-0.008728,0.00824,-0.990295,0.342992,0.462901,-0.039389,57,275,570,5664
1644170433.448946,-0.011597,0.010742,-0.989502,0.205588,0.340763,-0.115725,45,277,575,5696
1644170433.497342,-0.013977,0.009888,-0.992615,0.205588,0.356031,0.052214,46,276,571,5696
1644170433.545721,-0.010498,0.008423,-0.993103,0.205588,0.401832,-0.024122,48,271,576,5696
1644170433.594115,-0.012146,0.009949,-0.99292,0.35826,0.462901,-0.054656,47,273,582,5696
1644170433.642549,-0.012695,0.00885,-0.992493,0.342992,0.569771,-0.115725,48,279,573,5664
1644170433.691437,-0.011414,0.007935,-0.992065,0.297191,0.371298,-0.039389,52,273,570,5696
1644170433.741878,-0.010071,0.011902,-0.994141,0.236122,0.462901,-0.069924,47,270,577,5648
1644170433.791988,-0.00885,0.011108,-0.990479,0.144519,0.356031,-0.130992,48,276,580,5696
1644170433.837798,-0.01062,0.008301,-0.991943,0.052916,0.508702,-0.054656,55,276,576,5648
1644170433.932924,-0.00824,0.010254,-0.989929,0.175053,0.279695,-0.039389,51,279,564,5696
1644170433.98127,-0.008057,0.010498,-0.99176,0.266656,0.356031,-0.100458,59,265,572,5648
1644170434.029673,-0.009888,0.008667,-0.990784,0.46513,0.432366,-0.192061,52,275,565,5664
1644170434.078099,-0.010315,0.008972,-0.992065,0.205588,0.386565,-0.176794,49,268,570,5648
1644170434.126454,-0.00824,0.010559,-0.991699,0.251389,0.478168,-0.085191,52,275,568,5648
1644170434.174827,-0.010925,0.006287,-0.993896,0.251389,0.340763,-0.039389,54,275,575,5696
1644170434.223209,-0.009277,0.010193,-0.991699,0.342992,0.356031,0.067481,47,270,577,5696
1644170434.271603,-0.010254,0.009399,-0.993713,0.190321,0.279695,-0.008855,53,264,569,5664
1644170434.319981,-0.011963,0.010498,-0.990845,0.236122,0.523969,-0.176794,53,271,576,5664
1644170434.368376,-0.01123,0.007874,-0.98877,0.190321,0.508702,-0.069924,48,274,580,5664
1644170434.416764,-0.011475,0.00824,-0.988586,0.327725,0.478168,-0.25313,48,266,573,5664
1644170434.465221,-0.010071,0.011414,-0.98999,0.266656,0.417099,0.021679,53,276,573,5664
1644170434.513515,-0.012207,0.011353,-0.991089,0.220855,0.279695,-0.039389,49,282,579,5696
1644170434.561911,-0.011108,0.009033,-0.990723,0.373527,0.386565,-0.024122,59,282,572,5648
1644170434.61032,-0.010254,0.009033,-0.990234,0.052916,0.417099,-0.176794,59,270,575,5648
1644170434.658713,-0.010803,0.013611,-0.990479,0.236122,0.371298,-0.085191,58,279,580,5696
1644170434.707104,-0.008606,0.008972,-0.989624,0.098718,0.310229,-0.024122,43,271,569,5664
1644170434.755476,-0.01001,0.008667,-0.992188,0.190321,0.417099,0.036947,57,275,568,5664
1644170434.804273,-0.006897,0.006897,-0.990967,0.220855,0.386565,-0.069924,60,262,578,5728
1644170434.855937,-0.009827,0.010254,-0.992249,0.113985,0.447634,0.036947,47,280,586,5664
1644170434.90574,-0.009277,0.011475,-0.993835,0.190321,0.386565,-0.085191,48,264,578,5696
1644170434.950274,-0.007324,0.009277,-0.992065,0.220855,0.401832,-0.039389,41,279,576,5696
1644170435.063815,-0.010315,0.010803,-0.990845,0.205588,0.294962,-0.176794,59,273,575,5760
1644170435.094437,-0.007935,0.007812,-0.991394,0.281924,0.447634,-0.069924,48,271,580,5712
1644170435.142678,-0.010803,0.008118,-0.991821,0.190321,0.432366,-0.054656,52,277,577,5696
1644170435.191013,-0.011047,0.008606,-0.991516,0.037649,0.356031,-0.054656,53,281,576,5696
1644170435.239405,-0.013794,0.010925,-0.994019,0.434595,0.371298,-0.115725,51,283,580,5584
1644170435.287786,-0.010986,0.007141,-0.99115,0.388794,0.417099,-0.100458,60,269,583,5648
1644170435.336189,-0.009949,0.011536,-0.990356,0.098718,0.371298,0.006412,42,280,582,5696
1644170435.384623,-0.010254,0.010925,-0.98999,0.129252,0.356031,-0.085191,64,275,579,5648
1644170435.43298,-0.00946,0.009644,-0.991699,0.129252,0.294962,0.098015,54,265,589,5712
1644170435.481361,-0.009338,0.010986,-0.991333,0.175053,0.371298,-0.130992,54,273,575,5648
1644170435.5305,-0.012207,0.007202,-0.993347,0.190321,0.401832,-0.14626,58,274,564,5712
1644170435.581201,-0.009644,0.012268,-0.993408,0.281924,0.63084,-0.069924,41,271,583,5648
1644170435.631199,-0.011047,0.010193,-0.992554,0.068183,0.386565,-0.130992,48,266,576,5664
1644170435.676266,-0.01178,0.008301,-0.995483,0.220855,0.371298,-0.054656,41,264,571,5648
1644170435.771692,-0.010742,0.007507,-0.992432,0.205588,0.478168,-0.054656,40,273,577,5696
1644170435.820078,-0.008057,0.009705,-0.990784,0.08345,0.432366,-0.069924,51,266,564,5696
1644170435.868493,-0.009644,0.007446,-0.991333,0.190321,0.539237,0.006412,46,269,569,5664
1644170435.916898,-0.007507,0.009094,-0.989258,0.144519,0.401832,-0.237863,55,271,578,5696
1644170435.965285,-0.009277,0.010559,-0.990173,0.175053,0.447634,-0.115725,40,268,579,5664
1644170436.013691,-0.009888,0.01001,-0.992615,0.129252,0.310229,-0.161527,40,277,568,5648
1644170436.064835,-0.013367,0.010437,-0.991699,0.342992,0.340763,-0.100458,55,274,576,5648
1644170436.110457,-0.011963,0.00824,-0.992371,0.236122,0.462901,0.067481,49,277,577,5664
1644170436.158879,-0.012939,0.008667,-0.993835,0.480397,0.447634,-0.008855,52,265,579,5664
1644170436.207204,-0.011353,0.008301,-0.989624,0.35826,0.386565,-0.14626,51,274,573,5696
1644170436.255614,-0.008667,0.010681,-0.992554,0.266656,0.447634,0.036947,46,276,571,5712
1644170436.303998,-0.005188,0.011414,-0.992126,0.205588,0.340763,-0.100458,46,269,573,5664
1644170436.352397,-0.014404,0.010315,-0.988708,0.113985,0.356031,-0.161527,48,279,571,5664
1644170436.400774,-0.008118,0.012085,-0.993103,0.236122,0.386565,-0.054656,47,285,572,5696
1644170436.449165,-0.011475,0.010315,-0.991516,0.266656,0.203359,-0.14626,53,274,576,5648
1644170436.497558,-0.011108,0.008606,-0.990845,0.251389,0.462901,-0.14626,51,276,578,5600
1644170436.545944,-0.011536,0.006775,-0.995056,0.404061,0.478168,-0.100458,52,277,577,5664
1644170436.59434,-0.008606,0.010376,-0.991333,0.327725,0.478168,-0.130992,49,273,572,5664
1644170436.643043,-0.011292,0.009583,-0.992126,0.297191,0.478168,0.082748,55,276,580,5776
1644170436.691815,-0.009155,0.008545,-0.992432,0.205588,0.447634,-0.039389,45,277,582,5664
1644170436.742931,-0.011963,0.011047,-0.993164,0.251389,0.508702,-0.039389,57,280,570,5632
1644170436.792966,-0.01062,0.007874,-0.993347,0.220855,0.371298,0.036947,47,275,584,5664
1644170436.837644,-0.011169,0.009216,-0.991089,0.159786,0.24916,-0.176794,53,274,583,5696
1644170436.933119,-0.010071,0.009949,-0.990601,0.159786,0.233893,-0.008855,45,277,586,5664
1644170436.981464,-0.00708,0.009888,-0.992065,0.205588,0.340763,0.036947,45,273,577,5696
1644170437.029891,-0.011353,0.008484,-0.991516,0.190321,0.432366,-0.25313,48,271,564,5664
1644170437.078371,-0.011902,0.008057,-0.993835,0.220855,0.340763,-0.115725,46,274,576,5648
1644170437.126633,-0.01123,0.00592,-0.992859,0.113985,0.554504,0.006412,51,274,573,5696
1644170437.175052,-0.008667,0.009399,-0.99231,0.08345,0.447634,-0.192061,52,270,577,5648
1644170437.223423,-0.009277,0.007996,-0.992615,0.281924,0.432366,-0.054656,48,279,566,5584
1644170437.271783,-0.011719,0.010681,-0.99115,0.129252,0.340763,-0.054656,49,270,572,5648
1644170437.320198,-0.010681,0.010193,-0.992798,0.068183,0.188092,-0.14626,53,269,569,5696
1644170437.368585,-0.008911,0.009155,-0.988159,0.312458,0.310229,-0.14626,55,274,576,5648
1644170437.41697,-0.009888,0.00946,-0.989136,0.297191,0.447634,-0.085191,57,270,568,5632
1644170437.465351,-0.008545,0.010376,-0.992615,0.190321,0.447634,-0.100458,54,282,575,5648
1644170437.513748,-0.013184,0.011047,-0.990906,0.297191,0.585038,-0.14626,47,273,579,5648
1644170437.562225,-0.011292,0.008728,-0.990173,0.281924,0.462901,-0.100458,52,282,582,5664
1644170437.610537,-0.011963,0.008362,-0.994629,0.08345,0.523969,0.052214,51,257,573,5696
1644170437.658928,-0.013245,0.011169,-0.993469,0.373527,0.340763,-0.115725,51,271,566,5696
1644170437.707325,-0.013,0.009644,-0.99231,0.175053,0.356031,0.067481,53,271,573,5648
1644170437.755699,-0.010864,0.007507,-0.991638,0.113985,0.417099,-0.176794,43,276,573,5664
1644170437.804161,-0.01123,0.009094,-0.993469,0.251389,0.371298,-0.115725,53,259,573,5648
1644170437.854048,-0.008667,0.010559,-0.993042,0.404061,0.264427,-0.115725,48,283,573,5664
1644170437.904128,-0.010742,0.011292,-0.992004,0.266656,0.600305,-0.039389,51,281,578,5696
1644170437.954805,-0.009644,0.008667,-0.990662,0.281924,0.386565,-0.176794,55,279,571,5664
1644170438.064436,-0.010193,0.007568,-0.991516,0.220855,0.478168,-0.130992,52,273,579,5648
1644170438.096653,-0.012329,0.008301,-0.990967,0.266656,0.356031,-0.024122,51,279,569,5664
1644170438.142819,-0.009827,0.009827,-0.991821,0.281924,0.432366,0.021679,57,265,575,5648
1644170438.191226,-0.009827,0.009216,-0.995239,0.220855,0.417099,-0.069924,54,280,572,5664
1644170438.239618,-0.011108,0.00769,-0.993958,0.251389,0.24916,-0.130992,45,275,582,5648
1644170438.28798,-0.00885,0.010559,-0.991089,0.205588,0.508702,-0.085191,51,271,576,5696
1644170438.336394,-0.010986,0.011047,-0.994019,0.297191,0.356031,-0.069924,57,273,582,5648
1644170438.384792,-0.011963,0.009216,-0.992065,0.098718,0.386565,-0.039389,48,274,576,5728
1644170438.433183,-0.010376,0.008728,-0.991394,0.175053,0.462901,-0.192061,53,274,569,5600
1644170438.481878,-0.008911,0.008484,-0.993103,0.190321,0.447634,-0.161527,51,276,576,5696
1644170438.530837,-0.012024,0.010193,-0.993103,0.220855,0.478168,-0.192061,53,266,578,5648
1644170438.58133,-0.010986,0.009644,-0.992859,0.175053,0.401832,-0.054656,41,274,580,5696
1644170438.631355,-0.012634,0.010498,-0.990051,0.175053,0.447634,-0.176794,46,271,580,5664
1644170438.676403,-0.008911,0.008789,-0.992065,0.373527,0.539237,-0.222595,54,285,577,5664
1644170438.771916,-0.013428,0.009094,-0.991089,0.404061,0.279695,0.098015,55,269,583,5648
1644170438.820346,-0.010925,0.009155,-0.992981,0.373527,0.447634,-0.161527,46,276,571,5696
1644170438.868727,-0.009705,0.008179,-0.991272,0.159786,0.493435,-0.024122,52,273,584,5664
1644170438.917116,-0.010376,0.009583,-0.994202,0.297191,0.340763,-0.069924,47,280,584,5648
1644170438.965518,-0.011658,0.008118,-0.989502,0.312458,0.432366,-0.008855,45,268,572,5664
1644170439.013917,-0.009705,0.007935,-0.99176,0.175053,0.508702,-0.069924,51,264,573,5664
1644170439.065506,-0.01001,0.009216,-0.992859,0.297191,0.432366,0.006412,48,279,576,5648
1644170439.110687,-0.008484,0.009399,-0.992493,0.312458,0.432366,-0.161527,43,274,580,5648
1644170439.159043,-0.010803,0.007202,-0.991821,0.419328,0.356031,-0.130992,48,269,573,5584
1644170439.207428,-0.011047,0.009277,-0.993469,0.312458,0.447634,-0.100458,40,273,570,5664
1644170439.255833,-0.012146,0.009827,-0.992859,0.220855,0.417099,-0.054656,40,280,579,5712
1644170439.304217,-0.010376,0.008667,-0.991333,0.297191,0.386565,-0.14626,55,271,576,5632
1644170439.352615,-0.011353,0.008118,-0.991699,0.190321,0.478168,-0.130992,57,282,577,5664
1644170439.400968,-0.00824,0.009033,-0.993469,0.098718,0.401832,-0.130992,46,276,571,5696
1644170439.449381,-0.013367,0.010132,-0.993591,0.327725,0.294962,-0.192061,58,274,585,5664
1644170439.497771,-0.007141,0.010376,-0.991394,0.205588,0.493435,-0.008855,49,277,582,5696
1644170439.546164,-0.011353,0.00824,-0.992432,0.175053,0.432366,-0.039389,45,282,582,5648
1644170439.594603,-0.010742,0.007141,-0.993286,0.312458,0.508702,-0.130992,52,275,579,5648
1644170439.64296,-0.011353,0.008057,-0.993408,0.098718,0.294962,-0.222595,55,269,578,5664
1644170439.691473,-0.008057,0.007446,-0.990845,0.098718,0.325496,-0.039389,53,279,583,5664
1644170439.74193,-0.011597,0.008057,-0.992004,0.205588,0.417099,-0.100458,51,281,576,5664
1644170439.793211,-0.011475,0.010681,-0.994141,0.281924,0.508702,-0.130992,41,271,592,5664
1644170439.837772,-0.012634,0.00647,-0.994141,0.205588,0.401832,-0.069924,40,280,575,5696
1644170439.933336,-0.012451,0.009583,-0.990723,0.35826,0.279695,-0.161527,53,274,569,5696
1644170439.981717,-0.008606,0.010864,-0.990234,0.281924,0.371298,-0.130992,57,282,570,5648
1644170440.030109,-0.008545,0.010864,-0.989746,0.251389,0.447634,-0.024122,43,276,576,5664
1644170440.078546,-0.009949,0.009521,-0.992065,0.281924,0.386565,-0.085191,51,283,578,5664
1644170440.126835,-0.010681,0.010132,-0.993225,0.35826,0.417099,-0.115725,52,275,572,5664
1644170440.175235,-0.010071,0.008606,-0.990112,0.220855,0.432366,-0.039389,53,269,571,5664
1644170440.223634,-0.011536,0.007141,-0.990723,0.159786,0.478168,-0.085191,51,283,571,5696
1644170440.272007,-0.007935,0.009277,-0.99115,0.281924,0.478168,0.036947,52,265,579,5664
1644170440.320381,-0.011292,0.008179,-0.992615,0.205588,0.356031,0.098015,48,271,576,5776
1644170440.368795,-0.011169,0.007751,-0.992798,0.175053,0.493435,0.098015,51,269,578,5584
1644170440.417189,-0.01178,0.00885,-0.991943,0.266656,0.432366,-0.024122,48,276,580,5664
1644170440.465594,-0.011353,0.008972,-0.992554,0.113985,0.432366,-0.207328,54,275,568,5664
1644170440.513967,-0.009155,0.009033,-0.989075,0.205588,0.462901,-0.085191,54,277,575,5648
1644170440.562383,-0.011536,0.011597,-0.991272,0.266656,0.569771,-0.024122,51,281,578,5696
1644170440.610725,-0.012573,0.010132,-0.992676,0.236122,0.371298,-0.024122,57,280,577,5664
1644170440.659144,-0.011658,0.009033,-0.992676,0.342992,0.493435,0.036947,60,276,576,5632
1644170440.707511,-0.007141,0.009705,-0.991882,0.251389,0.401832,-0.069924,51,269,566,5600
1644170440.755926,-0.010376,0.009094,-0.993835,0.266656,0.401832,-0.130992,61,277,582,5696
1644170440.805713,-0.01062,0.009094,-0.992554,0.190321,0.325496,0.159084,59,275,582,5584
1644170440.85651,-0.010376,0.009705,-0.990234,0.251389,0.371298,-0.14626,64,268,577,5664
1644170440.90677,-0.010193,0.010803,-0.994385,0.251389,0.401832,-0.207328,46,279,578,5600
1644170440.997937,-0.01178,0.010681,-0.993042,0.08345,0.356031,-0.069924,47,268,584,5664
1644170441.057207,-0.01062,0.00824,-0.988586,0.373527,0.356031,-0.130992,43,264,573,5728
1644170441.098049,-0.011169,0.006958,-0.989441,0.205588,0.493435,-0.008855,46,271,576,5632
1644170441.143075,-0.009399,0.008789,-0.990967,0.281924,0.447634,-0.130992,57,277,565,5728
1644170441.191447,-0.010437,0.007629,-0.992737,0.129252,0.493435,-0.039389,46,274,569,5648
1644170441.239812,-0.009033,0.010681,-0.988892,0.312458,0.386565,0.036947,54,277,577,5648
1644170441.288215,-0.010986,0.011963,-0.992371,0.022382,0.386565,0.006412,55,269,576,5696
1644170441.33659,-0.01123,0.011292,-0.992065,0.373527,0.417099,-0.161527,53,269,583,5696
1644170441.38513,-0.008545,0.008728,-0.992554,0.190321,0.371298,-0.008855,53,269,576,5584
1644170441.433408,-0.010742,0.010071,-0.989319,0.388794,0.356031,-0.069924,49,273,584,5712
1644170441.48178,-0.010803,0.007263,-0.990784,0.510931,0.523969,-0.161527,42,273,572,5648
1644170441.530174,-0.010986,0.008118,-0.99176,0.159786,0.523969,-0.207328,53,276,585,5648
1644170441.578544,-0.010925,0.009094,-0.990051,0.113985,0.294962,-0.161527,57,265,577,5648
1644170441.626958,-0.010132,0.009155,-0.993896,0.312458,0.447634,-0.069924,42,268,584,5728
1644170441.675695,-0.012451,0.008545,-0.991882,0.159786,0.294962,-0.054656,38,277,575,5648
1644170441.724936,-0.01123,0.008972,-0.991272,0.144519,0.432366,-0.100458,51,279,580,5696
1644170441.775144,-0.010925,0.008545,-0.991455,0.205588,0.325496,-0.115725,52,273,591,5712
1644170441.825984,-0.009888,0.008423,-0.992798,0.434595,0.432366,0.067481,41,269,583,5664
1644170441.917359,-0.010254,0.008484,-0.988647,0.068183,0.447634,-0.085191,45,277,575,5696
1644170441.965707,-0.01123,0.008484,-0.994263,0.297191,0.356031,-0.085191,42,265,565,5648
1644170442.014114,-0.010071,0.009705,-0.994629,0.281924,0.401832,0.036947,42,268,575,5648
1644170442.068968,-0.010559,0.008301,-0.989563,0.205588,0.371298,-0.192061,49,268,584,5696
1644170442.110858,-0.009705,0.008057,-0.992249,0.236122,0.493435,-0.085191,49,282,572,5712
1644170442.159256,-0.010925,0.009155,-0.991882,0.144519,0.340763,-0.024122,53,276,571,5664
1644170442.207634,-0.01178,0.008118,-0.993713,0.266656,0.447634,0.021679,48,271,573,5712
1644170442.256013,-0.011047,0.007812,-0.990845,0.327725,0.218626,-0.069924,48,279,576,5664
1644170442.304419,-0.012207,0.006714,-0.99176,0.35826,0.401832,-0.25313,46,274,573,5696
1644170442.352825,-0.012573,0.008789,-0.992188,0.35826,0.600305,-0.054656,47,268,582,5664
1644170442.401205,-0.013916,0.00769,-0.992981,0.144519,0.401832,-0.039389,52,270,572,5648
1644170442.449595,-0.012146,0.008606,-0.991821,0.312458,0.493435,0.052214,47,265,577,5664
1644170442.497988,-0.010376,0.008362,-0.993164,0.327725,0.63084,-0.008855,53,274,578,5648
1644170442.546372,-0.010193,0.010071,-0.98938,0.342992,0.447634,0.082748,47,280,584,5728
1644170442.594775,-0.008179,0.009644,-0.990051,0.068183,0.432366,-0.024122,51,274,573,5696
1644170442.643181,-0.010559,0.010803,-0.991211,0.220855,0.417099,0.067481,49,282,575,5664
1644170442.69155,-0.013489,0.007996,-0.99176,0.35826,0.371298,-0.054656,42,277,570,5712
1644170442.739932,-0.008728,0.009338,-0.991943,0.312458,0.356031,-0.039389,46,266,571,5696
1644170442.788335,-0.012146,0.008728,-0.993896,0.068183,0.401832,0.067481,45,277,570,5648
1644170442.838412,-0.010193,0.010498,-0.990723,0.175053,0.325496,-0.039389,58,274,569,5648
1644170442.888587,-0.010498,0.010498,-0.991516,0.236122,0.447634,-0.008855,53,279,580,5648
1644170442.938883,-0.010559,0.009033,-0.991638,0.266656,0.539237,-0.039389,45,273,572,5696
1644170442.983353,-0.012878,0.011353,-0.990906,0.266656,0.340763,-0.024122,53,269,573,5664
1644170443.078825,-0.01178,0.009521,-0.992737,0.281924,0.356031,-0.14626,53,271,569,5600
1644170443.127105,-0.012695,0.00592,-0.992981,0.266656,0.356031,-0.115725,51,279,562,5776
1644170443.175441,-0.010437,0.010742,-0.990234,0.175053,0.493435,-0.100458,57,282,575,5696
1644170443.22384,-0.007446,0.009766,-0.992249,0.220855,0.417099,-0.161527,45,275,579,5664
1644170443.272385,-0.011963,0.008728,-0.993896,0.251389,0.447634,-0.069924,48,269,573,5664
1644170443.320599,-0.009827,0.010315,-0.993652,0.388794,0.310229,-0.192061,38,280,582,5664
1644170443.36902,-0.009888,0.007568,-0.991943,0.266656,0.447634,-0.100458,57,277,565,5696
1644170443.417407,-0.01178,0.00946,-0.992432,0.266656,0.264427,-0.14626,58,274,569,5600
1644170443.465778,-0.009521,0.008911,-0.993469,0.113985,0.508702,-0.039389,52,268,577,5728
1644170443.514194,-0.012817,0.008362,-0.991516,0.404061,0.356031,0.036947,49,265,572,5648
1644170443.562568,-0.010864,0.009521,-0.990967,0.281924,0.401832,-0.192061,54,263,579,5664
1644170443.61097,-0.010681,0.008484,-0.992065,0.342992,0.356031,-0.14626,51,276,580,5664
1644170443.659365,-0.010071,0.008362,-0.992432,0.220855,0.447634,-0.008855,54,273,577,5696
1644170443.707746,-0.008728,0.007019,-0.994629,0.297191,0.417099,0.052214,52,275,575,5648
1644170443.756113,-0.008423,0.010681,-0.990906,0.144519,0.340763,-0.085191,53,274,583,5696
1644170443.804529,-0.010376,0.012695,-0.990601,0.297191,0.340763,-0.039389,45,277,565,5648
1644170443.852985,-0.009888,0.011536,-0.992065,0.159786,0.371298,-0.024122,52,263,570,5664
1644170443.901356,-0.011536,0.009766,-0.994385,0.175053,0.371298,-0.054656,53,271,576,5664
1644170443.949761,-0.009827,0.00769,-0.991943,0.388794,0.371298,-0.054656,47,270,579,5696
1644170443.999848,-0.011169,0.007874,-0.992004,0.159786,0.340763,-0.130992,43,262,580,5648
1644170444.068575,-0.00946,0.009766,-0.992676,0.175053,0.432366,-0.130992,49,277,568,5696
1644170444.097806,-0.011536,0.00885,-0.991211,0.327725,0.325496,-0.192061,51,276,576,5664
1644170444.191634,-0.011536,0.010803,-0.989624,0.281924,0.554504,-0.161527,52,268,568,5664
1644170444.240034,-0.012207,0.01001,-0.993103,0.175053,0.432366,-0.085191,58,266,576,5664
1644170444.288419,-0.010193,0.010132,-0.991089,0.236122,0.478168,-0.069924,57,285,577,5664
1644170444.33682,-0.007324,0.00885,-0.992004,0.373527,0.386565,-0.222595,58,266,566,5712
1644170444.38521,-0.009766,0.00592,-0.992065,0.342992,0.401832,-0.207328,53,271,576,5664
1644170444.433613,-0.008179,0.010376,-0.993469,0.236122,0.462901,-0.130992,46,276,573,5600
1644170444.482,-0.01123,0.012024,-0.991394,0.251389,0.356031,-0.161527,46,274,583,5696
1644170444.53039,-0.012451,0.00946,-0.989807,0.175053,0.432366,0.052214,51,274,564,5760
1644170444.578781,-0.010742,0.008545,-0.990784,0.312458,0.493435,0.082748,54,275,577,5664
1644170444.627175,-0.009033,0.009094,-0.991516,0.236122,0.508702,-0.207328,59,270,561,5664
1644170444.675567,-0.013916,0.009277,-0.991455,0.190321,0.386565,-0.14626,55,274,571,5632
1644170444.723942,-0.013,0.009521,-0.99231,0.175053,0.401832,-0.14626,47,273,572,5696
1644170444.772347,-0.010071,0.007751,-0.993469,0.251389,0.462901,-0.054656,55,281,576,5696
1644170444.820702,-0.009888,0.008667,-0.99176,0.08345,0.371298,-0.161527,47,270,577,5600
1644170444.869169,-0.009644,0.009216,-0.990967,0.175053,0.294962,-0.115725,61,273,582,5632
1644170444.917525,-0.011414,0.009033,-0.992126,0.205588,0.371298,-0.207328,55,279,578,5696
1644170444.965942,-0.009399,0.007324,-0.993286,0.35826,0.294962,-0.008855,55,279,576,5648
1644170445.014701,-0.008972,0.009155,-0.990601,0.297191,0.401832,0.067481,41,274,590,5648
1644170445.111121,-0.008545,0.007385,-0.991638,0.266656,0.447634,-0.176794,43,269,585,5648
1644170445.159485,-0.010132,0.007446,-0.99176,0.312458,0.279695,-0.192061,46,271,573,5712
1644170445.207863,-0.009399,0.011169,-0.994324,0.113985,0.417099,-0.130992,47,268,575,5648
1644170445.256214,-0.007751,0.010071,-0.990356,0.175053,0.356031,-0.054656,45,277,572,5760
1644170445.304658,-0.009888,0.009705,-0.989563,0.46513,0.310229,-0.008855,51,281,576,5696
1644170445.353051,-0.010559,0.009033,-0.991455,0.312458,0.218626,-0.069924,51,269,576,5696
1644170445.401434,-0.009338,0.010681,-0.989502,0.312458,0.294962,-0.008855,47,282,579,5712
1644170445.449812,-0.00946,0.007812,-0.992554,0.236122,0.447634,-0.054656,55,276,571,5728
1644170445.498185,-0.012451,0.008301,-0.991821,0.35826,0.401832,-0.176794,46,279,580,5648
1644170445.546598,-0.01062,0.007324,-0.994812,0.236122,0.462901,-0.130992,45,275,568,5664
1644170445.595118,-0.007263,0.009583,-0.992249,0.190321,0.279695,-0.237863,51,271,573,5728
1644170445.643381,-0.010742,0.009094,-0.989807,0.144519,0.356031,-0.069924,54,270,579,5696
1644170445.691769,-0.009705,0.009705,-0.989197,0.251389,0.325496,-0.222595,53,269,580,5664
1644170445.74015,-0.00824,0.011108,-0.991638,0.404061,0.401832,-0.054656,42,268,575,5664
1644170445.788546,-0.008667,0.010437,-0.991821,0.236122,0.523969,-0.069924,61,270,570,5696
1644170445.836946,-0.01123,0.011047,-0.99292,0.175053,0.585038,-0.115725,53,271,569,5600
1644170445.885373,-0.011902,0.008545,-0.989441,0.342992,0.554504,0.036947,45,270,582,5648
1644170445.933873,-0.009827,0.008484,-0.993713,0.129252,0.386565,-0.115725,48,279,573,5696
1644170445.982185,-0.008484,0.008423,-0.992432,0.08345,0.386565,-0.008855,39,269,573,5584
1644170446.0319,-0.010803,0.010803,-0.990479,0.281924,0.417099,-0.130992,55,281,578,5600
1644170446.094849,-0.013245,0.00885,-0.993652,0.205588,0.523969,-0.207328,55,259,576,5664
1644170446.132485,-0.008545,0.009888,-0.993591,0.190321,0.294962,-0.176794,60,279,580,5696
1644170446.177062,-0.012512,0.010925,-0.990295,0.35826,0.294962,-0.008855,42,275,568,5728
1644170446.272512,-0.008301,0.010315,-0.996155,0.175053,0.401832,0.052214,49,277,572,5664
1644170446.32086,-0.013855,0.009155,-0.99231,0.236122,0.462901,-0.115725,49,270,568,5648
1644170446.36927,-0.01062,0.011108,-0.990479,0.068183,0.432366,-0.054656,48,274,569,5648
1644170446.417661,-0.011597,0.009094,-0.991333,0.297191,0.508702,-0.115725,55,271,569,5696
1644170446.466049,-0.008789,0.010437,-0.993774,0.190321,0.279695,-0.130992,47,280,570,5648
1644170446.514456,-0.010071,0.010437,-0.992188,0.113985,0.340763,-0.130992,52,263,572,5696
1644170446.562854,-0.012268,0.012085,-0.994385,0.236122,0.432366,-0.054656,51,276,573,5664
1644170446.611235,-0.011719,0.008301,-0.991699,0.220855,0.401832,-0.192061,58,266,569,5648
1644170446.659611,-0.007874,0.009827,-0.993652,0.35826,0.417099,-0.130992,49,273,570,5728
1644170446.708003,-0.011353,0.007507,-0.993958,0.251389,0.356031,-0.069924,60,276,573,5664
1644170446.756403,-0.01239,0.006836,-0.992554,0.327725,0.371298,-0.054656,51,269,583,5712
1644170446.804809,-0.00946,0.00769,-0.992188,0.159786,0.447634,-0.130992,57,273,577,5664
1644170446.853189,-0.009827,0.010315,-0.988892,0.144519,0.371298,-0.085191,48,276,571,5664
1644170446.901573,-0.009583,0.009766,-0.991516,0.251389,0.417099,-0.024122,51,276,564,5696
1644170446.949958,-0.009521,0.011963,-0.99353,0.113985,0.203359,-0.054656,58,271,573,5696
1644170446.998356,-0.011414,0.010498,-0.991943,0.251389,0.478168,-0.085191,53,283,578,5664
1644170447.059225,-0.008911,0.009033,-0.991272,0.190321,0.523969,-0.085191,41,271,580,5664
1644170447.098868,-0.010254,0.01001,-0.992065,0.129252,0.325496,-0.130992,57,275,565,5584
1644170447.143789,-0.013977,0.011353,-0.991943,0.220855,0.325496,-0.14626,54,268,575,5696
1644170447.192364,-0.007935,0.009949,-0.992371,0.175053,0.462901,-0.130992,43,266,580,5648
1644170447.242923,-0.010071,0.00946,-0.991333,0.312458,0.523969,-0.085191,52,270,584,5632
1644170447.293185,-0.012939,0.007568,-0.991333,0.190321,0.447634,-0.130992,47,273,563,5696
1644170447.338375,-0.012329,0.009094,-0.992798,0.266656,0.478168,-0.069924,43,276,569,5728
1644170447.43384,-0.010132,0.008545,-0.990417,0.251389,0.462901,-0.176794,49,277,570,5648
1644170447.482393,-0.012207,0.009155,-0.992737,0.220855,0.478168,-0.054656,52,275,572,5632
1644170447.530608,-0.010864,0.010193,-0.992493,0.312458,0.417099,-0.100458,47,277,568,5696
1644170447.578994,-0.010925,0.009705,-0.991394,0.266656,0.356031,0.006412,52,275,568,5696
1644170447.627378,-0.009399,0.010864,-0.994507,0.388794,0.310229,-0.008855,49,285,568,5696
1644170447.675759,-0.011658,0.007812,-0.989624,0.236122,0.462901,-0.039389,46,269,569,5696
1644170447.724179,-0.008789,0.010315,-0.991882,0.098718,0.478168,-0.069924,54,277,572,5728
1644170447.772584,-0.008972,0.01123,-0.993591,0.144519,0.432366,-0.100458,48,266,564,5648
1644170447.821005,-0.01178,0.011169,-0.99353,0.342992,0.24916,-0.161527,53,283,576,5664
1644170447.869438,-0.008484,0.009583,-0.992493,0.144519,0.386565,-0.100458,52,277,568,5696
1644170447.917783,-0.010376,0.01001,-0.98999,0.297191,0.447634,0.036947,57,265,577,5632
1644170447.96613,-0.007446,0.008301,-0.988831,0.220855,0.340763,-0.237863,46,271,580,5664
1644170448.014609,-0.00946,0.01062,-0.993408,0.129252,0.386565,0.052214,60,264,578,5696
1644170448.071445,-0.012146,0.007385,-0.992432,0.129252,0.401832,-0.024122,58,266,573,5648
1644170448.111304,-0.010315,0.010254,-0.993164,0.129252,0.294962,-0.130992,43,271,578,5664
1644170448.159681,-0.013489,0.007263,-0.992554,0.251389,0.325496,-0.115725,55,279,576,5648
1644170448.208074,-0.009705,0.008118,-0.991394,0.220855,0.401832,-0.054656,52,273,572,5648
1644170448.256445,-0.008728,0.008911,-0.992126,0.236122,0.279695,0.036947,54,270,575,5696
1644170448.304867,-0.010986,0.011414,-0.992126,0.266656,0.356031,-0.054656,51,271,578,5648
1644170448.353609,-0.00946,0.007141,-0.994324,0.113985,0.294962,-0.222595,47,280,570,5648
1644170448.403819,-0.008423,0.010376,-0.991821,0.251389,0.493435,-0.115725,58,269,569,5648
1644170448.454015,-0.011108,0.008728,-0.990784,0.205588,0.462901,-0.161527,43,264,580,5648
1644170448.499089,-0.009338,0.009521,-0.988708,0.205588,0.493435,-0.008855,45,265,575,5632
1644170448.59543,-0.011169,0.008057,-0.993164,0.236122,0.401832,-0.054656,46,276,566,5648
1644170448.643602,-0.013733,0.01178,-0.990051,0.144519,0.569771,-0.115725,57,282,568,5648
1644170448.691975,-0.009338,0.008728,-0.992371,0.312458,0.401832,-0.100458,48,271,564,5728
1644170448.740371,-0.012329,0.007935,-0.992432,0.342992,0.325496,-0.100458,47,273,568,5712
1644170448.788752,-0.009644,0.008728,-0.99292,0.190321,0.325496,0.036947,58,274,576,5648
1644170448.837189,-0.011719,0.009216,-0.99115,0.388794,0.523969,-0.039389,51,274,569,5648
1644170448.885585,-0.010498,0.009766,-0.992859,0.281924,0.432366,-0.085191,52,280,570,5664
1644170448.933993,-0.010193,0.011292,-0.989929,0.297191,0.523969,-0.115725,49,282,563,5728
1644170448.982381,-0.00885,0.008972,-0.991028,0.113985,0.371298,-0.130992,48,276,566,5696
1644170449.030732,-0.009888,0.008972,-0.992371,0.327725,0.356031,-0.024122,52,277,582,5648
1644170449.08959,-0.012146,0.009399,-0.989624,0.220855,0.417099,-0.008855,39,276,576,5696
1644170449.127494,-0.009705,0.009888,-0.992065,0.144519,0.447634,-0.268397,55,266,573,5696
1644170449.175884,-0.01062,0.009399,-0.992065,0.129252,0.386565,-0.130992,42,273,584,5728
1644170449.224262,-0.008789,0.008972,-0.992493,0.35826,0.386565,-0.069924,48,271,576,5664
1644170449.272646,-0.009766,0.010803,-0.993713,0.159786,0.218626,-0.024122,57,273,575,5712
1644170449.321058,-0.010986,0.012451,-0.989502,0.144519,0.462901,-0.054656,57,273,570,5648
1644170449.369688,-0.010986,0.009277,-0.992249,0.205588,0.371298,-0.054656,51,276,564,5712
1644170449.420415,-0.008606,0.009583,-0.990173,0.35826,0.417099,-0.085191,45,270,577,5728
1644170449.470429,-0.012878,0.008118,-0.992371,0.205588,0.371298,-0.008855,55,271,576,5648
1644170449.515653,-0.008728,0.009949,-0.991821,0.190321,0.585038,-0.069924,46,276,576,5632
1644170449.611383,-0.008301,0.011902,-0.990112,0.205588,0.371298,-0.161527,51,281,576,5712
1644170449.659791,-0.011902,0.009338,-0.992432,0.220855,0.539237,-0.130992,43,279,573,5600
1644170449.708177,-0.010315,0.00708,-0.99176,0.236122,0.478168,0.006412,59,270,565,5648
1644170449.756561,-0.009888,0.011841,-0.993774,0.144519,0.233893,-0.054656,42,273,572,5648
1644170449.805003,-0.010681,0.005615,-0.990967,0.35826,0.417099,0.067481,46,276,571,5664
1644170449.853384,-0.011292,0.010193,-0.990173,0.312458,0.356031,-0.008855,41,269,576,5648
1644170449.901781,-0.01001,0.010315,-0.992249,0.068183,0.386565,-0.237863,43,274,564,5696
1644170449.950183,-0.011597,0.00824,-0.989746,0.342992,0.447634,-0.069924,54,273,565,5712
1644170449.998541,-0.012878,0.01123,-0.992676,0.251389,0.340763,-0.085191,51,266,564,5776
1644170450.065381,-0.008423,0.009888,-0.993408,0.373527,0.294962,-0.024122,59,268,584,5664
1644170450.095398,-0.011597,0.007202,-0.99408,0.08345,0.417099,0.006412,48,274,578,5712
1644170450.143699,-0.010437,0.010132,-0.993042,0.373527,0.417099,0.006412,51,271,578,5712
1644170450.192088,-0.010559,0.01062,-0.993469,0.175053,0.371298,-0.14626,48,279,573,5664
1644170450.240479,-0.011475,0.010925,-0.990723,0.281924,0.447634,-0.100458,48,274,576,5664
1644170450.288865,-0.011108,0.01001,-0.989197,0.129252,0.493435,-0.024122,60,259,571,5648
1644170450.337257,-0.012024,0.011353,-0.994263,0.175053,0.493435,-0.115725,49,268,572,5664
1644170450.385646,-0.011108,0.009094,-0.989563,0.175053,0.432366,-0.176794,60,276,573,5664
1644170450.434043,-0.009705,0.006775,-0.990967,0.052916,0.325496,-0.069924,51,271,576,5696
1644170450.482752,-0.009277,0.009583,-0.992798,0.175053,0.24916,-0.069924,51,271,573,5696
1644170450.531709,-0.01178,0.008484,-0.988831,0.129252,0.493435,-0.100458,49,268,579,5664
1644170450.582289,-0.010681,0.006287,-0.992676,0.327725,0.340763,0.036947,45,273,575,5712
1644170450.63229,-0.014893,0.007568,-0.992554,0.144519,0.401832,-0.039389,53,266,576,5664
1644170450.67739,-0.011597,0.008484,-0.990967,0.098718,0.432366,0.036947,42,273,570,5648
1644170450.772786,-0.008301,0.006226,-0.990967,0.327725,0.340763,-0.069924,53,269,580,5664
1644170450.821167,-0.009949,0.01062,-0.991272,0.342992,0.508702,0.067481,47,273,579,5696
1644170450.869577,-0.007385,0.010071,-0.989563,0.251389,0.24916,-0.024122,39,269,576,5600
1644170450.917981,-0.009155,0.010193,-0.9953,0.205588,0.462901,-0.054656,47,273,572,5648
1644170450.966373,-0.012695,0.008667,-0.992615,0.297191,0.417099,-0.054656,53,266,573,5696
1644170451.014779,-0.011414,0.008606,-0.993042,0.220855,0.386565,-0.054656,55,271,580,5600
1644170451.067616,-0.00885,0.009644,-0.990906,0.144519,0.478168,0.036947,58,276,585,5664
1644170451.11157,-0.011536,0.011658,-0.992981,0.404061,0.493435,-0.161527,48,271,573,5648
1644170451.15991,-0.009521,0.010864,-0.991516,0.236122,0.356031,-0.085191,48,269,573,5664
1644170451.208297,-0.011841,0.006042,-0.992126,0.159786,0.417099,-0.054656,57,273,568,5664
1644170451.256685,-0.01178,0.011169,-0.990906,0.266656,0.386565,-0.054656,58,271,573,5712
1644170451.305197,-0.010986,0.010742,-0.994202,0.175053,0.340763,-0.207328,47,273,579,5664
1644170451.353467,-0.009827,0.01062,-0.993347,0.175053,0.523969,-0.054656,47,263,570,5648
1644170451.401854,-0.009338,0.010193,-0.990051,0.35826,0.432366,-0.085191,40,273,579,5696
1644170451.450249,-0.010315,0.012817,-0.991516,0.281924,0.508702,0.052214,59,280,570,5648
1644170451.498635,-0.010864,0.01001,-0.990906,0.281924,0.325496,-0.100458,48,274,578,5664
1644170451.54699,-0.008362,0.010376,-0.992554,0.327725,0.340763,-0.14626,52,270,579,5664
1644170451.595408,-0.011536,0.012207,-0.990662,0.251389,0.493435,0.006412,45,270,565,5696
1644170451.643805,-0.010925,0.011597,-0.993347,0.419328,0.478168,-0.14626,53,274,585,5648
1644170451.692609,-0.009155,0.01001,-0.991089,0.113985,0.462901,-0.115725,59,277,577,5600
1644170451.742745,-0.013245,0.008545,-0.99292,0.266656,0.371298,-0.115725,48,276,564,5648
1644170451.793253,-0.009583,0.010254,-0.992859,0.35826,0.508702,0.036947,51,276,580,5696
1644170451.83842,-0.009705,0.007874,-0.992432,0.205588,0.432366,-0.14626,55,269,573,5696
1644170451.934191,-0.009338,0.009216,-0.99176,0.297191,0.478168,-0.14626,51,283,571,5728
1644170451.982591,-0.009766,0.009338,-0.99231,0.205588,0.233893,-0.237863,45,275,579,5648
1644170452.030954,-0.012573,0.012146,-0.99292,0.266656,0.539237,-0.115725,46,276,576,5712
1644170452.079488,-0.011536,0.010193,-0.992798,0.251389,0.279695,0.006412,49,277,584,5664
1644170452.127749,-0.00885,0.006165,-0.992493,0.159786,0.417099,-0.161527,46,274,576,5648
1644170452.176092,-0.01062,0.009155,-0.993713,0.297191,0.554504,-0.085191,42,273,575,5712
1644170452.224503,-0.009766,0.01001,-0.992798,0.175053,0.569771,-0.237863,53,279,578,5664
1644170452.272865,-0.009583,0.009094,-0.992249,0.251389,0.585038,-0.14626,43,281,569,5648
1644170452.321271,-0.009033,0.007507,-0.989319,0.236122,0.462901,-0.085191,46,279,576,5648
1644170452.369649,-0.008606,0.009399,-0.989502,0.419328,0.554504,0.036947,45,265,563,5664
1644170452.418051,-0.007446,0.011841,-0.989929,0.251389,0.493435,-0.100458,55,281,573,5648
1644170452.466448,-0.013245,0.011963,-0.990906,0.388794,0.432366,-0.130992,45,275,572,5648
1644170452.514826,-0.009338,0.008606,-0.990417,0.35826,0.432366,-0.069924,53,269,580,5696
1644170452.563228,-0.011475,0.011841,-0.992065,0.175053,0.478168,-0.161527,43,271,566,5632
1644170452.611603,-0.008057,0.011536,-0.992432,0.312458,0.325496,0.006412,54,270,572,5664
1644170452.659991,-0.009155,0.012085,-0.990906,0.342992,0.417099,-0.25313,51,279,583,5664
1644170452.708397,-0.010193,0.009094,-0.992859,0.297191,0.325496,-0.039389,53,283,576,5664
1644170452.756758,-0.011353,0.012024,-0.989502,0.297191,0.401832,-0.115725,53,271,571,5664
1644170452.80534,-0.009766,0.009766,-0.990967,0.312458,0.478168,-0.085191,49,273,575,5648
1644170452.853974,-0.010681,0.010559,-0.990356,0.236122,0.523969,-0.176794,47,275,579,5696
1644170452.905368,-0.009338,0.010071,-0.99054,0.190321,0.340763,-0.100458,45,273,582,5664
1644170452.955721,-0.007629,0.011597,-0.991028,0.35826,0.478168,-0.008855,52,273,575,5712
1644170453.064516,-0.007874,0.010071,-0.990234,0.373527,0.447634,-0.115725,55,281,578,5664
1644170453.097258,-0.01239,0.007996,-0.991394,0.312458,0.356031,-0.069924,40,275,582,5664
1644170453.143972,-0.009766,0.009094,-0.992371,0.144519,0.340763,-0.161527,47,273,584,5664
1644170453.192395,-0.009521,0.007019,-0.990234,0.159786,0.447634,-0.192061,60,276,578,5696
1644170453.240691,-0.011047,0.013855,-0.992065,0.342992,0.371298,-0.054656,47,277,579,5696
1644170453.289064,-0.011169,0.009644,-0.992188,0.35826,0.356031,-0.115725,48,283,585,5664
1644170453.337473,-0.010132,0.008728,-0.992615,0.205588,0.386565,-0.054656,57,275,584,5696
1644170453.385864,-0.011841,0.01123,-0.993896,0.190321,0.386565,0.052214,58,274,576,5648
1644170453.434249,-0.009216,0.009521,-0.991882,0.297191,0.294962,0.067481,48,276,569,5648
1644170453.482654,-0.011902,0.00824,-0.990906,0.098718,0.264427,-0.115725,45,277,565,5664
1644170453.531317,-0.010681,0.010437,-0.992554,0.236122,0.462901,-0.039389,53,269,576,5664
1644170453.58188,-0.012329,0.009216,-0.991394,0.159786,0.310229,-0.115725,46,274,576,5648
1644170453.631964,-0.012207,0.007385,-0.991699,0.220855,0.279695,-0.039389,54,275,586,5648
1644170453.677191,-0.010742,0.011169,-0.991821,0.236122,0.386565,-0.054656,60,266,573,5696
1644170453.773009,-0.009155,0.011169,-0.993408,0.144519,0.371298,-0.100458,41,281,562,5648
1644170453.821375,-0.011658,0.010498,-0.990601,0.281924,0.386565,-0.024122,58,274,587,5728
1644170453.869769,-0.008972,0.013489,-0.991272,0.220855,0.371298,-0.14626,47,268,570,5600
1644170453.918202,-0.011414,0.009766,-0.993774,0.037649,0.356031,-0.130992,48,279,569,5696
1644170453.966585,-0.007874,0.008728,-0.990906,0.098718,0.447634,0.006412,57,277,572,5648
1644170454.015033,-0.011719,0.013,-0.990723,0.251389,0.401832,-0.192061,49,280,572,5648
1644170454.065778,-0.010925,0.009705,-0.99115,0.297191,0.478168,-0.161527,46,274,576,5696
1644170454.111707,-0.010681,0.00824,-0.991638,0.220855,0.386565,0.021679,46,276,573,5696
1644170454.160127,-0.009216,0.01355,-0.988342,0.266656,0.325496,-0.008855,46,281,571,5696
1644170454.208507,-0.012573,0.009766,-0.991638,0.08345,0.493435,-0.039389,54,275,582,5664
1644170454.256879,-0.012268,0.009583,-0.992554,0.297191,0.356031,-0.130992,47,270,568,5696
1644170454.305281,-0.009521,0.009644,-0.991882,0.266656,0.447634,0.021679,54,270,570,5600
1644170454.353692,-0.011169,0.00769,-0.992798,0.220855,0.371298,-0.268397,48,281,576,5648
1644170454.40206,-0.010071,0.007751,-0.990723,0.297191,0.417099,0.113282,55,279,571,5632
1644170454.450453,-0.012268,0.007507,-0.993896,0.236122,0.294962,-0.054656,54,268,579,5664
1644170454.498839,-0.008362,0.010071,-0.993408,0.144519,0.417099,-0.115725,58,274,573,5648
1644170454.547233,-0.011719,0.009155,-0.993164,0.175053,0.386565,-0.36,47,268,582,5664
1644170454.595624,-0.009399,0.011597,-0.989685,0.205588,0.478168,-0.130992,51,276,580,5648
1644170454.644021,-0.009949,0.008728,-0.992371,0.068183,0.554504,-0.25313,47,275,579,5648
1644170454.692575,-0.013,0.011536,-0.992676,0.190321,0.554504,-0.024122,51,266,571,5696
1644170454.742665,-0.006409,0.011169,-0.990112,0.159786,0.325496,-0.130992,53,279,576,5648
1644170454.794466,-0.008728,0.009094,-0.991882,0.220855,0.371298,0.098015,49,280,572,5712
1644170454.838524,-0.009216,0.009583,-0.991394,0.175053,0.310229,-0.222595,54,285,565,5696
1644170454.934399,-0.006531,0.008179,-0.992615,0.281924,0.432366,-0.100458,49,273,563,5648
1644170454.982795,-0.008789,0.008972,-0.994873,0.236122,0.310229,0.052214,49,273,589,5648
1644170455.031174,-0.01416,0.00824,-0.990662,0.220855,0.478168,-0.069924,48,283,576,5600
1644170455.080956,-0.013306,0.008728,-0.995728,0.236122,0.325496,0.036947,62,281,583,5776
1644170455.127922,-0.012146,0.010681,-0.988647,0.175053,0.401832,-0.115725,55,274,578,5648
1644170455.176325,-0.010681,0.009338,-0.990845,0.312458,0.432366,-0.115725,45,275,575,5632
1644170455.224718,-0.013,0.010925,-0.991394,0.175053,0.401832,-0.039389,49,277,577,5664
1644170455.273088,-0.009827,0.012939,-0.992065,0.236122,0.401832,-0.222595,48,271,573,5664
1644170455.321486,-0.013,0.010742,-0.993958,0.144519,0.508702,-0.024122,49,275,570,5696
1644170455.369893,-0.009705,0.006653,-0.991516,0.022382,0.401832,-0.25313,54,282,577,5712
1644170455.418275,-0.012146,0.009338,-0.992554,0.068183,0.478168,-0.100458,55,266,576,5712
1644170455.466658,-0.010132,0.010071,-0.992432,0.373527,0.493435,-0.283664,45,270,584,5696
1644170455.515135,-0.009399,0.007202,-0.993164,0.236122,0.340763,-0.069924,36,274,578,5648
1644170455.563449,-0.009399,0.009705,-0.990295,0.220855,0.462901,-0.100458,52,280,582,5648
1644170455.611834,-0.011353,0.009888,-0.991699,0.266656,0.417099,0.006412,49,273,584,5664
1644170455.660221,-0.009216,0.009399,-0.992432,0.327725,0.508702,-0.115725,58,281,580,5712
1644170455.708587,-0.00885,0.008301,-0.990051,0.159786,0.386565,-0.115725,41,266,580,5664
1644170455.756994,-0.009644,0.007263,-0.99054,0.175053,0.493435,-0.161527,57,265,584,5728
1644170455.806403,-0.011292,0.009827,-0.989441,0.220855,0.356031,-0.069924,49,268,575,5664
1644170455.856829,-0.010132,0.010315,-0.992859,0.327725,0.432366,-0.14626,54,270,584,5712
1644170455.907246,-0.009766,0.005981,-0.993774,0.129252,0.340763,-0.085191,43,276,576,5664
1644170455.951731,-0.011475,0.008606,-0.990662,0.129252,0.401832,-0.100458,49,275,568,5696
1644170456.060752,-0.009949,0.009094,-0.992798,0.205588,0.294962,-0.100458,64,282,572,5648
1644170456.096986,-0.010559,0.010315,-0.992188,0.159786,0.523969,-0.115725,42,277,572,5696
1644170456.144103,-0.013855,0.010254,-0.991455,0.251389,0.386565,-0.069924,60,276,583,5760
1644170456.192526,-0.009583,0.007935,-0.991943,0.220855,0.478168,-0.207328,46,271,571,5712
1644170456.240906,-0.01178,0.010864,-0.992249,0.236122,0.417099,0.098015,53,276,580,5648
1644170456.289298,-0.011353,0.013062,-0.992859,0.281924,0.523969,-0.024122,49,270,584,5696
1644170456.337686,-0.009521,0.009155,-0.991089,0.159786,0.478168,-0.054656,53,281,578,5632
1644170456.38607,-0.012451,0.00885,-0.989929,0.266656,0.157557,0.006412,48,264,585,5648
1644170456.434751,-0.011169,0.010864,-0.99176,0.297191,0.447634,-0.130992,45,273,575,5664
1644170456.484091,-0.011108,0.008118,-0.990112,0.037649,0.340763,-0.100458,48,283,580,5648
1644170456.534423,-0.010376,0.010376,-0.989014,0.312458,0.417099,-0.085191,45,270,568,5696
1644170456.584831,-0.011414,0.009827,-0.992676,0.159786,0.356031,-0.054656,49,280,577,5712
1644170456.676434,-0.007263,0.011475,-0.994019,0.129252,0.340763,-0.14626,45,277,572,5648
1644170456.724847,-0.007751,0.008545,-0.993164,0.190321,0.401832,-0.024122,43,276,564,5696
1644170456.773221,-0.01001,0.008484,-0.991882,0.236122,0.417099,-0.237863,49,280,572,5664
1644170456.82161,-0.010132,0.008362,-0.992004,0.220855,0.386565,-0.054656,52,273,577,5696
1644170456.86999,-0.01001,0.008728,-0.99231,0.205588,0.325496,-0.085191,45,275,579,5648
1644170456.918374,-0.011169,0.01001,-0.993408,0.205588,0.401832,-0.14626,46,276,564,5712
1644170456.966802,-0.011047,0.009399,-0.990051,0.266656,0.386565,-0.054656,40,273,577,5648
1644170457.015301,-0.008179,0.008972,-0.989197,0.159786,0.386565,-0.222595,54,275,575,5696
1644170457.06782,-0.007812,0.009033,-0.99115,0.129252,0.371298,-0.008855,48,271,576,5712
1644170457.112005,-0.011108,0.009155,-0.989746,0.175053,0.401832,-0.085191,51,281,576,5648
1644170457.160344,-0.010803,0.010193,-0.990051,0.251389,0.478168,0.006412,49,282,584,5664
1644170457.208713,-0.011841,0.008484,-0.994629,0.236122,0.279695,-0.161527,45,268,570,5664
1644170457.257121,-0.007996,0.008484,-0.993286,0.251389,0.325496,-0.039389,51,271,583,5696
1644170457.305502,-0.00885,0.009949,-0.98877,0.312458,0.447634,-0.100458,53,281,578,5664
1644170457.353873,-0.009277,0.01001,-0.99115,0.251389,0.371298,-0.14626,54,282,575,5632
1644170457.402293,-0.007874,0.007751,-0.991638,0.175053,0.356031,-0.161527,48,271,578,5664
1644170457.45067,-0.008057,0.011536,-0.991211,0.266656,0.340763,0.006412,57,277,579,5696
1644170457.499036,-0.01239,0.00708,-0.992981,0.297191,0.386565,-0.130992,51,266,580,5728
1644170457.54745,-0.009583,0.012573,-0.991638,0.236122,0.356031,-0.207328,52,273,575,5696
1644170457.595937,-0.008606,0.00769,-0.990234,0.327725,0.462901,-0.14626,51,269,569,5648
1644170457.646153,-0.011292,0.009094,-0.994568,0.220855,0.508702,-0.130992,51,269,571,5632
1644170457.696471,-0.008667,0.010376,-0.989746,0.159786,0.340763,-0.024122,52,260,586,5712
1644170457.741557,-0.011047,0.010193,-0.993164,0.327725,0.371298,-0.176794,45,275,570,5664
1644170457.837765,-0.009277,0.009827,-0.992493,0.35826,0.401832,0.006412,60,271,578,5648
1644170457.886206,-0.006714,0.010986,-0.990967,0.220855,0.585038,0.006412,46,276,576,5664
1644170457.934883,-0.007874,0.008118,-0.990356,0.159786,0.401832,0.052214,48,271,569,5664
1644170457.983034,-0.009338,0.008179,-0.990295,0.251389,0.462901,0.006412,43,276,571,5648
1644170458.0314,-0.011047,0.011047,-0.992615,0.144519,0.417099,-0.222595,52,275,568,5696
1644170458.079972,-0.00946,0.010315,-0.989746,0.220855,0.508702,-0.115725,58,279,580,5648
1644170458.128188,-0.010254,0.008972,-0.991089,0.220855,0.340763,-0.14626,39,269,571,5648
1644170458.176533,-0.011414,0.010071,-0.992554,0.220855,0.371298,-0.054656,51,286,571,5696
1644170458.224918,-0.008911,0.007812,-0.990967,0.281924,0.356031,-0.176794,41,274,583,5632
1644170458.273288,-0.009521,0.011353,-0.990173,0.205588,0.554504,-0.008855,43,274,569,5696
1644170458.321682,-0.008301,0.011475,-0.991455,0.220855,0.462901,-0.130992,53,276,571,5648
1644170458.370076,-0.011536,0.009827,-0.991516,0.08345,0.401832,-0.176794,53,274,566,5600
1644170458.418469,-0.013,0.009705,-0.993042,0.35826,0.462901,-0.054656,51,276,583,5664
1644170458.466853,-0.009216,0.007446,-0.991577,0.342992,0.279695,-0.069924,60,271,578,5696
1644170458.515265,-0.009033,0.011169,-0.99292,-0.008153,0.447634,-0.130992,45,280,577,5696
1644170458.563655,-0.009949,0.00769,-0.99115,0.373527,0.493435,-0.085191,46,279,573,5632
1644170458.612049,-0.007446,0.00885,-0.990784,0.266656,0.554504,-0.039389,49,265,572,5664
1644170458.660436,-0.011902,0.01001,-0.990234,0.342992,0.523969,0.036947,49,275,575,5664
1644170458.708825,-0.010803,0.011719,-0.992615,0.113985,0.478168,-0.14626,49,268,586,5760
1644170458.757264,-0.010498,0.010986,-0.991638,0.312458,0.325496,-0.161527,42,268,579,5664
1644170458.809023,-0.008301,0.010437,-0.994385,0.297191,0.386565,-0.069924,46,274,578,5664
1644170458.858101,-0.011414,0.008484,-0.994324,0.159786,0.462901,-0.115725,52,275,577,5648
1644170458.903327,-0.007507,0.007812,-0.991028,0.129252,0.401832,-0.207328,52,277,572,5632
1644170458.999215,-0.00769,0.011841,-0.992432,0.098718,0.447634,0.006412,38,268,572,5664
1644170459.066834,-0.013123,0.009766,-0.989807,0.373527,0.493435,-0.008855,55,271,578,5648
1644170459.096051,-0.009277,0.007446,-0.992432,0.251389,0.340763,-0.237863,43,279,580,5664
1644170459.144408,-0.010254,0.009338,-0.993835,0.129252,0.539237,-0.14626,53,279,583,5712
1644170459.192765,-0.010498,0.01239,-0.990479,0.388794,0.24916,-0.14626,48,264,583,5584
1644170459.241122,-0.011047,0.00531,-0.994202,0.251389,0.493435,-0.039389,54,280,572,5696
1644170459.289491,-0.008789,0.010803,-0.990784,0.190321,0.462901,0.006412,46,283,571,5600
1644170459.337894,-0.009583,0.008667,-0.992432,0.449863,0.386565,-0.054656,51,276,571,5648
1644170459.386295,-0.012024,0.007141,-0.992554,0.327725,0.356031,-0.085191,58,266,573,5696
1644170459.434848,-0.010437,0.006653,-0.991577,0.281924,0.401832,-0.176794,53,274,573,5632
1644170459.483122,-0.009949,0.008423,-0.99231,0.251389,0.569771,-0.100458,53,279,571,5664
1644170459.532998,-0.008911,0.009705,-0.992737,0.236122,0.386565,-0.130992,51,262,576,5696
1644170459.583262,-0.006897,0.009338,-0.99292,0.251389,0.325496,-0.069924,47,280,570,5632
1644170459.633538,-0.010742,0.007507,-0.991028,0.251389,0.371298,-0.192061,45,277,572,5696
1644170459.725375,-0.01178,0.011597,-0.990784,0.251389,0.523969,-0.176794,54,265,579,5632
1644170459.773459,-0.009521,0.012146,-0.993652,0.144519,0.386565,-0.130992,49,277,577,5760
1644170459.821803,-0.010681,0.00946,-0.992004,0.205588,0.462901,-0.115725,42,268,575,5648
1644170459.870187,-0.009399,0.008789,-0.991394,0.266656,0.325496,-0.222595,36,269,578,5664
1644170459.919765,-0.012146,0.009705,-0.991394,0.144519,0.371298,-0.192061,54,265,582,5696
1644170459.967016,-0.00647,0.007874,-0.990662,0.327725,0.401832,-0.130992,46,281,583,5664
1644170460.015419,-0.011658,0.010254,-0.991577,0.175053,0.24916,0.052214,53,274,569,5648
1644170460.066662,-0.013123,0.008118,-0.992981,0.297191,0.585038,-0.207328,47,270,582,5648
1644170460.11217,-0.010437,0.009155,-0.991211,0.175053,0.493435,-0.069924,38,273,577,5664
1644170460.160547,-0.009705,0.008057,-0.991028,0.205588,0.371298,-0.130992,49,282,575,5696
1644170460.208917,-0.012329,0.008301,-0.992859,0.495664,0.356031,-0.039389,52,268,577,5696
1644170460.25732,-0.011719,0.008179,-0.993469,0.220855,0.417099,-0.130992,62,274,569,5664
1644170460.305712,-0.011475,0.009033,-0.993835,0.342992,0.386565,-0.115725,53,271,569,5664
1644170460.354118,-0.010498,0.010193,-0.992065,0.220855,0.325496,-0.039389,51,271,583,5648
1644170460.402524,-0.008972,0.010498,-0.991577,0.220855,0.294962,-0.085191,47,275,575,5648
1644170460.450887,-0.008179,0.009644,-0.993408,0.205588,0.356031,-0.115725,59,268,577,5648
1644170460.499264,-0.009338,0.012329,-0.994263,0.175053,0.462901,-0.008855,54,270,579,5712
1644170460.547662,-0.012024,0.00824,-0.990845,0.190321,0.432366,-0.100458,45,277,579,5664
1644170460.596049,-0.01178,0.009949,-0.991333,0.190321,0.523969,0.006412,53,274,576,5760
1644170460.645015,-0.011475,0.008545,-0.992676,0.251389,0.233893,-0.085191,42,270,568,5648
1644170460.695389,-0.010376,0.010925,-0.993286,0.220855,0.218626,-0.085191,54,268,575,5648
1644170460.745538,-0.011353,0.00824,-0.993347,0.297191,0.478168,-0.008855,47,273,577,5696
1644170460.790604,-0.005554,0.012512,-0.994019,0.236122,0.493435,-0.14626,57,285,563,5664
1644170460.886441,-0.009216,0.009583,-0.993164,0.08345,0.554504,-0.14626,55,271,573,5664
1644170460.934916,-0.011353,0.010193,-0.990601,0.266656,0.371298,-0.069924,60,279,576,5664
1644170460.983237,-0.010986,0.009705,-0.992065,0.266656,0.310229,-0.14626,35,268,570,5712
1644170461.031615,-0.008911,0.009949,-0.993896,0.220855,0.371298,-0.130992,52,277,577,5712
1644170461.080086,-0.011169,0.007446,-0.991394,0.266656,0.294962,-0.161527,48,276,580,5664
1644170461.128322,-0.008728,0.010315,-0.990967,0.175053,0.401832,-0.207328,46,274,573,5600
1644170461.176748,-0.012329,0.010132,-0.995178,0.251389,0.340763,-0.100458,47,277,575,5648
1644170461.225216,-0.012085,0.010742,-0.992126,0.220855,0.294962,-0.14626,46,271,571,5648
1644170461.273524,-0.01001,0.01001,-0.98938,0.175053,0.401832,-0.054656,47,285,584,5664
1644170461.321895,-0.010864,0.009338,-0.993408,0.129252,0.356031,-0.085191,47,268,572,5664
1644170461.370308,-0.010376,0.008667,-0.989563,0.190321,0.356031,-0.207328,54,275,586,5696
1644170461.418703,-0.009399,0.008972,-0.99231,0.342992,0.417099,-0.085191,49,277,575,5648
1644170461.467091,-0.01123,0.01062,-0.992126,0.434595,0.310229,-0.069924,58,266,571,5648
1644170461.515484,-0.011841,0.010132,-0.990417,0.098718,0.340763,-0.176794,52,270,575,5712
1644170461.56393,-0.007568,0.009644,-0.990967,0.236122,0.401832,-0.130992,46,274,583,5664
1644170461.612298,-0.010559,0.009216,-0.992798,0.342992,0.386565,-0.115725,55,281,573,5696
1644170461.66065,-0.010986,0.009949,-0.991882,0.205588,0.417099,-0.268397,51,271,583,5648
1644170461.709047,-0.012939,0.01001,-0.991272,0.266656,0.386565,-0.069924,51,281,580,5664
1644170461.757424,-0.010437,0.010071,-0.993347,0.175053,0.401832,0.113282,48,271,583,5696
1644170461.806834,-0.011414,0.009583,-0.991272,0.236122,0.447634,-0.115725,52,270,568,5648
1644170461.857213,-0.012939,0.007874,-0.991455,0.175053,0.233893,-0.069924,45,265,563,5648
1644170461.907576,-0.009949,0.009827,-0.991272,0.190321,0.401832,-0.192061,58,266,576,5760
1644170461.952214,-0.009766,0.010254,-0.99231,0.159786,0.462901,-0.008855,42,275,572,5632
1644170462.059238,-0.009216,0.010254,-0.98999,0.236122,0.432366,-0.039389,48,279,573,5696
1644170462.098173,-0.008484,0.010803,-0.988281,0.159786,0.310229,-0.130992,49,280,579,5648
1644170462.144699,-0.00885,0.006042,-0.992004,0.175053,0.356031,-0.054656,54,265,570,5696
1644170462.192963,-0.012573,0.012268,-0.993469,0.35826,0.447634,-0.069924,55,276,578,5696
1644170462.241337,-0.009705,0.010559,-0.987976,0.190321,0.462901,-0.039389,49,265,579,5648
1644170462.289718,-0.008972,0.007385,-0.991699,0.220855,0.386565,-0.085191,54,277,575,5648
1644170462.338122,-0.010742,0.008179,-0.992249,0.266656,0.279695,-0.100458,60,271,578,5664
1644170462.386505,-0.012817,0.008728,-0.990784,0.190321,0.371298,-0.161527,60,276,583,5696
1644170462.434887,-0.012817,0.013733,-0.991455,0.236122,0.325496,-0.176794,41,269,585,5648
1644170462.483285,-0.010071,0.009216,-0.992798,0.220855,0.462901,-0.115725,49,273,575,5696
1644170462.531696,-0.010864,0.008057,-0.990662,0.35826,0.478168,-0.069924,41,269,580,5632
1644170462.581543,-0.011963,0.010132,-0.990723,0.205588,0.432366,-0.115725,47,273,572,5664
1644170462.631856,-0.008972,0.012756,-0.99176,0.266656,0.401832,-0.130992,55,271,569,5648
1644170462.682171,-0.011597,0.011719,-0.987915,0.037649,0.462901,0.021679,59,265,575,5728
1644170462.773655,-0.010559,0.007629,-0.98999,0.159786,0.417099,-0.130992,48,266,580,5664
1644170462.822044,-0.009521,0.01001,-0.990967,0.190321,0.539237,0.036947,48,279,573,5648
1644170462.870466,-0.010315,0.008911,-0.99115,0.129252,0.462901,-0.069924,47,273,570,5648
1644170462.918822,-0.010376,0.007446,-0.992065,0.281924,0.493435,-0.085191,53,269,569,5584
1644170462.967232,-0.011169,0.012146,-0.99176,0.220855,0.508702,-0.008855,43,264,571,5712
1644170463.015633,-0.011047,0.009827,-0.991882,0.220855,0.386565,-0.161527,58,274,571,5664
1644170463.068991,-0.013245,0.010559,-0.992249,0.205588,0.356031,0.006412,57,258,577,5648
1644170463.112419,-0.009399,0.010132,-0.993042,0.404061,0.417099,-0.054656,59,280,572,5728
1644170463.160759,-0.013123,0.006714,-0.993896,0.236122,0.325496,-0.207328,47,273,579,5648
1644170463.209145,-0.010925,0.013,-0.990356,0.190321,0.447634,-0.069924,48,276,566,5648
1644170463.257533,-0.01123,0.008118,-0.994568,0.373527,0.340763,-0.115725,43,266,583,5648
1644170463.3059,-0.010132,0.007751,-0.993042,0.205588,0.325496,-0.176794,47,275,565,5648
1644170463.354361,-0.01178,0.008972,-0.995178,0.205588,0.386565,-0.130992,46,262,580,5648
1644170463.40273,-0.011475,0.009583,-0.990234,0.281924,0.447634,-0.024122,47,273,579,5728
1644170463.451098,-0.011169,0.008362,-0.991028,0.129252,0.371298,-0.085191,53,276,580,5696
1644170463.499491,-0.01178,0.008545,-0.992798,0.342992,0.279695,-0.069924,49,275,579,5696
1644170463.54789,-0.008423,0.007141,-0.990967,0.190321,0.386565,-0.024122,42,270,575,5696
1644170463.596246,-0.009949,0.008362,-0.989868,0.113985,0.539237,-0.008855,51,279,576,5648
1644170463.644669,-0.011353,0.00708,-0.992493,0.144519,0.447634,-0.024122,54,285,572,5648
1644170463.693275,-0.006226,0.008423,-0.987671,0.175053,0.386565,0.006412,52,277,570,5760
1644170463.743968,-0.011047,0.012207,-0.988281,0.297191,0.401832,-0.008855,58,264,576,5664
1644170463.793862,-0.012146,0.01355,-0.992004,0.113985,0.447634,-0.100458,55,276,569,5696
1644170463.839161,-0.010254,0.010925,-0.993103,0.098718,0.462901,-0.130992,53,266,573,5632
1644170463.935315,-0.008972,0.011841,-0.99292,0.297191,0.417099,-0.130992,52,280,572,5696
1644170463.983447,-0.010559,0.011597,-0.992493,0.388794,0.24916,-0.069924,52,280,575,5696
1644170464.031839,-0.010803,0.007263,-0.99176,0.220855,0.325496,-0.069924,49,280,577,5600
1644170464.080316,-0.006897,0.007874,-0.992981,0.144519,0.585038,-0.069924,52,268,575,5760
1644170464.12862,-0.011963,0.009338,-0.994568,0.327725,0.356031,-0.115725,48,266,573,5664
1644170464.176956,-0.01178,0.00708,-0.992981,0.205588,0.294962,-0.008855,51,271,559,5696
1644170464.225354,-0.008423,0.008789,-0.994263,0.342992,0.340763,-0.130992,57,275,577,5648
1644170464.273752,-0.011475,0.008301,-0.994324,0.190321,0.356031,-0.283664,59,273,577,5632
1644170464.322191,-0.011536,0.009583,-0.992126,0.190321,0.401832,-0.161527,45,268,577,5600
1644170464.370525,-0.010071,0.010864,-0.991699,0.220855,0.264427,-0.054656,57,273,579,5664
1644170464.418924,-0.006348,0.008606,-0.99115,0.281924,0.356031,-0.237863,51,279,569,5712
1644170464.467311,-0.010315,0.007507,-0.993591,0.35826,0.386565,0.006412,52,270,568,5648
1644170464.515701,-0.012939,0.008972,-0.992798,0.281924,0.493435,-0.100458,47,275,570,5664
1644170464.564066,-0.010376,0.006287,-0.99469,0.175053,0.340763,-0.039389,48,276,576,5696
1644170464.61249,-0.010132,0.010498,-0.990845,0.220855,0.417099,-0.161527,51,279,580,5696
1644170464.660834,-0.00885,0.009155,-0.990173,0.297191,0.478168,-0.069924,58,266,583,5664
1644170464.709254,-0.008179,0.006714,-0.993591,0.220855,0.356031,-0.14626,52,275,582,5648
1644170464.757619,-0.010376,0.009949,-0.990967,0.266656,0.508702,-0.192061,59,273,577,5648
1644170464.80604,-0.01178,0.006836,-0.994629,0.327725,0.340763,-0.161527,53,269,569,5696
1644170464.856195,-0.008057,0.009644,-0.992188,0.297191,0.401832,-0.008855,54,270,577,5712
1644170464.90594,-0.009705,0.010498,-0.990234,0.312458,0.417099,-0.054656,54,270,575,5664
1644170464.956512,-0.012451,0.009399,-0.993652,0.159786,0.523969,-0.069924,43,281,585,5664
1644170465.064461,-0.012878,0.005615,-0.993103,0.251389,0.264427,-0.176794,49,280,579,5696
1644170465.098072,-0.009216,0.006592,-0.991821,0.327725,0.386565,-0.115725,51,276,583,5648
1644170465.144828,-0.008667,0.009583,-0.993835,0.251389,0.371298,0.082748,57,270,584,5600
1644170465.193144,-0.01062,0.010376,-0.990417,0.08345,0.356031,0.006412,51,274,583,5632
1644170465.241559,-0.008911,0.008301,-0.995117,0.08345,0.600305,-0.085191,46,276,580,5696
1644170465.289944,-0.007141,0.007629,-0.993042,0.312458,0.371298,-0.069924,54,263,582,5696
1644170465.338338,-0.011292,0.011353,-0.990662,0.266656,0.478168,-0.115725,49,287,565,5584
1644170465.386727,-0.011414,0.009583,-0.98999,0.388794,0.325496,-0.054656,53,269,580,5648
1644170465.435155,-0.012695,0.009338,-0.992981,0.251389,0.264427,-0.085191,53,276,578,5696
1644170465.483502,-0.00824,0.008789,-0.992493,0.297191,0.371298,-0.161527,54,275,572,5664
1644170465.532275,-0.011841,0.006348,-0.992004,0.205588,0.417099,0.052214,53,266,583,5648
1644170465.581001,-0.012207,0.011658,-0.990417,0.281924,0.279695,-0.100458,54,258,575,5696
1644170465.631606,-0.010071,0.009521,-0.991638,0.342992,0.447634,-0.14626,46,281,578,5648
1644170465.681813,-0.009949,0.009766,-0.992126,0.297191,0.401832,-0.161527,51,271,576,5664
1644170465.726739,-0.01123,0.010376,-0.988892,0.251389,0.493435,0.036947,52,277,577,5664
1644170465.82244,-0.013184,0.012085,-0.989685,0.327725,0.539237,-0.207328,45,275,579,5696
1644170465.870645,-0.012634,0.011658,-0.990784,0.266656,0.417099,-0.008855,46,279,569,5648
1644170465.91905,-0.010925,0.009888,-0.991699,0.236122,0.493435,-0.100458,52,270,568,5632
1644170465.967413,-0.011353,0.009338,-0.994202,0.327725,0.432366,0.021679,47,275,582,5664
1644170466.015845,-0.012329,0.006348,-0.994446,0.205588,0.600305,0.006412,59,277,579,5600
1644170466.067623,-0.010986,0.007385,-0.994202,0.297191,0.523969,0.098015,43,283,585,5648
1644170466.112609,-0.010803,0.009277,-0.991943,0.068183,0.371298,-0.192061,65,266,573,5712
1644170466.160988,-0.008545,0.008972,-0.994202,0.175053,0.432366,0.067481,57,273,579,5760
1644170466.209428,-0.01123,0.00885,-0.991211,0.098718,0.386565,0.021679,43,279,569,5696
1644170466.257797,-0.011108,0.01001,-0.993286,0.342992,0.432366,-0.039389,57,270,565,5664
1644170466.306166,-0.008911,0.009949,-0.98999,0.281924,0.401832,-0.008855,53,281,576,5712
1644170466.354706,-0.009827,0.008667,-0.992126,0.266656,0.554504,-0.161527,57,275,577,5648
1644170466.402972,-0.009888,0.009949,-0.991821,0.312458,0.401832,-0.024122,54,275,572,5664
1644170466.451321,-0.012451,0.011963,-0.992981,0.190321,0.340763,-0.100458,45,273,577,5728
1644170466.499758,-0.00885,0.008057,-0.99176,0.205588,0.432366,0.006412,55,274,580,5664
1644170466.548144,-0.010925,0.008972,-0.992981,0.205588,0.417099,-0.161527,54,270,584,5696
1644170466.596525,-0.010742,0.009216,-0.991394,0.098718,0.600305,-0.268397,51,276,580,5648
1644170466.644919,-0.009094,0.009399,-0.992432,0.113985,0.478168,-0.054656,52,265,584,5712
1644170466.694376,-0.007751,0.009277,-0.993042,0.297191,0.554504,-0.069924,51,264,585,5664
1644170466.744278,-0.009033,0.011536,-0.994629,0.144519,0.356031,-0.161527,51,271,580,5648
1644170466.794988,-0.012085,0.007385,-0.992493,0.35826,0.325496,-0.069924,53,266,587,5648
1644170466.839161,-0.012512,0.005493,-0.991211,0.297191,0.356031,0.021679,53,276,569,5648
1644170466.935467,-0.009521,0.006592,-0.992249,0.297191,0.386565,-0.25313,46,274,583,5584
1644170466.983658,-0.009888,0.010376,-0.990662,0.327725,0.24916,-0.237863,49,265,572,5664
1644170467.032039,-0.010864,0.009033,-0.991516,0.205588,0.478168,-0.192061,51,279,576,5728
1644170467.080506,-0.008667,0.009216,-0.991211,0.220855,0.432366,-0.008855,51,269,580,5664
1644170467.128786,-0.011169,0.010193,-0.990601,0.220855,0.294962,-0.024122,45,268,575,5696
1644170467.177172,-0.010498,0.006897,-0.991516,0.113985,0.447634,-0.085191,51,266,573,5664
1644170467.225562,-0.011597,0.008301,-0.992126,0.373527,0.356031,-0.024122,53,269,583,5648
1644170467.27394,-0.008667,0.010071,-0.991089,0.129252,0.417099,-0.161527,52,268,582,5648
1644170467.322401,-0.010925,0.011292,-0.991516,0.144519,0.432366,-0.115725,52,282,572,5696
