epoch,acc_x,acc_y,acc_z,rot_x,rot_y,rot_z,mag_x,mag_y,mag_z,temp
1644179100.060137,-0.010986,0.006592,-0.992126,0.220855,0.24916,0.052214,41,271,585,6080
1644179100.094037,-0.008972,0.010681,-0.992126,0.327725,0.371298,-0.069924,48,264,583,5952
1644179100.142348,-0.007935,0.009705,-0.991028,0.205588,0.24916,-0.024122,61,268,586,6080
1644179100.190731,-0.010864,0.00946,-0.98938,0.388794,0.371298,-0.130992,45,270,589,5952
1644179100.239147,-0.008606,0.008545,-0.992371,0.312458,0.279695,-0.100458,48,283,597,6064
1644179100.287537,-0.010315,0.007202,-0.992554,0.175053,0.386565,-0.008855,48,286,578,6016
1644179100.336292,-0.009888,0.011108,-0.992371,0.113985,0.356031,-0.115725,47,265,589,6016
1644179100.386464,-0.008484,0.009521,-0.989258,0.175053,0.432366,-0.054656,49,280,586,6000
1644179100.437905,-0.010315,0.010132,-0.991638,0.08345,0.401832,0.036947,54,280,589,6048
1644179100.482016,-0.008362,0.009155,-0.991211,0.251389,0.371298,-0.069924,46,286,585,6016
1644179100.577877,-0.010193,0.008179,-0.993103,0.266656,0.371298,-0.054656,55,271,583,6064
1644179100.626261,-0.012451,0.006226,-0.991211,0.220855,0.325496,-0.054656,53,274,580,6080
1644179100.674845,-0.008301,0.010315,-0.99408,0.388794,0.417099,-0.161527,49,286,590,6000
1644179100.723079,-0.009705,0.009399,-0.98999,0.297191,0.401832,-0.222595,46,279,590,6080
1644179100.771454,-0.011414,0.009705,-0.993164,0.129252,0.462901,-0.14626,42,277,582,6048
1644179100.81984,-0.007812,0.009338,-0.99115,0.342992,0.432366,-0.14626,45,280,584,6000
1644179100.868281,-0.007568,0.011353,-0.993591,0.175053,0.340763,-0.207328,48,279,590,6016
1644179100.916673,-0.008118,0.008972,-0.991089,0.129252,0.386565,-0.130992,54,270,589,5984
1644179100.965247,-0.009094,0.008911,-0.991699,0.159786,0.462901,-0.192061,49,280,589,6016
1644179101.01345,-0.011353,0.010559,-0.990479,0.297191,0.371298,-0.008855,48,271,580,5984
1644179101.06447,-0.008789,0.008972,-0.992004,0.08345,0.462901,-0.039389,55,281,585,6048
1644179101.110235,-0.006958,0.010681,-0.991516,0.236122,0.401832,0.036947,45,273,589,5984
1644179101.158578,-0.008179,0.011658,-0.992371,0.190321,0.447634,-0.100458,49,275,596,6016
1644179101.206993,-0.011475,0.007935,-0.991333,0.220855,0.24916,-0.268397,52,273,586,6064
1644179101.255361,-0.009827,0.01062,-0.989075,0.144519,0.356031,-0.069924,48,269,583,6048
1644179101.303775,-0.009094,0.010986,-0.990112,0.098718,0.371298,-0.14626,49,280,591,6064
1644179101.352188,-0.007202,0.01239,-0.990784,0.144519,0.310229,-0.161527,52,273,593,6080
1644179101.400547,-0.009094,0.010681,-0.991882,0.175053,0.447634,-0.237863,47,275,579,6000
1644179101.448925,-0.010376,0.008911,-0.991638,0.434595,0.340763,-0.008855,51,274,585,6016
1644179101.498123,-0.009888,0.006104,-0.993042,0.35826,0.493435,-0.115725,53,274,587,6016
1644179101.54827,-0.007202,0.010742,-0.991028,0.113985,0.401832,-0.130992,61,282,582,6080
1644179101.598241,-0.00824,0.009888,-0.989502,0.175053,0.340763,0.036947,52,282,584,6016
1644179101.643296,-0.011597,0.005676,-0.988953,0.281924,0.493435,-0.039389,49,280,584,6016
1644179101.7393,-0.008911,0.010681,-0.991821,0.144519,0.432366,-0.130992,43,279,585,6080
1644179101.787682,-0.011536,0.010681,-0.991394,0.312458,0.539237,-0.085191,59,275,579,6000
1644179101.836065,-0.010376,0.008179,-0.98999,0.220855,0.432366,-0.085191,51,274,590,6016
1644179101.884511,-0.007812,0.010193,-0.991394,0.129252,0.371298,-0.024122,48,276,583,6080
1644179101.932946,-0.006592,0.007935,-0.991821,0.327725,0.417099,-0.161527,55,279,590,6064
1644179101.981306,-0.00592,0.009583,-0.989929,0.190321,0.432366,-0.14626,45,287,589,6080
1644179102.029703,-0.011719,0.008362,-0.990479,0.312458,0.462901,-0.192061,49,277,582,6000
1644179102.084459,-0.007629,0.011475,-0.990356,0.236122,0.447634,-0.176794,42,280,589,6016
1644179102.126452,-0.00769,0.010498,-0.991638,0.129252,0.417099,-0.161527,59,280,579,6080
1644179102.174854,-0.010254,0.010803,-0.992126,0.205588,0.340763,-0.100458,41,276,592,6112
1644179102.223243,-0.010681,0.00946,-0.990112,0.266656,0.371298,-0.176794,57,273,575,5952
1644179102.271622,-0.006226,0.008606,-0.989807,0.220855,0.432366,-0.054656,49,277,577,5984
1644179102.319987,-0.003906,0.010132,-0.989441,0.205588,0.356031,-0.024122,49,273,586,6080
1644179102.3684,-0.007568,0.010803,-0.992249,0.190321,0.401832,-0.25313,55,279,587,6048
1644179102.416796,-0.01001,0.007446,-0.993713,0.190321,0.310229,-0.008855,51,276,585,6048
1644179102.465194,-0.007324,0.007812,-0.992981,0.342992,0.264427,-0.008855,51,291,578,6000
1644179102.513597,-0.009888,0.009949,-0.992065,0.236122,0.447634,-0.130992,54,280,586,6048
1644179102.561972,-0.010071,0.010315,-0.993042,0.144519,0.356031,-0.069924,49,273,584,6016
1644179102.610367,-0.00885,0.010254,-0.993347,0.159786,0.233893,-0.298931,42,280,582,6064
1644179102.658974,-0.010132,0.009338,-0.993286,0.129252,0.493435,-0.207328,53,276,587,6080
1644179102.709347,-0.008057,0.009277,-0.990173,0.236122,0.554504,-0.085191,51,269,583,6016
1644179102.759844,-0.009155,0.008484,-0.995239,0.266656,0.508702,-0.039389,43,276,580,5984
1644179102.804712,-0.00824,0.010559,-0.993713,0.159786,0.340763,-0.069924,51,276,580,6000
1644179102.90075,-0.01123,0.007996,-0.994751,0.190321,0.325496,-0.283664,53,269,583,6000
1644179102.949152,-0.009888,0.010193,-0.992188,0.266656,0.371298,-0.100458,59,277,579,6048
1644179102.997536,-0.008606,0.009155,-0.989746,0.434595,0.432366,0.006412,47,273,570,6064
1644179103.060876,-0.011597,0.00885,-0.993164,0.205588,0.340763,-0.237863,53,266,585,6048
1644179103.094698,-0.008667,0.010559,-0.993652,0.129252,0.294962,-0.069924,41,279,594,6064
1644179103.142727,-0.010864,0.009583,-0.99176,0.281924,0.264427,0.006412,51,271,576,6080
1644179103.191071,-0.009094,0.010925,-0.993042,0.037649,0.401832,-0.039389,39,279,580,6000
1644179103.239464,-0.00708,0.008545,-0.992737,0.113985,0.371298,-0.25313,59,282,586,6080
1644179103.287851,-0.010498,0.011414,-0.992615,0.251389,0.417099,-0.130992,57,287,589,5984
1644179103.336226,-0.008484,0.009094,-0.990845,0.129252,0.508702,-0.024122,61,280,593,6048
1644179103.384649,-0.009338,0.010132,-0.992065,0.052916,0.325496,-0.222595,46,283,594,6048
1644179103.433048,-0.01001,0.008301,-0.991211,0.220855,0.493435,-0.069924,43,283,594,6048
1644179103.481418,-0.00946,0.012573,-0.993469,0.266656,0.386565,-0.176794,54,282,582,6064
1644179103.52982,-0.006409,0.007751,-0.992981,0.266656,0.493435,-0.176794,54,287,579,6064
1644179103.578408,-0.008972,0.011658,-0.991638,0.052916,0.401832,-0.192061,55,271,587,6016
1644179103.628976,-0.011658,0.010681,-0.991211,0.342992,0.340763,-0.130992,53,283,597,6080
1644179103.67908,-0.009766,0.010193,-0.990295,0.297191,0.386565,-0.222595,48,269,590,6080
1644179103.7241,-0.009705,0.009521,-0.990295,0.281924,0.24916,-0.115725,51,274,590,6080
1644179103.820167,-0.005249,0.009338,-0.993225,0.388794,0.371298,-0.008855,51,276,580,6048
1644179103.868554,-0.01001,0.009521,-0.991455,0.388794,0.432366,0.052214,57,282,579,6080
1644179103.916998,-0.010742,0.012451,-0.99292,0.220855,0.325496,-0.085191,52,273,582,5984
1644179103.965383,-0.009949,0.010986,-0.990784,0.159786,0.340763,-0.130992,45,270,589,6016
1644179104.013778,-0.00885,0.009949,-0.989807,0.236122,0.340763,-0.069924,48,271,585,6000
1644179104.066236,-0.011047,0.010437,-0.992126,0.251389,0.264427,-0.115725,53,279,585,6048
1644179104.110515,-0.010742,0.009888,-0.992798,0.312458,0.340763,-0.14626,49,282,582,6128
1644179104.15889,-0.010742,0.009399,-0.989624,0.159786,0.478168,-0.130992,48,271,583,6064
1644179104.207288,-0.005493,0.010925,-0.98938,0.342992,0.523969,-0.176794,48,279,583,6080
1644179104.255715,-0.009766,0.008301,-0.988586,0.205588,0.264427,-0.115725,43,286,585,6048
1644179104.304102,-0.00592,0.00946,-0.99408,0.190321,0.539237,-0.192061,43,288,585,6000
1644179104.352494,-0.00708,0.011475,-0.993713,0.175053,0.325496,-0.054656,51,276,601,6112
1644179104.400841,-0.009827,0.010376,-0.987427,0.236122,0.462901,0.052214,45,282,589,6064
1644179104.449273,-0.006897,0.012207,-0.99115,0.175053,0.386565,-0.069924,54,277,584,6016
1644179104.497672,-0.011047,0.011597,-0.994812,0.205588,0.417099,-0.054656,51,279,583,6000
1644179104.546061,-0.008606,0.007263,-0.992371,0.373527,0.401832,-0.069924,58,283,587,6112
1644179104.594447,-0.008606,0.010071,-0.994141,0.144519,0.417099,-0.024122,51,271,597,6016
1644179104.642853,-0.007629,0.007629,-0.995544,0.220855,0.493435,-0.115725,51,276,583,6080
1644179104.691242,-0.007019,0.011536,-0.992798,0.266656,0.478168,0.098015,60,271,583,6016
1644179104.73971,-0.009033,0.013,-0.990845,0.129252,0.462901,-0.176794,46,274,585,6016
1644179104.790581,-0.006958,0.010437,-0.990417,0.08345,0.325496,-0.085191,41,264,587,6064
1644179104.841307,-0.00708,0.008789,-0.989014,0.281924,0.508702,-0.085191,53,274,578,6048
1644179104.886036,-0.005737,0.007568,-0.98938,0.159786,0.294962,-0.054656,39,276,580,6064
1644179104.981625,-0.008301,0.01001,-0.995117,0.35826,0.264427,-0.130992,53,269,585,6048
1644179105.02999,-0.009094,0.009827,-0.990906,0.190321,0.386565,-0.192061,41,271,583,6016
1644179105.079493,-0.008667,0.011292,-0.990173,0.205588,0.356031,-0.039389,51,274,587,6016
1644179105.126757,-0.009949,0.009644,-0.989441,0.312458,0.386565,0.021679,47,285,579,6048
1644179105.17518,-0.006409,0.009338,-0.993103,0.342992,0.264427,-0.100458,45,290,579,6000
1644179105.223543,-0.007996,0.008362,-0.989502,0.312458,0.340763,-0.115725,49,290,586,6080
1644179105.271914,-0.01001,0.009399,-0.992676,0.205588,0.462901,0.021679,52,270,579,6048
1644179105.320326,-0.009155,0.007324,-0.993469,0.236122,0.356031,-0.176794,47,285,582,6080
1644179105.368708,-0.011597,0.009766,-0.990479,0.312458,0.417099,-0.100458,48,281,587,6016
1644179105.417114,-0.00769,0.009521,-0.992004,0.342992,0.401832,-0.176794,52,285,582,6080
1644179105.465517,-0.009033,0.008118,-0.993103,0.251389,0.294962,-0.192061,54,273,589,6048
1644179105.516298,-0.009888,0.010925,-0.994751,0.205588,0.371298,-0.085191,33,277,582,6048
1644179105.562318,-0.008789,0.008789,-0.990784,0.068183,0.386565,-0.130992,45,275,579,6080
1644179105.610683,-0.005676,0.008179,-0.991394,0.281924,0.493435,-0.237863,43,283,592,6064
1644179105.659045,-0.009094,0.01062,-0.990356,0.175053,0.356031,-0.176794,39,279,587,6016
1644179105.70747,-0.0047,0.010742,-0.991089,0.205588,0.294962,-0.14626,55,279,583,6080
1644179105.755827,-0.008789,0.008423,-0.991211,0.251389,0.386565,-0.039389,47,280,586,6080
1644179105.804685,-0.008057,0.009399,-0.992493,0.266656,0.417099,-0.115725,46,276,587,6016
1644179105.852726,-0.005371,0.008728,-0.989136,0.342992,0.417099,-0.039389,46,288,585,6048
1644179105.902756,-0.009399,0.010376,-0.989014,0.251389,0.462901,-0.161527,45,277,579,6080
1644179105.952995,-0.00824,0.011353,-0.991821,0.312458,0.447634,-0.054656,41,279,587,6016
1644179106.003659,-0.008118,0.009216,-0.990234,0.327725,0.401832,0.067481,54,275,586,5952
1644179106.095137,-0.011902,0.010864,-0.993835,0.281924,0.371298,-0.14626,43,279,587,6080
1644179106.143015,-0.00708,0.010498,-0.990906,0.205588,0.508702,-0.115725,48,286,590,6064
1644179106.191385,-0.010559,0.012329,-0.991638,0.205588,0.462901,-0.069924,47,273,582,6048
1644179106.239744,-0.010376,0.007996,-0.990784,0.205588,0.340763,0.006412,55,266,587,6048
1644179106.288137,-0.007629,0.009949,-0.992432,0.144519,0.447634,-0.115725,49,277,575,5984
1644179106.336566,-0.010498,0.009888,-0.989258,0.266656,0.371298,-0.100458,47,275,591,6080
1644179106.384998,-0.010681,0.00946,-0.994751,0.251389,0.478168,-0.192061,53,276,578,6112
1644179106.433357,-0.008179,0.010742,-0.991272,0.175053,0.386565,0.006412,58,271,592,6064
1644179106.481747,-0.008057,0.01001,-0.990723,0.342992,0.203359,-0.176794,40,292,577,5984
1644179106.530139,-0.008667,0.009888,-0.990906,0.281924,0.294962,0.021679,52,273,586,6080
1644179106.578529,-0.009827,0.007141,-0.992065,0.266656,0.401832,-0.008855,61,275,582,6064
1644179106.626924,-0.00769,0.00708,-0.992065,0.297191,0.340763,-0.207328,43,283,571,6000
1644179106.675308,-0.008972,0.01178,-0.992676,0.281924,0.493435,-0.161527,52,282,589,6064
1644179106.723719,-0.007874,0.007202,-0.990479,0.297191,0.386565,-0.14626,59,273,586,6048
1644179106.772081,-0.007507,0.00769,-0.991333,0.144519,0.462901,-0.268397,54,282,589,6048
1644179106.820527,-0.008423,0.009216,-0.992249,0.312458,0.279695,-0.008855,46,274,587,6016
1644179106.868911,-0.010071,0.009949,-0.992493,0.251389,0.447634,-0.039389,41,276,583,6016
1644179106.917613,-0.00946,0.007019,-0.992432,0.129252,0.447634,-0.298931,51,281,597,6048
1644179106.965719,-0.009277,0.013123,-0.989868,0.08345,0.371298,-0.008855,48,279,580,6080
1644179107.06706,-0.006165,0.012146,-0.993469,0.327725,0.325496,0.006412,40,273,593,6048
1644179107.110823,-0.00592,0.01239,-0.990845,0.08345,0.356031,-0.115725,47,268,586,6112
1644179107.15922,-0.008972,0.010986,-0.989136,0.037649,0.432366,-0.024122,52,275,579,6064
1644179107.20762,-0.008545,0.009521,-0.991028,0.297191,0.462901,-0.176794,60,286,585,6064
1644179107.255995,-0.010742,0.008911,-0.990845,0.236122,0.432366,-0.222595,46,281,580,6016
1644179107.304417,-0.009521,0.011108,-0.991699,0.220855,0.401832,0.082748,45,277,579,6016
1644179107.352814,-0.00824,0.005615,-0.992798,0.113985,0.447634,-0.207328,46,283,585,6080
1644179107.401203,-0.00946,0.012024,-0.990967,0.113985,0.325496,-0.130992,54,268,584,6016
1644179107.449592,-0.011169,0.007568,-0.991821,0.388794,0.523969,-0.161527,38,277,584,6048
1644179107.497964,-0.008667,0.011658,-0.993652,0.159786,0.447634,-0.25313,42,275,591,6048
1644179107.546369,-0.007019,0.012329,-0.990662,0.312458,0.340763,-0.192061,52,280,598,6128
1644179107.594774,-0.009033,0.009094,-0.993103,0.404061,0.417099,0.036947,45,287,577,5984
1644179107.643158,-0.008789,0.008362,-0.994019,0.266656,0.539237,-0.100458,46,274,585,5984
1644179107.691537,-0.007019,0.009949,-0.990417,0.312458,0.386565,-0.024122,42,280,579,5952
1644179107.739936,-0.009583,0.007629,-0.990723,0.205588,0.371298,-0.237863,43,266,592,6112
1644179107.788332,-0.010315,0.00946,-0.990723,0.205588,0.386565,-0.130992,46,274,590,6080
1644179107.836753,-0.00885,0.009033,-0.991577,0.007115,0.24916,0.036947,49,280,589,6064
1644179107.886921,-0.008545,0.011536,-0.992126,0.220855,0.340763,-0.024122,49,273,579,6048
1644179107.937264,-0.009338,0.008484,-0.993164,0.251389,0.310229,-0.024122,49,265,584,6048
1644179107.987238,-0.011353,0.006653,-0.989868,0.190321,0.417099,-0.008855,51,283,585,6064
1644179108.031674,-0.010254,0.009521,-0.993347,0.236122,0.401832,-0.237863,46,286,580,6080
1644179108.127103,-0.01001,0.009033,-0.993042,0.205588,0.523969,-0.14626,41,283,587,6048
1644179108.175436,-0.006836,0.008606,-0.994202,0.205588,0.432366,-0.024122,48,283,587,6048
1644179108.223856,-0.009033,0.009094,-0.990784,0.297191,0.508702,-0.039389,47,277,589,5952
1644179108.272382,-0.010681,0.00647,-0.991821,0.175053,0.157557,-0.085191,41,271,583,6000
1644179108.320617,-0.010925,0.008179,-0.991333,0.175053,0.386565,-0.085191,43,276,590,6016
1644179108.369028,-0.010071,0.009644,-0.992554,0.159786,0.356031,-0.14626,52,275,584,5984
1644179108.417424,-0.008057,0.011719,-0.991394,0.190321,0.356031,-0.130992,45,285,589,6000
1644179108.46581,-0.008667,0.008118,-0.991821,0.327725,0.401832,-0.024122,55,276,587,6016
1644179108.514224,-0.010803,0.011414,-0.989929,0.190321,0.386565,-0.024122,36,276,583,5984
1644179108.562632,-0.007019,0.008179,-0.993469,0.220855,0.447634,-0.054656,46,274,580,5984
1644179108.610996,-0.011658,0.009827,-0.991882,0.068183,0.432366,0.021679,48,291,585,6000
1644179108.659387,-0.008057,0.008911,-0.992859,-0.008153,0.432366,0.052214,43,269,585,6048
1644179108.707771,-0.00946,0.009338,-0.990417,-0.008153,0.310229,-0.069924,48,279,580,6064
1644179108.756155,-0.010681,0.01123,-0.993103,0.205588,0.493435,0.021679,59,275,584,6000
1644179108.804549,-0.00592,0.010193,-0.993164,0.266656,0.493435,-0.207328,42,270,598,6016
1644179108.85302,-0.01001,0.010254,-0.989502,0.327725,0.417099,-0.161527,49,290,582,6080
1644179108.901395,-0.010925,0.009521,-0.990051,0.312458,0.401832,-0.130992,40,277,586,5984
1644179108.949761,-0.008667,0.010193,-0.993469,0.068183,0.432366,-0.176794,47,280,591,6048
1644179108.998174,-0.011353,0.010803,-0.99353,0.205588,0.417099,-0.069924,53,281,594,6048
1644179109.061628,-0.008972,0.008362,-0.991882,0.266656,0.462901,-0.161527,55,269,585,6112
1644179109.1034,-0.008606,0.009094,-0.989929,0.113985,0.401832,-0.298931,52,280,584,6048
1644179109.148786,-0.007507,0.009583,-0.991455,0.190321,0.264427,-0.14626,39,271,587,6016
1644179109.192289,-0.01062,0.007751,-0.99292,0.175053,0.386565,-0.176794,49,273,584,6048
1644179109.288475,-0.010864,0.00824,-0.993042,0.007115,0.279695,-0.054656,51,274,597,6016
1644179109.336857,-0.011658,0.01001,-0.992676,0.205588,0.417099,-0.161527,39,279,576,6016
1644179109.385389,-0.011841,0.008911,-0.989563,0.113985,0.493435,-0.192061,53,283,578,6016
1644179109.433678,-0.011719,0.00824,-0.99469,0.281924,0.447634,-0.008855,46,259,583,6080
1644179109.482056,-0.010071,0.012695,-0.992554,0.129252,0.294962,-0.085191,49,280,584,6016
1644179109.530445,-0.008362,0.008911,-0.992859,0.281924,0.417099,-0.100458,47,292,582,6048
1644179109.578835,-0.008606,0.010437,-0.991516,0.175053,0.447634,-0.008855,49,280,593,6000
1644179109.627222,-0.008911,0.009949,-0.992065,0.312458,0.310229,-0.024122,47,277,579,5984
1644179109.675625,-0.007324,0.011169,-0.995728,0.144519,0.417099,-0.069924,51,281,587,6016
1644179109.724025,-0.009949,0.008789,-0.991699,0.388794,0.401832,-0.100458,49,280,591,5984
1644179109.772422,-0.00769,0.007751,-0.991333,0.266656,0.447634,-0.176794,45,273,586,5984
1644179109.820804,-0.010254,0.010193,-0.990967,0.205588,0.310229,-0.207328,42,275,575,6048
1644179109.869213,-0.006897,0.009583,-0.991272,0.342992,0.432366,-0.176794,43,279,590,6048
1644179109.917631,-0.00708,0.010193,-0.993591,0.205588,0.386565,-0.268397,53,281,580,6128
1644179109.965996,-0.006897,0.00824,-0.991333,0.251389,0.554504,-0.085191,52,280,577,6048
1644179110.014418,-0.008606,0.009399,-0.991699,0.220855,0.356031,-0.176794,47,275,582,6064
1644179110.095488,-0.011108,0.007935,-0.992676,0.175053,0.432366,-0.161527,54,282,584,6128
1644179110.159565,-0.009949,0.008362,-0.992737,0.236122,0.478168,-0.008855,49,280,584,6048
1644179110.207938,-0.008179,0.009399,-0.992126,0.220855,0.279695,-0.054656,45,277,586,6000
1644179110.256312,-0.007263,0.010681,-0.989502,0.205588,0.371298,-0.115725,46,269,585,5984
1644179110.304855,-0.008057,0.010559,-0.992004,0.297191,0.371298,-0.176794,48,269,587,6016
1644179110.353132,-0.009338,0.01178,-0.993286,0.190321,0.401832,-0.054656,49,277,586,6048
1644179110.401518,-0.008728,0.010132,-0.990723,0.251389,0.447634,-0.14626,51,276,576,6016
1644179110.449909,-0.00885,0.009521,-0.993896,0.190321,0.279695,-0.130992,40,277,572,6064
1644179110.498305,-0.012085,0.010254,-0.990234,0.144519,0.554504,0.052214,51,271,585,6048
1644179110.546686,-0.007385,0.009949,-0.992126,0.297191,0.401832,-0.085191,48,276,580,6048
1644179110.595197,-0.007446,0.007996,-0.990845,0.373527,0.417099,-0.161527,43,286,592,6016
1644179110.643477,-0.009888,0.01178,-0.991211,0.236122,0.478168,-0.207328,47,275,582,5984
1644179110.691865,-0.007629,0.008667,-0.993591,0.159786,0.356031,-0.161527,43,276,585,6016
1644179110.740258,-0.009216,0.01062,-0.990356,0.190321,0.386565,-0.14626,39,271,578,6064
1644179110.78864,-0.009094,0.005798,-0.990234,0.068183,0.279695,-0.008855,47,273,584,6016
1644179110.837053,-0.011292,0.009277,-0.990234,0.144519,0.478168,0.006412,53,286,590,6016
1644179110.885481,-0.010437,0.010742,-0.99176,0.220855,0.356031,-0.14626,41,281,578,6160
1644179110.933867,-0.009583,0.011108,-0.991211,0.159786,0.508702,-0.176794,53,288,578,5984
1644179110.982241,-0.007812,0.010315,-0.991882,0.205588,0.356031,-0.069924,42,282,584,6048
1644179111.030663,-0.007446,0.01062,-0.990417,0.434595,0.401832,-0.085191,55,269,578,6080
1644179111.086746,-0.00946,0.009644,-0.990356,0.113985,0.294962,-0.161527,40,280,584,6064
1644179111.13061,-0.006714,0.010925,-0.994629,0.281924,0.401832,-0.115725,47,275,582,6080
1644179111.180777,-0.006958,0.010925,-0.994385,0.297191,0.508702,-0.024122,58,271,576,6016
1644179111.225435,-0.009766,0.009583,-0.992737,0.480397,0.432366,-0.008855,43,288,583,6080
1644179111.321,-0.00769,0.010925,-0.991455,0.297191,0.401832,-0.237863,49,277,582,6016
1644179111.369397,-0.009583,0.009521,-0.992004,0.297191,0.447634,-0.115725,48,279,583,6016
1644179111.417782,-0.007446,0.007263,-0.993713,0.220855,0.386565,-0.069924,43,283,590,5952
1644179111.466181,-0.009888,0.010315,-0.990906,0.220855,0.462901,-0.100458,55,286,585,6080
1644179111.514628,-0.008118,0.009644,-0.99115,0.205588,0.233893,-0.039389,51,276,583,6112
1644179111.562986,-0.009033,0.00885,-0.99176,0.220855,0.279695,0.006412,49,273,584,6080
1644179111.611361,-0.008118,0.00708,-0.991028,0.388794,0.24916,0.006412,46,266,587,6048
1644179111.659737,-0.009399,0.007446,-0.992493,0.190321,0.523969,-0.085191,46,281,580,6080
1644179111.708152,-0.010193,0.009338,-0.990234,0.129252,0.478168,0.021679,48,286,585,6016
1644179111.756527,-0.011047,0.009338,-0.989868,0.205588,0.172824,-0.130992,36,276,585,6048
1644179111.804957,-0.007996,0.008606,-0.989563,0.205588,0.432366,-0.222595,46,279,583,6080
1644179111.853312,-0.007629,0.008301,-0.993408,0.342992,0.279695,-0.054656,40,277,584,6016
1644179111.901707,-0.008728,0.008606,-0.993042,0.266656,0.340763,0.036947,45,277,586,6064
1644179111.950114,-0.00946,0.009705,-0.991089,0.35826,0.356031,-0.130992,52,282,589,6016
1644179111.998459,-0.005432,0.009521,-0.989746,0.236122,0.386565,-0.024122,52,277,579,5984
1644179112.061285,-0.007385,0.007263,-0.990601,0.312458,0.264427,-0.207328,41,271,585,6080
1644179112.095378,-0.007446,0.008667,-0.992432,0.404061,0.493435,-0.176794,45,275,591,6080
1644179112.143621,-0.008057,0.009338,-0.990173,0.236122,0.401832,-0.161527,34,276,580,5984
1644179112.192697,-0.010132,0.010376,-0.989929,0.205588,0.264427,-0.14626,54,265,579,6080
1644179112.241634,-0.010559,0.010193,-0.991516,0.35826,0.401832,-0.039389,41,274,585,6048
1644179112.291885,-0.006165,0.010864,-0.989258,0.190321,0.646107,-0.115725,51,271,576,5984
1644179112.342229,-0.008728,0.01178,-0.992371,0.144519,0.493435,0.006412,43,286,583,6048
1644179112.434009,-0.010071,0.008301,-0.995239,0.190321,0.325496,-0.100458,49,280,591,6016
1644179112.482365,-0.007629,0.007507,-0.990723,0.236122,0.264427,-0.024122,53,271,583,6048
1644179112.530768,-0.005981,0.006531,-0.990479,0.144519,0.188092,-0.039389,49,277,582,6080
1644179112.579147,-0.007874,0.009766,-0.994019,0.205588,0.417099,-0.161527,54,285,586,6048
1644179112.627541,-0.007324,0.009521,-0.989685,0.35826,0.417099,-0.192061,49,275,584,6048
1644179112.675945,-0.010681,0.009338,-0.990662,0.068183,0.401832,-0.237863,40,273,579,5952
1644179112.724341,-0.009705,0.010437,-0.994385,0.327725,0.310229,-0.192061,45,280,591,6016
1644179112.772752,-0.010803,0.009033,-0.993042,0.007115,0.325496,-0.100458,49,282,575,6080
1644179112.821138,-0.007385,0.009277,-0.992798,0.098718,0.356031,-0.130992,45,285,586,6016
1644179112.869579,-0.011902,0.010193,-0.991028,0.052916,0.371298,-0.25313,52,270,582,6000
1644179112.917958,-0.008118,0.011414,-0.991699,0.159786,0.310229,-0.222595,58,271,587,6080
1644179112.966345,-0.010925,0.012085,-0.991089,0.022382,0.325496,-0.115725,47,277,584,5984
1644179113.01475,-0.011414,0.010193,-0.991699,0.175053,0.371298,-0.054656,43,271,587,6000
1644179113.088194,-0.01062,0.009583,-0.990784,0.220855,0.310229,-0.130992,49,277,591,6064
1644179113.111721,-0.005737,0.011292,-0.992371,0.281924,0.508702,-0.085191,59,280,586,6016
1644179113.159863,-0.005493,0.007812,-0.990845,0.220855,0.417099,-0.039389,54,273,582,6048
1644179113.208227,-0.012085,0.011414,-0.993103,0.205588,0.386565,-0.176794,45,273,582,5984
1644179113.256682,-0.008423,0.009033,-0.991516,0.266656,0.279695,-0.039389,47,273,586,6048
1644179113.306382,-0.013306,0.010986,-0.992615,0.327725,0.325496,-0.054656,53,281,573,5984
1644179113.356731,-0.006958,0.00824,-0.991333,0.144519,0.539237,-0.024122,49,275,589,6080
1644179113.406854,-0.008545,0.00885,-0.993347,0.266656,0.447634,-0.008855,55,276,573,5984
1644179113.498611,-0.009766,0.00885,-0.991699,0.327725,0.432366,-0.207328,49,280,589,6064
1644179113.546974,-0.009827,0.009644,-0.990051,0.159786,0.218626,-0.222595,49,268,582,6048
1644179113.595363,-0.008667,0.009094,-0.994263,0.129252,0.462901,-0.14626,43,279,587,6048
1644179113.643773,-0.012024,0.008545,-0.991333,0.159786,0.432366,-0.14626,46,276,576,6048
1644179113.692369,-0.00769,0.010193,-0.990723,0.327725,0.447634,-0.069924,46,286,587,6048
1644179113.740571,-0.008057,0.008667,-0.99292,0.205588,0.294962,-0.130992,51,279,585,6048
1644179113.788964,-0.008179,0.00885,-0.991943,0.159786,0.478168,-0.222595,51,271,583,6128
1644179113.837375,-0.00592,0.009766,-0.990723,0.236122,0.493435,-0.085191,49,282,586,6064
1644179113.885793,-0.008789,0.01239,-0.99353,0.159786,0.493435,-0.054656,42,275,589,6000
1644179113.934206,-0.009094,0.010132,-0.987732,0.129252,0.432366,-0.024122,57,285,577,5952
1644179113.982598,-0.00708,0.009216,-0.992737,0.266656,0.264427,-0.14626,54,280,591,6048
1644179114.030972,-0.007324,0.009949,-0.993225,0.220855,0.325496,-0.008855,49,273,596,6000
1644179114.085389,-0.012756,0.01001,-0.992371,0.175053,0.325496,-0.130992,53,281,592,6016
1644179114.127728,-0.005737,0.007507,-0.992188,0.205588,0.508702,-0.054656,48,279,585,6080
1644179114.176098,-0.010315,0.01001,-0.994202,0.342992,0.386565,0.036947,49,270,577,6064
1644179114.2245,-0.008728,0.009094,-0.991272,0.190321,0.478168,-0.085191,55,276,597,6000
1644179114.273225,-0.009888,0.00769,-0.992493,0.327725,0.417099,-0.008855,60,271,590,6048
1644179114.321978,-0.011047,0.010376,-0.991028,0.205588,0.462901,0.036947,48,291,580,6000
1644179114.372621,-0.008667,0.01001,-0.991089,0.312458,0.233893,-0.085191,55,276,585,6112
1644179114.422923,-0.010132,0.01178,-0.988159,0.266656,0.386565,-0.115725,54,273,586,6016
1644179114.467672,-0.008545,0.011658,-0.992493,0.190321,0.417099,-0.268397,46,279,583,5952
1644179114.563228,-0.009216,0.006531,-0.991028,0.068183,0.417099,-0.069924,55,276,587,6112
1644179114.611632,-0.009033,0.01001,-0.991943,0.251389,0.386565,-0.161527,45,275,582,6016
1644179114.660002,-0.008423,0.011414,-0.991577,0.266656,0.417099,-0.069924,46,271,585,6080
1644179114.708417,-0.01001,0.008606,-0.991272,0.175053,0.401832,-0.192061,41,274,590,6000
1644179114.75679,-0.00824,0.008728,-0.991638,0.266656,0.340763,-0.100458,43,269,578,6016
1644179114.805193,-0.008362,0.010681,-0.990479,0.159786,0.493435,-0.069924,60,276,592,6016
1644179114.853638,-0.00946,0.009277,-0.991333,0.113985,0.371298,-0.085191,48,269,590,5984
1644179114.902022,-0.008118,0.008545,-0.992065,0.205588,0.554504,-0.192061,52,275,575,6048
1644179114.95042,-0.007507,0.010681,-0.991272,0.220855,0.157557,-0.130992,49,275,589,6048
1644179114.998778,-0.00708,0.009521,-0.987732,0.08345,0.478168,0.036947,51,276,585,6000
1644179115.06549,-0.009033,0.009827,-0.992798,0.08345,0.294962,-0.100458,52,287,598,5984
1644179115.095685,-0.009888,0.008789,-0.988403,0.08345,0.356031,-0.054656,51,279,583,6016
1644179115.143975,-0.008972,0.011841,-0.989258,0.312458,0.310229,0.021679,47,282,572,6016
1644179115.192358,-0.007385,0.009827,-0.992554,0.068183,0.508702,-0.054656,40,285,579,6064
1644179115.240706,-0.007629,0.008606,-0.990723,0.35826,0.371298,-0.115725,43,269,590,6000
1644179115.289124,-0.00946,0.009644,-0.991455,0.35826,0.478168,0.006412,53,271,573,6128
1644179115.337516,-0.007935,0.012451,-0.992065,0.129252,0.447634,-0.25313,52,277,589,6016
1644179115.385887,-0.006897,0.008789,-0.992859,0.236122,0.432366,-0.069924,57,290,575,6000
1644179115.434709,-0.006226,0.010986,-0.990723,0.159786,0.294962,-0.130992,59,280,591,5984
1644179115.48485,-0.008423,0.009949,-0.993835,-0.008153,0.417099,-0.14626,58,283,585,6016
1644179115.535153,-0.008789,0.008728,-0.993774,0.236122,0.371298,-0.085191,40,285,589,6016
1644179115.580251,-0.006592,0.011169,-0.991577,0.190321,0.340763,-0.161527,49,285,579,5984
1644179115.676239,-0.011658,0.010498,-0.988647,0.297191,0.310229,0.067481,45,273,586,6000
1644179115.724854,-0.008545,0.009094,-0.99292,0.35826,0.356031,0.006412,46,276,580,6080
1644179115.773052,-0.006592,0.011047,-0.991577,0.266656,0.432366,-0.008855,47,270,586,6048
1644179115.821432,-0.010376,0.007874,-0.991638,0.251389,0.478168,-0.222595,52,277,577,6048
1644179115.869874,-0.012024,0.010132,-0.99115,0.098718,0.523969,-0.130992,59,277,584,5984
1644179115.918251,-0.008972,0.011414,-0.992737,0.281924,0.478168,-0.115725,49,270,579,6016
1644179115.966635,-0.008789,0.010376,-0.991455,0.266656,0.340763,-0.14626,52,268,582,6016
1644179116.015073,-0.007324,0.011292,-0.992004,0.297191,0.539237,-0.130992,54,268,598,6112
1644179116.069808,-0.008972,0.008911,-0.99176,0.037649,0.478168,-0.008855,53,281,587,6016
1644179116.111816,-0.008484,0.007568,-0.993225,0.266656,0.432366,-0.069924,49,292,584,6064
1644179116.160154,-0.008301,0.012451,-0.98822,0.281924,0.294962,-0.024122,47,277,584,6048
1644179116.208583,-0.010742,0.010498,-0.99054,0.129252,0.356031,-0.069924,54,285,593,6016
1644179116.256972,-0.008728,0.007507,-0.993774,0.297191,0.325496,-0.054656,42,275,591,6112
1644179116.305345,-0.010437,0.011169,-0.991638,0.281924,0.447634,-0.115725,49,273,579,6000
1644179116.353755,-0.007996,0.007751,-0.990173,0.297191,0.417099,-0.130992,48,283,583,6048
1644179116.402234,-0.009888,0.008545,-0.992798,0.327725,0.478168,-0.14626,55,269,580,6000
1644179116.450514,-0.00708,0.010925,-0.990234,0.35826,0.432366,-0.237863,45,275,598,5984
1644179116.498897,-0.006409,0.009094,-0.991943,0.297191,0.432366,-0.115725,48,276,587,6048
1644179116.547312,-0.010437,0.007141,-0.990967,0.297191,0.417099,0.036947,52,282,591,6048
1644179116.595753,-0.010254,0.011597,-0.992065,0.281924,0.264427,-0.085191,45,280,586,6080
1644179116.646031,-0.005981,0.007202,-0.988831,0.129252,0.554504,0.006412,57,277,586,6080
1644179116.696733,-0.009705,0.009155,-0.992249,0.297191,0.447634,-0.314198,47,275,598,5984
1644179116.741389,-0.007446,0.012268,-0.991638,0.373527,0.264427,-0.207328,46,266,569,6048
1644179116.837668,-0.012329,0.011963,-0.993469,0.35826,0.386565,-0.176794,47,280,579,6016
1644179116.886091,-0.007141,0.01123,-0.990234,0.175053,0.447634,-0.192061,47,285,586,6016
1644179116.934489,-0.006592,0.010132,-0.990479,0.205588,0.401832,-0.085191,51,269,585,6080
1644179116.982896,-0.006714,0.010071,-0.992188,0.144519,0.386565,-0.161527,41,279,585,6016
1644179117.031242,-0.009094,0.009155,-0.991333,0.190321,0.447634,-0.069924,40,273,584,6016
1644179117.079898,-0.007812,0.007751,-0.99115,0.327725,0.371298,-0.069924,47,287,584,5984
1644179117.128036,-0.00946,0.009216,-0.990173,0.266656,0.371298,-0.100458,53,279,587,6080
1644179117.176419,-0.008301,0.012024,-0.990662,0.251389,0.340763,-0.085191,42,287,591,6080
1644179117.224816,-0.005554,0.009583,-0.992004,0.35826,0.401832,-0.207328,49,265,577,6048
1644179117.273206,-0.007507,0.010254,-0.993103,0.205588,0.356031,-0.100458,51,279,576,6080
1644179117.321591,-0.004944,0.011108,-0.992554,0.236122,0.340763,-0.176794,53,271,583,6016
1644179117.36999,-0.00592,0.009033,-0.994019,0.281924,0.325496,-0.085191,41,288,592,5984
1644179117.418339,-0.008606,0.009888,-0.991028,0.098718,0.24916,-0.161527,43,279,583,6016
1644179117.466766,-0.009338,0.012756,-0.992981,0.190321,0.371298,-0.054656,46,281,594,6080
1644179117.515196,-0.008423,0.009033,-0.991272,0.312458,0.356031,-0.192061,52,277,593,6016
1644179117.563553,-0.007507,0.007019,-0.992432,0.449863,0.447634,-0.024122,45,280,596,6080
1644179117.611924,-0.00885,0.009888,-0.993774,0.144519,0.310229,-0.039389,42,270,593,6080
1644179117.660331,-0.013245,0.008911,-0.992554,0.175053,0.371298,-0.085191,51,274,590,6000
1644179117.70901,-0.005615,0.008545,-0.990051,0.297191,0.294962,-0.100458,59,275,579,6080
1644179117.757872,-0.009583,0.006714,-0.990662,0.113985,0.432366,-0.161527,45,263,593,6064
1644179117.808414,-0.008179,0.010193,-0.99115,0.190321,0.447634,-0.054656,45,275,586,6048
1644179117.859101,-0.008606,0.010986,-0.994385,0.144519,0.447634,-0.024122,49,275,586,6048
1644179117.903923,-0.006958,0.00708,-0.991882,0.052916,0.386565,-0.069924,46,288,587,6048
1644179117.999126,-0.005859,0.009766,-0.991394,0.098718,0.462901,-0.039389,47,275,582,6048
1644179118.05854,-0.007507,0.012451,-0.990784,0.220855,0.264427,-0.161527,36,276,583,6000
1644179118.098644,-0.005981,0.011597,-0.991394,0.159786,0.310229,-0.207328,49,280,579,5984
1644179118.144291,-0.010132,0.009277,-0.991028,0.068183,0.386565,-0.085191,52,273,586,6064
1644179118.192669,-0.009766,0.010681,-0.992798,0.144519,0.447634,-0.100458,53,283,590,6048
1644179118.241053,-0.007874,0.010925,-0.989746,0.129252,0.417099,-0.085191,40,270,591,6000
1644179118.289444,-0.008118,0.01062,-0.992004,0.251389,0.24916,-0.207328,39,283,592,6000
1644179118.337826,-0.009888,0.009827,-0.991699,0.220855,0.447634,-0.008855,51,283,590,6048
1644179118.38622,-0.010254,0.009033,-0.990662,0.144519,0.386565,-0.069924,43,276,580,5984
1644179118.434644,-0.007324,0.008911,-0.994629,0.159786,0.462901,-0.100458,53,288,592,6016
1644179118.483021,-0.009705,0.007812,-0.993408,0.129252,0.294962,-0.069924,47,280,589,6080
1644179118.531713,-0.011353,0.009949,-0.993225,0.08345,0.432366,-0.14626,55,266,576,5984
1644179118.581068,-0.008118,0.010376,-0.992615,0.251389,0.615573,-0.039389,45,268,584,6080
1644179118.631512,-0.009766,0.009399,-0.99054,0.251389,0.356031,-0.115725,46,281,587,6080
1644179118.681778,-0.00824,0.011963,-0.98938,0.236122,0.371298,-0.100458,49,275,586,6048
1644179118.773385,-0.010376,0.011902,-0.990784,0.281924,0.356031,-0.268397,52,282,586,6048
1644179118.821743,-0.008362,0.009705,-0.99054,0.251389,0.401832,-0.25313,49,275,582,6048
1644179118.870151,-0.005859,0.011963,-0.989319,0.052916,0.478168,-0.161527,47,287,579,6080
1644179118.91856,-0.006226,0.011536,-0.990051,0.266656,0.432366,-0.039389,47,275,575,6064
1644179118.966961,-0.007874,0.009277,-0.992188,0.251389,0.447634,0.067481,54,265,589,6016
1644179119.015365,-0.007019,0.011414,-0.98877,0.205588,0.569771,0.021679,54,268,577,6000
1644179119.068857,-0.00824,0.01001,-0.990417,0.113985,0.325496,-0.100458,49,270,582,6016
1644179119.11209,-0.008972,0.010437,-0.991089,0.281924,0.356031,-0.085191,45,282,582,6000
1644179119.160514,-0.00647,0.010559,-0.992432,0.205588,0.188092,-0.207328,51,274,585,6080
1644179119.208895,-0.008484,0.008423,-0.992126,0.236122,0.493435,0.098015,45,275,577,6080
1644179119.257291,-0.010437,0.009827,-0.99231,0.144519,0.386565,-0.115725,46,271,585,6016
1644179119.305647,-0.007935,0.007141,-0.991333,0.281924,0.432366,-0.222595,51,286,592,6016
1644179119.354088,-0.008423,0.008911,-0.990173,0.312458,0.371298,0.067481,51,281,580,5984
1644179119.402462,-0.010193,0.007751,-0.991516,0.281924,0.401832,-0.130992,46,279,585,6048
1644179119.450845,-0.008423,0.010132,-0.990051,0.388794,0.432366,-0.161527,58,279,592,5984
1644179119.499242,-0.011108,0.011902,-0.992004,0.08345,0.493435,-0.161527,47,273,591,6160
1644179119.547633,-0.007324,0.010254,-0.991638,0.159786,0.508702,-0.069924,55,274,585,6080
1644179119.596037,-0.008667,0.007568,-0.993652,0.266656,0.325496,-0.100458,46,281,578,6128
1644179119.644418,-0.008728,0.009644,-0.990967,0.068183,0.401832,-0.25313,54,277,586,6160
1644179119.693141,-0.007935,0.00946,-0.994751,0.175053,0.493435,-0.161527,46,283,592,6048
1644179119.74361,-0.010315,0.009155,-0.991272,0.175053,0.478168,-0.237863,51,281,587,5984
1644179119.795194,-0.008667,0.00885,-0.993958,0.190321,0.264427,-0.161527,52,282,589,6064
1644179119.839165,-0.009338,0.009705,-0.993164,0.113985,0.523969,-0.039389,47,280,586,6016
1644179119.934968,-0.011292,0.008667,-0.990479,0.281924,0.478168,-0.14626,45,280,584,5984
1644179119.983217,-0.010925,0.008057,-0.990173,0.342992,0.340763,-0.069924,46,279,576,6080
1644179120.031571,-0.010681,0.009399,-0.989441,0.35826,0.325496,-0.069924,45,282,582,6016
1644179120.080069,-0.011292,0.007935,-0.991516,0.144519,0.462901,0.098015,52,290,593,6080
1644179120.128335,-0.011475,0.010986,-0.990356,0.297191,0.493435,-0.054656,52,277,577,5984
1644179120.176737,-0.009094,0.007935,-0.992065,0.312458,0.432366,-0.054656,46,283,585,6048
1644179120.225146,-0.010864,0.009583,-0.991943,0.190321,0.401832,-0.039389,49,285,589,6048
1644179120.273536,-0.008728,0.010315,-0.989258,0.175053,0.371298,-0.130992,48,266,580,6016
1644179120.32192,-0.006287,0.010315,-0.993591,0.068183,0.340763,-0.054656,47,285,589,6048
1644179120.370301,-0.00885,0.009521,-0.991882,0.266656,0.462901,-0.130992,49,280,584,6048
1644179120.418695,-0.008301,0.010315,-0.992371,0.251389,0.340763,-0.039389,38,277,598,6016
1644179120.467102,-0.007751,0.008301,-0.988037,0.236122,0.24916,-0.024122,38,277,589,6080
1644179120.515479,-0.007629,0.012146,-0.98999,0.129252,0.371298,-0.115725,43,279,587,6080
1644179120.563856,-0.006226,0.010864,-0.993042,0.113985,0.279695,-0.115725,55,279,585,6016
1644179120.61228,-0.009033,0.009399,-0.991821,0.404061,0.294962,-0.237863,52,285,586,6016
1644179120.660652,-0.010864,0.01062,-0.990784,0.205588,0.371298,-0.100458,55,271,597,6048
1644179120.709048,-0.007507,0.009277,-0.992004,0.129252,0.356031,-0.069924,53,276,580,6048
1644179120.757477,-0.009827,0.007019,-0.993164,0.175053,0.417099,-0.085191,55,271,587,6080
1644179120.807655,-0.010376,0.010315,-0.991455,0.297191,0.371298,-0.024122,45,280,579,6016
1644179120.85867,-0.010437,0.00769,-0.995483,0.098718,0.325496,-0.161527,49,280,575,6016
1644179120.908349,-0.009094,0.007446,-0.993225,0.251389,0.432366,-0.14626,42,275,582,6016
1644179120.99943,-0.010925,0.008667,-0.994019,0.129252,0.417099,-0.008855,53,279,590,5984
1644179120.99943,-0.010925,0.008667,-0.994019,0.129252,0.417099,-0.008855,53,279,590,5984
1644179121.098566,-0.012573,0.013,-0.991455,0.220855,0.325496,-0.14626,48,276,599,6064
1644179121.144716,-0.012817,0.008667,-0.99176,0.144519,0.203359,-0.115725,52,273,575,5984
1644179121.192987,-0.010559,0.011047,-0.993103,0.220855,0.401832,-0.024122,45,282,589,6016
1644179121.241361,-0.008667,0.011963,-0.992615,0.175053,0.340763,-0.14626,38,282,593,6064
1644179121.289752,-0.007202,0.008911,-0.993225,0.266656,0.371298,-0.039389,57,277,586,6016
1644179121.338141,-0.008911,0.009155,-0.989746,0.175053,0.340763,-0.222595,53,264,587,6000
1644179121.386533,-0.01123,0.009155,-0.992065,0.373527,0.310229,-0.100458,45,285,591,5984
1644179121.434921,-0.009644,0.006958,-0.991028,0.327725,0.310229,-0.14626,53,279,587,6080
1644179121.483324,-0.007202,0.009277,-0.990723,0.144519,0.340763,-0.130992,43,281,583,5984
1644179121.5319,-0.007629,0.00885,-0.989502,0.236122,0.401832,-0.100458,51,271,587,6080
1644179121.582529,-0.007996,0.009155,-0.990479,0.251389,0.432366,-0.130992,43,283,585,6048
1644179121.6328,-0.008545,0.012207,-0.992554,0.327725,0.310229,-0.069924,45,287,593,6016
1644179121.677629,-0.006958,0.00824,-0.990173,0.205588,0.279695,-0.100458,52,273,584,5984
1644179121.773692,-0.00946,0.008484,-0.993164,0.175053,0.417099,-0.25313,52,275,582,6048
1644179121.822075,-0.010376,0.009888,-0.989563,0.190321,0.356031,-0.085191,45,275,586,6080
1644179121.870492,-0.010559,0.009644,-0.99231,0.144519,0.371298,0.006412,57,280,579,6048
1644179121.918862,-0.008301,0.011536,-0.992432,0.342992,0.386565,-0.237863,46,274,585,6048
1644179121.967285,-0.005859,0.009277,-0.993103,0.08345,0.508702,-0.085191,45,282,591,6016
1644179122.015641,-0.008545,0.007874,-0.990662,0.251389,0.279695,-0.008855,47,275,577,6016
1644179122.069387,-0.011597,0.010437,-0.992188,0.175053,0.417099,-0.039389,45,277,591,6000
1644179122.112497,-0.010681,0.009705,-0.992065,0.159786,0.371298,-0.054656,54,277,584,6064
1644179122.160807,-0.009644,0.008118,-0.992981,0.266656,0.554504,-0.192061,48,276,583,6000
1644179122.209207,-0.00824,0.008545,-0.991028,0.113985,0.386565,-0.008855,41,281,590,5936
1644179122.257594,-0.00824,0.007874,-0.994507,0.327725,0.493435,-0.024122,45,277,591,6080
1644179122.305983,-0.009827,0.006836,-0.990417,0.35826,0.279695,-0.008855,48,281,590,5984
1644179122.354389,-0.008118,0.009399,-0.994202,0.190321,0.447634,-0.024122,51,279,576,6064
1644179122.40279,-0.009216,0.00946,-0.992554,0.129252,0.493435,-0.161527,43,279,585,6048
1644179122.451138,-0.012512,0.008789,-0.993103,0.297191,0.417099,-0.024122,51,279,585,6016
1644179122.499556,-0.011719,0.008728,-0.990234,0.205588,0.279695,-0.008855,48,281,583,6000
1644179122.547955,-0.00885,0.007385,-0.990601,0.373527,0.417099,-0.161527,48,279,590,6080
1644179122.596361,-0.008911,0.00647,-0.995239,0.205588,0.310229,-0.085191,41,276,590,6080
1644179122.644747,-0.01001,0.010803,-0.99231,0.113985,0.447634,-0.115725,49,277,582,6112
1644179122.693443,-0.009888,0.010681,-0.993896,0.129252,0.401832,-0.222595,41,283,594,6016
1644179122.743884,-0.010071,0.007751,-0.993286,0.159786,0.386565,-0.14626,52,273,586,6016
1644179122.793963,-0.008606,0.009766,-0.992859,0.236122,0.371298,-0.069924,48,269,587,6112
1644179122.839524,-0.006409,0.007019,-0.992859,0.175053,0.478168,-0.115725,49,275,577,6048
1644179122.935363,-0.00708,0.008728,-0.992798,0.388794,0.478168,-0.085191,48,288,594,6048
1644179122.983538,-0.008728,0.012451,-0.990173,0.190321,0.554504,-0.008855,47,282,589,6016
1644179123.031915,-0.010315,0.008728,-0.99054,0.144519,0.417099,-0.008855,48,281,590,6016
1644179123.080484,-0.008545,0.010681,-0.992554,0.251389,0.264427,-0.283664,54,270,589,6016
1644179123.1287,-0.007629,0.005798,-0.992554,0.190321,0.539237,-0.298931,51,279,583,6016
1644179123.177046,-0.011475,0.007263,-0.991211,0.281924,0.386565,-0.008855,55,281,585,6080
1644179123.225423,-0.009094,0.008972,-0.99115,0.251389,0.462901,-0.222595,48,271,571,6048
1644179123.273808,-0.009705,0.010498,-0.993347,0.281924,0.325496,-0.069924,46,283,590,6064
1644179123.322237,-0.011047,0.009338,-0.990112,0.281924,0.386565,-0.039389,48,269,585,6016
1644179123.370621,-0.009277,0.009216,-0.992065,0.129252,0.294962,-0.115725,65,266,585,5952
1644179123.419018,-0.010132,0.009399,-0.991943,0.281924,0.310229,-0.192061,40,282,586,6016
1644179123.467406,-0.009644,0.008728,-0.99115,0.251389,0.356031,-0.069924,51,271,590,6000
1644179123.515796,-0.009033,0.01178,-0.992371,0.388794,0.401832,-0.054656,48,266,592,6048
1644179123.564197,-0.011414,0.009644,-0.993286,0.08345,0.356031,-0.176794,51,271,583,6080
1644179123.612593,-0.007996,0.00885,-0.991699,0.251389,0.478168,-0.100458,39,281,587,6016
1644179123.660947,-0.008484,0.011719,-0.993958,0.312458,0.356031,-0.25313,51,269,580,6016
1644179123.709342,-0.007202,0.011658,-0.991394,0.190321,0.310229,-0.130992,53,281,590,6064
1644179123.757749,-0.009949,0.007446,-0.991455,0.327725,0.325496,-0.100458,47,273,584,6064
1644179123.806149,-0.008667,0.009338,-0.991882,0.327725,0.417099,-0.130992,41,276,583,6048
1644179123.855242,-0.011047,0.011047,-0.990417,0.281924,0.508702,-0.100458,51,271,592,6000
1644179123.906164,-0.007507,0.010742,-0.991577,0.144519,0.447634,-0.268397,40,277,584,6064
1644179123.957095,-0.009827,0.010071,-0.99115,0.312458,0.401832,-0.14626,47,277,602,6064
1644179124.06048,-0.00885,0.00824,-0.992981,0.205588,0.432366,-0.176794,49,282,575,6048
1644179124.100475,-0.011108,0.00946,-0.993164,0.342992,0.386565,0.006412,51,274,583,6000
1644179124.14492,-0.007568,0.009216,-0.99231,0.190321,0.447634,-0.100458,47,280,575,6112
1644179124.193307,-0.008057,0.011353,-0.99231,0.312458,0.432366,-0.054656,52,273,586,6048
1644179124.241671,-0.007751,0.007874,-0.993103,0.251389,0.386565,-0.130992,47,280,589,6064
1644179124.290056,-0.010193,0.009888,-0.994385,0.144519,0.447634,-0.039389,42,273,586,6064
1644179124.338698,-0.009033,0.008545,-0.990295,0.190321,0.447634,-0.054656,45,268,589,6016
1644179124.387465,-0.006714,0.010315,-0.990906,0.113985,0.447634,-0.268397,48,274,587,6016
1644179124.435312,-0.010193,0.011597,-0.991943,0.159786,0.493435,0.067481,48,271,597,6112
1644179124.483639,-0.006653,0.010132,-0.994812,0.129252,0.401832,-0.222595,51,283,587,6080
1644179124.532029,-0.011658,0.00769,-0.991272,0.236122,0.294962,-0.130992,46,274,587,6080
1644179124.580429,-0.009827,0.008484,-0.992859,0.251389,0.615573,-0.039389,53,276,594,6016
1644179124.629028,-0.008728,0.011536,-0.989807,0.281924,0.493435,-0.069924,43,276,587,6048
1644179124.677876,-0.007507,0.010864,-0.991394,0.281924,0.401832,-0.024122,47,265,582,6128
1644179124.728397,-0.008728,0.011047,-0.993225,0.266656,0.401832,-0.085191,57,265,582,6016
1644179124.778653,-0.009766,0.011292,-0.992798,0.175053,0.310229,-0.115725,59,263,584,6000
1644179124.823506,-0.005249,0.010376,-0.99115,0.220855,0.432366,-0.024122,40,265,579,6048
1644179124.919214,-0.007507,0.012085,-0.99353,0.037649,0.493435,-0.100458,49,273,589,6016
1644179124.967585,-0.013062,0.011719,-0.990295,0.129252,0.447634,-0.207328,48,286,587,6048
1644179125.015993,-0.00885,0.009766,-0.991882,0.205588,0.401832,-0.161527,60,269,573,6016
1644179125.064532,-0.007141,0.009949,-0.990967,0.220855,0.294962,-0.192061,57,285,575,6016
1644179125.11274,-0.00946,0.007812,-0.994629,0.266656,0.371298,-0.176794,41,274,590,6016
1644179125.161158,-0.008423,0.009766,-0.992432,0.190321,0.478168,-0.161527,47,275,589,6016
1644179125.209565,-0.011292,0.01123,-0.992249,0.388794,0.401832,-0.14626,51,281,590,6000
1644179125.257928,-0.009155,0.009583,-0.991638,0.266656,0.432366,0.006412,40,263,572,6064
1644179125.306317,-0.008118,0.008179,-0.99054,0.312458,0.417099,-0.161527,45,280,577,6048
1644179125.354747,-0.008911,0.010559,-0.992798,0.404061,0.386565,-0.115725,41,298,578,6080
1644179125.403121,-0.01001,0.010376,-0.992065,0.175053,0.417099,-0.100458,54,268,589,6112
1644179125.451524,-0.007629,0.009216,-0.992859,0.220855,0.462901,-0.161527,58,279,590,6080
1644179125.499943,-0.009155,0.007141,-0.992798,0.175053,0.340763,-0.268397,55,288,571,6048
1644179125.548317,-0.009949,0.007629,-0.992737,0.220855,0.447634,0.006412,52,273,584,6064
1644179125.596704,-0.010132,0.009338,-0.990234,0.251389,0.218626,-0.100458,54,277,579,6048
1644179125.645127,-0.008118,0.008301,-0.992798,0.281924,0.371298,-0.115725,46,276,592,6016
1644179125.693488,-0.012451,0.008606,-0.989258,0.190321,0.371298,-0.207328,62,279,592,5984
1644179125.742226,-0.01239,0.010864,-0.992249,0.312458,0.462901,-0.314198,46,271,590,6048
1644179125.790599,-0.005981,0.009766,-0.992004,0.251389,0.417099,-0.100458,51,283,578,6016
1644179125.840417,-0.008362,0.008301,-0.992615,0.526198,0.340763,-0.008855,55,271,597,5984
1644179125.890631,-0.00946,0.00946,-0.992126,0.205588,0.264427,-0.314198,47,275,579,6112
1644179125.940825,-0.001892,0.014832,-0.990906,0.220855,0.279695,-0.192061,51,274,578,6064
1644179125.985524,-0.012024,0.012817,-0.991272,0.480397,0.707176,0.082748,43,262,583,6016
1644179126.084651,-0.003784,0.008606,-0.994751,0.35826,0.447634,-0.054656,47,277,593,5952
1644179126.128971,-0.010681,0.005371,-0.99585,0.175053,0.600305,0.082748,48,274,578,6048
1644179126.177366,-0.009827,0.009644,-0.993896,0.052916,0.203359,-0.222595,49,277,589,6112
1644179126.225752,-0.00885,0.012878,-0.989319,0.404061,0.493435,0.052214,43,279,590,6080
1644179126.274145,-0.010315,0.006531,-0.992981,0.281924,0.371298,-0.222595,54,270,589,6064
1644179126.322562,-0.012207,0.010559,-0.993225,0.251389,0.432366,-0.207328,54,280,577,6016
1644179126.37094,-0.00708,0.007446,-0.993164,0.342992,0.340763,-0.054656,48,266,585,6064
1644179126.419335,-0.011536,0.009399,-0.991943,0.159786,0.462901,-0.283664,51,269,592,6016
1644179126.467722,-0.009644,0.00946,-0.993164,0.113985,0.462901,-0.085191,43,276,587,6064
1644179126.516125,-0.009277,0.008972,-0.992798,0.404061,0.508702,-0.192061,54,265,577,5984
1644179126.564529,-0.007812,0.008484,-0.992798,0.236122,0.340763,-0.176794,45,280,579,6048
1644179126.612926,-0.006226,0.008423,-0.989868,0.327725,0.462901,0.021679,47,277,584,6080
1644179126.661259,-0.008728,0.008057,-0.990417,0.159786,0.478168,-0.176794,57,275,589,5984
1644179126.709656,-0.011292,0.01123,-0.990356,0.251389,0.340763,-0.161527,49,277,589,6080
1644179126.758067,-0.008728,0.008179,-0.994446,0.08345,0.569771,0.006412,47,280,582,6064
1644179126.806724,-0.010681,0.007568,-0.991211,0.266656,0.432366,-0.115725,35,277,579,6048
1644179126.855776,-0.011047,0.008972,-0.992004,0.205588,0.325496,-0.115725,42,273,582,6000
1644179126.906173,-0.009766,0.010132,-0.992065,0.251389,0.325496,0.021679,54,270,577,6000
1644179126.957138,-0.009338,0.011047,-0.992737,0.144519,0.508702,-0.25313,48,271,583,6080
1644179127.001187,-0.008972,0.006531,-0.990051,0.220855,0.371298,-0.039389,46,274,587,6064
1644179127.097344,-0.009766,0.011047,-0.991699,0.220855,0.386565,0.006412,47,270,586,6016
1644179127.145195,-0.010376,0.009521,-0.994446,0.35826,0.356031,-0.207328,48,279,578,6000
1644179127.193601,-0.010925,0.010132,-0.991333,0.236122,0.371298,0.021679,45,275,582,6080
1644179127.241984,-0.008057,0.009399,-0.993042,0.159786,0.615573,-0.14626,52,273,589,6048
1644179127.290386,-0.012878,0.008789,-0.991882,0.113985,0.478168,-0.176794,66,273,570,5984
1644179127.338787,-0.009521,0.010925,-0.995728,0.190321,0.432366,-0.039389,48,262,590,6080
1644179127.387172,-0.006714,0.010132,-0.992615,0.205588,0.478168,-0.14626,40,285,579,6016
1644179127.435572,-0.01062,0.008728,-0.992737,0.129252,0.325496,-0.130992,55,276,590,6048
1644179127.483972,-0.007446,0.008911,-0.990234,0.419328,0.356031,-0.130992,48,279,580,6080
1644179127.532375,-0.007935,0.010498,-0.994263,0.46513,0.340763,0.006412,47,282,584,6048
1644179127.580743,-0.007935,0.013855,-0.993347,0.159786,0.371298,-0.115725,51,276,576,6128
1644179127.629128,-0.006775,0.009766,-0.990051,0.220855,0.386565,-0.207328,53,281,578,6000
1644179127.677497,-0.005798,0.008301,-0.993896,0.190321,0.417099,-0.192061,51,281,585,6016
1644179127.725912,-0.006592,0.011902,-0.990601,0.190321,0.356031,-0.176794,52,280,582,6016
1644179127.774319,-0.007141,0.01001,-0.990967,0.266656,0.447634,-0.085191,51,276,585,6048
1644179127.822757,-0.010132,0.006226,-0.989319,0.159786,0.356031,0.021679,60,288,585,6080
1644179127.871145,-0.008728,0.013184,-0.993103,0.113985,0.310229,-0.115725,42,270,579,6016
1644179127.919849,-0.006531,0.009216,-0.992554,0.388794,0.447634,-0.130992,40,277,572,6048
1644179127.970075,-0.008728,0.011475,-0.990112,0.159786,0.432366,-0.161527,47,282,577,6016
1644179128.020476,-0.010132,0.012573,-0.990295,0.449863,0.371298,0.036947,52,280,586,6016
1644179128.092357,-0.00946,0.009033,-0.993469,0.220855,0.478168,-0.008855,46,288,583,6080
1644179128.161464,-0.006348,0.010498,-0.989807,0.144519,0.340763,-0.085191,47,270,579,6048
1644179128.209839,-0.009277,0.009399,-0.994141,0.037649,0.462901,-0.085191,52,277,584,6048
1644179128.258213,-0.009338,0.012268,-0.990967,0.35826,0.371298,-0.130992,47,280,582,6016
1644179128.306595,-0.011047,0.006653,-0.990784,0.144519,0.386565,0.036947,51,279,580,6160
1644179128.355055,-0.008057,0.009766,-0.993347,0.251389,0.539237,-0.054656,49,277,584,6048
1644179128.403416,-0.012268,0.009705,-0.992798,0.35826,0.615573,-0.14626,45,282,579,6000
1644179128.45181,-0.01001,0.00946,-0.992615,0.144519,0.478168,-0.130992,51,283,585,6016
1644179128.500193,-0.007324,0.008667,-0.991028,0.175053,0.279695,-0.130992,41,281,587,6016
1644179128.548571,-0.006897,0.010498,-0.991882,0.266656,0.401832,-0.207328,41,274,587,6016
1644179128.596982,-0.008606,0.010376,-0.990295,0.113985,0.356031,-0.176794,43,276,585,5984
1644179128.645369,-0.007874,0.010742,-0.993103,0.281924,0.478168,-0.100458,49,273,582,5952
1644179128.693775,-0.007324,0.007263,-0.990723,0.190321,0.432366,-0.039389,49,270,579,6000
1644179128.742223,-0.009216,0.008606,-0.992004,0.068183,0.432366,0.021679,45,277,579,5984
1644179128.790551,-0.010071,0.007996,-0.99353,0.281924,0.401832,-0.069924,53,274,590,6080
1644179128.838961,-0.011108,0.008606,-0.992981,0.236122,0.462901,-0.054656,49,280,579,5984
1644179128.887371,-0.006653,0.008423,-0.990967,0.205588,0.417099,-0.100458,54,268,582,6080
1644179128.935771,-0.009949,0.008911,-0.99115,0.068183,0.417099,-0.14626,54,280,591,6080
1644179128.984158,-0.006592,0.010559,-0.992065,0.35826,0.310229,-0.039389,42,280,577,6000
1644179129.032585,-0.006897,0.011536,-0.992004,0.251389,0.325496,-0.054656,38,282,593,6000
1644179129.094485,-0.007446,0.011597,-0.991821,0.251389,0.371298,-0.390534,58,264,592,6016
1644179129.132632,-0.008972,0.009338,-0.990173,0.220855,0.447634,-0.161527,45,275,584,6016
1644179129.181702,-0.010864,0.008789,-0.993225,0.373527,0.218626,-0.054656,47,270,579,5984
1644179129.226858,-0.007446,0.009155,-0.988525,0.312458,0.478168,-0.069924,54,280,593,6048
1644179129.32288,-0.010681,0.00592,-0.990234,0.35826,0.447634,-0.069924,53,271,590,6048
1644179129.371265,-0.013062,0.009766,-0.992493,0.251389,0.386565,-0.115725,51,281,576,6016
1644179129.419629,-0.008362,0.009399,-0.992065,0.281924,0.401832,-0.008855,49,282,579,6080
1644179129.46803,-0.009583,0.011658,-0.992188,0.281924,0.325496,-0.192061,55,264,587,6080
1644179129.516427,-0.009766,0.00946,-0.991333,0.266656,0.539237,-0.237863,47,280,579,6048
1644179129.564836,-0.007141,0.010559,-0.991272,0.175053,0.356031,-0.039389,57,275,589,6016
1644179129.613204,-0.00885,0.009827,-0.992188,0.129252,0.432366,-0.14626,48,281,580,6112
1644179129.661604,-0.010803,0.012085,-0.992004,0.159786,0.371298,-0.176794,40,268,589,5984
1644179129.709974,-0.00647,0.008057,-0.991577,0.159786,0.310229,-0.069924,51,274,573,6048
1644179129.758393,-0.011597,0.009644,-0.991028,0.159786,0.264427,-0.130992,45,285,586,6016
1644179129.806782,-0.009766,0.009521,-0.989319,0.159786,0.554504,-0.115725,41,276,576,6080
1644179129.85532,-0.011169,0.008911,-0.992126,0.236122,0.325496,-0.314198,57,263,589,6080
1644179129.903629,-0.008423,0.011475,-0.993103,0.297191,0.386565,-0.100458,41,281,580,6016
1644179129.951998,-0.009888,0.009216,-0.99176,0.144519,0.523969,0.052214,48,271,578,6048
1644179130.000396,-0.009521,0.01001,-0.989197,0.08345,0.462901,-0.054656,48,276,583,6016
1644179130.066273,-0.009277,0.008301,-0.992249,0.144519,0.401832,-0.069924,51,274,590,6080
1644179130.09918,-0.007446,0.007935,-0.990417,0.052916,0.508702,-0.085191,48,279,580,6016
1644179130.145522,-0.00592,0.009583,-0.993408,0.281924,0.340763,-0.115725,47,263,586,5984
1644179130.193923,-0.007202,0.012573,-0.988159,0.35826,0.523969,-0.115725,45,268,584,6016
1644179130.242471,-0.00824,0.011597,-0.994568,0.236122,0.356031,-0.130992,47,280,584,6000
1644179130.292889,-0.010925,0.009094,-0.993896,0.129252,0.371298,-0.130992,43,274,587,6000
1644179130.343211,-0.008423,0.010193,-0.99469,0.144519,0.356031,-0.115725,51,279,590,5984
1644179130.388125,-0.009521,0.009155,-0.993347,0.266656,0.310229,-0.039389,51,281,573,6016
1644179130.484273,-0.00946,0.009644,-0.991272,0.327725,0.401832,-0.100458,43,283,587,6016
1644179130.532697,-0.008057,0.011169,-0.990906,0.297191,0.417099,-0.176794,47,280,582,6048
1644179130.581043,-0.005859,0.009094,-0.990601,0.175053,0.325496,0.021679,43,276,583,6016
1644179130.629439,-0.009155,0.010803,-0.993774,0.266656,0.447634,-0.14626,53,276,590,6048
1644179130.677835,-0.006531,0.008545,-0.991638,0.236122,0.294962,-0.085191,55,274,583,6048
1644179130.726238,-0.010315,0.010559,-0.99054,0.08345,0.294962,-0.130992,55,279,585,6064
1644179130.774638,-0.009888,0.009766,-0.992859,0.205588,0.294962,-0.14626,54,280,584,6048
1644179130.82303,-0.00769,0.009827,-0.992554,0.251389,0.447634,0.006412,42,282,584,6000
1644179130.871432,-0.006409,0.010193,-0.990479,0.098718,0.386565,0.021679,49,285,582,6064
1644179130.919849,-0.012512,0.008911,-0.993347,0.297191,0.310229,0.052214,45,285,572,6016
1644179130.968234,-0.006226,0.012146,-0.991211,0.144519,0.294962,-0.024122,60,269,580,6080
1644179131.016631,-0.005615,0.008972,-0.990845,0.236122,0.432366,0.006412,49,280,579,5984
1644179131.085062,-0.00592,0.009338,-0.990295,0.190321,0.493435,-0.115725,53,279,580,6048
1644179131.113437,-0.009766,0.008301,-0.989929,0.281924,0.478168,-0.192061,42,270,582,6064
1644179131.161771,-0.005615,0.01062,-0.988831,0.129252,0.447634,0.067481,41,279,573,6016
1644179131.210154,-0.008179,0.008423,-0.990234,0.190321,0.478168,0.052214,49,280,582,6016
1644179131.258528,-0.012451,0.008545,-0.990417,0.327725,0.493435,-0.115725,54,270,602,5984
1644179131.306942,-0.008484,0.01001,-0.992249,0.373527,0.478168,-0.161527,53,281,585,6016
1644179131.355315,-0.009827,0.008545,-0.992493,0.129252,0.462901,-0.115725,52,285,586,6128
1644179131.404033,-0.00647,0.010742,-0.99115,0.266656,0.386565,-0.054656,52,277,582,6080
1644179131.454588,-0.009949,0.009888,-0.989929,0.144519,0.401832,0.082748,58,279,583,5984
1644179131.504974,-0.006775,0.011719,-0.992432,0.281924,0.325496,-0.207328,45,277,589,6048
1644179131.549811,-0.008301,0.010681,-0.989929,0.190321,0.325496,-0.207328,54,292,586,6000
1644179131.645672,-0.006775,0.009827,-0.990295,0.129252,0.417099,-0.100458,45,280,577,6048
1644179131.694091,-0.007629,0.009827,-0.993652,0.251389,0.386565,-0.024122,45,277,586,6048
1644179131.742499,-0.008423,0.010315,-0.990601,0.236122,0.310229,-0.130992,48,286,580,6048
1644179131.790854,-0.01062,0.011169,-0.991455,0.08345,0.24916,-0.085191,46,274,578,6016
1644179131.839252,-0.009888,0.009033,-0.993225,0.251389,0.218626,-0.069924,45,268,584,6000
1644179131.887691,-0.010315,0.008362,-0.993347,0.281924,0.371298,-0.054656,47,277,584,6080
1644179131.936069,-0.009888,0.008972,-0.990723,0.190321,0.371298,-0.085191,55,274,585,6048
1644179131.984474,-0.008728,0.010254,-0.992676,0.220855,0.401832,-0.115725,42,280,584,6000
1644179132.032879,-0.009705,0.011353,-0.992615,0.175053,0.279695,-0.161527,57,277,586,6016
1644179132.087133,-0.006165,0.010498,-0.989441,0.098718,0.447634,-0.192061,45,270,582,6016
1644179132.129658,-0.008667,0.00824,-0.992676,0.220855,0.340763,0.052214,42,277,593,6048
1644179132.177997,-0.006165,0.01062,-0.991882,0.266656,0.401832,-0.222595,43,271,590,6000
1644179132.226399,-0.009155,0.008362,-0.991089,0.205588,0.462901,0.006412,53,283,580,6016
1644179132.274765,-0.007446,0.011108,-0.99115,0.251389,0.585038,-0.085191,49,280,584,6080
1644179132.323154,-0.011841,0.009949,-0.99176,0.205588,0.432366,0.067481,58,281,592,6080
1644179132.371893,-0.009216,0.013306,-0.993164,0.129252,0.310229,-0.054656,53,271,592,6048
1644179132.420795,-0.008423,0.00824,-0.992676,0.175053,0.462901,-0.14626,42,277,582,6048
1644179132.471427,-0.009094,0.010742,-0.988892,0.342992,0.310229,-0.054656,51,271,571,6080
1644179132.521725,-0.009338,0.008057,-0.992126,0.220855,0.523969,-0.130992,57,282,577,5984
1644179132.613544,-0.00647,0.01001,-0.995178,0.190321,0.447634,-0.115725,47,282,582,5984
1644179132.661929,-0.008728,0.011536,-0.990723,0.220855,0.493435,0.036947,55,281,583,5984
1644179132.710307,-0.008667,0.011414,-0.992798,0.266656,0.371298,-0.100458,49,282,579,6016
1644179132.758691,-0.009521,0.013428,-0.991699,0.266656,0.386565,-0.115725,41,288,580,6016
1644179132.807094,-0.006836,0.009521,-0.990784,0.266656,0.447634,-0.130992,49,275,586,6016
1644179132.855493,-0.007263,0.009888,-0.99231,0.281924,0.462901,-0.008855,46,271,587,6048
1644179132.90393,-0.009277,0.008789,-0.991638,0.312458,0.478168,-0.115725,48,281,576,6048
1644179132.952313,-0.008667,0.010498,-0.99115,0.175053,0.294962,-0.069924,48,274,580,6000
1644179133.000682,-0.008728,0.008728,-0.992493,0.205588,0.279695,0.052214,53,281,585,6128
1644179133.061688,-0.00647,0.010986,-0.991516,0.129252,0.356031,-0.008855,46,283,583,6080
1644179133.101424,-0.00708,0.009583,-0.992249,0.449863,0.462901,-0.024122,55,274,583,6080
1644179133.145877,-0.009888,0.012634,-0.989502,0.022382,0.386565,-0.207328,45,265,584,5984
1644179133.194275,-0.00824,0.009766,-0.990906,0.251389,0.401832,-0.039389,51,276,580,6000
1644179133.242685,-0.008545,0.011841,-0.991089,0.205588,0.493435,0.052214,51,281,576,6064
1644179133.291061,-0.009705,0.011963,-0.992004,0.129252,0.279695,-0.069924,59,275,589,6080
1644179133.339456,-0.009888,0.007874,-0.98999,0.572,0.462901,-0.039389,49,270,582,6048
1644179133.387917,-0.009888,0.010742,-0.991211,0.08345,0.386565,-0.100458,51,276,585,6016
1644179133.436257,-0.008545,0.008606,-0.991211,0.037649,0.310229,-0.085191,52,273,579,6080
1644179133.486352,-0.01001,0.007996,-0.99176,0.098718,0.294962,-0.130992,42,273,591,6000
1644179133.536461,-0.009277,0.008667,-0.989746,0.159786,0.401832,-0.161527,52,280,582,6048
1644179133.587022,-0.00769,0.008911,-0.993347,0.08345,0.417099,-0.268397,47,282,586,6016
1644179133.631251,-0.01062,0.00824,-0.990234,0.312458,0.172824,0.006412,39,276,590,6016
1644179133.726591,-0.009277,0.010315,-0.991577,0.144519,0.401832,-0.130992,51,274,587,6016
1644179133.77527,-0.00824,0.011047,-0.989014,0.022382,0.508702,-0.085191,48,281,590,6016
1644179133.823387,-0.005188,0.012939,-0.992859,0.312458,0.279695,0.006412,46,274,569,6000
1644179133.87178,-0.006836,0.010254,-0.991821,0.205588,0.401832,0.006412,47,277,577,5952
1644179133.920154,-0.008667,0.008484,-0.991089,0.236122,0.279695,0.021679,38,270,586,6128
1644179133.968557,-0.007385,0.008301,-0.988464,0.35826,0.340763,-0.100458,46,274,583,6000
1644179134.016943,-0.008179,0.010132,-0.991516,0.190321,0.447634,0.036947,43,283,585,5984
1644179134.066563,-0.008545,0.009949,-0.992981,0.312458,0.340763,-0.039389,48,274,576,6016
1644179134.113724,-0.010254,0.011475,-0.992615,0.159786,0.401832,-0.039389,51,283,583,5984
1644179134.162137,-0.009399,0.007996,-0.990967,0.144519,0.432366,-0.130992,51,279,587,6128
1644179134.210453,-0.006653,0.009216,-0.993286,0.449863,0.478168,-0.161527,46,276,583,6000
1644179134.258886,-0.009155,0.01178,-0.994812,0.159786,0.508702,-0.039389,53,274,590,6064
1644179134.307234,-0.00946,0.008667,-0.991882,0.144519,0.478168,-0.130992,52,273,582,6000
1644179134.355645,-0.009644,0.008911,-0.98938,0.342992,0.294962,-0.069924,46,279,587,5984
1644179134.40405,-0.010193,0.009766,-0.991089,0.08345,0.386565,-0.115725,48,281,587,6016
1644179134.452434,-0.013123,0.009521,-0.993286,0.175053,0.294962,-0.14626,45,270,575,6016
1644179134.50084,-0.007751,0.008301,-0.991272,0.068183,0.325496,-0.130992,39,274,599,6112
1644179134.549205,-0.00769,0.007385,-0.992188,0.190321,0.417099,-0.008855,53,276,587,6016
1644179134.597604,-0.011108,0.010193,-0.988281,0.220855,0.432366,-0.085191,41,269,578,6000
1644179134.64618,-0.006165,0.009766,-0.98999,0.220855,0.24916,-0.115725,58,269,587,6048
1644179134.696575,-0.009705,0.010437,-0.992065,0.098718,0.386565,-0.14626,60,264,585,6016
1644179134.746823,-0.008911,0.008423,-0.991577,0.342992,0.493435,-0.222595,53,274,578,6000
1644179134.791824,-0.009155,0.012695,-0.98999,0.144519,0.386565,-0.115725,49,282,582,6080
1644179134.888,-0.006104,0.009094,-0.993286,0.342992,0.294962,-0.115725,52,273,582,6016
1644179134.936396,-0.010315,0.007019,-0.992126,0.236122,0.508702,-0.054656,54,275,586,6080
1644179134.984794,-0.009705,0.007996,-0.992371,0.297191,0.447634,-0.130992,47,285,591,6016
1644179135.033194,-0.007629,0.011414,-0.991028,0.205588,0.386565,-0.130992,45,270,575,6000
1644179135.082993,-0.007507,0.011353,-0.992065,0.236122,0.432366,-0.176794,49,273,589,5984
1644179135.12993,-0.009644,0.011169,-0.991272,0.281924,0.279695,-0.039389,47,273,579,6016
1644179135.178323,-0.006897,0.009399,-0.994324,0.129252,0.417099,-0.039389,51,274,594,6080
1644179135.226702,-0.007996,0.008118,-0.990601,0.144519,0.569771,-0.085191,45,275,577,6048
1644179135.275212,-0.010498,0.011841,-0.989807,0.251389,0.340763,0.021679,43,269,590,6016
1644179135.323506,-0.007263,0.007751,-0.992188,0.251389,0.462901,-0.25313,51,276,587,6048
1644179135.371896,-0.011292,0.010376,-0.991394,0.113985,0.401832,-0.039389,48,283,576,6080
1644179135.420279,-0.01062,0.008667,-0.990845,0.297191,0.447634,-0.115725,47,275,579,6080
1644179135.468651,-0.00647,0.007568,-0.990173,0.08345,0.508702,-0.176794,45,268,579,6048
1644179135.517056,-0.00769,0.011536,-0.993774,0.205588,0.493435,-0.161527,48,274,590,6016
1644179135.565455,-0.009827,0.011536,-0.992004,0.266656,0.356031,-0.024122,53,283,583,6080
1644179135.613849,-0.008301,0.00946,-0.995239,0.205588,0.478168,-0.14626,48,279,583,6064
1644179135.66226,-0.010864,0.010681,-0.992371,0.266656,0.417099,-0.14626,51,266,590,5952
1644179135.710629,-0.007568,0.013123,-0.99353,0.373527,0.462901,-0.085191,46,276,580,6080
1644179135.759021,-0.010742,0.010681,-0.991394,0.220855,0.386565,0.082748,61,273,596,6016
1644179135.808603,-0.011047,0.011719,-0.990234,0.175053,0.417099,-0.161527,47,280,586,6000
1644179135.8591,-0.008911,0.012817,-0.993103,0.419328,0.356031,-0.024122,49,282,596,6080
1644179135.909923,-0.010315,0.009583,-0.99115,0.068183,0.508702,-0.115725,45,277,591,6016
1644179135.953779,-0.00946,0.011963,-0.989868,0.312458,0.340763,-0.008855,39,276,592,6016
1644179136.05969,-0.009583,0.009949,-0.991516,0.236122,0.340763,-0.115725,51,271,587,6016
1644179136.097764,-0.012024,0.009155,-0.992065,0.098718,0.417099,-0.024122,53,274,583,6000
1644179136.146153,-0.008972,0.011414,-0.989502,0.159786,0.325496,-0.161527,48,271,585,6016
1644179136.194628,-0.012146,0.008728,-0.992188,0.190321,0.264427,-0.14626,47,277,596,5952
1644179136.242948,-0.008728,0.010437,-0.992004,0.297191,0.432366,-0.069924,52,277,582,6016
1644179136.291341,-0.006165,0.007629,-0.992676,0.190321,0.417099,-0.161527,41,281,576,6000
1644179136.339729,-0.008911,0.010925,-0.992004,0.205588,0.325496,-0.237863,39,286,585,6016
1644179136.388125,-0.011475,0.008911,-0.990906,0.144519,0.340763,-0.024122,52,273,589,6016
1644179136.436506,-0.008728,0.010681,-0.991455,0.175053,0.279695,-0.100458,53,269,583,5952
1644179136.484883,-0.01001,0.011353,-0.992493,0.190321,0.371298,-0.268397,47,282,584,6016
1644179136.533295,-0.007202,0.011658,-0.990723,0.251389,0.233893,-0.100458,53,286,585,6160
1644179136.581693,-0.006531,0.010254,-0.991089,0.129252,0.325496,-0.130992,51,281,580,6080
1644179136.63008,-0.007874,0.009155,-0.992859,0.281924,0.462901,0.036947,49,273,584,6016
1644179136.678509,-0.010193,0.011414,-0.991577,0.159786,0.508702,-0.176794,40,273,596,6016
1644179136.727832,-0.006287,0.009155,-0.992432,0.220855,0.310229,-0.085191,47,270,586,6048
1644179136.778358,-0.009033,0.012634,-0.99408,0.205588,0.340763,-0.130992,51,271,585,6080
1644179136.829058,-0.007446,0.013245,-0.99231,0.144519,0.432366,-0.14626,48,279,580,6000
1644179136.920491,-0.01123,0.010254,-0.99176,0.205588,0.462901,-0.161527,47,273,582,6080
1644179136.968846,-0.012695,0.011108,-0.99115,0.159786,0.386565,-0.161527,42,277,582,6048
1644179137.017267,-0.007629,0.010437,-0.988586,0.266656,0.554504,0.006412,38,282,584,6048
1644179137.070223,-0.007751,0.010925,-0.990112,0.190321,0.447634,-0.069924,51,276,585,6048
1644179137.114049,-0.007751,0.010986,-0.991211,0.236122,0.356031,0.159084,57,282,584,6064
1644179137.162411,-0.007812,0.013367,-0.993225,0.159786,0.417099,-0.207328,40,277,570,6048
1644179137.210806,-0.007935,0.009644,-0.992493,0.098718,0.417099,-0.161527,43,283,587,6016
1644179137.259187,-0.008972,0.009705,-0.993347,0.297191,0.233893,-0.25313,43,274,578,6128
1644179137.307555,-0.00647,0.010376,-0.991882,0.251389,0.401832,-0.054656,49,270,572,6048
1644179137.355947,-0.008911,0.00946,-0.991455,0.266656,0.340763,-0.054656,51,281,576,6016
1644179137.404366,-0.006897,0.01062,-0.993958,0.129252,0.340763,-0.192061,39,274,587,5984
1644179137.452753,-0.008545,0.01062,-0.992249,0.251389,0.340763,-0.207328,43,274,587,5952
1644179137.501148,-0.009216,0.008911,-0.989258,0.190321,0.401832,-0.115725,47,282,582,6048
1644179137.549537,-0.010132,0.010986,-0.990845,0.08345,0.325496,-0.024122,54,292,586,5984
1644179137.597922,-0.009155,0.013184,-0.99054,0.037649,0.24916,-0.100458,43,271,580,6048
1644179137.646317,-0.00946,0.010498,-0.992737,0.220855,0.401832,-0.115725,47,287,589,6112
1644179137.694727,-0.008057,0.008362,-0.991028,0.266656,0.310229,-0.176794,42,282,586,5952
1644179137.743122,-0.005676,0.010864,-0.99054,0.281924,0.447634,-0.130992,52,270,586,6000
1644179137.791506,-0.005676,0.011108,-0.991638,0.190321,0.371298,-0.085191,57,275,589,6064
1644179137.840558,-0.010559,0.009583,-0.991394,0.342992,0.325496,-0.039389,40,270,579,6080
1644179137.891403,-0.00824,0.01062,-0.992188,0.312458,0.386565,-0.069924,47,280,575,6000
1644179137.941559,-0.004761,0.010742,-0.989685,0.281924,0.417099,-0.069924,54,275,591,6080
1644179137.986207,-0.007385,0.007263,-0.989319,0.251389,0.340763,-0.069924,52,280,591,6048
1644179138.081991,-0.010742,0.009216,-0.993774,0.113985,0.356031,-0.207328,47,275,584,6016
1644179138.130289,-0.007874,0.009399,-0.990295,0.281924,0.417099,-0.039389,49,273,579,6080
1644179138.178629,-0.006897,0.01001,-0.993835,0.236122,0.432366,0.036947,39,279,583,6016
1644179138.227021,-0.007446,0.010254,-0.992676,0.312458,0.493435,-0.115725,58,259,585,6000
1644179138.275394,-0.006714,0.008972,-0.991638,0.419328,0.462901,-0.130992,45,273,579,6016
1644179138.32382,-0.012268,0.009216,-0.991211,0.266656,0.417099,-0.115725,42,270,577,6016
1644179138.37221,-0.005676,0.01062,-0.992126,0.08345,0.172824,-0.176794,47,275,586,6080
1644179138.420597,-0.010254,0.009888,-0.991516,0.068183,0.24916,-0.085191,55,281,587,6080
1644179138.468969,-0.009399,0.009094,-0.99176,0.236122,0.462901,-0.176794,46,281,578,6016
1644179138.517354,-0.008789,0.008606,-0.988342,0.159786,0.401832,-0.115725,42,290,593,6080
1644179138.565773,-0.008789,0.010925,-0.991394,0.159786,0.356031,-0.14626,47,277,586,6016
1644179138.614172,-0.008972,0.011902,-0.991821,0.281924,0.417099,-0.008855,49,282,582,6080
1644179138.662577,-0.011475,0.010986,-0.992065,0.236122,0.356031,-0.100458,58,283,587,6048
1644179138.710954,-0.006714,0.011475,-0.987427,0.098718,0.493435,0.006412,39,281,583,6080
1644179138.75932,-0.006531,0.01001,-0.990356,0.052916,0.462901,-0.054656,43,281,587,6080
1644179138.80773,-0.008789,0.00885,-0.992065,0.281924,0.417099,-0.085191,41,271,583,6016
1644179138.856157,-0.006775,0.009338,-0.990051,0.404061,0.569771,-0.115725,54,277,586,6016
1644179138.904951,-0.010681,0.009216,-0.989624,0.144519,0.447634,-0.008855,40,292,582,6080
1644179138.95296,-0.009521,0.010559,-0.990051,0.205588,0.24916,-0.008855,43,279,587,6016
1644179139.002827,-0.009277,0.009644,-0.99292,0.236122,0.523969,-0.161527,46,279,585,6000
1644179139.072574,-0.009644,0.006287,-0.990356,0.175053,0.340763,-0.14626,58,274,585,6016
1644179139.10118,-0.007202,0.009705,-0.990479,0.297191,0.386565,-0.115725,41,279,594,6064
1644179139.148421,-0.009338,0.009521,-0.992432,0.175053,0.417099,-0.14626,46,281,587,6016
1644179139.243269,-0.00708,0.011047,-0.98938,0.220855,0.279695,-0.176794,43,276,585,6080
1644179139.291661,-0.007996,0.009399,-0.992737,0.159786,0.432366,-0.115725,49,277,586,6080
1644179139.34004,-0.008301,0.011841,-0.992249,0.327725,0.432366,-0.054656,48,286,583,6000
1644179139.388426,-0.00708,0.010498,-0.990295,0.281924,0.325496,-0.085191,53,279,585,6064
1644179139.436822,-0.008728,0.011292,-0.990784,0.251389,0.371298,-0.115725,53,266,583,6000
1644179139.485213,-0.009766,0.008484,-0.991333,0.281924,0.417099,-0.069924,51,271,580,6080
1644179139.533618,-0.007568,0.009033,-0.989746,0.342992,0.310229,-0.100458,51,271,580,6048
1644179139.582012,-0.00708,0.009949,-0.988281,0.266656,0.447634,-0.298931,48,271,583,5984
1644179139.630401,-0.009216,0.011414,-0.992554,0.281924,0.417099,-0.176794,53,279,587,6000
1644179139.678792,-0.008789,0.013855,-0.992188,0.144519,0.371298,-0.100458,46,269,587,6048
1644179139.727186,-0.008789,0.00647,-0.989441,0.220855,0.401832,-0.069924,53,269,573,6048
1644179139.775578,-0.010742,0.01123,-0.992188,0.419328,0.493435,0.021679,51,269,580,6000
1644179139.82397,-0.007019,0.009888,-0.989868,0.35826,0.432366,-0.25313,46,283,583,6048
1644179139.872391,-0.005859,0.010498,-0.988831,0.205588,0.401832,-0.161527,42,280,584,6000
1644179139.920762,-0.008972,0.008667,-0.991516,0.220855,0.417099,0.052214,47,275,584,6016
1644179139.969181,-0.00885,0.010315,-0.991211,0.113985,0.432366,-0.14626,55,269,573,6080
1644179140.017578,-0.010376,0.01123,-0.993225,0.144519,0.401832,-0.069924,51,283,585,6080
1644179140.091228,-0.007019,0.009033,-0.987854,0.205588,0.432366,-0.14626,49,277,591,6064
1644179140.11781,-0.011047,0.009949,-0.991089,0.297191,0.371298,-0.069924,46,274,592,6064
1644179140.16818,-0.007324,0.010437,-0.990356,0.205588,0.401832,-0.130992,59,282,586,6016
1644179140.211876,-0.005432,0.011963,-0.991455,0.190321,0.478168,-0.130992,55,281,587,6064
1644179140.307865,-0.009338,0.012573,-0.989807,0.129252,0.356031,0.113282,53,264,583,6016
1644179140.35626,-0.007812,0.010132,-0.993591,0.236122,0.401832,-0.161527,45,282,582,6016
1644179140.404845,-0.007996,0.010315,-0.990051,0.144519,0.600305,-0.085191,45,280,584,6048
1644179140.453076,-0.010681,0.008972,-0.992371,0.190321,0.371298,-0.130992,38,270,586,6000
1644179140.501447,-0.00885,0.013306,-0.990417,0.190321,0.462901,-0.008855,49,270,575,5984
1644179140.549837,-0.009094,0.009033,-0.990051,0.373527,0.447634,-0.100458,38,275,591,6048
1644179140.598245,-0.006348,0.011597,-0.992554,0.297191,0.661374,-0.069924,52,277,584,6048
1644179140.646663,-0.009949,0.009888,-0.98938,0.175053,0.569771,0.006412,53,279,587,6016
1644179140.695062,-0.008118,0.01001,-0.990417,0.297191,0.371298,-0.085191,45,287,591,6048
1644179140.743417,-0.008423,0.012329,-0.994568,0.098718,0.432366,-0.237863,52,282,582,6064
1644179140.791819,-0.007935,0.01001,-0.990295,0.266656,0.371298,-0.069924,43,281,580,6048
1644179140.840192,-0.010498,0.010986,-0.989502,0.129252,0.417099,-0.283664,46,269,583,6048
1644179140.888627,-0.007324,0.010803,-0.992859,0.205588,0.386565,-0.268397,57,290,586,6000
1644179140.936995,-0.008057,0.009094,-0.991333,0.175053,0.310229,0.036947,41,279,580,6112
1644179140.985425,-0.008789,0.008423,-0.990234,0.205588,0.371298,-0.14626,54,270,598,6048
1644179141.033824,-0.007629,0.007996,-0.990845,0.251389,0.310229,-0.222595,57,265,584,6016
1644179141.090893,-0.009338,0.012207,-0.993286,0.251389,0.432366,-0.192061,51,276,587,6000
1644179141.130611,-0.009338,0.01178,-0.991943,0.404061,0.386565,-0.176794,53,266,592,6080
1644179141.179286,-0.008057,0.010559,-0.994446,0.251389,0.417099,-0.161527,52,287,584,6000
1644179141.229651,-0.011841,0.010864,-0.992798,0.266656,0.462901,-0.14626,47,265,584,6016
1644179141.280143,-0.009888,0.011902,-0.992004,0.129252,0.371298,-0.161527,48,269,580,6064
1644179141.324718,-0.007263,0.010132,-0.991028,0.236122,0.432366,-0.130992,42,277,586,6016
1644179141.420963,-0.00946,0.010742,-0.990295,0.175053,0.417099,-0.115725,52,270,591,6016
1644179141.46934,-0.007568,0.011353,-0.992249,0.175053,0.325496,-0.039389,45,282,579,6016
1644179141.51774,-0.008179,0.013855,-0.991882,0.220855,0.233893,-0.161527,53,271,590,6016
1644179141.566095,-0.0047,0.007996,-0.99115,0.144519,0.386565,-0.130992,46,279,590,6048
1644179141.614527,-0.005676,0.012085,-0.992554,0.281924,0.294962,-0.100458,51,271,576,6016
1644179141.662928,-0.009827,0.011719,-0.992493,0.297191,0.294962,-0.161527,41,276,580,6064
1644179141.711318,-0.007996,0.01001,-0.989868,0.251389,0.233893,-0.14626,47,277,582,6048
1644179141.759703,-0.012512,0.009888,-0.991577,0.297191,0.371298,-0.207328,47,275,589,6016
1644179141.808096,-0.006653,0.009033,-0.993408,0.342992,0.310229,-0.14626,53,281,576,6016
1644179141.85647,-0.009155,0.011658,-0.991882,0.205588,0.417099,-0.100458,43,276,580,6080
1644179141.904883,-0.007629,0.012207,-0.990784,0.144519,0.462901,-0.085191,47,287,579,6080
1644179141.953287,-0.007751,0.009766,-0.988953,0.373527,0.371298,-0.039389,40,287,584,6048
1644179142.001663,-0.009583,0.011353,-0.989746,0.327725,0.325496,-0.054656,47,273,582,6112
1644179142.062652,-0.006897,0.010315,-0.992188,0.037649,0.356031,-0.161527,43,281,587,6048
1644179142.102708,-0.008362,0.007935,-0.98999,0.113985,0.432366,-0.054656,49,275,584,5984
1644179142.146801,-0.009521,0.009521,-0.992126,0.190321,0.233893,-0.130992,43,283,580,6048
1644179142.195258,-0.007263,0.009705,-0.989929,0.297191,0.585038,-0.085191,41,266,576,6000
1644179142.243582,-0.008423,0.01178,-0.992004,0.327725,0.432366,0.021679,45,280,584,6080
1644179142.292302,-0.010925,0.010071,-0.992981,0.175053,0.279695,-0.008855,36,276,583,6000
1644179142.341148,-0.008301,0.010193,-0.992004,0.113985,0.432366,-0.115725,49,275,579,6048
1644179142.391725,-0.005981,0.008789,-0.993164,0.220855,0.401832,-0.085191,51,276,571,6048
1644179142.442072,-0.010559,0.007935,-0.99353,0.35826,0.539237,-0.039389,42,285,579,6000
1644179142.486905,-0.009399,0.013733,-0.989075,0.251389,0.401832,-0.039389,41,283,587,6080
1644179142.582393,-0.007874,0.012268,-0.99231,0.205588,0.325496,-0.130992,45,273,586,6112
1644179142.630713,-0.00708,0.011047,-0.989319,0.266656,0.386565,-0.085191,49,282,582,5984
1644179142.679104,-0.010681,0.009277,-0.993164,0.236122,0.325496,-0.115725,42,277,575,6080
1644179142.727507,-0.008972,0.010681,-0.990967,0.35826,0.462901,-0.14626,47,282,584,6080
1644179142.775887,-0.006897,0.011719,-0.989136,0.449863,0.462901,-0.054656,51,271,566,6016
1644179142.82432,-0.007935,0.009705,-0.990845,0.35826,0.340763,-0.207328,51,271,585,6016
1644179142.872721,-0.008362,0.010803,-0.991516,0.327725,0.356031,-0.100458,48,274,580,6080
1644179142.921128,-0.007263,0.010315,-0.991089,-0.099756,0.24916,-0.100458,41,269,580,5984
1644179142.969481,-0.011292,0.007874,-0.989319,0.342992,0.493435,-0.14626,46,276,587,6064
1644179143.017907,-0.007568,0.010986,-0.994324,0.190321,0.447634,-0.161527,49,277,589,6048
1644179143.072607,-0.010925,0.011658,-0.988892,0.052916,0.325496,-0.008855,54,268,589,6048
1644179143.114737,-0.003784,0.010437,-0.990967,0.297191,0.493435,-0.192061,52,277,582,6016
1644179143.163055,-0.00592,0.009399,-0.98938,0.251389,0.432366,-0.130992,41,276,580,6016
1644179143.211415,-0.007874,0.008606,-0.992981,0.113985,0.508702,-0.069924,49,282,577,6016
1644179143.259786,-0.004761,0.009888,-0.990173,0.236122,0.462901,-0.054656,48,283,587,6048
1644179143.308211,-0.00824,0.010254,-0.988281,0.236122,0.401832,-0.069924,45,287,582,6016
1644179143.356602,-0.009033,0.008789,-0.991394,0.236122,0.432366,-0.115725,46,283,587,6080
1644179143.405032,-0.011047,0.007568,-0.992249,0.129252,0.417099,-0.298931,46,279,573,5984
1644179143.453367,-0.008118,0.010193,-0.990417,0.46513,0.432366,0.036947,48,283,585,6080
1644179143.501787,-0.009155,0.009216,-0.991455,0.144519,0.325496,0.021679,52,275,586,6080
1644179143.552255,-0.005554,0.010681,-0.989929,0.113985,0.478168,-0.207328,40,275,584,6016
1644179143.602569,-0.008911,0.00885,-0.993164,0.190321,0.523969,-0.207328,48,269,597,5984
1644179143.647514,-0.009033,0.01062,-0.991211,0.190321,0.294962,0.021679,43,281,580,6048
1644179143.743742,-0.006897,0.009521,-0.990906,0.190321,0.340763,-0.100458,46,276,594,6064
1644179143.792374,-0.007568,0.012207,-0.990356,0.113985,0.554504,-0.039389,51,276,583,5984
1644179143.840563,-0.012756,0.009338,-0.989563,0.159786,0.279695,-0.054656,46,274,587,6080
1644179143.888948,-0.006348,0.010315,-0.991516,0.342992,0.447634,-0.222595,47,277,582,6016
1644179143.937349,-0.005859,0.010742,-0.993286,0.236122,0.523969,-0.115725,46,274,583,5984
1644179143.98574,-0.008972,0.010864,-0.992676,0.175053,0.447634,-0.298931,48,274,583,5952
1644179144.034147,-0.01062,0.009949,-0.990967,0.175053,0.432366,-0.25313,53,274,569,6048
1644179144.082593,-0.009888,0.008423,-0.991943,0.159786,0.417099,-0.14626,58,286,583,6016
1644179144.130849,-0.009216,0.011902,-0.991455,0.129252,0.478168,0.052214,46,276,587,6048
1644179144.179266,-0.006104,0.010986,-0.99176,0.281924,0.478168,-0.176794,49,268,586,6016
1644179144.227674,-0.008667,0.011353,-0.992371,0.220855,0.310229,-0.024122,55,279,569,6112
1644179144.276024,-0.007019,0.011658,-0.989319,-0.053954,0.310229,-0.069924,47,273,589,6048
1644179144.324456,-0.008789,0.009827,-0.990784,0.205588,0.24916,-0.115725,51,276,578,6016
1644179144.372856,-0.009949,0.010376,-0.990601,0.312458,0.432366,-0.069924,53,276,580,6064
1644179144.421227,-0.009583,0.010559,-0.989319,0.190321,0.478168,-0.069924,48,276,580,6064
1644179144.470228,-0.006165,0.009399,-0.993347,0.266656,0.356031,0.006412,45,285,589,6064
1644179144.518843,-0.005554,0.010376,-0.991516,0.327725,0.432366,0.113282,58,286,590,6064
1644179144.56946,-0.00769,0.006775,-0.991699,0.312458,0.462901,-0.085191,46,269,576,6048
1644179144.619777,-0.008362,0.010376,-0.991394,0.46513,0.279695,-0.176794,52,275,584,6016
1644179144.66451,-0.007568,0.011292,-0.995605,0.022382,0.478168,-0.039389,52,273,584,6048
1644179144.759963,-0.006531,0.009338,-0.989136,0.159786,0.478168,-0.054656,57,265,582,6048
1644179144.808344,-0.009949,0.012146,-0.992188,0.190321,0.325496,-0.039389,46,274,587,6080
1644179144.856794,-0.006653,0.009888,-0.988403,0.175053,0.417099,-0.130992,54,277,579,6080
1644179144.905234,-0.009827,0.011108,-0.992432,0.266656,0.386565,-0.115725,49,280,584,6112
1644179144.953593,-0.008179,0.011414,-0.990417,0.129252,0.462901,-0.14626,43,279,580,6048
1644179145.001957,-0.008606,0.009827,-0.991089,0.190321,0.218626,-0.115725,38,280,582,6112
1644179145.063798,-0.008362,0.010193,-0.98999,0.236122,0.24916,0.067481,52,285,579,6128
1644179145.100413,-0.00885,0.011047,-0.993042,0.144519,0.340763,-0.161527,47,268,582,6016
1644179145.147084,-0.00769,0.010742,-0.991455,0.159786,0.508702,-0.176794,48,281,583,5984
1644179145.195503,-0.008728,0.009155,-0.990906,0.159786,0.386565,-0.008855,43,279,571,5984
1644179145.243902,-0.007446,0.009827,-0.990356,0.175053,0.325496,0.052214,46,279,585,5984
1644179145.292304,-0.009094,0.010376,-0.991333,0.266656,0.386565,-0.161527,57,277,586,6016
1644179145.340694,-0.006226,0.01001,-0.990845,0.175053,0.432366,-0.008855,51,283,585,6048
1644179145.389083,-0.009888,0.009155,-0.990479,0.35826,0.386565,0.006412,42,277,586,6048
1644179145.437469,-0.007141,0.013306,-0.991577,0.129252,0.462901,0.036947,57,268,582,6048
1644179145.485857,-0.007568,0.009338,-0.988708,0.159786,0.401832,-0.192061,51,283,573,6128
1644179145.53426,-0.008667,0.007324,-0.990967,0.342992,0.310229,-0.14626,49,273,577,6064
1644179145.582665,-0.011841,0.007751,-0.99292,0.220855,0.401832,-0.115725,48,276,585,5984
1644179145.631051,-0.012207,0.009766,-0.991272,0.007115,0.417099,-0.085191,59,275,586,6080
1644179145.680961,-0.008301,0.009155,-0.993958,0.052916,0.386565,-0.085191,52,273,586,6080
1644179145.731292,-0.00708,0.009094,-0.990112,0.327725,0.386565,-0.14626,48,271,580,6064
1644179145.776426,-0.004456,0.009705,-0.988953,0.312458,0.432366,-0.25313,41,276,580,6000
1644179145.873049,-0.009277,0.011108,-0.989807,0.190321,0.432366,-0.069924,45,277,575,6080
1644179145.921427,-0.00824,0.008423,-0.992249,0.022382,0.417099,-0.25313,58,269,585,6016
1644179145.969818,-0.008545,0.009399,-0.99115,0.175053,0.14229,-0.207328,57,268,582,6016
1644179146.018219,-0.009827,0.008179,-0.990845,0.159786,0.432366,-0.283664,52,277,582,6080
1644179146.066651,-0.007629,0.011658,-0.993042,0.327725,0.478168,-0.054656,38,277,589,6000
1644179146.115145,-0.008789,0.011597,-0.98999,0.113985,0.493435,-0.14626,43,279,576,6016
1644179146.163345,-0.010498,0.011963,-0.990112,0.052916,0.340763,-0.024122,53,288,585,6080
1644179146.211736,-0.008301,0.012146,-0.992371,0.220855,0.462901,-0.008855,38,290,575,6080
1644179146.260136,-0.006531,0.01123,-0.990295,0.236122,0.371298,-0.161527,46,281,585,5984
1644179146.308528,-0.011353,0.009216,-0.990234,0.266656,0.279695,-0.192061,42,280,577,6048
1644179146.356918,-0.00708,0.010315,-0.990356,0.388794,0.325496,-0.176794,51,271,583,6048
1644179146.405349,-0.007812,0.009521,-0.988953,0.175053,0.417099,-0.161527,53,274,583,6016
1644179146.45373,-0.009705,0.010315,-0.990173,0.297191,0.432366,-0.130992,51,279,587,6048
1644179146.502206,-0.009827,0.009155,-0.994263,0.327725,0.356031,0.006412,46,269,580,6080
1644179146.550465,-0.008057,0.011047,-0.992432,0.312458,0.325496,-0.130992,51,283,587,6048
1644179146.598885,-0.008484,0.009827,-0.991699,0.251389,0.371298,-0.085191,51,276,583,6048
1644179146.647267,-0.006836,0.010071,-0.990112,0.236122,0.386565,-0.115725,54,292,589,6080
1644179146.695659,-0.007019,0.010986,-0.99176,0.236122,0.523969,-0.024122,46,274,583,6016
1644179146.744051,-0.00769,0.00885,-0.99231,0.159786,0.401832,-0.024122,51,269,583,5984
1644179146.792892,-0.01062,0.007751,-0.992737,0.251389,0.310229,-0.115725,48,274,583,5984
1644179146.843086,-0.01001,0.00647,-0.993896,0.113985,0.340763,-0.161527,53,274,583,5984
1644179146.894412,-0.01001,0.010925,-0.992981,0.266656,0.417099,-0.069924,53,276,590,6016
1644179146.939007,-0.009277,0.010437,-0.993042,0.220855,0.24916,-0.024122,57,282,586,6048
1644179147.034431,-0.009644,0.010986,-0.989868,0.327725,0.432366,-0.161527,49,277,582,5984
1644179147.082911,-0.00885,0.008301,-0.991943,0.205588,0.294962,-0.161527,48,276,587,6080
1644179147.131236,-0.008301,0.008179,-0.992554,0.144519,0.493435,-0.039389,43,276,580,6016
1644179147.179582,-0.008118,0.013,-0.99115,0.297191,0.417099,-0.039389,48,274,587,6016
1644179147.22796,-0.010376,0.009521,-0.990601,0.190321,0.600305,-0.069924,49,277,582,6080
1644179147.276372,-0.005859,0.010071,-0.989441,0.159786,0.386565,-0.192061,47,277,582,6064
1644179147.324773,-0.008362,0.009521,-0.993103,0.205588,0.386565,-0.085191,51,283,587,6080
1644179147.373168,-0.008545,0.011841,-0.988403,0.220855,0.294962,-0.069924,48,274,587,6080
1644179147.421547,-0.007935,0.008789,-0.992554,0.144519,0.401832,0.098015,48,274,592,6016
1644179147.469943,-0.008118,0.011414,-0.992737,0.190321,0.462901,-0.054656,54,280,589,6016
1644179147.518335,-0.008667,0.01062,-0.993713,0.236122,0.462901,-0.130992,46,274,578,6000
1644179147.566731,-0.009521,0.008179,-0.993347,0.220855,0.386565,-0.176794,45,287,579,6016
1644179147.615215,-0.005676,0.009521,-0.991699,0.022382,0.432366,-0.100458,48,276,592,6016
1644179147.663481,-0.00708,0.009399,-0.993103,0.205588,0.432366,-0.25313,51,276,587,6080
1644179147.71187,-0.007935,0.010986,-0.98999,0.342992,0.356031,-0.115725,51,271,587,5984
1644179147.760268,-0.005554,0.008789,-0.989075,0.281924,0.340763,-0.14626,43,286,573,6048
1644179147.808681,-0.01001,0.010986,-0.989746,0.312458,0.340763,-0.176794,55,286,576,6016
1644179147.857111,-0.008484,0.009277,-0.990234,0.236122,0.356031,-0.069924,52,270,584,6048
1644179147.90554,-0.00708,0.010193,-0.99054,0.327725,0.401832,-0.024122,39,279,585,6000
1644179147.955011,-0.009644,0.012451,-0.990967,0.266656,0.462901,-0.207328,43,276,580,6048
1644179148.066249,-0.006775,0.009521,-0.989624,0.129252,0.447634,-0.054656,45,275,591,6080
1644179148.101052,-0.005981,0.010437,-0.989014,0.373527,0.325496,-0.085191,51,269,590,5984
1644179148.147433,-0.008789,0.010315,-0.991272,0.281924,0.371298,-0.14626,51,276,583,6000
1644179148.195817,-0.011902,0.012207,-0.994568,0.113985,0.417099,-0.14626,49,275,582,6016
1644179148.24422,-0.009216,0.009338,-0.993652,0.220855,0.340763,-0.054656,46,281,587,6080
1644179148.292593,-0.00769,0.008667,-0.990845,0.266656,0.554504,-0.130992,59,280,596,6016
1644179148.341001,-0.011047,0.013672,-0.991272,0.281924,0.539237,-0.375267,58,279,578,6048
1644179148.389397,-0.009644,0.008606,-0.989624,0.129252,0.340763,-0.130992,42,285,589,6080
1644179148.437801,-0.008972,0.010681,-0.990051,0.220855,0.432366,-0.161527,43,271,583,5984
1644179148.486175,-0.008179,0.010986,-0.990234,0.266656,0.356031,-0.085191,52,273,582,6064
1644179148.534617,-0.010498,0.011169,-0.990723,0.144519,0.493435,-0.14626,53,276,592,6080
1644179148.582988,-0.01062,0.010437,-0.987854,0.281924,0.294962,-0.25313,51,271,578,6080
1644179148.633192,-0.009277,0.008362,-0.987061,0.190321,0.279695,-0.14626,45,282,584,6080
1644179148.68347,-0.010193,0.010132,-0.990417,0.144519,0.386565,-0.069924,54,273,584,6080
1644179148.728528,-0.00769,0.009949,-0.992676,0.129252,0.569771,-0.069924,53,269,590,6016
1644179148.82494,-0.00708,0.010498,-0.992432,0.205588,0.401832,0.067481,51,283,578,5984
1644179148.873357,-0.011353,0.009521,-0.992798,0.129252,0.447634,-0.192061,53,281,590,6016
1644179148.921717,-0.008484,0.009338,-0.990784,0.190321,0.24916,0.036947,39,276,583,6000
1644179148.970108,-0.006897,0.009277,-0.990845,0.266656,0.401832,-0.100458,42,280,584,6048
1644179149.018523,-0.008667,0.009338,-0.990784,0.129252,0.325496,-0.207328,62,281,585,6080
1644179149.068906,-0.006714,0.011169,-0.990479,0.144519,0.356031,-0.161527,45,275,589,6064
1644179149.115352,-0.006653,0.009033,-0.992676,0.388794,0.462901,-0.085191,45,275,584,6000
1644179149.163722,-0.006531,0.009827,-0.993286,0.327725,0.462901,-0.054656,49,280,577,6080
1644179149.212167,-0.009827,0.011536,-0.990723,0.266656,0.600305,-0.14626,54,268,582,6080
1644179149.260478,-0.010864,0.010498,-0.991882,0.281924,0.356031,-0.039389,55,279,580,6048
1644179149.308865,-0.006653,0.010193,-0.989075,0.175053,0.462901,-0.054656,42,273,586,6000
1644179149.35726,-0.005798,0.006836,-0.991272,0.220855,0.340763,-0.192061,61,275,579,6016
1644179149.405658,-0.008057,0.012329,-0.990662,0.251389,0.401832,-0.115725,49,265,582,5984
1644179149.454067,-0.006165,0.009399,-0.991699,0.190321,0.356031,-0.176794,46,269,583,5984
1644179149.50243,-0.009033,0.010559,-0.989014,0.159786,0.401832,0.036947,49,277,593,6080
1644179149.550845,-0.010254,0.011169,-0.990784,0.236122,0.417099,0.067481,46,274,592,6016
1644179149.599192,-0.007874,0.010376,-0.991089,0.281924,0.310229,-0.100458,43,276,585,6080
1644179149.64764,-0.007202,0.009949,-0.99231,0.144519,0.386565,-0.176794,55,276,590,6016
1644179149.69643,-0.008301,0.014038,-0.990967,0.190321,0.417099,-0.130992,54,268,589,6016
1644179149.746808,-0.006531,0.009338,-0.992432,0.068183,0.386565,-0.298931,54,268,577,6000
1644179149.797255,-0.006226,0.009583,-0.989563,0.129252,0.523969,-0.039389,55,274,578,5952
1644179149.841688,-0.008301,0.010559,-0.98999,0.190321,0.279695,-0.207328,52,285,579,6000
1644179149.937971,-0.008362,0.010071,-0.988953,0.129252,0.462901,-0.207328,54,277,582,6048
1644179149.986347,-0.006287,0.013,-0.990601,0.281924,0.356031,-0.069924,48,281,578,6112
1644179150.034885,-0.008484,0.009705,-0.991516,0.113985,0.508702,-0.161527,40,275,582,6000
1644179150.083253,-0.007263,0.010254,-0.991394,0.312458,0.401832,-0.039389,45,268,584,6016
1644179150.131513,-0.010559,0.01001,-0.990662,0.297191,0.554504,-0.039389,52,270,577,6048
1644179150.179877,-0.008301,0.009094,-0.991089,0.220855,0.340763,-0.100458,45,273,584,6016
1644179150.228286,-0.011597,0.012207,-0.989929,0.190321,0.386565,-0.130992,54,285,582,6080
1644179150.2767,-0.008545,0.012451,-0.991333,0.129252,0.401832,-0.085191,54,273,596,6080
1644179150.325112,-0.00824,0.011169,-0.992493,0.190321,0.371298,-0.069924,55,288,587,6064
1644179150.373491,-0.008789,0.010254,-0.992065,0.159786,0.24916,-0.085191,52,273,586,6016
1644179150.421864,-0.010437,0.013184,-0.990173,0.297191,0.523969,-0.100458,48,274,585,6016
1644179150.470259,-0.008118,0.008545,-0.992798,0.297191,0.310229,0.052214,40,280,596,6064
1644179150.518656,-0.009094,0.010437,-0.992859,0.052916,0.417099,-0.085191,51,274,583,6080
1644179150.56704,-0.013855,0.010193,-0.993896,0.236122,0.325496,-0.207328,46,271,585,6016
1644179150.615426,-0.009827,0.010254,-0.993469,0.205588,0.294962,-0.161527,51,281,578,6000
1644179150.663824,-0.009583,0.008301,-0.991028,0.129252,0.432366,-0.192061,46,279,576,6000
1644179150.712232,-0.005981,0.009399,-0.992004,0.220855,0.356031,-0.085191,52,265,593,6080
1644179150.760581,-0.008606,0.009338,-0.991516,0.220855,0.401832,-0.130992,55,274,578,6016
1644179150.80904,-0.010559,0.007507,-0.991333,0.098718,0.386565,-0.268397,52,270,589,5952
1644179150.858986,-0.009644,0.010498,-0.991089,0.113985,0.264427,0.006412,49,280,582,6080
1644179150.908788,-0.010376,0.010681,-0.991211,0.159786,0.417099,-0.115725,54,270,575,6016
1644179150.959195,-0.00769,0.006531,-0.991272,0.052916,0.493435,-0.100458,58,276,578,6048
1644179151.06766,-0.006287,0.010193,-0.990417,-0.008153,0.462901,-0.14626,47,275,577,6000
1644179151.10262,-0.00885,0.010803,-0.992065,0.281924,0.508702,-0.130992,53,281,583,6080
1644179151.147748,-0.009827,0.009399,-0.992188,0.159786,0.386565,-0.039389,45,277,577,6064
1644179151.196138,-0.010376,0.011841,-0.991394,0.129252,0.310229,-0.054656,51,279,578,5952
1644179151.244538,-0.008911,0.010498,-0.992981,0.220855,0.356031,0.067481,53,279,571,6000
1644179151.292939,-0.007324,0.010315,-0.992981,0.144519,0.294962,-0.039389,45,285,589,6080
1644179151.341316,-0.010742,0.01178,-0.992859,0.129252,0.417099,0.021679,48,281,576,6080
1644179151.389712,-0.008301,0.008057,-0.993896,0.190321,0.371298,-0.039389,51,276,590,6016
1644179151.438066,-0.011292,0.009277,-0.990051,0.449863,0.356031,0.036947,45,285,586,6048
1644179151.48649,-0.009155,0.009766,-0.990356,0.342992,0.417099,-0.069924,59,280,579,6064
1644179151.535253,-0.009033,0.011475,-0.990173,0.373527,0.432366,-0.207328,58,283,583,6080
1644179151.584053,-0.008911,0.010681,-0.990723,0.159786,0.310229,-0.176794,47,273,586,6000
1644179151.634668,-0.00946,0.010803,-0.990906,0.312458,0.371298,0.036947,51,279,578,6048
1644179151.684746,-0.007202,0.009216,-0.989868,0.342992,0.386565,-0.207328,57,263,598,6048
1644179151.776855,-0.009094,0.010254,-0.991821,0.159786,0.569771,-0.085191,42,273,591,6080
1644179151.82547,-0.009644,0.011902,-0.993164,0.159786,0.356031,-0.024122,49,275,577,6064
1644179151.873683,-0.009094,0.009033,-0.989441,0.251389,0.340763,-0.008855,52,282,579,6064
1644179151.922029,-0.00708,0.009644,-0.990967,0.266656,0.478168,-0.115725,47,282,586,6112
1644179151.970449,-0.010986,0.011658,-0.988403,0.205588,0.340763,-0.100458,51,286,578,6000
1644179152.0188,-0.008423,0.010132,-0.991028,0.236122,0.508702,-0.100458,46,288,576,6048
1644179152.067282,-0.00885,0.009216,-0.990112,0.205588,0.417099,-0.115725,49,275,584,5984
1644179152.115603,-0.006958,0.010498,-0.991577,0.159786,0.432366,0.006412,46,271,580,6080
1644179152.164004,-0.011108,0.012268,-0.994019,0.159786,0.294962,-0.161527,53,283,576,6048
1644179152.212394,-0.012756,0.009949,-0.98999,0.236122,0.447634,-0.054656,59,282,579,6048
1644179152.260768,-0.011597,0.010986,-0.991638,0.190321,0.462901,-0.192061,47,270,586,6016
1644179152.309139,-0.009033,0.009583,-0.993042,0.068183,0.310229,-0.054656,58,281,578,6048
1644179152.357547,-0.009705,0.01239,-0.990784,0.266656,0.371298,-0.268397,51,279,580,6064
1644179152.405933,-0.01123,0.014282,-0.990723,0.175053,0.386565,-0.115725,35,273,582,6080
1644179152.454343,-0.009094,0.011414,-0.992737,0.297191,0.279695,-0.069924,51,279,580,5984
1644179152.502701,-0.007141,0.009949,-0.992737,0.190321,0.508702,0.021679,53,279,594,6016
1644179152.551114,-0.008667,0.010315,-0.991272,0.388794,0.432366,-0.207328,53,274,578,6128
1644179152.599505,-0.006348,0.009155,-0.99054,0.327725,0.371298,-0.283664,54,282,575,6048
1644179152.647899,-0.010071,0.013489,-0.990784,0.205588,0.401832,-0.207328,49,275,591,6000
1644179152.69642,-0.00592,0.010925,-0.986206,0.129252,0.294962,-0.085191,43,286,590,6048
1644179152.74654,-0.010925,0.010864,-0.991516,0.052916,0.401832,-0.069924,54,282,575,6080
1644179152.796859,-0.008911,0.010254,-0.992004,0.205588,0.447634,-0.100458,54,280,579,6064
1644179152.841885,-0.008423,0.012634,-0.98999,0.144519,0.447634,-0.100458,58,279,569,6112
1644179152.938292,-0.009399,0.009949,-0.994751,0.35826,0.432366,-0.069924,39,274,580,6016
1644179152.986688,-0.007385,0.012451,-0.991089,0.129252,0.523969,-0.054656,53,274,576,6080
1644179153.035307,-0.00647,0.008911,-0.989197,0.220855,0.401832,-0.069924,49,280,582,6000
1644179153.084193,-0.009277,0.009888,-0.991577,0.312458,0.340763,-0.069924,52,270,596,6000
1644179153.131864,-0.006775,0.010498,-0.992249,0.190321,0.508702,-0.024122,43,279,583,6048
1644179153.18022,-0.007263,0.011108,-0.991455,0.113985,0.447634,-0.085191,42,275,593,6080
1644179153.228608,-0.010315,0.009705,-0.992554,0.266656,0.401832,-0.161527,46,266,583,6080
1644179153.276974,-0.007935,0.012024,-0.990784,0.236122,0.401832,-0.130992,46,279,590,6048
1644179153.32539,-0.007446,0.01123,-0.993835,0.251389,0.340763,-0.008855,57,277,586,6000
1644179153.373795,-0.01062,0.009583,-0.988953,0.159786,0.493435,-0.069924,46,269,580,6080
1644179153.422235,-0.009521,0.008484,-0.992004,0.159786,0.325496,0.021679,52,277,582,6080
1644179153.470562,-0.006592,0.013062,-0.98999,0.190321,0.356031,-0.069924,47,282,586,5984
1644179153.518958,-0.007751,0.012268,-0.986816,0.312458,0.447634,-0.054656,51,279,587,5952
1644179153.567353,-0.010254,0.012756,-0.99054,0.312458,0.478168,0.021679,51,274,592,6048
1644179153.615748,-0.009338,0.009827,-0.991272,0.312458,0.371298,-0.176794,51,286,580,6080
1644179153.664143,-0.006409,0.011108,-0.992615,0.281924,0.340763,-0.069924,58,259,587,6048
1644179153.712551,-0.008301,0.009705,-0.992249,0.08345,0.478168,-0.130992,48,279,578,6048
1644179153.760919,-0.007935,0.009277,-0.989563,0.35826,0.294962,-0.161527,57,277,582,6016
1644179153.80932,-0.007568,0.009644,-0.991211,0.129252,0.447634,-0.14626,49,280,589,5952
1644179153.858894,-0.009827,0.012756,-0.990173,0.175053,0.508702,-0.176794,51,283,576,6112
1644179153.908996,-0.008667,0.010925,-0.991516,0.190321,0.386565,-0.024122,51,269,585,6048
1644179153.9595,-0.008301,0.010193,-0.991272,0.312458,0.462901,-0.085191,55,271,587,6016
1644179154.065631,-0.006653,0.008667,-0.990295,0.266656,0.401832,0.006412,53,274,583,6080
1644179154.102975,-0.010193,0.010986,-0.992126,0.297191,0.417099,-0.14626,57,270,589,6016
1644179154.148101,-0.009399,0.009155,-0.993713,0.205588,0.356031,-0.085191,41,279,590,6016
1644179154.196457,-0.010376,0.00824,-0.99054,0.205588,0.294962,-0.008855,49,277,584,6064
1644179154.244857,-0.006165,0.012878,-0.98999,0.236122,0.356031,-0.024122,53,269,583,6048
1644179154.293266,-0.009949,0.010437,-0.990051,0.190321,0.24916,-0.207328,52,277,582,6064
1644179154.341648,-0.00824,0.010254,-0.993408,0.251389,0.386565,-0.192061,64,280,586,6048
1644179154.390044,-0.007751,0.008728,-0.990845,0.113985,0.386565,-0.207328,51,281,578,6048
1644179154.438426,-0.007996,0.010925,-0.990662,0.281924,0.340763,-0.054656,51,271,576,5984
1644179154.4868,-0.008301,0.008972,-0.992432,0.159786,0.447634,-0.14626,46,281,597,6080
1644179154.535206,-0.010254,0.008972,-0.990295,0.312458,0.478168,-0.130992,51,296,597,6080
1644179154.583888,-0.006348,0.009521,-0.990662,0.236122,0.356031,-0.085191,52,277,593,6080
1644179154.632784,-0.009766,0.009216,-0.992554,0.205588,0.325496,-0.069924,49,280,591,6048
1644179154.683298,-0.006287,0.009094,-0.991394,0.159786,0.371298,0.189618,51,279,583,6016
1644179154.73364,-0.007324,0.010925,-0.989746,0.159786,0.417099,-0.008855,52,273,586,6000
1644179154.778347,-0.008667,0.009827,-0.991394,0.419328,0.386565,-0.085191,46,281,587,6128
1644179154.873988,-0.007935,0.010681,-0.992554,0.281924,0.417099,-0.085191,43,276,590,6016
1644179154.922424,-0.008972,0.011658,-0.992249,0.098718,0.432366,-0.130992,52,282,582,6080
1644179154.970752,-0.007996,0.012085,-0.992676,0.236122,0.325496,0.067481,48,274,587,6064
1644179155.019148,-0.004456,0.012207,-0.992432,0.251389,0.401832,-0.008855,57,275,584,6016
1644179155.067601,-0.010376,0.009644,-0.992615,0.251389,0.371298,0.021679,55,286,587,6000
1644179155.115887,-0.008423,0.008728,-0.991882,0.007115,0.447634,-0.054656,54,277,593,6080
1644179155.164299,-0.011169,0.009949,-0.991333,0.175053,0.478168,-0.085191,42,285,589,6064
1644179155.212692,-0.011902,0.012268,-0.990662,0.251389,0.371298,-0.039389,49,285,575,6000
1644179155.261082,-0.01062,0.012451,-0.994324,0.236122,0.188092,-0.14626,52,275,584,6000
1644179155.309457,-0.00824,0.011169,-0.989563,0.297191,0.462901,-0.039389,53,276,585,6080
1644179155.35787,-0.008484,0.007874,-0.990417,0.434595,0.356031,-0.115725,48,274,585,6000
1644179155.40627,-0.007751,0.011658,-0.992432,0.312458,0.401832,-0.14626,46,276,590,5984
1644179155.454709,-0.009766,0.009399,-0.991638,0.129252,0.523969,0.021679,55,271,583,6016
1644179155.503067,-0.007568,0.008423,-0.989929,0.297191,0.432366,-0.085191,51,281,583,6080
1644179155.551437,-0.00824,0.011353,-0.991211,0.266656,0.493435,-0.115725,53,274,585,6080
1644179155.599838,-0.006836,0.006531,-0.989929,0.205588,0.417099,-0.085191,49,273,593,6080
1644179155.648223,-0.006348,0.009155,-0.992188,0.205588,0.325496,-0.054656,45,270,579,6016
1644179155.696615,-0.010803,0.009155,-0.991028,0.236122,0.24916,-0.192061,51,279,580,6000
1644179155.745048,-0.009888,0.008057,-0.991272,0.144519,0.340763,-0.085191,52,282,586,6064
1644179155.794919,-0.009766,0.008423,-0.993225,0.281924,0.447634,-0.115725,46,274,597,6016
1644179155.844841,-0.007629,0.006653,-0.991272,0.266656,0.447634,0.021679,49,270,598,5952
1644179155.895324,-0.008972,0.00824,-0.994751,0.205588,0.478168,-0.100458,46,274,580,6048
1644179155.939525,-0.012756,0.009644,-0.992493,0.144519,0.325496,-0.069924,42,270,589,6016
1644179156.035393,-0.009033,0.006042,-0.99469,0.236122,0.325496,-0.054656,39,274,578,6048
1644179156.083881,-0.006958,0.010559,-0.989868,0.266656,0.554504,-0.161527,53,286,601,6048
1644179156.132218,-0.009705,0.012878,-0.99231,0.236122,0.371298,-0.130992,42,282,584,6000
1644179156.180532,-0.011353,0.006409,-0.994263,0.251389,0.264427,-0.192061,61,273,586,6016
1644179156.228925,-0.007202,0.010925,-0.991028,0.373527,0.233893,-0.039389,47,292,589,6000
1644179156.277311,-0.010498,0.008667,-0.992737,0.373527,0.371298,-0.085191,49,275,582,5984
1644179156.325716,-0.009583,0.010132,-0.995544,0.098718,0.264427,-0.024122,45,275,584,6016
1644179156.374086,-0.010742,0.00946,-0.991394,0.113985,0.417099,-0.161527,48,274,576,6016
1644179156.422512,-0.009888,0.007263,-0.990295,0.297191,0.447634,-0.192061,51,288,592,6048
1644179156.470858,-0.009155,0.008301,-0.993347,0.236122,0.264427,-0.283664,52,268,584,6080
1644179156.519295,-0.00885,0.012024,-0.992188,0.236122,0.447634,-0.14626,45,275,582,6080
1644179156.56768,-0.009521,0.007996,-0.991577,0.098718,0.310229,-0.161527,39,274,583,6080
1644179156.616074,-0.006775,0.008362,-0.991333,0.388794,0.371298,-0.008855,39,274,585,5984
1644179156.664473,-0.005981,0.008972,-0.994446,0.175053,0.401832,-0.100458,60,274,590,6048
1644179156.712875,-0.008423,0.008484,-0.99054,0.266656,0.340763,-0.130992,48,279,580,6016
1644179156.76122,-0.010315,0.00946,-0.990417,0.251389,0.508702,0.052214,53,276,585,6080
1644179156.809664,-0.010193,0.006104,-0.992004,0.220855,0.356031,-0.008855,51,279,590,6080
1644179156.858425,-0.006409,0.007629,-0.995056,0.205588,0.401832,-0.115725,51,274,576,5952
1644179156.906468,-0.009644,0.009277,-0.990784,0.266656,0.371298,-0.024122,48,271,590,6080
1644179156.955905,-0.010315,0.01001,-0.995728,0.236122,0.310229,-0.069924,51,291,587,6048
1644179157.06038,-0.008057,0.009888,-0.991821,0.190321,0.325496,-0.130992,47,280,589,6016
1644179157.10275,-0.007385,0.012329,-0.993774,0.098718,0.508702,-0.14626,49,275,584,5984
1644179157.148369,-0.009338,0.009338,-0.991333,0.129252,0.386565,-0.130992,49,282,572,6016
1644179157.19677,-0.009033,0.009155,-0.991882,0.281924,0.508702,-0.085191,49,270,596,6048
1644179157.24523,-0.009277,0.010498,-0.991028,0.190321,0.432366,-0.14626,52,280,586,6080
1644179157.293563,-0.009888,0.010437,-0.990417,0.175053,0.417099,-0.024122,52,277,575,6048
1644179157.341947,-0.008728,0.00708,-0.993469,0.007115,0.554504,0.021679,54,270,579,6048
1644179157.390336,-0.01001,0.009277,-0.993286,0.281924,0.447634,-0.14626,58,269,585,6048
1644179157.43873,-0.010071,0.009216,-0.991333,0.159786,0.371298,0.021679,52,277,596,6048
1644179157.487127,-0.009033,0.007996,-0.993286,0.159786,0.432366,-0.14626,43,279,592,6048
1644179157.535521,-0.006897,0.010132,-0.991821,0.281924,0.386565,0.021679,46,276,583,6064
1644179157.58391,-0.010071,0.00885,-0.992798,0.251389,0.417099,-0.161527,43,283,587,6080
1644179157.632316,-0.007812,0.010071,-0.990479,0.297191,0.417099,-0.039389,43,283,585,5984
1644179157.680688,-0.009583,0.012451,-0.991394,0.236122,0.569771,-0.100458,57,280,586,5984
1644179157.729377,-0.010193,0.008972,-0.991638,0.220855,0.310229,-0.222595,55,274,592,6000
1644179157.778296,-0.012207,0.008911,-0.989746,0.251389,0.432366,-0.069924,58,269,585,6080
1644179157.828947,-0.010437,0.008972,-0.989807,0.068183,0.432366,-0.161527,48,271,587,5984
1644179157.879898,-0.010132,0.010986,-0.988892,0.190321,0.24916,-0.054656,52,270,579,6000
1644179157.971105,-0.011597,0.007507,-0.991211,0.220855,0.356031,-0.054656,41,279,594,6016
1644179158.019479,-0.008545,0.007996,-0.992126,0.205588,0.462901,-0.085191,57,280,591,6048
1644179158.067921,-0.011047,0.007996,-0.991455,0.312458,0.432366,-0.085191,48,271,590,6016
1644179158.116255,-0.006714,0.009399,-0.990845,0.190321,0.462901,-0.161527,48,274,587,6048
1644179158.164848,-0.009644,0.008789,-0.993408,0.220855,0.401832,-0.14626,53,293,576,6048
1644179158.213019,-0.012329,0.011841,-0.990295,0.098718,0.294962,-0.039389,48,283,585,6064
1644179158.261399,-0.01001,0.008118,-0.98999,0.159786,0.386565,-0.008855,49,275,575,6048
1644179158.309776,-0.011292,0.008789,-0.991089,0.098718,0.371298,-0.054656,55,283,576,6048
1644179158.358152,-0.009949,0.007874,-0.994385,0.144519,0.310229,-0.130992,45,277,586,5984
1644179158.406553,-0.010376,0.009705,-0.989746,0.251389,0.111756,-0.085191,59,273,584,6016
1644179158.455102,-0.013245,0.008484,-0.993408,0.190321,0.447634,-0.069924,45,270,584,5984
1644179158.503382,-0.011597,0.006531,-0.991638,0.144519,0.264427,-0.115725,53,281,585,6048
1644179158.551752,-0.010132,0.010437,-0.99292,0.144519,0.340763,-0.130992,54,273,582,6112
1644179158.600145,-0.007874,0.012085,-0.993958,0.220855,0.401832,-0.085191,51,281,583,6080
1644179158.648542,-0.00647,0.010498,-0.990906,0.08345,0.279695,-0.268397,58,281,590,6048
1644179158.696935,-0.007385,0.012939,-0.990479,0.312458,0.447634,-0.115725,57,285,577,6000
1644179158.745319,-0.007751,0.010193,-0.990784,0.236122,0.493435,-0.024122,57,282,584,6064
1644179158.793715,-0.006653,0.009277,-0.98822,0.220855,0.264427,-0.054656,52,265,591,6080
1644179158.842183,-0.011536,0.009766,-0.992188,0.175053,0.432366,-0.100458,43,279,590,6016
1644179158.892011,-0.011536,0.006775,-0.991699,0.205588,0.401832,-0.054656,39,279,590,6048
1644179158.942312,-0.007568,0.011475,-0.992981,0.220855,0.233893,-0.100458,52,265,584,5984
1644179158.992575,-0.005676,0.009705,-0.993347,0.08345,0.401832,-0.115725,60,276,587,6080
1644179159.037328,-0.007202,0.006775,-0.99054,0.113985,0.371298,-0.130992,57,285,586,6000
1644179159.13272,-0.010071,0.009216,-0.992249,0.373527,0.432366,-0.25313,49,277,577,6016
1644179159.180844,-0.009155,0.011414,-0.990479,0.175053,0.356031,0.021679,48,269,583,5952
1644179159.22925,-0.008423,0.007629,-0.994385,0.068183,0.356031,-0.100458,51,281,583,6000
1644179159.277611,-0.011475,0.011536,-0.991882,0.281924,0.371298,-0.161527,53,281,585,6016
1644179159.326028,-0.009338,0.007935,-0.989868,0.190321,0.508702,-0.25313,48,276,578,6016
1644179159.37442,-0.011108,0.00769,-0.994019,0.312458,0.371298,-0.024122,51,279,578,6080
1644179159.422823,-0.010254,0.01062,-0.991394,0.144519,0.508702,-0.069924,43,274,583,6080
1644179159.471208,-0.010376,0.006042,-0.992126,0.236122,0.493435,-0.176794,48,283,590,6048
1644179159.519604,-0.011475,0.010559,-0.993286,0.098718,0.447634,0.036947,49,273,586,6048
1644179159.567992,-0.010864,0.006592,-0.992249,0.220855,0.386565,-0.054656,47,275,579,6128
1644179159.616357,-0.008728,0.010986,-0.98938,0.266656,0.386565,-0.024122,41,279,573,6016
1644179159.664794,-0.011292,0.010681,-0.991455,0.205588,0.310229,-0.100458,45,275,593,6016
1644179159.713182,-0.008423,0.012207,-0.990295,0.251389,0.356031,-0.085191,54,275,591,6064
1644179159.761538,-0.006226,0.011169,-0.993225,0.144519,0.401832,-0.176794,45,275,579,6080
1644179159.809918,-0.008423,0.008728,-0.993713,0.175053,0.417099,-0.024122,43,274,590,6048
1644179159.858377,-0.006836,0.010559,-0.987915,0.129252,0.279695,-0.039389,53,269,585,6080
1644179159.906776,-0.01239,0.00946,-0.995483,0.175053,0.386565,0.036947,53,274,583,6016
1644179159.955553,-0.013428,0.010864,-0.991577,0.266656,0.493435,-0.192061,58,276,594,6048
1644179160.003599,-0.00824,0.008972,-0.99176,0.266656,0.417099,0.036947,45,277,577,6048
1644179160.070784,-0.006958,0.010742,-0.991455,0.35826,0.356031,-0.085191,43,274,590,5984
1644179160.108439,-0.008911,0.010925,-0.993835,0.251389,0.401832,0.067481,36,264,585,6048
1644179160.148721,-0.008667,0.010132,-0.993286,0.129252,0.386565,-0.14626,46,271,576,6016
1644179160.198415,-0.011963,0.008301,-0.992065,0.312458,0.508702,-0.085191,52,280,584,6016
1644179160.293878,-0.007751,0.009766,-0.992676,0.175053,0.462901,-0.115725,47,270,582,6000
1644179160.342395,-0.011475,0.00824,-0.990173,0.144519,0.493435,0.006412,46,276,583,6112
1644179160.390648,-0.009827,0.00946,-0.990173,0.098718,0.432366,-0.130992,51,291,587,5984
1644179160.439025,-0.010559,0.008667,-0.993835,0.159786,0.417099,-0.130992,58,274,578,6112
1644179160.487424,-0.008667,0.009521,-0.992859,0.205588,0.417099,-0.085191,43,274,583,6112
1644179160.535834,-0.009277,0.009705,-0.991211,0.236122,0.447634,-0.024122,47,273,577,6000
1644179160.584232,-0.008728,0.008911,-0.991272,0.35826,0.310229,-0.039389,42,285,577,6016
1644179160.632616,-0.00824,0.009216,-0.99292,0.297191,0.279695,-0.176794,45,265,572,5984
1644179160.681003,-0.013245,0.011597,-0.989136,0.190321,0.340763,-0.039389,49,277,584,6080
1644179160.729402,-0.011414,0.008728,-0.994385,0.236122,0.569771,-0.130992,46,279,587,6048
1644179160.777788,-0.007629,0.008606,-0.991333,0.297191,0.478168,-0.161527,52,275,584,6048
1644179160.826195,-0.009033,0.01001,-0.992065,0.098718,0.447634,-0.069924,49,282,579,6048
1644179160.87473,-0.008728,0.01123,-0.992188,0.144519,0.493435,-0.100458,41,279,576,6048
1644179160.923026,-0.009338,0.008667,-0.991333,0.281924,0.401832,-0.054656,52,280,575,5952
1644179160.971378,-0.011719,0.010864,-0.99231,0.175053,0.447634,-0.039389,49,282,577,6000
1644179161.019794,-0.009827,0.011047,-0.990662,0.190321,0.432366,0.006412,59,270,593,6064
1644179161.085345,-0.012451,0.010681,-0.991516,0.297191,0.493435,-0.222595,48,281,585,6048
1644179161.119127,-0.007507,0.00946,-0.989868,0.266656,0.371298,-0.024122,55,271,590,6080
1644179161.169988,-0.010193,0.009399,-0.993347,0.098718,0.340763,-0.100458,42,285,577,6048
1644179161.213703,-0.010803,0.011963,-0.992188,0.113985,0.432366,-0.161527,45,273,582,5984
1644179161.310077,-0.009338,0.006226,-0.992432,0.35826,0.539237,0.067481,48,283,580,6016
1644179161.358478,-0.012756,0.007446,-0.993958,0.312458,0.310229,-0.085191,40,277,586,6048
1644179161.406875,-0.007629,0.010315,-0.992126,0.327725,0.478168,-0.024122,58,274,580,6064
1644179161.455402,-0.007446,0.009399,-0.991333,0.144519,0.310229,-0.054656,55,283,578,6000
1644179161.503659,-0.007874,0.006897,-0.990295,0.08345,0.539237,-0.130992,57,273,584,6016
1644179161.552086,-0.007996,0.010742,-0.989563,0.281924,0.401832,-0.039389,45,280,589,6112
1644179161.600472,-0.011658,0.009766,-0.99054,0.098718,0.279695,-0.176794,52,280,584,6016
1644179161.648861,-0.006287,0.011292,-0.991943,0.144519,0.279695,-0.130992,43,271,566,6000
1644179161.697254,-0.00885,0.010437,-0.992493,0.327725,0.356031,-0.283664,55,286,585,6016
1644179161.745624,-0.009644,0.00769,-0.992737,0.113985,0.523969,-0.192061,52,275,586,6080
1644179161.79404,-0.012329,0.008972,-0.99115,0.144519,0.432366,-0.176794,43,281,587,5952
1644179161.842448,-0.010315,0.009338,-0.992615,0.098718,0.386565,-0.207328,43,281,578,6016
1644179161.890865,-0.007751,0.012146,-0.991455,0.297191,0.371298,-0.161527,41,271,578,6112
1644179161.939213,-0.01001,0.009521,-0.990967,0.236122,0.447634,-0.115725,52,270,593,6048
1644179161.98762,-0.00769,0.010864,-0.992615,0.129252,0.340763,-0.161527,47,273,596,6112
1644179162.036037,-0.008789,0.007812,-0.989258,0.129252,0.447634,-0.14626,42,277,586,6048
1644179162.086958,-0.010498,0.011658,-0.993164,0.297191,0.294962,-0.115725,57,273,584,6016
1644179162.133327,-0.00824,0.014526,-0.991028,0.327725,0.417099,-0.100458,46,283,580,6048
1644179162.184079,-0.008972,0.01123,-0.992371,0.068183,0.447634,-0.161527,39,274,590,6016
1644179162.233967,-0.009766,0.009277,-0.992798,0.205588,0.340763,-0.222595,40,277,589,6000
1644179162.278988,-0.010254,0.010803,-0.992188,0.266656,0.462901,-0.222595,46,276,590,6048
1644179162.374983,-0.00769,0.010132,-0.99292,0.08345,0.310229,-0.039389,49,285,591,5984
1644179162.423197,-0.010925,0.010437,-0.990601,0.144519,0.462901,-0.085191,54,273,584,6080
1644179162.471564,-0.008179,0.010193,-0.993713,0.35826,0.462901,-0.130992,52,277,582,6016
1644179162.519949,-0.00946,0.011902,-0.991211,0.190321,0.447634,-0.100458,41,271,585,6000
1644179162.568327,-0.008545,0.009644,-0.990967,0.266656,0.294962,-0.039389,49,287,584,6016
1644179162.616734,-0.00769,0.008667,-0.991394,0.175053,0.554504,-0.085191,51,279,580,6016
1644179162.665171,-0.009766,0.010071,-0.992554,0.236122,0.386565,-0.207328,45,275,575,6048
1644179162.713516,-0.008118,0.011658,-0.99353,0.175053,0.24916,-0.161527,46,281,585,6080
1644179162.76192,-0.007996,0.00946,-0.991638,0.113985,0.462901,-0.054656,48,279,580,6112
1644179162.810301,-0.006836,0.009338,-0.992981,0.190321,0.340763,-0.176794,43,276,587,6080
1644179162.858706,-0.010132,0.007812,-0.991943,0.266656,0.401832,-0.207328,45,287,586,6080
1644179162.907103,-0.010681,0.009094,-0.991821,0.144519,0.462901,-0.161527,41,274,585,6080
1644179162.95549,-0.008484,0.010803,-0.988098,0.220855,0.294962,-0.085191,52,277,575,6064
1644179163.003857,-0.008484,0.00885,-0.990967,0.113985,0.462901,-0.161527,49,273,570,6160
1644179163.065522,-0.008972,0.009033,-0.99231,0.388794,0.462901,-0.054656,54,282,584,6064
1644179163.103212,-0.00885,0.010376,-0.991394,0.266656,0.386565,-0.176794,54,270,584,6048
1644179163.14902,-0.008789,0.010315,-0.99054,0.205588,0.386565,-0.176794,51,281,583,6016
1644179163.197407,-0.010742,0.013,-0.993896,0.251389,0.264427,-0.161527,47,275,586,6000
1644179163.245831,-0.007019,0.011475,-0.990295,0.205588,0.310229,-0.192061,43,274,583,6016
1644179163.29468,-0.007629,0.011292,-0.993835,0.220855,0.356031,-0.161527,54,280,584,6048
1644179163.345219,-0.008789,0.010315,-0.989319,0.342992,0.371298,-0.008855,45,275,589,6048
1644179163.395328,-0.006226,0.010376,-0.990845,0.190321,0.386565,-0.115725,47,275,589,6016
1644179163.440438,-0.006409,0.006775,-0.989746,0.129252,0.539237,-0.14626,51,283,580,6048
1644179163.536133,-0.006348,0.010742,-0.992188,0.236122,0.539237,-0.115725,58,276,585,6016
1644179163.58456,-0.007751,0.008057,-0.991333,0.159786,0.432366,-0.054656,39,276,585,6016
1644179163.632933,-0.008728,0.011719,-0.989014,0.281924,0.493435,-0.222595,43,279,585,6080
1644179163.681326,-0.007324,0.011841,-0.991089,0.251389,0.325496,-0.085191,46,291,576,6016
1644179163.729712,-0.007263,0.011108,-0.992859,0.205588,0.401832,-0.085191,51,271,587,6016
1644179163.778107,-0.008057,0.008789,-0.991089,0.251389,0.447634,-0.130992,46,271,580,6016
1644179163.826521,-0.009644,0.012024,-0.990906,0.205588,0.371298,-0.130992,45,277,582,6016
1644179163.874936,-0.00708,0.00946,-0.992126,0.312458,0.493435,-0.008855,49,273,598,6080
1644179163.923346,-0.007874,0.010193,-0.991028,0.205588,0.508702,-0.069924,41,286,571,5952
1644179163.971727,-0.006409,0.012207,-0.991272,0.236122,0.294962,0.021679,51,283,585,6016
1644179164.020112,-0.008362,0.008362,-0.991211,0.144519,0.371298,-0.115725,52,280,589,6128
1644179164.085572,-0.00824,0.010193,-0.991821,0.144519,0.340763,-0.024122,48,279,587,6080
1644179164.116873,-0.010498,0.009399,-0.989258,0.236122,0.401832,-0.054656,43,281,583,6080
1644179164.165287,-0.007507,0.011353,-0.99292,0.281924,0.447634,-0.268397,47,280,579,6080
1644179164.213639,-0.008362,0.010559,-0.990234,0.113985,0.462901,-0.161527,53,276,590,6080
1644179164.262047,-0.008911,0.010315,-0.99054,0.144519,0.417099,-0.115725,48,283,587,5984
1644179164.310399,-0.010803,0.009033,-0.993286,0.236122,0.432366,-0.115725,41,276,583,6016
1644179164.35882,-0.008118,0.00824,-0.992188,0.190321,0.401832,-0.161527,36,291,583,6000
1644179164.407206,-0.007202,0.008667,-0.989441,0.220855,0.264427,0.036947,42,273,589,6000
1644179164.455985,-0.011475,0.005005,-0.991638,0.266656,0.386565,-0.085191,60,271,580,5936
1644179164.505903,-0.007568,0.010742,-0.992371,0.35826,0.401832,-0.14626,52,285,591,6000
1644179164.556179,-0.008179,0.011108,-0.989136,0.251389,0.310229,-0.222595,48,276,583,6000
1644179164.601196,-0.007202,0.010803,-0.994141,0.113985,0.325496,-0.100458,58,279,580,6016
1644179164.697541,-0.007263,0.007019,-0.98999,0.220855,0.462901,-0.161527,47,287,577,6000
1644179164.745933,-0.012451,0.008972,-0.988403,0.220855,0.340763,-0.039389,45,277,589,6048
1644179164.794363,-0.007324,0.008484,-0.99115,0.144519,0.462901,-0.115725,61,277,572,6000
1644179164.842798,-0.009583,0.01001,-0.990845,0.113985,0.478168,-0.100458,45,275,582,6064
1644179164.891179,-0.010498,0.010376,-0.992737,0.052916,0.417099,-0.054656,43,274,587,6048
1644179164.93957,-0.007874,0.010803,-0.993286,0.113985,0.508702,-0.039389,55,279,580,6048
1644179164.987963,-0.008484,0.010315,-0.994873,0.190321,0.386565,-0.085191,46,269,590,6048
1644179165.036331,-0.00708,0.010254,-0.992065,0.312458,0.356031,-0.222595,48,283,590,5984
1644179165.084822,-0.011414,0.010864,-0.992371,0.190321,0.417099,0.052214,51,276,583,6016
1644179165.133109,-0.010742,0.006348,-0.991821,0.236122,0.447634,-0.176794,57,275,575,6048
1644179165.181484,-0.010071,0.010742,-0.992676,0.159786,0.432366,-0.130992,60,271,592,6048
1644179165.229877,-0.010925,0.011353,-0.989563,0.144519,0.63084,-0.130992,47,275,589,6112
1644179165.278245,-0.009216,0.007874,-0.993469,0.35826,0.264427,-0.069924,45,282,593,6080
1644179165.326662,-0.008606,0.009155,-0.990356,0.312458,0.401832,0.052214,43,288,583,6016
1644179165.375095,-0.009155,0.007568,-0.992432,0.129252,0.462901,-0.14626,47,287,589,6048
1644179165.423453,-0.008179,0.008545,-0.99231,0.175053,0.340763,-0.130992,54,285,582,6048
1644179165.471847,-0.006104,0.007141,-0.991699,0.175053,0.356031,-0.25313,52,285,575,5984
1644179165.522351,-0.011169,0.00824,-0.99231,0.205588,0.401832,-0.192061,43,269,580,6000
1644179165.572443,-0.011108,0.010559,-0.990784,0.129252,0.432366,-0.085191,46,274,583,6048
1644179165.617434,-0.007996,0.009827,-0.993408,0.327725,0.386565,-0.192061,42,277,579,6080
1644179165.713836,-0.008728,0.007629,-0.992676,0.220855,0.279695,-0.024122,45,282,577,5984
1644179165.762389,-0.008667,0.008606,-0.992065,0.373527,0.447634,-0.237863,52,277,582,6080
1644179165.81058,-0.009766,0.01062,-0.992126,0.281924,0.371298,-0.192061,51,279,576,6080
1644179165.85902,-0.008789,0.01239,-0.993103,0.190321,0.325496,-0.161527,48,276,578,6016
1644179165.907412,-0.007874,0.008911,-0.991577,0.190321,0.356031,-0.054656,46,269,580,6016
1644179165.95579,-0.007446,0.009705,-0.992432,0.144519,0.417099,-0.069924,52,275,593,6000
1644179166.004175,-0.010193,0.011414,-0.99176,0.434595,0.340763,-0.024122,46,274,583,5984
1644179166.065162,-0.010437,0.008057,-0.994629,0.297191,0.447634,-0.298931,46,281,580,6000
1644179166.100966,-0.008362,0.008911,-0.995483,0.312458,0.371298,-0.069924,54,285,600,6064
1644179166.149317,-0.010193,0.00946,-0.99115,0.190321,0.401832,-0.100458,47,280,593,6016
1644179166.197715,-0.006897,0.007568,-0.992249,0.327725,0.356031,-0.008855,55,279,573,6048
1644179166.246094,-0.009827,0.010132,-0.992432,0.113985,0.310229,-0.207328,67,276,583,5984
1644179166.29452,-0.007996,0.008423,-0.992554,0.342992,0.356031,-0.024122,47,282,572,6016
1644179166.342922,-0.008972,0.009888,-0.994385,0.037649,0.478168,-0.14626,47,285,593,6048
1644179166.391292,-0.00946,0.011047,-0.990784,0.266656,0.478168,-0.008855,51,276,590,6112
1644179166.439658,-0.010193,0.008972,-0.990906,0.159786,0.417099,-0.130992,48,279,587,6000
1644179166.488083,-0.009155,0.009644,-0.992676,0.281924,0.356031,-0.115725,51,283,592,6016
1644179166.536469,-0.009338,0.008362,-0.994995,0.08345,0.401832,-0.222595,51,271,594,6112
1644179166.584871,-0.011963,0.01062,-0.992065,0.342992,0.417099,-0.054656,42,280,577,6016
1644179166.633524,-0.008423,0.011108,-0.993408,0.052916,0.386565,-0.069924,58,281,587,6064
1644179166.684096,-0.010681,0.008179,-0.994385,0.327725,0.462901,-0.054656,54,280,584,6080
1644179166.73386,-0.009644,0.00885,-0.989502,0.190321,0.356031,-0.176794,47,282,579,6016
1644179166.779094,-0.007324,0.011169,-0.991455,0.373527,0.386565,-0.054656,40,273,582,6016
1644179166.875583,-0.006042,0.010498,-0.992859,0.312458,0.356031,0.052214,58,283,583,6016
1644179166.923668,-0.005737,0.010071,-0.991577,0.08345,0.386565,-0.14626,48,271,569,6080
1644179166.972038,-0.008606,0.012451,-0.993225,0.098718,0.401832,-0.054656,51,274,597,6000
1644179167.020437,-0.008789,0.00946,-0.99115,0.129252,0.478168,-0.130992,39,269,587,6000
1644179167.068891,-0.005554,0.008118,-0.992371,0.022382,0.478168,-0.054656,42,273,589,6048
1644179167.117177,-0.008911,0.012573,-0.99353,0.236122,0.340763,-0.130992,53,276,587,6048
1644179167.165557,-0.005676,0.009155,-0.994019,0.037649,0.401832,0.006412,47,275,572,6080
1644179167.213959,-0.009644,0.009094,-0.994263,0.129252,0.386565,0.006412,41,274,580,6016
1644179167.26237,-0.010071,0.010315,-0.993896,0.297191,0.325496,-0.039389,51,276,576,5984
1644179167.31072,-0.007935,0.007446,-0.989807,0.175053,0.325496,-0.161527,53,279,590,6048
