epoch,acc_x,acc_y,acc_z,rot_x,rot_y,rot_z,mag_x,mag_y,mag_z,temp
1644172500.020317,-0.010681,0.008362,-0.990601,0.220855,0.493435,-0.176794,48,274,576,5696
1644172500.069099,-0.00946,0.007996,-0.993225,0.113985,0.462901,-0.039389,53,283,580,5712
1644172500.117069,-0.006836,0.010437,-0.993591,0.373527,0.371298,-0.130992,49,275,570,5648
1644172500.166273,-0.010559,0.010071,-0.990784,0.236122,0.340763,-0.069924,52,273,584,5664
1644172500.213855,-0.012329,0.008667,-0.991821,0.404061,0.447634,-0.115725,43,276,576,5696
1644172500.262254,-0.012451,0.010864,-0.989197,0.144519,0.340763,-0.130992,52,263,577,5760
1644172500.310603,-0.009033,0.006958,-0.991028,0.251389,0.432366,-0.085191,54,277,575,5664
1644172500.359022,-0.011108,0.007568,-0.994019,0.220855,0.432366,-0.085191,57,265,577,5664
1644172500.40741,-0.013123,0.00946,-0.992798,0.190321,0.401832,-0.039389,40,273,568,5712
1644172500.455787,-0.011597,0.009766,-0.993347,0.312458,0.432366,0.082748,46,269,592,5664
1644172500.504173,-0.01123,0.006897,-0.990845,0.205588,0.340763,-0.054656,59,268,575,5648
1644172500.552599,-0.009094,0.008484,-0.993225,0.098718,0.371298,-0.069924,48,279,576,5760
1644172500.600972,-0.008606,0.010132,-0.99115,0.251389,0.417099,-0.115725,46,276,573,5712
1644172500.649364,-0.012939,0.008911,-0.992126,0.236122,0.279695,-0.268397,48,271,576,5696
1644172500.697752,-0.010376,0.00885,-0.990723,0.052916,0.386565,-0.100458,43,279,569,5712
1644172500.746419,-0.013123,0.008423,-0.992798,0.205588,0.493435,-0.207328,57,260,572,5696
1644172500.797169,-0.011475,0.007019,-0.990723,0.205588,0.447634,-0.115725,46,264,571,5728
1644172500.848212,-0.011414,0.010742,-0.990601,0.312458,0.24916,-0.100458,52,282,579,5728
1644172500.892496,-0.010559,0.009644,-0.989685,0.373527,0.417099,0.036947,57,263,579,5712
1644172500.98813,-0.009827,0.007568,-0.991943,0.129252,0.585038,-0.100458,42,280,577,5712
1644172501.036534,-0.011353,0.006287,-0.994446,0.220855,0.417099,-0.222595,51,271,571,5712
1644172501.088986,-0.008667,0.009521,-0.990845,0.266656,0.462901,-0.054656,47,277,584,5696
1644172501.133265,-0.008484,0.008972,-0.991638,0.220855,0.493435,-0.130992,51,281,583,5728
1644172501.182214,-0.011169,0.010437,-0.991333,0.251389,0.325496,-0.115725,45,270,572,5712
1644172501.230042,-0.010376,0.006653,-0.989441,0.236122,0.340763,-0.130992,51,271,573,5664
1644172501.278416,-0.014465,0.009827,-0.993652,0.281924,0.401832,-0.115725,45,287,575,5760
1644172501.326833,-0.011475,0.008972,-0.994446,0.327725,0.432366,-0.039389,53,274,585,5712
1644172501.375278,-0.009888,0.010254,-0.991089,0.190321,0.356031,-0.100458,51,279,566,5664
1644172501.423636,-0.010376,0.007996,-0.990662,0.098718,0.478168,-0.100458,54,277,584,5696
1644172501.471999,-0.009827,0.007385,-0.992065,0.159786,0.279695,-0.207328,46,271,573,5728
1644172501.520396,-0.012207,0.010437,-0.993103,0.144519,0.325496,-0.054656,45,275,577,5696
1644172501.568782,-0.009827,0.009644,-0.994141,0.037649,0.340763,-0.130992,43,276,578,5696
1644172501.617189,-0.01239,0.009827,-0.992188,0.175053,0.340763,-0.054656,41,281,580,5696
1644172501.66557,-0.012085,0.009399,-0.992798,0.098718,0.417099,-0.115725,53,266,583,5696
1644172501.713957,-0.009216,0.010071,-0.992493,0.129252,0.371298,-0.039389,55,281,576,5728
1644172501.762333,-0.00946,0.010498,-0.992798,0.113985,0.386565,-0.192061,53,269,583,5696
1644172501.810778,-0.010193,0.010498,-0.993347,0.175053,0.432366,-0.100458,49,268,570,5664
1644172501.859189,-0.010742,0.01001,-0.992432,0.327725,0.432366,-0.115725,58,281,576,5696
1644172501.909022,-0.010803,0.007874,-0.98999,0.342992,0.478168,-0.024122,48,266,583,5808
1644172501.95943,-0.011658,0.008179,-0.993164,0.205588,0.371298,-0.100458,53,279,578,5712
1644172502.065706,-0.00946,0.00946,-0.993958,-0.008153,0.539237,-0.192061,45,268,577,5696
1644172502.1012,-0.01062,0.008362,-0.990601,0.068183,0.478168,-0.207328,52,273,586,5696
1644172502.149485,-0.01001,0.007324,-0.995422,0.266656,0.386565,-0.176794,48,274,578,5696
1644172502.197869,-0.012024,0.011169,-0.992249,0.220855,0.371298,-0.176794,53,281,569,5712
1644172502.24625,-0.01239,0.00824,-0.994812,0.312458,0.478168,-0.100458,45,275,589,5664
1644172502.294715,-0.009094,0.00946,-0.990112,0.144519,0.401832,-0.268397,57,282,582,5728
1644172502.34306,-0.011719,0.008118,-0.993652,0.144519,0.401832,-0.237863,52,270,586,5760
1644172502.391401,-0.011841,0.009399,-0.992432,0.281924,0.294962,0.021679,53,266,571,5696
1644172502.439816,-0.010742,0.009399,-0.991028,0.113985,0.294962,0.006412,52,277,584,5728
1644172502.488215,-0.007751,0.010315,-0.991943,0.342992,0.462901,-0.069924,47,280,577,5696
1644172502.536606,-0.009705,0.007507,-0.994812,0.098718,0.661374,-0.039389,58,279,587,5696
1644172502.585032,-0.010071,0.008606,-0.991699,0.205588,0.493435,0.082748,40,277,575,5664
1644172502.633576,-0.01062,0.008972,-0.989746,0.434595,0.356031,-0.054656,43,271,578,5760
1644172502.682882,-0.010315,0.010376,-0.994812,0.251389,0.447634,-0.130992,49,270,591,5664
1644172502.733186,-0.011841,0.009216,-0.992371,0.144519,0.523969,-0.14626,54,273,577,5696
1644172502.783552,-0.009155,0.006226,-0.992798,0.373527,0.478168,-0.14626,51,279,585,5664
1644172502.875461,-0.009338,0.010742,-0.993469,0.266656,0.356031,-0.085191,45,282,568,5696
1644172502.923774,-0.008118,0.009644,-0.992432,0.129252,0.371298,-0.222595,46,276,576,5696
1644172502.972399,-0.008423,0.010437,-0.991272,0.373527,0.554504,-0.130992,52,270,572,5696
1644172503.020536,-0.011719,0.009399,-0.992249,0.266656,0.432366,-0.039389,52,265,577,5632
1644172503.069017,-0.011292,0.007751,-0.991211,0.190321,0.24916,0.052214,49,268,572,5776
1644172503.11734,-0.011108,0.006897,-0.991638,0.388794,0.417099,-0.039389,47,280,579,5712
1644172503.165685,-0.010315,0.008667,-0.992371,0.266656,0.294962,-0.192061,42,273,584,5760
1644172503.214089,-0.012268,0.010071,-0.990051,0.159786,0.371298,-0.192061,55,266,569,5712
1644172503.262489,-0.010559,0.009888,-0.993958,0.236122,0.462901,-0.069924,47,280,575,5696
1644172503.310828,-0.011169,0.009827,-0.992126,0.190321,0.356031,-0.176794,51,269,585,5728
1644172503.359245,-0.012512,0.010681,-0.992249,0.113985,0.325496,-0.176794,55,281,576,5808
1644172503.407634,-0.00824,0.008972,-0.99292,0.175053,0.401832,-0.268397,48,269,571,5696
1644172503.456037,-0.011719,0.009888,-0.990356,0.175053,0.462901,-0.085191,52,280,575,5760
1644172503.504418,-0.010315,0.011536,-0.99176,0.297191,0.432366,-0.039389,54,277,568,5712
1644172503.552836,-0.011292,0.01062,-0.991333,0.281924,0.356031,-0.222595,53,269,583,5696
1644172503.60118,-0.009277,0.00885,-0.992554,0.220855,0.478168,0.006412,57,280,586,5696
1644172503.649573,-0.011108,0.00824,-0.991577,0.327725,0.523969,-0.283664,53,269,571,5712
1644172503.697983,-0.009644,0.009583,-0.991821,0.266656,0.401832,-0.14626,45,270,577,5712
1644172503.746346,-0.009888,0.010925,-0.991699,0.342992,0.432366,-0.115725,59,265,582,5664
1644172503.795156,-0.009827,0.008972,-0.990479,0.266656,0.340763,-0.100458,59,273,568,5712
1644172503.845789,-0.013855,0.009888,-0.988953,0.251389,0.432366,-0.176794,49,280,577,5712
1644172503.896807,-0.012451,0.008606,-0.993164,0.281924,0.386565,-0.008855,46,276,571,5760
1644172503.941249,-0.011108,0.00769,-0.992859,0.266656,0.356031,-0.207328,38,277,584,5728
1644172504.036749,-0.01123,0.006409,-0.991333,0.190321,0.447634,-0.115725,51,271,571,5648
1644172504.08604,-0.00531,0.008972,-0.994812,0.251389,0.432366,-0.039389,43,279,583,5696
1644172504.133507,-0.009338,0.007507,-0.991638,0.404061,0.493435,-0.130992,53,269,573,5712
1644172504.1819,-0.013123,0.008301,-0.991699,0.342992,0.462901,-0.222595,45,268,568,5664
1644172504.230269,-0.01001,0.005737,-0.99292,0.281924,0.447634,-0.069924,46,269,573,5664
1644172504.278665,-0.012207,0.008972,-0.992554,0.35826,0.554504,-0.024122,51,279,583,5696
1644172504.327036,-0.011536,0.005676,-0.991211,0.342992,0.310229,0.021679,43,279,573,5648
1644172504.375443,-0.010803,0.008362,-0.997009,0.220855,0.24916,0.021679,53,271,578,5696
1644172504.423852,-0.013977,0.011963,-0.992004,0.327725,0.539237,-0.237863,52,287,582,5696
1644172504.472252,-0.008972,0.010864,-0.994995,0.113985,0.386565,-0.054656,52,280,575,5696
1644172504.520634,-0.010376,0.006104,-0.993225,0.281924,0.371298,0.12855,49,273,568,5728
1644172504.569026,-0.010437,0.009033,-0.991516,0.068183,0.447634,0.006412,57,265,579,5696
1644172504.617408,-0.010986,0.010559,-0.992065,0.190321,0.401832,-0.100458,53,266,578,5696
1644172504.665804,-0.010742,0.007874,-0.992737,0.251389,0.432366,-0.024122,46,279,578,5712
1644172504.714187,-0.010376,0.009277,-0.991577,0.236122,0.615573,-0.008855,48,269,587,5776
1644172504.762608,-0.009094,0.00769,-0.99115,0.281924,0.218626,-0.069924,57,270,596,5728
1644172504.810937,-0.009216,0.008179,-0.994385,0.144519,0.356031,-0.176794,46,281,576,5632
1644172504.859395,-0.009888,0.009888,-0.993347,0.08345,0.600305,-0.130992,46,274,583,5696
1644172504.907784,-0.012085,0.007812,-0.99469,0.35826,0.447634,0.006412,48,266,583,5760
1644172504.957337,-0.011108,0.009521,-0.990906,0.236122,0.447634,-0.14626,62,271,587,5600
1644172505.007508,-0.008118,0.008484,-0.992126,0.205588,0.493435,-0.024122,58,279,587,5664
1644172505.104397,-0.013306,0.009033,-0.994324,0.113985,0.478168,-0.115725,51,276,580,5648
1644172505.149724,-0.012024,0.006775,-0.993347,0.220855,0.325496,-0.130992,55,271,573,5648
1644172505.198093,-0.012268,0.007935,-0.99054,0.297191,0.417099,-0.069924,53,274,576,5696
1644172505.246461,-0.011475,0.010986,-0.992859,0.251389,0.371298,-0.008855,57,275,572,5728
1644172505.294882,-0.013,0.00647,-0.994263,0.251389,0.478168,-0.069924,55,271,585,5696
1644172505.343239,-0.011902,0.010315,-0.992798,0.220855,0.508702,-0.069924,55,274,578,5664
1644172505.391659,-0.00946,0.009705,-0.992737,0.251389,0.478168,-0.069924,47,280,582,5696
1644172505.440046,-0.013184,0.009155,-0.993164,0.144519,0.310229,-0.039389,54,275,577,5648
1644172505.488433,-0.010681,0.007385,-0.99292,0.251389,0.371298,-0.161527,45,277,575,5664
1644172505.536824,-0.010071,0.010681,-0.994324,0.190321,0.24916,-0.161527,45,268,582,5728
1644172505.585223,-0.01239,0.006531,-0.992432,0.327725,0.340763,-0.069924,52,270,582,5760
1644172505.633608,-0.01123,0.010925,-0.99353,0.251389,0.447634,-0.069924,55,269,590,5696
1644172505.681994,-0.00824,0.006714,-0.995483,0.281924,0.493435,0.067481,55,274,580,5712
1644172505.73039,-0.009399,0.008545,-0.993408,0.312458,0.203359,-0.008855,47,265,572,5712
1644172505.778939,-0.009705,0.010681,-0.992188,0.175053,0.386565,-0.222595,58,291,583,5712
1644172505.828236,-0.007507,0.01001,-0.990845,0.205588,0.279695,-0.069924,41,262,569,5696
1644172505.878945,-0.009949,0.009216,-0.991211,0.190321,0.386565,-0.192061,49,273,568,5760
1644172505.929538,-0.009338,0.010437,-0.992737,0.144519,0.340763,-0.039389,43,271,578,5728
1644172506.020815,-0.007507,0.011841,-0.993164,0.236122,0.325496,-0.237863,57,275,582,5712
1644172506.069221,-0.012512,0.011108,-0.992981,0.312458,0.401832,0.021679,53,271,578,5664
1644172506.117467,-0.012695,0.009766,-0.993225,0.266656,0.188092,-0.069924,47,275,586,5696
1644172506.165879,-0.009705,0.009521,-0.992065,0.144519,0.508702,-0.14626,57,277,579,5712
1644172506.214326,-0.00946,0.012146,-0.99176,0.236122,0.340763,-0.283664,47,280,579,5696
1644172506.262665,-0.012878,0.008423,-0.992981,0.205588,0.294962,-0.069924,48,271,566,5760
1644172506.31116,-0.006042,0.009277,-0.991516,0.129252,0.493435,-0.130992,55,266,571,5664
1644172506.359476,-0.009033,0.007263,-0.994141,0.281924,0.462901,-0.207328,53,266,566,5696
1644172506.407868,-0.012207,0.010437,-0.988647,0.190321,0.340763,-0.161527,53,266,583,5696
1644172506.456249,-0.008545,0.011169,-0.993958,0.205588,0.386565,-0.14626,55,286,580,5696
1644172506.504723,-0.01062,0.009399,-0.992188,0.159786,0.371298,-0.14626,54,273,572,5696
1644172506.553052,-0.010986,0.010864,-0.993469,0.175053,0.203359,-0.192061,48,274,580,5696
1644172506.601426,-0.009705,0.009338,-0.991028,0.113985,0.508702,-0.024122,51,281,576,5648
1644172506.649814,-0.00885,0.01062,-0.991699,0.281924,0.371298,-0.069924,52,277,572,5696
1644172506.698219,-0.010132,0.00769,-0.990295,0.35826,0.447634,-0.14626,53,271,573,5712
1644172506.74659,-0.011353,0.007629,-0.991638,0.297191,0.432366,-0.054656,51,283,578,5712
1644172506.795074,-0.010864,0.008972,-0.993774,0.159786,0.417099,-0.192061,48,271,576,5696
1644172506.843424,-0.008667,0.008423,-0.994873,0.297191,0.462901,-0.039389,52,270,591,5776
1644172506.891824,-0.008667,0.009216,-0.990845,0.342992,0.264427,-0.192061,55,274,580,5712
1644172506.941651,-0.011108,0.010498,-0.989502,0.251389,0.356031,-0.222595,52,268,584,5728
1644172506.992144,-0.009583,0.006714,-0.991394,0.281924,0.371298,-0.054656,46,269,571,5728
1644172507.042682,-0.012024,0.007446,-0.990906,0.144519,0.401832,-0.222595,58,266,576,5664
1644172507.133757,-0.011414,0.008545,-0.98999,0.281924,0.569771,-0.069924,46,276,569,5664
1644172507.182379,-0.008972,0.00885,-0.991272,0.205588,0.386565,-0.176794,46,279,573,5664
1644172507.230468,-0.00946,0.008606,-0.992126,0.113985,0.356031,-0.039389,51,271,578,5696
1644172507.27887,-0.011292,0.00885,-0.990234,0.266656,0.462901,-0.100458,55,276,576,5696
1644172507.327286,-0.006287,0.008423,-0.991943,0.266656,0.401832,-0.069924,54,275,568,5696
1644172507.375683,-0.010803,0.008972,-0.991638,0.159786,0.447634,-0.069924,59,275,579,5696
1644172507.424072,-0.009155,0.007507,-0.990845,0.35826,0.478168,-0.14626,46,274,576,5696
1644172507.472484,-0.009155,0.009216,-0.991089,0.342992,0.417099,0.006412,55,269,576,5664
1644172507.520851,-0.010315,0.010071,-0.991577,0.236122,0.386565,-0.115725,58,274,573,5712
1644172507.569243,-0.011536,0.00885,-0.992065,0.144519,0.340763,0.006412,42,277,582,5728
1644172507.617627,-0.011108,0.009094,-0.991577,0.159786,0.325496,-0.039389,39,274,573,5712
1644172507.666027,-0.009216,0.010864,-0.99176,0.175053,0.325496,-0.100458,47,282,577,5696
1644172507.714421,-0.011047,0.007446,-0.990417,0.266656,0.493435,-0.024122,53,279,580,5808
1644172507.762792,-0.009827,0.009277,-0.990479,0.236122,0.462901,0.036947,47,282,584,5760
1644172507.811229,-0.010925,0.008667,-0.991028,0.297191,0.356031,-0.130992,48,281,590,5696
1644172507.859623,-0.010315,0.009399,-0.993225,0.175053,0.294962,-0.069924,53,266,585,5696
1644172507.908014,-0.011963,0.011169,-0.994934,0.35826,0.356031,-0.161527,51,276,583,5712
1644172507.956744,-0.008057,0.009277,-0.991333,0.251389,0.325496,-0.115725,52,270,579,5728
1644172508.00482,-0.010315,0.009155,-0.98999,0.327725,0.493435,-0.222595,58,274,580,5760
1644172508.077998,-0.01062,0.007996,-0.99054,0.312458,0.340763,-0.161527,57,282,577,5664
1644172508.109233,-0.011475,0.009399,-0.991699,0.297191,0.325496,-0.100458,61,270,586,5696
1644172508.15058,-0.012329,0.010132,-0.991943,0.327725,0.600305,-0.14626,52,268,577,5664
1644172508.246683,-0.006775,0.010681,-0.990845,0.205588,0.356031,-0.100458,45,282,575,5712
1644172508.29533,-0.009155,0.011719,-0.990417,0.236122,0.493435,-0.130992,46,271,578,5712
1644172508.343493,-0.013123,0.009277,-0.992126,0.144519,0.340763,-0.176794,54,268,577,5728
1644172508.391877,-0.01062,0.009521,-0.990479,0.297191,0.493435,-0.024122,51,279,576,5696
1644172508.440266,-0.011169,0.010437,-0.991394,0.35826,0.523969,-0.207328,43,276,578,5712
1644172508.488635,-0.010925,0.009216,-0.99292,0.205588,0.371298,-0.176794,54,275,572,5664
1644172508.537054,-0.009155,0.00885,-0.989075,0.327725,0.523969,-0.100458,49,268,572,5696
1644172508.585455,-0.011047,0.010254,-0.989502,0.113985,0.401832,-0.115725,55,269,576,5712
1644172508.633843,-0.009766,0.010437,-0.990723,0.175053,0.24916,0.036947,45,282,568,5712
1644172508.68224,-0.011658,0.008179,-0.992676,0.205588,0.356031,-0.100458,47,280,575,5776
1644172508.730596,-0.011841,0.008606,-0.993958,0.175053,0.401832,-0.207328,52,280,579,5760
1644172508.779016,-0.012451,0.009521,-0.991516,0.190321,0.279695,-0.100458,49,287,577,5600
1644172508.827435,-0.009399,0.009033,-0.992249,0.342992,0.432366,0.006412,57,280,584,5760
1644172508.875818,-0.012573,0.011353,-0.991821,0.190321,0.462901,-0.161527,54,273,577,5664
1644172508.924214,-0.008606,0.007996,-0.990784,0.159786,0.447634,-0.054656,55,279,576,5696
1644172508.972626,-0.008728,0.00647,-0.991333,0.190321,0.569771,-0.222595,51,269,573,5712
1644172509.021001,-0.011108,0.007202,-0.994507,0.113985,0.371298,-0.085191,52,273,579,5712
1644172509.095887,-0.00885,0.009766,-0.990479,0.281924,0.462901,-0.039389,46,274,573,5760
1644172509.166148,-0.009644,0.007935,-0.99115,0.419328,0.340763,-0.207328,48,269,573,5712
1644172509.21452,-0.009521,0.009705,-0.992615,0.159786,0.508702,-0.268397,46,276,578,5728
1644172509.262917,-0.013977,0.008362,-0.98999,0.327725,0.371298,-0.192061,45,270,579,5776
1644172509.311304,-0.010132,0.012817,-0.990173,0.098718,0.478168,-0.14626,54,273,575,5664
1644172509.359692,-0.008972,0.01001,-0.991638,0.281924,0.523969,-0.207328,43,276,576,5696
1644172509.408076,-0.009705,0.007874,-0.991272,0.419328,0.401832,-0.161527,45,275,584,5632
1644172509.456467,-0.01001,0.009888,-0.991455,0.175053,0.447634,-0.008855,54,268,582,5696
1644172509.504853,-0.009399,0.006042,-0.992004,0.175053,0.417099,-0.298931,60,274,566,5696
1644172509.553266,-0.011292,0.008606,-0.990479,0.281924,0.371298,-0.14626,49,270,575,5664
1644172509.601664,-0.011047,0.009888,-0.990784,0.35826,0.478168,-0.085191,47,270,577,5712
1644172509.650032,-0.010498,0.008972,-0.99469,0.175053,0.401832,0.006412,54,270,586,5664
1644172509.698436,-0.011902,0.007935,-0.991516,0.266656,0.462901,-0.085191,48,271,576,5664
1644172509.746782,-0.01062,0.007935,-0.991577,0.251389,0.371298,-0.115725,53,288,573,5760
1644172509.795302,-0.012939,0.009644,-0.992493,0.281924,0.417099,-0.130992,47,265,572,5728
1644172509.843651,-0.008789,0.012207,-0.991028,0.190321,0.417099,0.052214,53,274,578,5760
1644172509.892043,-0.01062,0.008728,-0.994324,0.327725,0.218626,0.098015,49,282,570,5664
1644172509.940431,-0.010986,0.009155,-0.991333,0.342992,0.432366,-0.100458,48,279,583,5696
1644172509.988816,-0.01001,0.006348,-0.991821,0.297191,0.493435,-0.176794,52,268,586,5760
1644172510.037216,-0.008423,0.010803,-0.992493,0.35826,0.310229,-0.161527,49,273,577,5712
1644172510.094613,-0.009644,0.007507,-0.992249,0.281924,0.432366,-0.161527,59,270,582,5728
1644172510.1379,-0.011108,0.00885,-0.989685,0.037649,0.432366,-0.115725,49,280,579,5696
1644172510.186366,-0.009827,0.011047,-0.992004,0.281924,0.478168,-0.024122,48,274,578,5664
1644172510.231368,-0.011353,0.005615,-0.994629,0.251389,0.447634,-0.115725,54,265,579,5696
1644172510.327493,-0.009583,0.011047,-0.992126,0.113985,0.462901,-0.054656,52,275,579,5728
1644172510.375875,-0.009399,0.010925,-0.990723,0.266656,0.264427,0.036947,45,277,582,5696
1644172510.424302,-0.010315,0.011169,-0.992554,0.281924,0.447634,0.036947,51,274,578,5696
1644172510.472693,-0.012024,0.007935,-0.989746,0.297191,0.325496,-0.192061,47,275,572,5760
1644172510.521074,-0.009216,0.010132,-0.988586,0.281924,0.462901,0.036947,58,269,578,5712
1644172510.569478,-0.010437,0.01001,-0.990112,0.175053,0.356031,-0.069924,47,277,582,5712
1644172510.617843,-0.012695,0.007812,-0.992737,0.266656,0.401832,-0.268397,43,274,578,5664
1644172510.66624,-0.010559,0.008301,-0.991821,0.129252,0.386565,-0.054656,42,280,579,5696
1644172510.714647,-0.010742,0.00824,-0.992798,0.205588,0.508702,-0.161527,36,283,592,5728
1644172510.763042,-0.009949,0.008057,-0.993164,0.281924,0.340763,-0.100458,41,279,580,5696
1644172510.811424,-0.010071,0.01123,-0.992004,0.190321,0.646107,-0.054656,51,274,576,5696
1644172510.859851,-0.008728,0.010925,-0.99176,0.312458,0.386565,-0.207328,60,269,583,5760
1644172510.908246,-0.008728,0.004517,-0.992676,0.159786,0.340763,-0.024122,52,277,572,5664
1644172510.956641,-0.01062,0.009827,-0.995361,0.327725,0.356031,-0.14626,48,291,580,5728
1644172511.005192,-0.00946,0.009766,-0.994629,0.236122,0.386565,-0.130992,42,270,570,5696
1644172511.066625,-0.009033,0.010437,-0.991394,0.327725,0.523969,-0.192061,49,275,575,5728
1644172511.105918,-0.011414,0.008728,-0.990234,0.281924,0.478168,-0.115725,41,279,580,5712
1644172511.150148,-0.008911,0.008789,-0.992249,0.037649,0.417099,-0.024122,57,270,579,5760
1644172511.198759,-0.010315,0.011292,-0.99176,0.35826,0.386565,-0.039389,51,281,576,5760
1644172511.248677,-0.011597,0.009155,-0.991272,0.373527,0.432366,-0.054656,43,271,578,5696
1644172511.298954,-0.010742,0.008057,-0.993958,0.404061,0.493435,0.250687,53,276,580,5776
1644172511.343995,-0.009705,0.011169,-0.992065,0.251389,0.371298,-0.176794,47,282,575,5696
1644172511.440496,-0.008972,0.009766,-0.991882,0.35826,0.264427,-0.176794,55,269,569,5760
1644172511.488872,-0.010437,0.011597,-0.990356,0.404061,0.417099,-0.14626,47,275,575,5712
1644172511.537261,-0.010681,0.009338,-0.992371,0.327725,0.401832,-0.176794,53,276,580,5696
1644172511.585655,-0.012024,0.010803,-0.99469,0.175053,0.340763,-0.054656,52,263,577,5696
1644172511.634038,-0.009705,0.008728,-0.991211,0.251389,0.462901,0.036947,48,279,578,5712
1644172511.682461,-0.008606,0.009705,-0.994019,0.251389,0.493435,-0.039389,47,277,565,5728
1644172511.730845,-0.00824,0.011475,-0.989746,0.205588,0.417099,0.006412,42,277,577,5664
1644172511.779225,-0.011108,0.00946,-0.991943,0.327725,0.523969,-0.069924,42,287,572,5712
1644172511.827623,-0.008728,0.005981,-0.991028,0.297191,0.539237,-0.039389,46,276,573,5696
1644172511.876059,-0.008118,0.010681,-0.99292,0.220855,0.218626,-0.207328,53,274,569,5696
1644172511.924457,-0.009827,0.010071,-0.992676,0.35826,0.340763,-0.14626,51,271,578,5760
1644172511.97286,-0.011475,0.012024,-0.990295,0.159786,0.294962,-0.115725,52,280,582,5760
1644172512.021232,-0.011902,0.01062,-0.99115,0.144519,0.325496,0.067481,54,290,575,5648
1644172512.091458,-0.012817,0.007507,-0.992065,0.08345,0.432366,-0.069924,52,280,584,5648
1644172512.11798,-0.009521,0.01178,-0.993652,0.159786,0.294962,-0.130992,54,282,577,5696
1644172512.166334,-0.010681,0.008118,-0.991821,0.205588,0.401832,-0.192061,57,282,572,5696
1644172512.215149,-0.009583,0.009583,-0.989441,0.220855,0.294962,-0.192061,54,277,568,5696
1644172512.265719,-0.009338,0.01123,-0.991638,0.205588,0.294962,-0.024122,55,283,573,5696
1644172512.315819,-0.006226,0.011841,-0.991577,0.251389,0.401832,-0.024122,52,270,577,5696
1644172512.36094,-0.012939,0.009338,-0.992126,0.113985,0.462901,0.067481,48,281,571,5696
1644172512.456689,-0.008362,0.009705,-0.992493,0.404061,0.432366,-0.161527,49,273,572,5760
1644172512.505347,-0.009338,0.01062,-0.994202,0.113985,0.279695,-0.115725,47,270,579,5760
1644172512.55348,-0.011475,0.009888,-0.991699,0.251389,0.401832,0.036947,58,276,578,5712
1644172512.60186,-0.010986,0.010071,-0.99353,0.190321,0.447634,0.052214,52,263,579,5728
1644172512.650249,-0.010132,0.010132,-0.989868,0.175053,0.401832,-0.024122,51,281,571,5760
1644172512.698635,-0.012817,0.010498,-0.992737,0.404061,0.371298,-0.25313,48,264,566,5696
1644172512.747045,-0.012756,0.008911,-0.994385,0.35826,0.401832,-0.14626,47,268,568,5648
1644172512.795427,-0.010681,0.009583,-0.99054,0.327725,0.508702,-0.054656,47,265,572,5728
1644172512.843827,-0.008545,0.011475,-0.990967,0.220855,0.417099,0.021679,53,274,573,5696
1644172512.892337,-0.009888,0.007324,-0.994202,0.205588,0.462901,-0.222595,46,274,569,5648
1644172512.940639,-0.008179,0.008911,-0.99231,0.35826,0.554504,-0.130992,45,282,572,5760
1644172512.990339,-0.009521,0.008545,-0.992249,0.342992,0.340763,-0.054656,51,274,573,5760
1644172513.037427,-0.009521,0.009705,-0.991638,0.098718,0.432366,-0.054656,49,275,584,5712
1644172513.085858,-0.010498,0.007019,-0.992188,0.281924,0.401832,-0.14626,45,270,582,5728
1644172513.13419,-0.010254,0.009277,-0.992126,0.266656,0.432366,-0.085191,48,274,578,5664
1644172513.18258,-0.009644,0.007019,-0.990662,0.297191,0.478168,-0.130992,43,274,580,5728
1644172513.230945,-0.008118,0.009277,-0.991455,0.266656,0.340763,-0.069924,60,274,585,5728
1644172513.279343,-0.006958,0.010315,-0.993286,0.251389,0.310229,-0.069924,39,269,576,5696
1644172513.327782,-0.009521,0.008057,-0.994324,0.327725,0.478168,0.006412,52,275,579,5760
1644172513.377805,-0.01178,0.008057,-0.993042,0.266656,0.417099,-0.039389,45,277,579,5696
1644172513.428117,-0.009033,0.008911,-0.990173,0.159786,0.508702,-0.069924,51,266,569,5664
1644172513.472971,-0.010437,0.006348,-0.992126,0.220855,0.508702,-0.100458,54,277,568,5664
1644172513.569668,-0.01355,0.011169,-0.992615,0.251389,0.401832,-0.14626,54,275,572,5712
1644172513.618055,-0.011292,0.010803,-0.994202,0.144519,0.386565,-0.161527,49,275,579,5696
1644172513.666448,-0.010315,0.010437,-0.992615,0.312458,0.417099,-0.008855,40,290,589,5696
1644172513.714873,-0.01001,0.007812,-0.993408,0.220855,0.478168,-0.268397,46,276,592,5664
1644172513.763252,-0.010376,0.010742,-0.992554,0.281924,0.462901,-0.039389,65,283,578,5648
1644172513.811662,-0.010132,0.010681,-0.990173,0.144519,0.386565,0.021679,51,276,583,5664
1644172513.860027,-0.013062,0.009094,-0.992432,0.312458,0.233893,-0.130992,59,282,577,5728
1644172513.908487,-0.010986,0.010742,-0.994324,0.129252,0.493435,-0.14626,45,273,575,5776
1644172513.956849,-0.012329,0.007751,-0.992981,0.175053,0.401832,0.021679,52,268,572,5712
1644172514.005309,-0.010681,0.009949,-0.994995,0.190321,0.417099,-0.100458,53,281,576,5664
1644172514.063642,-0.010864,0.009705,-0.992065,0.388794,0.371298,-0.14626,53,274,571,5776
1644172514.101964,-0.010193,0.008057,-0.991882,0.144519,0.478168,0.021679,46,271,585,5760
1644172514.150391,-0.010559,0.009216,-0.991638,0.266656,0.401832,-0.222595,53,271,580,5664
1644172514.19877,-0.009705,0.00769,-0.992004,0.342992,0.325496,-0.100458,53,274,576,5696
1644172514.247156,-0.011963,0.010986,-0.99054,0.159786,0.417099,-0.054656,57,265,575,5712
1644172514.295549,-0.008972,0.009583,-0.990479,0.251389,0.356031,-0.100458,47,270,584,5712
1644172514.343943,-0.00946,0.010071,-0.99054,0.113985,0.523969,-0.176794,43,274,569,5712
1644172514.392929,-0.010803,0.009338,-0.992493,0.404061,0.401832,-0.192061,53,274,580,5696
1644172514.440716,-0.010742,0.009949,-0.989197,0.205588,0.447634,-0.115725,41,274,578,5648
1644172514.489344,-0.007812,0.010132,-0.991394,0.236122,0.478168,-0.130992,46,281,592,5696
1644172514.539791,-0.01062,0.010986,-0.990723,0.220855,0.233893,-0.161527,43,293,576,5696
1644172514.589948,-0.008545,0.008728,-0.994934,0.236122,0.401832,-0.130992,55,276,590,5664
1644172514.636537,-0.012756,0.010132,-0.991638,0.098718,0.646107,-0.024122,58,281,580,5712
1644172514.731076,-0.008728,0.008911,-0.991943,0.159786,0.371298,-0.14626,45,275,582,5728
1644172514.779452,-0.013062,0.009277,-0.993225,0.175053,0.294962,-0.176794,61,270,577,5664
1644172514.82789,-0.008545,0.010376,-0.989136,0.266656,0.417099,-0.085191,52,280,570,5712
1644172514.876272,-0.012268,0.007507,-0.990417,0.297191,0.386565,-0.054656,51,281,576,5696
1644172514.924687,-0.009521,0.009033,-0.99292,0.236122,0.462901,-0.054656,47,273,582,5696
1644172514.973073,-0.008606,0.009094,-0.992737,0.068183,0.493435,-0.100458,48,283,573,5696
1644172515.021446,-0.010437,0.010071,-0.992676,0.327725,0.401832,-0.085191,48,276,571,5664
1644172515.070696,-0.009583,0.009827,-0.993591,0.266656,0.294962,0.036947,45,282,582,5728
1644172515.118179,-0.010071,0.010071,-0.991821,0.113985,0.462901,-0.085191,52,265,579,5664
1644172515.166573,-0.009338,0.010742,-0.992676,0.251389,0.325496,-0.024122,49,270,579,5664
1644172515.215077,-0.010986,0.006775,-0.989258,0.190321,0.233893,-0.054656,47,280,584,5600
1644172515.26336,-0.008728,0.007751,-0.993958,0.190321,0.325496,-0.100458,46,271,573,5728
1644172515.311762,-0.006775,0.010681,-0.991699,0.220855,0.462901,-0.008855,52,268,570,5632
1644172515.360144,-0.012512,0.009277,-0.991821,0.129252,0.325496,-0.039389,48,269,583,5728
1644172515.408546,-0.012451,0.008484,-0.992065,0.220855,0.401832,-0.176794,51,274,578,5760
1644172515.456927,-0.012451,0.01001,-0.994385,0.08345,0.218626,-0.039389,61,277,584,5632
1644172515.505291,-0.009033,0.010986,-0.993958,0.297191,0.401832,-0.054656,42,280,582,5712
1644172515.553694,-0.013062,0.009277,-0.99176,0.312458,0.264427,-0.100458,36,271,578,5712
1644172515.602167,-0.009827,0.011292,-0.992859,0.266656,0.432366,-0.039389,48,269,580,5760
1644172515.652039,-0.008728,0.009644,-0.994568,0.190321,0.386565,-0.054656,43,271,585,5696
1644172515.702597,-0.008667,0.006836,-0.992065,0.220855,0.478168,-0.085191,48,281,580,5728
1644172515.747285,-0.011475,0.008972,-0.991028,0.175053,0.417099,-0.100458,53,279,576,5664
1644172515.844114,-0.00824,0.007568,-0.99176,0.388794,0.218626,-0.039389,45,280,570,5760
1644172515.892496,-0.012573,0.009094,-0.993286,0.251389,0.356031,-0.115725,53,262,578,5696
1644172515.940882,-0.011292,0.009277,-0.991211,0.236122,0.264427,-0.176794,60,279,585,5712
1644172515.989251,-0.009033,0.007385,-0.993896,0.297191,0.264427,-0.100458,48,274,585,5808
1644172516.037629,-0.010071,0.009705,-0.993835,0.220855,0.417099,-0.207328,52,282,575,5712
1644172516.090373,-0.011108,0.006348,-0.993591,0.175053,0.340763,-0.085191,51,271,587,5664
1644172516.134461,-0.007996,0.008606,-0.989868,0.236122,0.417099,-0.054656,49,273,579,5664
1644172516.182814,-0.01001,0.00946,-0.98999,0.129252,0.356031,-0.237863,51,271,573,5696
1644172516.23118,-0.008545,0.010864,-0.992554,0.175053,0.218626,-0.100458,39,281,580,5712
1644172516.279575,-0.010925,0.010437,-0.991272,0.327725,0.493435,-0.085191,45,277,582,5696
1644172516.32799,-0.009705,0.010681,-0.993408,0.251389,0.401832,-0.207328,52,280,582,5728
1644172516.376358,-0.008728,0.008423,-0.991577,0.281924,0.371298,-0.161527,55,279,580,5728
1644172516.424749,-0.010925,0.011475,-0.994141,0.220855,0.340763,-0.069924,48,286,583,5760
1644172516.473136,-0.009033,0.007996,-0.991272,0.190321,0.508702,-0.085191,46,271,578,5664
1644172516.521759,-0.010193,0.007202,-0.991638,0.281924,0.24916,-0.115725,52,275,584,5696
1644172516.570587,-0.009644,0.007446,-0.994995,0.251389,0.371298,-0.115725,46,274,573,5728
1644172516.621212,-0.01178,0.010742,-0.992554,0.297191,0.279695,0.021679,49,275,575,5664
1644172516.67132,-0.010864,0.011536,-0.992249,0.144519,0.310229,-0.069924,43,274,573,5728
1644172516.716331,-0.011597,0.010376,-0.991821,0.251389,0.493435,-0.054656,54,285,575,5760
1644172516.811865,-0.011841,0.009094,-0.992004,0.266656,0.417099,-0.161527,55,274,571,5664
1644172516.860301,-0.010803,0.009033,-0.991699,0.144519,0.417099,-0.008855,57,273,572,5696
1644172516.908679,-0.010681,0.008972,-0.991516,0.266656,0.310229,-0.176794,51,281,580,5696
1644172516.957062,-0.011475,0.008362,-0.991882,0.297191,0.462901,0.036947,43,266,576,5712
1644172517.005447,-0.008911,0.007202,-0.993896,0.220855,0.356031,-0.039389,38,268,584,5776
1644172517.066303,-0.010742,0.008362,-0.99231,0.236122,0.279695,-0.14626,43,276,578,5696
1644172517.10228,-0.014343,0.006836,-0.992798,0.342992,0.478168,-0.085191,52,265,577,5664
1644172517.150585,-0.012146,0.009949,-0.992371,0.144519,0.386565,-0.161527,42,275,575,5648
1644172517.198991,-0.014282,0.009033,-0.991211,0.236122,0.447634,-0.069924,55,279,580,5664
1644172517.24737,-0.012207,0.00946,-0.994141,0.175053,0.462901,-0.039389,43,274,576,5696
1644172517.295749,-0.011169,0.006897,-0.993896,0.098718,0.508702,-0.207328,55,276,573,5776
1644172517.344187,-0.009766,0.006836,-0.990723,0.281924,0.371298,-0.115725,57,277,575,5712
1644172517.392582,-0.011292,0.008972,-0.993408,0.220855,0.24916,-0.176794,45,280,572,5728
1644172517.440942,-0.012939,0.006836,-0.993164,0.052916,0.493435,-0.024122,40,268,577,5712
1644172517.489356,-0.011841,0.008911,-0.994751,0.266656,0.294962,-0.085191,54,275,575,5760
1644172517.537727,-0.01123,0.007141,-0.992371,0.220855,0.401832,-0.207328,53,274,578,5712
1644172517.586119,-0.009888,0.006348,-0.99408,0.297191,0.294962,-0.207328,53,274,578,5808
1644172517.634694,-0.011292,0.009705,-0.992432,0.205588,0.325496,-0.039389,51,281,566,5648
1644172517.683483,-0.01239,0.008545,-0.991089,0.281924,0.356031,0.067481,42,280,577,5728
1644172517.73414,-0.009155,0.009949,-0.992737,0.220855,0.386565,-0.176794,43,274,576,5728
1644172517.784018,-0.009338,0.00946,-0.991333,0.266656,0.233893,-0.024122,61,285,579,5808
1644172517.82906,-0.011292,0.008423,-0.989746,0.236122,0.417099,0.052214,52,280,577,5728
1644172517.924891,-0.011108,0.007141,-0.991516,0.236122,0.462901,0.098015,52,277,568,5664
1644172517.973284,-0.01001,0.010071,-0.993713,0.449863,0.386565,-0.100458,45,280,582,5728
1644172518.021669,-0.010437,0.010315,-0.993103,0.266656,0.401832,-0.192061,45,273,579,5696
1644172518.070123,-0.01178,0.009705,-0.99176,0.205588,0.417099,-0.024122,48,274,580,5712
1644172518.118437,-0.010925,0.008362,-0.994019,0.266656,0.340763,-0.054656,47,275,579,5648
1644172518.166802,-0.010864,0.009338,-0.992798,0.175053,0.294962,-0.100458,53,274,580,5712
1644172518.215193,-0.012329,0.011047,-0.993103,0.312458,0.401832,-0.14626,49,277,579,5728
1644172518.263594,-0.010498,0.009155,-0.991638,0.251389,0.417099,-0.25313,54,275,584,5696
1644172518.311962,-0.010925,0.011108,-0.991577,0.281924,0.340763,0.036947,49,277,579,5712
1644172518.360372,-0.008789,0.011841,-0.992126,0.266656,0.554504,-0.069924,45,273,582,5728
1644172518.408763,-0.008179,0.007324,-0.994995,0.190321,0.340763,-0.024122,46,276,571,5696
1644172518.457153,-0.009338,0.006531,-0.992676,0.022382,0.294962,0.082748,48,266,573,5664
1644172518.505543,-0.011597,0.01062,-0.990112,0.251389,0.569771,-0.237863,49,268,570,5696
1644172518.553954,-0.01178,0.009155,-0.99115,0.175053,0.417099,-0.008855,49,282,577,5664
1644172518.602341,-0.011047,0.010071,-0.993347,0.251389,0.356031,-0.14626,45,273,570,5664
1644172518.650724,-0.008118,0.008789,-0.99176,0.159786,0.508702,-0.100458,48,264,569,5712
1644172518.699098,-0.012817,0.009827,-0.990173,0.129252,0.325496,-0.100458,39,279,576,5712
1644172518.747497,-0.010376,0.007324,-0.992004,0.251389,0.401832,0.082748,49,275,577,5712
1644172518.795867,-0.010559,0.009827,-0.993958,0.327725,0.386565,-0.222595,39,276,578,5696
1644172518.844532,-0.009705,0.009766,-0.991272,0.297191,0.432366,-0.100458,53,281,564,5648
1644172518.895981,-0.01123,0.012024,-0.992249,0.419328,0.432366,-0.054656,48,269,573,5728
1644172518.946381,-0.010681,0.00824,-0.99231,0.037649,0.294962,-0.176794,53,274,573,5712
1644172518.990767,-0.013,0.008728,-0.993591,0.175053,0.294962,-0.054656,52,277,579,5664
1644172519.086428,-0.009399,0.008606,-0.993652,0.159786,0.279695,-0.161527,53,276,576,5664
1644172519.134673,-0.013733,0.010193,-0.99176,0.175053,0.417099,-0.130992,52,282,570,5696
1644172519.183024,-0.010803,0.008484,-0.99353,0.159786,0.554504,-0.008855,51,271,571,5712
1644172519.231396,-0.01239,0.011475,-0.993774,0.113985,0.432366,-0.115725,47,285,584,5712
1644172519.279783,-0.01062,0.010986,-0.991577,0.144519,0.523969,-0.268397,49,277,579,5712
1644172519.328174,-0.009888,0.009583,-0.991699,0.297191,0.233893,-0.161527,60,269,576,5760
1644172519.376565,-0.008179,0.010071,-0.990479,0.388794,0.554504,-0.14626,52,268,572,5696
1644172519.425086,-0.00647,0.010742,-0.990356,0.327725,0.294962,-0.085191,54,270,570,5664
1644172519.47337,-0.009277,0.011902,-0.992371,0.190321,0.264427,-0.085191,52,273,577,5664
1644172519.521751,-0.013733,0.008606,-0.993225,0.312458,0.325496,-0.039389,60,271,578,5664
1644172519.570147,-0.007507,0.00647,-0.992615,0.129252,0.432366,-0.130992,49,280,575,5776
1644172519.618531,-0.011169,0.009827,-0.992981,0.35826,0.371298,-0.039389,57,277,579,5712
1644172519.66691,-0.012329,0.009583,-0.993652,0.236122,0.188092,-0.069924,55,276,578,5712
1644172519.715318,-0.00769,0.009521,-0.992188,0.205588,0.325496,-0.115725,57,277,572,5728
1644172519.763722,-0.010559,0.010803,-0.991882,0.236122,0.371298,-0.024122,51,279,583,5712
1644172519.812139,-0.009338,0.010254,-0.992798,0.220855,0.386565,-0.161527,52,280,589,5648
1644172519.86053,-0.010071,0.008789,-0.992859,0.205588,0.356031,-0.130992,48,279,578,5728
1644172519.908908,-0.007812,0.007263,-0.991821,0.312458,0.432366,-0.161527,53,279,571,5696
1644172519.957314,-0.011414,0.008667,-0.991211,0.159786,0.371298,-0.25313,46,269,571,5664
1644172520.006832,-0.010681,0.01123,-0.991272,0.342992,0.447634,-0.024122,40,275,577,5760
1644172520.07189,-0.010681,0.010254,-0.992676,0.190321,0.340763,-0.085191,40,275,577,5696
1644172520.115861,-0.012207,0.008423,-0.990662,0.266656,0.554504,0.052214,60,279,580,5712
1644172520.15195,-0.00824,0.008423,-0.992676,0.113985,0.310229,-0.161527,49,275,579,5696
1644172520.247586,-0.008972,0.007446,-0.98938,0.251389,0.432366,-0.130992,46,269,580,5696
1644172520.295987,-0.008667,0.008728,-0.992004,0.220855,0.294962,-0.14626,48,281,571,5696
1644172520.344407,-0.010803,0.007996,-0.99292,0.098718,0.432366,0.021679,47,270,579,5728
1644172520.392786,-0.011963,0.010071,-0.991211,0.220855,0.340763,-0.069924,54,282,579,5648
1644172520.441163,-0.009644,0.00647,-0.990723,0.297191,0.233893,-0.192061,48,274,573,5696
1644172520.489554,-0.011292,0.010193,-0.993469,0.327725,0.447634,-0.039389,49,277,579,5760
1644172520.537942,-0.011536,0.011536,-0.990967,0.113985,0.432366,-0.192061,51,274,580,5696
1644172520.586341,-0.012695,0.009216,-0.993835,0.052916,0.310229,0.021679,52,275,570,5760
1644172520.634751,-0.010925,0.008911,-0.992554,0.159786,0.462901,-0.130992,39,274,569,5808
1644172520.683144,-0.011169,0.010498,-0.993164,0.190321,0.478168,0.036947,51,276,569,5664
1644172520.731514,-0.007568,0.009216,-0.993225,0.251389,0.585038,-0.100458,53,279,585,5728
1644172520.779903,-0.010559,0.009155,-0.992065,0.297191,0.294962,0.006412,43,269,569,5712
1644172520.828285,-0.010986,0.010376,-0.992004,0.144519,0.386565,-0.039389,51,281,576,5712
1644172520.876699,-0.010437,0.00824,-0.991943,0.251389,0.325496,-0.192061,48,279,578,5696
1644172520.925146,-0.006104,0.007019,-0.992065,0.266656,0.417099,-0.085191,53,271,576,5728
1644172520.97351,-0.006042,0.007935,-0.99115,0.266656,0.478168,-0.054656,54,277,582,5664
1644172521.021894,-0.011414,0.009766,-0.992065,0.342992,0.294962,-0.207328,59,280,589,5664
1644172521.093433,-0.009338,0.009277,-0.99231,0.190321,0.462901,0.021679,49,280,577,5664
1644172521.119553,-0.008911,0.01001,-0.99115,0.297191,0.371298,-0.100458,54,270,575,5712
1644172521.215421,-0.011169,0.009888,-0.993042,0.220855,0.447634,-0.085191,41,274,571,5696
1644172521.2638,-0.010803,0.010132,-0.992798,0.159786,0.447634,-0.115725,49,287,577,5776
1644172521.312404,-0.009521,0.006409,-0.994141,0.297191,0.401832,-0.115725,42,273,570,5776
1644172521.360584,-0.011353,0.011108,-0.990112,0.220855,0.386565,-0.192061,46,271,571,5664
1644172521.408969,-0.009399,0.009033,-0.994995,0.35826,0.508702,-0.069924,54,277,577,5696
1644172521.457375,-0.007019,0.007812,-0.994019,0.281924,0.325496,-0.176794,48,279,573,5760
1644172521.505741,-0.009888,0.009277,-0.992859,0.251389,0.340763,-0.039389,53,279,578,5664
1644172521.554162,-0.013794,0.009583,-0.992249,0.373527,0.340763,0.036947,40,270,577,5696
1644172521.602565,-0.011169,0.010681,-0.993225,0.236122,0.325496,0.021679,55,281,580,5776
1644172521.650938,-0.010315,0.007874,-0.991638,0.190321,0.294962,-0.085191,43,279,569,5648
1644172521.69933,-0.009399,0.01062,-0.992004,0.251389,0.554504,-0.085191,53,269,578,5696
1644172521.747698,-0.010925,0.009399,-0.991028,0.068183,0.447634,-0.14626,52,273,589,5760
1644172521.796112,-0.011353,0.009094,-0.991211,0.190321,0.386565,0.021679,58,276,583,5696
1644172521.844509,-0.013123,0.009583,-0.99176,0.159786,0.264427,0.021679,45,273,568,5728
1644172521.892944,-0.012329,0.009338,-0.992188,0.144519,0.340763,0.067481,52,277,579,5664
1644172521.94132,-0.009949,0.00824,-0.992065,0.205588,0.325496,-0.054656,52,273,575,5728
1644172521.989709,-0.012512,0.00885,-0.994507,0.373527,0.310229,-0.207328,51,274,585,5728
1644172522.038293,-0.011841,0.010315,-0.99469,0.236122,0.401832,-0.054656,57,265,584,5696
1644172522.087769,-0.009766,0.011047,-0.993469,0.297191,0.417099,-0.085191,58,262,578,5648
1644172522.135689,-0.012512,0.011047,-0.99176,0.098718,0.508702,-0.024122,51,266,578,5808
1644172522.1864,-0.013123,0.009766,-0.99231,0.220855,0.508702,-0.207328,53,276,583,5664
1644172522.236619,-0.01123,0.010193,-0.991943,0.236122,0.371298,-0.130992,48,262,573,5776
1644172522.32839,-0.009705,0.009277,-0.993469,0.113985,0.401832,0.082748,46,266,583,5728
1644172522.376777,-0.011902,0.008362,-0.988525,0.205588,0.279695,-0.039389,46,274,571,5664
1644172522.42519,-0.013,0.009766,-0.988159,0.037649,0.523969,-0.069924,47,270,575,5664
1644172522.473583,-0.008423,0.009766,-0.992371,0.220855,0.523969,-0.115725,45,280,575,5712
1644172522.52197,-0.00946,0.008972,-0.994202,0.251389,0.310229,-0.085191,48,286,576,5760
1644172522.570357,-0.008118,0.008972,-0.993225,0.159786,0.432366,-0.024122,57,277,579,5712
1644172522.618745,-0.010498,0.008545,-0.991821,0.251389,0.493435,-0.039389,54,275,577,5648
1644172522.667124,-0.009399,0.010437,-0.99469,0.434595,0.600305,-0.161527,61,285,577,5760
1644172522.715535,-0.011536,0.008911,-0.992737,0.220855,0.279695,-0.176794,43,288,578,5648
1644172522.763923,-0.012207,0.008362,-0.992432,0.327725,0.478168,-0.161527,52,273,582,5696
1644172522.812375,-0.010986,0.009338,-0.994995,0.281924,0.356031,-0.008855,55,279,590,5760
1644172522.860723,-0.010193,0.007568,-0.993225,0.205588,0.386565,-0.069924,45,282,572,5712
1644172522.909137,-0.010559,0.007507,-0.993347,0.129252,0.356031,-0.192061,47,277,570,5696
1644172522.957528,-0.010681,0.007935,-0.992004,0.266656,0.340763,-0.085191,41,269,583,5760
1644172523.005895,-0.01178,0.007629,-0.99353,0.175053,0.493435,0.021679,48,274,583,5696
1644172523.066696,-0.010559,0.008606,-0.995117,0.205588,0.432366,0.021679,57,265,577,5696
1644172523.105826,-0.013062,0.008667,-0.992859,0.266656,0.233893,-0.100458,48,274,571,5696
1644172523.151066,-0.012146,0.009094,-0.995239,0.068183,0.310229,-0.100458,51,269,580,5664
1644172523.19975,-0.011536,0.007996,-0.994629,0.327725,0.523969,-0.100458,48,269,583,5712
1644172523.249114,-0.009705,0.007935,-0.991577,0.342992,0.554504,-0.039389,54,265,579,5664
1644172523.299547,-0.010681,0.007812,-0.992798,0.266656,0.478168,-0.085191,53,271,566,5696
1644172523.349543,-0.011841,0.007935,-0.991943,0.312458,0.432366,-0.085191,57,275,586,5696
1644172523.441374,-0.01062,0.00824,-0.992065,0.312458,0.447634,-0.054656,57,280,577,5776
1644172523.489786,-0.010803,0.010071,-0.99231,0.098718,0.523969,-0.14626,54,270,582,5728
1644172523.538173,-0.010315,0.006958,-0.994202,0.434595,0.279695,-0.069924,49,273,577,5776
1644172523.586571,-0.011719,0.009338,-0.991577,0.327725,0.386565,0.036947,45,282,579,5648
1644172523.634998,-0.010315,0.00647,-0.991394,0.175053,0.310229,-0.054656,53,266,580,5664
1644172523.683335,-0.010193,0.009338,-0.991821,0.312458,0.24916,-0.207328,49,268,577,5696
1644172523.731744,-0.010803,0.009827,-0.993652,0.266656,0.401832,-0.100458,55,281,573,5696
1644172523.7801,-0.012634,0.007629,-0.993347,0.159786,0.523969,-0.039389,58,274,578,5696
1644172523.828525,-0.011963,0.008789,-0.991943,0.190321,0.401832,-0.14626,47,282,577,5760
1644172523.876967,-0.010132,0.009521,-0.993591,0.373527,0.386565,-0.161527,51,271,580,5696
1644172523.92535,-0.009094,0.01001,-0.992737,0.098718,0.493435,-0.222595,42,268,575,5776
1644172523.973745,-0.009644,0.007202,-0.990356,0.220855,0.325496,-0.069924,60,274,578,5712
1644172524.022329,-0.011292,0.010925,-0.990479,0.281924,0.493435,-0.039389,51,276,573,5664
1644172524.087756,-0.010132,0.00824,-0.994507,0.159786,0.493435,-0.024122,51,279,576,5696
1644172524.122977,-0.012329,0.007263,-0.990723,0.312458,0.401832,-0.161527,57,275,579,5696
1644172524.167898,-0.008789,0.009827,-0.992371,0.190321,0.478168,-0.069924,48,274,573,5696
1644172524.264024,-0.013428,0.006592,-0.993286,0.037649,0.432366,-0.115725,47,277,582,5712
1644172524.312444,-0.012756,0.011169,-0.991394,0.251389,0.478168,-0.115725,61,277,577,5696
1644172524.360814,-0.013367,0.009644,-0.993164,0.342992,0.447634,-0.085191,47,275,570,5728
1644172524.409208,-0.009338,0.008911,-0.991821,0.068183,0.462901,-0.054656,53,274,576,5712
1644172524.457586,-0.008789,0.010254,-0.991882,0.266656,0.493435,0.036947,51,281,578,5712
1644172524.505974,-0.007385,0.007812,-0.991211,0.281924,0.401832,-0.024122,51,279,576,5728
1644172524.554386,-0.011902,0.008118,-0.991028,0.342992,0.523969,0.006412,58,274,580,5760
1644172524.6028,-0.01001,0.00769,-0.993591,0.373527,0.447634,-0.176794,49,275,582,5712
1644172524.651144,-0.012817,0.010254,-0.990784,0.327725,0.523969,-0.207328,57,273,575,5728
1644172524.699542,-0.009033,0.009399,-0.992859,0.281924,0.401832,-0.115725,49,277,577,5760
1644172524.747919,-0.010193,0.010681,-0.992004,0.220855,0.478168,-0.237863,40,280,572,5696
1644172524.796312,-0.012024,0.008362,-0.993286,0.190321,0.340763,-0.024122,57,275,570,5728
1644172524.84478,-0.008179,0.009766,-0.994446,0.236122,0.371298,-0.069924,47,280,577,5712
1644172524.893178,-0.010559,0.012146,-0.992188,0.205588,0.340763,-0.207328,46,266,571,5696
1644172524.941548,-0.010925,0.011047,-0.993164,0.129252,0.386565,-0.237863,49,277,586,5696
1644172524.989942,-0.008728,0.009094,-0.99115,0.281924,0.493435,0.006412,57,270,586,5664
1644172525.038329,-0.011719,0.011414,-0.992798,0.327725,0.417099,-0.039389,52,277,586,5696
1644172525.095398,-0.01062,0.010986,-0.993835,0.08345,0.371298,-0.008855,54,277,579,5712
1644172525.135672,-0.008423,0.007996,-0.99585,0.144519,0.386565,-0.283664,58,279,587,5696
1644172525.184667,-0.011353,0.008057,-0.992798,0.159786,0.417099,-0.100458,46,288,578,5648
1644172525.235054,-0.009583,0.01062,-0.99115,0.08345,0.417099,-0.130992,57,273,572,5712
1644172525.285276,-0.009949,0.01001,-0.991638,0.129252,0.432366,-0.024122,51,279,580,5664
1644172525.377005,-0.009033,0.00946,-0.990845,0.175053,0.417099,0.021679,45,280,572,5648
1644172525.425406,-0.008545,0.009705,-0.99176,0.159786,0.294962,-0.039389,48,281,573,5712
1644172525.473804,-0.009094,0.009949,-0.990967,0.281924,0.325496,-0.069924,61,275,577,5664
1644172525.522389,-0.010559,0.009766,-0.993652,0.113985,0.386565,-0.14626,59,275,570,5760
1644172525.570582,-0.013306,0.009216,-0.993286,0.373527,0.279695,-0.130992,48,269,571,5664
1644172525.618976,-0.012695,0.008728,-0.990173,0.190321,0.493435,-0.207328,45,282,579,5760
1644172525.667364,-0.010803,0.008545,-0.992432,0.236122,0.24916,-0.115725,49,268,582,5696
1644172525.715749,-0.010681,0.011597,-0.99408,0.205588,0.310229,-0.085191,47,282,582,5728
1644172525.764143,-0.012329,0.009583,-0.99115,0.342992,0.447634,-0.024122,60,269,576,5696
1644172525.812561,-0.01123,0.01123,-0.990967,0.144519,0.386565,0.052214,49,277,575,5760
1644172525.860967,-0.010742,0.008057,-0.990479,0.098718,0.356031,-0.237863,40,275,570,5808
1644172525.909373,-0.01123,0.009277,-0.990662,0.404061,0.417099,-0.069924,57,277,577,5712
1644172525.957752,-0.010803,0.012573,-0.99176,0.159786,0.325496,-0.085191,49,265,577,5664
1644172526.006121,-0.011597,0.008667,-0.991821,0.342992,0.493435,-0.054656,51,271,580,5728
1644172526.06842,-0.011902,0.009399,-0.991882,0.236122,0.401832,-0.069924,45,273,579,5696
1644172526.103491,-0.009521,0.007996,-0.993164,0.236122,0.432366,-0.130992,52,277,591,5696
1644172526.151275,-0.011108,0.008606,-0.991821,0.266656,0.462901,-0.085191,52,270,577,5728
1644172526.199654,-0.009277,0.00708,-0.992737,0.342992,0.386565,-0.024122,51,271,585,5648
1644172526.248019,-0.009155,0.009094,-0.991821,0.266656,0.417099,0.006412,53,274,576,5664
1644172526.296481,-0.010864,0.009521,-0.992432,0.08345,0.386565,0.067481,47,275,575,5696
1644172526.346701,-0.013062,0.006775,-0.992004,0.175053,0.432366,-0.054656,51,264,580,5664
1644172526.39699,-0.012024,0.010132,-0.993408,0.266656,0.508702,-0.069924,53,276,571,5712
1644172526.442291,-0.011841,0.009644,-0.991943,0.312458,0.401832,-0.024122,52,275,570,5760
1644172526.538387,-0.009155,0.010681,-0.990723,0.281924,0.432366,-0.176794,51,271,562,5728
1644172526.586776,-0.011169,0.008057,-0.991943,0.251389,0.340763,-0.024122,54,277,586,5760
1644172526.635374,-0.010681,0.009521,-0.991699,0.159786,0.447634,-0.176794,41,271,585,5712
1644172526.683563,-0.009766,0.010925,-0.993469,0.205588,0.493435,-0.298931,61,273,575,5664
1644172526.731957,-0.009521,0.01062,-0.992371,0.35826,0.447634,-0.25313,54,268,579,5648
1644172526.780341,-0.013367,0.009766,-0.996704,0.190321,0.386565,-0.130992,53,274,578,5648
1644172526.828737,-0.011108,0.007629,-0.993042,0.190321,0.401832,-0.207328,46,269,573,5760
1644172526.877176,-0.012146,0.00885,-0.994446,0.190321,0.600305,-0.115725,52,270,572,5696
1644172526.92556,-0.011047,0.009888,-0.99176,0.220855,0.325496,-0.192061,52,268,572,5696
1644172526.973939,-0.010681,0.007141,-0.993652,0.129252,0.340763,-0.054656,47,273,575,5728
1644172527.022376,-0.010071,0.007812,-0.993347,0.220855,0.478168,-0.039389,43,276,576,5696
1644172527.084814,-0.009705,0.007568,-0.993042,0.327725,0.417099,-0.039389,49,273,586,5696
1644172527.119112,-0.011169,0.010193,-0.991638,0.190321,0.401832,-0.039389,47,275,575,5760
1644172527.167757,-0.009521,0.00885,-0.992004,0.205588,0.325496,-0.069924,53,274,578,5664
1644172527.217038,-0.010437,0.010437,-0.99292,0.144519,0.523969,0.021679,49,275,577,5760
1644172527.267575,-0.013123,0.010498,-0.992432,0.205588,0.371298,-0.039389,46,274,580,5712
1644172527.317759,-0.0047,0.008667,-0.990967,0.251389,0.325496,0.021679,53,269,578,5712
1644172527.409436,-0.00885,0.012817,-0.991516,0.297191,0.478168,-0.069924,46,281,576,5728
1644172527.457814,-0.010925,0.008301,-0.995605,0.113985,0.294962,-0.176794,55,264,585,5696
1644172527.506196,-0.010742,0.009644,-0.99231,0.266656,0.371298,-0.130992,55,279,580,5648
1644172527.554846,-0.01062,0.011108,-0.99054,0.35826,0.523969,-0.14626,52,275,577,5696
1644172527.602981,-0.011292,0.008667,-0.993042,0.297191,0.569771,-0.161527,47,273,579,5760
1644172527.651377,-0.00946,0.011902,-0.99176,0.266656,0.325496,-0.176794,45,275,572,5664
1644172527.699766,-0.012451,0.009399,-0.992615,0.312458,0.554504,-0.298931,52,273,575,5728
1644172527.748144,-0.010986,0.01001,-0.993042,0.190321,0.386565,-0.024122,46,279,583,5696
1644172527.796535,-0.008301,0.010925,-0.990051,0.175053,0.417099,-0.054656,49,275,575,5760
1644172527.845085,-0.008545,0.008545,-0.992676,0.312458,0.462901,-0.085191,52,268,572,5712
1644172527.893407,-0.012024,0.008728,-0.991882,0.190321,0.371298,-0.192061,53,274,578,5760
1644172527.941787,-0.012085,0.010254,-0.992249,0.266656,0.447634,-0.36,52,275,572,5728
1644172527.990165,-0.009338,0.008911,-0.990906,0.312458,0.401832,-0.024122,52,277,582,5760
1644172528.038558,-0.010742,0.007507,-0.991943,0.342992,0.356031,-0.054656,53,281,573,5696
1644172528.091348,-0.012085,0.01062,-0.990601,0.052916,0.401832,-0.222595,29,271,578,5760
1644172528.135337,-0.007202,0.011353,-0.992432,0.205588,0.371298,-0.14626,46,276,585,5648
1644172528.183736,-0.012573,0.007935,-0.994324,0.113985,0.294962,-0.237863,58,276,564,5760
1644172528.232172,-0.010803,0.010559,-0.99115,0.144519,0.615573,-0.054656,53,271,569,5712
1644172528.281027,-0.009277,0.01062,-0.992859,0.205588,0.447634,-0.085191,49,277,575,5760
1644172528.330725,-0.009705,0.008972,-0.990845,0.281924,0.294962,-0.069924,45,268,572,5664
1644172528.381206,-0.00824,0.01178,-0.99176,0.220855,0.371298,-0.024122,48,276,571,5712
1644172528.425875,-0.008911,0.008423,-0.991211,0.220855,0.294962,-0.069924,57,268,589,5696
1644172528.522525,-0.010071,0.010864,-0.992615,0.251389,0.447634,-0.008855,53,271,573,5760
1644172528.570848,-0.012329,0.009338,-0.992126,0.08345,0.356031,-0.14626,46,269,580,5648
1644172528.619237,-0.011292,0.011108,-0.991821,0.251389,0.417099,-0.039389,49,268,577,5760
1644172528.667612,-0.010803,0.007629,-0.993835,0.35826,0.24916,-0.085191,41,281,573,5648
1644172528.716019,-0.013489,0.007446,-0.991943,0.220855,0.401832,-0.130992,48,279,573,5696
1644172528.764421,-0.015198,0.009033,-0.991333,0.236122,0.401832,-0.069924,51,269,569,5664
1644172528.812826,-0.011597,0.007874,-0.991455,0.297191,0.432366,-0.085191,59,268,568,5696
1644172528.861194,-0.010681,0.010254,-0.989746,0.129252,0.356031,-0.085191,51,269,573,5760
1644172528.909589,-0.010986,0.006897,-0.992004,0.129252,0.386565,-0.069924,40,280,572,5760
1644172528.957983,-0.009888,0.010498,-0.994629,0.113985,0.386565,-0.024122,55,279,573,5696
1644172529.006376,-0.009949,0.010071,-0.990906,0.266656,0.432366,-0.130992,54,280,575,5696
1644172529.069098,-0.009766,0.008789,-0.99176,0.266656,0.325496,-0.024122,52,270,577,5712
1644172529.105302,-0.010071,0.012451,-0.990234,0.251389,0.417099,-0.069924,48,274,580,5696
1644172529.151491,-0.010681,0.009277,-0.994202,0.159786,0.264427,-0.100458,46,271,573,5664
1644172529.199885,-0.012268,0.010559,-0.991089,0.159786,0.401832,-0.008855,48,281,578,5728
1644172529.248284,-0.010803,0.008484,-0.992432,0.175053,0.447634,-0.024122,53,274,580,5696
1644172529.296649,-0.010315,0.010132,-0.991699,0.205588,0.356031,0.021679,60,283,583,5760
1644172529.345108,-0.010376,0.008484,-0.995117,0.281924,0.218626,-0.054656,45,265,577,5696
1644172529.393503,-0.011597,0.010071,-0.990967,0.159786,0.386565,0.006412,42,277,579,5696
1644172529.442541,-0.008362,0.008667,-0.989746,0.052916,0.508702,-0.039389,58,279,580,5776
1644172529.49338,-0.009583,0.008179,-0.991211,0.236122,0.417099,-0.115725,59,263,572,5712
1644172529.543093,-0.00946,0.00946,-0.992432,0.449863,0.401832,0.052214,51,279,573,5664
1644172529.588127,-0.01001,0.009888,-0.990356,0.236122,0.417099,-0.008855,53,266,576,5712
1644172529.683793,-0.009644,0.011047,-0.993652,0.190321,0.325496,0.036947,48,279,571,5664
1644172529.7324,-0.011108,0.012695,-0.992249,0.236122,0.478168,-0.192061,59,277,582,5728
1644172529.780577,-0.008362,0.008667,-0.989624,0.220855,0.401832,-0.100458,41,271,578,5648
1644172529.82901,-0.009155,0.007324,-0.992432,0.434595,0.279695,0.036947,53,276,576,5712
1644172529.877401,-0.011841,0.008728,-0.992798,0.251389,0.462901,-0.100458,59,270,570,5664
1644172529.925792,-0.011108,0.007629,-0.992432,0.281924,0.417099,-0.024122,54,275,572,5664
1644172529.974193,-0.009888,0.008057,-0.990356,0.251389,0.417099,-0.14626,52,268,575,5696
1644172530.022608,-0.009888,0.008423,-0.990662,0.220855,0.325496,-0.176794,51,286,571,5696
1644172530.073413,-0.010193,0.010071,-0.993408,0.205588,0.356031,-0.192061,52,263,584,5648
1644172530.11927,-0.009705,0.00592,-0.993774,0.236122,0.386565,0.006412,60,281,576,5696
1644172530.167702,-0.011353,0.010803,-0.992615,0.129252,0.462901,-0.207328,60,279,580,5728
1644172530.216095,-0.009094,0.009277,-0.990173,0.297191,0.432366,0.113282,53,276,571,5696
1644172530.264473,-0.009705,0.009521,-0.990723,0.251389,0.493435,-0.069924,47,270,579,5696
1644172530.312963,-0.010742,0.008362,-0.99231,0.144519,0.356031,-0.069924,47,280,568,5712
1644172530.361266,-0.011414,0.010498,-0.993713,0.144519,0.294962,-0.054656,47,275,579,5728
1644172530.409636,-0.010437,0.009583,-0.991028,0.205588,0.417099,-0.192061,58,279,578,5648
1644172530.458047,-0.011108,0.009583,-0.990601,0.342992,0.417099,-0.039389,41,266,578,5648
1644172530.506411,-0.010742,0.010071,-0.994019,0.281924,0.432366,-0.069924,57,273,591,5728
1644172530.55484,-0.010742,0.007629,-0.992188,0.266656,0.417099,-0.14626,51,262,578,5760
1644172530.60353,-0.011292,0.010437,-0.994324,0.205588,0.356031,-0.039389,43,269,573,5712
1644172530.65398,-0.01355,0.008606,-0.993896,0.175053,0.417099,-0.039389,43,271,580,5696
1644172530.703961,-0.012512,0.007629,-0.99054,0.251389,0.447634,-0.100458,53,274,573,5728
1644172530.749249,-0.010437,0.009338,-0.993591,0.098718,0.279695,0.082748,43,281,573,5712
1644172530.845448,-0.01123,0.010986,-0.990112,0.159786,0.386565,-0.100458,43,274,571,5664
1644172530.893615,-0.010986,0.006165,-0.992615,0.312458,0.325496,-0.054656,51,274,576,5776
1644172530.942003,-0.008667,0.009216,-0.994507,0.068183,0.493435,-0.207328,40,280,570,5664
1644172530.990386,-0.012268,0.010071,-0.992798,0.220855,0.462901,-0.115725,59,268,577,5728
1644172531.038797,-0.010864,0.009094,-0.992249,0.190321,0.325496,-0.161527,58,269,576,5760
1644172531.094915,-0.011353,0.007996,-0.993347,0.251389,0.386565,-0.008855,53,283,576,5664
1644172531.135509,-0.007019,0.00824,-0.992126,0.205588,0.523969,-0.115725,41,276,576,5696
1644172531.183913,-0.009888,0.008301,-0.991638,0.281924,0.493435,-0.192061,45,273,572,5776
1644172531.232327,-0.011169,0.008301,-0.994446,0.205588,0.554504,-0.115725,52,287,582,5776
1644172531.280689,-0.010925,0.006348,-0.992432,0.373527,0.325496,-0.268397,52,280,577,5696
1644172531.329057,-0.009705,0.007507,-0.98999,0.098718,0.447634,0.006412,52,273,582,5728
1644172531.377489,-0.012939,0.010681,-0.992493,0.35826,0.401832,-0.085191,51,276,585,5712
1644172531.426002,-0.008789,0.012146,-0.991394,0.251389,0.478168,-0.039389,47,268,579,5696
1644172531.47499,-0.010254,0.00946,-0.992493,0.190321,0.523969,-0.130992,45,268,572,5664
1644172531.525383,-0.010742,0.010864,-0.992798,0.159786,0.432366,-0.054656,47,275,570,5664
1644172531.575491,-0.009277,0.009094,-0.987366,0.251389,0.356031,-0.115725,45,275,579,5760
1644172531.620569,-0.011475,0.008118,-0.992615,0.236122,0.539237,0.143817,52,270,577,5728
1644172531.716202,-0.010071,0.010193,-0.991699,0.220855,0.432366,-0.176794,49,273,575,5728
1644172531.764853,-0.010803,0.009888,-0.99408,0.098718,0.478168,-0.008855,38,273,582,5712
1644172531.813003,-0.009338,0.011047,-0.99353,0.159786,0.417099,-0.054656,49,275,570,5776
1644172531.861424,-0.014038,0.008606,-0.992004,0.342992,0.264427,-0.008855,54,290,575,5648
1644172531.909809,-0.011719,0.009094,-0.993958,0.251389,0.417099,-0.054656,39,271,571,5760
1644172531.958203,-0.010498,0.007141,-0.992188,0.251389,0.264427,0.006412,43,274,576,5664
1644172532.00656,-0.00946,0.006653,-0.99115,0.404061,0.432366,-0.176794,49,277,579,5712
1644172532.060023,-0.01416,0.006958,-0.994019,0.175053,0.478168,-0.192061,55,274,576,5664
1644172532.103358,-0.011597,0.00531,-0.991089,0.251389,0.478168,-0.008855,51,276,576,5728
1644172532.151707,-0.008545,0.006653,-0.990234,0.220855,0.462901,-0.115725,60,288,571,5648
1644172532.200119,-0.012451,0.012451,-0.992676,0.251389,0.447634,-0.054656,52,282,584,5712
1644172532.248492,-0.01239,0.009033,-0.993835,0.281924,0.356031,0.006412,38,280,572,5776
1644172532.296899,-0.00885,0.009644,-0.993835,0.175053,0.493435,-0.054656,59,275,579,5728
1644172532.34527,-0.009399,0.009888,-0.992798,0.297191,0.417099,-0.176794,52,265,575,5648
1644172532.393685,-0.011047,0.009216,-0.994385,0.236122,0.401832,-0.085191,54,277,572,5712
1644172532.44208,-0.012451,0.007568,-0.993347,0.129252,0.24916,-0.085191,45,277,572,5696
1644172532.490474,-0.010315,0.008728,-0.99176,0.113985,0.233893,-0.115725,55,269,580,5696
1644172532.538842,-0.012207,0.006653,-0.990967,0.175053,0.310229,-0.115725,54,270,570,5728
1644172532.587246,-0.010864,0.009033,-0.992493,0.205588,0.523969,-0.024122,48,279,576,5712
1644172532.636075,-0.011292,0.011719,-0.991943,0.159786,0.462901,-0.176794,48,269,576,5664
1644172532.685815,-0.008545,0.009216,-0.9953,0.205588,0.447634,-0.085191,49,273,579,5808
1644172532.73613,-0.011536,0.006836,-0.991333,0.113985,0.356031,0.067481,41,276,573,5664
1644172532.781124,-0.011047,0.005737,-0.991394,0.251389,0.325496,-0.176794,46,276,573,5728
1644172532.877622,-0.011292,0.009766,-0.993286,0.266656,0.386565,-0.161527,57,263,584,5696
1644172532.92601,-0.011536,0.007507,-0.9953,0.266656,0.401832,-0.130992,42,273,572,5712
1644172532.974421,-0.009583,0.009033,-0.994324,0.251389,0.371298,-0.069924,51,276,573,5776
1644172533.022809,-0.010315,0.007263,-0.992004,0.404061,0.401832,-0.115725,45,275,582,5648
1644172533.071231,-0.011841,0.012085,-0.993103,0.175053,0.356031,-0.130992,51,283,585,5696
1644172533.119539,-0.011169,0.010559,-0.992615,0.297191,0.493435,-0.069924,57,270,582,5728
1644172533.16793,-0.012756,0.01062,-0.992981,0.190321,0.539237,-0.008855,53,271,583,5696
1644172533.216308,-0.010132,0.008484,-0.992737,0.205588,0.127023,-0.115725,49,277,579,5664
1644172533.264753,-0.010376,0.007996,-0.995117,0.312458,0.478168,-0.085191,42,273,572,5760
1644172533.313088,-0.007202,0.006348,-0.992981,0.297191,0.386565,0.006412,49,280,572,5728
1644172533.361477,-0.009583,0.009277,-0.992676,0.190321,0.310229,0.006412,40,270,572,5728
1644172533.40989,-0.008972,0.010254,-0.992371,0.266656,0.401832,-0.222595,46,271,580,5696
1644172533.458288,-0.011719,0.00885,-0.994263,0.068183,0.294962,-0.085191,55,271,583,5696
1644172533.506631,-0.012085,0.008911,-0.99292,0.297191,0.386565,-0.130992,59,277,582,5664
1644172533.555089,-0.010376,0.006104,-0.993896,0.129252,0.294962,-0.161527,66,273,582,5664
1644172533.603441,-0.009949,0.01062,-0.991028,0.113985,0.325496,-0.069924,52,282,577,5664
1644172533.65184,-0.011963,0.008667,-0.991577,0.251389,0.294962,-0.115725,45,273,586,5712
1644172533.700234,-0.00885,0.010437,-0.993774,0.281924,0.447634,-0.069924,54,285,586,5712
1644172533.748592,-0.010986,0.008423,-0.990356,0.220855,0.478168,-0.069924,47,280,570,5760
1644172533.797882,-0.010132,0.010437,-0.990356,0.190321,0.310229,-0.207328,51,281,569,5776
1644172533.847666,-0.009583,0.00885,-0.992249,0.236122,0.447634,-0.100458,49,282,582,5664
1644172533.898604,-0.008057,0.010071,-0.992676,0.327725,0.340763,-0.069924,52,277,575,5664
1644172533.943072,-0.011047,0.010864,-0.991821,0.297191,0.325496,-0.085191,60,274,576,5728
1644172534.038988,-0.012695,0.005493,-0.989624,0.266656,0.417099,-0.115725,48,276,571,5696
1644172534.088082,-0.011475,0.008301,-0.99469,0.236122,0.401832,-0.069924,46,274,585,5696
1644172534.135746,-0.012268,0.007385,-0.994629,0.266656,0.386565,-0.222595,47,277,584,5728
1644172534.184142,-0.01123,0.012329,-0.989807,0.251389,0.432366,-0.054656,51,271,576,5728
1644172534.232537,-0.01001,0.010071,-0.990356,0.175053,0.478168,-0.115725,55,274,576,5712
1644172534.280897,-0.013123,0.010559,-0.991699,0.220855,0.24916,-0.024122,34,283,580,5696
1644172534.329302,-0.00946,0.01001,-0.990906,0.236122,0.371298,0.021679,51,281,576,5664
1644172534.377711,-0.011047,0.011108,-0.994934,0.236122,0.294962,-0.207328,60,271,571,5696
1644172534.426091,-0.011353,0.008118,-0.993591,0.327725,0.310229,-0.192061,49,280,577,5664
1644172534.474491,-0.010071,0.00824,-0.994141,0.327725,0.24916,-0.25313,51,279,580,5648
1644172534.522888,-0.008057,0.010742,-0.989014,0.297191,0.188092,0.052214,47,280,575,5696
1644172534.571268,-0.010498,0.009766,-0.992676,0.404061,0.371298,-0.115725,54,275,572,5776
1644172534.619655,-0.011658,0.009155,-0.992126,0.35826,0.401832,-0.115725,55,288,583,5696
1644172534.668045,-0.009705,0.00769,-0.991943,0.281924,0.432366,-0.008855,49,265,582,5664
1644172534.716428,-0.010803,0.011292,-0.989807,0.404061,0.371298,-0.268397,49,275,577,5712
1644172534.76484,-0.010193,0.007874,-0.991394,0.205588,0.340763,-0.115725,53,271,587,5712
1644172534.813213,-0.010498,0.010925,-0.9953,0.08345,0.523969,-0.176794,52,287,584,5712
1644172534.8619,-0.009766,0.006775,-0.991516,0.342992,0.310229,-0.161527,55,283,580,5696
1644172534.910053,-0.010437,0.008545,-0.991577,0.266656,0.279695,-0.222595,49,273,579,5712
1644172534.959653,-0.009949,0.009583,-0.99469,0.205588,0.325496,-0.14626,51,271,576,5664
1644172535.063603,-0.011963,0.008362,-0.993042,0.220855,0.24916,-0.36,52,280,572,5760
1644172535.10359,-0.010376,0.007812,-0.990723,0.266656,0.356031,-0.192061,48,269,576,5712
1644172535.151965,-0.010803,0.00885,-0.994385,0.236122,0.462901,-0.039389,47,265,575,5696
1644172535.200346,-0.009644,0.006958,-0.99054,0.205588,0.600305,-0.069924,45,275,579,5728
1644172535.248713,-0.01123,0.009399,-0.991089,0.266656,0.386565,-0.039389,52,275,577,5728
1644172535.297126,-0.013367,0.006042,-0.993347,0.281924,0.340763,-0.115725,52,265,575,5712
1644172535.345511,-0.012146,0.007141,-0.994568,0.022382,0.432366,-0.130992,54,277,568,5664
1644172535.393902,-0.010193,0.00769,-0.991699,0.175053,0.447634,-0.14626,49,285,575,5696
1644172535.442305,-0.010925,0.008362,-0.995605,0.251389,0.417099,-0.024122,54,280,572,5648
1644172535.490689,-0.011536,0.00769,-0.993164,0.35826,0.356031,-0.069924,53,271,580,5712
1644172535.539072,-0.012268,0.009644,-0.992493,0.236122,0.478168,0.006412,54,265,586,5664
1644172535.587464,-0.013245,0.010193,-0.992188,0.220855,0.279695,-0.008855,53,271,576,5760
1644172535.63585,-0.01532,0.010193,-0.990601,0.281924,0.432366,-0.054656,57,280,586,5696
1644172535.684246,-0.009399,0.008606,-0.991211,0.35826,0.340763,0.082748,43,274,583,5776
1644172535.732722,-0.011475,0.009583,-0.991394,0.220855,0.325496,-0.008855,49,273,584,5776
1644172535.781557,-0.009094,0.008667,-0.990356,0.312458,0.478168,-0.100458,54,275,575,5648
1644172535.832064,-0.009216,0.009338,-0.990356,0.205588,0.447634,-0.100458,53,271,576,5712
1644172535.88382,-0.014709,0.006714,-0.989685,0.144519,0.371298,-0.115725,51,279,578,5712
1644172535.92797,-0.008118,0.009277,-0.991882,0.35826,0.371298,-0.069924,49,280,572,5760
1644172536.023033,-0.011292,0.008728,-0.994019,0.251389,0.478168,-0.115725,53,276,576,5776
1644172536.071447,-0.012573,0.007629,-0.993042,0.35826,0.356031,-0.130992,51,274,578,5696
1644172536.119714,-0.014099,0.010254,-0.992126,0.327725,0.24916,-0.024122,46,266,580,5712
1644172536.168185,-0.009583,0.008484,-0.993774,0.175053,0.462901,-0.115725,51,276,571,5696
1644172536.216542,-0.012817,0.010254,-0.992554,0.266656,0.508702,-0.115725,62,281,569,5728
1644172536.264922,-0.010864,0.007385,-0.994385,0.113985,0.340763,-0.130992,58,274,576,5696
1644172536.31332,-0.012146,0.007751,-0.991089,0.388794,0.462901,-0.115725,55,266,573,5824
1644172536.361722,-0.012024,0.006287,-0.992554,0.251389,0.554504,-0.161527,57,263,577,5648
1644172536.410088,-0.011841,0.010132,-0.991272,0.373527,0.310229,-0.100458,52,268,572,5648
1644172536.458491,-0.007812,0.008484,-0.991577,0.236122,0.356031,-0.039389,43,264,573,5760
1644172536.506887,-0.012512,0.009216,-0.993896,0.251389,0.478168,-0.268397,51,266,583,5696
1644172536.555293,-0.010742,0.007446,-0.992615,0.205588,0.432366,0.036947,52,270,572,5712
1644172536.603686,-0.009033,0.009583,-0.992676,0.159786,0.386565,0.082748,49,280,589,5712
1644172536.652063,-0.012451,0.009033,-0.994324,0.08345,0.401832,0.036947,54,282,582,5664
1644172536.700451,-0.008484,0.008545,-0.99054,0.220855,0.478168,-0.008855,38,277,582,5648
1644172536.748845,-0.008789,0.010498,-0.992859,0.113985,0.24916,-0.192061,53,281,592,5760
1644172536.797278,-0.013672,0.01178,-0.992004,0.251389,0.356031,0.021679,49,277,579,5712
1644172536.845928,-0.01178,0.011292,-0.993225,0.236122,0.24916,-0.176794,43,271,576,5776
1644172536.89407,-0.011353,0.009338,-0.995178,0.312458,0.417099,-0.008855,51,271,580,5648
1644172536.943792,-0.010376,0.010742,-0.990967,0.190321,0.325496,-0.192061,54,277,582,5712
1644172536.993938,-0.009155,0.009705,-0.99231,0.251389,0.432366,0.067481,54,265,570,5760
1644172537.044686,-0.01001,0.009216,-0.992798,0.144519,0.356031,-0.085191,47,275,565,5696
1644172537.092246,-0.011963,0.010376,-0.989868,0.510931,0.371298,-0.100458,45,268,572,5712
1644172537.184378,-0.011536,0.008484,-0.992554,0.404061,0.432366,-0.069924,55,266,585,5696
1644172537.232764,-0.011597,0.010071,-0.993042,0.159786,0.294962,0.006412,45,282,577,5712
1644172537.281141,-0.009521,0.008301,-0.994629,0.373527,0.340763,-0.207328,53,283,576,5696
1644172537.329532,-0.010925,0.010193,-0.991577,0.205588,0.569771,-0.100458,35,277,579,5696
1644172537.377914,-0.011047,0.00769,-0.992493,0.251389,0.554504,-0.100458,48,283,569,5760
1644172537.426301,-0.011292,0.01062,-0.991211,0.251389,0.233893,-0.176794,45,277,579,5760
1644172537.474705,-0.011108,0.006714,-0.991943,0.297191,0.340763,0.067481,54,273,570,5648
1644172537.523111,-0.008179,0.009338,-0.991943,0.281924,0.432366,-0.085191,49,273,577,5696
1644172537.571491,-0.011475,0.00885,-0.992981,0.327725,0.401832,0.036947,60,276,580,5728
1644172537.619877,-0.010132,0.00885,-0.990906,0.159786,0.508702,-0.100458,60,279,578,5648
1644172537.668247,-0.008667,0.011536,-0.991577,0.266656,0.401832,-0.008855,53,276,578,5664
1644172537.716649,-0.011414,0.0047,-0.994934,0.190321,0.417099,0.021679,55,281,583,5728
1644172537.76515,-0.011536,0.007751,-0.993347,0.205588,0.401832,-0.054656,42,275,577,5664
1644172537.813484,-0.011108,0.004028,-0.99054,0.236122,0.386565,-0.008855,59,270,575,5664
1644172537.86187,-0.012634,0.008545,-0.992493,0.266656,0.264427,-0.237863,49,273,565,5648
1644172537.910223,-0.009521,0.007812,-0.992249,0.251389,0.356031,-0.069924,48,279,573,5664
1644172537.958619,-0.010376,0.00885,-0.992676,-0.053954,0.188092,0.067481,51,283,580,5696
1644172538.007088,-0.011292,0.006226,-0.991638,0.297191,0.340763,-0.115725,58,276,566,5648
1644172538.075339,-0.009583,0.007751,-0.993225,0.159786,0.294962,-0.008855,52,273,582,5776
1644172538.11028,-0.007935,0.010315,-0.990356,0.342992,0.478168,-0.115725,57,270,579,5760
1644172538.154746,-0.011414,0.01123,-0.991699,0.266656,0.371298,-0.130992,47,270,577,5696
1644172538.204856,-0.012085,0.008911,-0.991516,0.098718,0.279695,-0.054656,40,280,582,5696
1644172538.249915,-0.010742,0.009155,-0.993164,0.434595,0.493435,-0.039389,52,277,586,5728
1644172538.345726,-0.010498,0.011597,-0.991028,0.297191,0.432366,-0.14626,45,268,579,5696
1644172538.394149,-0.012878,0.01001,-0.992981,0.281924,0.310229,-0.085191,58,281,573,5728
1644172538.442524,-0.013062,0.00946,-0.993469,0.190321,0.371298,-0.039389,52,273,577,5648
1644172538.490932,-0.011658,0.009399,-0.993103,0.144519,0.325496,-0.069924,55,281,576,5808
1644172538.539291,-0.010681,0.009827,-0.99231,0.281924,0.508702,-0.039389,53,264,578,5712
1644172538.587696,-0.013428,0.006653,-0.989868,0.373527,0.508702,-0.054656,47,277,575,5728
1644172538.636078,-0.010864,0.008972,-0.992249,0.297191,0.356031,-0.008855,47,265,572,5728
1644172538.684488,-0.009521,0.009766,-0.989929,0.312458,0.600305,-0.115725,49,273,575,5728
1644172538.732877,-0.009583,0.009888,-0.991394,0.220855,0.325496,0.052214,64,270,586,5760
1644172538.781258,-0.009705,0.010803,-0.99176,0.159786,0.401832,-0.069924,53,276,580,5728
1644172538.829681,-0.012024,0.010559,-0.992676,0.251389,0.462901,0.052214,51,276,576,5664
1644172538.878062,-0.008972,0.011292,-0.99408,0.342992,0.447634,0.082748,51,274,580,5712
1644172538.926449,-0.010315,0.009155,-0.993103,0.098718,0.432366,-0.14626,54,270,577,5696
1644172538.974864,-0.01355,0.010315,-0.991455,0.281924,0.386565,-0.054656,42,273,582,5696
1644172539.023247,-0.009033,0.008484,-0.991638,0.205588,0.401832,-0.069924,51,269,573,5712
1644172539.09488,-0.008118,0.012024,-0.989014,0.175053,0.447634,0.052214,52,270,586,5712
1644172539.123132,-0.008545,0.00885,-0.993774,0.129252,0.401832,-0.069924,57,280,577,5648
1644172539.173117,-0.009216,0.007874,-0.99408,0.220855,0.356031,0.052214,49,277,572,5648
1644172539.265369,-0.010559,0.008423,-0.99292,0.35826,0.356031,-0.176794,47,268,579,5696
1644172539.313565,-0.009583,0.009766,-0.991882,0.251389,0.432366,-0.100458,52,280,584,5728
1644172539.361907,-0.009033,0.011414,-0.992737,0.297191,0.340763,-0.130992,53,274,573,5728
1644172539.41032,-0.011963,0.008484,-0.992554,0.236122,0.401832,-0.176794,51,271,566,5696
1644172539.458739,-0.009338,0.010864,-0.993286,0.205588,0.371298,-0.14626,51,286,580,5696
1644172539.507101,-0.011841,0.009827,-0.994507,0.266656,0.356031,-0.100458,54,265,572,5696
1644172539.555494,-0.011902,0.007996,-0.99176,0.068183,0.386565,0.006412,53,281,573,5664
1644172539.603909,-0.007751,0.008484,-0.99585,0.312458,0.432366,-0.039389,42,268,572,5728
1644172539.652307,-0.012146,0.008606,-0.995789,0.327725,0.401832,-0.14626,51,269,573,5664
1644172539.700687,-0.00885,0.009521,-0.993835,0.327725,0.401832,-0.069924,47,277,575,5648
1644172539.749058,-0.007812,0.008179,-0.991089,0.35826,0.310229,0.052214,49,277,589,5712
1644172539.797462,-0.008362,0.008911,-0.992371,0.297191,0.615573,0.052214,43,276,573,5712
1644172539.845897,-0.010925,0.009583,-0.992554,0.190321,0.508702,-0.115725,49,268,575,5712
1644172539.894292,-0.009766,0.011414,-0.990173,0.236122,0.462901,-0.024122,53,276,576,5664
1644172539.942685,-0.010925,0.009521,-0.991699,0.297191,0.493435,-0.069924,43,283,571,5712
1644172539.991031,-0.008972,0.009888,-0.991089,0.327725,0.493435,0.036947,54,280,572,5728
1644172540.039444,-0.009705,0.006531,-0.992493,0.175053,0.356031,-0.25313,61,273,577,5696
1644172540.095252,-0.010315,0.008911,-0.990723,0.297191,0.462901,-0.207328,54,282,579,5696
1644172540.136267,-0.006897,0.013062,-0.98877,0.342992,0.493435,-0.069924,45,277,579,5696
1644172540.185212,-0.010376,0.008972,-0.990173,0.205588,0.371298,-0.161527,47,270,575,5696
1644172540.235668,-0.011475,0.00769,-0.993103,0.281924,0.386565,0.006412,53,266,573,5728
1644172540.285707,-0.009338,0.005981,-0.989563,0.342992,0.478168,-0.192061,51,276,576,5728
1644172540.330765,-0.008301,0.011597,-0.99292,0.266656,0.386565,-0.024122,57,277,579,5664
1644172540.426536,-0.008423,0.00885,-0.994507,0.190321,0.478168,-0.115725,42,282,572,5648
1644172540.475047,-0.010681,0.008484,-0.99054,0.205588,0.417099,-0.039389,60,276,576,5712
1644172540.523322,-0.010193,0.009766,-0.991699,0.205588,0.310229,-0.161527,51,281,576,5728
1644172540.571706,-0.01355,0.007935,-0.991638,0.419328,0.417099,-0.054656,48,276,576,5712
1644172540.620074,-0.008606,0.008911,-0.990784,0.205588,0.493435,-0.115725,47,270,575,5728
1644172540.668489,-0.01123,0.008362,-0.992798,0.205588,0.508702,-0.039389,45,273,589,5696
1644172540.716875,-0.010925,0.00946,-0.992859,0.190321,0.447634,-0.054656,47,285,572,5632
1644172540.765266,-0.010559,0.009888,-0.994324,0.281924,0.294962,-0.008855,43,271,578,5728
1644172540.813669,-0.011292,0.007996,-0.992981,0.266656,0.417099,-0.039389,51,274,578,5664
1644172540.862088,-0.007996,0.008423,-0.993774,0.251389,0.386565,-0.130992,47,287,582,5664
1644172540.910485,-0.01123,0.005066,-0.992432,0.098718,0.401832,-0.25313,54,280,579,5664
1644172540.958865,-0.008362,0.008057,-0.991333,0.281924,0.447634,-0.085191,52,280,572,5728
1644172541.007257,-0.012756,0.007812,-0.99054,0.281924,0.539237,-0.054656,53,274,587,5712
1644172541.069748,-0.011658,0.00946,-0.994507,0.251389,0.462901,-0.207328,57,275,575,5712
1644172541.106688,-0.013672,0.010742,-0.994385,0.144519,0.432366,-0.008855,43,266,578,5712
1644172541.152415,-0.009399,0.011047,-0.990662,0.08345,0.401832,0.036947,45,275,572,5600
1644172541.200792,-0.009521,0.008423,-0.99115,0.236122,0.310229,0.006412,59,277,570,5664
1644172541.249155,-0.007202,0.011414,-0.99292,0.098718,0.462901,-0.192061,51,269,585,5712
1644172541.297563,-0.012085,0.010437,-0.993042,0.144519,0.401832,-0.039389,48,274,578,5696
1644172541.346491,-0.011414,0.011292,-0.990845,0.113985,0.432366,-0.024122,49,277,577,5696
1644172541.397076,-0.010925,0.008789,-0.994385,0.190321,0.401832,-0.14626,55,279,580,5808
1644172541.447038,-0.010132,0.007568,-0.994202,0.251389,0.340763,-0.085191,54,282,582,5712
1644172541.492646,-0.011658,0.009277,-0.992981,0.205588,0.294962,-0.054656,39,276,580,5696
1644172541.5879,-0.007202,0.01001,-0.993164,0.342992,0.371298,0.12855,47,280,572,5648
1644172541.636291,-0.009399,0.006287,-0.98999,0.236122,0.417099,-0.207328,48,276,564,5664
1644172541.684715,-0.010559,0.010071,-0.994873,0.175053,0.447634,-0.176794,60,279,580,5664
1644172541.733082,-0.011047,0.010132,-0.994385,0.190321,0.371298,-0.100458,47,280,579,5776
1644172541.781464,-0.012268,0.010193,-0.992554,0.098718,0.478168,-0.054656,47,273,572,5696
1644172541.829854,-0.012024,0.010132,-0.993835,0.068183,0.24916,-0.130992,51,279,578,5760
1644172541.878297,-0.01001,0.008911,-0.993286,0.281924,0.310229,0.067481,54,273,575,5648
1644172541.926745,-0.011047,0.009338,-0.992615,0.144519,0.325496,-0.085191,47,282,575,5648
1644172541.975197,-0.009949,0.008179,-0.993774,0.236122,0.478168,-0.054656,42,263,575,5696
1644172542.023489,-0.01123,0.009949,-0.990479,0.312458,0.462901,-0.085191,47,287,582,5712
1644172542.077129,-0.008972,0.006165,-0.989319,0.251389,0.417099,-0.069924,54,275,582,5648
1644172542.120282,-0.010376,0.008972,-0.993896,0.190321,0.401832,0.006412,54,277,582,5712
1644172542.168612,-0.009399,0.008362,-0.994324,0.175053,0.417099,-0.024122,48,264,580,5760
1644172542.217006,-0.013489,0.008545,-0.992126,0.35826,0.279695,-0.069924,58,276,578,5632
1644172542.265374,-0.012329,0.009094,-0.993652,0.251389,0.340763,-0.024122,45,280,577,5760
1644172542.313785,-0.010864,0.007324,-0.991455,0.205588,0.401832,-0.039389,49,275,577,5728
1644172542.362187,-0.011902,0.006042,-0.992676,0.205588,0.493435,-0.085191,46,276,585,5696
1644172542.411109,-0.010437,0.008972,-0.992981,0.281924,0.340763,-0.298931,49,268,575,5712
1644172542.45896,-0.009399,0.008057,-0.991455,0.175053,0.371298,-0.115725,52,275,570,5696
1644172542.507962,-0.010437,0.009216,-0.99292,0.312458,0.371298,-0.085191,46,271,578,5648
1644172542.558413,-0.010498,0.009949,-0.990051,0.113985,0.371298,-0.039389,48,279,573,5760
1644172542.608213,-0.008728,0.009888,-0.992981,0.266656,0.371298,-0.085191,43,266,580,5760
1644172542.653221,-0.009521,0.009583,-0.992432,0.342992,0.447634,-0.024122,43,274,571,5728
1644172542.749269,-0.01123,0.00885,-0.990417,0.129252,0.386565,-0.054656,51,271,578,5712
1644172542.797658,-0.009338,0.00946,-0.993347,0.297191,0.401832,-0.085191,52,270,570,5760
1644172542.846051,-0.007935,0.011719,-0.992798,0.388794,0.523969,0.006412,43,274,583,5696
1644172542.894495,-0.012085,0.011536,-0.993713,0.220855,0.218626,-0.008855,51,264,571,5696
1644172542.942901,-0.007751,0.011169,-0.991577,0.190321,0.478168,-0.069924,42,275,577,5664
1644172542.99129,-0.008057,0.012146,-0.993713,0.297191,0.386565,-0.008855,54,273,582,5728
1644172543.039683,-0.009155,0.009949,-0.994568,0.266656,0.447634,-0.100458,54,270,575,5712
1644172543.088122,-0.012756,0.009033,-0.99231,0.144519,0.386565,0.082748,57,280,584,5760
1644172543.136454,-0.009827,0.008911,-0.99408,0.251389,0.386565,-0.054656,47,268,572,5776
1644172543.18483,-0.012207,0.007202,-0.994019,0.052916,0.401832,-0.008855,49,270,579,5760
1644172543.233216,-0.008362,0.007507,-0.99231,0.190321,0.279695,-0.192061,55,259,576,5696
1644172543.281585,-0.01123,0.008728,-0.990295,0.113985,0.356031,-0.100458,48,266,573,5696
1644172543.329983,-0.011841,0.006653,-0.990601,0.144519,0.356031,-0.054656,48,286,580,5696
1644172543.378373,-0.010376,0.008057,-0.994568,0.281924,0.478168,-0.039389,55,279,594,5664
1644172543.42676,-0.010315,0.010803,-0.990906,0.251389,0.386565,-0.039389,53,269,578,5712
1644172543.475184,-0.01239,0.007141,-0.991394,0.297191,0.523969,-0.161527,48,276,571,5760
1644172543.523538,-0.007812,0.00824,-0.993225,0.236122,0.432366,-0.100458,47,280,579,5600
1644172543.571979,-0.009766,0.006104,-0.994141,0.342992,0.310229,0.021679,42,275,572,5712
1644172543.620351,-0.01062,0.009766,-0.993347,0.251389,0.447634,-0.298931,51,269,576,5664
1644172543.670188,-0.008484,0.006104,-0.992249,0.159786,0.371298,-0.085191,55,271,578,5728
1644172543.720678,-0.009338,0.01062,-0.990723,0.327725,0.371298,-0.008855,57,273,589,5712
1644172543.765728,-0.010803,0.008911,-0.993164,0.404061,0.462901,-0.130992,42,270,572,5648
1644172543.862652,-0.01239,0.009583,-0.993103,0.46513,0.417099,0.006412,48,276,578,5696
1644172543.910706,-0.012085,0.009094,-0.992798,0.175053,0.340763,-0.192061,53,283,578,5664
1644172543.959097,-0.011902,0.008728,-0.99115,0.327725,0.310229,-0.192061,57,275,568,5728
1644172544.007462,-0.010376,0.00769,-0.992554,0.236122,0.371298,-0.161527,51,281,573,5760
1644172544.064629,-0.010254,0.007202,-0.993164,0.266656,0.371298,0.067481,43,291,583,5664
1644172544.10426,-0.007324,0.009399,-0.995361,0.098718,0.310229,-0.130992,49,285,575,5712
1644172544.153281,-0.011353,0.011353,-0.995422,0.373527,0.310229,-0.176794,53,279,573,5728
1644172544.201039,-0.011414,0.009949,-0.990723,0.297191,0.264427,0.082748,49,290,575,5728
1644172544.249415,-0.010986,0.007996,-0.995178,0.159786,0.279695,-0.100458,52,275,582,5760
1644172544.297813,-0.011902,0.007324,-0.994141,0.220855,0.325496,-0.268397,53,264,583,5696
1644172544.346227,-0.01123,0.008606,-0.992493,0.190321,0.523969,-0.192061,43,283,578,5712
1644172544.394804,-0.011353,0.008057,-0.992615,0.251389,0.279695,-0.100458,57,275,572,5696
1644172544.44302,-0.00885,0.008484,-0.994873,0.236122,0.325496,-0.069924,54,280,579,5728
1644172544.491823,-0.00769,0.009216,-0.992371,0.266656,0.356031,0.021679,48,276,580,5648
1644172544.539789,-0.010803,0.009521,-0.99054,0.251389,0.462901,-0.024122,52,277,593,5760
1644172544.588156,-0.009827,0.010803,-0.996094,0.113985,0.508702,-0.069924,51,276,576,5696
1644172544.636571,-0.01178,0.009583,-0.992981,0.297191,0.386565,-0.115725,51,271,580,5696
1644172544.685031,-0.008423,0.010803,-0.995239,0.236122,0.386565,-0.085191,53,279,578,5664
1644172544.733916,-0.009888,0.010254,-0.995483,0.190321,0.462901,-0.024122,49,270,575,5696
1644172544.784029,-0.012146,0.010315,-0.990112,0.205588,0.371298,-0.176794,53,266,578,5696
1644172544.835078,-0.011841,0.006348,-0.992188,0.205588,0.356031,-0.192061,46,271,580,5696
1644172544.881662,-0.014099,0.010071,-0.993103,0.35826,0.539237,-0.085191,49,273,584,5664
1644172544.975501,-0.01062,0.008423,-0.992493,0.297191,0.447634,-0.222595,51,281,573,5760
1644172545.023715,-0.010559,0.010071,-0.99054,0.113985,0.478168,-0.130992,52,277,582,5728
1644172545.072242,-0.009583,0.008301,-0.987793,0.236122,0.401832,-0.100458,55,274,573,5648
1644172545.120386,-0.010559,0.008057,-0.992065,0.281924,0.294962,-0.161527,42,277,582,5696
1644172545.168807,-0.011658,0.011536,-0.991333,0.220855,0.447634,-0.100458,45,275,575,5664
1644172545.217201,-0.009277,0.007874,-0.994019,0.220855,0.325496,-0.14626,46,276,578,5664
1644172545.2656,-0.009827,0.005493,-0.993286,0.175053,0.356031,-0.085191,43,269,578,5648
1644172545.313984,-0.007996,0.008179,-0.993225,0.007115,0.310229,-0.039389,46,276,566,5664
1644172545.362404,-0.009949,0.010742,-0.993103,0.327725,0.478168,-0.14626,57,280,572,5760
1644172545.410785,-0.010132,0.004578,-0.993286,0.312458,0.478168,0.006412,45,265,575,5760
1644172545.459169,-0.010376,0.009155,-0.992615,0.251389,0.401832,-0.176794,40,277,577,5712
1644172545.507533,-0.01001,0.009399,-0.99176,0.373527,0.310229,-0.069924,43,286,573,5696
1644172545.555951,-0.006592,0.008057,-0.991943,0.35826,0.386565,-0.054656,45,273,577,5696
1644172545.604346,-0.01123,0.00769,-0.995789,0.327725,0.386565,-0.054656,49,265,579,5760
1644172545.652755,-0.012146,0.007141,-0.992676,0.190321,0.417099,-0.14626,40,280,582,5712
1644172545.701121,-0.01062,0.01001,-0.993042,0.220855,0.478168,-0.069924,52,277,572,5696
1644172545.749484,-0.013306,0.009094,-0.992859,0.251389,0.447634,-0.192061,43,271,573,5696
1644172545.797945,-0.012512,0.00769,-0.992615,0.113985,0.432366,0.098015,46,271,585,5664
1644172545.846362,-0.008728,0.011353,-0.994629,0.220855,0.600305,-0.024122,47,270,575,5728
1644172545.89597,-0.009216,0.007568,-0.993713,0.220855,0.294962,-0.054656,46,274,585,5712
1644172545.946033,-0.009521,0.008423,-0.991821,0.266656,0.386565,-0.054656,55,269,583,5696
1644172545.99658,-0.010986,0.009094,-0.991333,0.297191,0.294962,0.036947,49,270,572,5712
1644172546.040924,-0.011719,0.010315,-0.989441,0.312458,0.417099,-0.024122,49,277,582,5760
1644172546.136644,-0.010681,0.007751,-0.99115,0.449863,0.340763,-0.14626,47,273,579,5728
1644172546.185065,-0.011108,0.009521,-0.991516,0.220855,0.401832,-0.222595,48,276,571,5760
1644172546.233407,-0.012207,0.010376,-0.994751,0.144519,0.386565,-0.176794,59,273,577,5664
1644172546.281805,-0.009705,0.006775,-0.995178,0.327725,0.432366,-0.054656,48,271,578,5728
1644172546.330197,-0.007935,0.00708,-0.992126,0.205588,0.356031,-0.054656,51,274,571,5728
1644172546.378594,-0.01062,0.011414,-0.993164,0.190321,0.325496,-0.100458,52,275,584,5760
1644172546.426981,-0.009094,0.011292,-0.993103,0.129252,0.432366,-0.14626,54,280,584,5696
1644172546.475352,-0.009155,0.008972,-0.993408,0.327725,0.462901,0.006412,53,264,571,5664
1644172546.523772,-0.010498,0.010254,-0.995483,0.159786,0.508702,-0.008855,49,275,572,5632
1644172546.57217,-0.011841,0.010193,-0.99115,0.266656,0.294962,-0.176794,55,283,573,5728
1644172546.620553,-0.010437,0.00415,-0.991821,0.190321,0.447634,-0.069924,48,288,562,5712
1644172546.668938,-0.009644,0.00769,-0.99054,0.129252,0.417099,0.021679,57,273,589,5648
1644172546.717321,-0.009277,0.006592,-0.991455,0.266656,0.462901,0.067481,48,266,585,5712
1644172546.76573,-0.012634,0.010071,-0.994629,0.312458,0.447634,-0.085191,43,279,571,5648
1644172546.814167,-0.01001,0.010132,-0.991455,0.190321,0.493435,-0.054656,52,273,577,5664
1644172546.862555,-0.010376,0.007324,-0.992249,0.266656,0.264427,-0.115725,40,273,591,5696
1644172546.910893,-0.010925,0.008362,-0.991882,0.068183,0.371298,-0.054656,51,276,576,5696
1644172546.959323,-0.009033,0.009705,-0.992798,0.281924,0.462901,-0.085191,57,268,582,5712
1644172547.066152,-0.00946,0.012451,-0.990967,0.312458,0.539237,-0.039389,42,282,577,5776
1644172547.104473,-0.00946,0.011536,-0.992249,0.251389,0.462901,-0.008855,53,283,585,5648
1644172547.15286,-0.009277,0.007996,-0.993286,0.236122,0.447634,-0.008855,47,277,575,5648
1644172547.201233,-0.010864,0.011047,-0.992798,0.129252,0.340763,-0.008855,54,270,579,5648
1644172547.249615,-0.009644,0.008789,-0.99292,0.266656,0.462901,-0.024122,42,285,575,5712
1644172547.298022,-0.011414,0.00647,-0.991272,0.251389,0.447634,-0.100458,54,275,572,5712
1644172547.346421,-0.011719,0.007874,-0.990356,0.220855,0.386565,0.006412,47,268,572,5760
1644172547.394816,-0.012024,0.010742,-0.990234,0.205588,0.356031,-0.161527,46,279,573,5712
1644172547.443221,-0.012207,0.008301,-0.991028,0.297191,0.401832,0.006412,47,280,582,5664
1644172547.491809,-0.012451,0.012573,-0.99585,0.098718,0.478168,0.006412,48,276,583,5696
1644172547.539981,-0.009399,0.008301,-0.99408,0.266656,0.539237,-0.100458,53,274,578,5696
1644172547.588366,-0.007385,0.00824,-0.991394,0.190321,0.417099,-0.069924,53,266,578,5664
1644172547.636748,-0.010254,0.007935,-0.991821,0.220855,0.356031,0.006412,49,282,572,5664
1644172547.685202,-0.009827,0.010742,-0.99408,0.129252,0.264427,-0.008855,53,274,580,5664
1644172547.733669,-0.01062,0.01123,-0.99115,0.236122,0.356031,-0.069924,57,280,591,5664
1644172547.784014,-0.010437,0.006775,-0.995911,0.266656,0.340763,-0.085191,47,280,579,5696
1644172547.83599,-0.009399,0.009094,-0.992554,0.220855,0.401832,-0.024122,46,279,580,5760
1644172547.879776,-0.011597,0.00769,-0.992126,0.35826,0.356031,0.159084,58,271,569,5760
1644172547.975512,-0.012634,0.008972,-0.990234,0.297191,0.417099,-0.130992,47,273,572,5696
1644172548.023893,-0.01001,0.010315,-0.994934,0.251389,0.401832,0.006412,47,277,570,5728
1644172548.072728,-0.011169,0.009338,-0.990234,0.251389,0.432366,0.006412,54,273,577,5728
1644172548.12064,-0.013062,0.007812,-0.99408,0.251389,0.356031,-0.14626,53,281,580,5728
1644172548.169026,-0.010864,0.009338,-0.991882,0.281924,0.462901,-0.054656,49,277,579,5648
1644172548.217433,-0.010437,0.009277,-0.993469,0.251389,0.371298,-0.115725,45,280,577,5648
1644172548.265812,-0.010254,0.007996,-0.994568,0.297191,0.279695,-0.024122,45,268,577,5648
1644172548.314216,-0.011658,0.007996,-0.992188,0.205588,0.310229,-0.039389,61,282,575,5760
1644172548.362643,-0.010803,0.00946,-0.991333,0.236122,0.447634,-0.054656,45,282,584,5632
1644172548.411014,-0.012146,0.01123,-0.992676,0.220855,0.310229,-0.222595,49,277,572,5664
1644172548.459402,-0.013184,0.006958,-0.993591,0.266656,0.417099,-0.008855,53,283,576,5712
1644172548.507785,-0.010498,0.007568,-0.992004,0.281924,0.371298,-0.130992,59,285,579,5712
1644172548.556195,-0.00885,0.008911,-0.993591,0.159786,0.417099,-0.024122,36,271,573,5776
1644172548.604543,-0.009888,0.007568,-0.991699,0.175053,0.432366,-0.14626,55,274,576,5696
1644172548.652982,-0.011597,0.008606,-0.994141,0.281924,0.508702,-0.085191,53,271,576,5696
1644172548.701344,-0.012939,0.009277,-0.99176,0.175053,0.462901,-0.283664,48,276,583,5728
1644172548.749717,-0.011169,0.010193,-0.992554,0.190321,0.493435,-0.222595,36,271,585,5696
1644172548.798108,-0.009766,0.008301,-0.994385,0.266656,0.24916,-0.039389,51,276,576,5712
1644172548.846875,-0.009888,0.007263,-0.991699,0.098718,0.356031,0.021679,48,283,578,5696
1644172548.895887,-0.012146,0.006348,-0.993347,0.297191,0.386565,-0.024122,43,266,585,5648
1644172548.946242,-0.009155,0.007507,-0.989746,0.388794,0.417099,0.036947,53,274,578,5664
1644172548.996479,-0.009338,0.008545,-0.992798,0.266656,0.447634,-0.25313,48,274,576,5664
1644172549.040868,-0.00885,0.010681,-0.993774,0.297191,0.371298,0.098015,40,277,572,5712
1644172549.136868,-0.012695,0.011169,-0.991394,0.404061,0.432366,-0.115725,45,292,577,5696
1644172549.185432,-0.013123,0.008545,-0.992676,0.251389,0.417099,-0.161527,54,277,577,5696
1644172549.233624,-0.010681,0.007996,-0.992676,0.113985,0.462901,0.036947,51,264,583,5728
1644172549.282046,-0.012512,0.007629,-0.99353,0.220855,0.478168,-0.085191,64,280,582,5728
1644172549.330411,-0.010559,0.008667,-0.991272,0.236122,0.356031,-0.100458,47,275,568,5712
1644172549.378815,-0.010864,0.010132,-0.992737,0.175053,0.523969,-0.069924,54,280,575,5760
1644172549.427208,-0.013062,0.008057,-0.992371,0.159786,0.493435,-0.115725,42,290,577,5696
1644172549.475601,-0.011658,0.009949,-0.994385,0.236122,0.340763,-0.085191,52,280,572,5696
1644172549.524,-0.010803,0.007202,-0.99231,0.220855,0.523969,0.006412,49,275,582,5664
1644172549.572396,-0.011536,0.008667,-0.991943,0.205588,0.340763,-0.115725,61,273,563,5712
1644172549.62077,-0.010071,0.008911,-0.99115,0.35826,0.493435,-0.115725,47,277,572,5696
1644172549.669174,-0.011108,0.009216,-0.992737,0.236122,0.493435,0.052214,53,286,576,5728
1644172549.717567,-0.010864,0.009094,-0.994263,0.175053,0.279695,0.036947,54,268,575,5664
1644172549.765958,-0.010559,0.010925,-0.990845,0.312458,0.386565,-0.14626,62,274,573,5696
1644172549.814339,-0.009583,0.008118,-0.991821,0.281924,0.264427,-0.14626,51,271,580,5712
1644172549.862806,-0.010132,0.010071,-0.99176,0.175053,0.386565,-0.161527,51,279,569,5664
1644172549.911125,-0.012024,0.008667,-0.990295,0.144519,0.386565,-0.100458,47,263,582,5696
1644172549.959556,-0.011902,0.010376,-0.990356,0.297191,0.356031,-0.039389,49,265,568,5696
1644172550.007955,-0.009827,0.007996,-0.990967,0.312458,0.188092,-0.100458,53,279,571,5696
1644172550.07511,-0.009766,0.008667,-0.990906,0.205588,0.356031,-0.130992,57,277,582,5664
1644172550.114983,-0.011719,0.007324,-0.992859,0.236122,0.539237,-0.085191,48,279,578,5696
1644172550.153547,-0.011719,0.009094,-0.991394,0.08345,0.264427,-0.176794,53,269,583,5728
1644172550.249875,-0.011108,0.00885,-0.991882,0.327725,0.386565,-0.069924,46,274,576,5696
1644172550.298218,-0.011902,0.010315,-0.991028,0.251389,0.401832,-0.024122,59,273,579,5696
1644172550.346618,-0.01001,0.00946,-0.993896,0.129252,0.24916,-0.161527,62,281,580,5760
1644172550.395406,-0.012329,0.009399,-0.992737,0.327725,0.386565,-0.161527,52,275,570,5696
1644172550.443424,-0.008911,0.009583,-0.993958,0.312458,0.386565,-0.069924,47,275,572,5712
1644172550.492397,-0.009888,0.009216,-0.992493,0.236122,0.401832,-0.054656,51,271,573,5696
1644172550.540194,-0.01123,0.01239,-0.993469,0.205588,0.417099,-0.130992,54,273,570,5696
1644172550.588589,-0.009705,0.010742,-0.994751,0.281924,0.356031,-0.069924,48,269,583,5760
1644172550.636987,-0.009277,0.008667,-0.993103,0.404061,0.508702,0.067481,52,280,577,5696
1644172550.685349,-0.01062,0.008667,-0.992065,0.281924,0.386565,-0.176794,57,277,575,5696
1644172550.733777,-0.011414,0.011047,-0.993591,0.266656,0.508702,-0.039389,58,271,580,5696
1644172550.782244,-0.012939,0.008423,-0.991211,0.251389,0.478168,-0.100458,65,266,585,5760
1644172550.83055,-0.012573,0.009705,-0.991455,0.205588,0.279695,-0.115725,54,277,572,5840
1644172550.878951,-0.012207,0.009216,-0.993774,0.022382,0.432366,-0.054656,51,264,573,5664
1644172550.927365,-0.008789,0.006653,-0.992554,0.220855,0.401832,-0.100458,52,277,582,5728
1644172550.975759,-0.010864,0.009338,-0.991638,0.175053,0.508702,-0.085191,60,269,571,5664
1644172551.024138,-0.013489,0.008057,-0.992432,0.251389,0.462901,-0.024122,55,274,580,5664
1644172551.087888,-0.010071,0.008728,-0.992859,0.327725,0.508702,-0.085191,51,281,583,5760
1644172551.122494,-0.010193,0.008057,-0.992493,0.144519,0.310229,-0.222595,48,276,573,5728
1644172551.172451,-0.011597,0.007935,-0.993347,0.113985,0.371298,-0.207328,46,274,576,5696
1644172551.221726,-0.00769,0.010315,-0.990784,0.113985,0.371298,0.006412,58,274,580,5712
1644172551.266939,-0.010315,0.009644,-0.992798,0.236122,0.539237,-0.176794,42,277,577,5696
1644172551.362858,-0.008667,0.010803,-0.990295,0.236122,0.340763,0.006412,51,281,569,5696
1644172551.411211,-0.011597,0.007507,-0.992981,0.068183,0.294962,-0.222595,43,276,573,5808
1644172551.459605,-0.014099,0.013306,-0.991577,0.236122,0.462901,-0.085191,47,275,575,5728
1644172551.507987,-0.008423,0.007507,-0.990479,0.190321,0.24916,0.067481,42,270,579,5728
1644172551.556385,-0.01062,0.007141,-0.992493,0.159786,0.325496,-0.115725,57,268,575,5712
1644172551.604797,-0.00946,0.00946,-0.991943,0.098718,0.340763,-0.161527,49,282,577,5728
1644172551.653196,-0.012329,0.010925,-0.991516,0.220855,0.569771,-0.100458,48,279,576,5728
1644172551.701581,-0.010864,0.009399,-0.992249,0.236122,0.447634,-0.085191,49,277,584,5696
1644172551.74994,-0.011108,0.008362,-0.990479,0.190321,0.340763,-0.176794,54,273,577,5696
1644172551.79836,-0.012756,0.006348,-0.98999,0.144519,0.508702,-0.085191,49,280,577,5728
1644172551.84675,-0.009521,0.009399,-0.991394,0.281924,0.447634,-0.207328,49,275,577,5664
1644172551.895289,-0.009094,0.010132,-0.991943,0.205588,0.569771,-0.161527,52,282,572,5760
1644172551.943576,-0.008118,0.007629,-0.992004,0.144519,0.340763,-0.069924,54,273,582,5664
1644172551.991959,-0.011353,0.006531,-0.991577,0.220855,0.417099,0.052214,47,270,584,5664
1644172552.040333,-0.011169,0.00885,-0.995056,0.266656,0.539237,0.082748,48,276,580,5664
1644172552.093951,-0.012878,0.006958,-0.992859,0.190321,0.432366,-0.024122,55,276,580,5712
1644172552.137144,-0.011353,0.011963,-0.995422,0.220855,0.462901,-0.130992,51,283,573,5776
1644172552.18554,-0.011719,0.006592,-0.991699,0.220855,0.569771,-0.008855,45,277,575,5696
1644172552.233932,-0.011841,0.009094,-0.98999,0.251389,0.539237,-0.192061,43,266,580,5664
1644172552.283843,-0.011536,0.008362,-0.991394,0.281924,0.417099,-0.192061,48,286,580,5696
1644172552.333934,-0.011902,0.010437,-0.98938,0.220855,0.462901,-0.192061,48,271,573,5600
1644172552.384281,-0.009705,0.010376,-0.994995,0.190321,0.432366,-0.115725,46,281,578,5696
1644172552.428721,-0.007874,0.007324,-0.992188,0.373527,0.432366,-0.085191,49,263,575,5760
1644172552.524255,-0.009399,0.012207,-0.994507,0.068183,0.447634,-0.115725,53,279,578,5664
1644172552.572648,-0.010376,0.009644,-0.991516,0.236122,0.417099,-0.161527,47,282,572,5696
1644172552.621029,-0.008728,0.010559,-0.989258,0.205588,0.417099,-0.176794,52,275,579,5648
1644172552.669425,-0.010864,0.009705,-0.990723,0.175053,0.493435,-0.115725,46,266,576,5696
1644172552.717823,-0.010925,0.006287,-0.993164,0.175053,0.554504,-0.161527,58,269,573,5648
1644172552.766206,-0.011169,0.007751,-0.992554,0.342992,0.401832,-0.039389,52,277,577,5664
1644172552.814644,-0.011902,0.009521,-0.99054,0.266656,0.447634,0.021679,48,279,576,5696
1644172552.863013,-0.01001,0.007751,-0.992859,0.266656,0.447634,-0.054656,51,276,571,5760
1644172552.911385,-0.013855,0.011353,-0.992615,0.175053,0.371298,-0.176794,55,276,569,5776
1644172552.959764,-0.009033,0.008972,-0.992188,0.159786,0.462901,0.021679,54,280,582,5696
1644172553.008159,-0.009827,0.009338,-0.99292,0.373527,0.371298,0.036947,47,280,579,5664
1644172553.064499,-0.009644,0.009033,-0.99292,0.297191,0.356031,-0.085191,58,269,578,5664
1644172553.10494,-0.011536,0.010498,-0.992737,0.251389,0.325496,0.006412,46,274,576,5712
1644172553.153304,-0.008728,0.009277,-0.990845,0.129252,0.294962,-0.268397,54,275,577,5664
1644172553.201689,-0.01355,0.010803,-0.990723,0.35826,0.508702,-0.237863,57,275,589,5664
1644172553.250062,-0.010132,0.009277,-0.993042,0.037649,0.478168,-0.100458,51,276,573,5760
1644172553.298468,-0.011108,0.011353,-0.991821,0.281924,0.523969,0.006412,43,276,573,5664
1644172553.347036,-0.011536,0.009094,-0.991882,0.144519,0.478168,-0.192061,47,273,570,5648
1644172553.395923,-0.008179,0.009277,-0.992615,0.35826,0.233893,-0.130992,43,276,573,5696
1644172553.446584,-0.010925,0.008484,-0.990723,0.190321,0.310229,-0.024122,54,268,584,5728
1644172553.49701,-0.006592,0.012817,-0.991638,0.312458,0.340763,0.036947,54,273,577,5712
1644172553.541582,-0.008484,0.00769,-0.993103,0.190321,0.447634,0.006412,60,276,580,5712
1644172553.637182,-0.010803,0.010254,-0.99115,0.220855,0.447634,0.021679,52,280,565,5696
1644172553.685586,-0.009949,0.008606,-0.993042,0.251389,0.432366,-0.268397,43,262,578,5664
1644172553.733989,-0.011169,0.007874,-0.991638,0.297191,0.462901,-0.222595,52,277,579,5728
1644172553.782645,-0.012146,0.011536,-0.990173,0.297191,0.371298,-0.14626,51,283,578,5712
1644172553.830824,-0.011719,0.009338,-0.992126,0.373527,0.523969,-0.039389,48,271,578,5760
1644172553.879199,-0.009399,0.008545,-0.990906,0.388794,0.432366,-0.14626,48,279,576,5696
1644172553.927591,-0.009399,0.007568,-0.992737,0.098718,0.432366,-0.039389,48,271,580,5696
1644172553.975971,-0.010803,0.004639,-0.992859,0.327725,0.371298,-0.039389,52,280,568,5760
1644172554.024374,-0.010437,0.006714,-0.993469,0.205588,0.386565,-0.237863,55,274,583,5664
1644172554.077097,-0.012634,0.010437,-0.992188,0.251389,0.447634,-0.100458,42,275,579,5696
1644172554.121144,-0.010254,0.009766,-0.991943,0.266656,0.386565,-0.100458,59,270,586,5664
1644172554.1695,-0.010193,0.009705,-0.990723,0.220855,0.462901,-0.130992,57,273,586,5664
1644172554.217893,-0.012573,0.007629,-0.994141,0.404061,0.386565,-0.176794,58,286,580,5600
1644172554.266253,-0.010315,0.00824,-0.993774,0.205588,0.325496,-0.024122,49,265,572,5696
1644172554.314679,-0.009399,0.008728,-0.990967,0.236122,0.294962,-0.024122,48,274,583,5664
1644172554.363088,-0.010132,0.008301,-0.992981,0.113985,0.371298,0.067481,55,291,573,5648
1644172554.411874,-0.009644,0.009827,-0.990234,0.312458,0.493435,-0.069924,51,279,576,5696
1644172554.459822,-0.010376,0.010071,-0.992981,0.220855,0.462901,0.006412,58,276,578,5728
1644172554.508219,-0.011169,0.009705,-0.991577,0.159786,0.340763,-0.069924,53,276,583,5712
1644172554.556989,-0.010803,0.007263,-0.991577,0.312458,0.417099,-0.176794,54,270,593,5760
1644172554.607669,-0.012207,0.009583,-0.990784,0.236122,0.432366,-0.115725,48,279,576,5712
1644172554.657806,-0.011719,0.008728,-0.991821,0.373527,0.294962,-0.161527,58,271,573,5664
1644172554.70254,-0.008606,0.009705,-0.992065,0.266656,0.478168,-0.192061,57,270,586,5712
1644172554.798563,-0.011536,0.012756,-0.992249,0.388794,0.462901,-0.115725,48,276,585,5648
1644172554.84701,-0.010376,0.010376,-0.992249,0.388794,0.447634,-0.008855,54,277,575,5664
1644172554.895372,-0.012207,0.007629,-0.990784,0.266656,0.371298,-0.024122,55,279,583,5632
1644172554.943789,-0.013367,0.009155,-0.991943,0.098718,0.478168,-0.130992,52,270,575,5760
1644172554.992194,-0.010437,0.008667,-0.99115,0.312458,0.386565,0.067481,65,279,578,5696
1644172555.040565,-0.010132,0.008667,-0.992493,0.312458,0.523969,-0.069924,49,275,577,5664
1644172555.091786,-0.010193,0.008484,-0.992798,0.159786,0.493435,-0.130992,55,279,580,5760
1644172555.137313,-0.012451,0.01001,-0.991943,0.281924,0.356031,-0.161527,54,273,577,5712
1644172555.185711,-0.011658,0.010376,-0.992065,0.404061,0.417099,-0.085191,54,280,575,5712
1644172555.234113,-0.011475,0.009521,-0.992676,0.190321,0.356031,-0.008855,52,285,577,5696
1644172555.282508,-0.008118,0.009766,-0.992493,0.205588,0.493435,0.006412,38,282,589,5760
1644172555.330884,-0.010315,0.011292,-0.994263,0.35826,0.493435,-0.085191,59,265,586,5664
1644172555.379273,-0.014343,0.006592,-0.991882,0.281924,0.508702,-0.130992,53,286,580,5664
1644172555.427667,-0.009155,0.007874,-0.990967,0.388794,0.371298,-0.024122,48,279,578,5760
1644172555.476035,-0.01178,0.007202,-0.993774,0.205588,0.447634,-0.085191,43,274,580,5696
1644172555.525025,-0.010437,0.007385,-0.993225,0.159786,0.432366,-0.207328,53,271,576,5664
1644172555.575344,-0.010864,0.008789,-0.990845,0.419328,0.386565,-0.207328,47,270,570,5664
1644172555.625827,-0.010925,0.007507,-0.991577,0.251389,0.356031,-0.008855,57,275,570,5696
1644172555.670356,-0.013245,0.009766,-0.993958,0.098718,0.432366,-0.039389,42,263,575,5664
1644172555.766377,-0.012939,0.006042,-0.991333,0.190321,0.401832,-0.008855,47,273,575,5696
1644172555.815176,-0.009766,0.006409,-0.993103,0.281924,0.508702,-0.100458,42,273,575,5712
1644172555.863215,-0.011047,0.008728,-0.993958,0.175053,0.386565,-0.100458,51,283,580,5696
1644172555.911602,-0.014587,0.008118,-0.994629,0.373527,0.417099,-0.008855,49,277,582,5728
1644172555.959977,-0.009705,0.008362,-0.994202,0.266656,0.340763,-0.14626,46,281,578,5760
1644172556.008376,-0.01355,0.006714,-0.990845,0.190321,0.432366,-0.176794,49,270,589,5696
1644172556.068431,-0.011414,0.007202,-0.992065,0.236122,0.371298,-0.024122,59,268,577,5648
1644172556.108915,-0.008545,0.007324,-0.988159,0.144519,0.432366,-0.115725,43,269,571,5696
1644172556.153504,-0.009338,0.012451,-0.991516,0.220855,0.356031,-0.024122,54,265,575,5728
1644172556.201916,-0.012207,0.008545,-0.993469,0.266656,0.417099,-0.130992,41,276,571,5760
1644172556.250303,-0.009888,0.010193,-0.991333,0.190321,0.356031,-0.008855,49,280,579,5808
1644172556.2987,-0.009216,0.009583,-0.991394,0.281924,0.447634,0.006412,48,269,576,5760
1644172556.347085,-0.009277,0.007568,-0.989075,0.266656,0.294962,-0.069924,57,275,575,5728
1644172556.395477,-0.01001,0.009033,-0.990417,0.388794,0.508702,-0.130992,53,271,585,5712
1644172556.443862,-0.01123,0.010986,-0.990967,0.190321,0.386565,-0.130992,40,275,582,5664
1644172556.492388,-0.011658,0.010254,-0.994385,0.35826,0.508702,-0.161527,48,276,576,5760
1644172556.54064,-0.010071,0.009827,-0.99231,0.220855,0.386565,-0.100458,53,281,585,5696
1644172556.589239,-0.008972,0.007507,-0.994263,0.266656,0.310229,-0.14626,58,271,578,5712
1644172556.638512,-0.009155,0.008423,-0.99115,0.175053,0.417099,-0.207328,49,268,572,5712
1644172556.688591,-0.010559,0.009033,-0.98999,0.297191,0.417099,-0.039389,48,271,576,5696
1644172556.738718,-0.011536,0.008606,-0.99231,0.236122,0.325496,-0.054656,57,282,572,5728
1644172556.783704,-0.012756,0.008972,-0.994263,0.129252,0.554504,-0.069924,47,273,572,5760
1644172556.879413,-0.006165,0.006836,-0.990967,0.220855,0.356031,0.052214,51,269,576,5664
1644172556.927808,-0.010986,0.01178,-0.990356,0.129252,0.310229,-0.222595,57,270,577,5728
1644172556.976191,-0.009033,0.009521,-0.994263,0.297191,0.508702,0.006412,45,265,577,5648
1644172557.02464,-0.010742,0.007996,-0.992981,0.297191,0.447634,-0.008855,64,277,584,5728
1644172557.073026,-0.01178,0.012024,-0.991516,0.236122,0.417099,0.036947,43,281,583,5712
1644172557.121382,-0.014404,0.008728,-0.992188,0.236122,0.356031,-0.008855,42,280,577,5648
1644172557.169739,-0.011902,0.006287,-0.992188,0.251389,0.371298,-0.130992,45,268,570,5696
1644172557.218118,-0.009277,0.007751,-0.990112,0.251389,0.386565,-0.192061,54,273,579,5696
1644172557.26649,-0.009583,0.010437,-0.991455,0.388794,0.462901,-0.207328,45,280,575,5696
1644172557.314929,-0.012573,0.010986,-0.992737,0.281924,0.371298,-0.008855,54,275,582,5712
1644172557.363296,-0.010803,0.009827,-0.990601,0.266656,0.325496,-0.14626,55,281,569,5664
1644172557.411693,-0.010437,0.009094,-0.992432,0.327725,0.401832,-0.039389,59,277,570,5696
1644172557.460074,-0.010925,0.007507,-0.993835,0.251389,0.417099,0.006412,53,274,578,5776
1644172557.508436,-0.012817,0.010742,-0.991272,0.175053,0.585038,-0.054656,38,273,565,5648
1644172557.556854,-0.012146,0.009155,-0.992126,0.297191,0.401832,-0.054656,62,269,580,5664
1644172557.605247,-0.010864,0.008301,-0.992371,0.434595,0.447634,-0.130992,46,286,578,5728
1644172557.65363,-0.010315,0.011353,-0.991455,0.251389,0.340763,-0.161527,47,268,584,5696
1644172557.702023,-0.012512,0.009094,-0.99353,0.220855,0.569771,-0.024122,51,276,583,5760
1644172557.750415,-0.010986,0.009216,-0.993103,0.251389,0.432366,-0.069924,39,274,583,5760
1644172557.8002,-0.009766,0.007324,-0.991211,0.266656,0.432366,-0.054656,48,271,585,5760
1644172557.850595,-0.007446,0.008667,-0.992615,0.236122,0.401832,0.006412,41,283,580,5712
1644172557.901092,-0.009949,0.009277,-0.994995,0.159786,0.432366,-0.237863,48,279,576,5648
1644172557.992461,-0.010559,0.013,-0.992432,0.297191,0.294962,-0.085191,45,273,579,5696
1644172558.040805,-0.011292,0.010803,-0.992004,0.404061,0.401832,-0.176794,45,270,572,5728
1644172558.089335,-0.011841,0.009705,-0.993286,0.266656,0.310229,-0.069924,60,269,583,5664
1644172558.137567,-0.00769,0.009094,-0.991577,0.327725,0.63084,-0.176794,48,274,576,5728
1644172558.185934,-0.008728,0.009827,-0.994934,0.281924,0.401832,-0.14626,47,270,577,5632
1644172558.23433,-0.006958,0.008118,-0.990417,0.46513,0.340763,-0.054656,54,270,577,5696
1644172558.282725,-0.011108,0.006836,-0.992188,0.281924,0.401832,-0.039389,54,280,575,5664
1644172558.331108,-0.012024,0.009094,-0.994812,0.129252,0.340763,-0.176794,46,276,583,5712
1644172558.379494,-0.009583,0.008911,-0.989868,0.236122,0.386565,0.036947,55,281,578,5728
1644172558.4279,-0.009888,0.010803,-0.994141,0.327725,0.356031,-0.14626,54,280,579,5728
1644172558.476268,-0.009888,0.009644,-0.994019,0.312458,0.371298,-0.25313,59,275,575,5728
1644172558.524719,-0.01239,0.01001,-0.994812,0.190321,0.508702,-0.237863,46,271,580,5728
1644172558.573068,-0.011108,0.00885,-0.994446,0.205588,0.172824,-0.085191,52,275,579,5664
1644172558.621455,-0.010254,0.009888,-0.992615,0.08345,0.554504,0.021679,48,281,569,5776
1644172558.669837,-0.011963,0.008484,-0.991028,0.098718,0.523969,-0.161527,47,270,577,5648
1644172558.718201,-0.012512,0.010681,-0.99054,0.220855,0.386565,-0.192061,51,271,573,5760
1644172558.766619,-0.010559,0.01001,-0.993347,0.236122,0.447634,-0.25313,52,268,577,5696
1644172558.815045,-0.01355,0.006287,-0.994568,0.220855,0.340763,-0.069924,52,268,575,5696
1644172558.863455,-0.010681,0.009644,-0.992249,0.144519,0.371298,-0.192061,48,266,576,5664
1644172558.913368,-0.008789,0.008118,-0.993774,0.037649,0.325496,-0.024122,47,275,579,5712
1644172558.963737,-0.010742,0.008789,-0.99292,0.35826,0.386565,-0.115725,48,274,573,5712
1644172559.069486,-0.008179,0.010315,-0.994629,0.220855,0.386565,-0.054656,48,276,578,5712
1644172559.108762,-0.011108,0.009827,-0.993958,0.220855,0.325496,-0.176794,54,280,577,5760
1644172559.153791,-0.012695,0.006042,-0.994324,0.281924,0.585038,0.021679,54,277,563,5696
1644172559.202214,-0.009338,0.009949,-0.993591,0.266656,0.462901,-0.069924,49,275,572,5696
1644172559.250519,-0.01001,0.008362,-0.991882,0.266656,0.340763,-0.008855,43,279,576,5728
1644172559.298905,-0.013794,0.01062,-0.990784,0.373527,0.294962,-0.14626,53,274,585,5696
1644172559.347295,-0.01178,0.011169,-0.993042,0.175053,0.218626,0.021679,39,276,571,5728
1644172559.395705,-0.010681,0.009521,-0.994507,0.113985,0.432366,-0.161527,57,275,577,5760
1644172559.444088,-0.00946,0.007446,-0.991394,0.251389,0.325496,-0.207328,55,271,583,5696
1644172559.492509,-0.010071,0.009338,-0.992432,0.297191,0.523969,-0.115725,46,271,580,5648
1644172559.540866,-0.014282,0.009338,-0.99353,0.281924,0.478168,0.006412,53,279,585,5664
1644172559.589268,-0.008179,0.010132,-0.99353,0.236122,0.478168,-0.054656,52,268,577,5696
1644172559.637664,-0.01001,0.007202,-0.994629,0.281924,0.310229,-0.25313,47,270,572,5696
1644172559.687607,-0.01001,0.010376,-0.991577,0.388794,0.340763,-0.207328,52,265,579,5728
1644172559.737924,-0.011292,0.00647,-0.992432,0.236122,0.478168,-0.069924,55,288,564,5664
1644172559.788623,-0.01123,0.006653,-0.99353,0.266656,0.539237,0.021679,58,271,576,5760
1644172559.879591,-0.012512,0.008118,-0.994263,0.281924,0.310229,-0.192061,51,269,576,5696
1644172559.928039,-0.009827,0.009644,-0.992065,0.297191,0.432366,-0.176794,49,273,572,5728
1644172559.976425,-0.010254,0.010864,-0.990662,0.159786,0.508702,-0.268397,40,275,582,5728
1644172560.024832,-0.008972,0.011292,-0.992554,0.190321,0.310229,-0.207328,42,280,579,5696
1644172560.073245,-0.010742,0.00769,-0.991455,0.388794,0.447634,-0.085191,53,271,590,5728
1644172560.121574,-0.010193,0.008667,-0.992371,0.236122,0.493435,-0.115725,52,270,579,5712
1644172560.169971,-0.008301,0.013672,-0.992676,0.113985,0.371298,0.067481,53,283,587,5760
1644172560.218326,-0.010315,0.008728,-0.990906,0.205588,0.371298,-0.069924,54,270,577,5760
1644172560.266724,-0.01062,0.007507,-0.992432,0.190321,0.417099,-0.115725,53,271,573,5712
1644172560.315223,-0.011353,0.010986,-0.993347,0.35826,0.371298,-0.008855,61,270,579,5728
1644172560.363501,-0.011414,0.008423,-0.991943,0.236122,0.462901,-0.115725,42,275,579,5696
1644172560.411888,-0.010742,0.008362,-0.990723,0.419328,0.218626,-0.161527,43,276,576,5712
1644172560.460295,-0.008728,0.009766,-0.988464,0.175053,0.447634,-0.115725,47,282,584,5712
1644172560.508672,-0.008972,0.009583,-0.992371,0.312458,0.432366,-0.039389,53,276,583,5728
1644172560.557078,-0.010132,0.00885,-0.991638,0.266656,0.401832,-0.039389,43,281,585,5696
1644172560.605472,-0.014221,0.010376,-0.990295,0.266656,0.447634,-0.069924,58,271,578,5728
1644172560.653861,-0.010254,0.007202,-0.993835,0.297191,0.585038,0.021679,58,279,583,5824
1644172560.702264,-0.011902,0.009705,-0.990845,0.342992,0.554504,-0.222595,39,274,590,5696
1644172560.750617,-0.009583,0.011414,-0.993835,0.144519,0.356031,-0.192061,58,266,576,5776
1644172560.800302,-0.008667,0.009705,-0.99292,0.281924,0.462901,-0.039389,42,273,582,5712
1644172560.85058,-0.011047,0.009277,-0.990784,0.159786,0.462901,-0.207328,54,273,575,5696
1644172560.900874,-0.012146,0.008301,-0.991333,0.373527,0.417099,-0.008855,47,273,577,5648
1644172560.945568,-0.012817,0.008728,-0.992615,0.312458,0.417099,-0.054656,43,286,580,5664
1644172561.041028,-0.00946,0.009521,-0.992371,0.312458,0.432366,-0.024122,54,280,575,5712
1644172561.089838,-0.009644,0.009766,-0.991272,0.312458,0.218626,-0.024122,57,275,584,5648
1644172561.137779,-0.011536,0.010071,-0.989502,0.205588,0.340763,0.006412,55,274,571,5696
1644172561.18615,-0.01416,0.00824,-0.989868,0.205588,0.447634,-0.207328,53,274,587,5648
1644172561.234544,-0.012695,0.008972,-0.993774,0.373527,0.401832,-0.008855,57,277,577,5760
1644172561.282909,-0.014465,0.008484,-0.993286,0.220855,0.325496,0.036947,58,269,573,5776
1644172561.331327,-0.01062,0.009705,-0.992371,0.098718,0.462901,-0.115725,43,259,576,5696
1644172561.37972,-0.007568,0.009644,-0.99176,0.129252,0.462901,-0.054656,53,264,583,5648
1644172561.428114,-0.011841,0.008972,-0.991272,0.205588,0.340763,-0.115725,66,277,582,5808
1644172561.476511,-0.01001,0.007629,-0.996033,0.373527,0.401832,0.036947,45,270,579,5696
1644172561.524919,-0.010864,0.008362,-0.992371,0.266656,0.447634,-0.069924,53,274,576,5728
1644172561.5733,-0.011963,0.006104,-0.992615,0.281924,0.371298,-0.207328,53,269,573,5712
1644172561.621643,-0.010925,0.008606,-0.993713,0.35826,0.371298,-0.207328,45,270,579,5664
1644172561.67007,-0.006348,0.006409,-0.994202,0.327725,0.447634,-0.085191,46,279,583,5728
1644172561.718465,-0.009644,0.007751,-0.993652,0.236122,0.554504,-0.192061,48,286,580,5712
1644172561.766891,-0.01062,0.008179,-0.994446,0.144519,0.417099,-0.14626,49,268,575,5664
1644172561.815276,-0.013,0.007141,-0.993469,0.266656,0.417099,-0.039389,48,274,585,5712
1644172561.863757,-0.010986,0.00769,-0.99231,0.129252,0.447634,-0.008855,58,266,573,5776
1644172561.912431,-0.01123,0.009094,-0.991089,0.281924,0.462901,-0.14626,46,271,583,5760
1644172561.962583,-0.008362,0.008545,-0.991699,0.342992,0.554504,-0.14626,54,265,570,5696
1644172562.061459,-0.011841,0.008118,-0.993347,0.113985,0.172824,0.052214,62,269,583,5696
1644172562.108268,-0.00885,0.007812,-0.995605,0.175053,0.356031,-0.069924,40,260,570,5664
1644172562.153984,-0.012451,0.010803,-0.990906,0.236122,0.310229,-0.069924,58,283,569,5712
1644172562.202369,-0.010254,0.010681,-0.99292,0.312458,0.401832,-0.024122,51,279,578,5728
1644172562.250721,-0.010193,0.00824,-0.98999,0.312458,0.447634,-0.085191,52,275,579,5760
1644172562.29914,-0.010803,0.011902,-0.993286,0.297191,0.294962,-0.024122,53,269,583,5776
1644172562.347541,-0.011536,0.010681,-0.99353,0.159786,0.386565,-0.314198,52,270,577,5664
1644172562.39593,-0.014343,0.009033,-0.993774,0.251389,0.508702,0.006412,54,275,577,5728
1644172562.444336,-0.012146,0.010986,-0.990112,0.373527,0.371298,-0.039389,54,273,577,5648
1644172562.492694,-0.011902,0.007385,-0.991577,0.08345,0.356031,-0.14626,51,274,569,5696
1644172562.541087,-0.013489,0.012207,-0.990784,0.373527,0.432366,-0.069924,45,273,570,5664
1644172562.589491,-0.013489,0.009277,-0.990417,0.251389,0.63084,-0.161527,47,268,579,5760
1644172562.637877,-0.012024,0.009277,-0.991577,0.236122,0.356031,-0.237863,47,280,584,5664
1644172562.686274,-0.009949,0.007019,-0.992004,0.373527,0.447634,-0.085191,51,274,580,5664
1644172562.734661,-0.009033,0.009216,-0.993835,0.190321,0.340763,-0.161527,45,270,577,5696
1644172562.783058,-0.01062,0.008484,-0.991943,0.388794,0.310229,-0.085191,42,270,582,5776
1644172562.832825,-0.011475,0.01001,-0.991699,0.098718,0.340763,-0.176794,49,275,568,5664
1644172562.883149,-0.012268,0.006897,-0.994934,0.037649,0.386565,-0.054656,42,270,577,5696
1644172562.933332,-0.008423,0.010803,-0.992432,0.35826,0.340763,-0.039389,58,274,573,5696
1644172562.977835,-0.010803,0.009705,-0.99469,0.190321,0.432366,0.021679,53,279,576,5664
1644172563.073513,-0.011169,0.006287,-0.991394,0.236122,0.508702,-0.14626,58,276,583,5696
1644172563.121831,-0.012146,0.00708,-0.992981,0.342992,0.417099,-0.14626,51,283,578,5648
1644172563.170171,-0.010437,0.006775,-0.991272,0.129252,0.386565,-0.14626,57,273,591,5648
1644172563.218548,-0.009888,0.008423,-0.992126,0.251389,0.371298,-0.085191,47,277,577,5664
1644172563.26695,-0.007629,0.009521,-0.992432,0.129252,0.386565,-0.054656,51,283,585,5808
1644172563.315345,-0.008667,0.011108,-0.993408,0.251389,0.508702,-0.115725,53,266,571,5648
1644172563.363745,-0.01062,0.009766,-0.989014,0.129252,0.432366,-0.130992,46,269,562,5696
1644172563.412179,-0.008179,0.01416,-0.993835,0.129252,0.371298,-0.039389,45,268,572,5728
1644172563.4605,-0.010986,0.011292,-0.99231,0.388794,0.294962,-0.085191,55,274,580,5696
1644172563.508911,-0.011292,0.013306,-0.991943,0.281924,0.585038,-0.054656,55,266,580,5712
1644172563.557292,-0.012085,0.00885,-0.993286,0.312458,0.447634,-0.069924,51,271,576,5712
1644172563.605694,-0.011414,0.010254,-0.991882,0.297191,0.401832,-0.069924,48,279,571,5712
1644172563.654111,-0.007751,0.010498,-0.992493,0.373527,0.371298,-0.176794,45,282,575,5664
1644172563.702481,-0.012024,0.008301,-0.992798,0.266656,0.233893,-0.115725,41,279,571,5760
1644172563.75088,-0.009705,0.008789,-0.992065,0.144519,0.493435,-0.14626,55,279,576,5728
1644172563.799253,-0.010193,0.008423,-0.993347,0.312458,0.401832,-0.130992,62,266,587,5632
1644172563.847685,-0.010071,0.008545,-0.990479,0.342992,0.417099,0.006412,61,277,570,5664
1644172563.896284,-0.008057,0.010498,-0.990906,0.175053,0.371298,-0.054656,43,279,569,5760
1644172563.944485,-0.009399,0.008484,-0.994324,0.388794,0.371298,-0.008855,59,268,575,5664
1644172563.994071,-0.010071,0.008301,-0.992432,0.205588,0.371298,-0.14626,49,280,572,5664
1644172564.057893,-0.011292,0.009521,-0.991333,0.251389,0.233893,-0.176794,48,276,583,5712
1644172564.103216,-0.012878,0.01001,-0.995239,0.266656,0.478168,-0.14626,54,275,579,5712
1644172564.139187,-0.009766,0.006592,-0.992004,0.129252,0.462901,-0.115725,53,271,583,5728
1644172564.234866,-0.012878,0.00708,-0.992859,0.281924,0.569771,-0.008855,46,269,573,5728
1644172564.28316,-0.012085,0.009033,-0.992004,0.236122,0.340763,-0.085191,65,271,573,5712
1644172564.331545,-0.012878,0.008118,-0.991882,0.175053,0.493435,0.006412,55,276,566,5664
1644172564.379946,-0.012024,0.009583,-0.994751,0.281924,0.447634,-0.085191,42,270,575,5648
1644172564.428323,-0.006714,0.01001,-0.988831,0.312458,0.371298,-0.237863,45,270,565,5696
1644172564.476731,-0.008789,0.010742,-0.989929,0.312458,0.294962,-0.024122,46,271,578,5712
1644172564.525143,-0.008972,0.008179,-0.991272,0.266656,0.401832,-0.130992,54,268,579,5696
1644172564.573509,-0.009399,0.008789,-0.995789,0.098718,0.371298,-0.054656,54,273,582,5664
1644172564.621909,-0.012085,0.006897,-0.99408,0.312458,0.417099,-0.115725,36,281,573,5760
1644172564.670292,-0.009888,0.007324,-0.994934,0.281924,0.401832,0.052214,51,271,571,5648
1644172564.718678,-0.011292,0.008972,-0.988159,0.297191,0.340763,-0.008855,41,276,573,5728
1644172564.767071,-0.011169,0.009583,-0.993103,0.312458,0.401832,0.067481,57,282,584,5712
1644172564.815464,-0.011597,0.00769,-0.993652,0.281924,0.325496,-0.100458,57,268,577,5728
1644172564.863906,-0.011047,0.008362,-0.99231,0.205588,0.340763,-0.176794,41,276,576,5664
1644172564.912294,-0.009033,0.007202,-0.991943,0.266656,0.493435,-0.207328,58,274,578,5776
1644172564.96068,-0.009521,0.009705,-0.991333,0.190321,0.356031,-0.069924,48,274,578,5696
1644172565.009065,-0.011353,0.011353,-0.993713,0.190321,0.478168,-0.115725,51,269,573,5696
1644172565.078031,-0.011902,0.008667,-0.990173,0.159786,0.447634,-0.192061,49,265,582,5696
1644172565.109169,-0.010742,0.007141,-0.992859,0.113985,0.325496,-0.069924,47,280,577,5664
1644172565.157055,-0.012207,0.008423,-0.99469,0.297191,0.24916,-0.069924,45,277,570,5712
1644172565.206118,-0.007812,0.009583,-0.990967,0.220855,0.371298,-0.161527,52,268,575,5712
1644172565.251005,-0.010376,0.008911,-0.993347,0.113985,0.356031,-0.207328,49,282,577,5696
1644172565.347738,-0.009888,0.007507,-0.993774,0.175053,0.401832,-0.130992,61,273,579,5648
1644172565.396127,-0.01062,0.008118,-0.990601,0.129252,0.386565,-0.161527,49,280,575,5696
1644172565.444518,-0.010986,0.005127,-0.99231,0.144519,0.539237,-0.008855,48,276,585,5712
1644172565.492945,-0.013733,0.006775,-0.993896,0.144519,0.401832,-0.039389,52,277,582,5696
1644172565.541315,-0.009277,0.010132,-0.995056,0.281924,0.371298,-0.192061,54,275,572,5696
1644172565.589715,-0.011047,0.009155,-0.99469,0.312458,0.279695,-0.054656,61,273,579,5664
1644172565.638098,-0.010803,0.007385,-0.993347,0.281924,0.340763,-0.024122,59,275,586,5664
1644172565.68649,-0.011902,0.009827,-0.991577,0.205588,0.539237,-0.100458,51,274,571,5728
1644172565.734928,-0.013611,0.00946,-0.992004,0.159786,0.493435,-0.161527,59,273,589,5776
1644172565.783291,-0.011536,0.010254,-0.993164,0.35826,0.386565,-0.054656,57,277,586,5712
1644172565.831662,-0.008789,0.007324,-0.99292,0.266656,0.325496,-0.14626,49,277,575,5600
1644172565.880114,-0.014771,0.009033,-0.994507,0.205588,0.417099,-0.100458,55,274,576,5696
1644172565.92849,-0.012817,0.012024,-0.990234,0.190321,0.356031,-0.008855,55,286,576,5712
1644172565.976889,-0.012756,0.008362,-0.990479,0.281924,0.432366,-0.25313,52,282,582,5760
1644172566.025335,-0.009766,0.009521,-0.991272,0.35826,0.264427,-0.024122,62,274,580,5696
1644172566.088701,-0.009949,0.009827,-0.993225,0.266656,0.478168,-0.085191,49,275,579,5712
1644172566.122044,-0.010803,0.010071,-0.992371,0.205588,0.371298,-0.115725,52,270,591,5712
1644172566.170658,-0.010071,0.007507,-0.994019,0.373527,0.279695,0.006412,46,274,576,5696
1644172566.218814,-0.009277,0.010681,-0.993591,0.190321,0.493435,0.021679,39,274,580,5648
1644172566.267562,-0.012329,0.009827,-0.993835,0.113985,0.356031,-0.085191,54,280,579,5664
1644172566.318158,-0.014038,0.007751,-0.991943,0.266656,0.447634,-0.100458,52,275,572,5712
1644172566.368118,-0.01001,0.010803,-0.990845,0.236122,0.539237,0.021679,43,271,573,5712
1644172566.413187,-0.010315,0.011414,-0.992432,0.159786,0.371298,-0.222595,47,282,584,5696
1644172566.50912,-0.009094,0.007874,-0.992615,0.205588,0.386565,-0.298931,58,271,566,5712
1644172566.557513,-0.008118,0.011108,-0.991394,0.281924,0.432366,-0.130992,52,268,582,5696
1644172566.605887,-0.012817,0.006897,-0.994446,0.159786,0.432366,-0.039389,51,271,573,5760
1644172566.654303,-0.009644,0.01062,-0.990417,0.144519,0.417099,-0.039389,55,288,580,5696
1644172566.702706,-0.012695,0.014343,-0.992615,0.251389,0.371298,-0.054656,49,277,584,5712
1644172566.751081,-0.010986,0.010254,-0.993896,0.220855,0.478168,-0.085191,48,264,580,5696
1644172566.799478,-0.009766,0.009338,-0.996338,0.251389,0.310229,0.067481,45,265,577,5664
1644172566.847875,-0.011292,0.007385,-0.991699,0.220855,0.356031,-0.222595,46,266,573,5648
1644172566.896316,-0.010681,0.009338,-0.991577,0.373527,0.478168,-0.115725,45,270,570,5712
1644172566.944741,-0.009888,0.01001,-0.994385,0.190321,0.386565,-0.25313,42,280,579,5696
1644172566.993094,-0.011292,0.009949,-0.990356,0.236122,0.447634,-0.14626,51,276,578,5664
1644172567.041449,-0.010559,0.012512,-0.992249,0.404061,0.432366,-0.069924,53,271,569,5728
1644172567.091363,-0.009583,0.007629,-0.99231,0.175053,0.539237,-0.115725,51,274,578,5760
1644172567.138223,-0.008484,0.011169,-0.991333,0.35826,0.432366,-0.100458,47,277,579,5712
1644172567.186611,-0.009155,0.008484,-0.994507,0.175053,0.569771,0.006412,48,271,587,5760
1644172567.23504,-0.010864,0.007874,-0.990784,0.098718,0.356031,-0.085191,57,277,584,5696
