epoch,acc_x,acc_y,acc_z,rot_x,rot_y,rot_z,mag_x,mag_y,mag_z,temp
1644169200.070288,-0.01062,0.004761,-0.994446,0.373527,0.508702,0.067481,60,271,578,5712
1644169200.118574,-0.010193,0.006653,-0.993164,0.205588,0.447634,0.052214,54,275,575,5664
1644169200.166921,-0.011169,0.006653,-0.992004,0.129252,0.493435,-0.085191,51,276,576,5664
1644169200.215336,-0.009399,0.009094,-0.993469,0.342992,0.356031,-0.085191,43,274,571,5664
1644169200.263736,-0.010681,0.00708,-0.993591,0.297191,0.417099,0.036947,52,275,568,5664
1644169200.312351,-0.007385,0.012451,-0.992615,0.175053,0.478168,-0.100458,52,275,579,5648
1644169200.360493,-0.009949,0.009094,-0.993835,0.342992,0.462901,-0.054656,38,287,572,5664
1644169200.408896,-0.012512,0.009705,-0.991699,0.327725,0.371298,-0.100458,59,282,586,5664
1644169200.457294,-0.009521,0.009827,-0.991821,0.098718,0.417099,-0.100458,49,265,577,5728
1644169200.505659,-0.011475,0.012512,-0.993286,0.373527,0.371298,-0.115725,57,273,570,5712
1644169200.554075,-0.007874,0.00946,-0.991943,0.129252,0.569771,-0.085191,55,266,573,5664
1644169200.602478,-0.010132,0.009705,-0.99292,0.388794,0.371298,-0.054656,49,273,575,5696
1644169200.650879,-0.008972,0.009888,-0.991943,0.266656,0.585038,-0.008855,48,283,580,5648
1644169200.69924,-0.010437,0.010559,-0.990295,0.342992,0.432366,-0.039389,51,274,576,5664
1644169200.747634,-0.009033,0.008789,-0.990112,0.251389,0.462901,-0.085191,57,273,572,5712
1644169200.796021,-0.007751,0.010315,-0.990967,0.159786,0.371298,-0.100458,52,280,570,5696
1644169200.844458,-0.009644,0.008667,-0.991577,0.190321,0.417099,-0.085191,51,274,576,5648
1644169200.893179,-0.013123,0.008606,-0.992004,0.373527,0.325496,0.067481,52,275,584,5664
1644169200.941493,-0.009155,0.009155,-0.993286,0.373527,0.340763,-0.176794,54,263,589,5696
1644169200.991259,-0.011475,0.01062,-0.991821,0.327725,0.356031,-0.14626,55,283,580,5664
1644169201.041701,-0.011353,0.009949,-0.990784,0.266656,0.310229,-0.14626,54,268,572,5664
1644169201.092583,-0.007812,0.011169,-0.990356,0.190321,0.462901,-0.008855,58,283,564,5664
1644169201.137007,-0.00885,0.01062,-0.991028,0.190321,0.462901,-0.054656,58,274,569,5648
1644169201.231545,-0.010193,0.008972,-0.990845,0.251389,0.462901,-0.054656,53,283,580,5664
1644169201.27991,-0.011475,0.011475,-0.99231,0.251389,0.417099,-0.069924,57,275,568,5664
1644169201.328314,-0.014404,0.010864,-0.993103,0.175053,0.462901,-0.176794,51,274,573,5584
1644169201.376689,-0.010193,0.009583,-0.992493,0.220855,0.386565,-0.039389,51,271,576,5664
1644169201.425128,-0.007935,0.008911,-0.99469,0.327725,0.310229,-0.115725,47,270,579,5712
1644169201.473494,-0.010803,0.009216,-0.991577,0.342992,0.539237,-0.069924,58,264,576,5584
1644169201.521888,-0.008606,0.009705,-0.991882,0.220855,0.401832,-0.176794,51,279,576,5696
1644169201.570274,-0.008972,0.009949,-0.990417,0.236122,0.371298,0.036947,46,269,578,5664
1644169201.618638,-0.009705,0.010193,-0.988342,0.144519,0.478168,-0.115725,45,277,570,5648
1644169201.667058,-0.011536,0.008911,-0.992737,0.251389,0.432366,-0.024122,45,277,572,5648
1644169201.715446,-0.008911,0.007568,-0.98999,0.144519,0.569771,-0.085191,55,281,569,5728
1644169201.763834,-0.014648,0.010559,-0.991699,0.052916,0.310229,0.021679,48,279,576,5664
1644169201.812241,-0.010376,0.007629,-0.991455,0.342992,0.386565,-0.008855,45,282,579,5664
1644169201.860659,-0.011047,0.006531,-0.991455,0.068183,0.310229,-0.100458,43,271,587,5664
1644169201.909048,-0.008179,0.011658,-0.991394,0.327725,0.478168,0.082748,54,275,575,5696
1644169201.957436,-0.012695,0.008789,-0.990295,0.266656,0.462901,-0.024122,57,280,575,5584
1644169202.005807,-0.01001,0.006348,-0.988647,0.205588,0.447634,-0.115725,46,274,578,5632
1644169202.069143,-0.008301,0.010681,-0.992493,0.205588,0.417099,-0.14626,51,276,576,5760
1644169202.106426,-0.013977,0.007996,-0.993896,0.175053,0.279695,-0.039389,58,286,578,5648
1644169202.152446,-0.010986,0.009949,-0.990417,0.281924,0.401832,0.036947,53,271,590,5648
1644169202.201833,-0.011475,0.011902,-0.994385,0.190321,0.569771,0.067481,51,264,576,5632
1644169202.252086,-0.012146,0.008667,-0.990784,0.342992,0.386565,-0.130992,58,279,578,5648
1644169202.297035,-0.010986,0.010925,-0.991699,0.388794,0.294962,-0.161527,38,263,572,5728
1644169202.392942,-0.008606,0.009644,-0.989075,0.098718,0.386565,-0.14626,61,270,568,5648
1644169202.441335,-0.01062,0.012268,-0.989929,0.175053,0.462901,-0.085191,49,273,572,5664
1644169202.489716,-0.010132,0.009521,-0.99115,0.327725,0.386565,0.021679,52,280,568,5648
1644169202.538088,-0.010498,0.008789,-0.99176,0.312458,0.478168,-0.161527,48,274,578,5648
1644169202.586471,-0.009399,0.00769,-0.992126,0.251389,0.294962,-0.039389,53,274,569,5728
1644169202.63488,-0.012756,0.011169,-0.991028,0.159786,0.478168,-0.192061,52,280,577,5712
1644169202.683253,-0.008667,0.007996,-0.994263,0.205588,0.325496,-0.161527,54,263,568,5648
1644169202.731653,-0.011902,0.008484,-0.988525,0.236122,0.371298,0.036947,51,276,578,5648
1644169202.780035,-0.013733,0.01062,-0.99353,0.175053,0.386565,-0.237863,54,273,579,5696
1644169202.828428,-0.011169,0.00885,-0.99231,0.297191,0.554504,-0.176794,52,285,575,5664
1644169202.876858,-0.012146,0.009033,-0.992859,0.281924,0.417099,-0.039389,55,266,578,5728
1644169202.925345,-0.010986,0.010376,-0.991089,0.098718,0.386565,-0.14626,48,271,573,5664
1644169202.973653,-0.012695,0.008545,-0.992188,0.434595,0.371298,-0.130992,58,279,571,5648
1644169203.022035,-0.010132,0.009094,-0.994019,0.327725,0.356031,-0.069924,53,269,583,5648
1644169203.092487,-0.008667,0.008789,-0.992188,0.220855,0.371298,-0.222595,49,280,579,5648
1644169203.120082,-0.011719,0.008911,-0.990967,0.342992,0.325496,0.067481,60,271,576,5632
1644169203.170959,-0.010803,0.009399,-0.99176,0.281924,0.401832,-0.100458,60,262,573,5648
1644169203.219738,-0.011719,0.009338,-0.992249,0.35826,0.554504,-0.039389,59,275,565,5664
1644169203.264722,-0.011108,0.008606,-0.993347,0.190321,0.417099,-0.039389,53,269,576,5648
1644169203.360712,-0.010376,0.00708,-0.994446,0.236122,0.569771,-0.176794,52,282,575,5712
1644169203.409107,-0.008484,0.009644,-0.992737,0.236122,0.523969,-0.008855,59,265,577,5696
1644169203.457501,-0.012268,0.010864,-0.991333,0.159786,0.279695,-0.100458,49,277,565,5664
1644169203.505864,-0.012634,0.007629,-0.990601,0.251389,0.462901,-0.024122,52,277,582,5712
1644169203.554308,-0.010681,0.006104,-0.990601,0.281924,0.447634,-0.161527,41,283,571,5712
1644169203.602697,-0.010315,0.007874,-0.991028,0.190321,0.386565,-0.039389,54,275,563,5728
1644169203.651072,-0.012146,0.009094,-0.992554,0.159786,0.386565,-0.024122,49,277,575,5584
1644169203.699459,-0.007141,0.008118,-0.993835,0.236122,0.356031,-0.192061,53,276,578,5648
1644169203.747822,-0.009094,0.009216,-0.993286,0.327725,0.279695,-0.192061,58,271,571,5648
1644169203.79624,-0.011047,0.009277,-0.992859,0.113985,0.508702,-0.069924,41,269,569,5664
1644169203.844713,-0.007324,0.012451,-0.98877,0.281924,0.325496,-0.192061,47,268,568,5664
1644169203.893085,-0.010193,0.007202,-0.992615,0.281924,0.462901,0.036947,62,281,559,5648
1644169203.941453,-0.011292,0.008484,-0.991821,0.388794,0.371298,-0.14626,54,275,577,5664
1644169203.989839,-0.012085,0.006042,-0.994263,0.175053,0.432366,0.067481,62,281,580,5712
1644169204.038233,-0.009399,0.008179,-0.990662,0.266656,0.310229,-0.085191,62,264,583,5664
1644169204.090821,-0.009827,0.00885,-0.993958,0.236122,0.356031,-0.100458,51,271,573,5664
1644169204.135178,-0.009399,0.010437,-0.993286,0.236122,0.417099,-0.222595,59,282,575,5648
1644169204.183408,-0.008667,0.007996,-0.994751,0.327725,0.356031,-0.024122,51,269,571,5696
1644169204.231808,-0.012207,0.005981,-0.990662,0.342992,0.508702,-0.222595,45,275,572,5648
1644169204.281387,-0.012207,0.007996,-0.990784,0.312458,0.386565,-0.008855,54,280,563,5664
1644169204.331616,-0.011719,0.013,-0.991333,0.052916,0.356031,-0.039389,49,280,582,5600
1644169204.381811,-0.009644,0.010254,-0.990845,0.281924,0.356031,-0.130992,57,275,582,5696
1644169204.426371,-0.010437,0.010803,-0.99408,0.236122,0.493435,-0.024122,49,280,568,5696
1644169204.522412,-0.01001,0.008911,-0.99231,0.159786,0.615573,-0.085191,51,264,573,5648
1644169204.570524,-0.009338,0.010559,-0.990479,0.236122,0.462901,0.006412,54,275,579,5648
1644169204.618923,-0.010132,0.009888,-0.991455,0.251389,0.417099,0.021679,57,273,582,5696
1644169204.667322,-0.007568,0.011841,-0.991455,0.266656,0.478168,-0.115725,47,273,570,5584
1644169204.715685,-0.00946,0.011047,-0.993347,0.297191,0.478168,-0.161527,46,269,583,5664
1644169204.764076,-0.009094,0.010071,-0.991821,0.35826,0.371298,-0.085191,55,276,573,5712
1644169204.812495,-0.007568,0.010132,-0.992432,0.159786,0.462901,-0.100458,46,274,576,5664
1644169204.860879,-0.008972,0.01001,-0.992676,0.113985,0.294962,-0.100458,48,274,571,5648
1644169204.909273,-0.01001,0.008484,-0.991089,0.297191,0.508702,-0.054656,48,269,564,5664
1644169204.957663,-0.010986,0.009583,-0.994751,0.373527,0.294962,-0.085191,46,276,564,5664
1644169205.006053,-0.009949,0.007507,-0.991638,0.175053,0.340763,-0.008855,48,269,576,5648
1644169205.064996,-0.013489,0.011658,-0.990051,0.388794,0.371298,-0.008855,55,274,573,5696
1644169205.10277,-0.010559,0.008972,-0.994202,0.220855,0.478168,-0.100458,40,275,579,5664
1644169205.151182,-0.009827,0.011353,-0.991516,0.08345,0.508702,-0.115725,49,263,563,5664
1644169205.199548,-0.010315,0.011047,-0.990479,0.35826,0.447634,-0.085191,58,274,576,5648
1644169205.24795,-0.009583,0.007996,-0.99176,0.159786,0.417099,-0.100458,48,274,580,5632
1644169205.29635,-0.011719,0.011719,-0.989014,0.175053,0.447634,-0.039389,47,282,579,5664
1644169205.344745,-0.011719,0.009521,-0.992371,0.388794,0.325496,-0.085191,52,275,582,5696
1644169205.393337,-0.008606,0.008911,-0.992249,0.35826,0.386565,-0.008855,51,274,569,5632
1644169205.442073,-0.007324,0.008606,-0.987549,0.159786,0.493435,-0.024122,40,265,579,5712
1644169205.493048,-0.007568,0.00946,-0.993347,0.266656,0.386565,-0.100458,51,271,576,5696
1644169205.54301,-0.007751,0.010254,-0.991699,0.190321,0.447634,-0.115725,58,269,571,5696
1644169205.587946,-0.009766,0.011963,-0.994141,0.266656,0.401832,-0.115725,53,271,583,5760
1644169205.683486,-0.012024,0.01239,-0.990173,0.205588,0.401832,0.006412,53,269,571,5632
1644169205.731848,-0.00885,0.01001,-0.992432,0.297191,0.432366,-0.130992,58,266,576,5664
1644169205.780249,-0.009338,0.010742,-0.990662,0.373527,0.340763,-0.069924,49,277,577,5696
1644169205.828679,-0.008545,0.009949,-0.993286,0.327725,0.462901,-0.039389,54,268,579,5696
1644169205.877077,-0.006042,0.007446,-0.990479,0.251389,0.432366,-0.222595,41,271,580,5648
1644169205.925457,-0.009949,0.01001,-0.990662,0.404061,0.371298,-0.161527,46,274,571,5696
1644169205.973866,-0.010498,0.008728,-0.991821,0.08345,0.478168,-0.115725,52,280,579,5696
1644169206.022364,-0.007996,0.010437,-0.991028,0.281924,0.462901,-0.054656,57,270,577,5648
1644169206.073467,-0.009338,0.009644,-0.990723,0.236122,0.356031,-0.069924,48,271,580,5664
1644169206.118962,-0.011169,0.010071,-0.992004,0.281924,0.417099,-0.176794,49,277,577,5632
1644169206.167383,-0.006348,0.012024,-0.98999,0.281924,0.447634,-0.207328,55,274,583,5664
1644169206.215767,-0.011108,0.011108,-0.99231,0.297191,0.401832,0.082748,45,280,572,5696
1644169206.264141,-0.011658,0.010376,-0.991089,0.220855,0.401832,-0.024122,52,277,582,5696
1644169206.312545,-0.013428,0.008972,-0.990356,0.113985,0.478168,-0.130992,55,276,578,5648
1644169206.360924,-0.012268,0.009766,-0.987854,0.419328,0.294962,-0.176794,49,268,572,5696
1644169206.409375,-0.012146,0.008179,-0.993286,0.35826,0.417099,-0.222595,48,286,578,5600
1644169206.457713,-0.008728,0.009338,-0.994812,0.190321,0.417099,-0.115725,49,280,572,5696
1644169206.506116,-0.010071,0.01001,-0.989319,0.175053,0.432366,0.12855,57,277,586,5664
1644169206.555346,-0.010071,0.007935,-0.991089,0.190321,0.386565,-0.115725,53,274,580,5664
1644169206.60568,-0.007812,0.007019,-0.992554,0.129252,0.539237,-0.237863,46,274,583,5664
1644169206.655851,-0.01062,0.006409,-0.990356,0.113985,0.386565,-0.314198,65,271,580,5600
1644169206.700788,-0.009277,0.010864,-0.989868,0.205588,0.356031,-0.100458,51,279,578,5664
1644169206.796442,-0.011841,0.011658,-0.990479,0.190321,0.356031,-0.085191,52,277,577,5648
1644169206.844887,-0.009644,0.007141,-0.991089,0.159786,0.462901,-0.130992,45,280,577,5648
1644169206.893287,-0.006836,0.010132,-0.992004,0.312458,0.432366,-0.085191,51,274,580,5696
1644169206.941658,-0.008545,0.008789,-0.993042,0.266656,0.63084,0.006412,49,275,575,5648
1644169206.990056,-0.011902,0.012573,-0.989807,0.113985,0.432366,0.006412,58,271,576,5696
1644169207.038442,-0.012634,0.00769,-0.988281,0.220855,0.432366,-0.008855,57,275,577,5712
1644169207.08755,-0.011475,0.007629,-0.995178,0.236122,0.478168,-0.14626,52,275,586,5648
1644169207.135279,-0.008789,0.012085,-0.992004,0.281924,0.432366,-0.115725,52,275,579,5664
1644169207.183574,-0.009521,0.010071,-0.994141,0.236122,0.462901,-0.161527,49,263,584,5648
1644169207.231963,-0.012268,0.009155,-0.992004,0.342992,0.356031,-0.161527,55,279,573,5696
1644169207.280343,-0.010254,0.008057,-0.993469,0.297191,0.554504,-0.314198,53,274,578,5648
1644169207.328758,-0.009033,0.013977,-0.991333,0.236122,0.462901,-0.115725,45,270,579,5648
1644169207.377149,-0.010437,0.011658,-0.991577,0.190321,0.417099,-0.268397,67,266,576,5648
1644169207.425536,-0.011353,0.007874,-0.992004,0.297191,0.432366,0.006412,45,277,568,5632
1644169207.473924,-0.008545,0.00946,-0.991211,0.068183,0.371298,-0.298931,52,277,570,5584
1644169207.523195,-0.009949,0.013672,-0.992065,0.068183,0.417099,-0.054656,47,275,582,5696
1644169207.570724,-0.011475,0.010498,-0.991882,0.129252,0.417099,-0.14626,51,274,571,5696
1644169207.619622,-0.009644,0.008911,-0.990967,0.236122,0.554504,-0.14626,57,265,570,5664
1644169207.669921,-0.010559,0.011658,-0.991943,0.251389,0.478168,-0.008855,51,271,580,5760
1644169207.720121,-0.011353,0.009155,-0.991455,0.190321,0.371298,-0.024122,39,266,578,5648
1644169207.765365,-0.009399,0.007263,-0.989807,0.281924,0.478168,-0.176794,52,273,586,5648
1644169207.861072,-0.009033,0.005615,-0.994263,0.159786,0.417099,-0.176794,52,273,577,5584
1644169207.909472,-0.011292,0.01123,-0.991394,0.251389,0.478168,-0.192061,42,273,568,5664
1644169207.957866,-0.008301,0.007263,-0.992981,0.190321,0.401832,-0.054656,51,274,576,5696
1644169208.00624,-0.01123,0.011414,-0.993164,0.098718,0.310229,-0.192061,53,279,569,5712
1644169208.064893,-0.007568,0.009399,-0.990723,0.220855,0.493435,-0.054656,53,271,580,5664
1644169208.104002,-0.010925,0.009766,-0.991211,0.266656,0.294962,0.006412,59,280,577,5664
1644169208.151383,-0.010132,0.012573,-0.992126,0.129252,0.325496,-0.130992,52,275,575,5648
1644169208.19979,-0.010864,0.011475,-0.99292,0.266656,0.401832,-0.207328,53,279,571,5664
1644169208.248149,-0.010803,0.010925,-0.990234,0.35826,0.462901,0.006412,55,274,576,5648
1644169208.296557,-0.005249,0.011719,-0.993347,0.144519,0.447634,-0.039389,52,275,579,5712
1644169208.344946,-0.008423,0.009033,-0.992004,0.236122,0.508702,-0.054656,46,274,571,5648
1644169208.393398,-0.011047,0.009827,-0.991211,0.342992,0.478168,-0.054656,36,266,583,5760
1644169208.44174,-0.010681,0.010071,-0.993713,0.327725,0.462901,-0.039389,48,274,573,5648
1644169208.490154,-0.013855,0.010681,-0.992981,0.373527,0.340763,-0.130992,45,287,575,5664
1644169208.538516,-0.013855,0.007568,-0.991577,0.190321,0.401832,-0.115725,55,274,585,5664
1644169208.586903,-0.010193,0.00885,-0.991089,0.281924,0.386565,-0.069924,58,271,587,5648
1644169208.635382,-0.009033,0.009583,-0.989197,0.175053,0.417099,-0.054656,55,276,585,5664
1644169208.683992,-0.009949,0.010071,-0.994812,0.297191,0.386565,-0.069924,48,279,569,5648
1644169208.732699,-0.010193,0.00885,-0.992249,0.35826,0.493435,-0.085191,47,275,575,5712
1644169208.78326,-0.010681,0.009583,-0.993042,0.113985,0.401832,-0.192061,53,271,583,5648
1644169208.829156,-0.009644,0.011719,-0.991699,0.159786,0.615573,-0.085191,52,268,579,5648
1644169208.879096,-0.010498,0.010376,-0.992249,0.342992,0.371298,-0.054656,52,270,570,5632
1644169208.974054,-0.009521,0.01062,-0.992065,0.281924,0.493435,-0.039389,48,274,583,5664
1644169209.022466,-0.009216,0.010559,-0.992004,0.327725,0.401832,-0.14626,48,283,571,5648
1644169209.070909,-0.010071,0.010071,-0.99292,0.190321,0.523969,-0.024122,57,258,584,5648
1644169209.11924,-0.00824,0.011169,-0.989868,0.266656,0.539237,0.12855,57,268,577,5664
1644169209.167577,-0.01001,0.009277,-0.990906,0.220855,0.294962,-0.161527,59,270,579,5600
1644169209.21597,-0.012817,0.009583,-0.991089,0.404061,0.478168,-0.085191,51,266,578,5664
1644169209.264379,-0.011719,0.012878,-0.991089,0.434595,0.340763,-0.008855,43,266,576,5696
1644169209.312755,-0.007812,0.006775,-0.990295,0.220855,0.432366,-0.115725,41,269,578,5696
1644169209.361159,-0.011719,0.009766,-0.99176,0.236122,0.447634,-0.192061,47,277,579,5664
1644169209.409543,-0.006714,0.00946,-0.991638,0.297191,0.401832,-0.054656,52,270,577,5696
1644169209.457938,-0.012024,0.008423,-0.992188,0.251389,0.585038,-0.008855,49,275,563,5664
1644169209.506332,-0.010254,0.010132,-0.993225,0.159786,0.401832,-0.222595,43,283,580,5696
1644169209.554729,-0.008423,0.007202,-0.990845,0.312458,0.401832,-0.024122,53,283,571,5696
1644169209.603085,-0.006653,0.01001,-0.994507,0.129252,0.401832,-0.115725,52,268,577,5632
1644169209.651494,-0.011292,0.008606,-0.992798,0.266656,0.462901,-0.207328,45,270,577,5632
1644169209.699864,-0.008789,0.007385,-0.990723,0.251389,0.233893,-0.130992,43,276,573,5696
1644169209.74826,-0.00647,0.008728,-0.991211,0.373527,0.279695,-0.024122,51,276,583,5696
1644169209.796669,-0.012451,0.006958,-0.989868,0.312458,0.417099,-0.069924,45,275,575,5696
1644169209.845387,-0.011902,0.008911,-0.990967,0.220855,0.279695,-0.100458,55,266,573,5712
1644169209.894519,-0.010742,0.009277,-0.993591,0.129252,0.386565,0.006412,53,271,583,5696
1644169209.944894,-0.009583,0.008972,-0.989441,0.175053,0.325496,-0.100458,49,273,579,5696
1644169209.995452,-0.00769,0.008423,-0.990723,0.08345,0.401832,0.006412,57,275,579,5632
1644169210.039829,-0.008911,0.008484,-0.991028,0.205588,0.523969,-0.039389,47,270,586,5648
1644169210.135427,-0.01001,0.008789,-0.995178,0.175053,0.447634,-0.283664,52,275,577,5696
1644169210.183805,-0.011169,0.011108,-0.99054,0.388794,0.508702,-0.024122,49,268,572,5664
1644169210.232391,-0.009155,0.010559,-0.993835,0.281924,0.279695,0.021679,48,276,576,5664
1644169210.280553,-0.009277,0.01062,-0.991882,0.281924,0.310229,-0.054656,54,280,577,5664
1644169210.328952,-0.009705,0.007996,-0.993347,0.251389,0.539237,-0.100458,49,270,572,5664
1644169210.377375,-0.010925,0.008484,-0.992432,0.220855,0.447634,-0.100458,49,273,586,5696
1644169210.425762,-0.008972,0.007751,-0.991333,0.251389,0.279695,-0.14626,46,259,576,5760
1644169210.474139,-0.009827,0.00885,-0.991211,0.297191,0.462901,-0.130992,54,265,579,5648
1644169210.522554,-0.012939,0.007812,-0.993164,0.098718,0.279695,-0.176794,52,277,579,5664
1644169210.570914,-0.010742,0.009644,-0.992493,0.175053,0.310229,-0.161527,53,264,573,5648
1644169210.619307,-0.012573,0.011169,-0.991699,0.251389,0.386565,0.021679,52,275,577,5728
1644169210.667708,-0.007935,0.010986,-0.993347,0.144519,0.294962,-0.176794,46,279,569,5600
1644169210.716087,-0.007874,0.008545,-0.98822,0.251389,0.417099,-0.14626,46,276,573,5648
1644169210.764476,-0.010986,0.007202,-0.99469,0.236122,0.508702,-0.115725,49,270,572,5696
1644169210.812867,-0.011169,0.010071,-0.993225,0.266656,0.371298,-0.085191,46,274,578,5664
1644169210.861303,-0.012268,0.00885,-0.991577,0.175053,0.310229,-0.115725,49,268,582,5648
1644169210.909694,-0.009033,0.012085,-0.991638,0.205588,0.081221,-0.039389,58,271,585,5600
1644169210.958079,-0.008972,0.008728,-0.992065,0.251389,0.386565,-0.085191,47,265,572,5696
1644169211.06174,-0.009155,0.008728,-0.990173,0.144519,0.478168,0.036947,52,275,572,5664
1644169211.103258,-0.01123,0.010803,-0.990723,0.312458,0.371298,-0.085191,52,275,582,5648
1644169211.151619,-0.012207,0.009521,-0.992676,0.281924,0.340763,-0.115725,52,280,568,5584
1644169211.200007,-0.010498,0.009583,-0.992981,0.297191,0.294962,-0.207328,46,266,569,5648
1644169211.248362,-0.010925,0.010254,-0.992859,0.236122,0.401832,-0.130992,51,264,571,5648
1644169211.296787,-0.008301,0.009277,-0.994019,0.144519,0.417099,-0.085191,46,274,580,5664
1644169211.345259,-0.010864,0.010132,-0.989197,0.373527,0.508702,-0.054656,57,275,570,5648
1644169211.393584,-0.007996,0.010254,-0.990356,0.388794,0.325496,-0.115725,43,274,578,5696
1644169211.441952,-0.011902,0.008179,-0.993164,0.434595,0.294962,-0.054656,45,273,572,5648
1644169211.490332,-0.00946,0.008484,-0.993652,0.190321,0.386565,-0.14626,53,274,578,5600
1644169211.538734,-0.010498,0.009766,-0.99054,0.312458,0.401832,0.021679,43,274,573,5696
1644169211.587116,-0.011353,0.009155,-0.993103,0.342992,0.386565,-0.161527,47,280,577,5664
1644169211.635507,-0.00824,0.011108,-0.992981,0.297191,0.447634,-0.176794,46,279,583,5664
1644169211.683898,-0.008667,0.009521,-0.994324,0.327725,0.401832,-0.085191,53,274,580,5728
1644169211.732556,-0.011963,0.010193,-0.989868,0.266656,0.447634,-0.069924,48,274,573,5696
1644169211.780704,-0.010437,0.007446,-0.991882,0.388794,0.63084,-0.100458,46,274,578,5648
1644169211.830227,-0.012024,0.010498,-0.99176,0.236122,0.386565,-0.25313,53,266,578,5664
1644169211.881646,-0.010193,0.008972,-0.990234,0.236122,0.478168,-0.130992,47,277,584,5648
1644169211.931735,-0.011047,0.008972,-0.992188,0.312458,0.401832,-0.039389,49,273,577,5648
1644169212.022736,-0.009583,0.008667,-0.993042,0.190321,0.569771,-0.039389,46,271,571,5664
1644169212.071112,-0.008301,0.009399,-0.988708,0.236122,0.462901,-0.085191,46,269,576,5696
1644169212.119397,-0.008057,0.012024,-0.991821,0.236122,0.356031,0.067481,55,269,583,5648
1644169212.167793,-0.00885,0.010193,-0.993408,0.190321,0.340763,-0.039389,54,275,572,5632
1644169212.216196,-0.010925,0.010681,-0.991089,0.190321,0.371298,-0.069924,49,273,579,5648
1644169212.26463,-0.009827,0.008789,-0.99115,0.098718,0.401832,-0.207328,49,265,575,5664
1644169212.312969,-0.011047,0.008667,-0.991943,0.266656,0.554504,-0.100458,58,266,583,5696
1644169212.361374,-0.006775,0.009705,-0.992371,0.297191,0.401832,-0.115725,54,273,579,5648
1644169212.409765,-0.011292,0.009338,-0.991943,0.388794,0.508702,-0.100458,51,276,578,5696
1644169212.458159,-0.009949,0.009094,-0.99231,0.388794,0.401832,-0.069924,52,273,584,5600
1644169212.506545,-0.013489,0.009033,-0.99176,0.281924,0.417099,-0.237863,53,276,576,5696
1644169212.554937,-0.010986,0.009338,-0.993774,0.205588,0.417099,-0.115725,61,260,579,5664
1644169212.603341,-0.009338,0.008423,-0.991211,0.08345,0.386565,-0.14626,45,277,579,5712
1644169212.651712,-0.009216,0.008667,-0.991821,0.297191,0.478168,-0.161527,49,270,582,5648
1644169212.700109,-0.010376,0.007874,-0.992615,0.342992,0.508702,-0.054656,54,273,589,5696
1644169212.748461,-0.00946,0.008972,-0.991516,0.144519,0.279695,-0.222595,53,276,580,5648
1644169212.796889,-0.010864,0.007507,-0.991699,0.159786,0.325496,-0.085191,47,260,577,5648
1644169212.845301,-0.009888,0.00885,-0.993225,0.205588,0.417099,-0.100458,51,279,573,5584
1644169212.893723,-0.010559,0.007751,-0.992859,0.35826,0.569771,-0.100458,52,273,591,5712
1644169212.943623,-0.012878,0.006897,-0.992676,0.312458,0.371298,-0.130992,49,277,579,5664
1644169212.993754,-0.009094,0.007324,-0.991333,0.190321,0.264427,-0.161527,58,274,583,5632
1644169213.057092,-0.011169,0.008789,-0.991699,0.281924,0.417099,-0.161527,51,271,578,5696
1644169213.094507,-0.012024,0.008911,-0.991455,0.159786,0.523969,-0.100458,47,265,582,5696
1644169213.184014,-0.011841,0.010559,-0.992859,0.312458,0.340763,-0.100458,48,262,573,5664
1644169213.232402,-0.010986,0.009033,-0.988953,0.266656,0.417099,-0.130992,49,265,582,5696
1644169213.280767,-0.009094,0.007629,-0.992371,0.129252,0.447634,-0.268397,41,276,578,5696
1644169213.329193,-0.011902,0.009399,-0.991089,0.297191,0.554504,-0.130992,51,279,578,5648
1644169213.377534,-0.013611,0.009094,-0.992676,0.327725,0.417099,-0.100458,52,273,575,5712
1644169213.425965,-0.01178,0.008484,-0.990295,0.129252,0.478168,-0.222595,46,271,569,5728
1644169213.474359,-0.009766,0.007568,-0.993774,0.266656,0.371298,-0.130992,54,268,584,5600
1644169213.522762,-0.011047,0.008423,-0.993958,0.281924,0.447634,-0.161527,40,275,577,5696
1644169213.571134,-0.009644,0.009888,-0.991699,0.266656,0.371298,-0.085191,47,273,577,5600
1644169213.619525,-0.011963,0.008728,-0.991455,0.281924,0.539237,-0.085191,53,269,576,5696
1644169213.667938,-0.012268,0.01001,-0.991516,0.220855,0.325496,0.006412,39,279,578,5696
1644169213.71631,-0.010925,0.008606,-0.993591,0.129252,0.554504,-0.039389,48,281,578,5696
1644169213.764708,-0.00946,0.00708,-0.990967,0.312458,0.432366,-0.054656,49,280,575,5648
1644169213.813173,-0.013672,0.01001,-0.992676,0.220855,0.401832,-0.100458,52,275,577,5728
1644169213.861487,-0.010681,0.008789,-0.994324,0.144519,0.417099,-0.085191,57,273,575,5648
1644169213.90992,-0.011169,0.008728,-0.989075,0.190321,0.371298,-0.008855,46,279,576,5664
1644169213.958309,-0.012146,0.00708,-0.990295,0.297191,0.600305,-0.207328,55,276,576,5648
1644169214.063177,-0.012268,0.012024,-0.990234,0.236122,0.462901,-0.024122,53,279,578,5664
1644169214.10342,-0.012451,0.009949,-0.98999,0.175053,0.447634,-0.100458,43,279,571,5600
1644169214.151809,-0.010193,0.009094,-0.99231,0.236122,0.432366,-0.085191,49,270,575,5696
1644169214.200214,-0.009583,0.010132,-0.989075,0.175053,0.462901,-0.176794,54,275,577,5696
1644169214.248577,-0.00946,0.007629,-0.990784,0.251389,0.386565,-0.024122,49,273,563,5664
1644169214.297002,-0.010315,0.009033,-0.993042,0.129252,0.371298,-0.100458,52,265,575,5664
1644169214.345393,-0.010803,0.011963,-0.992432,0.190321,0.386565,0.006412,60,274,569,5664
1644169214.393787,-0.009583,0.009155,-0.990967,0.251389,0.294962,-0.069924,51,271,573,5648
1644169214.442236,-0.009155,0.009644,-0.991821,0.266656,0.478168,-0.115725,54,275,577,5584
1644169214.490564,-0.012939,0.011536,-0.993652,0.251389,0.462901,-0.176794,42,280,582,5664
1644169214.538939,-0.010681,0.007874,-0.992249,0.236122,0.417099,-0.115725,54,265,584,5696
1644169214.58733,-0.012146,0.008423,-0.990906,0.175053,0.432366,-0.161527,54,277,577,5696
1644169214.635698,-0.012817,0.009949,-0.991943,0.220855,0.340763,-0.207328,53,279,569,5696
1644169214.684122,-0.009827,0.007385,-0.992493,0.159786,0.325496,-0.008855,48,276,580,5696
1644169214.732519,-0.012451,0.00885,-0.993469,0.342992,0.371298,-0.237863,48,279,578,5664
1644169214.780943,-0.007629,0.007324,-0.989014,0.190321,0.417099,-0.024122,47,275,575,5648
1644169214.832701,-0.009338,0.009583,-0.990723,0.251389,0.356031,-0.085191,58,276,573,5696
1644169214.882881,-0.009827,0.010132,-0.992981,0.373527,0.462901,0.006412,51,276,580,5648
1644169214.927577,-0.011475,0.007507,-0.993164,0.205588,0.417099,-0.039389,48,281,580,5600
1644169215.022904,-0.011047,0.007324,-0.991699,0.236122,0.432366,-0.222595,51,276,564,5696
1644169215.071374,-0.01062,0.009705,-0.989929,0.205588,0.294962,0.052214,55,271,576,5600
1644169215.119627,-0.010132,0.011597,-0.992188,0.159786,0.447634,-0.130992,41,281,569,5648
1644169215.168016,-0.011353,0.007629,-0.993103,0.297191,0.447634,-0.130992,62,274,580,5664
1644169215.216401,-0.011719,0.008545,-0.990784,0.312458,0.539237,0.021679,57,273,570,5648
1644169215.264794,-0.007996,0.008362,-0.99353,0.373527,0.386565,0.067481,49,265,575,5712
1644169215.313188,-0.011658,0.008179,-0.994568,0.159786,0.310229,-0.054656,43,266,573,5648
1644169215.361587,-0.009094,0.008728,-0.989136,0.266656,0.493435,-0.161527,43,276,573,5728
1644169215.409978,-0.010742,0.008179,-0.99054,0.251389,0.432366,-0.161527,51,276,576,5664
1644169215.458357,-0.011902,0.010315,-0.990784,0.35826,0.417099,-0.14626,49,275,577,5696
1644169215.506758,-0.012207,0.010559,-0.992188,0.129252,0.432366,0.021679,47,280,586,5664
1644169215.555236,-0.011719,0.007629,-0.990845,-0.008153,0.356031,-0.130992,47,285,577,5648
1644169215.603554,-0.01355,0.00946,-0.98877,0.129252,0.386565,-0.25313,55,276,587,5728
1644169215.651933,-0.011475,0.010193,-0.99292,0.327725,0.478168,-0.054656,53,271,583,5712
1644169215.700314,-0.008789,0.009033,-0.993103,0.220855,0.14229,-0.161527,55,279,571,5648
1644169215.748707,-0.010498,0.009949,-0.99408,0.251389,0.462901,-0.130992,55,271,576,5648
1644169215.797097,-0.010803,0.008545,-0.995178,0.251389,0.417099,0.036947,47,275,568,5600
1644169215.845792,-0.012207,0.009766,-0.992981,0.129252,0.386565,0.067481,49,273,577,5584
1644169215.89395,-0.009033,0.008972,-0.991943,0.266656,0.356031,-0.115725,45,280,572,5664
1644169215.944106,-0.009583,0.010986,-0.993713,0.113985,0.386565,-0.115725,49,273,577,5664
1644169215.99412,-0.010742,0.006042,-0.990845,0.190321,0.325496,-0.008855,45,270,572,5648
1644169216.055799,-0.009155,0.009155,-0.99115,0.449863,0.508702,-0.008855,46,283,571,5712
1644169216.094648,-0.013062,0.009521,-0.99231,0.129252,0.478168,-0.054656,53,274,573,5648
1644169216.184234,-0.008789,0.009644,-0.995728,0.129252,0.493435,-0.024122,55,271,571,5664
1644169216.232639,-0.010437,0.007996,-0.99292,0.175053,0.386565,-0.130992,45,282,568,5664
1644169216.28099,-0.010742,0.008911,-0.992188,0.281924,0.585038,-0.115725,49,275,568,5696
1644169216.329379,-0.011597,0.011597,-0.993652,0.175053,0.356031,-0.069924,51,269,569,5664
1644169216.377779,-0.009827,0.009033,-0.993896,0.175053,0.447634,-0.100458,43,274,580,5760
1644169216.426171,-0.011108,0.006348,-0.98938,0.312458,0.462901,-0.115725,47,277,570,5712
1644169216.474601,-0.009644,0.010071,-0.990967,0.236122,0.539237,-0.054656,51,271,566,5648
1644169216.522952,-0.009705,0.009888,-0.990295,0.35826,0.386565,-0.192061,47,273,575,5664
1644169216.571348,-0.011902,0.010071,-0.99231,0.35826,0.417099,-0.161527,52,275,577,5696
1644169216.619732,-0.010498,0.011047,-0.992615,0.144519,0.356031,-0.085191,47,282,572,5728
1644169216.668146,-0.007751,0.008972,-0.993652,0.266656,0.432366,-0.008855,49,273,582,5648
1644169216.716523,-0.014954,0.010254,-0.993774,0.327725,0.401832,-0.161527,48,271,587,5584
1644169216.764911,-0.010986,0.007935,-0.993896,0.327725,0.447634,-0.054656,55,283,569,5648
1644169216.813318,-0.012573,0.01001,-0.994812,0.113985,0.401832,0.006412,45,265,584,5728
1644169216.86174,-0.009644,0.011841,-0.991272,0.342992,0.325496,0.052214,42,277,579,5664
1644169216.910127,-0.008789,0.007996,-0.992065,0.190321,0.356031,-0.085191,51,271,578,5664
1644169216.958504,-0.011475,0.007263,-0.992371,0.266656,0.417099,-0.008855,39,269,587,5728
1644169217.006896,-0.010071,0.010864,-0.990295,0.175053,0.340763,-0.161527,55,279,569,5648
1644169217.076379,-0.009949,0.010193,-0.991821,0.327725,0.294962,-0.085191,58,274,576,5712
1644169217.112563,-0.009644,0.012085,-0.991577,0.220855,0.340763,-0.039389,62,262,573,5648
1644169217.157391,-0.008728,0.007812,-0.990967,0.281924,0.508702,-0.008855,40,270,582,5648
1644169217.205735,-0.008484,0.008972,-0.989197,0.281924,0.417099,0.052214,46,274,576,5648
1644169217.2972,-0.012085,0.00946,-0.992188,0.220855,0.417099,-0.176794,43,276,571,5664
1644169217.345586,-0.009277,0.007812,-0.98938,0.175053,0.386565,-0.176794,47,280,586,5584
1644169217.393977,-0.009277,0.009521,-0.990295,0.08345,0.447634,-0.069924,51,288,578,5648
1644169217.442397,-0.01123,0.008667,-0.992798,0.236122,0.203359,-0.039389,47,280,572,5664
1644169217.490774,-0.011597,0.009705,-0.99231,0.098718,0.493435,-0.039389,45,273,572,5696
1644169217.539171,-0.011108,0.00531,-0.994141,0.190321,0.356031,-0.14626,52,273,570,5696
1644169217.587538,-0.010742,0.010986,-0.990906,0.297191,0.432366,-0.039389,48,274,571,5712
1644169217.635938,-0.008728,0.009216,-0.993042,0.190321,0.462901,-0.176794,47,275,575,5712
1644169217.684347,-0.011414,0.008118,-0.995789,0.220855,0.539237,-0.039389,49,268,577,5728
1644169217.732739,-0.012085,0.00885,-0.991516,0.251389,0.508702,0.036947,52,277,572,5632
1644169217.781092,-0.010986,0.009827,-0.991211,0.205588,0.523969,-0.069924,39,279,571,5664
1644169217.829496,-0.010498,0.011536,-0.991394,0.175053,0.24916,-0.237863,52,285,572,5648
1644169217.877925,-0.010498,0.008728,-0.99176,0.159786,0.462901,-0.100458,54,282,565,5712
1644169217.926324,-0.009094,0.01062,-0.992615,0.205588,0.24916,-0.100458,49,265,586,5712
1644169217.974725,-0.007751,0.008423,-0.990662,0.373527,0.386565,-0.069924,62,274,571,5664
1644169218.023138,-0.01123,0.010559,-0.99176,0.388794,0.401832,-0.207328,49,275,577,5648
1644169218.089505,-0.011658,0.010376,-0.992126,0.35826,0.447634,-0.25313,47,277,575,5648
1644169218.119893,-0.012817,0.00708,-0.991882,0.266656,0.493435,-0.069924,47,277,582,5664
1644169218.170185,-0.009888,0.009277,-0.989624,0.205588,0.310229,-0.161527,55,269,566,5664
1644169218.219559,-0.010986,0.010681,-0.993347,0.220855,0.386565,-0.207328,40,270,582,5664
1644169218.269628,-0.012573,0.008362,-0.989624,0.144519,0.417099,-0.176794,58,269,576,5696
1644169218.314755,-0.01001,0.010193,-0.989197,0.175053,0.325496,-0.115725,45,268,570,5664
1644169218.41018,-0.009949,0.008484,-0.992615,0.098718,0.401832,-0.100458,47,270,579,5648
1644169218.458566,-0.013489,0.008606,-0.990906,0.190321,0.310229,0.052214,54,268,563,5648
1644169218.506952,-0.009521,0.009827,-0.989075,0.037649,0.462901,-0.176794,51,271,576,5648
1644169218.55555,-0.011963,0.008728,-0.989258,0.159786,0.218626,-0.054656,49,268,570,5648
1644169218.603757,-0.013245,0.008667,-0.991821,0.190321,0.417099,-0.054656,49,273,579,5648
1644169218.652167,-0.013184,0.00769,-0.990112,0.312458,0.432366,-0.115725,46,274,580,5648
1644169218.700541,-0.010193,0.008606,-0.992188,0.205588,0.508702,-0.069924,48,276,580,5648
1644169218.748906,-0.011414,0.009277,-0.993286,0.236122,0.493435,-0.054656,40,273,575,5664
1644169218.797312,-0.008301,0.010986,-0.991577,0.220855,0.371298,0.036947,47,273,575,5712
1644169218.845696,-0.009155,0.011414,-0.990662,0.144519,0.600305,-0.115725,51,271,578,5648
1644169218.894152,-0.009583,0.013123,-0.991821,0.190321,0.340763,-0.100458,46,276,578,5648
1644169218.942551,-0.00946,0.009827,-0.990417,0.312458,0.508702,-0.085191,53,271,583,5648
1644169218.990917,-0.010193,0.011047,-0.990723,0.113985,0.401832,-0.298931,45,270,577,5696
1644169219.039278,-0.01062,0.009521,-0.991089,0.236122,0.371298,-0.115725,47,275,577,5664
1644169219.087772,-0.007874,0.008606,-0.992737,0.144519,0.554504,-0.085191,45,270,584,5648
1644169219.1361,-0.010437,0.009277,-0.991943,0.175053,0.401832,-0.085191,49,273,570,5648
1644169219.184475,-0.011963,0.009644,-0.991638,0.037649,0.386565,-0.085191,55,271,576,5696
1644169219.232983,-0.008179,0.00946,-0.991882,0.312458,0.356031,-0.161527,52,280,577,5664
1644169219.281614,-0.010925,0.01062,-0.991516,0.327725,0.432366,-0.14626,42,270,579,5696
1644169219.330729,-0.009705,0.010193,-0.991577,0.129252,0.401832,-0.054656,60,274,583,5648
1644169219.381333,-0.011902,0.009521,-0.990356,0.144519,0.417099,-0.039389,58,264,573,5648
1644169219.431487,-0.010864,0.010742,-0.991882,0.327725,0.356031,-0.024122,48,269,576,5648
1644169219.476285,-0.010925,0.009521,-0.98938,0.220855,0.432366,-0.222595,53,269,576,5664
1644169219.571604,-0.011108,0.009827,-0.992004,0.251389,0.493435,0.036947,41,276,576,5664
1644169219.619999,-0.01062,0.010254,-0.988098,0.266656,0.386565,0.036947,48,276,573,5648
1644169219.668382,-0.013123,0.007324,-0.991211,0.113985,0.478168,-0.039389,43,281,578,5600
1644169219.716774,-0.01001,0.009277,-0.992859,0.08345,0.401832,-0.207328,61,263,582,5664
1644169219.765206,-0.011536,0.007874,-0.993408,0.281924,0.478168,-0.024122,57,277,563,5648
1644169219.81355,-0.009277,0.010193,-0.990173,0.205588,0.493435,-0.161527,47,273,565,5664
1644169219.861946,-0.009399,0.010315,-0.992493,0.159786,0.356031,-0.008855,55,283,576,5648
1644169219.910338,-0.011169,0.010681,-0.98938,0.190321,0.462901,-0.268397,48,279,566,5664
1644169219.958738,-0.008179,0.010315,-0.989258,0.220855,0.264427,-0.161527,51,271,564,5664
1644169220.007127,-0.011597,0.009033,-0.991211,0.35826,0.340763,-0.039389,57,275,575,5648
1644169220.060359,-0.011475,0.010193,-0.991882,0.251389,0.432366,-0.039389,48,281,576,5648
1644169220.103899,-0.012817,0.009338,-0.991394,0.205588,0.371298,-0.085191,62,279,578,5632
1644169220.152262,-0.009766,0.011353,-0.990906,0.35826,0.386565,-0.024122,51,269,578,5728
1644169220.200645,-0.010193,0.012268,-0.990173,0.251389,0.508702,-0.176794,47,273,577,5712
1644169220.249038,-0.011841,0.009949,-0.991882,0.236122,0.294962,-0.100458,54,282,575,5712
1644169220.297419,-0.011047,0.008179,-0.991089,0.388794,0.432366,-0.115725,55,271,578,5696
1644169220.345809,-0.007812,0.010986,-0.992188,0.251389,0.310229,-0.130992,54,273,577,5696
1644169220.394205,-0.01062,0.008911,-0.991943,0.281924,0.447634,0.021679,52,270,582,5648
1644169220.442854,-0.008484,0.007629,-0.991699,0.190321,0.478168,0.052214,52,270,582,5600
1644169220.492209,-0.009888,0.008362,-0.992432,0.098718,0.401832,-0.161527,47,277,572,5600
1644169220.542209,-0.01355,0.01001,-0.991333,0.236122,0.233893,-0.14626,60,266,573,5648
1644169220.592709,-0.010193,0.006836,-0.992493,0.342992,0.432366,-0.192061,53,276,569,5648
1644169220.637624,-0.015564,0.009949,-0.99176,0.312458,0.294962,-0.130992,51,276,583,5664
1644169220.732925,-0.008667,0.006653,-0.995056,0.434595,0.539237,0.006412,54,277,582,5648
1644169220.781319,-0.009705,0.010376,-0.989746,0.312458,0.447634,-0.039389,51,279,576,5696
1644169220.829737,-0.01123,0.009888,-0.989319,0.342992,0.356031,-0.130992,47,287,577,5648
1644169220.878149,-0.011414,0.011902,-0.991394,0.266656,0.386565,-0.130992,48,266,576,5696
1644169220.92654,-0.010864,0.008911,-0.99231,0.129252,0.462901,-0.100458,47,275,577,5664
1644169220.974927,-0.011353,0.010315,-0.990479,0.373527,0.432366,-0.024122,58,276,576,5664
1644169221.023334,-0.011292,0.010559,-0.993652,0.297191,0.417099,-0.054656,41,276,583,5648
1644169221.071841,-0.013184,0.010132,-0.992615,0.281924,0.417099,-0.085191,61,270,572,5632
1644169221.120034,-0.011292,0.008606,-0.991089,0.35826,0.493435,-0.176794,48,281,573,5648
1644169221.168457,-0.012146,0.00769,-0.991333,0.281924,0.325496,-0.054656,49,268,558,5696
1644169221.216844,-0.011963,0.008545,-0.993286,0.190321,0.401832,-0.100458,34,276,571,5648
1644169221.265257,-0.009766,0.009399,-0.994202,0.220855,0.401832,-0.024122,53,271,573,5648
1644169221.313638,-0.011108,0.010559,-0.993591,0.281924,0.493435,-0.192061,57,268,575,5664
1644169221.361991,-0.012146,0.007263,-0.990051,0.373527,0.493435,0.006412,57,275,582,5696
1644169221.4104,-0.010437,0.008667,-0.993835,0.281924,0.539237,0.036947,53,276,573,5696
1644169221.458802,-0.011841,0.007019,-0.991089,0.159786,0.325496,-0.008855,49,280,579,5696
1644169221.507167,-0.012634,0.009155,-0.994019,0.175053,0.462901,0.052214,52,275,589,5648
1644169221.555584,-0.010193,0.006531,-0.99115,0.190321,0.401832,-0.069924,43,279,580,5712
1644169221.603976,-0.008789,0.00769,-0.993713,0.297191,0.356031,-0.024122,43,276,580,5696
1644169221.652404,-0.011292,0.008972,-0.991333,0.236122,0.401832,-0.054656,54,275,577,5664
1644169221.70259,-0.010376,0.009766,-0.991272,0.175053,0.356031,-0.039389,49,268,577,5648
1644169221.752851,-0.011841,0.009094,-0.992981,0.266656,0.462901,-0.054656,48,264,578,5648
1644169221.798988,-0.012329,0.009766,-0.991211,0.220855,0.447634,0.006412,51,269,580,5696
1644169221.894378,-0.006287,0.009766,-0.990234,0.297191,0.523969,-0.024122,59,280,577,5696
1644169221.942743,-0.009277,0.010376,-0.993103,0.35826,0.462901,-0.268397,42,270,570,5664
1644169221.991108,-0.011292,0.01062,-0.990906,0.327725,0.401832,-0.039389,52,268,582,5584
1644169222.03952,-0.00824,0.00824,-0.992554,0.342992,0.462901,-0.161527,45,268,577,5664
1644169222.087992,-0.011414,0.011414,-0.991211,0.129252,0.279695,-0.054656,47,265,575,5696
1644169222.13626,-0.013916,0.008118,-0.990356,0.312458,0.356031,-0.039389,48,274,576,5648
1644169222.184717,-0.010437,0.009033,-0.991882,0.236122,0.478168,-0.14626,51,288,576,5664
1644169222.233056,-0.011292,0.007202,-0.993958,0.281924,0.401832,-0.008855,53,276,585,5648
1644169222.281417,-0.01062,0.011047,-0.99231,0.312458,0.371298,-0.069924,52,270,568,5648
1644169222.329821,-0.010498,0.009216,-0.991455,0.251389,0.386565,-0.069924,48,281,594,5728
1644169222.378213,-0.012573,0.011475,-0.991272,0.266656,0.356031,0.052214,55,276,585,5664
1644169222.426611,-0.01001,0.008301,-0.990906,0.251389,0.356031,-0.192061,58,271,573,5696
1644169222.475039,-0.01355,0.009705,-0.992188,0.190321,0.386565,0.006412,49,275,586,5648
1644169222.52403,-0.013367,0.009583,-0.990356,0.220855,0.340763,-0.130992,53,274,587,5696
1644169222.572471,-0.012085,0.008545,-0.989563,0.373527,0.325496,-0.008855,57,263,575,5648
1644169222.623126,-0.009521,0.009094,-0.991394,0.373527,0.310229,-0.176794,55,276,580,5648
1644169222.673417,-0.009399,0.009277,-0.991211,0.281924,0.401832,-0.115725,52,275,572,5632
1644169222.718341,-0.009033,0.009399,-0.990417,0.159786,0.508702,-0.14626,49,268,579,5696
1644169222.813757,-0.009338,0.01123,-0.991394,0.190321,0.447634,-0.161527,54,273,575,5648
1644169222.862403,-0.009705,0.012268,-0.991882,0.159786,0.462901,-0.024122,52,265,579,5600
1644169222.910551,-0.010803,0.007935,-0.99176,0.098718,0.539237,0.021679,46,269,594,5664
1644169222.958919,-0.009155,0.007996,-0.991821,0.236122,0.401832,-0.069924,47,277,582,5664
1644169223.007314,-0.00824,0.008789,-0.990417,0.190321,0.371298,-0.115725,49,275,577,5584
1644169223.06454,-0.009399,0.009949,-0.989624,0.35826,0.432366,-0.222595,54,273,584,5696
1644169223.104099,-0.007385,0.00946,-0.992615,0.251389,0.447634,0.067481,52,277,582,5600
1644169223.15248,-0.010254,0.00885,-0.991699,0.251389,0.386565,-0.237863,49,273,575,5648
1644169223.200852,-0.010254,0.010071,-0.992004,0.266656,0.386565,-0.14626,51,276,569,5664
1644169223.249204,-0.010254,0.011414,-0.988464,0.327725,0.554504,0.052214,39,276,578,5664
1644169223.297632,-0.00885,0.011902,-0.99292,0.113985,0.478168,0.021679,62,264,580,5584
1644169223.346037,-0.010864,0.008789,-0.990173,0.205588,0.325496,-0.176794,48,281,580,5696
1644169223.394434,-0.009888,0.008972,-0.991455,0.236122,0.279695,-0.100458,52,270,575,5632
1644169223.442819,-0.011292,0.009399,-0.994324,0.373527,0.478168,-0.039389,48,276,585,5712
1644169223.491214,-0.010315,0.010132,-0.991882,0.327725,0.401832,-0.024122,42,287,591,5728
1644169223.5396,-0.010864,0.011292,-0.992249,0.205588,0.401832,-0.14626,49,273,586,5696
1644169223.587985,-0.008423,0.010315,-0.99115,0.113985,0.188092,-0.100458,51,271,569,5664
1644169223.63637,-0.010193,0.008728,-0.991638,0.404061,0.325496,-0.024122,57,277,572,5696
1644169223.684833,-0.011719,0.009766,-0.991272,0.236122,0.539237,-0.085191,48,279,566,5648
1644169223.733735,-0.009399,0.009949,-0.991516,0.113985,0.417099,-0.069924,55,266,578,5648
1644169223.784388,-0.011963,0.010376,-0.994019,0.281924,0.447634,-0.024122,41,274,571,5664
1644169223.834402,-0.008484,0.009644,-0.993347,0.220855,0.493435,-0.192061,52,273,563,5584
1644169223.880019,-0.010559,0.010376,-0.992737,0.312458,0.462901,-0.329466,57,265,572,5712
1644169223.975448,-0.008911,0.012817,-0.991943,0.46513,0.356031,0.036947,47,273,577,5648
1644169224.023541,-0.011414,0.008057,-0.989502,0.220855,0.493435,-0.192061,51,264,576,5648
1644169224.072214,-0.011169,0.009583,-0.992859,0.281924,0.340763,-0.069924,53,276,580,5664
1644169224.120257,-0.009033,0.006897,-0.991089,0.052916,0.615573,-0.069924,47,270,565,5712
1644169224.168668,-0.011719,0.008789,-0.990723,0.281924,0.462901,-0.024122,48,276,576,5648
1644169224.21705,-0.012207,0.004822,-0.991394,0.404061,0.386565,0.113282,48,279,573,5712
1644169224.265432,-0.010925,0.010193,-0.991089,0.266656,0.417099,-0.024122,52,275,577,5696
1644169224.313813,-0.011719,0.006042,-0.991028,0.495664,0.340763,-0.130992,57,273,568,5728
1644169224.362247,-0.009949,0.010193,-0.992126,0.098718,0.447634,-0.115725,51,279,578,5664
1644169224.410632,-0.011414,0.006042,-0.992859,0.159786,0.401832,-0.100458,58,271,569,5632
1644169224.459024,-0.009277,0.009583,-0.991882,0.297191,0.356031,-0.008855,43,274,585,5648
1644169224.507399,-0.009155,0.010193,-0.992126,0.205588,0.493435,-0.100458,55,269,578,5664
1644169224.555792,-0.009521,0.006775,-0.991943,0.266656,0.356031,-0.069924,38,270,575,5664
1644169224.604196,-0.008911,0.008667,-0.989441,0.327725,0.264427,-0.069924,43,281,569,5648
1644169224.652596,-0.013672,0.008972,-0.991333,0.144519,0.310229,-0.207328,46,276,578,5712
1644169224.700963,-0.009766,0.009277,-0.989258,0.327725,0.371298,-0.176794,62,274,590,5648
1644169224.749322,-0.011902,0.013123,-0.989929,0.312458,0.493435,0.006412,51,274,578,5712
1644169224.79774,-0.013428,0.010254,-0.991821,0.159786,0.371298,-0.054656,45,280,589,5648
1644169224.84624,-0.011902,0.011353,-0.992859,0.342992,0.447634,-0.161527,47,275,570,5584
1644169224.896003,-0.009216,0.011597,-0.990051,0.251389,0.386565,-0.14626,35,268,577,5696
1644169224.946491,-0.010925,0.010315,-0.990845,0.190321,0.417099,-0.176794,49,275,577,5664
1644169224.996722,-0.011169,0.008545,-0.991089,0.281924,0.508702,-0.100458,43,276,578,5664
1644169225.051076,-0.012573,0.009277,-0.993713,0.251389,0.478168,-0.176794,53,276,569,5664
1644169225.136491,-0.012695,0.007385,-0.991699,0.08345,0.417099,-0.176794,48,276,576,5648
1644169225.184864,-0.012207,0.008484,-0.990601,0.205588,0.417099,-0.039389,47,273,582,5648
1644169225.233256,-0.009766,0.007935,-0.991516,0.327725,0.417099,-0.039389,59,268,582,5648
1644169225.281618,-0.008301,0.007935,-0.991699,0.113985,0.462901,-0.14626,59,280,572,5776
1644169225.330033,-0.011169,0.008545,-0.99292,0.205588,0.356031,0.006412,42,265,575,5664
1644169225.378433,-0.012329,0.008728,-0.989868,0.098718,0.462901,-0.115725,45,277,577,5712
1644169225.426817,-0.010437,0.010864,-0.990051,0.159786,0.340763,-0.054656,46,269,569,5696
1644169225.475205,-0.007874,0.009094,-0.988647,0.327725,0.417099,0.036947,43,274,571,5696
1644169225.523607,-0.009094,0.010925,-0.991089,0.251389,0.508702,-0.069924,52,273,570,5696
1644169225.571991,-0.011841,0.011963,-0.991943,0.236122,0.340763,-0.039389,53,269,583,5696
1644169225.620389,-0.006958,0.01355,-0.990173,0.144519,0.462901,0.082748,46,274,580,5664
1644169225.668771,-0.01416,0.008362,-0.993591,0.129252,0.340763,-0.14626,57,282,577,5664
1644169225.717167,-0.00885,0.00824,-0.989807,0.266656,0.356031,-0.008855,48,266,573,5728
1644169225.765552,-0.009766,0.010925,-0.990967,0.312458,0.371298,-0.207328,59,268,579,5584
1644169225.813951,-0.011902,0.007935,-0.991821,0.312458,0.432366,0.082748,48,274,578,5760
1644169225.862412,-0.01062,0.010986,-0.991699,0.236122,0.386565,-0.222595,47,275,579,5664
1644169225.910761,-0.009644,0.009583,-0.992188,0.281924,0.493435,-0.085191,45,275,575,5664
1644169225.959157,-0.012146,0.009216,-0.991577,0.327725,0.401832,-0.069924,46,271,583,5664
1644169226.00753,-0.013,0.010437,-0.991333,0.236122,0.432366,-0.085191,61,268,579,5648
1644169226.105089,-0.007019,0.006592,-0.991333,0.236122,0.508702,0.113282,52,273,584,5760
1644169226.152725,-0.009766,0.009766,-0.991272,0.236122,0.432366,-0.130992,45,280,570,5600
1644169226.201066,-0.010681,0.010498,-0.992371,0.266656,0.569771,-0.115725,52,275,579,5648
1644169226.249448,-0.010681,0.011475,-0.990173,0.388794,0.432366,-0.130992,55,279,573,5648
1644169226.297858,-0.00885,0.007141,-0.991821,0.113985,0.600305,-0.054656,58,281,564,5664
1644169226.34625,-0.009338,0.007751,-0.995483,0.281924,0.539237,-0.024122,49,265,570,5664
1644169226.394811,-0.009338,0.010376,-0.991455,0.35826,0.478168,0.006412,54,273,568,5728
1644169226.443057,-0.007385,0.013611,-0.991333,0.35826,0.432366,-0.100458,48,279,573,5648
1644169226.491784,-0.01123,0.009827,-0.994446,0.129252,0.447634,-0.14626,60,276,576,5664
1644169226.539804,-0.010071,0.009033,-0.992615,0.266656,0.432366,-0.085191,55,286,583,5664
1644169226.588209,-0.00647,0.010864,-0.990234,0.35826,0.462901,0.021679,51,276,585,5664
1644169226.636567,-0.009949,0.010742,-0.991394,0.327725,0.310229,-0.008855,52,265,584,5632
1644169226.68502,-0.009583,0.010742,-0.992554,0.266656,0.493435,-0.176794,57,287,575,5664
1644169226.733375,-0.010742,0.010071,-0.990845,0.327725,0.325496,0.082748,53,286,576,5648
1644169226.781754,-0.010742,0.011169,-0.990234,0.190321,0.325496,-0.115725,46,271,571,5648
1644169226.830333,-0.008667,0.010376,-0.993347,0.281924,0.478168,-0.085191,53,288,576,5664
1644169226.879465,-0.009827,0.008423,-0.992188,0.251389,0.371298,-0.161527,51,276,576,5648
1644169226.931056,-0.011536,0.010803,-0.990662,0.266656,0.386565,-0.024122,58,266,580,5664
1644169226.980831,-0.009094,0.008057,-0.991882,0.037649,0.554504,-0.024122,43,257,576,5696
1644169227.025426,-0.012451,0.009705,-0.992249,0.281924,0.478168,-0.100458,51,269,578,5664
1644169227.12047,-0.008911,0.008057,-0.990845,0.297191,0.340763,0.006412,57,268,582,5696
1644169227.168889,-0.010986,0.008057,-0.991333,0.266656,0.417099,-0.14626,54,268,582,5632
1644169227.217312,-0.00885,0.010254,-0.991089,0.236122,0.478168,-0.085191,41,274,576,5664
1644169227.265702,-0.012573,0.012573,-0.992249,0.175053,0.417099,-0.14626,48,271,583,5664
1644169227.314085,-0.012268,0.009521,-0.989929,0.388794,0.294962,-0.130992,43,274,571,5712
1644169227.362502,-0.012024,0.010742,-0.992188,0.342992,0.569771,-0.100458,52,275,579,5664
1644169227.410889,-0.009705,0.011963,-0.992188,0.159786,0.310229,-0.222595,38,273,575,5728
1644169227.459263,-0.01001,0.009033,-0.992859,0.251389,0.310229,-0.130992,52,270,572,5664
1644169227.507665,-0.009583,0.009155,-0.990234,0.388794,0.432366,0.098015,43,269,576,5664
1644169227.556051,-0.012512,0.00769,-0.992065,0.129252,0.294962,-0.039389,45,270,572,5664
1644169227.604457,-0.008667,0.00946,-0.993408,0.098718,0.294962,0.006412,57,285,577,5632
1644169227.652847,-0.010498,0.007935,-0.994141,0.266656,0.447634,0.067481,47,263,572,5648
1644169227.701223,-0.009033,0.01001,-0.98999,0.220855,0.325496,-0.085191,43,274,578,5664
1644169227.749605,-0.008789,0.007751,-0.991699,0.022382,0.585038,-0.176794,57,273,577,5696
1644169227.797997,-0.009827,0.009888,-0.992798,0.129252,0.325496,-0.054656,46,269,576,5696
1644169227.846394,-0.011597,0.008728,-0.992981,0.281924,0.386565,-0.069924,51,264,576,5712
1644169227.894789,-0.009949,0.005798,-0.992554,0.220855,0.462901,-0.298931,53,279,583,5696
1644169227.943389,-0.009277,0.007996,-0.992798,0.08345,0.432366,-0.054656,49,280,579,5648
1644169227.991934,-0.008423,0.010803,-0.992249,0.190321,0.401832,-0.054656,53,271,576,5648
1644169228.055691,-0.010803,0.00647,-0.990845,0.236122,0.371298,-0.176794,54,277,577,5648
1644169228.098094,-0.010132,0.01062,-0.992981,0.251389,0.417099,-0.25313,51,281,578,5696
1644169228.141438,-0.011841,0.011047,-0.993347,0.129252,0.310229,-0.024122,51,266,590,5664
1644169228.18636,-0.009644,0.010193,-0.989929,0.297191,0.432366,-0.024122,54,268,570,5648
1644169228.281848,-0.009766,0.012024,-0.992432,0.251389,0.325496,-0.024122,60,276,576,5648
1644169228.330259,-0.011353,0.010376,-0.988892,0.113985,0.462901,-0.192061,51,276,578,5648
1644169228.378639,-0.010193,0.009216,-0.991577,0.236122,0.325496,-0.176794,46,276,569,5696
1644169228.427055,-0.009521,0.012573,-0.991577,0.236122,0.417099,-0.100458,49,280,572,5664
1644169228.475424,-0.009827,0.010986,-0.992615,0.220855,0.447634,-0.14626,52,265,586,5664
1644169228.523831,-0.011597,0.009888,-0.990234,0.251389,0.432366,-0.054656,59,275,572,5712
1644169228.572231,-0.012634,0.007568,-0.99353,0.113985,0.386565,-0.115725,47,263,572,5648
1644169228.620598,-0.010437,0.01001,-0.990173,0.190321,0.432366,-0.085191,53,266,562,5664
1644169228.668993,-0.009155,0.009521,-0.99176,0.297191,0.447634,-0.115725,49,277,575,5696
1644169228.717378,-0.008606,0.01001,-0.990417,0.205588,0.478168,-0.069924,43,274,576,5664
1644169228.765777,-0.012024,0.007141,-0.992371,0.312458,0.462901,-0.039389,51,276,573,5664
1644169228.814224,-0.009033,0.008728,-0.992981,0.220855,0.340763,-0.176794,54,273,577,5696
1644169228.862609,-0.009644,0.01062,-0.99292,0.281924,0.294962,-0.039389,39,264,578,5648
1644169228.910986,-0.007324,0.008179,-0.993408,0.236122,0.371298,0.082748,42,277,577,5600
1644169228.959378,-0.012085,0.010254,-0.991394,0.220855,0.432366,-0.222595,35,285,582,5648
1644169229.007744,-0.012085,0.010071,-0.990601,0.190321,0.386565,-0.207328,54,275,582,5696
1644169229.070074,-0.011169,0.010437,-0.991394,0.236122,0.478168,-0.161527,51,286,592,5696
1644169229.108173,-0.010193,0.009827,-0.991211,0.266656,0.432366,-0.115725,54,270,575,5760
1644169229.153147,-0.010071,0.010864,-0.991882,0.342992,0.462901,-0.100458,40,270,572,5776
1644169229.203353,-0.007446,0.008972,-0.993408,0.144519,0.478168,-0.069924,55,279,576,5664
1644169229.253771,-0.013062,0.009888,-0.991516,0.342992,0.478168,-0.085191,47,260,579,5712
1644169229.298751,-0.009399,0.00647,-0.991699,0.251389,0.432366,-0.069924,47,270,575,5696
1644169229.394882,-0.011353,0.009094,-0.989075,0.251389,0.356031,-0.130992,48,269,580,5664
1644169229.443236,-0.009338,0.009399,-0.991455,0.220855,0.432366,-0.176794,54,268,577,5696
1644169229.49181,-0.008911,0.010681,-0.989075,0.220855,0.417099,-0.14626,46,279,571,5584
1644169229.54001,-0.007202,0.011169,-0.991821,0.312458,0.203359,-0.100458,51,283,571,5648
1644169229.588382,-0.014893,0.010437,-0.992432,0.35826,0.386565,-0.039389,45,255,579,5648
1644169229.636794,-0.012085,0.00885,-0.991943,0.266656,0.401832,0.006412,45,263,577,5648
1644169229.685184,-0.012817,0.010742,-0.993469,0.08345,0.218626,-0.268397,51,274,569,5648
1644169229.733596,-0.012268,0.007202,-0.990112,0.190321,0.417099,-0.115725,52,277,568,5648
1644169229.781973,-0.007874,0.008423,-0.989502,0.205588,0.356031,-0.298931,58,281,566,5600
1644169229.830424,-0.010437,0.007568,-0.991638,0.129252,0.24916,-0.024122,62,276,578,5632
1644169229.878798,-0.008301,0.010925,-0.99115,0.190321,0.478168,-0.069924,52,273,572,5664
1644169229.927193,-0.011841,0.005737,-0.989441,0.220855,0.371298,-0.161527,53,276,580,5648
1644169229.97557,-0.007202,0.007202,-0.992004,0.022382,0.294962,-0.115725,52,275,589,5584
1644169230.02398,-0.008911,0.009644,-0.992859,0.251389,0.203359,-0.039389,52,273,579,5664
1644169230.084484,-0.008972,0.009888,-0.99353,0.312458,0.569771,-0.130992,49,275,575,5664
1644169230.120724,-0.010376,0.010254,-0.992432,0.159786,0.386565,-0.314198,46,264,583,5664
1644169230.170054,-0.007935,0.010071,-0.992004,0.113985,0.264427,-0.115725,57,275,565,5696
1644169230.220586,-0.010681,0.010193,-0.991577,0.35826,0.432366,-0.100458,57,292,572,5648
1644169230.270529,-0.011536,0.008789,-0.99292,0.251389,0.462901,-0.024122,49,277,577,5648
1644169230.315718,-0.011414,0.008057,-0.991882,0.052916,0.401832,-0.192061,47,275,572,5664
1644169230.411047,-0.008972,0.009521,-0.990234,0.342992,0.417099,0.098015,61,277,582,5584
1644169230.459438,-0.008362,0.010376,-0.994629,0.251389,0.371298,-0.130992,60,279,585,5696
1644169230.507799,-0.012268,0.008301,-0.990723,0.08345,0.371298,-0.039389,48,279,578,5648
1644169230.556199,-0.009583,0.008606,-0.994019,0.251389,0.432366,0.052214,47,292,575,5696
1644169230.604693,-0.011841,0.010437,-0.991821,0.159786,0.401832,-0.085191,45,280,579,5696
1644169230.653023,-0.008057,0.008179,-0.993896,0.480397,0.310229,-0.054656,42,275,572,5648
1644169230.701399,-0.010742,0.009766,-0.99469,0.373527,0.432366,0.052214,43,281,571,5648
1644169230.749773,-0.010925,0.010254,-0.990295,0.266656,0.447634,0.036947,52,277,568,5664
1644169230.798153,-0.009705,0.007507,-0.990601,0.205588,0.340763,0.098015,49,277,577,5664
1644169230.846602,-0.012268,0.010254,-0.993347,0.190321,0.462901,-0.069924,48,269,576,5664
1644169230.895145,-0.010498,0.008606,-0.990967,0.205588,0.508702,-0.054656,58,266,585,5696
1644169230.943403,-0.011108,0.009155,-0.992249,0.251389,0.600305,-0.14626,43,271,578,5648
1644169230.991763,-0.012146,0.010559,-0.991211,0.312458,0.493435,-0.100458,58,281,578,5712
1644169231.040163,-0.007019,0.01123,-0.989319,0.205588,0.447634,0.052214,45,282,575,5760
1644169231.088629,-0.011536,0.007446,-0.990234,0.297191,0.371298,-0.115725,51,283,578,5648
1644169231.136917,-0.012207,0.009155,-0.991821,0.220855,0.539237,0.098015,54,273,565,5664
1644169231.185301,-0.011963,0.011353,-0.990845,0.312458,0.523969,-0.14626,51,264,576,5664
1644169231.233692,-0.009094,0.010071,-0.994263,0.312458,0.432366,-0.024122,47,277,582,5600
1644169231.282416,-0.012085,0.009644,-0.992126,0.312458,0.340763,-0.115725,51,274,569,5648
1644169231.331275,-0.008606,0.008789,-0.991516,0.342992,0.447634,-0.100458,41,274,578,5696
1644169231.381857,-0.008911,0.008606,-0.992432,0.251389,0.310229,-0.054656,49,275,586,5648
1644169231.431912,-0.008118,0.009338,-0.993774,0.35826,0.401832,-0.192061,49,270,577,5648
1644169231.476974,-0.009949,0.008667,-0.992188,0.251389,0.493435,-0.161527,42,275,575,5648
1644169231.572427,-0.010742,0.007446,-0.99115,0.251389,0.340763,-0.115725,47,273,575,5696
1644169231.620808,-0.013489,0.009399,-0.991943,0.220855,0.233893,-0.207328,47,277,565,5664
1644169231.669196,-0.012207,0.008362,-0.992981,0.251389,0.417099,-0.085191,36,274,576,5648
1644169231.717575,-0.012207,0.009277,-0.99469,0.266656,0.508702,-0.161527,47,268,582,5648
1644169231.765989,-0.010071,0.009521,-0.993408,0.388794,0.478168,-0.115725,51,274,578,5648
1644169231.814385,-0.010742,0.009033,-0.992737,0.098718,0.401832,-0.008855,53,276,578,5600
1644169231.862831,-0.011597,0.006531,-0.993103,0.35826,0.462901,-0.100458,53,276,576,5664
1644169231.911195,-0.010498,0.007935,-0.99176,0.312458,0.279695,-0.085191,57,282,570,5632
1644169231.959584,-0.011353,0.008118,-0.993469,0.266656,0.386565,-0.100458,46,274,573,5648
1644169232.007986,-0.009033,0.011841,-0.99353,0.342992,0.493435,-0.161527,52,280,572,5696
1644169232.059243,-0.009033,0.012573,-0.990601,0.342992,0.462901,-0.176794,45,277,577,5760
1644169232.1048,-0.011658,0.010132,-0.991089,0.220855,0.417099,-0.100458,51,279,571,5600
1644169232.153122,-0.009583,0.010864,-0.990723,0.327725,0.493435,0.006412,41,281,566,5696
1644169232.201506,-0.00769,0.008728,-0.991577,0.144519,0.462901,-0.008855,51,274,566,5648
1644169232.249897,-0.009949,0.008179,-0.992615,0.404061,0.478168,-0.024122,49,268,575,5648
1644169232.298284,-0.011047,0.009216,-0.992554,0.266656,0.401832,-0.054656,53,271,578,5696
1644169232.346674,-0.012329,0.008545,-0.99408,0.236122,0.401832,-0.054656,48,262,583,5696
1644169232.395117,-0.00824,0.008911,-0.990234,0.297191,0.417099,-0.161527,42,270,575,5664
1644169232.443452,-0.010376,0.01001,-0.990479,0.220855,0.600305,0.006412,46,276,580,5728
1644169232.492276,-0.012146,0.008301,-0.992859,0.175053,0.508702,-0.130992,49,268,586,5648
1644169232.54201,-0.010315,0.006836,-0.991821,0.190321,0.523969,0.006412,53,279,573,5696
1644169232.592312,-0.010925,0.00824,-0.992126,0.266656,0.447634,-0.329466,52,273,582,5728
1644169232.637435,-0.011719,0.00769,-0.99176,0.022382,0.371298,-0.14626,48,276,576,5712
1644169232.733813,-0.010437,0.010376,-0.992676,0.220855,0.294962,-0.100458,51,274,576,5712
1644169232.782392,-0.008362,0.011047,-0.992371,0.251389,0.325496,-0.100458,48,271,576,5696
1644169232.830573,-0.009216,0.010315,-0.991821,0.220855,0.401832,-0.130992,47,275,577,5664
1644169232.879009,-0.011902,0.009033,-0.990173,0.205588,0.310229,-0.192061,54,275,579,5664
1644169232.927392,-0.009155,0.011414,-0.992188,0.129252,0.340763,0.036947,53,279,580,5632
1644169232.97578,-0.007935,0.00769,-0.994263,0.434595,0.417099,-0.085191,49,263,577,5664
1644169233.02418,-0.010071,0.00946,-0.992432,0.312458,0.432366,-0.008855,48,271,569,5664
1644169233.072689,-0.013733,0.012207,-0.99231,0.159786,0.340763,-0.100458,51,274,585,5648
1644169233.120925,-0.009583,0.008728,-0.991943,0.266656,0.294962,-0.207328,51,276,571,5664
1644169233.169321,-0.013245,0.008179,-0.997192,0.266656,0.386565,0.021679,53,274,576,5664
1644169233.217705,-0.010925,0.006592,-0.991394,0.144519,0.417099,-0.069924,51,266,573,5696
1644169233.266072,-0.008972,0.008118,-0.990967,0.312458,0.356031,-0.085191,51,274,578,5584
1644169233.314493,-0.008057,0.009033,-0.993103,0.220855,0.63084,-0.25313,36,279,569,5696
1644169233.362896,-0.011169,0.006042,-0.99292,0.251389,0.325496,-0.130992,52,277,575,5648
1644169233.411266,-0.00946,0.010376,-0.9953,0.266656,0.447634,-0.115725,52,280,579,5664
1644169233.459655,-0.008362,0.010376,-0.992126,0.159786,0.294962,-0.207328,51,269,580,5632
1644169233.508022,-0.012146,0.011108,-0.990112,0.159786,0.447634,-0.192061,53,276,580,5648
1644169233.556429,-0.010986,0.007996,-0.990845,0.342992,0.493435,0.006412,49,280,570,5664
1644169233.606151,-0.007019,0.011047,-0.992004,0.251389,0.417099,-0.14626,52,277,577,5696
1644169233.653383,-0.009521,0.007996,-0.992065,0.220855,0.401832,-0.069924,61,273,584,5712
1644169233.70379,-0.009766,0.011597,-0.991333,0.159786,0.447634,-0.237863,51,259,580,5632
1644169233.754035,-0.010193,0.009949,-0.99469,0.098718,0.386565,0.006412,47,263,582,5648
1644169233.799197,-0.009888,0.008545,-0.991211,0.113985,0.325496,-0.008855,54,273,568,5712
1644169233.895433,-0.012207,0.010254,-0.991028,0.297191,0.432366,-0.008855,47,275,572,5664
1644169233.943602,-0.010071,0.008789,-0.992676,0.113985,0.432366,-0.085191,61,270,575,5696
1644169233.991981,-0.012573,0.008667,-0.992554,0.159786,0.478168,-0.008855,58,276,576,5696
1644169234.040378,-0.011169,0.009033,-0.989075,0.281924,0.478168,-0.008855,39,271,573,5696
1644169234.088844,-0.011353,0.010498,-0.99176,0.08345,0.417099,-0.237863,45,275,575,5648
1644169234.137164,-0.01178,0.010864,-0.990906,0.251389,0.508702,-0.069924,48,276,576,5664
1644169234.185569,-0.011475,0.009155,-0.990967,0.08345,0.371298,0.021679,48,269,571,5664
1644169234.233917,-0.012451,0.010437,-0.991821,0.236122,0.340763,-0.25313,49,282,577,5648
1644169234.28229,-0.009521,0.006958,-0.990295,0.144519,0.493435,-0.161527,55,281,576,5664
1644169234.330702,-0.010376,0.009033,-0.993408,0.281924,0.356031,-0.069924,43,271,576,5648
1644169234.37904,-0.011414,0.009705,-0.992371,0.098718,0.432366,-0.100458,43,274,571,5712
1644169234.427464,-0.009216,0.010193,-0.990479,0.342992,0.417099,-0.054656,48,269,587,5632
1644169234.47585,-0.012756,0.007324,-0.990845,0.175053,0.157557,-0.069924,51,281,573,5648
1644169234.52425,-0.01062,0.008728,-0.989136,0.159786,0.432366,-0.130992,59,270,582,5696
1644169234.572704,-0.013306,0.009644,-0.992371,0.129252,0.462901,-0.039389,43,262,576,5632
1644169234.621471,-0.010803,0.010315,-0.991943,0.281924,0.340763,-0.039389,59,277,575,5632
1644169234.672032,-0.009521,0.01062,-0.98999,0.342992,0.478168,-0.039389,57,282,577,5696
1644169234.722192,-0.007568,0.010376,-0.990662,0.297191,0.401832,-0.176794,48,266,566,5664
1644169234.767207,-0.010437,0.010864,-0.990845,0.190321,0.615573,-0.207328,54,273,572,5728
1644169234.863013,-0.012634,0.010193,-0.992554,0.342992,0.462901,-0.085191,46,262,576,5632
1644169234.911395,-0.007324,0.008667,-0.988159,0.251389,0.432366,-0.069924,49,268,565,5696
1644169234.959802,-0.008911,0.010681,-0.990234,0.098718,0.447634,-0.100458,45,275,579,5696
1644169235.008162,-0.011414,0.011597,-0.992004,0.281924,0.356031,-0.14626,57,263,579,5648
1644169235.06595,-0.008606,0.009094,-0.989441,0.144519,0.386565,-0.100458,46,283,578,5600
1644169235.105022,-0.008789,0.010132,-0.989441,0.251389,0.432366,-0.054656,52,282,582,5584
1644169235.153382,-0.010925,0.010864,-0.994263,0.190321,0.294962,0.006412,55,276,571,5584
1644169235.201758,-0.011902,0.009094,-0.992493,0.251389,0.310229,-0.115725,51,274,562,5664
1644169235.250119,-0.009766,0.011719,-0.992554,0.327725,0.478168,0.021679,48,271,583,5696
1644169235.298516,-0.011719,0.008423,-0.991272,0.205588,0.401832,-0.130992,51,269,578,5664
1644169235.346939,-0.009399,0.010315,-0.990601,0.205588,0.340763,-0.115725,49,275,563,5712
1644169235.395304,-0.008728,0.011536,-0.989075,0.266656,0.432366,-0.039389,52,275,586,5696
1644169235.443708,-0.011597,0.00824,-0.991699,0.159786,0.417099,0.052214,51,262,580,5696
1644169235.492459,-0.012512,0.008728,-0.99292,0.190321,0.264427,-0.054656,39,274,585,5664
1644169235.540486,-0.006836,0.009155,-0.990906,0.312458,0.417099,-0.115725,57,275,577,5712
1644169235.58888,-0.011475,0.005493,-0.991211,0.068183,0.340763,-0.069924,48,269,587,5648
1644169235.637433,-0.01416,0.010132,-0.990906,0.251389,0.432366,-0.14626,52,275,582,5648
1644169235.685682,-0.010376,0.011047,-0.990417,0.220855,0.539237,-0.039389,42,268,575,5648
1644169235.735774,-0.010681,0.011169,-0.990845,0.175053,0.523969,0.113282,58,288,578,5696
1644169235.786092,-0.010254,0.009888,-0.991638,0.297191,0.386565,-0.176794,54,268,579,5696
1644169235.836258,-0.011169,0.008423,-0.990723,0.327725,0.401832,-0.008855,58,262,566,5600
1644169235.880745,-0.009033,0.008789,-0.991943,0.205588,0.279695,-0.085191,57,277,568,5696
1644169235.976002,-0.006653,0.01123,-0.991882,0.266656,0.356031,-0.100458,47,270,575,5648
1644169236.024401,-0.009399,0.011414,-0.992432,0.236122,0.386565,-0.207328,61,270,579,5648
1644169236.072853,-0.008606,0.010864,-0.992554,0.129252,0.356031,-0.069924,54,285,568,5696
1644169236.121145,-0.011108,0.009033,-0.992554,0.08345,0.554504,0.036947,55,276,583,5648
1644169236.169532,-0.013916,0.009521,-0.992981,0.251389,0.478168,-0.024122,53,271,578,5552
1644169236.2179,-0.009277,0.008057,-0.99054,0.281924,0.493435,0.067481,52,270,577,5664
1644169236.266284,-0.010742,0.007507,-0.990845,0.434595,0.325496,-0.069924,47,280,572,5664
1644169236.314759,-0.009155,0.009216,-0.989868,0.266656,0.371298,-0.115725,54,285,577,5648
1644169236.363114,-0.009888,0.008789,-0.988281,0.236122,0.264427,-0.222595,46,276,571,5648
1644169236.411479,-0.008484,0.009705,-0.990967,0.037649,0.371298,-0.054656,40,273,572,5648
1644169236.459878,-0.011475,0.01001,-0.992371,0.312458,0.493435,-0.161527,43,276,580,5696
1644169236.50824,-0.009338,0.007629,-0.990601,0.220855,0.554504,-0.161527,53,274,580,5712
1644169236.556649,-0.008911,0.011292,-0.991028,0.236122,0.462901,-0.024122,48,274,573,5648
1644169236.605073,-0.008728,0.008484,-0.991943,0.327725,0.417099,-0.161527,49,280,575,5664
1644169236.653434,-0.010315,0.009827,-0.990723,0.113985,0.646107,-0.237863,54,275,572,5584
1644169236.70183,-0.01062,0.009399,-0.993225,0.342992,0.417099,-0.115725,54,263,570,5696
1644169236.750187,-0.008972,0.009094,-0.993469,0.175053,0.417099,-0.130992,48,266,592,5664
1644169236.798642,-0.012573,0.010071,-0.991943,0.266656,0.233893,-0.130992,53,279,592,5664
1644169236.847252,-0.011902,0.008972,-0.992126,0.251389,0.294962,-0.024122,53,271,573,5696
1644169236.897693,-0.010376,0.009827,-0.991394,0.175053,0.447634,-0.115725,46,276,571,5696
1644169236.94801,-0.007263,0.007324,-0.993835,0.281924,0.356031,-0.192061,58,271,576,5696
1644169236.992528,-0.008789,0.009155,-0.993408,0.266656,0.554504,-0.039389,51,276,578,5664
1644169237.089114,-0.010803,0.008301,-0.991028,0.175053,0.554504,-0.115725,48,276,585,5728
1644169237.137344,-0.010925,0.008606,-0.993164,0.144519,0.356031,-0.054656,49,273,575,5648
1644169237.185713,-0.01123,0.009094,-0.990479,0.251389,0.432366,-0.085191,51,271,571,5664
1644169237.234121,-0.009888,0.008789,-0.990723,0.159786,0.294962,-0.008855,43,266,573,5712
1644169237.282506,-0.00824,0.009766,-0.992065,0.251389,0.523969,-0.054656,52,277,579,5696
1644169237.330877,-0.010559,0.010254,-0.991699,0.236122,0.401832,-0.115725,48,271,578,5648
1644169237.37929,-0.010071,0.009766,-0.991577,0.159786,0.539237,-0.237863,61,273,575,5712
1644169237.427687,-0.010193,0.008301,-0.99054,-0.053954,0.325496,-0.14626,48,274,578,5696
1644169237.476074,-0.010925,0.007812,-0.989441,0.113985,0.325496,-0.024122,48,257,571,5648
1644169237.524491,-0.008545,0.009399,-0.990479,0.220855,0.462901,-0.115725,52,275,572,5664
1644169237.572876,-0.00885,0.011108,-0.990784,0.404061,0.310229,0.006412,54,277,568,5664
1644169237.621247,-0.012146,0.012268,-0.99176,0.281924,0.386565,-0.100458,45,282,579,5664
1644169237.669648,-0.01239,0.011047,-0.991455,0.190321,0.386565,-0.039389,49,273,577,5728
1644169237.718028,-0.007568,0.01239,-0.99292,0.312458,0.294962,-0.161527,42,275,575,5648
1644169237.766421,-0.008362,0.010437,-0.991516,0.312458,0.493435,-0.176794,53,271,578,5696
1644169237.814855,-0.009399,0.007141,-0.992737,0.113985,0.432366,-0.085191,53,283,592,5664
1644169237.863234,-0.010193,0.006287,-0.992126,0.35826,0.371298,-0.161527,55,262,571,5664
1644169237.911711,-0.009827,0.008301,-0.992065,0.159786,0.493435,-0.100458,55,274,576,5648
1644169237.960271,-0.011169,0.009277,-0.993713,0.068183,0.371298,-0.085191,46,274,576,5664
1644169238.010658,-0.010925,0.008484,-0.991272,0.205588,0.447634,-0.176794,53,281,585,5648
1644169238.105251,-0.01123,0.010437,-0.991821,0.220855,0.371298,-0.069924,60,279,585,5648
1644169238.153558,-0.011414,0.00708,-0.994019,0.312458,0.432366,-0.039389,51,269,571,5648
1644169238.201933,-0.010071,0.007507,-0.991943,0.159786,0.432366,-0.207328,53,274,578,5600
1644169238.25032,-0.011719,0.009766,-0.991821,0.175053,0.493435,-0.14626,62,279,573,5664
1644169238.298705,-0.009888,0.01001,-0.993347,0.190321,0.462901,-0.115725,45,277,579,5696
1644169238.347078,-0.008057,0.00769,-0.990356,0.190321,0.432366,-0.130992,42,275,575,5664
1644169238.395494,-0.013733,0.01001,-0.991333,0.068183,0.462901,-0.192061,45,285,575,5648
1644169238.443887,-0.010925,0.010681,-0.992798,0.297191,0.24916,-0.054656,51,279,576,5600
1644169238.492385,-0.009338,0.007324,-0.990234,0.236122,0.310229,-0.054656,57,277,570,5632
1644169238.54067,-0.010132,0.008545,-0.988953,0.236122,0.24916,-0.115725,49,265,579,5696
1644169238.589063,-0.010864,0.009827,-0.992126,0.266656,0.493435,0.036947,55,286,566,5664
1644169238.637454,-0.011902,0.009888,-0.990906,0.342992,0.401832,-0.008855,55,266,573,5664
1644169238.685843,-0.011841,0.01001,-0.99115,0.220855,0.523969,-0.115725,47,270,579,5664
1644169238.734239,-0.010071,0.010193,-0.991699,0.098718,0.417099,-0.130992,58,279,590,5600
1644169238.782639,-0.008972,0.008118,-0.993958,0.190321,0.264427,-0.054656,52,260,582,5600
1644169238.831045,-0.012268,0.007019,-0.992126,0.281924,0.539237,-0.085191,57,280,570,5664
1644169238.87945,-0.010742,0.008545,-0.991577,0.251389,0.432366,-0.024122,49,270,575,5664
1644169238.928039,-0.011475,0.010742,-0.993042,0.220855,0.325496,-0.085191,51,264,576,5664
1644169238.976239,-0.010803,0.009399,-0.992004,0.098718,0.340763,0.036947,58,271,583,5712
1644169239.026136,-0.010315,0.008789,-0.990967,0.251389,0.386565,-0.176794,53,274,576,5632
1644169239.084741,-0.011169,0.007629,-0.989929,0.129252,0.356031,0.036947,54,270,577,5664
1644169239.122523,-0.011902,0.011353,-0.992737,0.144519,0.554504,0.021679,39,276,573,5712
1644169239.218123,-0.01239,0.009827,-0.992554,0.342992,0.478168,-0.268397,54,268,582,5648
1644169239.266509,-0.011475,0.00647,-0.992554,0.434595,0.478168,-0.283664,43,274,573,5648
1644169239.314902,-0.011047,0.008667,-0.992188,0.312458,0.401832,-0.14626,46,269,576,5648
1644169239.363315,-0.010742,0.011902,-0.989807,0.251389,0.417099,0.052214,48,276,566,5648
1644169239.41169,-0.013062,0.008911,-0.992859,0.281924,0.432366,-0.039389,55,271,571,5664
1644169239.460077,-0.011536,0.008789,-0.992188,0.190321,0.172824,-0.14626,43,269,573,5664
1644169239.508459,-0.010864,0.010254,-0.993469,0.266656,0.310229,-0.039389,48,283,583,5696
1644169239.556859,-0.010254,0.011536,-0.990723,0.342992,0.432366,-0.100458,41,269,569,5632
1644169239.60526,-0.011169,0.011169,-0.991028,0.205588,0.356031,-0.054656,59,268,575,5648
1644169239.653653,-0.01123,0.008667,-0.991394,0.190321,0.447634,-0.100458,46,271,573,5664
1644169239.702024,-0.013794,0.009766,-0.991638,0.190321,0.264427,-0.176794,49,282,568,5664
1644169239.750417,-0.01062,0.008118,-0.993591,0.175053,0.417099,-0.069924,45,275,584,5648
1644169239.798825,-0.006104,0.008484,-0.993591,0.144519,0.432366,-0.222595,58,269,578,5632
1644169239.847245,-0.011414,0.01178,-0.989197,0.327725,0.401832,-0.008855,47,277,570,5664
1644169239.895644,-0.013672,0.00946,-0.991943,0.266656,0.371298,-0.115725,46,281,578,5648
1644169239.944041,-0.012146,0.010742,-0.991882,0.190321,0.478168,0.098015,51,276,576,5664
1644169239.992443,-0.010071,0.008179,-0.991882,0.144519,0.462901,-0.283664,48,279,566,5664
1644169240.040799,-0.010803,0.010315,-0.99054,0.175053,0.401832,-0.054656,55,269,578,5728
1644169240.096214,-0.012451,0.009583,-0.990234,0.449863,0.447634,-0.054656,47,268,579,5664
1644169240.140446,-0.009705,0.009766,-0.992432,0.098718,0.432366,-0.192061,42,275,582,5664
1644169240.189456,-0.008484,0.009705,-0.99176,0.220855,0.356031,-0.069924,49,273,575,5648
1644169240.239507,-0.010254,0.010925,-0.990601,0.190321,0.432366,-0.054656,54,270,568,5600
1644169240.331136,-0.010315,0.00885,-0.991821,0.281924,0.294962,-0.008855,46,281,571,5664
1644169240.379499,-0.01001,0.010376,-0.994507,0.220855,0.371298,-0.176794,41,271,573,5696
1644169240.427888,-0.010071,0.010864,-0.991516,0.129252,0.356031,-0.207328,48,276,566,5648
1644169240.476253,-0.011597,0.005432,-0.99353,0.159786,0.386565,-0.100458,48,274,576,5648
1644169240.524695,-0.008972,0.009521,-0.989685,0.266656,0.401832,-0.039389,53,271,571,5664
1644169240.573088,-0.009399,0.009216,-0.99292,0.297191,0.432366,-0.115725,43,276,571,5584
1644169240.621461,-0.009705,0.009827,-0.991577,0.236122,0.539237,-0.024122,47,275,577,5696
1644169240.669838,-0.010071,0.011353,-0.992249,0.205588,0.417099,-0.14626,39,281,578,5664
1644169240.718246,-0.010437,0.010437,-0.992737,0.205588,0.462901,0.036947,65,279,573,5664
1644169240.766625,-0.008118,0.010193,-0.991394,0.342992,0.340763,-0.192061,46,274,583,5664
1644169240.81512,-0.015503,0.010925,-0.990784,0.251389,0.417099,-0.054656,54,263,577,5648
1644169240.863464,-0.00946,0.011108,-0.99176,0.312458,0.310229,-0.100458,49,265,575,5696
1644169240.911847,-0.011169,0.01062,-0.989868,0.098718,0.462901,-0.039389,42,275,572,5664
1644169240.960238,-0.008789,0.009644,-0.992676,0.144519,0.340763,-0.130992,51,266,578,5632
1644169241.008596,-0.008667,0.00946,-0.992859,0.190321,0.401832,-0.069924,40,277,572,5648
1644169241.064578,-0.010315,0.008667,-0.991211,0.281924,0.371298,-0.130992,60,271,578,5696
1644169241.105418,-0.01001,0.009521,-0.991821,0.281924,0.340763,-0.161527,51,281,576,5664
1644169241.154148,-0.008118,0.009766,-0.991028,0.129252,0.310229,-0.207328,51,281,571,5696
1644169241.203388,-0.010742,0.010681,-0.991821,0.220855,0.310229,-0.069924,49,268,572,5664
1644169241.253645,-0.011108,0.008179,-0.993958,0.175053,0.401832,-0.100458,49,280,568,5664
1644169241.303872,-0.009277,0.010559,-0.991211,0.129252,0.676641,-0.085191,59,273,572,5696
1644169241.395701,-0.007385,0.008423,-0.990051,0.159786,0.417099,-0.008855,54,282,570,5648
1644169241.444104,-0.008362,0.010437,-0.989746,0.312458,0.493435,-0.024122,48,274,578,5712
1644169241.492489,-0.010193,0.008179,-0.991943,0.220855,0.478168,-0.008855,43,259,578,5648
1644169241.540877,-0.010193,0.011292,-0.988281,0.297191,0.447634,0.159084,52,273,572,5648
1644169241.58926,-0.008789,0.008301,-0.991882,0.342992,0.294962,-0.14626,49,275,572,5664
1644169241.637652,-0.01001,0.008179,-0.991455,0.388794,0.447634,0.006412,51,276,576,5712
1644169241.686051,-0.010193,0.008484,-0.988831,0.068183,0.417099,-0.161527,54,280,570,5664
1644169241.734443,-0.010254,0.009399,-0.990112,0.175053,0.310229,-0.008855,55,271,566,5664
1644169241.782843,-0.008728,0.009644,-0.990234,0.205588,0.325496,-0.054656,41,279,573,5712
1644169241.831205,-0.010498,0.009827,-0.99054,0.297191,0.233893,-0.054656,47,273,563,5584
1644169241.879644,-0.009827,0.008972,-0.990967,0.205588,0.279695,-0.069924,57,277,579,5648
1644169241.928041,-0.007324,0.010132,-0.989868,0.297191,0.371298,-0.14626,55,279,578,5696
1644169241.976433,-0.007751,0.009705,-0.992188,0.220855,0.325496,0.082748,45,280,572,5664
1644169242.024834,-0.011841,0.011597,-0.990417,0.312458,0.356031,-0.161527,49,280,570,5648
1644169242.083524,-0.010193,0.010803,-0.991516,0.281924,0.447634,-0.161527,60,274,578,5648
1644169242.121626,-0.008911,0.007935,-0.990601,0.236122,0.264427,-0.14626,53,271,580,5696
1644169242.171283,-0.009705,0.010132,-0.992371,0.205588,0.539237,0.021679,58,269,571,5712
1644169242.220757,-0.009277,0.011719,-0.991516,0.159786,0.432366,-0.024122,52,275,584,5664
1644169242.270824,-0.011108,0.008911,-0.992065,0.297191,0.356031,0.082748,57,270,572,5648
1644169242.316043,-0.008484,0.009338,-0.990601,0.281924,0.356031,-0.115725,41,276,573,5696
1644169242.411918,-0.010864,0.009705,-0.991577,0.144519,0.371298,-0.237863,41,283,566,5696
1644169242.460296,-0.009827,0.009094,-0.991089,0.220855,0.523969,-0.054656,47,277,577,5696
1644169242.50869,-0.010254,0.008789,-0.989014,0.159786,0.447634,-0.100458,42,277,561,5696
1644169242.557078,-0.007996,0.009338,-0.991089,0.175053,0.417099,-0.207328,57,282,579,5600
1644169242.605471,-0.009888,0.011719,-0.989929,0.068183,0.478168,-0.100458,49,265,575,5712
1644169242.653874,-0.010376,0.007996,-0.990295,0.281924,0.493435,-0.268397,46,274,583,5664
1644169242.702279,-0.010254,0.01178,-0.991699,0.495664,0.401832,-0.115725,53,271,578,5648
1644169242.750614,-0.010193,0.010498,-0.990356,0.113985,0.371298,-0.176794,51,274,569,5648
1644169242.799033,-0.010132,0.010315,-0.992615,0.144519,0.508702,-0.222595,51,271,573,5696
1644169242.847425,-0.007446,0.008789,-0.989502,0.129252,0.554504,-0.115725,42,282,577,5648
1644169242.895862,-0.009644,0.009705,-0.993164,0.159786,0.401832,0.021679,48,279,580,5648
1644169242.94422,-0.009155,0.011597,-0.991028,0.236122,0.401832,-0.14626,49,268,572,5648
1644169242.992618,-0.010315,0.010559,-0.990173,0.175053,0.554504,-0.130992,47,277,568,5664
1644169243.041029,-0.012817,0.008179,-0.993042,0.113985,0.432366,-0.024122,53,274,585,5632
1644169243.093049,-0.010254,0.009949,-0.993591,0.098718,0.325496,-0.207328,46,269,585,5696
1644169243.137832,-0.00885,0.006592,-0.993408,0.113985,0.493435,-0.008855,53,283,576,5664
1644169243.186189,-0.007996,0.01178,-0.990662,0.236122,0.432366,-0.161527,47,273,577,5728
1644169243.234771,-0.008606,0.007019,-0.993225,0.281924,0.310229,-0.176794,45,280,579,5664
1644169243.282997,-0.010864,0.010193,-0.989807,0.281924,0.264427,-0.085191,45,270,575,5664
1644169243.332838,-0.009888,0.010071,-0.99292,0.251389,0.371298,0.036947,53,266,578,5648
1644169243.383293,-0.01178,0.008057,-0.992065,0.281924,0.371298,-0.176794,59,268,572,5648
1644169243.433638,-0.009399,0.011658,-0.993469,0.297191,0.371298,-0.069924,58,269,578,5664
1644169243.478225,-0.010803,0.009338,-0.993347,0.327725,0.401832,-0.14626,49,263,575,5600
1644169243.573335,-0.012085,0.009338,-0.993225,0.190321,0.325496,-0.115725,43,276,576,5712
1644169243.621686,-0.01123,0.010193,-0.990845,0.220855,0.569771,-0.085191,45,273,577,5632
1644169243.670097,-0.008606,0.012268,-0.990295,0.220855,0.310229,-0.085191,55,271,564,5712
1644169243.718505,-0.009521,0.007446,-0.991821,0.159786,0.325496,-0.192061,42,265,570,5648
1644169243.766882,-0.00946,0.009033,-0.990845,0.129252,0.447634,-0.192061,57,275,575,5584
1644169243.815275,-0.009766,0.009888,-0.992004,0.236122,0.447634,0.006412,58,276,573,5664
1644169243.863646,-0.008789,0.007996,-0.994568,0.220855,0.356031,-0.069924,46,279,583,5664
1644169243.912073,-0.010681,0.010864,-0.991455,0.144519,0.539237,-0.115725,49,270,584,5664
1644169243.960454,-0.008057,0.010315,-0.994019,0.251389,0.386565,-0.039389,54,280,570,5728
1644169244.008842,-0.01001,0.008057,-0.991394,0.113985,0.325496,-0.207328,51,281,576,5600
1644169244.06374,-0.010742,0.010437,-0.990112,0.312458,0.401832,-0.130992,43,279,580,5648
1644169244.105608,-0.011292,0.010071,-0.992126,0.205588,0.417099,-0.130992,45,273,575,5648
1644169244.153979,-0.010742,0.009338,-0.990417,0.205588,0.325496,0.021679,54,280,568,5712
1644169244.202377,-0.008423,0.008362,-0.992188,0.251389,0.356031,-0.024122,51,276,573,5664
1644169244.250731,-0.010193,0.008362,-0.989746,0.144519,0.325496,-0.115725,49,277,589,5696
1644169244.299127,-0.01001,0.004944,-0.994263,0.373527,0.447634,0.006412,48,271,573,5600
1644169244.34751,-0.009705,0.009033,-0.993042,0.236122,0.401832,0.036947,42,277,584,5648
1644169244.395922,-0.011963,0.007629,-0.992859,0.388794,0.356031,-0.069924,55,288,580,5712
1644169244.44438,-0.010193,0.012329,-0.992798,0.342992,0.432366,-0.130992,48,274,571,5696
1644169244.493217,-0.010315,0.011047,-0.989014,0.312458,0.539237,-0.039389,42,280,582,5696
1644169244.543755,-0.01001,0.009521,-0.991333,0.129252,0.447634,-0.207328,49,263,568,5664
1644169244.59369,-0.00708,0.011353,-0.994324,0.113985,0.447634,-0.237863,54,270,575,5712
1644169244.638508,-0.010193,0.009094,-0.990845,0.297191,0.310229,-0.115725,48,276,569,5728
1644169244.734882,-0.011841,0.007568,-0.989807,0.281924,0.493435,-0.069924,49,275,586,5664
1644169244.783075,-0.012146,0.008911,-0.992188,0.236122,0.294962,-0.161527,49,260,582,5776
1644169244.831483,-0.01178,0.009705,-0.993591,0.068183,0.462901,-0.100458,58,274,573,5664
1644169244.879843,-0.011902,0.008789,-0.993713,-0.02342,0.340763,-0.115725,47,273,568,5632
1644169244.928268,-0.011902,0.011414,-0.99231,0.159786,0.447634,-0.192061,45,275,575,5696
1644169244.976629,-0.010193,0.012024,-0.992432,0.281924,0.417099,-0.161527,46,281,580,5664
1644169245.025093,-0.007935,0.009094,-0.994141,0.388794,0.325496,-0.115725,42,273,584,5648
1644169245.074411,-0.010986,0.009155,-0.992004,0.129252,0.294962,-0.069924,53,279,585,5648
1644169245.121773,-0.00824,0.009094,-0.994141,0.266656,0.478168,-0.298931,49,270,577,5664
1644169245.170164,-0.012573,0.00946,-0.991455,0.266656,0.325496,-0.085191,53,279,585,5648
1644169245.218564,-0.011536,0.01062,-0.988525,0.297191,0.417099,-0.069924,45,268,577,5696
1644169245.266937,-0.008789,0.011841,-0.992981,0.312458,0.294962,-0.008855,46,279,576,5664
1644169245.315329,-0.010986,0.007996,-0.990601,0.281924,0.356031,0.006412,52,277,572,5584
1644169245.363745,-0.010986,0.009888,-0.993652,0.281924,0.432366,-0.069924,48,281,571,5712
1644169245.412222,-0.00946,0.007202,-0.992126,0.159786,0.233893,-0.024122,40,275,570,5648
1644169245.460515,-0.012146,0.010193,-0.991943,0.129252,0.478168,0.021679,51,274,571,5600
1644169245.508879,-0.012512,0.009094,-0.992004,0.144519,0.356031,0.006412,53,269,590,5664
1644169245.557299,-0.010803,0.00769,-0.992554,0.098718,0.417099,-0.115725,47,270,568,5712
1644169245.605653,-0.010681,0.008789,-0.989624,0.205588,0.417099,-0.100458,52,275,579,5648
1644169245.654112,-0.009888,0.008484,-0.988953,0.220855,0.569771,-0.100458,54,280,570,5664
1644169245.704677,-0.011841,0.009338,-0.992554,0.281924,0.447634,-0.039389,49,270,572,5712
1644169245.755401,-0.008728,0.006531,-0.990723,0.220855,0.462901,-0.054656,53,271,573,5648
1644169245.799863,-0.01062,0.008301,-0.994934,0.08345,0.432366,-0.14626,48,281,583,5712
1644169245.896054,-0.01123,0.011902,-0.991577,0.205588,0.447634,-0.161527,49,268,568,5696
1644169245.944466,-0.009521,0.007812,-0.991394,0.190321,0.371298,-0.25313,60,279,571,5664
1644169245.992866,-0.010132,0.007629,-0.991577,0.220855,0.447634,-0.085191,60,279,569,5696
1644169246.041251,-0.010437,0.006653,-0.990295,0.373527,0.325496,0.006412,48,269,583,5648
1644169246.089689,-0.008362,0.010437,-0.991272,0.159786,0.310229,-0.115725,53,276,569,5664
1644169246.137975,-0.012634,0.010132,-0.992432,0.266656,0.386565,-0.039389,52,268,565,5648
1644169246.186378,-0.00946,0.011169,-0.992188,0.068183,0.462901,-0.161527,61,282,577,5632
1644169246.234796,-0.01178,0.012817,-0.98999,0.281924,0.325496,-0.085191,45,275,582,5648
1644169246.283151,-0.008423,0.008606,-0.991577,0.190321,0.340763,-0.008855,48,274,571,5696
1644169246.331562,-0.009216,0.009583,-0.991882,0.190321,0.233893,-0.115725,52,273,570,5664
1644169246.379941,-0.010986,0.009277,-0.991699,0.312458,0.417099,0.021679,51,262,578,5664
1644169246.428332,-0.007507,0.008301,-0.992737,0.068183,0.401832,-0.100458,45,270,579,5696
1644169246.476722,-0.011963,0.009033,-0.99292,0.175053,0.462901,0.12855,53,269,576,5600
1644169246.52514,-0.008484,0.008301,-0.993774,0.236122,0.462901,-0.100458,47,270,579,5648
1644169246.573786,-0.009155,0.010254,-0.992432,0.205588,0.356031,0.052214,47,270,582,5664
1644169246.623078,-0.011169,0.007935,-0.993469,0.068183,0.325496,-0.054656,49,280,575,5664
1644169246.673393,-0.009705,0.007141,-0.994385,0.312458,0.386565,-0.130992,45,280,579,5664
1644169246.723632,-0.008728,0.008789,-0.99353,0.342992,0.340763,-0.161527,54,282,570,5664
1644169246.815433,-0.009644,0.009277,-0.990784,0.236122,0.523969,-0.161527,52,268,579,5600
1644169246.863896,-0.010681,0.009766,-0.989441,0.388794,0.279695,-0.130992,59,275,572,5648
1644169246.91243,-0.01062,0.008484,-0.990967,0.281924,0.294962,-0.130992,42,273,572,5664
1644169246.960663,-0.010498,0.009583,-0.992737,0.266656,0.447634,-0.298931,53,274,576,5664
1644169247.009037,-0.010376,0.009216,-0.993042,0.236122,0.325496,-0.054656,49,270,582,5664
1644169247.061544,-0.00824,0.011047,-0.993408,0.266656,0.523969,-0.039389,52,265,584,5664
1644169247.105814,-0.009338,0.009888,-0.991638,0.373527,0.279695,-0.130992,53,269,580,5648
1644169247.154193,-0.012268,0.008362,-0.993164,0.175053,0.417099,-0.130992,58,269,569,5648
1644169247.202586,-0.012268,0.009521,-0.990845,0.35826,0.264427,-0.14626,46,274,580,5696
1644169247.250952,-0.012634,0.009827,-0.993225,0.220855,0.447634,-0.100458,52,280,572,5696
1644169247.299344,-0.008057,0.008179,-0.992065,0.312458,0.417099,-0.069924,53,274,576,5696
1644169247.347734,-0.01001,0.011047,-0.989685,0.190321,0.447634,-0.130992,47,263,584,5696
1644169247.396138,-0.009766,0.009155,-0.988708,0.205588,0.447634,-0.25313,54,268,579,5696
1644169247.444521,-0.008789,0.009338,-0.990784,0.251389,0.493435,-0.039389,48,274,578,5696
1644169247.49291,-0.012573,0.009277,-0.990845,0.175053,0.386565,-0.115725,52,265,584,5664
1644169247.541316,-0.008423,0.008362,-0.992493,0.312458,0.447634,0.067481,49,277,584,5600
1644169247.589702,-0.009338,0.009033,-0.993164,0.220855,0.417099,-0.069924,46,276,578,5632
1644169247.638104,-0.009888,0.008301,-0.990173,0.205588,0.386565,-0.085191,48,276,583,5696
1644169247.686479,-0.011108,0.008728,-0.990723,0.434595,0.386565,-0.069924,51,274,576,5696
1644169247.734974,-0.011292,0.008179,-0.993591,0.175053,0.371298,-0.039389,51,271,583,5696
1644169247.785234,-0.010681,0.006592,-0.993286,0.266656,0.447634,-0.161527,51,259,580,5712
1644169247.836627,-0.010864,0.009094,-0.991821,0.220855,0.340763,-0.161527,49,277,584,5696
1644169247.881096,-0.01062,0.011353,-0.990479,0.175053,0.417099,-0.14626,57,270,570,5600
1644169247.976856,-0.011292,0.00885,-0.994202,0.205588,0.279695,-0.14626,47,270,577,5648
1644169248.025356,-0.011169,0.008484,-0.991333,0.190321,0.371298,0.036947,45,271,578,5696
1644169248.073715,-0.010071,0.007751,-0.990845,0.159786,0.417099,-0.054656,46,266,576,5664
1644169248.121995,-0.008484,0.007324,-0.991577,0.220855,0.508702,-0.268397,41,274,578,5632
1644169248.170381,-0.010132,0.010742,-0.992004,0.190321,0.539237,-0.176794,51,259,578,5648
1644169248.218777,-0.009399,0.008728,-0.989502,0.220855,0.417099,-0.085191,48,271,576,5664
1644169248.267164,-0.012024,0.008484,-0.992065,0.175053,0.371298,-0.161527,55,274,585,5712
1644169248.315538,-0.011414,0.010254,-0.991699,0.190321,0.493435,-0.130992,49,282,568,5664
1644169248.363957,-0.013245,0.007202,-0.992554,0.220855,0.401832,-0.085191,48,279,580,5696
1644169248.412361,-0.012146,0.010742,-0.991272,0.266656,0.340763,-0.069924,39,269,585,5696
1644169248.460737,-0.00946,0.009888,-0.992126,0.297191,0.264427,-0.161527,52,270,575,5712
1644169248.509118,-0.01062,0.008545,-0.993652,0.312458,0.508702,0.006412,55,274,573,5632
1644169248.557503,-0.011047,0.009827,-0.991516,0.205588,0.401832,-0.222595,43,266,573,5648
1644169248.605893,-0.01178,0.010986,-0.992065,0.159786,0.417099,-0.14626,45,273,575,5648
1644169248.654284,-0.011475,0.012085,-0.990662,0.236122,0.340763,0.021679,48,279,578,5648
1644169248.702699,-0.008484,0.010925,-0.99176,0.404061,0.462901,-0.192061,52,275,579,5664
1644169248.751049,-0.009155,0.010864,-0.991089,0.251389,0.478168,-0.192061,48,271,576,5696
1644169248.799463,-0.011108,0.010803,-0.991882,0.098718,0.539237,-0.14626,53,269,571,5696
1644169248.847898,-0.009949,0.007996,-0.991028,0.373527,0.310229,-0.039389,48,274,576,5648
1644169248.897903,-0.01001,0.012024,-0.98938,0.236122,0.401832,-0.192061,51,264,573,5664
1644169248.948199,-0.010132,0.011414,-0.991821,0.144519,0.432366,-0.054656,41,271,571,5712
1644169248.998348,-0.011353,0.010986,-0.988525,0.236122,0.600305,-0.14626,51,266,583,5648
1644169249.055083,-0.01239,0.008362,-0.991699,0.266656,0.340763,-0.115725,53,274,580,5664
1644169249.138227,-0.009766,0.008789,-0.991638,0.266656,0.264427,-0.054656,41,269,576,5664
1644169249.186573,-0.008911,0.007935,-0.991821,0.236122,0.417099,-0.039389,43,283,573,5696
1644169249.23522,-0.011597,0.009888,-0.992371,0.175053,0.462901,-0.008855,54,273,582,5648
1644169249.283367,-0.011108,0.008057,-0.992554,0.373527,0.386565,0.036947,46,271,585,5664
1644169249.331755,-0.011475,0.010376,-0.989746,0.281924,0.371298,-0.039389,42,270,577,5664
1644169249.38015,-0.013489,0.010376,-0.993042,0.327725,0.386565,-0.069924,46,276,590,5632
1644169249.428545,-0.009033,0.009766,-0.992371,0.266656,0.325496,-0.222595,53,266,576,5648
1644169249.47691,-0.009644,0.011047,-0.990723,0.190321,0.371298,0.021679,41,276,583,5696
1644169249.525315,-0.009705,0.012634,-0.995361,0.129252,0.371298,-0.054656,47,265,579,5696
1644169249.573697,-0.011108,0.010864,-0.990234,0.098718,0.401832,-0.130992,51,274,573,5664
1644169249.622206,-0.007568,0.00946,-0.990784,0.190321,0.417099,-0.161527,61,273,582,5664
1644169249.670506,-0.009705,0.009949,-0.989441,0.342992,0.356031,-0.069924,51,281,569,5648
1644169249.718884,-0.012085,0.01239,-0.992432,0.113985,0.356031,-0.192061,48,286,569,5664
1644169249.767276,-0.011047,0.009705,-0.99115,0.266656,0.279695,-0.085191,57,285,577,5632
1644169249.815678,-0.008484,0.009888,-0.992004,0.144519,0.432366,-0.085191,57,263,572,5664
1644169249.864112,-0.012024,0.009949,-0.99176,0.434595,0.432366,-0.054656,53,274,564,5696
1644169249.912474,-0.008606,0.011963,-0.991394,0.236122,0.24916,-0.130992,49,282,582,5712
1644169249.961171,-0.009338,0.009888,-0.988525,0.205588,0.508702,-0.25313,55,269,580,5664
1644169250.067221,-0.01239,0.009155,-0.988464,0.251389,0.417099,-0.069924,57,268,582,5696
1644169250.10706,-0.010803,0.010437,-0.992554,0.281924,0.340763,-0.161527,49,277,575,5648
1644169250.154424,-0.008911,0.009338,-0.991455,0.205588,0.386565,-0.176794,52,273,577,5696
1644169250.202819,-0.01239,0.007324,-0.991821,0.266656,0.508702,-0.222595,41,291,578,5664
1644169250.25115,-0.006653,0.009583,-0.991089,0.205588,0.356031,-0.176794,43,281,576,5664
1644169250.29958,-0.008362,0.009705,-0.990479,0.342992,0.401832,-0.100458,52,273,575,5728
1644169250.347971,-0.011047,0.009155,-0.990967,0.297191,0.356031,-0.069924,48,279,571,5696
1644169250.396359,-0.011658,0.010559,-0.98938,0.129252,0.447634,-0.115725,52,277,579,5664
1644169250.44475,-0.010986,0.010559,-0.99115,0.205588,0.447634,-0.115725,64,277,570,5600
1644169250.493121,-0.009277,0.007812,-0.991821,0.266656,0.310229,-0.100458,51,276,576,5696
1644169250.541521,-0.009277,0.007874,-0.992188,0.266656,0.478168,-0.14626,53,274,571,5664
1644169250.589908,-0.009399,0.007019,-0.991394,0.236122,0.539237,-0.100458,49,270,570,5664
1644169250.638308,-0.011597,0.008667,-0.989563,0.342992,0.417099,-0.024122,45,268,568,5696
1644169250.686698,-0.010864,0.007263,-0.992188,0.266656,0.371298,-0.115725,48,279,569,5600
1644169250.735446,-0.010132,0.009094,-0.991333,0.236122,0.417099,-0.039389,52,275,570,5664
1644169250.784973,-0.011414,0.010498,-0.989868,0.236122,0.371298,-0.161527,48,271,573,5664
1644169250.835871,-0.00885,0.006531,-0.990906,0.236122,0.386565,-0.100458,58,262,580,5696
1644169250.880799,-0.011047,0.006348,-0.992126,0.098718,0.417099,-0.207328,52,277,565,5648
1644169250.977062,-0.010925,0.008301,-0.992004,0.266656,0.508702,-0.054656,60,266,585,5664
1644169251.025445,-0.010132,0.00824,-0.990112,0.251389,0.447634,-0.176794,49,275,568,5664
1644169251.073952,-0.011414,0.008179,-0.990723,0.373527,0.340763,-0.069924,47,270,568,5664
1644169251.122264,-0.011658,0.011169,-0.992676,0.297191,0.386565,-0.054656,58,288,578,5584
1644169251.17062,-0.010681,0.007751,-0.993347,0.159786,0.478168,-0.008855,45,273,572,5712
1644169251.219044,-0.008545,0.008972,-0.993164,0.220855,0.401832,0.006412,57,277,570,5696
1644169251.267407,-0.009338,0.011047,-0.991638,0.205588,0.325496,-0.100458,54,263,577,5664
1644169251.315817,-0.009155,0.006592,-0.991882,0.236122,0.356031,-0.283664,48,276,573,5696
1644169251.364216,-0.010071,0.009338,-0.992737,0.236122,0.417099,-0.008855,48,274,576,5664
1644169251.412599,-0.010437,0.010132,-0.989014,0.113985,0.432366,-0.130992,47,268,577,5648
1644169251.460966,-0.008606,0.009277,-0.991882,0.236122,0.523969,0.036947,52,282,577,5696
1644169251.509351,-0.009583,0.010803,-0.99469,0.281924,0.371298,-0.054656,53,271,571,5648
1644169251.557771,-0.008789,0.008545,-0.991638,0.266656,0.447634,-0.008855,52,280,572,5632
1644169251.606136,-0.010498,0.010376,-0.98877,0.373527,0.447634,-0.100458,45,270,586,5664
1644169251.654545,-0.010315,0.009094,-0.993469,0.190321,0.417099,-0.054656,55,276,578,5696
1644169251.702958,-0.012695,0.009216,-0.990051,0.113985,0.478168,-0.192061,46,276,573,5552
1644169251.7513,-0.008179,0.006714,-0.991394,0.266656,0.401832,-0.085191,40,270,577,5696
1644169251.800501,-0.011169,0.011353,-0.9953,0.236122,0.371298,-0.085191,46,279,580,5648
1644169251.84813,-0.011719,0.011658,-0.989136,0.144519,0.386565,-0.100458,51,283,573,5696
1644169251.897967,-0.010803,0.009583,-0.991272,0.327725,0.325496,-0.054656,46,274,571,5696
1644169251.948344,-0.014038,0.010193,-0.990173,0.342992,0.447634,-0.192061,48,266,571,5664
1644169251.998636,-0.008911,0.009644,-0.991089,0.205588,0.508702,-0.222595,48,276,576,5664
1644169252.043123,-0.010132,0.011475,-0.990967,0.190321,0.401832,-0.100458,51,269,590,5664
1644169252.13842,-0.011841,0.00824,-0.991394,0.205588,0.264427,-0.100458,48,269,573,5712
1644169252.186786,-0.007751,0.009094,-0.992432,0.129252,0.340763,-0.039389,51,266,576,5696
1644169252.235382,-0.00708,0.007996,-0.989441,0.205588,0.294962,-0.085191,55,271,585,5664
1644169252.283588,-0.009094,0.008911,-0.990479,0.129252,0.432366,-0.054656,54,273,577,5584
1644169252.331969,-0.011108,0.011475,-0.992737,0.220855,0.432366,0.052214,47,275,577,5712
1644169252.380373,-0.010132,0.00946,-0.989685,0.08345,0.371298,-0.115725,51,279,576,5632
1644169252.428745,-0.011414,0.009705,-0.98877,0.312458,0.371298,-0.100458,52,280,575,5648
1644169252.47714,-0.009644,0.009521,-0.991577,0.159786,0.539237,-0.069924,57,265,575,5664
1644169252.525538,-0.010681,0.010132,-0.992798,0.312458,0.325496,-0.024122,45,275,579,5648
1644169252.573941,-0.011536,0.009949,-0.987854,0.297191,0.417099,-0.069924,42,275,577,5648
1644169252.622332,-0.011108,0.009705,-0.990845,0.266656,0.340763,-0.100458,52,270,572,5664
1644169252.670709,-0.009644,0.010803,-0.990906,0.266656,0.523969,-0.024122,54,273,575,5664
1644169252.719077,-0.011108,0.011658,-0.98999,0.251389,0.371298,-0.161527,43,274,569,5632
1644169252.767489,-0.009644,0.006775,-0.989929,0.373527,0.493435,-0.329466,48,264,562,5648
1644169252.81593,-0.010742,0.011047,-0.989624,0.297191,0.401832,-0.100458,54,282,579,5648
1644169252.864322,-0.008728,0.012085,-0.989136,0.144519,0.523969,-0.039389,47,277,568,5664
1644169252.91272,-0.011169,0.00824,-0.994751,0.297191,0.371298,-0.115725,49,282,570,5712
1644169252.961416,-0.008972,0.010376,-0.991028,0.266656,0.356031,-0.192061,39,276,580,5664
1644169253.062835,-0.012573,0.009277,-0.991577,0.129252,0.462901,-0.115725,54,275,572,5696
1644169253.106219,-0.009094,0.009338,-0.990112,0.281924,0.310229,-0.25313,54,265,577,5664
1644169253.154848,-0.011169,0.010803,-0.991333,0.190321,0.401832,-0.054656,62,274,585,5664
1644169253.203033,-0.013184,0.009033,-0.992126,0.236122,0.554504,-0.130992,58,266,569,5696
1644169253.251374,-0.011414,0.011169,-0.990845,0.159786,0.432366,-0.085191,46,274,578,5728
1644169253.299786,-0.010803,0.011597,-0.990906,0.495664,0.310229,-0.14626,62,274,566,5664
1644169253.348169,-0.007385,0.009949,-0.99353,0.144519,0.417099,-0.115725,49,285,568,5696
1644169253.396566,-0.009277,0.006409,-0.993774,0.190321,0.447634,-0.039389,55,262,571,5696
1644169253.445082,-0.010559,0.009094,-0.989868,0.404061,0.371298,-0.207328,52,275,575,5696
1644169253.493333,-0.011169,0.010254,-0.992065,0.175053,0.356031,-0.039389,41,266,576,5632
1644169253.541741,-0.010986,0.007751,-0.990234,0.266656,0.569771,-0.115725,49,273,568,5648
1644169253.590132,-0.009521,0.008911,-0.990784,0.297191,0.417099,-0.176794,53,286,580,5728
1644169253.638528,-0.006775,0.008728,-0.991882,0.08345,0.432366,-0.100458,43,279,580,5648
1644169253.686916,-0.008728,0.010315,-0.991821,0.312458,0.386565,-0.008855,51,269,573,5712
1644169253.735306,-0.009766,0.009827,-0.99231,0.129252,0.462901,-0.130992,49,268,577,5648
1644169253.783694,-0.01239,0.008972,-0.990051,0.220855,0.417099,0.021679,51,266,576,5648
1644169253.832989,-0.0047,0.010132,-0.989685,0.388794,0.340763,-0.069924,52,265,570,5664
1644169253.882545,-0.009277,0.011841,-0.991394,0.312458,0.447634,-0.161527,51,264,580,5664
1644169253.9335,-0.01062,0.010986,-0.988342,0.251389,0.401832,-0.069924,46,283,578,5712
1644169253.977672,-0.011597,0.008667,-0.993591,0.175053,0.432366,-0.069924,43,266,578,5664
1644169254.074198,-0.010132,0.010132,-0.99231,0.220855,0.417099,-0.085191,45,270,579,5664
1644169254.122482,-0.00824,0.008118,-0.991333,0.190321,0.585038,-0.039389,54,275,568,5632
1644169254.170818,-0.008362,0.00592,-0.990723,0.342992,0.386565,-0.039389,54,277,579,5696
1644169254.219199,-0.011292,0.010376,-0.990784,0.312458,0.264427,-0.085191,49,275,572,5696
1644169254.267594,-0.010193,0.009155,-0.992737,0.08345,0.462901,-0.176794,41,264,569,5664
1644169254.315987,-0.010742,0.011597,-0.992676,0.144519,0.462901,-0.039389,54,263,577,5664
1644169254.364377,-0.011108,0.009399,-0.991211,0.220855,0.386565,0.036947,49,277,570,5696
1644169254.412782,-0.013123,0.009338,-0.991821,0.236122,0.386565,-0.115725,54,263,563,5696
1644169254.461159,-0.00946,0.009827,-0.992371,0.327725,0.600305,-0.115725,57,268,577,5648
1644169254.509555,-0.009888,0.01001,-0.991882,0.251389,0.508702,-0.100458,62,279,573,5696
1644169254.557951,-0.013245,0.008423,-0.991455,0.220855,0.356031,-0.024122,49,277,582,5664
1644169254.606335,-0.010254,0.011169,-0.992737,0.251389,0.615573,-0.222595,55,271,578,5664
1644169254.654733,-0.007996,0.009521,-0.993164,0.312458,0.447634,-0.054656,49,273,582,5664
1644169254.703134,-0.007996,0.008362,-0.993896,0.205588,0.294962,-0.100458,53,276,571,5696
1644169254.751475,-0.008789,0.010559,-0.992615,0.068183,0.478168,-0.14626,47,270,577,5664
1644169254.799903,-0.012634,0.010742,-0.993408,0.190321,0.340763,-0.039389,49,270,572,5664
1644169254.848324,-0.00885,0.010498,-0.992249,0.373527,0.417099,-0.100458,52,280,579,5664
1644169254.897012,-0.010559,0.008789,-0.992126,0.312458,0.340763,0.036947,36,279,580,5648
1644169254.945173,-0.009888,0.010803,-0.991699,0.190321,0.569771,0.052214,54,280,572,5648
1644169254.994811,-0.01123,0.010132,-0.990356,0.327725,0.340763,-0.14626,40,280,570,5632
1644169255.057359,-0.007812,0.008545,-0.992615,0.159786,0.462901,-0.130992,53,274,569,5696
1644169255.100321,-0.00885,0.009155,-0.990967,0.342992,0.478168,-0.100458,52,280,579,5664
1644169255.139978,-0.012939,0.007019,-0.992371,0.220855,0.417099,-0.039389,59,273,579,5632
1644169255.235399,-0.010376,0.011108,-0.98877,0.175053,0.401832,-0.054656,42,273,570,5664
1644169255.283798,-0.009277,0.01062,-0.991821,0.159786,0.447634,-0.176794,48,264,576,5696
1644169255.33239,-0.013855,0.010254,-0.99353,0.251389,0.478168,0.113282,57,270,570,5648
1644169255.380545,-0.011536,0.009277,-0.993469,0.297191,0.554504,-0.100458,52,265,584,5648
1644169255.42896,-0.010681,0.009094,-0.99115,0.144519,0.356031,-0.085191,45,285,568,5696
1644169255.477356,-0.011047,0.009155,-0.990417,0.266656,0.493435,-0.25313,60,276,576,5664
1644169255.52575,-0.01178,0.012024,-0.990234,0.297191,0.508702,0.036947,53,269,580,5696
1644169255.574153,-0.011169,0.009033,-0.989441,0.266656,0.401832,-0.100458,43,266,578,5696
1644169255.622551,-0.010071,0.007751,-0.993286,0.281924,0.233893,0.113282,46,274,578,5600
1644169255.670908,-0.009644,0.008362,-0.992798,0.205588,0.478168,0.006412,54,268,570,5696
1644169255.719324,-0.011292,0.010681,-0.99176,0.236122,0.432366,-0.130992,51,276,566,5696
1644169255.767721,-0.010925,0.011536,-0.993469,0.220855,0.24916,-0.161527,47,270,561,5664
1644169255.816098,-0.01001,0.010132,-0.993225,0.297191,0.340763,0.021679,58,271,573,5664
1644169255.864529,-0.011597,0.00885,-0.99408,0.220855,0.340763,0.098015,57,270,575,5600
1644169255.912941,-0.011963,0.007629,-0.989075,0.419328,0.371298,-0.268397,54,275,575,5648
1644169255.961308,-0.006531,0.009949,-0.991089,0.113985,0.371298,-0.14626,51,279,573,5648
1644169256.0097,-0.011108,0.008606,-0.991882,0.297191,0.462901,-0.115725,43,274,576,5600
1644169256.067466,-0.012329,0.009033,-0.991821,0.205588,0.432366,-0.161527,62,269,583,5584
1644169256.110507,-0.009094,0.006836,-0.990601,0.266656,0.432366,-0.008855,43,276,576,5552
1644169256.155673,-0.010498,0.007507,-0.990417,0.373527,0.417099,-0.069924,52,280,570,5664
1644169256.204992,-0.010437,0.010437,-0.993164,0.266656,0.478168,-0.100458,45,275,575,5648
1644169256.255154,-0.010315,0.009949,-0.993347,0.236122,0.432366,-0.222595,51,271,564,5664
1644169256.300026,-0.011047,0.010193,-0.992798,0.08345,0.569771,-0.222595,62,274,580,5664
1644169256.396774,-0.010498,0.012085,-0.992737,0.220855,0.356031,-0.130992,48,281,566,5648
1644169256.445362,-0.007385,0.01001,-0.99231,0.35826,0.447634,-0.115725,45,277,575,5648
1644169256.493553,-0.009827,0.012695,-0.99115,0.35826,0.432366,-0.069924,51,276,566,5600
1644169256.541953,-0.010559,0.007935,-0.99408,0.251389,0.356031,-0.130992,53,271,578,5632
1644169256.590336,-0.010498,0.009521,-0.993408,0.098718,0.340763,-0.069924,51,266,566,5648
1644169256.638709,-0.011047,0.006226,-0.991943,0.159786,0.508702,-0.069924,47,273,577,5696
1644169256.68711,-0.010681,0.00885,-0.992493,0.251389,0.401832,0.067481,52,273,575,5696
1644169256.735514,-0.00824,0.011536,-0.991577,0.144519,0.279695,-0.054656,39,269,587,5696
1644169256.783909,-0.009705,0.009155,-0.993042,0.35826,0.294962,-0.085191,59,270,577,5696
1644169256.832312,-0.010803,0.00824,-0.991333,0.113985,0.340763,-0.039389,43,276,580,5648
1644169256.880721,-0.010498,0.008728,-0.99408,0.419328,0.493435,-0.207328,46,276,580,5664
1644169256.929112,-0.010925,0.008972,-0.991882,0.159786,0.554504,-0.161527,48,274,564,5696
1644169256.977508,-0.009888,0.009094,-0.992126,0.236122,0.600305,-0.024122,57,280,572,5664
1644169257.025892,-0.010071,0.010803,-0.991638,0.297191,0.478168,0.006412,58,264,573,5696
1644169257.095894,-0.009094,0.009521,-0.993164,0.220855,0.356031,-0.024122,41,274,580,5648
1644169257.122672,-0.009338,0.011353,-0.992737,0.312458,0.432366,-0.161527,46,271,580,5696
1644169257.171173,-0.008667,0.009033,-0.991455,0.175053,0.371298,-0.085191,47,280,575,5696
1644169257.220456,-0.007507,0.007019,-0.98938,0.251389,0.386565,-0.069924,58,266,580,5648
1644169257.270985,-0.010376,0.009521,-0.990967,0.251389,0.264427,0.12855,51,271,571,5600
1644169257.321159,-0.009705,0.011169,-0.992126,0.297191,0.325496,-0.039389,54,275,572,5712
1644169257.413046,-0.012451,0.010193,-0.991821,0.251389,0.539237,-0.130992,45,273,584,5664
1644169257.461376,-0.009521,0.007385,-0.994202,0.129252,0.493435,-0.161527,45,277,572,5664
1644169257.509762,-0.010437,0.00824,-0.991028,0.144519,0.310229,-0.039389,47,273,568,5648
1644169257.558153,-0.009399,0.010742,-0.991699,0.281924,0.432366,-0.024122,49,270,570,5696
1644169257.606559,-0.010559,0.010071,-0.992554,0.144519,0.401832,-0.085191,54,282,579,5664
1644169257.654986,-0.008972,0.01062,-0.992371,0.220855,0.294962,-0.100458,49,282,582,5664
1644169257.703332,-0.009766,0.009888,-0.989319,0.190321,0.508702,-0.130992,45,268,577,5712
1644169257.751699,-0.01001,0.010376,-0.990479,0.159786,0.340763,-0.008855,54,277,570,5648
1644169257.800105,-0.011902,0.008057,-0.992126,0.312458,0.371298,-0.039389,52,273,577,5648
1644169257.848497,-0.010803,0.008179,-0.988525,0.373527,0.386565,-0.069924,51,271,576,5696
1644169257.896937,-0.010437,0.009705,-0.990662,0.159786,0.294962,0.067481,51,283,564,5696
1644169257.94534,-0.00946,0.007629,-0.99176,0.266656,0.356031,-0.008855,53,288,569,5648
1644169257.993759,-0.010559,0.00946,-0.991638,0.098718,0.325496,-0.14626,54,273,579,5696
1644169258.04276,-0.00946,0.01178,-0.993896,0.113985,0.508702,-0.054656,52,265,575,5664
1644169258.090629,-0.012207,0.01178,-0.993042,0.35826,0.417099,-0.115725,42,265,579,5712
1644169258.138896,-0.009766,0.010498,-0.991211,0.144519,0.554504,-0.039389,55,266,576,5712
1644169258.187253,-0.013062,0.008057,-0.993042,0.342992,0.539237,-0.024122,52,282,586,5664
1644169258.235671,-0.01178,0.008728,-0.993469,0.312458,0.478168,-0.115725,43,271,569,5664
1644169258.284074,-0.006958,0.008118,-0.991211,0.266656,0.417099,-0.192061,45,273,572,5712
1644169258.333895,-0.012817,0.011292,-0.992737,0.220855,0.294962,-0.085191,41,266,580,5664
1644169258.384202,-0.012939,0.009888,-0.993774,0.220855,0.310229,-0.069924,46,279,571,5648
1644169258.434195,-0.011963,0.011169,-0.993347,0.159786,0.432366,-0.237863,48,281,571,5696
1644169258.478871,-0.008728,0.007996,-0.990845,0.312458,0.386565,-0.054656,52,277,570,5664
1644169258.574411,-0.009216,0.011475,-0.989807,0.449863,0.417099,-0.100458,52,270,565,5648
1644169258.622823,-0.011108,0.010071,-0.991455,0.373527,0.356031,0.021679,51,274,578,5648
1644169258.671181,-0.008728,0.009705,-0.992126,0.281924,0.310229,-0.100458,47,275,568,5712
1644169258.719595,-0.009338,0.011169,-0.993347,0.388794,0.401832,-0.115725,51,283,573,5648
1644169258.767961,-0.010498,0.009094,-0.991333,0.113985,0.325496,-0.176794,53,274,573,5760
1644169258.816345,-0.010742,0.01001,-0.99292,0.266656,0.264427,-0.008855,54,280,572,5664
1644169258.864754,-0.007263,0.008362,-0.992615,0.236122,0.417099,-0.176794,55,276,571,5664
1644169258.913163,-0.010437,0.007751,-0.990601,0.144519,0.493435,-0.192061,40,273,575,5664
1644169258.96152,-0.008972,0.009033,-0.991394,0.297191,0.554504,-0.192061,49,268,572,5648
1644169259.009921,-0.009338,0.008606,-0.99054,0.297191,0.523969,-0.222595,53,271,566,5664
1644169259.066013,-0.010315,0.013611,-0.990906,0.281924,0.417099,-0.222595,51,279,571,5664
1644169259.106684,-0.009216,0.008789,-0.992676,0.312458,0.432366,0.021679,49,273,582,5648
1644169259.155216,-0.012451,0.01001,-0.994263,0.266656,0.493435,-0.024122,41,274,566,5632
1644169259.203462,-0.010925,0.006958,-0.992371,0.266656,0.462901,-0.14626,52,275,570,5696
1644169259.251827,-0.013245,0.010254,-0.991577,0.419328,0.508702,-0.039389,58,279,587,5632
1644169259.300214,-0.011597,0.010498,-0.994995,0.144519,0.386565,-0.130992,55,274,571,5648
1644169259.348613,-0.013,0.010742,-0.994324,0.251389,0.508702,-0.024122,46,274,583,5664
1644169259.396971,-0.009644,0.01123,-0.992065,0.312458,0.554504,-0.14626,60,266,587,5632
1644169259.445639,-0.00946,0.009949,-0.990112,0.159786,0.371298,-0.039389,43,279,576,5712
1644169259.495122,-0.009277,0.009155,-0.993347,0.312458,0.417099,-0.039389,52,282,570,5664
1644169259.545048,-0.008728,0.010437,-0.989624,0.236122,0.447634,-0.222595,47,273,575,5584
1644169259.595397,-0.010376,0.009094,-0.991638,0.175053,0.478168,-0.054656,55,274,580,5664
1644169259.640198,-0.008728,0.008301,-0.993408,0.327725,0.386565,-0.176794,43,271,564,5696
1644169259.735724,-0.009338,0.008057,-0.990173,0.144519,0.340763,-0.130992,46,269,576,5696
1644169259.784155,-0.008789,0.011719,-0.992493,0.327725,0.371298,-0.039389,45,263,582,5664
1644169259.83259,-0.011414,0.00708,-0.991882,0.236122,0.340763,0.021679,57,273,582,5664
1644169259.880935,-0.008545,0.006836,-0.992371,0.175053,0.325496,-0.054656,48,264,573,5664
1644169259.929344,-0.009827,0.007874,-0.991943,0.373527,0.356031,0.052214,46,274,580,5664
1644169259.977731,-0.011536,0.008179,-0.992798,0.281924,0.340763,-0.161527,49,268,579,5648
1644169260.026124,-0.008728,0.009277,-0.992004,0.312458,0.432366,-0.069924,41,274,571,5664
1644169260.074845,-0.010803,0.011047,-0.993286,0.251389,0.340763,-0.085191,47,275,572,5696
1644169260.122908,-0.008545,0.011047,-0.994446,0.251389,0.310229,-0.069924,55,279,585,5664
1644169260.171257,-0.009277,0.007141,-0.992554,0.205588,0.386565,-0.024122,53,276,569,5696
1644169260.219627,-0.010376,0.008545,-0.992493,0.266656,0.356031,-0.14626,51,276,576,5648
1644169260.268001,-0.010254,0.011292,-0.993591,0.46513,0.356031,-0.115725,48,279,578,5648
1644169260.316393,-0.008667,0.008789,-0.990784,0.388794,0.554504,0.006412,47,277,586,5696
1644169260.364825,-0.009705,0.008545,-0.995056,0.297191,0.493435,-0.069924,48,271,573,5696
1644169260.413232,-0.012207,0.008179,-0.991699,0.236122,0.340763,0.006412,58,271,576,5664
1644169260.461569,-0.008728,0.008667,-0.989319,0.266656,0.386565,-0.069924,53,279,569,5664
1644169260.509989,-0.011414,0.011169,-0.992371,0.251389,0.462901,-0.100458,55,276,580,5728
1644169260.558374,-0.009888,0.007446,-0.991943,0.175053,0.417099,-0.024122,58,269,578,5648
1644169260.606762,-0.010376,0.007385,-0.989075,0.220855,0.294962,-0.207328,54,270,577,5664
1644169260.655592,-0.009888,0.008362,-0.991272,0.175053,0.310229,-0.100458,60,271,578,5648
1644169260.705881,-0.010925,0.006958,-0.991272,0.129252,0.386565,-0.100458,47,273,563,5696
1644169260.756056,-0.009521,0.009644,-0.994202,0.190321,0.462901,-0.14626,46,271,576,5664
1644169260.801073,-0.010071,0.007751,-0.99292,0.159786,0.447634,-0.161527,55,281,580,5632
1644169260.897141,-0.013611,0.012024,-0.98999,0.312458,0.478168,-0.085191,60,279,566,5648
1644169260.945523,-0.009888,0.010742,-0.993958,0.251389,0.371298,0.052214,53,279,566,5664
1644169260.993931,-0.009277,0.009888,-0.99115,0.35826,0.569771,0.082748,48,276,573,5648
1644169261.042522,-0.009827,0.010864,-0.991394,0.220855,0.417099,-0.207328,47,268,577,5648
1644169261.095218,-0.012207,0.009827,-0.991272,0.327725,0.478168,-0.100458,61,270,577,5760
1644169261.139067,-0.01062,0.010193,-0.992981,0.281924,0.447634,-0.069924,59,273,572,5712
1644169261.187448,-0.012146,0.01001,-0.99054,0.266656,0.325496,-0.115725,54,268,575,5600
1644169261.235845,-0.011353,0.010498,-0.991638,0.327725,0.401832,-0.024122,52,270,570,5696
1644169261.284239,-0.009766,0.009033,-0.987976,0.281924,0.371298,-0.161527,49,282,577,5664
1644169261.332644,-0.009644,0.009949,-0.991089,0.312458,0.325496,-0.024122,43,266,576,5664
1644169261.38102,-0.010803,0.01123,-0.993225,0.342992,0.264427,-0.130992,55,269,580,5712
1644169261.429405,-0.010132,0.008423,-0.992188,0.144519,0.417099,-0.100458,48,269,578,5664
1644169261.477791,-0.011047,0.007263,-0.99054,0.175053,0.386565,-0.085191,43,279,585,5712
1644169261.526549,-0.011597,0.007935,-0.992371,0.327725,0.356031,0.052214,53,276,576,5664
1644169261.576751,-0.011047,0.010376,-0.99408,0.312458,0.371298,-0.039389,43,279,580,5664
1644169261.626901,-0.011658,0.007935,-0.993408,0.266656,0.478168,-0.054656,54,275,589,5696
1644169261.671979,-0.009644,0.008484,-0.991089,0.236122,0.478168,-0.085191,55,283,576,5696
1644169261.768122,-0.008911,0.008789,-0.993652,0.236122,0.432366,-0.14626,59,277,575,5632
1644169261.81651,-0.012329,0.011719,-0.991882,0.08345,0.462901,-0.054656,57,270,579,5664
1644169261.865013,-0.010376,0.009033,-0.993225,0.373527,0.417099,0.098015,53,269,576,5648
1644169261.913335,-0.008362,0.010559,-0.990234,0.480397,0.386565,-0.130992,46,274,576,5696
1644169261.961784,-0.011902,0.009338,-0.993225,0.190321,0.432366,-0.130992,48,271,573,5696
1644169262.010128,-0.009888,0.012207,-0.991516,0.144519,0.493435,-0.161527,52,277,577,5648
1644169262.060408,-0.010925,0.009583,-0.990723,0.266656,0.203359,-0.176794,53,279,576,5664
1644169262.106901,-0.007751,0.009949,-0.992859,0.159786,0.478168,-0.222595,55,266,578,5760
1644169262.155253,-0.007324,0.008667,-0.989441,0.266656,0.386565,-0.024122,45,268,572,5648
1644169262.203652,-0.010925,0.011841,-0.990906,0.266656,0.371298,-0.176794,54,275,579,5664
1644169262.252051,-0.009033,0.009033,-0.993469,0.236122,0.569771,-0.054656,53,266,573,5664
1644169262.300429,-0.009705,0.010437,-0.992798,0.052916,0.585038,-0.008855,60,279,580,5600
1644169262.348828,-0.006165,0.011047,-0.993103,0.098718,0.585038,-0.054656,58,269,578,5696
1644169262.39722,-0.010742,0.00824,-0.989563,0.373527,0.386565,-0.192061,55,271,573,5648
1644169262.445615,-0.009827,0.009644,-0.989319,0.113985,0.539237,-0.192061,62,276,580,5664
1644169262.494005,-0.008362,0.009338,-0.990967,0.205588,0.218626,-0.115725,46,274,576,5696
1644169262.542408,-0.010498,0.009827,-0.992188,0.266656,0.569771,-0.115725,52,277,572,5712
1644169262.590769,-0.014648,0.006958,-0.991577,0.236122,0.340763,-0.085191,59,268,572,5632
1644169262.639172,-0.011169,0.011597,-0.988586,0.266656,0.462901,-0.14626,52,270,577,5648
1644169262.687901,-0.007202,0.010376,-0.99292,0.205588,0.356031,-0.14626,52,275,577,5760
1644169262.738646,-0.008728,0.008179,-0.991821,0.220855,0.432366,-0.25313,40,260,582,5648
1644169262.789032,-0.008301,0.008606,-0.990356,0.175053,0.447634,-0.008855,52,282,570,5664
1644169262.833566,-0.010742,0.008057,-0.992615,0.220855,0.432366,-0.085191,42,277,577,5648
1644169262.92955,-0.010376,0.010376,-0.992554,0.388794,0.233893,-0.069924,60,271,573,5664
1644169262.977933,-0.011047,0.007507,-0.993835,0.297191,0.356031,-0.100458,47,268,563,5696
1644169263.02633,-0.008728,0.008484,-0.991089,0.312458,0.279695,-0.207328,57,268,572,5696
1644169263.075367,-0.009155,0.008545,-0.992004,0.236122,0.401832,0.006412,47,263,579,5648
1644169263.123128,-0.009583,0.008545,-0.99054,0.297191,0.371298,0.036947,47,280,572,5728
1644169263.171458,-0.011047,0.009216,-0.990173,0.388794,0.554504,-0.100458,58,271,580,5696
1644169263.219857,-0.010681,0.011414,-0.990601,0.480397,0.401832,-0.161527,52,273,565,5664
1644169263.268215,-0.009399,0.010071,-0.991028,0.35826,0.371298,-0.100458,48,269,571,5712
1644169263.316639,-0.010315,0.007202,-0.990723,0.312458,0.523969,0.052214,49,270,575,5664
1644169263.365138,-0.011536,0.010437,-0.991638,0.297191,0.432366,-0.130992,55,271,571,5760
1644169263.413433,-0.007996,0.008667,-0.994324,0.266656,0.386565,0.052214,47,273,582,5696
1644169263.461811,-0.014038,0.008362,-0.98938,0.144519,0.417099,-0.008855,42,277,586,5648
1644169263.510187,-0.009766,0.010437,-0.990295,0.266656,0.417099,-0.024122,53,274,578,5696
1644169263.558599,-0.007568,0.008057,-0.990479,0.236122,0.294962,-0.069924,54,277,572,5664
1644169263.606977,-0.01123,0.008606,-0.992371,0.205588,0.523969,0.067481,51,279,566,5648
1644169263.655366,-0.011108,0.008179,-0.992615,0.220855,0.447634,0.006412,51,279,566,5664
1644169263.703761,-0.007874,0.007385,-0.992859,0.281924,0.340763,-0.207328,49,270,579,5696
1644169263.752418,-0.00885,0.009644,-0.992249,0.251389,0.310229,-0.085191,59,277,572,5648
1644169263.801224,-0.00946,0.009644,-0.990906,0.327725,0.447634,-0.14626,57,275,582,5696
1644169263.85049,-0.01123,0.008789,-0.992737,0.35826,0.432366,-0.14626,51,269,573,5648
1644169263.900963,-0.010193,0.009583,-0.991638,0.220855,0.325496,-0.161527,52,270,568,5664
1644169263.95122,-0.009399,0.011536,-0.991089,0.312458,0.386565,-0.085191,46,269,571,5696
1644169264.060438,-0.010315,0.010132,-0.991699,0.159786,0.432366,-0.161527,57,275,577,5664
1644169264.092454,-0.012146,0.011108,-0.991638,0.281924,0.417099,-0.069924,64,273,584,5696
1644169264.139312,-0.01001,0.010071,-0.992737,0.129252,0.310229,-0.039389,48,269,571,5664
1644169264.18766,-0.008667,0.01062,-0.990234,0.327725,0.447634,0.052214,46,271,573,5728
1644169264.236048,-0.008667,0.009399,-0.993164,0.35826,0.294962,-0.039389,45,275,582,5600
1644169264.284451,-0.010071,0.009521,-0.988464,0.205588,0.462901,-0.192061,39,274,585,5696
1644169264.332855,-0.009766,0.009277,-0.990051,0.159786,0.569771,-0.085191,48,271,576,5584
1644169264.381207,-0.010071,0.008911,-0.991821,0.251389,0.554504,0.021679,57,280,572,5648
1644169264.4296,-0.011475,0.006653,-0.992432,0.236122,0.432366,-0.176794,57,282,579,5648
1644169264.478105,-0.008179,0.009644,-0.991028,0.159786,0.325496,0.021679,47,275,579,5648
1644169264.527763,-0.010986,0.00946,-0.992249,0.35826,0.523969,0.036947,45,270,568,5664
1644169264.578332,-0.01123,0.006897,-0.99176,0.175053,0.264427,-0.207328,46,266,569,5664
1644169264.628573,-0.011353,0.01123,-0.992676,0.342992,0.478168,-0.069924,43,276,573,5648
1644169264.719941,-0.011169,0.009644,-0.990601,0.113985,0.371298,0.036947,52,277,575,5600
1644169264.768331,-0.011047,0.012634,-0.990417,0.266656,0.401832,0.021679,49,280,575,5648
1644169264.816718,-0.01178,0.010071,-0.991028,0.205588,0.371298,-0.237863,46,274,569,5664
1644169264.865627,-0.009644,0.010071,-0.99408,0.08345,0.371298,0.067481,43,274,569,5664
1644169264.913578,-0.00769,0.009155,-0.991089,0.175053,0.294962,-0.115725,48,276,576,5696
1644169264.961972,-0.011658,0.009521,-0.99353,0.159786,0.493435,-0.176794,48,279,576,5648
1644169265.010349,-0.007507,0.011353,-0.988403,0.129252,0.264427,-0.085191,46,274,573,5664
1644169265.064325,-0.010742,0.011597,-0.990845,0.236122,0.279695,-0.192061,59,282,575,5664
1644169265.107116,-0.013062,0.008179,-0.993469,0.113985,0.356031,-0.054656,59,280,579,5664
1644169265.15547,-0.009094,0.007263,-0.991272,0.35826,0.401832,-0.100458,40,270,577,5712
1644169265.203874,-0.010986,0.008362,-0.989563,0.251389,0.478168,-0.085191,59,275,577,5664
1644169265.252228,-0.01062,0.010803,-0.994202,0.175053,0.462901,-0.14626,49,265,575,5696
1644169265.300652,-0.013855,0.009705,-0.99353,0.251389,0.401832,-0.237863,47,275,572,5648
1644169265.349042,-0.007019,0.009521,-0.993164,0.312458,0.356031,-0.024122,60,262,576,5696
1644169265.397428,-0.009033,0.009033,-0.993469,0.236122,0.371298,-0.085191,54,270,575,5728
1644169265.445822,-0.009399,0.010681,-0.99353,0.236122,0.340763,-0.008855,51,283,585,5696
1644169265.494217,-0.011475,0.011536,-0.994873,0.312458,0.569771,-0.14626,43,274,580,5712
1644169265.542623,-0.010498,0.007874,-0.990417,0.480397,0.386565,-0.069924,53,279,566,5648
1644169265.590984,-0.010986,0.01001,-0.991272,0.251389,0.340763,-0.024122,49,270,579,5712
1644169265.639597,-0.009705,0.010498,-0.99231,0.159786,0.386565,-0.054656,52,277,572,5664
1644169265.689939,-0.009155,0.010132,-0.99115,0.419328,0.24916,-0.039389,40,280,584,5648
1644169265.740173,-0.01123,0.01062,-0.99176,0.190321,0.554504,-0.176794,53,274,578,5664
1644169265.785725,-0.006226,0.008972,-0.993164,0.236122,0.356031,-0.14626,46,271,573,5584
1644169265.881355,-0.010864,0.009277,-0.990173,0.144519,0.493435,-0.100458,34,274,578,5728
1644169265.92979,-0.010498,0.009827,-0.992188,0.175053,0.356031,-0.115725,45,275,577,5664
1644169265.978158,-0.010925,0.010437,-0.990112,0.373527,0.462901,0.006412,52,270,575,5648
1644169266.026539,-0.010559,0.012939,-0.994812,0.098718,0.310229,-0.130992,52,270,577,5664
1644169266.074983,-0.007568,0.011353,-0.994263,0.297191,0.356031,-0.008855,39,279,585,5664
1644169266.123289,-0.009216,0.008301,-0.992737,0.159786,0.325496,0.021679,48,279,569,5648
1644169266.171688,-0.011597,0.013123,-0.992798,0.236122,0.340763,0.082748,45,263,572,5648
1644169266.220071,-0.010803,0.007629,-0.990295,0.175053,0.310229,-0.039389,43,274,573,5648
1644169266.268445,-0.010437,0.009155,-0.991516,0.327725,0.356031,0.052214,46,264,585,5648
1644169266.316857,-0.010376,0.00824,-0.989319,0.220855,0.523969,-0.039389,54,273,577,5648
1644169266.365307,-0.011658,0.009949,-0.991516,0.327725,0.371298,-0.069924,52,280,572,5696
1644169266.41365,-0.012268,0.00824,-0.993896,0.327725,0.264427,0.006412,58,281,576,5664
1644169266.462029,-0.01239,0.011047,-0.991394,0.220855,0.417099,-0.100458,59,270,575,5664
1644169266.510376,-0.012146,0.007751,-0.990479,0.129252,0.386565,-0.054656,47,275,582,5600
1644169266.558789,-0.009216,0.009766,-0.991699,0.251389,0.676641,0.036947,57,260,586,5664
1644169266.607185,-0.012878,0.006531,-0.991943,0.236122,0.554504,0.006412,42,270,577,5648
1644169266.655585,-0.009583,0.010498,-0.993286,0.342992,0.340763,-0.237863,35,275,579,5712
1644169266.703971,-0.007874,0.009705,-0.993347,0.281924,0.356031,-0.024122,42,273,577,5664
1644169266.752439,-0.01062,0.01062,-0.992065,0.297191,0.386565,-0.100458,57,282,570,5648
1644169266.802706,-0.007019,0.008911,-0.992798,0.129252,0.478168,-0.130992,52,263,575,5648
1644169266.85286,-0.011841,0.008972,-0.992798,0.175053,0.493435,-0.054656,52,273,570,5728
1644169266.903015,-0.009338,0.01001,-0.991882,0.113985,0.447634,-0.069924,47,273,582,5664
1644169266.947798,-0.011108,0.007568,-0.995789,0.190321,0.386565,-0.039389,52,270,570,5584
1644169267.056426,-0.009155,0.006165,-0.989624,0.175053,0.523969,-0.085191,40,265,584,5696
1644169267.093031,-0.009094,0.008118,-0.991089,0.281924,0.401832,-0.298931,55,283,576,5648
1644169267.139476,-0.011841,0.011536,-0.98938,0.068183,0.356031,-0.039389,43,269,573,5696
1644169267.18789,-0.00946,0.009338,-0.991699,0.144519,0.462901,-0.100458,51,276,573,5696
1644169267.236275,-0.011963,0.008789,-0.992188,0.312458,0.24916,-0.054656,48,269,576,5632
