epoch,acc_x,acc_y,acc_z,rot_x,rot_y,rot_z,mag_x,mag_y,mag_z,temp
1644188400.025909,-0.006104,0.011108,-0.989441,0.220855,0.523969,-0.100458,58,274,580,6288
1644188400.074357,-0.009644,0.010864,-0.990051,0.190321,0.523969,-0.115725,52,277,589,6240
1644188400.122697,-0.008423,0.01001,-0.990234,0.144519,0.356031,-0.024122,47,275,579,6192
1644188400.171069,-0.00531,0.010681,-0.98999,0.312458,0.447634,-0.069924,55,276,576,6224
1644188400.219458,-0.007019,0.008667,-0.989014,0.098718,0.508702,0.067481,35,282,586,6224
1644188400.267848,-0.006958,0.009338,-0.988953,0.08345,0.493435,-0.176794,47,277,579,6256
1644188400.31623,-0.007446,0.013245,-0.992371,0.129252,0.279695,-0.039389,46,269,587,6256
1644188400.364652,-0.009094,0.010376,-0.991211,0.35826,0.264427,-0.054656,57,280,589,6224
1644188400.413049,-0.008423,0.010803,-0.991577,0.510931,0.478168,-0.100458,51,269,590,6256
1644188400.46143,-0.007996,0.007629,-0.98999,0.281924,0.539237,-0.14626,48,281,576,6288
1644188400.509806,-0.009583,0.011108,-0.990356,0.144519,0.401832,-0.176794,46,274,587,6176
1644188400.558212,-0.007202,0.012024,-0.990173,0.388794,0.371298,-0.054656,52,285,584,6240
1644188400.606603,-0.006775,0.009888,-0.989319,0.342992,0.478168,-0.115725,48,276,592,6256
1644188400.655065,-0.007507,0.011169,-0.990051,0.236122,0.417099,0.052214,46,281,587,6224
1644188400.703374,-0.009644,0.015015,-0.992798,0.342992,0.386565,-0.115725,43,274,590,6288
1644188400.751761,-0.006409,0.010681,-0.990723,0.190321,0.447634,-0.039389,41,286,585,6224
1644188400.800215,-0.008667,0.011414,-0.99115,0.251389,0.386565,-0.192061,41,286,583,6192
1644188400.848627,-0.008606,0.013794,-0.989685,0.220855,0.417099,0.082748,53,279,585,6192
1644188400.897799,-0.008911,0.009216,-0.991882,0.220855,0.264427,-0.130992,40,275,582,6192
1644188400.948034,-0.008728,0.009644,-0.991089,0.342992,0.523969,-0.024122,54,270,582,6256
1644188400.998579,-0.010681,0.008545,-0.989258,0.266656,0.279695,0.036947,47,270,577,6240
1644188401.043006,-0.00708,0.010864,-0.990295,0.175053,0.447634,-0.176794,51,269,585,6240
1644188401.138924,-0.007324,0.010132,-0.99054,0.08345,0.554504,-0.024122,51,269,580,6240
1644188401.187304,-0.006836,0.011902,-0.989624,0.251389,0.294962,-0.069924,42,287,586,6224
1644188401.235695,-0.006958,0.010559,-0.992432,0.129252,0.478168,-0.25313,48,271,583,6192
1644188401.284108,-0.008179,0.011169,-0.990906,0.052916,0.233893,-0.085191,49,280,600,6192
1644188401.332519,-0.007019,0.009521,-0.990479,0.281924,0.371298,-0.039389,45,270,593,6240
1644188401.380883,-0.007629,0.010864,-0.98999,0.281924,0.462901,0.036947,64,270,584,6176
1644188401.429271,-0.003357,0.01123,-0.991821,0.159786,0.417099,0.052214,51,276,576,6224
1644188401.477702,-0.009399,0.010376,-0.991211,0.297191,0.417099,-0.207328,57,277,589,6224
1644188401.52608,-0.009766,0.012756,-0.993286,0.205588,0.432366,-0.085191,48,279,578,6240
1644188401.574481,-0.007324,0.00946,-0.988647,0.327725,0.447634,-0.039389,53,274,585,6256
1644188401.622889,-0.009521,0.00824,-0.992004,0.113985,0.417099,-0.222595,49,282,586,6240
1644188401.67125,-0.007629,0.008728,-0.99469,0.266656,0.478168,-0.100458,42,280,579,6240
1644188401.719656,-0.008057,0.010559,-0.989746,0.037649,0.356031,-0.283664,48,276,578,6288
1644188401.768055,-0.006348,0.011963,-0.993103,0.220855,0.493435,0.006412,54,268,591,6240
1644188401.816485,-0.007202,0.014587,-0.988037,-0.02342,0.386565,-0.100458,42,270,589,6192
1644188401.864871,-0.01001,0.009277,-0.991089,0.373527,0.356031,-0.130992,51,266,578,6240
1644188401.913253,-0.007874,0.010681,-0.990234,0.312458,0.371298,-0.100458,51,276,585,6240
1644188401.961625,-0.008728,0.011841,-0.98938,0.251389,0.447634,0.006412,43,279,590,6224
1644188402.010065,-0.007812,0.009949,-0.992981,0.281924,0.432366,-0.130992,53,274,580,6256
1644188402.075813,-0.009033,0.008911,-0.991455,0.327725,0.310229,-0.024122,46,281,585,6240
1644188402.113596,-0.009399,0.007874,-0.992554,0.327725,0.462901,-0.207328,38,273,596,6224
1644188402.158941,-0.007935,0.011353,-0.991516,0.342992,0.508702,-0.192061,41,274,592,6288
1644188402.203798,-0.006409,0.010193,-0.99054,0.205588,0.432366,-0.115725,51,276,576,6224
1644188402.300367,-0.010254,0.010681,-0.990173,0.129252,0.325496,0.036947,53,279,580,6176
1644188402.34873,-0.006897,0.008728,-0.991882,0.297191,0.417099,-0.237863,42,270,589,6240
1644188402.397115,-0.006592,0.008423,-0.990234,0.022382,0.523969,-0.130992,53,276,578,6160
1644188402.445534,-0.010315,0.009033,-0.992065,0.297191,0.478168,0.143817,52,265,596,6224
1644188402.493948,-0.008606,0.009338,-0.989136,0.251389,0.294962,-0.039389,67,279,592,6176
1644188402.543358,-0.00592,0.011475,-0.988708,0.175053,0.417099,-0.130992,59,273,586,6224
1644188402.590714,-0.007751,0.01062,-0.991089,0.266656,0.417099,-0.069924,41,283,585,6224
1644188402.639118,-0.011108,0.01062,-0.992493,0.129252,0.493435,-0.25313,43,274,585,6240
1644188402.687488,-0.009033,0.009949,-0.991882,0.266656,0.462901,-0.176794,52,277,582,6224
1644188402.735906,-0.00647,0.010437,-0.987732,0.190321,0.340763,-0.207328,53,271,590,6240
1644188402.784306,-0.007751,0.010864,-0.992432,0.236122,0.447634,-0.054656,52,268,577,6224
1644188402.832743,-0.006714,0.009888,-0.992432,0.159786,0.386565,-0.069924,52,273,584,6240
1644188402.881109,-0.006409,0.009399,-0.989807,0.022382,0.417099,-0.176794,60,271,599,6240
1644188402.929517,-0.009521,0.013733,-0.994141,0.159786,0.447634,-0.085191,49,270,591,6224
1644188402.977906,-0.007446,0.00885,-0.991272,0.236122,0.432366,-0.039389,46,274,590,6176
1644188403.026306,-0.01123,0.009888,-0.990173,0.35826,0.401832,0.067481,55,276,585,6224
1644188403.094789,-0.00769,0.009338,-0.991211,0.236122,0.417099,-0.130992,51,279,587,6224
1644188403.1267,-0.009277,0.009583,-0.991577,0.175053,0.523969,0.052214,49,275,584,6224
1644188403.175152,-0.00708,0.010315,-0.990601,0.312458,0.294962,-0.115725,47,280,582,6176
1644188403.220215,-0.009277,0.010132,-0.990112,0.220855,0.417099,-0.25313,53,283,580,6224
1644188403.316599,-0.008911,0.010925,-0.990479,0.342992,0.417099,-0.008855,47,277,589,6224
1644188403.365245,-0.007996,0.009521,-0.987671,0.236122,0.417099,-0.100458,51,269,585,6240
1644188403.413417,-0.007141,0.008545,-0.992676,0.281924,0.447634,-0.115725,43,279,587,6192
1644188403.461791,-0.006409,0.007385,-0.990662,0.098718,0.310229,-0.069924,47,273,575,6240
1644188403.51018,-0.009705,0.013611,-0.990601,0.220855,0.447634,-0.176794,38,280,586,6192
1644188403.558563,-0.00647,0.010864,-0.992859,0.266656,0.508702,-0.130992,53,271,585,6224
1644188403.606966,-0.009583,0.011169,-0.990967,0.175053,0.233893,-0.237863,45,277,579,6192
1644188403.655401,-0.007751,0.010315,-0.991821,0.175053,0.386565,-0.054656,42,287,582,6224
1644188403.703761,-0.007263,0.008911,-0.990234,0.190321,0.478168,-0.268397,47,273,572,6176
1644188403.752198,-0.010559,0.008423,-0.991516,0.220855,0.493435,-0.054656,48,283,583,6224
1644188403.800547,-0.008545,0.009155,-0.990417,0.297191,0.447634,-0.069924,51,279,590,6224
1644188403.848962,-0.009827,0.009277,-0.989502,0.159786,0.340763,0.098015,49,275,586,6256
1644188403.897364,-0.007812,0.009888,-0.990051,0.251389,0.294962,-0.115725,58,279,571,6192
1644188403.945753,-0.00708,0.009399,-0.990173,0.175053,0.539237,-0.054656,41,279,594,6176
1644188403.994168,-0.006104,0.010132,-0.988159,0.144519,0.539237,-0.069924,46,279,587,6192
1644188404.042574,-0.007874,0.00824,-0.988647,0.098718,0.508702,-0.069924,54,285,577,6224
1644188404.093199,-0.008545,0.007996,-0.991211,0.220855,0.508702,-0.100458,52,280,593,6240
1644188404.139272,-0.009338,0.01123,-0.989258,0.251389,0.432366,-0.069924,43,279,585,6160
1644188404.187691,-0.007812,0.008484,-0.994263,0.144519,0.508702,-0.161527,55,264,583,6256
1644188404.236315,-0.008606,0.007019,-0.992188,0.388794,0.493435,-0.14626,41,274,594,6240
1644188404.287208,-0.011719,0.010254,-0.990417,0.144519,0.371298,0.082748,55,281,587,6224
1644188404.336893,-0.006592,0.011658,-0.993774,0.251389,0.447634,-0.14626,43,271,583,6192
1644188404.382022,-0.006714,0.010376,-0.992737,0.098718,0.539237,0.052214,49,275,575,6256
1644188404.478031,-0.008972,0.010254,-0.99176,0.129252,0.310229,-0.25313,45,263,582,6224
1644188404.526435,-0.007935,0.010498,-0.98999,0.159786,0.386565,-0.130992,48,271,585,6256
1644188404.574901,-0.008911,0.013733,-0.992004,0.068183,0.462901,0.067481,42,277,579,6256
1644188404.62324,-0.011719,0.012512,-0.993286,0.281924,0.417099,-0.100458,42,273,579,6288
1644188404.671616,-0.008789,0.007507,-0.993164,0.190321,0.356031,-0.069924,54,275,589,6224
1644188404.720012,-0.008667,0.01001,-0.990601,0.327725,0.493435,-0.024122,51,274,585,6128
1644188404.768391,-0.007263,0.009521,-0.992188,0.113985,0.340763,0.067481,57,268,579,6192
1644188404.816789,-0.006714,0.009888,-0.98999,0.190321,0.340763,-0.024122,42,275,586,6256
1644188404.865317,-0.00885,0.009277,-0.990051,0.342992,0.447634,-0.008855,38,282,572,6224
1644188404.913607,-0.007874,0.010254,-0.991699,0.190321,0.478168,-0.085191,49,270,579,6240
1644188404.962024,-0.007996,0.007019,-0.989807,0.144519,0.371298,-0.161527,52,273,593,6224
1644188405.010393,-0.009033,0.010498,-0.992615,0.159786,0.294962,-0.130992,51,269,592,6256
1644188405.064628,-0.008301,0.011169,-0.991638,0.190321,0.478168,-0.039389,40,273,589,6224
1644188405.107223,-0.007751,0.01178,-0.991577,0.190321,0.493435,-0.069924,41,286,592,6240
1644188405.155558,-0.006042,0.008911,-0.990356,0.449863,0.432366,-0.100458,51,271,590,6176
1644188405.203945,-0.008423,0.009766,-0.989136,0.175053,0.478168,-0.069924,48,276,590,6224
1644188405.252312,-0.009644,0.010254,-0.991394,0.190321,0.356031,-0.130992,55,269,592,6304
1644188405.300726,-0.010681,0.01416,-0.990906,0.297191,0.432366,0.006412,49,285,591,6128
1644188405.349234,-0.01062,0.009155,-0.990906,0.190321,0.432366,-0.100458,55,286,578,6224
1644188405.398067,-0.006226,0.009155,-0.988342,0.480397,0.478168,0.036947,52,273,586,6192
1644188405.448732,-0.007874,0.012207,-0.992554,0.159786,0.417099,0.006412,46,274,590,6240
1644188405.499153,-0.006592,0.008972,-0.991455,0.220855,0.539237,-0.130992,49,275,586,6256
1644188405.5437,-0.007874,0.010986,-0.992065,0.205588,0.462901,-0.207328,64,268,579,6224
1644188405.639488,-0.00824,0.008606,-0.991272,0.159786,0.386565,-0.176794,52,280,586,6256
1644188405.687853,-0.01001,0.010864,-0.991821,0.190321,0.478168,-0.314198,49,275,584,6240
1644188405.736244,-0.007202,0.008789,-0.990967,0.251389,0.401832,-0.115725,40,277,589,6176
1644188405.784843,-0.00885,0.011902,-0.98938,0.220855,0.462901,-0.130992,52,268,577,6224
1644188405.833059,-0.009583,0.007751,-0.992615,0.236122,0.417099,-0.024122,43,276,580,6240
1644188405.881486,-0.006592,0.014526,-0.991028,0.297191,0.325496,-0.176794,39,271,580,6240
1644188405.929895,-0.00708,0.00946,-0.991577,0.388794,0.401832,-0.054656,52,285,582,6240
1644188405.978273,-0.007324,0.010132,-0.991516,0.129252,0.401832,-0.008855,49,273,579,6256
1644188406.026671,-0.009094,0.012268,-0.98999,0.281924,0.386565,-0.192061,45,277,582,6176
1644188406.080175,-0.007874,0.011292,-0.990479,0.342992,0.401832,-0.085191,60,274,585,6256
1644188406.123493,-0.009705,0.010132,-0.991272,0.175053,0.279695,-0.054656,48,274,583,6176
1644188406.171773,-0.008789,0.008057,-0.990723,0.35826,0.340763,0.113282,49,277,579,6288
1644188406.220195,-0.011169,0.008484,-0.990173,0.129252,0.569771,-0.176794,48,274,578,6256
1644188406.268564,-0.009888,0.007751,-0.992798,0.205588,0.401832,-0.14626,55,283,580,6288
1644188406.316977,-0.007812,0.008057,-0.991394,0.129252,0.523969,0.021679,49,280,579,6224
1644188406.365376,-0.007507,0.009338,-0.989441,0.144519,0.401832,-0.192061,52,273,577,6240
1644188406.413763,-0.009338,0.006592,-0.994812,0.251389,0.432366,-0.069924,47,282,582,6224
1644188406.462181,-0.007751,0.007996,-0.988281,0.220855,0.386565,-0.176794,54,280,589,6192
1644188406.510553,-0.00708,0.009521,-0.990967,0.251389,0.539237,-0.100458,47,273,596,6240
1644188406.558979,-0.009277,0.010498,-0.992188,0.297191,0.554504,-0.069924,54,273,575,6224
1644188406.609055,-0.006958,0.009216,-0.993835,0.373527,0.523969,-0.039389,49,280,584,6224
1644188406.659482,-0.009033,0.009094,-0.992249,0.190321,0.371298,-0.069924,51,271,585,6224
1644188406.704368,-0.008057,0.010864,-0.990906,0.251389,0.417099,-0.115725,45,280,589,6224
1644188406.800874,-0.007812,0.009399,-0.989929,0.129252,0.310229,-0.008855,48,274,585,6256
1644188406.849313,-0.007812,0.009094,-0.990723,0.236122,0.508702,-0.390534,41,276,583,6224
1644188406.89773,-0.007996,0.007629,-0.991699,0.220855,0.478168,-0.25313,40,282,593,6224
1644188406.946134,-0.008972,0.008179,-0.990479,0.129252,0.462901,-0.115725,47,273,577,6256
1644188406.994527,-0.006958,0.010681,-0.990112,0.159786,0.386565,-0.085191,40,285,582,6256
1644188407.042943,-0.010071,0.009399,-0.992371,0.281924,0.493435,0.021679,47,275,584,6224
1644188407.095466,-0.008972,0.010986,-0.990601,0.113985,0.340763,-0.176794,40,275,586,6224
1644188407.139718,-0.005798,0.013733,-0.990112,0.068183,0.310229,-0.207328,54,275,579,6240
1644188407.18806,-0.007141,0.009033,-0.990295,0.236122,0.432366,-0.069924,55,281,585,6160
1644188407.236459,-0.008484,0.009277,-0.989075,0.190321,0.325496,-0.207328,48,266,590,6224
1644188407.284817,-0.008301,0.008301,-0.992493,0.190321,0.356031,-0.085191,54,268,591,6304
1644188407.333238,-0.009521,0.010254,-0.992004,0.129252,0.325496,0.067481,47,280,591,6192
1644188407.381626,-0.006714,0.01001,-0.989075,0.144519,0.432366,0.021679,48,279,590,6224
1644188407.429996,-0.006226,0.009705,-0.991089,0.220855,0.356031,-0.008855,45,270,589,6240
1644188407.478403,-0.007812,0.008179,-0.987183,0.281924,0.462901,-0.115725,54,273,591,6256
1644188407.52718,-0.008362,0.010193,-0.990234,0.129252,0.356031,-0.054656,60,274,592,6224
1644188407.577698,-0.007568,0.010254,-0.991455,0.281924,0.493435,-0.115725,42,280,586,6240
1644188407.628044,-0.002869,0.010315,-0.990906,0.327725,0.371298,0.021679,48,283,592,6224
1644188407.6729,-0.006897,0.010132,-0.989258,0.175053,0.371298,-0.069924,48,266,580,6224
1644188407.768749,-0.009338,0.010315,-0.989563,0.220855,0.401832,-0.008855,42,275,579,6224
1644188407.817147,-0.007812,0.011108,-0.98999,0.129252,0.447634,-0.14626,45,273,577,6224
1644188407.86554,-0.007446,0.013672,-0.988586,0.144519,0.371298,-0.176794,43,283,587,6176
1644188407.913999,-0.006531,0.009705,-0.990356,0.281924,0.340763,-0.085191,39,283,583,6160
1644188407.962409,-0.010193,0.009888,-0.990906,0.327725,0.310229,-0.192061,43,281,590,6240
1644188408.010779,-0.00708,0.009949,-0.987793,0.236122,0.493435,0.006412,47,285,575,6224
1644188408.065638,-0.008789,0.009216,-0.988586,0.190321,0.478168,0.082748,47,268,586,6240
1644188408.107546,-0.008057,0.010193,-0.992065,0.251389,0.371298,-0.115725,45,280,579,6192
1644188408.155958,-0.00592,0.008911,-0.990356,0.144519,0.539237,-0.039389,46,274,578,6288
1644188408.204361,-0.010803,0.011353,-0.991516,0.175053,0.371298,-0.085191,43,283,590,6224
1644188408.252753,-0.00824,0.010315,-0.991577,0.297191,0.356031,0.052214,52,275,591,6192
1644188408.301139,-0.007263,0.010742,-0.987976,0.266656,0.432366,-0.14626,46,264,583,6256
1644188408.349542,-0.008118,0.010376,-0.990967,0.113985,0.401832,-0.069924,61,273,579,6192
1644188408.397929,-0.010681,0.010498,-0.991089,0.129252,0.493435,-0.024122,35,277,584,6224
1644188408.446326,-0.006836,0.010193,-0.992432,0.159786,0.493435,0.006412,42,268,586,6224
1644188408.49473,-0.009583,0.011719,-0.991089,0.159786,0.478168,-0.130992,52,277,584,6240
1644188408.543129,-0.010986,0.00885,-0.990356,0.159786,0.340763,-0.192061,32,279,599,6176
1644188408.592445,-0.009216,0.009338,-0.990967,0.236122,0.264427,-0.054656,51,271,583,6240
1644188408.639903,-0.01001,0.012695,-0.99292,0.251389,0.233893,0.006412,49,270,579,6224
1644188408.689406,-0.009399,0.010315,-0.992676,0.220855,0.539237,0.021679,49,270,586,6176
1644188408.739633,-0.00824,0.008972,-0.991516,0.342992,0.417099,-0.069924,43,283,587,6256
1644188408.790032,-0.005493,0.008667,-0.992432,0.129252,0.401832,0.067481,47,268,589,6192
1644188408.834693,-0.007751,0.010193,-0.990295,0.281924,0.432366,-0.176794,49,268,586,6192
1644188408.93025,-0.009094,0.009094,-0.992371,0.098718,0.401832,-0.100458,51,257,580,6224
1644188408.978639,-0.008545,0.014099,-0.990295,0.35826,0.462901,-0.069924,47,277,579,6224
1644188409.027024,-0.010559,0.009399,-0.990601,0.129252,0.478168,0.006412,42,273,584,6240
1644188409.076836,-0.009583,0.010437,-0.992737,0.159786,0.401832,-0.100458,47,282,589,6192
1644188409.123767,-0.007874,0.008728,-0.992004,0.175053,0.432366,-0.039389,51,276,587,6256
1644188409.172377,-0.005554,0.009155,-0.993896,0.08345,0.386565,-0.085191,49,285,586,6224
1644188409.220551,-0.008606,0.010315,-0.990234,0.388794,0.478168,-0.161527,42,268,584,6224
1644188409.268942,-0.00885,0.008179,-0.991028,0.281924,0.356031,-0.14626,51,269,594,6224
1644188409.317319,-0.008118,0.009766,-0.991333,0.159786,0.386565,-0.207328,54,277,591,6224
1644188409.365749,-0.009094,0.011414,-0.992004,0.251389,0.478168,-0.039389,47,277,582,6224
1644188409.414157,-0.00647,0.011597,-0.993164,0.220855,0.493435,-0.039389,48,276,592,6160
1644188409.462554,-0.009644,0.010864,-0.989807,0.175053,0.493435,-0.115725,60,271,583,6240
1644188409.510905,-0.007202,0.010681,-0.990112,0.404061,0.417099,-0.283664,45,275,577,6224
1644188409.559328,-0.007446,0.008972,-0.993774,0.205588,0.371298,0.006412,47,268,586,6240
1644188409.607709,-0.00885,0.007935,-0.992554,0.373527,0.462901,-0.069924,57,275,589,6224
1644188409.656106,-0.002625,0.010437,-0.990234,0.220855,0.447634,-0.100458,48,266,587,6240
1644188409.70449,-0.010193,0.008301,-0.990173,0.35826,0.554504,-0.161527,47,275,586,6224
1644188409.752873,-0.003845,0.013855,-0.990479,0.205588,0.294962,-0.024122,52,273,591,6224
1644188409.801321,-0.009155,0.008484,-0.99176,0.266656,0.386565,-0.161527,36,266,585,6224
1644188409.85127,-0.008972,0.010132,-0.990723,0.190321,0.615573,0.082748,43,276,583,6192
1644188409.901425,-0.009888,0.006531,-0.991699,0.281924,0.493435,-0.054656,53,283,583,6240
1644188409.951735,-0.006287,0.012085,-0.99176,0.236122,0.417099,-0.100458,42,280,589,6176
1644188409.996325,-0.007141,0.011292,-0.989441,0.190321,0.432366,-0.115725,48,276,569,6240
1644188410.09175,-0.009216,0.010193,-0.990784,0.098718,0.310229,-0.100458,52,277,586,6256
1644188410.139989,-0.008606,0.011475,-0.990784,0.037649,0.401832,-0.100458,48,276,583,6240
1644188410.188404,-0.008667,0.010864,-0.991943,0.251389,0.325496,-0.115725,47,282,591,6256
1644188410.236804,-0.007568,0.012695,-0.990356,0.266656,0.417099,-0.130992,48,262,592,6128
1644188410.285226,-0.007629,0.009277,-0.98938,0.052916,0.523969,-0.024122,40,277,577,6240
1644188410.333606,-0.009644,0.01123,-0.988831,0.098718,0.371298,-0.039389,45,277,575,6256
1644188410.381998,-0.008179,0.009827,-0.993347,0.205588,0.401832,-0.008855,53,274,590,6176
1644188410.430395,-0.006348,0.010986,-0.98999,0.312458,0.386565,-0.25313,64,280,589,6224
1644188410.478787,-0.0047,0.011414,-0.989929,0.129252,0.279695,-0.14626,48,281,580,6304
1644188410.527207,-0.006836,0.011597,-0.993225,0.175053,0.569771,0.098015,46,279,585,6240
1644188410.575559,-0.006775,0.010437,-0.990417,0.327725,0.386565,-0.176794,51,281,576,6240
1644188410.623969,-0.007568,0.01355,-0.991272,0.297191,0.356031,-0.14626,45,280,579,6176
1644188410.672369,-0.006897,0.010559,-0.988281,0.205588,0.569771,-0.161527,48,283,597,6224
1644188410.720744,-0.008118,0.011108,-0.990967,0.327725,0.432366,-0.115725,49,265,582,6224
1644188410.769142,-0.008728,0.010376,-0.987366,0.175053,0.447634,-0.14626,57,275,586,6192
1644188410.817574,-0.007385,0.011719,-0.989929,0.175053,0.539237,-0.024122,47,270,584,6224
1644188410.865969,-0.00824,0.011108,-0.99115,0.236122,0.523969,-0.115725,55,262,587,6240
1644188410.914727,-0.008301,0.010437,-0.993164,0.266656,0.356031,-0.039389,45,265,589,6256
1644188410.962789,-0.00824,0.009155,-0.991577,0.190321,0.478168,-0.054656,43,281,580,6240
1644188411.012855,-0.005676,0.010254,-0.989441,0.236122,0.401832,0.036947,61,265,586,6224
1644188411.082014,-0.006592,0.010315,-0.989136,0.266656,0.371298,-0.085191,49,273,584,6240
1644188411.113359,-0.005859,0.010986,-0.991333,0.205588,0.447634,-0.176794,49,282,596,6224
1644188411.157618,-0.007629,0.006775,-0.988098,0.144519,0.340763,-0.039389,43,276,580,6160
1644188411.25308,-0.008667,0.01001,-0.98999,0.297191,0.539237,-0.161527,45,282,586,6256
1644188411.301459,-0.007019,0.011841,-0.988159,0.175053,0.417099,-0.008855,38,282,584,6224
1644188411.349854,-0.010132,0.010986,-0.992249,0.327725,0.447634,-0.130992,40,265,575,6224
1644188411.398248,-0.009033,0.008789,-0.990845,0.159786,0.417099,-0.054656,43,271,585,6192
1644188411.446632,-0.005432,0.007935,-0.991394,0.342992,0.24916,-0.069924,64,277,593,6224
1644188411.495077,-0.004761,0.010071,-0.992371,0.312458,0.310229,-0.161527,42,275,584,6224
1644188411.543433,-0.009338,0.008789,-0.990051,0.08345,0.340763,0.052214,46,274,578,6240
1644188411.591795,-0.006409,0.012085,-0.990051,0.159786,0.462901,-0.176794,58,281,583,6256
1644188411.640203,-0.007996,0.012512,-0.990967,0.342992,0.417099,-0.100458,45,268,589,6256
1644188411.68861,-0.00946,0.011475,-0.991882,0.419328,0.615573,-0.14626,57,265,579,6224
1644188411.737002,-0.010437,0.008301,-0.992493,0.266656,0.493435,-0.100458,48,271,583,6288
1644188411.785398,-0.005798,0.011047,-0.992981,0.342992,0.432366,-0.069924,53,274,580,6256
1644188411.833851,-0.008301,0.010925,-0.990417,0.281924,0.279695,-0.176794,54,280,577,6224
1644188411.882249,-0.010315,0.011169,-0.989258,0.266656,0.523969,-0.176794,51,276,580,6256
1644188411.930608,-0.007446,0.010315,-0.990662,0.144519,0.401832,0.006412,45,280,589,6224
1644188411.978998,-0.007507,0.010437,-0.989868,0.327725,0.386565,-0.207328,41,271,571,6288
1644188412.027402,-0.006409,0.010986,-0.990906,0.312458,0.478168,-0.344733,48,274,583,6224
1644188412.091165,-0.010254,0.011108,-0.989624,0.220855,0.462901,-0.008855,54,265,591,6192
1644188412.124853,-0.006653,0.013489,-0.99176,0.312458,0.294962,-0.176794,38,282,577,6224
1644188412.174032,-0.006165,0.010559,-0.990234,0.205588,0.310229,-0.024122,52,268,596,6224
1644188412.224325,-0.005432,0.011414,-0.992065,0.175053,0.447634,0.143817,54,270,579,6288
1644188412.269376,-0.007446,0.01062,-0.98999,0.297191,0.417099,0.098015,51,271,587,6192
1644188412.366091,-0.005737,0.010864,-0.989319,0.159786,0.340763,-0.085191,49,270,579,6288
1644188412.414514,-0.011597,0.009521,-0.988953,0.08345,0.294962,-0.130992,48,291,587,6224
1644188412.462905,-0.009888,0.011292,-0.991821,0.175053,0.356031,-0.100458,46,266,573,6192
1644188412.511266,-0.009399,0.011353,-0.988281,0.297191,0.340763,0.052214,47,280,579,6240
1644188412.559662,-0.009155,0.011108,-0.99115,0.205588,0.417099,-0.130992,46,276,583,6176
1644188412.608066,-0.00885,0.009644,-0.987854,0.251389,0.386565,-0.024122,51,276,580,6176
1644188412.656451,-0.00824,0.00946,-0.991516,0.129252,0.417099,-0.100458,49,270,568,6256
1644188412.704868,-0.007385,0.009338,-0.98999,0.297191,0.493435,-0.054656,55,274,583,6176
1644188412.75324,-0.008423,0.011414,-0.989685,0.175053,0.401832,-0.130992,53,274,580,6192
1644188412.801645,-0.009033,0.010986,-0.991028,0.144519,0.325496,-0.161527,47,285,579,6224
1644188412.850073,-0.009216,0.012024,-0.991821,0.175053,0.294962,-0.069924,47,282,568,6224
1644188412.898447,-0.008118,0.010864,-0.989197,0.220855,0.401832,-0.115725,49,273,577,6224
1644188412.946863,-0.006775,0.013123,-0.991028,0.342992,0.310229,-0.222595,55,281,590,6240
1644188412.995258,-0.005188,0.00946,-0.990662,0.129252,0.264427,-0.161527,55,274,578,6224
1644188413.043651,-0.00708,0.014099,-0.989441,0.220855,0.218626,-0.176794,43,279,583,6192
1644188413.092236,-0.007874,0.012634,-0.992615,0.220855,0.386565,-0.14626,55,279,590,6256
1644188413.140363,-0.006897,0.015137,-0.992798,0.251389,0.447634,-0.176794,54,273,584,6256
1644188413.188794,-0.005859,0.013123,-0.988586,0.144519,0.310229,-0.100458,39,276,580,6224
1644188413.237175,-0.009094,0.010803,-0.990845,0.236122,0.615573,-0.130992,49,275,582,6240
1644188413.286123,-0.005615,0.008667,-0.991089,0.190321,0.447634,-0.100458,43,269,587,6240
1644188413.336691,-0.007202,0.008911,-0.990723,0.175053,0.356031,-0.14626,52,277,575,6224
1644188413.38698,-0.008179,0.011902,-0.989929,0.205588,0.646107,-0.024122,49,273,589,6176
1644188413.43172,-0.007751,0.010254,-0.988342,0.220855,0.371298,-0.14626,48,271,578,6176
1644188413.527531,-0.006897,0.011536,-0.991394,0.205588,0.401832,-0.100458,42,273,589,6176
1644188413.575915,-0.006836,0.012085,-0.991943,0.068183,0.478168,-0.314198,47,275,593,6176
1644188413.624327,-0.009888,0.008667,-0.990601,0.327725,0.310229,-0.314198,46,276,580,6224
1644188413.672729,-0.008301,0.010498,-0.992249,0.113985,0.432366,-0.161527,52,270,575,6240
1644188413.7211,-0.009277,0.00769,-0.992737,0.419328,0.554504,-0.039389,51,269,580,6224
1644188413.769493,-0.005981,0.010132,-0.99353,0.159786,0.478168,-0.008855,49,270,579,6240
1644188413.817891,-0.006042,0.009827,-0.99231,0.297191,0.447634,-0.100458,47,268,575,6256
1644188413.866331,-0.006775,0.011658,-0.992004,0.342992,0.310229,-0.054656,43,283,580,6240
1644188413.914759,-0.005615,0.009949,-0.988647,0.205588,0.356031,0.021679,48,279,580,6224
1644188413.963126,-0.007996,0.009338,-0.990967,0.129252,0.371298,-0.130992,51,274,573,6176
1644188414.011484,-0.008362,0.010864,-0.992249,0.113985,0.417099,-0.054656,54,273,591,6240
1644188414.069909,-0.009766,0.011169,-0.98877,0.052916,0.279695,-0.054656,39,274,578,6256
1644188414.110207,-0.008789,0.012634,-0.990967,0.08345,0.386565,-0.192061,51,271,585,6224
1644188414.156655,-0.008179,0.010437,-0.990417,0.098718,0.508702,-0.100458,54,270,591,6176
1644188414.205082,-0.007812,0.00946,-0.991882,0.327725,0.371298,-0.207328,41,276,576,6224
1644188414.253416,-0.008484,0.010193,-0.989624,0.281924,0.447634,-0.008855,51,281,578,6256
1644188414.301827,-0.008362,0.010864,-0.99408,0.297191,0.462901,-0.130992,46,274,590,6256
1644188414.350194,-0.009705,0.010071,-0.990906,0.068183,0.325496,-0.024122,52,273,579,6224
1644188414.398834,-0.010864,0.009094,-0.991943,0.007115,0.386565,-0.085191,49,275,577,6256
1644188414.447655,-0.009338,0.009338,-0.990845,0.129252,0.401832,-0.130992,52,268,582,6176
1644188414.498434,-0.008484,0.011597,-0.990479,0.190321,0.340763,0.052214,54,270,579,6224
1644188414.548412,-0.010132,0.008301,-0.989685,0.297191,0.401832,-0.008855,58,266,580,6256
1644188414.593346,-0.005188,0.011353,-0.988403,0.190321,0.386565,0.006412,51,274,578,6224
1644188414.688962,-0.007812,0.013123,-0.989258,0.236122,0.432366,-0.054656,59,277,570,6240
1644188414.737344,-0.009766,0.007935,-0.989563,0.190321,0.279695,-0.024122,54,268,589,6240
1644188414.785733,-0.00769,0.009766,-0.98877,0.35826,0.432366,-0.100458,51,276,578,6160
1644188414.834149,-0.009155,0.011353,-0.990906,0.281924,0.462901,0.067481,48,269,585,6240
1644188414.882587,-0.006287,0.013733,-0.992859,0.266656,0.310229,-0.039389,45,268,575,6288
1644188414.930957,-0.008179,0.012939,-0.990356,0.373527,0.432366,-0.100458,52,275,575,6256
1644188414.979347,-0.007874,0.009033,-0.991333,0.266656,0.569771,-0.161527,53,264,580,6240
1644188415.027761,-0.006653,0.01178,-0.988647,-0.008153,0.310229,-0.130992,54,280,577,6240
1644188415.078721,-0.008789,0.010559,-0.990112,0.159786,0.462901,-0.176794,45,277,586,6192
1644188415.12455,-0.008606,0.009888,-0.991455,0.129252,0.447634,-0.054656,43,274,587,6256
1644188415.172926,-0.008423,0.00885,-0.992676,0.159786,0.264427,-0.115725,52,277,591,6160
1644188415.221298,-0.006714,0.012512,-0.989563,0.220855,0.462901,-0.069924,42,270,586,6240
1644188415.269687,-0.008118,0.012207,-0.991577,0.129252,0.569771,-0.069924,52,275,584,6224
1644188415.318085,-0.006653,0.011658,-0.990601,0.266656,0.279695,0.204885,51,276,587,6224
1644188415.366477,-0.008179,0.010254,-0.994568,0.175053,0.386565,0.006412,49,277,575,6224
1644188415.414881,-0.009827,0.010437,-0.993225,0.08345,0.401832,-0.176794,60,274,592,6240
1644188415.463264,-0.008301,0.01001,-0.992615,0.266656,0.371298,-0.069924,55,271,583,6224
1644188415.511642,-0.008545,0.011292,-0.991394,0.175053,0.447634,-0.130992,55,276,583,6176
1644188415.560033,-0.009583,0.011597,-0.991882,0.281924,0.554504,-0.008855,42,285,572,6240
1644188415.608846,-0.010681,0.008179,-0.991211,0.266656,0.493435,0.021679,45,285,577,6240
1644188415.65945,-0.010071,0.010376,-0.991943,0.373527,0.325496,-0.237863,48,274,585,6160
1644188415.709908,-0.007812,0.012878,-0.991028,0.312458,0.401832,-0.161527,52,282,577,6256
1644188415.754516,-0.008972,0.011658,-0.99054,0.327725,0.371298,-0.100458,49,268,586,6176
1644188415.8504,-0.010742,0.008362,-0.991089,0.281924,0.401832,-0.054656,47,277,591,6288
1644188415.898843,-0.008423,0.011841,-0.992554,0.342992,0.356031,-0.024122,45,265,579,6256
1644188415.94724,-0.009033,0.011292,-0.989075,0.236122,0.478168,-0.100458,47,273,591,6192
1644188415.995617,-0.006897,0.011902,-0.989807,0.159786,0.462901,-0.100458,61,280,579,6176
1644188416.044014,-0.008484,0.010742,-0.991028,0.220855,0.417099,-0.085191,48,269,576,6224
1644188416.092458,-0.008667,0.010071,-0.992004,0.266656,0.340763,-0.100458,47,275,582,6240
1644188416.140789,-0.006226,0.01239,-0.991943,0.175053,0.356031,-0.100458,57,273,579,6288
1644188416.189151,-0.006104,0.011475,-0.990784,0.266656,0.493435,-0.069924,55,276,580,6224
1644188416.237527,-0.006287,0.009705,-0.988037,0.144519,0.447634,-0.085191,52,270,584,6224
1644188416.285921,-0.00769,0.010254,-0.991211,0.129252,0.417099,-0.207328,55,286,587,6176
1644188416.334344,-0.00824,0.010681,-0.98822,0.35826,0.462901,-0.176794,52,280,582,6192
1644188416.382741,-0.007874,0.010315,-0.992981,0.175053,0.447634,-0.054656,59,280,589,6240
1644188416.431121,-0.007202,0.009094,-0.991211,0.098718,0.386565,-0.024122,55,276,583,6256
1644188416.479505,-0.008972,0.007629,-0.987854,0.312458,0.310229,0.006412,49,275,586,6176
1644188416.5279,-0.004272,0.009888,-0.992798,0.312458,0.340763,-0.054656,45,275,584,6304
1644188416.576346,-0.005615,0.012207,-0.990967,0.113985,0.554504,-0.008855,54,268,591,6240
1644188416.626089,-0.008057,0.01062,-0.993652,0.144519,0.523969,-0.130992,53,269,587,6192
1644188416.676486,-0.00946,0.009216,-0.990356,0.251389,0.569771,0.006412,46,274,587,6256
1644188416.726523,-0.006897,0.01355,-0.989929,0.281924,0.356031,-0.008855,53,281,578,6192
1644188416.818262,-0.008118,0.010864,-0.992004,0.159786,0.325496,0.006412,49,285,577,6192
1644188416.866638,-0.008911,0.011108,-0.991272,0.236122,0.279695,-0.130992,45,275,584,6224
1644188416.91512,-0.006226,0.008972,-0.993835,0.068183,0.356031,-0.207328,52,275,582,6240
1644188416.963496,-0.005676,0.013977,-0.990234,0.236122,0.310229,-0.039389,53,276,578,6224
1644188417.011873,-0.007202,0.010315,-0.992615,0.297191,0.371298,-0.222595,36,276,583,6224
1644188417.070576,-0.011719,0.007446,-0.992493,0.205588,0.386565,-0.085191,57,275,584,6160
1644188417.108641,-0.00592,0.008911,-0.988281,0.205588,0.340763,-0.161527,53,276,592,6224
1644188417.157055,-0.007385,0.013306,-0.992615,0.175053,0.218626,-0.008855,40,287,582,6224
1644188417.205455,-0.007446,0.011841,-0.990295,0.312458,0.462901,-0.100458,45,282,582,6224
1644188417.253866,-0.007507,0.00946,-0.992432,0.144519,0.401832,0.021679,53,279,580,6224
1644188417.302271,-0.006592,0.013428,-0.991211,0.144519,0.432366,-0.14626,51,271,585,6256
1644188417.350615,-0.008423,0.011047,-0.991455,0.251389,0.493435,-0.069924,54,282,582,6224
1644188417.399021,-0.006104,0.011108,-0.990173,0.236122,0.447634,-0.130992,53,271,576,6224
1644188417.447408,-0.009155,0.010803,-0.991211,0.190321,0.325496,-0.130992,52,280,584,6224
1644188417.495808,-0.010193,0.010986,-0.991028,0.175053,0.386565,-0.207328,47,268,584,6240
1644188417.544199,-0.010376,0.009888,-0.989746,0.297191,0.508702,-0.115725,45,280,593,6224
1644188417.592623,-0.008911,0.010132,-0.990356,0.144519,0.401832,-0.100458,60,281,592,6256
1644188417.642077,-0.008362,0.012695,-0.988647,0.236122,0.523969,-0.085191,51,271,576,6176
1644188417.692249,-0.005981,0.012512,-0.989868,0.220855,0.523969,-0.161527,54,280,579,6256
1644188417.743086,-0.007751,0.010071,-0.988831,0.266656,0.432366,0.098015,45,282,584,6256
1644188417.787451,-0.00885,0.01239,-0.989075,0.312458,0.447634,-0.207328,45,275,577,6240
1644188417.882973,-0.009277,0.010559,-0.99115,0.175053,0.417099,-0.207328,54,277,575,6224
1644188417.931307,-0.005371,0.012634,-0.988586,0.190321,0.356031,-0.069924,57,273,596,6240
1644188417.979723,-0.007751,0.010986,-0.992004,0.281924,0.569771,-0.14626,42,275,582,6240
1644188418.028124,-0.007507,0.009399,-0.992615,0.236122,0.417099,-0.192061,42,273,593,6240
1644188418.076574,-0.008545,0.009338,-0.988342,0.175053,0.386565,-0.069924,51,274,599,6176
1644188418.129022,-0.006165,0.013123,-0.992432,0.190321,0.325496,-0.161527,48,271,578,6224
1644188418.173277,-0.006958,0.013,-0.988525,0.113985,0.447634,-0.069924,42,270,596,6128
1644188418.221668,-0.006042,0.009949,-0.990601,0.205588,0.294962,-0.192061,54,280,591,6192
1644188418.270059,-0.005371,0.010803,-0.993347,0.342992,0.279695,0.036947,51,281,580,6176
1644188418.318458,-0.007996,0.011536,-0.990784,0.190321,0.340763,0.021679,52,275,591,6176
1644188418.366847,-0.007324,0.011719,-0.992493,0.266656,0.447634,-0.024122,49,275,589,6288
1644188418.415305,-0.009399,0.012329,-0.989929,0.266656,0.356031,-0.100458,39,279,583,6256
1644188418.46363,-0.008728,0.011719,-0.991882,0.205588,0.371298,-0.039389,59,277,596,6224
1644188418.51201,-0.006836,0.008545,-0.992004,0.190321,0.462901,-0.069924,47,270,582,6192
1644188418.560378,-0.007568,0.010071,-0.990356,0.251389,0.371298,-0.100458,52,277,593,6240
1644188418.60881,-0.008728,0.009338,-0.988647,0.113985,0.386565,-0.085191,52,265,591,6240
1644188418.657195,-0.008911,0.011597,-0.990234,0.373527,0.417099,-0.14626,47,282,591,6224
1644188418.705595,-0.008423,0.008667,-0.990723,0.129252,0.432366,0.006412,57,273,584,6240
1644188418.754246,-0.008911,0.010376,-0.990051,0.205588,0.493435,-0.130992,57,275,575,6192
1644188418.804485,-0.006775,0.011353,-0.992126,0.312458,0.523969,-0.039389,60,264,576,6192
1644188418.85454,-0.006165,0.010132,-0.991333,0.236122,0.401832,0.006412,49,270,589,6256
1644188418.904715,-0.008545,0.007751,-0.992493,0.175053,0.523969,-0.222595,47,275,582,6240
1644188418.996,-0.010376,0.008545,-0.991394,0.281924,0.371298,-0.161527,48,283,576,6240
1644188419.044389,-0.007996,0.011597,-0.988953,0.388794,0.356031,-0.14626,53,286,578,6256
1644188419.095398,-0.007141,0.010071,-0.989441,0.373527,0.462901,-0.14626,52,277,593,6224
1644188419.141134,-0.006897,0.013306,-0.98761,0.266656,0.310229,-0.176794,53,274,587,6192
1644188419.189519,-0.00592,0.012512,-0.991821,0.098718,0.462901,-0.25313,42,277,579,6256
1644188419.237915,-0.006958,0.01239,-0.988831,0.205588,0.340763,-0.039389,49,270,577,6256
1644188419.286316,-0.009033,0.008728,-0.991638,0.236122,0.371298,-0.115725,53,281,587,6224
1644188419.334717,-0.006165,0.010437,-0.989502,-0.008153,0.462901,-0.069924,53,266,578,6224
1644188419.383097,-0.010498,0.009521,-0.99054,0.08345,0.508702,-0.069924,49,282,577,6224
1644188419.431477,-0.007141,0.010559,-0.990967,0.159786,0.325496,-0.039389,48,274,583,6240
1644188419.479854,-0.008179,0.008362,-0.989624,0.175053,0.371298,-0.069924,54,273,582,6240
1644188419.528302,-0.008301,0.009583,-0.99176,0.037649,0.462901,-0.222595,48,274,578,6256
1644188419.576665,-0.007324,0.010986,-0.990723,0.220855,0.462901,-0.100458,51,276,587,6256
1644188419.625456,-0.007812,0.011047,-0.991211,0.220855,0.417099,-0.085191,52,277,582,6192
1644188419.67538,-0.008789,0.010071,-0.992065,0.220855,0.371298,-0.130992,54,275,584,6224
1644188419.72549,-0.005127,0.011658,-0.989685,0.312458,0.417099,0.12855,39,281,578,6240
1644188419.770396,-0.005066,0.010071,-0.990234,0.190321,0.401832,-0.14626,49,282,584,6288
1644188419.867035,-0.008972,0.010498,-0.990051,0.144519,0.371298,-0.054656,49,277,570,6224
1644188419.915626,-0.006775,0.012329,-0.990417,0.098718,0.401832,0.006412,42,280,572,6240
1644188419.963845,-0.008423,0.011047,-0.990417,0.113985,0.233893,-0.024122,51,274,585,6192
1644188420.012416,-0.009033,0.011902,-0.991882,0.312458,0.447634,-0.085191,40,282,589,6240
1644188420.070677,-0.008972,0.009949,-0.991699,0.159786,0.386565,-0.085191,52,273,586,6256
1644188420.109668,-0.007507,0.013,-0.989624,0.251389,0.371298,-0.115725,52,275,586,6192
1644188420.157375,-0.008118,0.010071,-0.990723,0.205588,0.417099,0.098015,59,268,582,6176
1644188420.205779,-0.006714,0.009888,-0.989807,0.098718,0.462901,-0.176794,41,271,587,6256
1644188420.254172,-0.007568,0.011108,-0.987244,0.281924,0.356031,-0.130992,45,282,579,6256
1644188420.302565,-0.011108,0.009827,-0.992432,0.175053,0.447634,-0.222595,51,271,585,6176
1644188420.350951,-0.010864,0.011108,-0.992065,0.281924,0.447634,-0.14626,53,279,592,6256
1644188420.399349,-0.009094,0.01178,-0.991821,0.144519,0.447634,-0.024122,58,276,583,6256
1644188420.4477,-0.010315,0.010071,-0.992371,0.098718,0.432366,-0.085191,53,281,590,6240
1644188420.496137,-0.011047,0.010681,-0.992554,0.251389,0.310229,-0.085191,60,283,580,6256
1644188420.544504,-0.00769,0.01062,-0.99115,0.236122,0.447634,-0.161527,49,270,589,6224
1644188420.59295,-0.008728,0.008179,-0.990479,0.220855,0.447634,-0.161527,52,275,589,6224
1644188420.641316,-0.007874,0.011108,-0.989685,0.190321,0.310229,-0.054656,48,281,587,6240
1644188420.689883,-0.007324,0.011353,-0.990906,0.068183,0.417099,-0.115725,45,273,572,6224
1644188420.738628,-0.008057,0.008423,-0.992126,0.266656,0.356031,-0.192061,57,265,586,6160
1644188420.789126,-0.008606,0.01178,-0.98999,0.175053,0.417099,-0.130992,51,269,590,6288
1644188420.839626,-0.010864,0.009277,-0.989929,0.236122,0.508702,0.098015,48,286,592,6256
1644188420.884689,-0.006348,0.011658,-0.991028,0.236122,0.325496,-0.008855,54,275,586,6224
1644188420.980088,-0.010559,0.011597,-0.992432,0.220855,0.539237,0.006412,46,286,583,6240
1644188421.028501,-0.008484,0.011902,-0.991272,0.129252,0.401832,-0.222595,49,277,575,6240
1644188421.076936,-0.008301,0.009338,-0.989624,0.312458,0.447634,0.036947,58,283,571,6224
1644188421.125397,-0.007324,0.011536,-0.992615,0.052916,0.432366,0.021679,53,280,577,6192
1644188421.173635,-0.008179,0.008545,-0.992493,0.205588,0.462901,-0.115725,55,269,583,6224
1644188421.22203,-0.007874,0.012268,-0.989868,0.205588,0.432366,-0.085191,52,273,582,6256
1644188421.270424,-0.007812,0.011719,-0.990845,0.022382,0.356031,-0.100458,47,280,584,6224
1644188421.318869,-0.006592,0.012695,-0.991882,0.220855,0.340763,-0.024122,54,277,584,6192
1644188421.367214,-0.009033,0.011292,-0.990417,0.281924,0.294962,-0.024122,42,263,577,6240
1644188421.415592,-0.007141,0.012817,-0.989319,0.236122,0.554504,-0.100458,47,275,593,6240
1644188421.464006,-0.008667,0.010925,-0.987732,0.190321,0.24916,-0.054656,51,274,585,6240
1644188421.512387,-0.005676,0.013,-0.990356,0.327725,0.508702,-0.130992,48,276,583,6240
1644188421.560779,-0.005798,0.011169,-0.992004,0.236122,0.493435,0.052214,54,290,577,6224
1644188421.609178,-0.007996,0.014893,-0.98877,0.144519,0.386565,-0.085191,51,283,592,6240
1644188421.657565,-0.008118,0.011414,-0.989624,0.068183,0.325496,-0.14626,55,276,592,6240
1644188421.705923,-0.006531,0.010437,-0.991943,0.312458,0.447634,0.036947,51,274,585,6224
1644188421.754323,-0.008606,0.007446,-0.990051,0.129252,0.386565,-0.024122,57,268,591,6240
1644188421.802761,-0.008118,0.01239,-0.990784,0.297191,0.417099,-0.039389,48,279,590,6224
1644188421.851172,-0.008972,0.011902,-0.989807,0.266656,0.462901,0.021679,48,276,569,6224
1644188421.900774,-0.011169,0.01239,-0.988342,0.35826,0.356031,-0.069924,41,266,583,6224
1644188421.950982,-0.007263,0.010864,-0.993225,0.159786,0.386565,-0.161527,53,271,580,6224
1644188422.001301,-0.009399,0.012878,-0.989319,0.449863,0.523969,-0.192061,51,279,587,6224
1644188422.045916,-0.007812,0.008545,-0.991943,0.175053,0.478168,-0.024122,51,269,580,6256
1644188422.141542,-0.007812,0.01123,-0.990234,0.297191,0.585038,-0.176794,48,269,583,6240
1644188422.189885,-0.004517,0.010681,-0.990601,0.052916,0.447634,-0.039389,52,268,584,6128
1644188422.238286,-0.006531,0.011475,-0.991089,0.205588,0.356031,-0.14626,46,286,580,6224
1644188422.286667,-0.008911,0.009399,-0.988342,0.144519,0.371298,-0.008855,54,275,577,6192
1644188422.335182,-0.008789,0.010376,-0.990295,0.266656,0.462901,-0.25313,53,266,580,6288
1644188422.383457,-0.006348,0.010376,-0.98877,0.327725,0.371298,-0.14626,48,276,585,6256
1644188422.431863,-0.007996,0.010803,-0.988281,0.220855,0.310229,-0.085191,47,275,591,6176
1644188422.480241,-0.006714,0.01178,-0.991638,0.113985,0.371298,0.021679,55,276,578,6192
1644188422.528635,-0.006958,0.011841,-0.992004,0.220855,0.401832,-0.069924,40,270,582,6224
1644188422.577009,-0.00824,0.010376,-0.990173,0.312458,0.462901,-0.069924,54,275,584,6240
1644188422.625431,-0.006287,0.011536,-0.989563,0.373527,0.508702,-0.054656,61,282,577,6240
1644188422.673829,-0.00769,0.011658,-0.991943,0.342992,0.371298,-0.130992,48,283,590,6192
1644188422.722245,-0.006409,0.008301,-0.989258,0.236122,0.401832,-0.085191,46,279,576,6240
1644188422.770601,-0.008667,0.009949,-0.989807,0.144519,0.294962,-0.054656,52,285,586,6224
1644188422.818995,-0.008057,0.011353,-0.989136,0.08345,0.417099,-0.161527,48,281,578,6224
1644188422.867422,-0.007812,0.011719,-0.990479,0.175053,0.462901,-0.069924,53,274,585,6192
1644188422.915826,-0.004761,0.012207,-0.989197,0.113985,0.386565,-0.14626,52,268,579,6176
1644188422.964727,-0.003357,0.009094,-0.992737,0.190321,0.401832,-0.054656,48,276,592,6240
1644188423.066123,-0.008057,0.010193,-0.991211,0.144519,0.386565,-0.192061,45,273,591,6160
1644188423.112033,-0.006287,0.010071,-0.99115,0.236122,0.279695,-0.085191,55,279,592,6224
1644188423.157784,-0.006714,0.013733,-0.991699,0.08345,0.417099,-0.115725,43,281,583,6176
1644188423.206136,-0.005737,0.008118,-0.990173,0.022382,0.432366,-0.054656,41,271,576,6256
1644188423.254518,-0.007385,0.010376,-0.990723,0.327725,0.401832,-0.054656,51,276,583,6176
1644188423.302943,-0.00824,0.010559,-0.989929,0.08345,0.554504,-0.222595,42,273,575,6192
1644188423.35132,-0.006287,0.009766,-0.992371,0.281924,0.432366,-0.054656,48,276,587,6288
1644188423.399716,-0.006287,0.012573,-0.989075,0.098718,0.462901,-0.085191,49,277,582,6240
1644188423.448112,-0.006226,0.009521,-0.991028,0.35826,0.356031,-0.115725,53,279,590,6224
1644188423.496472,-0.007935,0.011719,-0.994934,0.220855,0.340763,-0.14626,47,275,584,6256
1644188423.544919,-0.007324,0.010559,-0.988586,0.297191,0.340763,-0.176794,52,287,582,6288
1644188423.593302,-0.008484,0.009216,-0.988342,0.266656,0.523969,0.067481,45,280,582,6288
1644188423.64168,-0.00647,0.010559,-0.985474,0.190321,0.386565,-0.192061,60,274,587,6256
1644188423.690073,-0.007629,0.009216,-0.992004,0.113985,0.356031,-0.130992,39,279,597,6256
1644188423.738472,-0.007263,0.014465,-0.989624,0.205588,0.447634,0.006412,48,271,585,6224
1644188423.786848,-0.00769,0.012024,-0.989197,0.098718,0.417099,-0.176794,52,282,568,6176
1644188423.83534,-0.008545,0.011353,-0.990601,0.175053,0.417099,-0.130992,35,275,589,6224
1644188423.885873,-0.007263,0.007568,-0.990662,0.205588,0.340763,-0.054656,51,269,578,6304
1644188423.936151,-0.007507,0.008789,-0.98822,0.297191,0.356031,-0.054656,59,273,589,6240
1644188423.98623,-0.004517,0.011169,-0.992371,0.205588,0.371298,-0.039389,57,275,579,6240
1644188424.077359,-0.006714,0.010681,-0.98938,0.220855,0.508702,-0.130992,55,281,587,6224
1644188424.125604,-0.008728,0.009338,-0.989563,0.08345,0.462901,-0.024122,45,263,584,6240
1644188424.174006,-0.008667,0.01239,-0.991577,0.266656,0.401832,-0.192061,43,274,578,6224
1644188424.222469,-0.009827,0.011353,-0.988159,0.312458,0.340763,-0.207328,47,273,579,6224
1644188424.270786,-0.009949,0.013062,-0.990723,0.144519,0.447634,-0.222595,45,285,579,6240
1644188424.31936,-0.007385,0.010925,-0.991516,0.449863,0.371298,-0.039389,48,271,585,6240
1644188424.367574,-0.009888,0.01062,-0.990295,0.205588,0.462901,-0.054656,53,271,583,6224
1644188424.415954,-0.0047,0.015076,-0.987549,0.175053,0.310229,0.006412,41,283,583,6256
1644188424.464346,-0.007629,0.013794,-0.990356,0.342992,0.447634,0.006412,47,270,589,6240
1644188424.512772,-0.008362,0.010071,-0.991272,0.190321,0.356031,0.052214,48,271,571,6256
1644188424.561156,-0.00885,0.00946,-0.993042,0.297191,0.478168,0.036947,39,281,587,6240
1644188424.609538,-0.006409,0.010986,-0.99054,0.220855,0.447634,-0.069924,48,276,587,6176
1644188424.657942,-0.008423,0.01178,-0.991333,0.08345,0.417099,-0.192061,48,281,583,6224
1644188424.706319,-0.008484,0.012512,-0.990295,0.205588,0.432366,-0.176794,54,280,582,6240
1644188424.754689,-0.007446,0.012146,-0.989807,0.190321,0.462901,-0.130992,42,275,584,6224
1644188424.803166,-0.006104,0.013672,-0.992065,0.404061,0.432366,-0.069924,52,277,596,6240
1644188424.851514,-0.007751,0.012817,-0.987183,0.373527,0.432366,0.006412,41,276,578,6256
1644188424.900336,-0.006165,0.009583,-0.989868,0.068183,0.432366,-0.192061,52,273,589,6224
1644188424.94834,-0.008667,0.010681,-0.991272,0.342992,0.478168,-0.069924,52,275,584,6224
1644188424.998377,-0.006958,0.011414,-0.989441,0.266656,0.386565,-0.085191,53,274,583,6304
1644188425.062424,-0.007446,0.010559,-0.990356,0.220855,0.508702,-0.176794,47,275,575,6192
1644188425.104323,-0.006897,0.012085,-0.988953,0.220855,0.356031,-0.024122,52,277,593,6256
1644188425.143041,-0.005249,0.009766,-0.986267,0.373527,0.417099,-0.069924,48,276,580,6224
1644188425.238625,-0.005859,0.011658,-0.992004,0.251389,0.478168,-0.237863,57,290,586,6240
1644188425.287011,-0.008179,0.011963,-0.989624,0.08345,0.264427,-0.069924,53,271,578,6256
1644188425.335401,-0.009338,0.012329,-0.993042,0.113985,0.325496,-0.130992,55,276,583,6176
1644188425.383837,-0.005798,0.009888,-0.989441,0.113985,0.401832,0.021679,41,279,578,6240
1644188425.432385,-0.004944,0.010925,-0.992615,0.220855,0.386565,-0.100458,39,281,585,6288
1644188425.480612,-0.009033,0.012634,-0.989441,0.190321,0.218626,-0.024122,42,265,579,6224
1644188425.529001,-0.005432,0.008972,-0.990417,0.297191,0.294962,-0.039389,43,274,578,6256
1644188425.5774,-0.009033,0.012085,-0.988708,0.251389,0.478168,-0.130992,41,283,578,6176
1644188425.625801,-0.00824,0.01062,-0.992432,0.281924,0.401832,-0.069924,52,270,582,6192
1644188425.674199,-0.007446,0.009521,-0.990967,0.144519,0.294962,-0.039389,45,280,582,6192
1644188425.722581,-0.006958,0.011658,-0.992615,0.236122,0.310229,-0.130992,41,274,587,6224
1644188425.770975,-0.005859,0.010071,-0.99054,0.220855,0.462901,-0.024122,46,279,585,6240
1644188425.819413,-0.004272,0.011475,-0.99176,0.251389,0.401832,-0.237863,52,282,591,6224
1644188425.867817,-0.00885,0.010498,-0.990601,0.129252,0.356031,-0.054656,58,262,576,6256
1644188425.916193,-0.011047,0.010559,-0.990967,0.190321,0.432366,-0.054656,48,276,587,6224
1644188425.964642,-0.008545,0.007874,-0.993347,0.205588,0.401832,0.006412,53,276,580,6192
1644188426.065195,-0.005249,0.007263,-0.990845,0.144519,0.340763,-0.14626,49,280,582,6176
1644188426.10967,-0.006714,0.012634,-0.99115,0.129252,0.233893,0.052214,59,282,582,6224
1644188426.158086,-0.005615,0.010559,-0.990967,0.205588,0.417099,-0.161527,51,281,585,6224
1644188426.206504,-0.010742,0.00946,-0.99115,0.266656,0.615573,-0.237863,51,276,583,6192
1644188426.254905,-0.008911,0.01178,-0.99115,0.190321,0.523969,-0.14626,55,279,580,6256
1644188426.303288,-0.005432,0.009399,-0.98999,0.236122,0.386565,0.052214,45,270,572,6240
1644188426.351681,-0.007507,0.011963,-0.988281,0.312458,0.340763,-0.298931,52,282,582,6224
1644188426.40008,-0.007202,0.013489,-0.991455,0.08345,0.371298,-0.192061,42,275,570,6256
1644188426.448476,-0.006226,0.013306,-0.990051,0.175053,0.417099,-0.237863,48,279,590,6224
1644188426.496871,-0.008362,0.009216,-0.989136,0.205588,0.447634,0.113282,51,279,583,6160
1644188426.545256,-0.009766,0.013062,-0.990601,0.251389,0.478168,-0.069924,46,274,592,6240
1644188426.593655,-0.006958,0.012207,-0.989441,0.175053,0.600305,-0.14626,38,280,586,6224
1644188426.642056,-0.006653,0.008728,-0.991821,0.251389,0.356031,-0.14626,45,273,586,6192
1644188426.690429,-0.006836,0.01062,-0.990173,0.159786,0.447634,-0.039389,41,276,590,6224
1644188426.739126,-0.004822,0.012085,-0.990479,0.052916,0.401832,-0.14626,48,271,592,6176
1644188426.78816,-0.010376,0.010986,-0.990051,0.327725,0.24916,-0.008855,51,271,580,6224
1644188426.839399,-0.006714,0.011597,-0.988647,0.220855,0.371298,-0.008855,47,263,582,6240
1644188426.890011,-0.006409,0.011108,-0.990173,0.190321,0.401832,-0.008855,52,275,579,6224
1644188426.980875,-0.007935,0.012207,-0.991211,0.205588,0.325496,-0.130992,48,274,576,6224
1644188427.029187,-0.007202,0.012268,-0.990967,0.159786,0.447634,-0.115725,48,281,587,6256
1644188427.077947,-0.004822,0.011719,-0.986206,0.159786,0.417099,0.021679,57,297,589,6192
1644188427.126027,-0.00592,0.009033,-0.990112,0.205588,0.447634,-0.039389,57,277,591,6240
1644188427.17435,-0.010193,0.011108,-0.991455,0.236122,0.432366,-0.192061,40,282,584,6224
1644188427.222775,-0.007874,0.009521,-0.990417,0.220855,0.401832,-0.069924,57,275,589,6128
1644188427.271129,-0.005432,0.013611,-0.988281,0.068183,0.401832,-0.115725,59,280,579,6224
1644188427.319537,-0.007996,0.009949,-0.988892,0.068183,0.447634,-0.25313,47,277,582,6192
1644188427.367922,-0.005005,0.010254,-0.989807,0.236122,0.478168,-0.14626,46,276,580,6224
1644188427.416335,-0.007446,0.010681,-0.990417,0.175053,0.417099,0.082748,55,281,571,6256
1644188427.464724,-0.00647,0.009521,-0.992737,0.159786,0.325496,-0.024122,47,282,586,6256
1644188427.513106,-0.004822,0.005554,-0.990967,0.281924,0.554504,-0.039389,48,283,573,6256
1644188427.561513,-0.008362,0.013062,-0.990295,0.113985,0.386565,-0.14626,57,280,584,6192
1644188427.609909,-0.006653,0.012756,-0.98822,0.190321,0.325496,-0.115725,49,280,582,6192
1644188427.658301,-0.009033,0.008545,-0.990479,0.190321,0.356031,-0.069924,39,279,590,6304
1644188427.706681,-0.009766,0.00824,-0.989807,0.236122,0.447634,-0.207328,52,273,593,6288
1644188427.755144,-0.006897,0.01178,-0.991028,0.236122,0.386565,-0.207328,48,271,590,6240
1644188427.803469,-0.007324,0.009399,-0.990784,0.251389,0.325496,-0.100458,45,285,584,6192
1644188427.851909,-0.009888,0.010742,-0.98999,0.251389,0.340763,-0.14626,55,276,590,6240
1644188427.901856,-0.00708,0.012024,-0.990479,0.220855,0.340763,-0.069924,42,282,579,6224
1644188427.952193,-0.007629,0.010071,-0.990845,0.388794,0.432366,-0.054656,45,270,589,6240
1644188428.002402,-0.009521,0.012695,-0.989868,0.236122,0.462901,-0.039389,51,274,587,6176
1644188428.059154,-0.005676,0.011597,-0.992371,0.251389,0.493435,0.021679,54,273,582,6192
1644188428.142721,-0.007202,0.011658,-0.991211,0.129252,0.371298,-0.085191,41,269,585,6224
1644188428.190617,-0.009521,0.010681,-0.991211,0.220855,0.386565,0.006412,36,283,580,6240
1644188428.23898,-0.010376,0.01062,-0.992126,0.175053,0.493435,-0.100458,41,286,585,6256
1644188428.287404,-0.009888,0.010315,-0.98999,0.251389,0.539237,-0.039389,48,274,594,6224
1644188428.335793,-0.004639,0.012756,-0.992554,0.175053,0.401832,-0.14626,36,274,585,6240
1644188428.384207,-0.006653,0.009277,-0.991882,0.312458,0.493435,-0.024122,52,277,593,6192
1644188428.432595,-0.007629,0.009277,-0.989258,0.205588,0.462901,-0.054656,49,280,586,6224
1644188428.48099,-0.008606,0.009827,-0.991455,0.159786,0.447634,-0.100458,35,282,593,6192
1644188428.529372,-0.009521,0.011169,-0.989868,0.159786,0.417099,-0.14626,48,271,573,6160
1644188428.57777,-0.008789,0.011108,-0.991089,-0.02342,0.386565,-0.130992,41,271,583,6256
1644188428.62614,-0.008972,0.012207,-0.99054,0.236122,0.432366,-0.115725,43,274,585,6240
1644188428.674629,-0.008423,0.008972,-0.990967,0.159786,0.371298,-0.100458,40,280,586,6192
1644188428.722947,-0.006836,0.011902,-0.99054,0.297191,0.432366,-0.054656,45,275,586,6256
1644188428.771334,-0.00769,0.010376,-0.991089,0.113985,0.264427,-0.069924,52,277,589,6256
1644188428.819731,-0.005249,0.013489,-0.990173,0.266656,0.371298,-0.085191,46,281,583,6240
1644188428.86817,-0.006958,0.009094,-0.99292,0.175053,0.386565,-0.115725,49,270,582,6224
1644188428.91655,-0.006714,0.010254,-0.990479,0.373527,0.462901,0.067481,58,269,580,6176
1644188428.965327,-0.007629,0.010986,-0.989685,0.113985,0.508702,-0.024122,54,265,584,6224
1644188429.063728,-0.00769,0.011475,-0.991516,0.144519,0.356031,0.021679,45,273,591,6192
1644188429.110083,-0.00708,0.011719,-0.990051,0.327725,0.386565,-0.039389,52,280,582,6224
1644188429.158502,-0.004517,0.007751,-0.991455,0.098718,0.386565,-0.085191,39,276,578,6240
1644188429.206864,-0.010498,0.010071,-0.993286,0.327725,0.340763,-0.039389,51,279,597,6224
1644188429.255281,-0.007263,0.010925,-0.991211,0.159786,0.386565,0.021679,52,277,589,6256
1644188429.303661,-0.009094,0.00946,-0.98938,0.205588,0.340763,-0.115725,52,273,582,6224
1644188429.352031,-0.008301,0.011475,-0.990295,0.129252,0.432366,0.036947,49,280,586,6224
1644188429.400451,-0.004333,0.00946,-0.99176,0.251389,0.356031,-0.024122,54,287,582,6240
1644188429.44884,-0.01001,0.011597,-0.989075,0.175053,0.325496,-0.039389,60,274,578,6256
1644188429.49721,-0.006165,0.010193,-0.991455,0.297191,0.417099,-0.008855,47,270,586,6240
1644188429.545626,-0.007263,0.010559,-0.993042,0.052916,0.508702,-0.024122,38,285,586,6224
1644188429.594045,-0.008789,0.009033,-0.991394,0.175053,0.432366,-0.207328,51,281,576,6256
1644188429.642409,-0.00769,0.010193,-0.992615,0.037649,0.294962,-0.085191,46,276,592,6240
1644188429.69077,-0.008972,0.009766,-0.991211,0.281924,0.478168,-0.039389,58,283,601,6240
1644188429.739199,-0.006836,0.007874,-0.991699,0.220855,0.585038,-0.176794,53,264,580,6224
1644188429.787599,-0.008484,0.010864,-0.989197,0.419328,0.462901,-0.069924,46,276,590,6224
1644188429.835983,-0.009521,0.007874,-0.992371,0.175053,0.432366,0.036947,47,280,589,6192
1644188429.884855,-0.008789,0.008728,-0.992065,0.159786,0.417099,-0.130992,49,273,584,6160
1644188429.934341,-0.008301,0.010559,-0.993591,0.205588,0.432366,-0.024122,46,269,587,6288
1644188429.984542,-0.008667,0.012146,-0.992798,0.205588,0.432366,-0.14626,51,279,583,6176
1644188430.034667,-0.009399,0.009888,-0.993347,0.220855,0.417099,-0.130992,41,288,594,6224
1644188430.08538,-0.006592,0.01062,-0.991089,0.327725,0.401832,-0.115725,51,279,585,6256
1644188430.174944,-0.009033,0.009827,-0.991272,0.220855,0.356031,-0.024122,48,276,587,6224
1644188430.223174,-0.009705,0.01239,-0.991699,0.022382,0.356031,-0.039389,46,271,580,6192
1644188430.271552,-0.008545,0.009094,-0.988342,0.220855,0.417099,-0.054656,42,268,582,6224
1644188430.319927,-0.006165,0.010254,-0.992371,0.175053,0.325496,-0.085191,52,277,582,6224
1644188430.368337,-0.00769,0.009766,-0.993591,0.251389,0.447634,-0.130992,48,269,583,6288
1644188430.416741,-0.006653,0.011353,-0.993469,0.404061,0.386565,-0.115725,48,279,587,6192
1644188430.465166,-0.008118,0.01062,-0.988892,0.373527,0.432366,-0.161527,57,273,589,6192
1644188430.513536,-0.004883,0.010986,-0.991211,0.327725,0.554504,-0.054656,45,277,579,6224
1644188430.561931,-0.010864,0.00946,-0.990051,0.266656,0.493435,-0.130992,57,275,593,6240
1644188430.6103,-0.008179,0.012939,-0.993835,0.159786,0.417099,-0.039389,53,276,580,6240
1644188430.658684,-0.005188,0.010315,-0.992737,0.327725,0.310229,-0.161527,42,287,572,6240
1644188430.707093,-0.007019,0.009766,-0.989075,0.220855,0.478168,-0.024122,45,275,586,6160
1644188430.755462,-0.009766,0.011108,-0.986938,0.037649,0.310229,-0.069924,47,275,589,6240
1644188430.803888,-0.008179,0.009155,-0.992371,0.159786,0.325496,-0.085191,45,285,582,6256
1644188430.852295,-0.00946,0.010742,-0.993347,0.205588,0.371298,-0.130992,47,287,593,6176
1644188430.900673,-0.00647,0.012329,-0.99054,0.404061,0.340763,-0.100458,47,285,579,6240
1644188430.949055,-0.006653,0.009766,-0.990295,0.220855,0.279695,-0.054656,43,276,587,6256
1644188430.997695,-0.006836,0.010376,-0.988342,0.266656,0.371298,-0.100458,46,276,585,6224
1644188431.045869,-0.005676,0.01062,-0.989929,0.144519,0.646107,-0.069924,53,276,580,6176
1644188431.101482,-0.009216,0.009033,-0.991516,0.08345,0.417099,0.082748,52,273,600,6192
1644188431.145784,-0.01001,0.010315,-0.992188,0.113985,0.554504,-0.024122,53,279,578,6224
1644188431.196538,-0.009338,0.008545,-0.989319,0.144519,0.356031,-0.115725,45,280,586,6192
1644188431.240573,-0.009705,0.011292,-0.991211,0.052916,0.478168,-0.024122,48,276,585,6304
1644188431.336159,-0.007629,0.009705,-0.991516,0.327725,0.462901,-0.100458,49,277,577,6256
1644188431.384827,-0.006958,0.008179,-0.992981,0.159786,0.447634,-0.161527,45,277,584,6240
1644188431.432955,-0.009216,0.009399,-0.989319,0.190321,0.462901,-0.115725,57,270,586,6256
1644188431.481338,-0.010437,0.012329,-0.992981,0.220855,0.401832,-0.207328,51,269,583,6240
1644188431.529758,-0.008728,0.009583,-0.988708,0.129252,0.325496,-0.085191,40,268,586,6192
1644188431.578087,-0.009949,0.008301,-0.991455,0.205588,0.417099,-0.039389,47,270,586,6224
1644188431.626517,-0.011047,0.009705,-0.991272,0.007115,0.447634,0.143817,54,280,589,6288
1644188431.674901,-0.009888,0.011841,-0.991699,0.251389,0.386565,-0.069924,49,275,579,6224
1644188431.723318,-0.009033,0.012329,-0.992188,0.144519,0.386565,-0.054656,51,269,583,6224
1644188431.77171,-0.009033,0.008484,-0.992554,0.205588,0.417099,-0.100458,47,275,579,6256
1644188431.820134,-0.007141,0.008728,-0.991089,0.251389,0.478168,-0.100458,47,280,582,6240
1644188431.868524,-0.006775,0.010132,-0.992737,0.419328,0.294962,0.021679,46,283,592,6256
1644188431.916921,-0.010315,0.011047,-0.98999,0.266656,0.356031,-0.161527,55,269,585,6176
1644188431.965308,-0.007263,0.010681,-0.989441,0.327725,0.493435,-0.085191,41,288,587,6240
1644188432.013716,-0.006165,0.010498,-0.992798,0.236122,0.386565,0.021679,52,280,586,6176
1644188432.075831,-0.009155,0.010193,-0.991882,0.220855,0.325496,-0.069924,47,280,591,6240
1644188432.11043,-0.009399,0.008667,-0.991333,0.327725,0.325496,0.006412,53,276,583,6192
1644188432.15915,-0.004333,0.007935,-0.992493,0.159786,0.356031,0.067481,48,281,580,6192
1644188432.208478,-0.008179,0.010864,-0.991882,0.190321,0.356031,-0.069924,48,271,585,6240
1644188432.258623,-0.007996,0.011414,-0.989258,0.220855,0.462901,-0.085191,48,264,578,6224
1644188432.30873,-0.010254,0.01062,-0.991699,0.297191,0.340763,0.052214,38,273,584,6192
1644188432.353621,-0.006836,0.010803,-0.990234,0.404061,0.325496,0.021679,51,279,578,6240
1644188432.449182,-0.007935,0.011963,-0.991699,0.327725,0.386565,-0.008855,45,268,575,6192
1644188432.497576,-0.009705,0.012451,-0.989502,0.312458,0.356031,0.021679,52,275,586,6192
1644188432.545961,-0.006775,0.010193,-0.989624,0.007115,0.356031,-0.115725,51,259,585,6256
1644188432.59438,-0.00708,0.010925,-0.989258,0.007115,0.447634,-0.085191,39,266,585,6224
1644188432.642781,-0.007324,0.009949,-0.99176,0.190321,0.432366,-0.024122,52,280,582,6256
1644188432.691172,-0.006531,0.010681,-0.991882,0.175053,0.233893,-0.100458,58,276,580,6224
1644188432.739567,-0.005005,0.011353,-0.990479,0.113985,0.493435,0.189618,41,274,583,6224
1644188432.787957,-0.011658,0.009827,-0.990967,0.190321,0.310229,0.006412,47,268,582,6288
1644188432.836392,-0.008057,0.008301,-0.989624,0.205588,0.386565,-0.176794,48,269,578,6224
1644188432.884798,-0.008057,0.008972,-0.991394,0.175053,0.478168,-0.176794,60,281,590,6256
1644188432.933194,-0.005432,0.009033,-0.990784,0.220855,0.264427,-0.130992,47,280,584,6224
1644188432.981571,-0.00824,0.012146,-0.991333,0.281924,0.493435,0.052214,43,274,571,6224
1644188433.029961,-0.009644,0.01001,-0.992615,0.175053,0.539237,-0.024122,60,269,587,6240
1644188433.095278,-0.004272,0.008423,-0.99115,0.281924,0.447634,-0.054656,47,282,589,6240
1644188433.126687,-0.005798,0.011536,-0.990295,0.266656,0.386565,-0.130992,55,264,580,6240
1644188433.175466,-0.010254,0.011047,-0.993896,0.220855,0.356031,-0.222595,46,283,583,6224
1644188433.224962,-0.010681,0.011597,-0.991882,0.281924,0.325496,-0.176794,48,271,580,6192
1644188433.275316,-0.008179,0.009094,-0.989563,0.251389,0.462901,-0.054656,53,279,590,6224
1644188433.325246,-0.006165,0.011353,-0.993286,0.236122,0.340763,-0.085191,48,283,585,6240
1644188433.417056,-0.007141,0.010681,-0.99054,0.144519,0.417099,-0.207328,41,274,585,6192
1644188433.465463,-0.007812,0.013306,-0.988403,0.098718,0.554504,-0.024122,47,270,584,6192
1644188433.513838,-0.005981,0.009155,-0.98877,0.129252,0.478168,-0.14626,51,286,573,6240
1644188433.562383,-0.010925,0.013184,-0.993225,0.342992,0.371298,-0.085191,48,286,571,6288
1644188433.610624,-0.006958,0.010193,-0.991577,0.175053,0.417099,-0.039389,47,280,589,6256
1644188433.659002,-0.007507,0.01123,-0.992249,0.251389,0.493435,-0.085191,48,279,583,6224
1644188433.707418,-0.005859,0.011841,-0.990967,0.236122,0.523969,-0.069924,41,283,576,6240
1644188433.755793,-0.007874,0.011169,-0.989441,0.190321,0.478168,-0.024122,46,281,583,6224
1644188433.804194,-0.008118,0.010925,-0.989258,0.159786,0.417099,-0.14626,46,279,583,6224
1644188433.852648,-0.007385,0.010864,-0.992065,0.236122,0.356031,-0.069924,49,277,579,6224
1644188433.901029,-0.008118,0.010742,-0.990295,0.281924,0.432366,-0.161527,46,276,585,6224
1644188433.94942,-0.006165,0.011169,-0.988403,0.129252,0.371298,0.067481,41,279,590,6176
1644188433.99782,-0.008545,0.011902,-0.991272,0.373527,0.111756,-0.100458,54,270,577,6192
1644188434.046205,-0.005432,0.012024,-0.992249,0.190321,0.462901,-0.161527,45,277,596,6224
1644188434.098602,-0.009277,0.010071,-0.988892,0.220855,0.24916,0.006412,45,277,579,6192
1644188434.142974,-0.008057,0.009705,-0.989807,0.144519,0.325496,-0.054656,54,270,591,6256
1644188434.191351,-0.008057,0.010071,-0.989685,0.312458,0.356031,-0.14626,60,279,587,6192
1644188434.239741,-0.010559,0.007446,-0.990173,0.190321,0.310229,-0.085191,47,285,577,6224
1644188434.288142,-0.006287,0.010559,-0.988953,0.419328,0.478168,-0.039389,52,287,593,6240
1644188434.337444,-0.010986,0.010498,-0.990784,0.327725,0.386565,0.006412,49,282,589,6288
1644188434.386857,-0.007141,0.009155,-0.991028,0.266656,0.447634,0.159084,48,271,585,6256
1644188434.437609,-0.005066,0.010315,-0.991516,0.007115,0.386565,-0.130992,55,279,583,6224
1644188434.482318,-0.009155,0.010864,-0.991394,0.251389,0.432366,-0.024122,48,274,573,6224
1644188434.578473,-0.008118,0.009216,-0.990784,0.251389,0.294962,-0.024122,49,275,582,6160
1644188434.62689,-0.008606,0.01001,-0.991882,0.190321,0.356031,-0.14626,40,275,582,6240
1644188434.675382,-0.01123,0.011047,-0.990112,0.327725,0.417099,-0.237863,42,277,582,6224
1644188434.723692,-0.00769,0.009338,-0.993164,0.220855,0.478168,-0.176794,41,271,583,6288
1644188434.77207,-0.009521,0.010437,-0.990601,0.129252,0.585038,-0.039389,47,280,589,6240
1644188434.820458,-0.007629,0.011902,-0.990479,0.205588,0.585038,-0.100458,49,280,579,6256
1644188434.868868,-0.007812,0.012268,-0.992493,0.190321,0.417099,0.067481,52,275,582,6224
1644188434.917288,-0.006836,0.008179,-0.990417,0.220855,0.340763,0.052214,45,268,572,6176
1644188434.965685,-0.007996,0.013733,-0.991394,0.327725,0.432366,-0.008855,32,283,585,6240
1644188435.014116,-0.009583,0.00946,-0.992004,0.205588,0.325496,-0.100458,51,274,580,6240
1644188435.06447,-0.008301,0.011536,-0.991455,0.052916,0.417099,-0.024122,54,275,586,6192
1644188435.110844,-0.007751,0.010193,-0.988342,0.190321,0.462901,-0.054656,53,276,587,6224
1644188435.159214,-0.008972,0.010803,-0.98999,0.251389,0.478168,-0.039389,39,281,587,6224
1644188435.207603,-0.007263,0.010254,-0.993958,0.205588,0.508702,-0.14626,51,271,576,6256
1644188435.255975,-0.007935,0.011902,-0.992004,0.266656,0.356031,0.006412,52,282,589,6224
1644188435.304391,-0.008972,0.012512,-0.993103,0.251389,0.386565,-0.100458,38,280,598,6176
1644188435.352774,-0.008423,0.011047,-0.991028,0.236122,0.432366,0.082748,47,265,582,6224
1644188435.401175,-0.00946,0.012146,-0.989563,0.281924,0.340763,0.052214,52,273,589,6224
1644188435.449565,-0.008301,0.006897,-0.992004,0.266656,0.432366,-0.14626,55,271,590,6304
1644188435.498662,-0.007263,0.011047,-0.991028,0.281924,0.478168,-0.115725,57,280,593,6240
1644188435.548781,-0.009338,0.01062,-0.992004,0.220855,0.432366,-0.25313,38,268,589,6224
1644188435.598762,-0.010681,0.010986,-0.994446,0.205588,0.371298,-0.085191,47,273,584,6240
1644188435.643893,-0.005859,0.011047,-0.990051,0.175053,0.478168,-0.115725,49,275,577,6224
1644188435.739934,-0.006592,0.008972,-0.992432,0.342992,0.417099,-0.085191,55,274,583,6224
1644188435.788299,-0.008728,0.010559,-0.988831,0.236122,0.432366,-0.039389,47,275,586,6192
1644188435.836696,-0.009766,0.008118,-0.992371,0.190321,0.294962,0.067481,47,275,591,6192
1644188435.885179,-0.005737,0.012695,-0.990173,0.159786,0.432366,0.021679,45,273,575,6224
1644188435.93356,-0.008789,0.00885,-0.991882,0.251389,0.325496,-0.161527,35,280,582,6240
1644188435.981903,-0.006348,0.01123,-0.991943,0.281924,0.478168,-0.008855,58,276,585,6256
1644188436.030332,-0.007751,0.007263,-0.993469,0.159786,0.432366,-0.008855,54,277,575,6256
1644188436.084348,-0.007996,0.010986,-0.989075,0.220855,0.478168,-0.161527,57,280,593,6160
1644188436.127119,-0.00769,0.010803,-0.993347,0.297191,0.371298,-0.161527,47,280,591,6256
1644188436.175472,-0.012085,0.012268,-0.992065,0.297191,0.417099,-0.024122,43,271,580,6240
1644188436.223864,-0.006714,0.011536,-0.992798,0.220855,0.462901,-0.161527,47,277,586,6224
1644188436.272286,-0.007446,0.011047,-0.992493,0.129252,0.279695,-0.085191,55,269,587,6240
1644188436.320648,-0.007446,0.011902,-0.992126,0.098718,0.325496,-0.085191,43,266,580,6288
1644188436.369043,-0.010498,0.012268,-0.989685,0.113985,0.356031,-0.054656,51,269,590,6192
1644188436.417428,-0.007996,0.012024,-0.990417,0.144519,0.356031,-0.039389,51,276,580,6256
1644188436.465813,-0.008911,0.011719,-0.992798,0.251389,0.340763,-0.237863,53,279,583,6256
1644188436.514209,-0.007629,0.01532,-0.990662,0.236122,0.401832,-0.130992,40,282,586,6288
1644188436.56264,-0.008972,0.009888,-0.990601,0.342992,0.386565,-0.085191,49,280,584,6176
1644188436.611035,-0.005432,0.009521,-0.990845,-0.038687,0.401832,-0.008855,54,285,579,6304
1644188436.661026,-0.007446,0.008911,-0.992615,0.129252,0.493435,0.067481,48,283,571,6160
1644188436.711444,-0.005981,0.008972,-0.990845,0.129252,0.356031,-0.024122,42,273,575,6224
1644188436.756432,-0.007202,0.013062,-0.992676,0.144519,0.356031,-0.115725,47,273,584,6192
1644188436.852983,-0.006287,0.011536,-0.99054,0.190321,0.218626,-0.298931,43,274,578,6192
1644188436.901396,-0.008057,0.011414,-0.988647,0.236122,0.401832,-0.024122,45,277,572,6224
1644188436.94979,-0.009949,0.007202,-0.992981,0.205588,0.447634,-0.054656,47,277,589,6224
1644188436.998169,-0.008911,0.010864,-0.990723,0.327725,0.539237,-0.130992,53,279,576,6240
1644188437.046586,-0.00769,0.011414,-0.993103,0.434595,0.600305,-0.085191,40,282,582,6192
1644188437.095567,-0.008545,0.011475,-0.992493,0.220855,0.447634,-0.130992,47,280,584,6192
1644188437.143382,-0.008179,0.006897,-0.992737,0.266656,0.508702,-0.085191,45,277,584,6224
1644188437.191719,-0.005493,0.010071,-0.990906,0.220855,0.447634,0.006412,42,280,577,6224
1644188437.240129,-0.008728,0.009155,-0.990601,0.052916,0.310229,-0.268397,51,286,583,6224
1644188437.288481,-0.007629,0.008911,-0.993774,0.144519,0.340763,-0.054656,47,280,584,6224
1644188437.336941,-0.009277,0.009766,-0.992249,0.297191,0.264427,-0.130992,51,281,594,6240
1644188437.385291,-0.008789,0.010681,-0.991699,0.175053,0.356031,-0.024122,42,280,584,6256
1644188437.43366,-0.00708,0.007019,-0.991272,0.236122,0.447634,-0.024122,55,286,583,6256
1644188437.482068,-0.005676,0.011414,-0.991211,0.312458,0.539237,-0.085191,48,274,585,6240
1644188437.530467,-0.006775,0.010803,-0.990723,0.159786,0.432366,-0.085191,52,268,591,6160
1644188437.57942,-0.007568,0.009216,-0.989685,0.144519,0.447634,-0.100458,58,281,583,6256
1644188437.629543,-0.007202,0.011353,-0.989807,0.266656,0.462901,-0.069924,49,275,584,6224
1644188437.679911,-0.009705,0.009277,-0.989624,0.312458,0.294962,-0.069924,55,283,587,6224
1644188437.724898,-0.009766,0.01062,-0.990906,0.266656,0.340763,0.067481,43,271,578,6224
1644188437.820827,-0.006409,0.009583,-0.991516,0.159786,0.432366,-0.008855,54,270,591,6224
1644188437.869223,-0.007935,0.010315,-0.989136,0.08345,0.432366,-0.054656,54,275,593,6224
1644188437.920955,-0.009827,0.010437,-0.993347,0.312458,0.340763,0.021679,49,270,591,6176
1644188437.966043,-0.012756,0.01062,-0.990295,0.297191,0.432366,-0.024122,46,283,583,6240
1644188438.014443,-0.006287,0.010742,-0.991577,0.144519,0.447634,-0.207328,38,273,584,6192
1644188438.07056,-0.00708,0.011475,-0.989807,0.205588,0.417099,-0.115725,43,276,592,6288
1644188438.111222,-0.007202,0.01062,-0.987915,0.159786,0.417099,-0.069924,52,275,586,6240
1644188438.159629,-0.008362,0.011169,-0.99115,0.236122,0.417099,-0.069924,42,282,568,6192
1644188438.207977,-0.007751,0.009277,-0.990906,0.175053,0.310229,0.067481,42,268,579,6176
1644188438.256375,-0.007812,0.010803,-0.990479,0.129252,0.294962,-0.054656,41,279,583,6240
1644188438.304731,-0.00647,0.009338,-0.991211,0.113985,0.310229,-0.115725,45,282,577,6224
1644188438.35319,-0.009766,0.009399,-0.989868,0.434595,0.447634,-0.176794,51,279,578,6224
1644188438.401513,-0.008728,0.013611,-0.988281,0.297191,0.417099,-0.085191,40,282,591,6224
1644188438.449944,-0.008057,0.009644,-0.990051,0.404061,0.523969,-0.130992,46,279,580,6192
1644188438.498325,-0.006836,0.010437,-0.990295,0.190321,0.417099,-0.207328,47,273,577,6240
1644188438.546735,-0.009644,0.015259,-0.992432,0.236122,0.493435,-0.008855,45,275,593,6176
1644188438.59519,-0.006958,0.008423,-0.991089,0.159786,0.340763,-0.207328,55,276,583,6176
1644188438.643506,-0.008911,0.009094,-0.98822,0.312458,0.371298,-0.085191,47,273,577,6240
1644188438.691898,-0.006775,0.012939,-0.98877,0.266656,0.462901,0.036947,46,276,583,6192
1644188438.740526,-0.005554,0.006592,-0.993408,0.373527,0.371298,-0.207328,52,270,584,6240
1644188438.791281,-0.006836,0.011353,-0.990295,0.236122,0.340763,-0.100458,52,265,586,6240
1644188438.841912,-0.008606,0.013733,-0.992126,0.251389,0.417099,-0.069924,52,275,586,6224
1644188438.887132,-0.009399,0.012756,-0.990967,0.220855,0.340763,-0.039389,48,283,580,6224
1644188438.982463,-0.006592,0.011292,-0.992615,0.144519,0.325496,-0.161527,46,274,590,6192
1644188439.030686,-0.008728,0.010498,-0.993286,0.434595,0.371298,-0.069924,42,270,577,6240
1644188439.079193,-0.007751,0.011292,-0.991821,0.08345,0.340763,-0.192061,52,268,577,6192
1644188439.127427,-0.006348,0.010437,-0.990845,0.297191,0.539237,-0.14626,48,279,578,6192
1644188439.175823,-0.010376,0.00824,-0.992065,0.251389,0.356031,-0.161527,41,276,583,6224
1644188439.224239,-0.004822,0.012024,-0.990112,0.037649,0.386565,-0.115725,49,282,579,6224
1644188439.272614,-0.009155,0.009521,-0.991821,0.236122,0.401832,-0.054656,40,275,577,6160
1644188439.321017,-0.006836,0.012024,-0.989807,0.190321,0.523969,-0.100458,47,280,579,6304
1644188439.369418,-0.008911,0.013,-0.989929,0.297191,0.401832,-0.054656,58,276,592,6256
1644188439.417786,-0.006226,0.009644,-0.989197,0.175053,0.371298,-0.161527,52,275,582,6160
1644188439.466192,-0.006836,0.01239,-0.990234,0.35826,0.447634,0.067481,53,276,578,6240
1644188439.514821,-0.008057,0.011719,-0.991516,0.129252,0.371298,-0.085191,51,271,583,6224
1644188439.562968,-0.009644,0.009705,-0.989258,0.373527,0.417099,-0.14626,52,280,589,6224
1644188439.61137,-0.008423,0.007507,-0.990356,0.251389,0.432366,-0.069924,53,276,585,6256
1644188439.659766,-0.008362,0.008972,-0.988953,0.159786,0.401832,-0.130992,57,282,591,6240
1644188439.708155,-0.007324,0.01001,-0.991089,0.327725,0.371298,-0.100458,54,275,579,6224
1644188439.756524,-0.006104,0.010315,-0.989075,0.251389,0.523969,-0.100458,54,277,586,6256
1644188439.805379,-0.007996,0.009949,-0.989502,0.205588,0.356031,0.006412,46,274,590,6160
1644188439.853748,-0.007751,0.013611,-0.989685,0.205588,0.401832,0.021679,51,269,594,6160
1644188439.903999,-0.007751,0.012817,-0.989563,0.251389,0.417099,-0.085191,48,288,583,6256
1644188439.954307,-0.008728,0.010559,-0.99115,0.037649,0.356031,-0.085191,35,275,582,6192
1644188439.999075,-0.007324,0.011414,-0.990784,0.236122,0.539237,0.021679,52,275,586,6224
1644188440.095503,-0.009338,0.005005,-0.990784,0.297191,0.325496,-0.069924,49,270,598,6224
1644188440.143688,-0.009277,0.008606,-0.991516,0.46513,0.172824,-0.008855,42,270,575,6192
1644188440.19206,-0.00946,0.00885,-0.991638,0.190321,0.417099,-0.130992,46,266,585,6160
1644188440.240469,-0.00708,0.009216,-0.99054,0.236122,0.264427,-0.069924,42,282,579,6192
1644188440.288873,-0.008545,0.009521,-0.992615,0.098718,0.417099,-0.115725,45,280,586,6224
1644188440.33746,-0.009949,0.008728,-0.992798,0.220855,0.417099,-0.222595,51,283,590,6224
1644188440.38564,-0.008728,0.008789,-0.989929,0.297191,0.401832,-0.039389,45,277,582,6176
1644188440.434029,-0.004517,0.01178,-0.992432,0.175053,0.264427,-0.024122,54,273,589,6240
1644188440.482453,-0.010498,0.008972,-0.992371,0.159786,0.508702,-0.176794,51,279,590,6160
1644188440.53086,-0.009705,0.009216,-0.990417,0.190321,0.462901,-0.14626,55,279,585,6240
1644188440.579224,-0.007202,0.012024,-0.993164,0.144519,0.310229,-0.14626,49,275,589,6224
1644188440.627626,-0.009216,0.009155,-0.989746,0.052916,0.401832,-0.100458,46,279,576,6224
1644188440.67602,-0.007507,0.009644,-0.992493,0.266656,0.325496,-0.176794,42,285,591,6176
1644188440.724392,-0.009277,0.00946,-0.993652,0.08345,0.264427,-0.207328,45,285,584,6192
1644188440.772815,-0.006714,0.009155,-0.987549,0.312458,0.233893,-0.115725,59,275,582,6256
1644188440.821223,-0.011963,0.010437,-0.990967,0.251389,0.493435,-0.161527,43,286,585,6224
1644188440.869629,-0.007446,0.011108,-0.991394,0.144519,0.462901,-0.085191,57,282,591,6160
1644188440.918227,-0.009949,0.01001,-0.991577,0.068183,0.478168,-0.085191,46,281,590,6224
1644188440.966429,-0.00708,0.009338,-0.990601,0.113985,0.371298,0.067481,47,273,582,6192
1644188441.065386,-0.006531,0.010193,-0.98877,0.220855,0.371298,-0.054656,52,277,584,6304
1644188441.111536,-0.007446,0.00824,-0.99231,0.236122,0.325496,-0.161527,46,291,590,6240
1644188441.159936,-0.008301,0.010254,-0.993896,0.327725,0.417099,0.082748,51,276,571,6160
1644188441.208332,-0.010193,0.010132,-0.990601,0.205588,0.432366,0.006412,49,270,579,6224
1644188441.256698,-0.007507,0.008362,-0.99176,0.175053,0.447634,-0.14626,53,283,590,6256
1644188441.305151,-0.011658,0.010559,-0.990295,0.08345,0.218626,-0.130992,53,279,585,6224
1644188441.353518,-0.008301,0.013367,-0.992371,0.251389,0.279695,-0.115725,45,285,579,6256
1644188441.401908,-0.00946,0.008606,-0.988831,0.220855,0.462901,-0.008855,40,273,591,6240
1644188441.450274,-0.008545,0.010681,-0.993042,0.312458,0.356031,-0.176794,36,274,585,6192
1644188441.498669,-0.009338,0.007812,-0.99054,0.266656,0.294962,0.036947,48,286,583,6240
1644188441.547087,-0.007629,0.011719,-0.992188,0.205588,0.371298,-0.100458,55,274,606,6288
1644188441.595478,-0.007385,0.010315,-0.991394,0.236122,0.554504,-0.115725,49,273,584,6224
1644188441.643876,-0.008118,0.007385,-0.993225,0.327725,0.539237,0.082748,54,277,577,6256
1644188441.692286,-0.006592,0.007996,-0.991516,0.205588,0.386565,-0.207328,41,276,585,6160
1644188441.740657,-0.009216,0.010437,-0.992188,0.281924,0.462901,-0.085191,51,279,583,6192
1644188441.78906,-0.00708,0.011292,-0.99231,0.08345,0.539237,-0.069924,40,275,589,6256
1644188441.83749,-0.007202,0.009888,-0.991577,0.312458,0.417099,-0.14626,53,276,578,6240
1644188441.885874,-0.006531,0.008728,-0.990601,0.190321,0.340763,-0.008855,48,283,583,6224
1644188441.935649,-0.006775,0.008484,-0.990723,0.327725,0.401832,-0.161527,46,274,580,6240
1644188441.985823,-0.008057,0.008545,-0.991943,0.205588,0.493435,-0.008855,49,280,575,6192
1644188442.036331,-0.008606,0.012512,-0.993103,0.144519,0.508702,0.021679,46,274,590,6160
1644188442.084877,-0.008789,0.010498,-0.99115,0.190321,0.417099,-0.085191,55,264,590,6240
1644188442.176188,-0.007874,0.009399,-0.990845,0.266656,0.371298,-0.100458,48,281,585,6224
1644188442.224844,-0.008179,0.011108,-0.990967,0.175053,0.493435,0.052214,42,275,579,6224
1644188442.272994,-0.007385,0.008484,-0.99176,0.129252,0.523969,-0.237863,48,276,585,6240
1644188442.321345,-0.006775,0.011292,-0.992981,0.190321,0.401832,-0.115725,47,277,577,6224
1644188442.369764,-0.007629,0.009888,-0.990723,0.434595,0.432366,-0.100458,38,282,589,6224
1644188442.418157,-0.009033,0.012451,-0.992004,0.175053,0.462901,-0.161527,45,275,579,6256
1644188442.466542,-0.00885,0.010315,-0.993469,0.205588,0.478168,-0.039389,43,264,587,6256
1644188442.514991,-0.005615,0.009766,-0.991638,0.220855,0.447634,-0.207328,51,281,592,6240
1644188442.56335,-0.008972,0.009399,-0.990051,0.220855,0.432366,-0.207328,52,275,582,6240
1644188442.611735,-0.007935,0.014526,-0.991089,0.205588,0.417099,-0.100458,43,281,578,6224
1644188442.660131,-0.00769,0.012634,-0.989624,0.342992,0.539237,-0.161527,51,271,587,6256
1644188442.708523,-0.00946,0.010132,-0.990051,0.35826,0.386565,-0.176794,49,280,586,6224
1644188442.756917,-0.007202,0.008728,-0.992126,0.236122,0.356031,-0.069924,53,271,578,6240
1644188442.805302,-0.009827,0.007263,-0.991333,0.35826,0.310229,-0.069924,57,268,584,6224
1644188442.853737,-0.008423,0.010681,-0.990601,0.159786,0.24916,0.036947,51,269,583,6256
1644188442.902184,-0.007324,0.011963,-0.990051,0.342992,0.386565,0.021679,52,275,584,6240
1644188442.950531,-0.006897,0.009644,-0.989136,0.159786,0.447634,-0.008855,51,274,590,6256
1644188442.998883,-0.006836,0.010803,-0.99231,0.297191,0.401832,-0.100458,62,281,587,6240
1644188443.058991,-0.00708,0.012878,-0.993225,0.297191,0.493435,-0.024122,53,281,583,6224
1644188443.101947,-0.006287,0.011841,-0.990479,0.144519,0.462901,-0.054656,38,268,593,6240
1644188443.148121,-0.008545,0.011292,-0.991943,0.205588,0.432366,-0.176794,45,275,579,6240
1644188443.196514,-0.00647,0.007202,-0.990906,0.312458,0.386565,-0.085191,40,277,586,6224
1644188443.24151,-0.00885,0.009521,-0.992615,0.175053,0.462901,-0.207328,52,285,589,6240
1644188443.337606,-0.00824,0.012207,-0.989502,0.113985,0.417099,-0.130992,48,276,585,6192
1644188443.386012,-0.009521,0.009277,-0.990173,0.068183,0.569771,-0.115725,55,271,585,6176
1644188443.434412,-0.007446,0.00885,-0.990356,0.342992,0.432366,0.006412,52,280,584,6240
1644188443.482833,-0.007507,0.009155,-0.992737,0.159786,0.417099,-0.039389,45,270,584,6176
1644188443.531196,-0.010742,0.009033,-0.988281,0.205588,0.417099,-0.085191,49,285,593,6256
1644188443.579594,-0.007507,0.01239,-0.989624,0.404061,0.462901,-0.085191,48,281,580,6176
1644188443.62798,-0.00946,0.012024,-0.990173,0.236122,0.462901,-0.069924,39,271,578,6224
1644188443.676347,-0.005432,0.009888,-0.991089,0.251389,0.417099,-0.100458,32,271,583,6240
1644188443.724787,-0.007263,0.011841,-0.990479,0.175053,0.356031,-0.024122,61,277,584,6224
1644188443.77317,-0.005493,0.011841,-0.992554,0.327725,0.539237,-0.100458,46,276,578,6192
1644188443.821556,-0.007568,0.011353,-0.992493,-0.02342,0.523969,-0.085191,52,280,579,6128
1644188443.870002,-0.008362,0.012085,-0.990601,0.190321,0.172824,-0.130992,51,283,578,6224
1644188443.918384,-0.006897,0.011169,-0.991516,0.08345,0.356031,-0.130992,49,282,575,6240
1644188443.966743,-0.008362,0.011414,-0.991821,0.251389,0.432366,-0.100458,47,285,591,6192
1644188444.015211,-0.007996,0.009705,-0.989014,0.434595,0.523969,-0.100458,47,282,586,6224
1644188444.075136,-0.009155,0.010437,-0.990906,0.297191,0.417099,-0.054656,59,273,589,6224
1644188444.114253,-0.008179,0.01001,-0.990295,0.266656,0.371298,-0.039389,55,281,576,6128
1644188444.160506,-0.007568,0.011353,-0.993958,0.159786,0.264427,-0.207328,42,273,586,6256
1644188444.208696,-0.006226,0.009338,-0.991272,0.251389,0.401832,0.006412,49,273,584,6192
1644188444.25714,-0.009338,0.011963,-0.991211,0.220855,0.386565,-0.176794,53,271,576,6224
1644188444.307604,-0.009949,0.01001,-0.991821,0.251389,0.24916,-0.069924,55,288,576,6240
1644188444.358052,-0.004883,0.010986,-0.990295,0.037649,0.310229,-0.008855,61,282,591,6224
1644188444.402555,-0.006042,0.010071,-0.988708,0.098718,0.340763,-0.054656,46,283,585,6192
1644188444.499048,-0.004395,0.011292,-0.987976,0.281924,0.356031,-0.024122,46,276,578,6256
1644188444.547429,-0.008179,0.011414,-0.991699,0.266656,0.462901,-0.14626,39,286,587,6160
1644188444.595814,-0.007507,0.00885,-0.990662,0.037649,0.417099,-0.024122,53,274,578,6240
1644188444.644239,-0.005737,0.011902,-0.993835,0.129252,0.371298,-0.161527,46,279,571,6224
1644188444.69265,-0.007324,0.010132,-0.990479,0.175053,0.401832,-0.008855,40,280,586,6304
1644188444.741011,-0.009216,0.006409,-0.992554,0.190321,0.432366,0.036947,54,270,584,6240
1644188444.789415,-0.007019,0.009521,-0.98999,0.175053,0.447634,-0.100458,43,274,587,6192
1644188444.837813,-0.008545,0.013184,-0.991272,0.068183,0.401832,-0.207328,48,276,585,6256
1644188444.886255,-0.006897,0.008362,-0.989197,0.342992,0.401832,-0.100458,42,285,577,6256
1644188444.934946,-0.007568,0.010559,-0.99115,0.205588,0.508702,-0.130992,54,275,586,6240
1644188444.983046,-0.007446,0.009644,-0.99176,0.159786,0.401832,-0.024122,42,275,586,6192
1644188445.031399,-0.007751,0.013184,-0.993164,0.113985,0.325496,-0.100458,47,270,582,6240
1644188445.09487,-0.006409,0.010986,-0.990479,0.236122,0.294962,-0.115725,54,275,589,6240
1644188445.128195,-0.004639,0.009338,-0.992371,0.205588,0.325496,-0.024122,49,275,586,6288
1644188445.176566,-0.00592,0.010864,-0.990173,0.068183,0.569771,-0.161527,51,266,576,6192
1644188445.225209,-0.007568,0.010437,-0.991455,0.266656,0.371298,-0.115725,54,270,586,6192
1644188445.275544,-0.006531,0.010193,-0.992126,0.144519,0.462901,-0.14626,47,270,577,6192
1644188445.325736,-0.009216,0.011902,-0.988953,0.342992,0.493435,-0.161527,48,276,573,6288
1644188445.370822,-0.00885,0.009338,-0.989197,0.342992,0.539237,-0.207328,34,274,576,6288
1644188445.466894,-0.011597,0.010315,-0.993225,0.510931,0.462901,-0.024122,47,270,570,6160
1644188445.515426,-0.007202,0.010193,-0.991455,0.190321,0.371298,-0.085191,48,269,590,6256
1644188445.563708,-0.00708,0.009033,-0.989319,0.46513,0.462901,-0.100458,54,273,579,6224
1644188445.61235,-0.010071,0.00946,-0.992554,0.404061,0.294962,0.021679,57,280,582,6240
1644188445.660483,-0.004944,0.010986,-0.98877,0.129252,0.279695,-0.008855,49,270,584,6192
1644188445.708881,-0.005554,0.012146,-0.991882,0.205588,0.478168,0.006412,46,274,585,6176
1644188445.757245,-0.005432,0.010742,-0.990234,0.129252,0.356031,-0.054656,46,283,576,6224
1644188445.805676,-0.008606,0.009888,-0.989075,0.205588,0.447634,-0.039389,43,276,583,6256
1644188445.854049,-0.006165,0.011353,-0.989807,0.159786,0.447634,-0.237863,49,275,572,6176
1644188445.90252,-0.00824,0.010437,-0.988953,0.175053,0.462901,-0.024122,47,275,582,6192
1644188445.950879,-0.00708,0.010193,-0.989685,0.037649,0.539237,-0.024122,51,271,576,6240
1644188445.999293,-0.007263,0.010803,-0.992981,0.312458,0.356031,-0.115725,55,276,592,6224
1644188446.064507,-0.009583,0.009827,-0.988464,0.236122,0.325496,-0.237863,42,282,579,6224
1644188446.098375,-0.008545,0.011047,-0.992554,0.159786,0.294962,-0.100458,49,287,591,6240
1644188446.144448,-0.009338,0.009216,-0.988586,0.251389,0.371298,-0.268397,52,282,568,6288
1644188446.192832,-0.008911,0.010559,-0.989929,0.068183,0.356031,-0.130992,45,275,589,6288
1644188446.2412,-0.007202,0.010315,-0.989502,0.205588,0.554504,-0.085191,46,283,587,6192
1644188446.289597,-0.003296,0.011169,-0.991028,0.281924,0.24916,-0.054656,52,282,575,6288
1644188446.337991,-0.00769,0.009705,-0.991455,0.266656,0.279695,-0.100458,47,280,584,6256
1644188446.386712,-0.007019,0.010254,-0.989807,0.281924,0.478168,-0.024122,51,276,573,6256
1644188446.437347,-0.00769,0.01178,-0.992126,0.098718,0.569771,-0.008855,45,277,577,6224
1644188446.487493,-0.006287,0.008911,-0.991028,0.281924,0.386565,-0.237863,40,285,584,6240
1644188446.532413,-0.007263,0.00885,-0.992432,0.312458,0.340763,-0.161527,52,270,582,6224
1644188446.628343,-0.005493,0.010803,-0.992371,0.205588,0.386565,-0.069924,45,273,586,6256
1644188446.676723,-0.009033,0.010498,-0.992004,0.205588,0.325496,-0.054656,36,274,583,6160
1644188446.725336,-0.006287,0.008484,-0.993103,0.388794,0.462901,-0.115725,47,277,577,6224
1644188446.773536,-0.009277,0.008301,-0.990784,0.220855,0.310229,-0.192061,43,276,583,6256
1644188446.821969,-0.005127,0.010376,-0.986572,0.220855,0.325496,-0.161527,49,275,582,6224
1644188446.870362,-0.007202,0.012451,-0.990906,0.144519,0.401832,-0.14626,48,276,585,6224
1644188446.918761,-0.006287,0.01062,-0.991943,0.129252,0.386565,-0.024122,52,270,589,6288
1644188446.967136,-0.010132,0.011414,-0.99176,0.144519,0.371298,-0.222595,52,265,584,6224
1644188447.015538,-0.007874,0.010376,-0.990784,0.266656,0.417099,-0.130992,45,273,586,6224
1644188447.064944,-0.009216,0.00946,-0.992981,0.190321,0.386565,-0.008855,53,279,594,6240
1644188447.1123,-0.00946,0.01178,-0.989868,-0.02342,0.432366,0.052214,41,274,592,6256
1644188447.16067,-0.009583,0.009338,-0.99054,0.251389,0.432366,-0.008855,46,274,580,6176
1644188447.209079,-0.007874,0.006409,-0.99353,0.129252,0.447634,-0.176794,51,269,585,6224
1644188447.25743,-0.009888,0.010803,-0.989563,0.220855,0.279695,-0.14626,57,263,584,6256
1644188447.305869,-0.008362,0.007812,-0.98877,0.159786,0.356031,-0.024122,40,277,591,6256
1644188447.354262,-0.008301,0.011414,-0.991394,0.35826,0.386565,-0.085191,53,269,587,6224
1644188447.402661,-0.008545,0.010986,-0.98877,0.175053,0.340763,-0.161527,43,283,590,6224
1644188447.451028,-0.005554,0.010437,-0.992432,0.175053,0.386565,-0.069924,49,280,586,6288
1644188447.499473,-0.007507,0.010803,-0.988708,0.052916,0.386565,-0.054656,43,279,583,6192
1644188447.547874,-0.00946,0.010559,-0.991028,0.236122,0.417099,-0.069924,42,277,579,6128
1644188447.598287,-0.009094,0.008667,-0.990723,0.251389,0.493435,0.021679,40,273,586,6240
1644188447.648456,-0.007446,0.01062,-0.993347,0.297191,0.356031,-0.054656,59,273,596,6224
1644188447.693503,-0.006958,0.010498,-0.994873,0.297191,0.340763,-0.085191,40,273,586,6192
1644188447.789782,-0.009583,0.008789,-0.989929,0.190321,0.24916,-0.024122,55,276,576,6240
1644188447.83819,-0.009033,0.010803,-0.99054,0.175053,0.493435,-0.039389,53,274,583,6160
1644188447.886606,-0.007568,0.010071,-0.991577,0.419328,0.462901,-0.085191,53,271,578,6224
1644188447.93506,-0.007874,0.013428,-0.991272,0.281924,0.386565,0.098015,48,279,576,6176
1644188447.983404,-0.007874,0.010925,-0.992737,0.342992,0.432366,-0.192061,51,266,576,6256
1644188448.031792,-0.009155,0.010864,-0.992371,0.404061,0.325496,-0.14626,45,277,577,6288
1644188448.088267,-0.004089,0.010376,-0.989746,0.342992,0.401832,-0.14626,52,273,591,6192
1644188448.128537,-0.004578,0.00885,-0.990662,0.159786,0.401832,0.052214,46,279,578,6240
1644188448.176921,-0.006592,0.009583,-0.991333,0.297191,0.447634,-0.192061,58,271,599,6192
1644188448.225322,-0.006531,0.008789,-0.991211,0.312458,0.386565,-0.161527,59,282,586,6256
1644188448.273717,-0.008911,0.008118,-0.989746,0.312458,0.371298,-0.161527,48,276,592,6192
1644188448.322226,-0.008484,0.011597,-0.99176,0.312458,0.340763,-0.008855,43,276,587,6256
1644188448.37051,-0.004883,0.012695,-0.991272,0.297191,0.386565,-0.039389,57,277,589,6176
1644188448.418905,-0.006836,0.009094,-0.991028,0.159786,0.462901,-0.085191,54,275,584,6240
1644188448.467291,-0.008057,0.009033,-0.988708,0.175053,0.24916,-0.192061,55,274,585,6224
1644188448.515684,-0.005554,0.010071,-0.991089,0.068183,0.386565,-0.207328,47,282,577,6224
1644188448.56408,-0.007935,0.008667,-0.992676,0.342992,0.310229,-0.115725,42,275,582,6256
1644188448.612732,-0.006104,0.011108,-0.989807,0.205588,0.432366,-0.237863,54,280,584,6240
1644188448.661679,-0.005005,0.011292,-0.990906,0.205588,0.325496,-0.314198,55,281,580,6160
1644188448.712216,-0.006104,0.013489,-0.994019,0.236122,0.371298,-0.115725,52,265,584,6224
1644188448.762183,-0.008301,0.012268,-0.990662,0.297191,0.386565,-0.14626,52,270,589,6256
1644188448.80815,-0.006592,0.011475,-0.988342,0.373527,0.417099,-0.024122,49,273,589,6240
1644188448.902877,-0.008789,0.009827,-0.989746,0.159786,0.340763,-0.100458,41,274,583,6224
1644188448.95123,-0.00885,0.010498,-0.991699,0.144519,0.294962,-0.25313,53,269,587,6256
1644188448.999642,-0.005554,0.010254,-0.990601,0.144519,0.386565,-0.115725,43,269,583,6192
1644188449.066787,-0.00769,0.009827,-0.994019,0.220855,0.371298,0.067481,49,270,589,6224
1644188449.10012,-0.008545,0.010925,-0.989075,0.281924,0.264427,-0.039389,46,279,585,6224
1644188449.144817,-0.008972,0.009583,-0.992676,0.205588,0.386565,-0.100458,42,270,586,6192
1644188449.193183,-0.008728,0.011414,-0.990051,0.312458,0.447634,-0.069924,49,282,589,6192
1644188449.241576,-0.004028,0.011963,-0.990295,0.327725,0.417099,-0.14626,52,277,593,6176
1644188449.289972,-0.006409,0.011108,-0.992004,0.327725,0.523969,0.052214,45,275,582,6224
1644188449.338362,-0.00531,0.012573,-0.992249,0.297191,0.371298,-0.039389,46,276,590,6240
1644188449.38675,-0.009277,0.010742,-0.991028,0.251389,0.432366,0.021679,49,282,589,6224
1644188449.435181,-0.007019,0.008911,-0.990723,0.266656,0.356031,-0.039389,40,268,579,6224
1644188449.483856,-0.00708,0.009338,-0.990356,0.205588,0.279695,0.098015,51,279,580,6176
1644188449.533143,-0.006104,0.009155,-0.991455,0.08345,0.569771,-0.100458,46,283,583,6192
1644188449.583372,-0.004395,0.011353,-0.991211,0.068183,0.356031,-0.115725,42,275,589,6192
1644188449.633643,-0.009033,0.010193,-0.99176,0.175053,0.523969,-0.069924,49,270,584,6224
1644188449.72551,-0.007019,0.008972,-0.989929,0.251389,0.417099,-0.14626,49,270,579,6256
1644188449.773906,-0.004456,0.009888,-0.992371,0.281924,0.356031,0.052214,48,279,585,6240
1644188449.822663,-0.009094,0.013245,-0.991333,0.297191,0.264427,-0.161527,47,273,582,6256
1644188449.870723,-0.011353,0.010986,-0.988892,0.266656,0.401832,-0.207328,49,268,584,6256
1644188449.919086,-0.008606,0.010498,-0.991943,0.220855,0.417099,-0.14626,52,280,582,6304
1644188449.967484,-0.006958,0.010925,-0.992737,0.342992,0.356031,0.021679,53,274,583,6256
1644188450.015905,-0.009094,0.01062,-0.991272,0.312458,0.401832,0.12855,42,273,582,6128
1644188450.068604,-0.007202,0.01062,-0.993103,0.205588,0.325496,-0.14626,46,281,590,6256
1644188450.112691,-0.008362,0.008911,-0.989868,0.312458,0.478168,-0.054656,48,271,583,6240
1644188450.161035,-0.007507,0.011047,-0.992188,0.220855,0.386565,0.006412,42,275,586,6176
1644188450.209431,-0.008606,0.010376,-0.990417,0.266656,0.310229,-0.024122,49,280,577,6224
1644188450.257811,-0.009766,0.00885,-0.991455,0.144519,0.340763,-0.024122,61,280,584,6240
1644188450.306223,-0.009888,0.011963,-0.990662,0.251389,0.264427,-0.222595,47,280,589,6224
1644188450.354724,-0.006287,0.009827,-0.991821,0.144519,0.401832,-0.024122,61,285,579,6176
1644188450.403028,-0.007324,0.01062,-0.990662,0.266656,0.371298,-0.054656,53,276,585,6224
1644188450.451402,-0.009033,0.009949,-0.991211,0.113985,0.371298,-0.14626,45,275,586,6256
1644188450.499776,-0.006104,0.008789,-0.990784,0.175053,0.356031,-0.008855,40,275,582,6224
1644188450.548188,-0.007874,0.012329,-0.995056,0.312458,0.401832,-0.115725,43,281,585,6240
1644188450.596587,-0.009094,0.008118,-0.991943,0.281924,0.356031,-0.115725,51,276,578,6192
1644188450.645572,-0.006165,0.010193,-0.991028,0.098718,0.447634,-0.161527,43,274,576,6176
1644188450.696258,-0.007629,0.009827,-0.989807,0.175053,0.462901,-0.207328,47,275,575,6176
1644188450.746365,-0.007324,0.01062,-0.989685,0.205588,0.294962,-0.069924,51,279,583,6176
1644188450.791311,-0.007202,0.011841,-0.992798,0.251389,0.478168,-0.100458,52,280,579,6256
1644188450.887013,-0.00824,0.00885,-0.992432,0.08345,0.478168,-0.161527,46,271,578,6176
1644188450.935478,-0.007202,0.009216,-0.991028,0.220855,0.325496,-0.100458,53,274,573,6192
1644188450.983775,-0.007874,0.009399,-0.988647,0.281924,0.294962,-0.130992,58,281,585,6256
1644188451.032406,-0.010498,0.009705,-0.989868,0.266656,0.294962,-0.161527,51,283,576,6224
1644188451.080619,-0.005615,0.007446,-0.991577,0.388794,0.401832,-0.100458,46,279,592,6240
1644188451.128925,-0.008728,0.009888,-0.993164,0.373527,0.585038,0.036947,46,266,573,6224
1644188451.177298,-0.01062,0.007812,-0.990112,0.129252,0.417099,-0.069924,60,269,590,6256
1644188451.225689,-0.00708,0.011169,-0.990173,0.068183,0.386565,-0.176794,49,275,589,6224
1644188451.274079,-0.007629,0.011658,-0.991455,0.373527,0.401832,-0.100458,59,280,579,6224
1644188451.322458,-0.008423,0.007874,-0.99115,0.098718,0.371298,-0.222595,38,275,582,6224
1644188451.37087,-0.008667,0.010193,-0.987915,0.129252,0.371298,-0.130992,45,268,582,6192
1644188451.419261,-0.006653,0.008789,-0.991699,0.281924,0.585038,-0.085191,39,269,576,6256
1644188451.467661,-0.007751,0.011047,-0.992004,0.281924,0.417099,-0.024122,46,283,590,6224
1644188451.51602,-0.008301,0.010376,-0.990845,0.205588,0.401832,-0.024122,52,280,582,6224
1644188451.564439,-0.006226,0.009033,-0.99115,0.205588,0.371298,0.113282,51,279,592,6224
1644188451.61284,-0.004028,0.009155,-0.993286,0.098718,0.310229,0.036947,49,275,586,6192
1644188451.661222,-0.007751,0.010681,-0.989868,0.297191,0.508702,0.006412,49,273,579,6176
1644188451.709825,-0.007507,0.008911,-0.991333,0.281924,0.386565,-0.069924,51,276,586,6240
1644188451.758662,-0.006348,0.012878,-0.990906,0.266656,0.340763,-0.115725,42,275,591,6224
1644188451.809191,-0.009155,0.00708,-0.990417,0.205588,0.478168,-0.100458,52,277,584,6176
1644188451.8598,-0.006165,0.012085,-0.989807,0.129252,0.462901,0.036947,54,265,591,6224
1644188451.904689,-0.008728,0.012695,-0.991028,0.266656,0.340763,-0.237863,49,277,584,6192
1644188452.000001,-0.006836,0.008667,-0.990601,0.205588,0.340763,-0.085191,47,282,591,6240
1644188452.066149,-0.008301,0.010986,-0.99115,0.159786,0.508702,-0.192061,49,270,589,6240
1644188452.09694,-0.009766,0.009888,-0.992676,0.266656,0.462901,-0.161527,38,273,593,6192
1644188452.145299,-0.006592,0.010742,-0.991089,0.236122,0.371298,-0.024122,49,285,575,6224
1644188452.193558,-0.006287,0.009277,-0.991089,0.35826,0.432366,-0.115725,47,280,570,6224
1644188452.241957,-0.007874,0.010681,-0.990967,0.251389,0.386565,0.067481,46,271,580,6192
1644188452.290334,-0.007385,0.010071,-0.993652,0.220855,0.294962,0.12855,55,281,585,6256
1644188452.338739,-0.007751,0.012634,-0.990662,0.175053,0.401832,-0.069924,49,275,582,6224
1644188452.387121,-0.007751,0.007874,-0.990173,0.297191,0.432366,-0.100458,39,274,578,6256
1644188452.435509,-0.009949,0.012085,-0.987854,0.113985,0.264427,-0.115725,40,282,582,6304
1644188452.48391,-0.009888,0.008423,-0.990479,0.113985,0.432366,-0.100458,48,276,597,6176
1644188452.532344,-0.006958,0.00824,-0.990356,0.281924,0.554504,-0.176794,42,270,593,6224
1644188452.582956,-0.008423,0.00824,-0.993225,0.068183,0.233893,-0.039389,45,265,589,6256
1644188452.633034,-0.010132,0.009583,-0.993652,0.205588,0.279695,-0.069924,52,270,593,6240
1644188452.678171,-0.009338,0.009094,-0.990601,0.205588,0.432366,-0.161527,51,274,587,6224
1644188452.774277,-0.008423,0.012207,-0.992004,0.022382,0.508702,-0.024122,54,270,584,6240
1644188452.822675,-0.007568,0.011536,-0.992554,0.251389,0.325496,0.006412,52,277,584,6224
1644188452.871065,-0.01001,0.010986,-0.994507,0.327725,0.325496,-0.039389,53,279,576,6192
1644188452.919482,-0.007629,0.010437,-0.987244,0.266656,0.340763,-0.115725,43,279,587,6256
1644188452.967845,-0.007751,0.009888,-0.991821,0.144519,0.523969,-0.222595,47,282,584,6256
1644188453.016256,-0.008667,0.011597,-0.991638,0.342992,0.310229,-0.130992,49,265,579,6192
1644188453.068564,-0.008972,0.009827,-0.990112,0.251389,0.432366,-0.054656,42,277,582,6288
1644188453.113026,-0.005676,0.011047,-0.989014,0.129252,0.340763,-0.054656,51,269,587,6192
1644188453.161419,-0.006104,0.010254,-0.991028,0.205588,0.432366,-0.14626,49,280,582,6176
1644188453.209799,-0.00946,0.009888,-0.987976,0.266656,0.356031,-0.130992,43,264,583,6256
1644188453.258205,-0.008545,0.01123,-0.992188,0.281924,0.310229,-0.054656,46,279,590,6240
1644188453.306567,-0.007324,0.008423,-0.990723,0.220855,0.508702,-0.085191,58,274,585,6240
1644188453.355138,-0.005859,0.00885,-0.991272,0.236122,0.386565,-0.008855,46,274,587,6240
1644188453.40338,-0.009583,0.009949,-0.989441,0.388794,0.371298,0.098015,49,285,582,6256
1644188453.451774,-0.008423,0.009766,-0.991211,0.190321,0.310229,-0.100458,66,277,586,6240
1644188453.50016,-0.007812,0.008789,-0.992065,0.190321,0.325496,-0.069924,60,283,585,6240
1644188453.548555,-0.008911,0.009766,-0.992737,0.220855,0.371298,-0.100458,52,282,579,6256
1644188453.596946,-0.008423,0.010376,-0.990051,0.220855,0.447634,0.052214,47,277,589,6224
1644188453.645342,-0.007141,0.009216,-0.991455,0.129252,0.371298,-0.100458,51,286,585,6176
1644188453.694052,-0.008667,0.010559,-0.988647,0.220855,0.371298,-0.207328,43,274,583,6224
1644188453.7445,-0.00946,0.006836,-0.990051,0.251389,0.447634,-0.161527,45,275,582,6240
1644188453.795815,-0.007141,0.009216,-0.992737,0.220855,0.447634,-0.115725,43,274,587,6224
1644188453.839746,-0.008423,0.00946,-0.990417,0.205588,0.447634,-0.207328,43,274,585,6240
1644188453.935714,-0.008606,0.011475,-0.991028,0.144519,0.432366,-0.008855,30,277,577,6176
1644188453.984098,-0.008301,0.010193,-0.991577,0.281924,0.340763,-0.115725,36,274,585,6240
1644188454.032519,-0.009399,0.006775,-0.991821,0.113985,0.508702,-0.14626,55,288,587,6240
1644188454.080967,-0.009705,0.008972,-0.991333,0.205588,0.539237,-0.176794,55,276,580,6224
1644188454.129311,-0.007996,0.008789,-0.988831,0.281924,0.310229,-0.207328,48,279,587,6192
1644188454.177669,-0.008606,0.008362,-0.989868,0.08345,0.493435,-0.069924,48,274,587,6256
1644188454.226094,-0.008118,0.011841,-0.992188,0.190321,0.203359,-0.161527,45,270,582,6224
1644188454.274466,-0.006348,0.009338,-0.991455,0.251389,0.569771,-0.176794,51,271,585,6336
1644188454.322899,-0.00824,0.012573,-0.992432,0.129252,0.447634,-0.085191,45,275,589,6192
1644188454.371285,-0.00708,0.009094,-0.988647,0.46513,0.539237,0.036947,42,277,582,6160
1644188454.419665,-0.009155,0.008911,-0.989746,0.281924,0.523969,-0.054656,47,265,591,6240
1644188454.46807,-0.007568,0.012329,-0.99292,0.220855,0.585038,-0.069924,45,280,584,6192
1644188454.516437,-0.006714,0.010376,-0.989929,0.35826,0.401832,-0.14626,40,265,591,6224
1644188454.564846,-0.009033,0.009521,-0.992004,0.312458,0.294962,-0.024122,49,280,586,6192
1644188454.613245,-0.006226,0.011536,-0.992676,0.098718,0.417099,-0.069924,48,279,585,6256
1644188454.661634,-0.009216,0.011719,-0.991028,0.144519,0.386565,-0.024122,39,271,590,6192
1644188454.709992,-0.010254,0.009338,-0.989929,0.251389,0.356031,-0.100458,49,275,579,6224
1644188454.758692,-0.008362,0.010254,-0.988464,0.236122,0.493435,-0.100458,49,277,586,6224
1644188454.806826,-0.005981,0.009827,-0.992004,0.236122,0.294962,0.021679,52,268,589,6224
1644188454.856757,-0.008728,0.010681,-0.991943,0.205588,0.294962,-0.069924,53,269,583,6240
1644188454.907115,-0.005493,0.010925,-0.991455,0.236122,0.401832,-0.039389,49,277,577,6192
1644188454.957192,-0.006104,0.010742,-0.991211,0.205588,0.417099,0.006412,55,279,576,6192
1644188455.001543,-0.006592,0.012939,-0.989868,0.373527,0.447634,-0.192061,40,277,582,6256
1644188455.097283,-0.009827,0.008179,-0.989014,0.113985,0.401832,0.067481,43,279,592,6176
1644188455.145514,-0.006348,0.012817,-0.991943,0.373527,0.493435,-0.115725,46,271,580,6256
1644188455.193919,-0.007507,0.011047,-0.98999,0.175053,0.478168,-0.14626,60,271,585,6224
1644188455.242388,-0.009644,0.011108,-0.989441,0.113985,0.356031,-0.207328,48,264,580,6256
1644188455.290676,-0.006287,0.011902,-0.98999,0.251389,0.340763,0.021679,52,280,584,6224
1644188455.339075,-0.009033,0.012207,-0.993408,0.297191,0.340763,-0.024122,54,270,579,6224
1644188455.387491,-0.006287,0.009766,-0.990356,0.113985,0.310229,-0.161527,59,270,589,6224
1644188455.435877,-0.007263,0.009827,-0.992859,0.266656,0.340763,-0.176794,53,276,583,6176
1644188455.484271,-0.007996,0.011292,-0.989258,0.159786,0.310229,-0.039389,39,269,583,6224
1644188455.532671,-0.008362,0.008484,-0.988708,0.388794,0.447634,-0.100458,57,275,582,6240
1644188455.581067,-0.007324,0.012268,-0.992554,0.205588,0.310229,-0.054656,60,274,585,6224
1644188455.629455,-0.009521,0.009094,-0.992493,0.175053,0.24916,-0.024122,49,275,579,6256
1644188455.677849,-0.006592,0.010986,-0.990662,0.205588,0.371298,-0.039389,53,281,594,6160
1644188455.726208,-0.006348,0.007812,-0.990967,0.220855,0.386565,-0.008855,54,277,582,6224
1644188455.774637,-0.007202,0.011169,-0.990967,0.342992,0.24916,0.052214,48,271,594,6240
1644188455.823082,-0.007874,0.013428,-0.989868,0.205588,0.523969,-0.207328,54,265,582,6128
1644188455.871465,-0.008911,0.010437,-0.993286,0.251389,0.371298,-0.085191,53,274,587,6192
1644188455.920212,-0.005554,0.009705,-0.990845,0.327725,0.432366,-0.069924,54,285,591,6288
1644188455.968253,-0.005066,0.011597,-0.990967,0.281924,0.432366,-0.054656,47,275,575,6224
1644188456.018043,-0.009399,0.010864,-0.990784,0.205588,0.310229,-0.115725,41,288,585,6240
1644188456.113404,-0.008667,0.011658,-0.991272,0.159786,0.325496,-0.115725,51,269,585,6256
1644188456.161748,-0.005188,0.011169,-0.99353,0.419328,0.417099,-0.222595,52,273,589,6224
1644188456.210163,-0.008423,0.010864,-0.991882,0.266656,0.462901,-0.085191,47,277,591,6224
1644188456.258541,-0.009583,0.010315,-0.991882,0.068183,0.310229,-0.085191,59,277,584,6192
1644188456.306952,-0.00647,0.010437,-0.990967,0.266656,0.340763,0.052214,51,271,578,6224
1644188456.355318,-0.008545,0.00769,-0.990112,0.297191,0.432366,-0.192061,45,273,582,6256
1644188456.404119,-0.008179,0.007263,-0.990845,0.205588,0.340763,0.052214,40,280,589,6224
1644188456.452168,-0.008606,0.011047,-0.988403,0.251389,0.371298,-0.069924,48,291,590,6304
1644188456.500494,-0.009827,0.010376,-0.990845,0.159786,0.493435,-0.14626,40,275,579,6304
1644188456.54892,-0.005859,0.013,-0.990601,0.297191,0.340763,0.006412,43,266,580,6224
1644188456.597316,-0.00708,0.010498,-0.991638,0.266656,0.447634,-0.115725,52,275,572,6240
1644188456.645709,-0.008057,0.008789,-0.993164,0.297191,0.24916,-0.039389,48,271,585,6224
1644188456.694115,-0.00708,0.009766,-0.992126,0.205588,0.371298,-0.14626,45,277,589,6224
1644188456.742497,-0.007812,0.012085,-0.993408,0.205588,0.447634,-0.130992,52,270,582,6224
1644188456.790891,-0.004883,0.013489,-0.990295,0.35826,0.356031,0.006412,45,280,591,6240
1644188456.83932,-0.008301,0.010254,-0.99469,0.190321,0.294962,-0.054656,51,283,585,6224
1644188456.887707,-0.01062,0.013,-0.992432,0.297191,0.325496,0.036947,46,274,580,6192
1644188456.936306,-0.007446,0.008301,-0.992981,0.251389,0.401832,-0.161527,43,276,583,6256
1644188456.984498,-0.008423,0.01123,-0.991638,0.281924,0.371298,-0.069924,49,282,582,6224
1644188457.034488,-0.007446,0.009155,-0.990417,0.037649,0.478168,-0.14626,45,273,584,6224
1644188457.093119,-0.007935,0.009094,-0.98877,0.404061,0.478168,0.067481,47,285,582,6240
1644188457.130236,-0.00885,0.00885,-0.990906,0.251389,0.447634,0.067481,46,276,587,6224
1644188457.226392,-0.009705,0.011047,-0.991089,0.281924,0.340763,-0.222595,51,269,592,6256
1644188457.274881,-0.007935,0.011169,-0.992065,0.251389,0.401832,-0.14626,39,274,590,6240
1644188457.323198,-0.008362,0.011719,-0.99054,0.190321,0.264427,-0.222595,53,281,569,6224
1644188457.371603,-0.007935,0.0047,-0.988831,0.342992,0.462901,-0.130992,43,271,587,6176
1644188457.419986,-0.00885,0.010559,-0.989868,0.129252,0.432366,-0.069924,46,271,587,6240
1644188457.468369,-0.008118,0.00824,-0.993469,0.251389,0.371298,-0.222595,43,276,585,6224
1644188457.516775,-0.004211,0.009705,-0.992371,0.190321,0.356031,-0.024122,52,270,586,6256
1644188457.56517,-0.009094,0.007507,-0.990784,0.205588,0.493435,-0.054656,55,269,585,6192
1644188457.613553,-0.005188,0.00946,-0.988831,0.205588,0.417099,-0.024122,52,282,586,6256
1644188457.661967,-0.008789,0.010315,-0.992615,0.220855,0.493435,-0.054656,52,268,579,6224
1644188457.710351,-0.00531,0.012512,-0.992615,0.098718,0.401832,-0.008855,46,264,585,6240
1644188457.758744,-0.007751,0.008728,-0.989197,0.205588,0.401832,-0.192061,47,270,586,6176
1644188457.807133,-0.00592,0.01001,-0.990417,0.251389,0.478168,-0.054656,34,279,576,6192
1644188457.855582,-0.010376,0.009705,-0.990479,0.220855,0.478168,-0.085191,48,271,587,6224
1644188457.903961,-0.006714,0.007996,-0.989563,0.190321,0.340763,-0.008855,53,281,585,6192
1644188457.952358,-0.007935,0.01062,-0.992676,0.251389,0.447634,-0.14626,39,274,587,6224
1644188458.000716,-0.008545,0.010193,-0.993042,0.144519,0.310229,-0.100458,41,279,590,6192
1644188458.067539,-0.006042,0.01001,-0.990784,0.236122,0.462901,-0.024122,53,274,594,6176
1644188458.100529,-0.007019,0.013123,-0.992249,0.266656,0.478168,-0.008855,55,276,592,6224
1644188458.148061,-0.00647,0.011169,-0.992493,0.388794,0.478168,-0.115725,49,275,584,6192
1644188458.197076,-0.007263,0.008545,-0.991028,0.220855,0.325496,-0.100458,57,277,577,6224
1644188458.247258,-0.007019,0.011475,-0.991089,0.236122,0.417099,-0.054656,48,266,590,6192
1644188458.292193,-0.007324,0.010315,-0.992065,0.144519,0.447634,-0.069924,43,276,578,6112
1644188458.387837,-0.01001,0.012146,-0.990662,0.236122,0.523969,-0.237863,36,271,585,6192
1644188458.436224,-0.008606,0.013672,-0.991272,0.129252,0.371298,-0.192061,54,280,584,6224
1644188458.484843,-0.007324,0.00824,-0.992615,0.175053,0.386565,-0.237863,49,275,589,6224
1644188458.533037,-0.006531,0.012268,-0.989014,0.190321,0.462901,-0.207328,45,285,584,6176
1644188458.581437,-0.008301,0.009521,-0.990784,0.236122,0.310229,-0.085191,49,275,577,6176
1644188458.629822,-0.007812,0.011414,-0.991638,0.251389,0.417099,-0.069924,55,276,576,6192
1644188458.678199,-0.007141,0.010254,-0.990112,0.205588,0.371298,0.052214,46,271,580,6192
1644188458.726596,-0.006714,0.00885,-0.990417,0.220855,0.340763,0.052214,47,273,582,6176
1644188458.775038,-0.006714,0.009888,-0.990417,0.297191,0.462901,-0.024122,52,277,586,6256
1644188458.823397,-0.007629,0.00885,-0.992065,0.251389,0.508702,-0.054656,45,275,584,6128
1644188458.871798,-0.007874,0.012634,-0.990173,0.052916,0.264427,-0.14626,47,277,586,6176
1644188458.920203,-0.009705,0.011353,-0.991882,0.35826,0.493435,-0.039389,62,269,580,6224
1644188458.968602,-0.007751,0.008911,-0.992371,0.129252,0.356031,-0.222595,54,277,589,6256
1644188459.017009,-0.005798,0.012085,-0.989807,0.281924,0.447634,-0.161527,49,277,591,6192
1644188459.075796,-0.010803,0.007935,-0.992004,0.144519,0.371298,-0.085191,48,281,585,6224
1644188459.114445,-0.005798,0.009399,-0.988647,0.266656,0.386565,-0.008855,58,283,592,6224
1644188459.162173,-0.005432,0.009827,-0.98938,0.08345,0.432366,0.021679,52,275,584,6224
1644188459.210531,-0.006653,0.01123,-0.990417,0.205588,0.233893,-0.069924,42,277,589,6288
1644188459.258927,-0.010925,0.011658,-0.992188,0.144519,0.203359,-0.207328,52,270,593,6176
1644188459.307392,-0.005615,0.009705,-0.990601,0.144519,0.356031,-0.069924,52,270,586,6240
1644188459.357903,-0.009094,0.01123,-0.991272,0.220855,0.340763,-0.069924,47,280,591,6224
1644188459.408136,-0.007446,0.010803,-0.990356,0.159786,0.478168,0.021679,48,279,585,6256
1644188459.453172,-0.009216,0.011841,-0.990173,0.220855,0.554504,-0.130992,52,273,586,6176
1644188459.54927,-0.00592,0.011414,-0.991211,0.159786,0.325496,-0.054656,51,279,580,6224
1644188459.597663,-0.009644,0.011475,-0.992737,0.175053,0.386565,-0.192061,55,274,580,6240
1644188459.646046,-0.009521,0.01416,-0.989075,0.35826,0.493435,-0.069924,35,270,584,6240
1644188459.694476,-0.003967,0.010925,-0.990967,0.35826,0.417099,-0.207328,59,270,582,6240
1644188459.742861,-0.007874,0.010376,-0.990662,0.35826,0.325496,-0.054656,47,280,579,6240
1644188459.791257,-0.005249,0.011536,-0.991089,0.098718,0.294962,-0.100458,36,281,578,6240
1644188459.83964,-0.007446,0.009338,-0.988098,0.35826,0.310229,-0.024122,48,271,580,6304
1644188459.888083,-0.007812,0.009583,-0.990784,0.190321,0.493435,0.006412,45,280,589,6256
1644188459.936466,-0.005676,0.010315,-0.991028,0.022382,0.371298,-0.039389,45,275,589,6240
1644188459.984886,-0.006531,0.01123,-0.991516,0.205588,0.493435,-0.130992,47,285,577,6160
1644188460.033266,-0.007141,0.011108,-0.990784,0.281924,0.493435,-0.069924,47,270,582,6128
1644188460.09863,-0.00946,0.011841,-0.990662,0.159786,0.478168,-0.100458,52,277,584,6224
1644188460.130053,-0.009888,0.009338,-0.991211,0.08345,0.508702,-0.024122,51,274,592,6224
1644188460.1784,-0.009338,0.013062,-0.992859,0.159786,0.417099,-0.176794,49,273,596,6224
1644188460.226789,-0.011414,0.010742,-0.990356,0.297191,0.218626,-0.100458,49,275,584,6240
1644188460.275179,-0.009399,0.01178,-0.99231,0.251389,0.279695,-0.130992,57,273,591,6256
1644188460.32357,-0.008118,0.011108,-0.990417,0.327725,0.417099,-0.024122,49,275,577,6240
1644188460.37338,-0.009033,0.011658,-0.990295,0.129252,0.478168,-0.039389,51,266,585,6224
1644188460.423644,-0.008667,0.009216,-0.990417,0.175053,0.325496,-0.161527,41,279,599,6224
1644188460.473618,-0.009399,0.009888,-0.989136,0.159786,0.294962,-0.085191,57,275,575,6160
1644188460.565539,-0.007324,0.009766,-0.988892,0.281924,0.478168,-0.008855,47,280,582,6256
1644188460.613975,-0.008362,0.010681,-0.991272,0.220855,0.386565,-0.115725,57,280,582,6256
1644188460.662394,-0.008606,0.010986,-0.991577,0.159786,0.371298,-0.008855,48,274,583,6176
1644188460.71072,-0.006226,0.011536,-0.988464,0.281924,0.432366,-0.085191,53,274,590,6224
1644188460.759089,-0.00647,0.011963,-0.989868,0.205588,0.554504,-0.115725,54,282,579,6256
1644188460.807504,-0.005371,0.012451,-0.989624,0.144519,0.325496,-0.024122,45,275,582,6192
1644188460.855883,-0.007263,0.011536,-0.990723,0.159786,0.386565,-0.237863,46,286,583,6240
1644188460.904331,-0.009583,0.011597,-0.991089,0.129252,0.356031,-0.176794,48,271,578,6160
1644188460.952738,-0.00592,0.009583,-0.991394,0.251389,0.356031,-0.14626,45,273,589,6176
1644188461.001115,-0.003784,0.010742,-0.989868,0.175053,0.340763,-0.054656,48,266,587,6256
1644188461.06308,-0.010132,0.008667,-0.991455,0.35826,0.401832,-0.039389,45,280,598,6224
1644188461.097991,-0.008423,0.012146,-0.990234,0.419328,0.14229,-0.176794,52,275,584,6224
1644188461.146307,-0.006653,0.009277,-0.990417,0.190321,0.371298,-0.008855,41,276,583,6240
1644188461.1947,-0.007874,0.010864,-0.98999,0.098718,0.310229,-0.14626,49,275,589,6192
1644188461.243098,-0.007019,0.010803,-0.991577,0.144519,0.340763,-0.100458,48,288,587,6240
1644188461.291475,-0.009277,0.00946,-0.989319,0.098718,0.539237,-0.237863,45,270,577,6240
1644188461.340083,-0.006775,0.010193,-0.991272,0.220855,0.356031,-0.008855,57,280,586,6240
1644188461.388234,-0.004089,0.01062,-0.991516,0.236122,0.539237,-0.069924,53,279,583,6256
1644188461.438053,-0.007996,0.008423,-0.99054,0.159786,0.24916,-0.100458,53,274,594,6224
1644188461.488265,-0.010132,0.011353,-0.992554,-0.038687,0.508702,-0.192061,45,280,584,6224
1644188461.538572,-0.00592,0.01239,-0.990723,0.220855,0.63084,0.006412,53,264,583,6160
1644188461.583009,-0.009277,0.009949,-0.990479,0.220855,0.24916,-0.069924,47,273,589,6240
1644188461.678612,-0.008484,0.01123,-0.990173,0.251389,0.371298,-0.130992,48,286,573,6240
1644188461.727007,-0.008667,0.011963,-0.990601,0.08345,0.569771,-0.024122,53,279,580,6288
1644188461.775399,-0.007507,0.012573,-0.988464,0.281924,0.447634,-0.115725,55,281,583,6240
1644188461.823801,-0.005432,0.009827,-0.991272,0.098718,0.371298,-0.25313,51,274,580,6240
1644188461.872189,-0.00885,0.010254,-0.990295,0.220855,0.401832,-0.14626,49,277,582,6288
1644188461.920585,-0.01001,0.010315,-0.989685,0.35826,0.371298,-0.161527,49,273,584,6192
1644188461.968985,-0.004395,0.009033,-0.991333,0.342992,0.523969,-0.008855,53,269,576,6224
1644188462.017344,-0.006714,0.009216,-0.989685,0.175053,0.432366,-0.115725,42,275,577,6240
1644188462.069768,-0.00708,0.00946,-0.990173,0.281924,0.447634,-0.085191,53,271,594,6192
1644188462.114129,-0.007629,0.011353,-0.991089,0.175053,0.523969,-0.207328,43,264,592,6128
1644188462.162528,-0.006653,0.010803,-0.991516,0.251389,0.386565,-0.161527,41,276,585,6256
1644188462.210885,-0.009705,0.012695,-0.989136,0.236122,0.356031,-0.039389,49,273,582,6176
1644188462.259284,-0.007385,0.011353,-0.991882,0.297191,0.279695,-0.237863,55,274,590,6224
1644188462.307694,-0.007996,0.013367,-0.991272,0.175053,0.523969,-0.176794,55,281,587,6240
1644188462.35607,-0.009521,0.009094,-0.992554,0.190321,0.356031,0.021679,46,283,585,6224
1644188462.404494,-0.009766,0.010254,-0.990479,0.205588,0.294962,-0.069924,58,274,571,6256
1644188462.452882,-0.008118,0.009827,-0.98938,0.144519,0.371298,-0.115725,46,286,576,6240
1644188462.501228,-0.009094,0.009399,-0.992676,0.190321,0.325496,-0.161527,52,285,582,6240
1644188462.550356,-0.007568,0.009399,-0.990295,0.159786,0.310229,-0.161527,43,264,580,6240
1644188462.5982,-0.007446,0.009338,-0.994446,0.129252,0.401832,-0.115725,45,277,582,6176
1644188462.648656,-0.010254,0.011841,-0.992249,0.281924,0.462901,-0.100458,54,275,584,6176
1644188462.698837,-0.007874,0.012573,-0.99231,0.144519,0.447634,-0.115725,54,287,586,6224
1644188462.743878,-0.008118,0.010559,-0.988831,0.052916,0.340763,-0.024122,48,269,569,6192
1644188462.840038,-0.007874,0.008484,-0.990845,0.190321,0.386565,-0.008855,40,277,579,6224
1644188462.888434,-0.008118,0.011475,-0.99176,0.190321,0.447634,-0.14626,46,269,587,6224
1644188462.936841,-0.007629,0.010498,-0.989563,0.297191,0.478168,-0.130992,53,269,583,6224
1644188462.985223,-0.008728,0.011963,-0.987549,0.190321,0.401832,-0.130992,42,290,572,6224
1644188463.03363,-0.008606,0.008606,-0.991333,0.266656,0.447634,-0.176794,53,276,583,6256
1644188463.082251,-0.006348,0.013977,-0.989746,0.068183,0.401832,-0.207328,46,264,587,6160
1644188463.130342,-0.009766,0.014526,-0.989746,0.052916,0.24916,-0.222595,62,281,578,6288
1644188463.178766,-0.008606,0.013977,-0.990417,0.281924,0.447634,-0.039389,49,273,589,6224
1644188463.227158,-0.008667,0.012695,-0.991455,0.281924,0.478168,-0.039389,42,285,575,6192
1644188463.275518,-0.007263,0.010498,-0.991943,0.190321,0.325496,-0.130992,48,271,576,6224
1644188463.323959,-0.007202,0.013428,-0.989136,0.220855,0.371298,-0.207328,49,285,575,6176
1644188463.372318,-0.00708,0.009338,-0.991516,0.404061,0.340763,-0.130992,49,280,582,6192
1644188463.420741,-0.004944,0.01062,-0.990662,0.175053,0.386565,-0.115725,58,274,580,6224
1644188463.469124,-0.009033,0.012024,-0.989868,0.220855,0.279695,-0.130992,47,285,582,6256
1644188463.517519,-0.009277,0.01239,-0.991943,0.175053,0.356031,-0.176794,45,280,584,6256
1644188463.565919,-0.00769,0.00885,-0.988525,0.281924,0.279695,-0.008855,47,282,582,6256
1644188463.614301,-0.005188,0.011719,-0.991089,0.251389,0.478168,-0.176794,54,275,589,6304
1644188463.662709,-0.009399,0.012268,-0.992676,0.205588,0.401832,-0.14626,59,273,586,6240
1644188463.71108,-0.00647,0.007568,-0.988708,0.251389,0.554504,-0.039389,55,262,590,6304
1644188463.759965,-0.008301,0.009155,-0.991394,0.297191,0.432366,-0.100458,45,273,586,6240
1644188463.810524,-0.00769,0.009277,-0.993591,0.236122,0.310229,-0.207328,52,265,591,6240
1644188463.861177,-0.008057,0.008057,-0.991272,0.205588,0.325496,-0.14626,48,271,578,6224
1644188463.905962,-0.001709,0.009583,-0.989807,0.190321,0.478168,-0.054656,46,281,576,6224
1644188464.001482,-0.008728,0.00946,-0.989929,0.220855,0.356031,-0.069924,46,274,578,6240
1644188464.060982,-0.005554,0.01123,-0.992859,0.266656,0.447634,0.021679,55,276,585,6160
1644188464.101363,-0.008057,0.010498,-0.990784,0.251389,0.417099,-0.054656,57,268,579,6224
1644188464.146621,-0.007812,0.012085,-0.992371,0.129252,0.294962,-0.039389,42,277,579,6160
1644188464.195141,-0.007629,0.008362,-0.988892,0.175053,0.493435,-0.069924,53,281,585,6192
1644188464.243409,-0.010559,0.009399,-0.989075,0.236122,0.218626,0.113282,49,277,584,6240
1644188464.291772,-0.008728,0.009216,-0.992065,0.266656,0.462901,-0.008855,46,274,587,6224
1644188464.340161,-0.00769,0.01178,-0.990234,0.266656,0.432366,-0.100458,54,277,584,6176
1644188464.388583,-0.006042,0.011353,-0.993042,0.068183,0.401832,-0.039389,57,275,579,6288
1644188464.436981,-0.007141,0.007751,-0.989807,0.129252,0.356031,-0.14626,46,274,576,6128
1644188464.485372,-0.004639,0.011108,-0.989868,0.327725,0.340763,-0.008855,58,281,583,6304
1644188464.533768,-0.006653,0.008972,-0.990906,0.159786,0.417099,-0.161527,53,274,585,6256
1644188464.582239,-0.00769,0.007874,-0.994141,0.113985,0.432366,-0.069924,48,271,576,6224
1644188464.631635,-0.009766,0.010559,-0.994019,0.159786,0.417099,-0.115725,43,274,580,6256
1644188464.682086,-0.007629,0.010315,-0.988037,0.205588,0.386565,-0.207328,49,273,572,6192
1644188464.732267,-0.010071,0.009399,-0.989502,0.175053,0.493435,-0.161527,46,276,585,6224
1644188464.82419,-0.00885,0.009644,-0.990112,0.281924,0.447634,-0.069924,49,280,584,6224
1644188464.872564,-0.007019,0.009155,-0.98938,0.266656,0.356031,-0.14626,53,266,590,6224
1644188464.920925,-0.008301,0.009094,-0.991577,0.312458,0.417099,-0.192061,45,280,586,6240
1644188464.969317,-0.007935,0.01123,-0.990906,0.068183,0.401832,-0.039389,52,273,582,6224
1644188465.017734,-0.006714,0.011292,-0.992188,0.205588,0.462901,-0.14626,43,271,585,6224
1644188465.066245,-0.01178,0.010376,-0.991028,0.281924,0.508702,-0.207328,47,285,584,6304
1644188465.11456,-0.007874,0.009216,-0.991638,0.113985,0.600305,0.021679,43,286,585,6192
1644188465.162889,-0.010742,0.010681,-0.992615,0.175053,0.401832,-0.115725,49,268,577,6256
1644188465.211262,-0.00708,0.006409,-0.991028,0.297191,0.340763,-0.115725,64,277,586,6224
1644188465.259632,-0.005737,0.010681,-0.989624,0.251389,0.432366,-0.161527,53,276,587,6176
1644188465.308054,-0.008545,0.010132,-0.98938,0.175053,0.294962,-0.054656,53,269,590,6240
1644188465.356444,-0.009399,0.012207,-0.98938,0.312458,0.294962,0.067481,45,280,586,6176
1644188465.404848,-0.011292,0.011597,-0.991638,0.159786,0.539237,-0.008855,47,282,586,6224
1644188465.453249,-0.00769,0.010437,-0.992676,0.251389,0.356031,-0.115725,38,275,586,6256
1644188465.501621,-0.006775,0.010315,-0.990662,0.144519,0.462901,0.052214,52,282,591,6192
1644188465.549991,-0.007996,0.010376,-0.993713,0.175053,0.447634,-0.069924,53,276,587,6240
1644188465.598414,-0.006958,0.008545,-0.991394,0.266656,0.279695,-0.024122,51,276,583,6176
1644188465.646801,-0.011108,0.008057,-0.993286,0.113985,0.310229,-0.130992,47,268,589,6256
1644188465.695525,-0.005432,0.011108,-0.991394,0.190321,0.356031,-0.130992,55,274,590,6240
1644188465.745733,-0.008362,0.010559,-0.991272,0.281924,0.401832,-0.024122,53,269,585,6240
1644188465.79526,-0.008179,0.012146,-0.991821,0.342992,0.264427,-0.14626,55,276,594,6240
1644188465.845739,-0.007019,0.013855,-0.990417,0.266656,0.417099,-0.054656,46,274,587,6192
1644188465.937206,-0.007507,0.011047,-0.99115,0.144519,0.447634,-0.268397,53,266,583,6240
1644188465.985575,-0.007935,0.010254,-0.990295,0.312458,0.371298,-0.054656,42,270,575,6224
1644188466.033996,-0.004883,0.011047,-0.991028,0.08345,0.539237,-0.176794,49,277,575,6240
1644188466.082451,-0.005249,0.009949,-0.991882,0.266656,0.478168,-0.14626,46,279,585,6224
1644188466.130754,-0.01001,0.012146,-0.989197,0.220855,0.508702,-0.268397,46,274,587,6224
1644188466.179125,-0.008179,0.009338,-0.990845,0.205588,0.493435,-0.054656,49,287,584,6240
1644188466.227482,-0.007751,0.004883,-0.991028,0.327725,0.264427,0.006412,43,281,580,6224
1644188466.276962,-0.007812,0.011169,-0.989746,0.266656,0.340763,-0.085191,58,281,594,6240
1644188466.324284,-0.00885,0.009277,-0.99115,0.159786,0.371298,-0.237863,41,276,585,6256
1644188466.372727,-0.006897,0.009216,-0.991821,0.312458,0.432366,-0.115725,58,276,569,6224
1644188466.421085,-0.010132,0.008423,-0.990112,0.144519,0.447634,-0.161527,59,280,582,6224
1644188466.469483,-0.005554,0.009644,-0.991272,0.236122,0.432366,-0.054656,48,274,585,6176
1644188466.517883,-0.009644,0.008301,-0.990417,0.205588,0.310229,-0.130992,51,264,583,6256
1644188466.566272,-0.007996,0.011597,-0.991455,0.220855,0.340763,-0.100458,41,281,585,6304
1644188466.614676,-0.008423,0.009766,-0.99115,0.312458,0.447634,0.052214,49,277,577,6240
1644188466.663073,-0.008179,0.010437,-0.99292,0.175053,0.325496,-0.115725,36,283,583,6256
1644188466.711415,-0.010498,0.010925,-0.993225,0.144519,0.371298,-0.054656,42,270,582,6256
1644188466.759865,-0.00531,0.01062,-0.989746,0.281924,0.432366,0.036947,57,268,586,6256
1644188466.80825,-0.007385,0.009521,-0.991089,0.007115,0.310229,-0.054656,46,276,587,6240
1644188466.858494,-0.00708,0.009399,-0.989929,0.266656,0.371298,-0.130992,52,268,602,6224
1644188466.908827,-0.010315,0.009338,-0.992188,0.037649,0.401832,-0.069924,51,279,580,6240
1644188466.958961,-0.005005,0.012695,-0.991699,0.236122,0.539237,-0.069924,40,277,584,6224
1644188467.068491,-0.009644,0.008362,-0.991089,0.312458,0.508702,0.021679,55,274,576,6224
1644188467.101429,-0.007996,0.00885,-0.989746,0.129252,0.310229,-0.115725,48,276,578,6192
1644188467.147023,-0.009277,0.00946,-0.989685,0.297191,0.279695,-0.14626,42,280,582,6240
1644188467.195377,-0.008667,0.013306,-0.990845,0.220855,0.24916,-0.222595,46,283,592,6240
1644188467.243782,-0.008118,0.010681,-0.990723,0.266656,0.294962,-0.115725,49,282,596,6224
