epoch,acc_x,acc_y,acc_z,rot_x,rot_y,rot_z,mag_x,mag_y,mag_z,temp
1644162600.017892,-0.010376,0.010132,-0.991821,0.266656,0.462901,-0.069924,45,270,568,5600
1644162600.066442,-0.008118,0.010559,-0.992676,0.35826,0.432366,-0.283664,53,281,578,5536
1644162600.114699,-0.010193,0.007507,-0.991272,0.342992,0.417099,-0.054656,52,265,577,5552
1644162600.163075,-0.007935,0.010986,-0.989685,0.190321,0.24916,-0.100458,48,279,573,5600
1644162600.211446,-0.011353,0.008728,-0.99292,0.281924,0.447634,-0.008855,48,279,578,5584
1644162600.259839,-0.010437,0.009705,-0.991821,0.037649,0.585038,-0.176794,48,283,573,5536
1644162600.308228,-0.010437,0.012146,-0.992737,0.022382,0.371298,-0.192061,49,273,568,5552
1644162600.356617,-0.008606,0.007935,-0.989136,0.266656,0.478168,-0.130992,46,274,578,5632
1644162600.405122,-0.009583,0.008301,-0.992676,0.190321,0.493435,0.006412,47,277,572,5536
1644162600.453409,-0.012329,0.007874,-0.99115,0.449863,0.356031,-0.100458,48,276,576,5552
1644162600.501792,-0.009094,0.008545,-0.993408,0.251389,0.356031,-0.024122,48,271,571,5584
1644162600.550166,-0.011414,0.009399,-0.994141,0.190321,0.401832,-0.176794,54,273,570,5536
1644162600.598552,-0.009521,0.007996,-0.99353,0.251389,0.279695,-0.085191,54,277,568,5536
1644162600.646923,-0.009766,0.006531,-0.993958,0.297191,0.417099,-0.054656,62,279,573,5520
1644162600.69532,-0.010376,0.00885,-0.992371,0.129252,0.386565,-0.115725,47,277,577,5552
1644162600.743736,-0.010376,0.009338,-0.995056,0.175053,0.294962,0.021679,47,277,568,5600
1644162600.792458,-0.010376,0.009827,-0.992859,0.312458,0.417099,-0.207328,60,271,583,5584
1644162600.844154,-0.012024,0.008667,-0.992126,0.08345,0.447634,-0.207328,53,269,578,5584
1644162600.894653,-0.013428,0.010986,-0.993164,0.35826,0.462901,-0.161527,55,271,580,5520
1644162600.938837,-0.012146,0.008789,-0.989868,0.251389,0.569771,-0.130992,55,276,583,5520
1644162601.043414,-0.010864,0.007202,-0.993774,0.175053,0.356031,-0.14626,39,279,571,5520
1644162601.08305,-0.010559,0.008484,-0.992493,0.159786,0.294962,-0.085191,54,282,572,5552
1644162601.130888,-0.007629,0.010193,-0.993286,0.266656,0.401832,-0.130992,46,274,583,5536
1644162601.179247,-0.011597,0.00647,-0.993469,0.266656,0.447634,-0.039389,47,270,577,5536
1644162601.227635,-0.008728,0.013977,-0.994019,0.144519,0.417099,-0.161527,36,271,578,5584
1644162601.276019,-0.011475,0.007202,-0.992004,0.205588,0.478168,-0.222595,48,281,580,5552
1644162601.324429,-0.010986,0.009888,-0.992065,0.46513,0.432366,-0.161527,49,280,575,5552
1644162601.372829,-0.008972,0.00946,-0.992493,0.266656,0.432366,-0.161527,57,280,577,5584
1644162601.421183,-0.007996,0.008118,-0.993835,0.190321,0.371298,-0.161527,53,269,569,5552
1644162601.469581,-0.011169,0.011108,-0.99176,0.175053,0.371298,-0.161527,46,274,573,5536
1644162601.517939,-0.008423,0.012085,-0.991516,0.220855,0.478168,-0.161527,45,282,582,5584
1644162601.566351,-0.009216,0.009766,-0.994507,0.236122,0.554504,-0.161527,48,271,578,5552
1644162601.614759,-0.010315,0.009216,-0.994751,0.236122,0.340763,-0.161527,46,276,576,5552
1644162601.66316,-0.010437,0.009155,-0.990601,0.190321,0.356031,-0.161527,48,281,571,5600
1644162601.711519,-0.012207,0.009155,-0.993225,0.205588,0.539237,0.006412,53,274,576,5552
1644162601.761536,-0.008667,0.011047,-0.99054,0.236122,0.447634,-0.14626,43,281,573,5552
1644162601.811786,-0.010681,0.009766,-0.992737,0.35826,0.508702,-0.192061,54,273,586,5536
1644162601.857522,-0.013428,0.007263,-0.993164,0.434595,0.523969,0.021679,51,276,578,5536
1644162601.953539,-0.011963,0.007202,-0.993103,0.297191,0.401832,-0.024122,49,268,579,5600
1644162602.001896,-0.010925,0.007935,-0.990784,0.312458,0.554504,-0.161527,47,275,582,5536
1644162602.055482,-0.011292,0.00708,-0.993469,0.342992,0.371298,-0.008855,53,276,590,5552
1644162602.098683,-0.008972,0.00824,-0.994324,0.205588,0.478168,-0.085191,49,277,579,5472
1644162602.147079,-0.012878,0.007568,-0.99231,0.175053,0.233893,0.021679,58,279,573,5520
1644162602.195426,-0.01123,0.008972,-0.994446,0.236122,0.493435,-0.130992,42,273,586,5520
1644162602.243824,-0.012878,0.005981,-0.991455,0.281924,0.417099,0.036947,57,275,575,5584
1644162602.29223,-0.006836,0.006287,-0.990662,0.297191,0.340763,-0.085191,42,260,579,5584
1644162602.340607,-0.00946,0.009033,-0.98822,0.281924,0.340763,-0.176794,53,274,578,5584
1644162602.388995,-0.012268,0.007507,-0.992371,0.037649,0.432366,0.006412,47,277,577,5488
1644162602.437376,-0.009766,0.007446,-0.991882,0.342992,0.386565,-0.161527,46,276,573,5536
1644162602.485765,-0.010681,0.008972,-0.992981,0.35826,0.432366,-0.222595,49,273,575,5584
1644162602.534174,-0.008972,0.008972,-0.990479,0.175053,0.386565,-0.115725,52,275,589,5584
1644162602.582573,-0.010193,0.010193,-0.990356,0.327725,0.447634,-0.008855,47,282,582,5552
1644162602.630941,-0.010925,0.008911,-0.992371,0.129252,0.294962,-0.085191,32,274,576,5584
1644162602.679337,-0.010132,0.00946,-0.993774,0.190321,0.554504,-0.237863,49,275,582,5536
1644162602.727719,-0.009216,0.009094,-0.993958,0.236122,0.386565,-0.237863,43,279,578,5520
1644162602.77611,-0.010498,0.009521,-0.991394,0.312458,0.386565,-0.176794,47,285,570,5584
1644162602.824894,-0.00769,0.01062,-0.99176,0.220855,0.569771,0.067481,39,279,571,5584
1644162602.874212,-0.011658,0.008423,-0.991211,0.35826,0.432366,-0.14626,46,274,573,5552
1644162602.925546,-0.012451,0.009155,-0.989746,0.266656,0.371298,0.036947,59,275,577,5648
1644162602.970033,-0.010193,0.005981,-0.993896,0.297191,0.432366,0.052214,49,273,568,5632
1644162603.067731,-0.010803,0.010803,-0.99469,0.236122,0.523969,-0.115725,51,274,580,5584
1644162603.114852,-0.013855,0.008301,-0.992065,0.205588,0.356031,-0.115725,54,277,572,5584
1644162603.163239,-0.010376,0.008667,-0.99408,0.266656,0.447634,-0.14626,52,282,568,5536
1644162603.211673,-0.011963,0.012329,-0.992737,0.205588,0.493435,-0.085191,59,280,575,5648
1644162603.259999,-0.011902,0.011658,-0.992615,0.220855,0.554504,0.021679,55,271,578,5584
1644162603.308403,-0.010498,0.011902,-0.989807,0.205588,0.356031,-0.100458,42,282,577,5472
1644162603.3568,-0.008484,0.009583,-0.992371,0.236122,0.356031,-0.14626,51,271,573,5536
1644162603.405175,-0.013428,0.008362,-0.992737,0.297191,0.386565,-0.085191,53,269,566,5600
1644162603.453577,-0.009277,0.010681,-0.990723,0.281924,0.310229,-0.192061,39,276,576,5488
1644162603.501937,-0.008606,0.008972,-0.990295,0.205588,0.233893,-0.130992,36,281,583,5536
1644162603.550355,-0.008972,0.010193,-0.994263,0.159786,0.493435,-0.069924,49,268,575,5552
1644162603.598727,-0.011597,0.00946,-0.993347,0.190321,0.203359,-0.100458,51,271,573,5536
1644162603.647128,-0.011536,0.009766,-0.994202,0.236122,0.508702,-0.054656,53,276,569,5536
1644162603.695522,-0.00885,0.010986,-0.990601,0.312458,0.462901,-0.176794,42,273,575,5536
1644162603.743899,-0.011475,0.010437,-0.989502,0.281924,0.294962,-0.100458,58,271,576,5552
1644162603.79234,-0.010315,0.006958,-0.993408,0.327725,0.417099,-0.25313,53,266,576,5600
1644162603.840733,-0.011353,0.007629,-0.990845,0.205588,0.462901,-0.130992,45,273,572,5584
1644162603.889148,-0.010864,0.00946,-0.995361,0.068183,0.539237,-0.161527,53,266,571,5536
1644162603.937885,-0.012329,0.011108,-0.994324,0.190321,0.508702,-0.268397,45,275,582,5488
1644162603.988513,-0.009888,0.008972,-0.98877,0.190321,0.294962,-0.115725,47,285,582,5584
1644162604.055072,-0.008545,0.006836,-0.992371,0.190321,0.386565,-0.069924,51,274,566,5584
1644162604.08985,-0.011719,0.008423,-0.991821,0.129252,0.356031,-0.100458,53,264,580,5520
1644162604.179413,-0.010559,0.009155,-0.990723,0.175053,0.447634,-0.130992,45,277,572,5536
1644162604.227793,-0.009521,0.013977,-0.992188,0.266656,0.447634,-0.008855,48,269,580,5552
1644162604.276188,-0.009094,0.008057,-0.991211,0.404061,0.417099,-0.161527,43,283,573,5552
1644162604.32483,-0.010315,0.010315,-0.992249,0.281924,0.478168,-0.130992,42,265,568,5520
1644162604.373008,-0.007263,0.01001,-0.992615,0.297191,0.24916,-0.054656,43,266,578,5552
1644162604.421361,-0.013306,0.007629,-0.993225,0.342992,0.340763,-0.008855,42,285,575,5536
1644162604.469768,-0.011719,0.011047,-0.988281,0.220855,0.371298,-0.14626,46,269,580,5488
1644162604.518157,-0.00769,0.008972,-0.993713,0.251389,0.310229,-0.069924,48,281,578,5600
1644162604.566554,-0.010315,0.010071,-0.990906,0.236122,0.325496,-0.130992,46,274,580,5584
1644162604.615062,-0.010071,0.011292,-0.993774,0.281924,0.24916,-0.069924,42,277,575,5552
1644162604.663345,-0.009705,0.00824,-0.992371,0.08345,0.478168,-0.176794,49,270,577,5584
1644162604.711719,-0.009705,0.011719,-0.988892,0.404061,0.203359,0.021679,52,270,582,5584
1644162604.760093,-0.011841,0.013184,-0.99231,0.220855,0.432366,-0.222595,52,273,570,5552
1644162604.808555,-0.011536,0.010132,-0.992126,0.205588,0.371298,-0.176794,49,275,577,5552
1644162604.856932,-0.01123,0.008972,-0.992126,0.327725,0.294962,-0.085191,53,271,585,5520
1644162604.90531,-0.01062,0.009888,-0.989929,0.159786,0.188092,-0.207328,52,280,572,5536
1644162604.953706,-0.011169,0.007935,-0.991638,0.190321,0.401832,-0.069924,49,273,577,5488
1644162605.002075,-0.010193,0.011841,-0.992676,0.236122,0.523969,-0.069924,51,276,578,5584
1644162605.075348,-0.01001,0.00885,-0.992249,0.052916,0.569771,0.036947,48,286,585,5552
1644162605.147243,-0.013489,0.008911,-0.992981,0.297191,0.447634,0.036947,42,273,577,5520
1644162605.195604,-0.010254,0.008545,-0.992065,0.342992,0.310229,-0.207328,58,274,576,5648
1644162605.244006,-0.012573,0.009888,-0.994263,0.190321,0.417099,0.036947,57,270,575,5536
1644162605.29239,-0.009583,0.011047,-0.993591,0.190321,0.417099,-0.054656,49,268,572,5552
1644162605.340786,-0.009766,0.01123,-0.994507,0.236122,0.325496,-0.100458,47,270,570,5552
1644162605.389177,-0.012573,0.011047,-0.992004,0.266656,0.523969,-0.054656,46,276,573,5584
1644162605.437553,-0.010498,0.009216,-0.992188,0.068183,0.340763,-0.054656,46,266,578,5536
1644162605.485952,-0.008423,0.008301,-0.99408,0.113985,0.508702,-0.161527,54,275,584,5488
1644162605.534365,-0.010193,0.006409,-0.991882,0.205588,0.523969,-0.176794,48,276,571,5584
1644162605.582766,-0.01178,0.006165,-0.992737,0.327725,0.478168,-0.161527,55,281,580,5600
1644162605.631135,-0.011902,0.009949,-0.990051,0.281924,0.493435,-0.085191,54,275,575,5536
1644162605.679493,-0.011169,0.009155,-0.99115,0.220855,0.462901,-0.36,53,274,583,5552
1644162605.727913,-0.007446,0.012634,-0.990112,0.419328,0.493435,0.006412,52,280,575,5552
1644162605.776314,-0.009583,0.010864,-0.993835,0.236122,0.340763,0.036947,54,280,572,5584
1644162605.824759,-0.013977,0.009094,-0.991699,0.205588,0.386565,-0.054656,48,266,571,5584
1644162605.873143,-0.011475,0.010193,-0.992798,0.281924,0.508702,-0.069924,48,269,578,5552
1644162605.921495,-0.01123,0.012024,-0.995056,0.342992,0.264427,-0.222595,52,268,570,5552
1644162605.969892,-0.009094,0.010498,-0.992432,0.342992,0.417099,-0.237863,49,275,572,5584
1644162606.018302,-0.011108,0.008423,-0.993103,0.205588,0.493435,-0.008855,48,271,587,5536
1644162606.079378,-0.013977,0.007568,-0.992859,0.236122,0.417099,-0.268397,48,279,571,5536
1644162606.11833,-0.007629,0.010376,-0.989502,0.236122,0.386565,0.021679,46,279,569,5584
1644162606.167025,-0.009033,0.007874,-0.993652,0.022382,0.371298,-0.115725,48,276,571,5536
1644162606.212001,-0.010925,0.009521,-0.991028,0.159786,0.447634,-0.14626,57,268,568,5536
1644162606.30858,-0.013123,0.010132,-0.990906,0.113985,0.386565,-0.024122,53,274,576,5584
1644162606.356953,-0.011108,0.008118,-0.992676,0.220855,0.432366,-0.192061,46,276,583,5552
1644162606.405386,-0.010559,0.01001,-0.992188,0.190321,0.356031,-0.14626,48,279,566,5552
1644162606.453758,-0.010132,0.010193,-0.992798,0.113985,0.356031,-0.085191,52,282,577,5600
1644162606.502384,-0.007812,0.007996,-0.99115,0.220855,0.310229,0.021679,49,277,572,5584
1644162606.550533,-0.009094,0.007507,-0.990356,0.327725,0.371298,-0.192061,47,270,575,5584
1644162606.598926,-0.006958,0.010193,-0.991211,0.159786,0.340763,-0.161527,49,273,575,5584
1644162606.64732,-0.008057,0.009705,-0.990601,0.08345,0.508702,-0.283664,55,269,573,5552
1644162606.695719,-0.010803,0.008972,-0.994385,0.190321,0.493435,0.021679,49,282,575,5536
1644162606.744075,-0.007751,0.010803,-0.991333,0.220855,0.310229,-0.14626,51,274,571,5584
1644162606.792515,-0.010376,0.011902,-0.992249,0.251389,0.417099,-0.192061,54,277,575,5536
1644162606.840921,-0.009033,0.007874,-0.991455,0.236122,0.462901,-0.024122,55,271,576,5648
1644162606.889318,-0.011047,0.006653,-0.99408,0.113985,0.417099,-0.176794,62,271,578,5536
1644162606.937697,-0.009583,0.010986,-0.991638,0.373527,0.493435,-0.085191,48,281,564,5536
1644162606.986097,-0.010254,0.010315,-0.992859,0.342992,0.401832,0.052214,54,275,568,5552
1644162607.05054,-0.013489,0.007874,-0.99054,0.297191,0.569771,-0.237863,58,276,592,5536
1644162607.090083,-0.011292,0.010193,-0.994019,0.159786,0.493435,-0.054656,45,280,586,5536
1644162607.134173,-0.010742,0.010071,-0.991943,0.312458,0.539237,-0.054656,40,277,577,5584
1644162607.183437,-0.010132,0.011536,-0.990784,0.312458,0.325496,0.067481,57,273,572,5584
1644162607.228027,-0.011963,0.011169,-0.992004,0.159786,0.371298,-0.161527,43,283,564,5536
1644162607.324908,-0.013428,0.008423,-0.992981,0.388794,0.478168,-0.25313,52,270,575,5584
1644162607.373152,-0.012268,0.011658,-0.994507,0.266656,0.447634,-0.161527,38,275,575,5536
1644162607.421549,-0.008118,0.008667,-0.992554,0.175053,0.447634,-0.100458,48,283,576,5552
1644162607.46995,-0.008972,0.007751,-0.991699,0.342992,0.310229,0.021679,45,280,568,5520
1644162607.518337,-0.011475,0.008789,-0.991638,0.266656,0.310229,-0.222595,54,275,572,5536
1644162607.566729,-0.009277,0.008972,-0.993469,0.251389,0.447634,-0.25313,48,279,571,5600
1644162607.615155,-0.006897,0.007568,-0.992249,0.236122,0.478168,-0.115725,43,281,573,5536
1644162607.663521,-0.009338,0.006592,-0.991516,0.190321,0.417099,-0.161527,57,280,575,5536
1644162607.711905,-0.008057,0.008118,-0.994751,0.175053,0.325496,0.052214,51,276,564,5552
1644162607.760289,-0.010132,0.009338,-0.991577,0.098718,0.279695,-0.283664,48,271,571,5536
1644162607.808686,-0.010071,0.008972,-0.99176,0.297191,0.462901,-0.130992,51,283,587,5600
1644162607.8571,-0.01001,0.009033,-0.99054,0.129252,0.340763,-0.192061,57,270,584,5488
1644162607.905488,-0.008789,0.009827,-0.992432,0.113985,0.447634,0.082748,55,276,566,5584
1644162607.953895,-0.009766,0.00824,-0.995911,0.251389,0.462901,-0.115725,49,270,579,5600
1644162608.002269,-0.009521,0.008728,-0.993774,0.098718,0.447634,-0.008855,46,274,578,5520
1644162608.071092,-0.009644,0.010376,-0.995422,0.251389,0.447634,-0.085191,46,274,580,5536
1644162608.10369,-0.012817,0.007996,-0.992432,0.220855,0.325496,-0.100458,51,264,583,5536
1644162608.148551,-0.009521,0.011353,-0.992737,0.373527,0.294962,-0.207328,49,280,568,5552
1644162608.244201,-0.00946,0.009094,-0.989868,0.205588,0.356031,-0.100458,49,273,570,5536
1644162608.292595,-0.010254,0.004272,-0.991882,0.281924,0.24916,-0.130992,60,274,576,5536
1644162608.340962,-0.010193,0.009094,-0.99231,0.297191,0.325496,-0.100458,53,279,569,5584
1644162608.38935,-0.009888,0.007446,-0.992737,0.129252,0.478168,-0.222595,46,264,573,5552
1644162608.437746,-0.009766,0.010986,-0.993713,0.281924,0.386565,-0.115725,58,276,573,5552
1644162608.486132,-0.00946,0.008789,-0.991333,0.037649,0.417099,-0.115725,55,286,576,5536
1644162608.534535,-0.013367,0.009644,-0.992859,0.251389,0.233893,-0.283664,47,273,575,5488
1644162608.582939,-0.008972,0.009338,-0.991882,0.052916,0.386565,-0.130992,41,279,583,5584
1644162608.631311,-0.010498,0.008728,-0.993896,0.098718,0.447634,-0.161527,52,282,575,5536
1644162608.679706,-0.012573,0.008057,-0.99292,0.098718,0.325496,-0.024122,49,270,570,5552
1644162608.728096,-0.009766,0.00769,-0.993591,0.236122,0.325496,-0.115725,51,276,576,5584
1644162608.776485,-0.011414,0.010498,-0.992249,0.037649,0.417099,-0.024122,49,275,565,5584
1644162608.824874,-0.006836,0.008911,-0.992615,0.327725,0.432366,-0.130992,57,275,575,5552
1644162608.873305,-0.010071,0.010315,-0.993408,0.113985,0.401832,-0.130992,60,283,578,5488
1644162608.921695,-0.007996,0.009644,-0.991882,0.190321,0.386565,-0.115725,57,270,577,5552
1644162608.970097,-0.010437,0.009277,-0.991211,0.312458,0.356031,-0.024122,48,269,573,5552
1644162609.018474,-0.010742,0.008972,-0.990356,0.205588,0.310229,-0.130992,53,279,571,5536
1644162609.071614,-0.011658,0.009521,-0.990356,0.35826,0.294962,-0.054656,53,279,573,5536
1644162609.115269,-0.01178,0.012451,-0.990723,0.327725,0.310229,-0.100458,45,265,568,5552
1644162609.165274,-0.010132,0.010193,-0.990845,0.220855,0.371298,-0.085191,51,271,573,5552
1644162609.215542,-0.011841,0.007446,-0.989258,0.129252,0.401832,-0.054656,48,276,571,5536
1644162609.265817,-0.010193,0.009155,-0.989502,0.281924,0.493435,-0.069924,48,279,578,5584
1644162609.310319,-0.012268,0.011658,-0.991272,0.205588,0.340763,0.021679,54,275,579,5648
1644162609.405582,-0.009888,0.009277,-0.993958,0.159786,0.493435,0.113282,47,275,575,5552
1644162609.453976,-0.00769,0.00885,-0.991394,0.129252,0.356031,-0.069924,45,273,554,5584
1644162609.502439,-0.008789,0.005493,-0.990417,0.220855,0.325496,-0.024122,53,279,564,5584
1644162609.550761,-0.010742,0.009094,-0.989746,0.175053,0.417099,-0.085191,51,271,566,5472
1644162609.599157,-0.007629,0.009155,-0.994629,0.312458,0.493435,-0.069924,43,274,564,5584
1644162609.647537,-0.007507,0.011108,-0.994446,0.266656,0.371298,-0.039389,54,277,577,5600
1644162609.69592,-0.01123,0.009521,-0.991394,0.205588,0.417099,-0.069924,47,275,565,5536
1644162609.744339,-0.010254,0.00885,-0.992249,0.205588,0.447634,-0.115725,43,276,573,5552
1644162609.792729,-0.012939,0.005676,-0.99408,0.266656,0.417099,-0.069924,52,280,568,5552
1644162609.841063,-0.009949,0.009277,-0.991699,0.297191,0.310229,0.082748,57,275,575,5536
1644162609.889464,-0.009338,0.009094,-0.989441,0.35826,0.340763,-0.14626,42,273,579,5600
1644162609.937881,-0.012268,0.010803,-0.991821,0.251389,0.371298,-0.192061,51,279,573,5584
1644162609.986269,-0.006592,0.00824,-0.992126,0.312458,0.340763,-0.115725,57,277,575,5536
1644162610.044959,-0.012939,0.006531,-0.990356,0.220855,0.264427,0.082748,48,274,566,5488
1644162610.083666,-0.011475,0.009888,-0.991455,0.236122,0.417099,0.067481,72,281,583,5520
1644162610.131399,-0.011047,0.009521,-0.992249,0.266656,0.417099,-0.130992,51,269,578,5536
1644162610.179796,-0.009705,0.006958,-0.992188,0.098718,0.493435,0.006412,36,271,569,5536
1644162610.228188,-0.009705,0.009399,-0.990112,0.159786,0.310229,-0.054656,57,273,582,5536
1644162610.276573,-0.010376,0.009766,-0.993103,0.297191,0.294962,-0.008855,53,274,569,5536
1644162610.325228,-0.009399,0.008606,-0.992859,0.08345,0.432366,-0.054656,46,281,571,5536
1644162610.375645,-0.010376,0.011597,-0.990845,0.251389,0.447634,-0.207328,54,270,577,5584
1644162610.42582,-0.014343,0.010681,-0.99408,0.190321,0.386565,-0.039389,60,269,580,5520
1644162610.470934,-0.009033,0.010742,-0.99176,0.144519,0.493435,-0.069924,55,264,576,5536
1644162610.566904,-0.012268,0.009033,-0.991638,0.175053,0.432366,-0.100458,51,283,576,5536
1644162610.615406,-0.00885,0.007507,-0.99292,0.281924,0.478168,-0.130992,41,274,576,5584
1644162610.663705,-0.010071,0.009766,-0.99292,0.281924,0.233893,-0.100458,58,291,578,5552
1644162610.71216,-0.010864,0.008423,-0.992065,0.220855,0.432366,0.036947,45,287,575,5552
1644162610.76045,-0.008301,0.010742,-0.991028,0.220855,0.340763,-0.161527,53,269,578,5552
1644162610.808901,-0.009705,0.008972,-0.992554,0.251389,0.493435,-0.024122,49,270,568,5600
1644162610.857293,-0.010864,0.006104,-0.991089,0.205588,0.24916,-0.054656,38,280,572,5584
1644162610.905689,-0.009888,0.011414,-0.993347,0.312458,0.340763,-0.268397,52,285,568,5584
1644162610.954088,-0.010742,0.006714,-0.992493,0.068183,0.279695,-0.069924,48,276,576,5584
1644162611.002477,-0.011597,0.011963,-0.992188,0.266656,0.539237,-0.115725,51,269,576,5584
1644162611.054728,-0.011841,0.007996,-0.990662,0.251389,0.539237,-0.085191,51,269,580,5584
1644162611.099235,-0.006531,0.009216,-0.992371,0.220855,0.417099,0.021679,45,275,584,5552
1644162611.147623,-0.010132,0.011169,-0.993469,0.342992,0.600305,-0.024122,54,287,582,5488
1644162611.195981,-0.014221,0.010071,-0.992432,0.251389,0.310229,-0.176794,48,276,580,5520
1644162611.244372,-0.013245,0.009521,-0.990723,0.251389,0.432366,-0.054656,54,280,579,5600
1644162611.292783,-0.010864,0.009766,-0.990173,0.236122,0.508702,-0.176794,52,280,582,5552
1644162611.341152,-0.009521,0.006592,-0.991272,0.205588,0.401832,0.006412,49,273,572,5488
1644162611.38955,-0.00946,0.012268,-0.990051,0.266656,0.478168,-0.115725,52,280,577,5584
1644162611.437933,-0.011658,0.009033,-0.990356,0.266656,0.325496,-0.039389,51,281,576,5552
1644162611.486447,-0.01001,0.009399,-0.99353,0.159786,0.417099,-0.237863,52,270,570,5584
1644162611.537019,-0.008423,0.006836,-0.991394,0.251389,0.478168,-0.176794,53,274,569,5600
1644162611.587137,-0.012695,0.00708,-0.992737,0.434595,0.493435,-0.100458,61,268,584,5488
1644162611.632197,-0.013855,0.007874,-0.992188,0.266656,0.371298,-0.14626,52,270,575,5552
1644162611.72827,-0.008118,0.007263,-0.991699,0.113985,0.371298,-0.039389,47,263,572,5584
1644162611.776639,-0.009888,0.007996,-0.989868,0.175053,0.447634,0.067481,52,270,570,5536
1644162611.825213,-0.012512,0.010193,-0.992737,0.266656,0.386565,-0.130992,55,274,571,5584
1644162611.873489,-0.01123,0.010071,-0.989563,0.220855,0.264427,-0.054656,55,259,573,5536
1644162611.921883,-0.010071,0.010742,-0.991089,0.251389,0.279695,-0.024122,52,275,582,5536
1644162611.970268,-0.012146,0.00647,-0.992493,0.220855,0.493435,-0.115725,52,275,575,5584
1644162612.018659,-0.011597,0.006836,-0.991333,0.236122,0.417099,-0.069924,51,269,583,5536
1644162612.072921,-0.011169,0.01178,-0.992615,0.205588,0.340763,-0.207328,54,270,575,5600
1644162612.11542,-0.011658,0.011047,-0.993652,0.159786,0.417099,-0.130992,53,269,580,5552
1644162612.163778,-0.007629,0.009399,-0.992493,0.281924,0.340763,-0.100458,49,275,568,5552
1644162612.21223,-0.010132,0.008911,-0.993469,0.312458,0.371298,-0.008855,49,268,575,5584
1644162612.26054,-0.013123,0.009766,-0.993225,0.175053,0.356031,-0.069924,46,276,578,5584
1644162612.308958,-0.01123,0.009705,-0.992981,0.175053,0.356031,-0.115725,54,273,589,5552
1644162612.357349,-0.012024,0.010437,-0.992493,0.297191,0.340763,-0.14626,49,273,584,5584
1644162612.405711,-0.010132,0.008423,-0.993774,0.159786,0.386565,-0.008855,47,275,582,5536
1644162612.454138,-0.012268,0.007202,-0.989929,0.281924,0.523969,-0.085191,47,263,584,5536
1644162612.502495,-0.011047,0.010498,-0.992981,0.236122,0.401832,-0.207328,54,282,579,5536
1644162612.550905,-0.01355,0.007874,-0.990723,0.236122,0.386565,-0.008855,49,273,570,5632
1644162612.599295,-0.010986,0.007385,-0.994934,0.327725,0.462901,-0.176794,48,271,573,5552
1644162612.648082,-0.01001,0.006226,-0.99176,0.251389,0.325496,-0.161527,43,269,573,5584
1644162612.69832,-0.009094,0.006592,-0.993896,0.342992,0.569771,-0.130992,46,271,566,5584
1644162612.748389,-0.007751,0.00885,-0.990967,0.251389,0.432366,-0.100458,51,276,573,5552
1644162612.793564,-0.010254,0.00647,-0.993469,0.342992,0.478168,-0.008855,51,271,576,5536
1644162612.889677,-0.006592,0.007385,-0.991516,0.052916,0.203359,0.036947,45,277,577,5552
1644162612.938058,-0.011047,0.009277,-0.993164,0.297191,0.356031,0.006412,51,274,573,5600
1644162612.986459,-0.010376,0.009094,-0.993713,0.312458,0.432366,0.036947,46,276,571,5536
1644162613.048401,-0.010864,0.008301,-0.990845,0.281924,0.493435,0.052214,40,273,582,5536
1644162613.085091,-0.011597,0.007751,-0.989746,0.266656,0.569771,-0.085191,42,277,577,5600
1644162613.131598,-0.011719,0.00824,-0.994141,0.327725,0.356031,-0.054656,55,286,576,5552
1644162613.179976,-0.008179,0.007996,-0.994263,0.113985,0.401832,-0.14626,45,285,568,5536
1644162613.228373,-0.007446,0.006592,-0.992432,0.251389,0.325496,-0.25313,45,265,575,5648
1644162613.276737,-0.012085,0.008728,-0.994629,0.312458,0.417099,-0.054656,60,274,578,5488
1644162613.32526,-0.011597,0.01178,-0.990479,0.205588,0.340763,-0.14626,47,273,577,5536
1644162613.373536,-0.008545,0.010742,-0.992554,0.220855,0.401832,0.021679,54,282,577,5600
1644162613.421933,-0.011047,0.009521,-0.994263,0.190321,0.356031,-0.008855,49,270,568,5488
1644162613.470318,-0.01062,0.011414,-0.989746,0.327725,0.478168,-0.207328,47,273,575,5536
1644162613.518711,-0.008789,0.01123,-0.993469,0.220855,0.432366,-0.054656,47,277,582,5536
1644162613.567108,-0.009888,0.009216,-0.993774,0.205588,0.462901,-0.268397,49,273,572,5584
1644162613.615731,-0.009216,0.009521,-0.992249,0.251389,0.432366,-0.024122,52,282,577,5536
1644162613.666368,-0.010681,0.010864,-0.992615,0.404061,0.386565,-0.069924,53,271,573,5536
1644162613.716453,-0.01001,0.010071,-0.988098,0.236122,0.294962,-0.100458,48,274,576,5488
1644162613.7615,-0.01062,0.009949,-0.99176,0.236122,0.478168,-0.207328,57,277,577,5552
1644162613.857491,-0.012024,0.009583,-0.991394,0.236122,0.386565,-0.054656,55,269,576,5552
1644162613.905848,-0.010071,0.009399,-0.99115,0.46513,0.523969,0.067481,51,271,583,5536
1644162613.95427,-0.013367,0.007874,-0.993835,0.373527,0.523969,-0.008855,52,275,575,5584
1644162614.002637,-0.010193,0.008606,-0.990173,0.113985,0.371298,-0.039389,48,274,573,5552
1644162614.052282,-0.009399,0.005493,-0.989441,0.342992,0.508702,-0.130992,42,277,584,5536
1644162614.099411,-0.010071,0.006836,-0.992737,0.144519,0.432366,-0.024122,57,273,577,5552
1644162614.147777,-0.009644,0.008301,-0.993347,0.220855,0.340763,-0.192061,48,288,573,5536
1644162614.196159,-0.014648,0.01062,-0.991821,0.144519,0.340763,0.006412,52,273,575,5600
1644162614.2446,-0.010864,0.008911,-0.992676,0.266656,0.447634,-0.14626,40,285,568,5536
1644162614.292939,-0.011475,0.01178,-0.992554,0.052916,0.325496,-0.176794,48,276,578,5552
1644162614.341352,-0.011536,0.009338,-0.991455,0.251389,0.172824,-0.069924,45,282,575,5632
1644162614.38974,-0.010803,0.010742,-0.990479,0.404061,0.432366,-0.008855,49,273,575,5584
1644162614.438139,-0.012146,0.008789,-0.991455,0.266656,0.294962,-0.085191,60,283,578,5584
1644162614.48651,-0.01001,0.009949,-0.992371,0.08345,0.417099,-0.100458,60,271,578,5664
1644162614.534906,-0.010193,0.01123,-0.99292,0.190321,0.508702,-0.14626,49,275,579,5584
1644162614.583301,-0.008484,0.007751,-0.990356,0.266656,0.264427,-0.100458,51,281,576,5584
1644162614.631685,-0.012085,0.01001,-0.989929,0.266656,0.432366,-0.14626,53,269,576,5536
1644162614.680065,-0.010559,0.009766,-0.992737,0.266656,0.310229,-0.085191,47,268,579,5584
1644162614.728478,-0.00946,0.008423,-0.991882,0.129252,0.371298,-0.008855,52,273,575,5536
1644162614.776905,-0.008484,0.00946,-0.992065,0.236122,0.432366,-0.008855,54,277,570,5536
1644162614.827899,-0.009888,0.00769,-0.989441,0.281924,0.585038,-0.024122,52,268,577,5552
1644162614.878603,-0.006836,0.007507,-0.993042,0.08345,0.462901,-0.176794,45,270,589,5584
1644162614.922999,-0.010925,0.009338,-0.992676,0.35826,0.478168,-0.14626,45,268,570,5536
1644162615.018848,-0.009094,0.010071,-0.992249,0.251389,0.340763,-0.069924,47,275,577,5536
1644162615.070044,-0.009644,0.009399,-0.99292,0.297191,0.493435,-0.054656,55,279,578,5584
1644162615.115651,-0.010925,0.009888,-0.990784,0.159786,0.356031,-0.008855,48,257,576,5536
1644162615.163985,-0.011414,0.01239,-0.991089,0.190321,0.493435,-0.100458,48,281,571,5584
1644162615.212383,-0.011108,0.008911,-0.992249,0.266656,0.539237,-0.161527,40,268,577,5536
1644162615.260763,-0.011536,0.010437,-0.991638,0.144519,0.371298,-0.192061,52,275,577,5536
1644162615.309148,-0.008789,0.010437,-0.993408,0.35826,0.462901,-0.100458,49,273,577,5600
1644162615.357543,-0.011963,0.009827,-0.989929,0.327725,0.340763,-0.161527,52,273,570,5472
1644162615.40593,-0.011353,0.009583,-0.991394,0.251389,0.356031,0.036947,55,269,578,5600
1644162615.45436,-0.011658,0.011902,-0.991821,0.236122,0.447634,-0.25313,47,273,572,5584
1644162615.502723,-0.009949,0.013367,-0.989441,0.312458,0.356031,-0.085191,57,268,582,5520
1644162615.551112,-0.00824,0.008423,-0.992615,0.281924,0.340763,-0.024122,42,277,570,5584
1644162615.599484,-0.013123,0.011902,-0.990112,0.205588,0.371298,-0.14626,47,270,572,5600
1644162615.647881,-0.008972,0.008728,-0.992188,0.312458,0.340763,0.143817,47,275,575,5600
1644162615.696265,-0.010864,0.011108,-0.993896,0.327725,0.432366,-0.283664,51,283,571,5536
1644162615.744677,-0.011108,0.010132,-0.989746,0.129252,0.340763,-0.085191,54,273,579,5584
1644162615.793061,-0.007812,0.012573,-0.993896,0.297191,0.310229,-0.222595,53,276,580,5520
1644162615.841485,-0.009094,0.009766,-0.992493,0.236122,0.371298,-0.14626,49,273,575,5600
1644162615.890294,-0.010498,0.01001,-0.991028,0.190321,0.539237,-0.314198,54,270,563,5648
1644162615.940456,-0.008911,0.01062,-0.993225,0.281924,0.478168,0.036947,42,273,570,5520
1644162615.99089,-0.009827,0.007507,-0.993835,0.449863,0.447634,0.036947,49,282,582,5552
1644162616.05315,-0.009949,0.010925,-0.991394,0.190321,0.325496,-0.130992,53,279,571,5600
1644162616.131792,-0.012146,0.012024,-0.989685,0.068183,0.401832,0.006412,46,271,578,5536
1644162616.180153,-0.011292,0.009705,-0.990967,0.312458,0.478168,-0.100458,53,274,573,5488
1644162616.228547,-0.009277,0.009888,-0.992981,0.312458,0.462901,0.067481,54,273,577,5520
1644162616.276929,-0.008728,0.011108,-0.994263,0.297191,0.432366,-0.100458,58,274,564,5584
1644162616.325323,-0.010071,0.006836,-0.994019,0.205588,0.356031,-0.25313,40,265,565,5584
1644162616.373734,-0.011169,0.010315,-0.990906,0.266656,0.523969,0.036947,53,279,569,5664
1644162616.422164,-0.008362,0.011169,-0.993469,0.373527,0.478168,-0.237863,60,279,564,5648
1644162616.470519,-0.007385,0.009155,-0.99115,0.327725,0.401832,-0.192061,49,268,577,5600
1644162616.5189,-0.008423,0.007568,-0.993408,0.175053,0.371298,-0.085191,48,276,576,5600
1644162616.567282,-0.012451,0.008545,-0.99469,0.266656,0.401832,-0.161527,45,282,568,5600
1644162616.615672,-0.009033,0.006897,-0.991028,0.144519,0.356031,-0.176794,45,285,565,5648
1644162616.664076,-0.014343,0.009705,-0.990417,0.327725,0.340763,0.067481,57,270,572,5584
1644162616.712472,-0.013672,0.008789,-0.997742,0.251389,0.371298,-0.069924,52,277,575,5584
1644162616.760833,-0.010437,0.007141,-0.990601,0.342992,0.401832,-0.14626,45,282,575,5648
1644162616.809239,-0.011841,0.01123,-0.989319,0.281924,0.356031,0.006412,45,270,572,5536
1644162616.857678,-0.01416,0.005249,-0.992432,0.098718,0.447634,-0.039389,49,273,589,5584
1644162616.906065,-0.011963,0.008118,-0.990784,-0.008153,0.447634,-0.085191,47,282,572,5584
1644162616.954814,-0.00769,0.007385,-0.99176,0.159786,0.386565,-0.085191,52,273,577,5584
1644162617.002831,-0.009827,0.008667,-0.993713,0.236122,0.462901,0.021679,49,280,575,5584
1644162617.071142,-0.008606,0.00708,-0.994507,0.266656,0.447634,-0.069924,57,280,577,5536
1644162617.147973,-0.006653,0.01239,-0.993042,0.297191,0.310229,-0.176794,46,276,573,5552
1644162617.196339,-0.010254,0.011047,-0.989197,0.388794,0.478168,0.021679,46,269,571,5584
1644162617.244864,-0.012329,0.011902,-0.991333,0.159786,0.386565,-0.283664,48,274,580,5536
1644162617.293146,-0.007996,0.011963,-0.992615,0.342992,0.432366,-0.024122,49,268,579,5584
1644162617.341524,-0.013611,0.008911,-0.991272,0.236122,0.569771,-0.115725,49,268,568,5584
1644162617.389909,-0.00885,0.007629,-0.98999,0.266656,0.325496,-0.161527,49,270,577,5600
1644162617.438288,-0.012146,0.010742,-0.990173,0.327725,0.447634,-0.069924,47,275,570,5600
1644162617.486697,-0.011047,0.007568,-0.995789,0.220855,0.432366,0.082748,49,275,579,5632
1644162617.535191,-0.012512,0.010437,-0.992249,0.205588,0.371298,-0.237863,59,270,579,5536
1644162617.583477,-0.013,0.008118,-0.990051,0.129252,0.600305,0.021679,54,275,572,5584
1644162617.631857,-0.008179,0.006287,-0.993958,0.113985,0.356031,-0.039389,43,266,564,5552
1644162617.680245,-0.009338,0.012268,-0.990723,0.236122,0.401832,-0.207328,45,275,572,5584
1644162617.728644,-0.009338,0.010498,-0.988892,0.312458,0.478168,-0.054656,45,273,577,5584
1644162617.777035,-0.007629,0.010315,-0.993347,0.281924,0.371298,-0.14626,49,275,570,5632
1644162617.825429,-0.011536,0.010925,-0.990845,0.297191,0.401832,0.143817,47,270,577,5536
1644162617.87387,-0.009949,0.009155,-0.994812,0.236122,0.432366,0.082748,52,275,577,5584
1644162617.922269,-0.00708,0.010071,-0.990662,0.190321,0.508702,-0.115725,52,270,572,5520
1644162617.970736,-0.007568,0.009949,-0.99469,0.236122,0.462901,-0.085191,47,277,570,5536
1644162618.019044,-0.013184,0.011719,-0.991455,0.312458,0.417099,-0.176794,53,269,573,5600
1644162618.071499,-0.006958,0.008972,-0.995117,0.022382,0.356031,-0.054656,48,269,578,5552
1644162618.119811,-0.012817,0.010986,-0.991638,0.419328,0.478168,-0.085191,54,268,582,5536
1644162618.169893,-0.011292,0.009766,-0.991638,0.08345,0.310229,-0.054656,47,270,572,5536
1644162618.260973,-0.012024,0.011108,-0.991943,0.190321,0.386565,-0.192061,58,276,569,5472
1644162618.309345,-0.010193,0.010071,-0.991516,0.236122,0.371298,-0.100458,48,283,576,5600
1644162618.357753,-0.010193,0.011963,-0.993225,0.159786,0.294962,-0.115725,51,276,569,5584
1644162618.406147,-0.010193,0.009644,-0.990723,0.220855,0.386565,-0.008855,65,274,578,5520
1644162618.454533,-0.009888,0.009583,-0.990906,0.281924,0.371298,-0.14626,49,282,572,5520
1644162618.502907,-0.011414,0.010376,-0.990784,0.098718,0.386565,-0.069924,46,279,566,5536
1644162618.551324,-0.010376,0.010254,-0.991516,0.297191,0.432366,-0.085191,48,276,564,5520
1644162618.5997,-0.009644,0.011658,-0.991028,0.159786,0.447634,-0.176794,59,273,570,5600
1644162618.648105,-0.012024,0.008362,-0.99054,0.373527,0.401832,0.036947,55,274,571,5584
1644162618.696465,-0.012573,0.00946,-0.994141,0.281924,0.294962,-0.283664,42,270,579,5536
1644162618.744889,-0.008972,0.011658,-0.990845,0.297191,0.401832,-0.100458,46,266,580,5552
1644162618.793289,-0.010803,0.009338,-0.99054,0.281924,0.401832,-0.085191,43,264,573,5584
1644162618.841662,-0.008484,0.007874,-0.993164,0.480397,0.386565,-0.222595,51,274,576,5536
1644162618.890054,-0.010925,0.012207,-0.992798,0.312458,0.340763,-0.161527,45,275,575,5632
1644162618.938438,-0.008545,0.009399,-0.994019,0.236122,0.340763,-0.085191,46,276,576,5536
1644162618.986834,-0.011963,0.011353,-0.990662,0.190321,0.493435,-0.130992,47,275,577,5600
1644162619.048327,-0.014465,0.01178,-0.994751,0.144519,0.508702,-0.192061,47,270,568,5632
1644162619.086652,-0.013245,0.007263,-0.992737,0.08345,0.340763,-0.039389,53,283,573,5536
1644162619.132167,-0.009644,0.010254,-0.991516,0.144519,0.325496,-0.14626,45,275,572,5536
1644162619.181216,-0.010376,0.008789,-0.989258,0.144519,0.508702,-0.14626,47,275,572,5600
1644162619.231779,-0.010071,0.011597,-0.990295,0.220855,0.417099,-0.14626,55,269,571,5584
1644162619.281965,-0.011108,0.01123,-0.992554,0.281924,0.462901,0.067481,52,268,575,5536
1644162619.326913,-0.010803,0.007935,-0.989563,0.175053,0.432366,-0.039389,45,273,570,5600
1644162619.422387,-0.012146,0.007812,-0.993225,0.205588,0.508702,-0.024122,55,286,573,5584
1644162619.470709,-0.007507,0.008423,-0.990417,0.159786,0.24916,-0.268397,46,276,566,5584
1644162619.519066,-0.011169,0.007751,-0.990723,0.297191,0.401832,0.021679,47,277,575,5536
1644162619.567441,-0.01001,0.008484,-0.991699,0.281924,0.432366,-0.100458,53,274,583,5584
1644162619.615855,-0.013428,0.006836,-0.993347,0.419328,0.325496,0.052214,48,281,576,5584
1644162619.66426,-0.009155,0.008545,-0.990417,0.312458,0.264427,-0.161527,49,270,572,5552
1644162619.712659,-0.010742,0.009277,-0.990417,0.175053,0.447634,-0.054656,49,275,570,5536
1644162619.76103,-0.012085,0.010071,-0.992065,0.129252,0.386565,-0.024122,54,270,577,5600
1644162619.809466,-0.009766,0.009338,-0.990723,-0.008153,0.447634,0.098015,48,279,576,5584
1644162619.857857,-0.009705,0.007935,-0.992432,0.220855,0.493435,-0.176794,60,271,578,5536
1644162619.906257,-0.014893,0.007996,-0.989258,0.251389,0.401832,-0.069924,51,269,573,5584
1644162619.954728,-0.010437,0.008667,-0.99231,0.236122,0.432366,-0.024122,55,279,573,5536
1644162620.003035,-0.011719,0.010681,-0.990601,0.281924,0.417099,-0.085191,45,280,582,5552
1644162620.057203,-0.009216,0.009644,-0.993042,0.266656,0.371298,-0.054656,54,263,582,5584
1644162620.099778,-0.012329,0.010437,-0.994385,0.281924,0.294962,-0.085191,49,285,572,5536
1644162620.148149,-0.01178,0.00769,-0.992737,0.297191,0.585038,-0.115725,43,276,573,5536
1644162620.196539,-0.010681,0.008545,-0.992249,0.312458,0.478168,-0.115725,52,275,568,5552
1644162620.245231,-0.01178,0.009033,-0.991089,0.297191,0.294962,0.098015,47,268,579,5584
1644162620.293571,-0.010803,0.009399,-0.992004,0.190321,0.310229,-0.085191,39,274,564,5648
1644162620.343982,-0.01123,0.008972,-0.993225,0.190321,0.371298,-0.115725,36,279,585,5536
1644162620.394223,-0.011536,0.011841,-0.992188,0.220855,0.462901,-0.069924,48,274,580,5584
1644162620.439285,-0.008667,0.010254,-0.99408,0.205588,0.310229,0.067481,45,282,577,5600
1644162620.53539,-0.012329,0.008545,-0.993347,0.113985,0.417099,0.021679,51,271,576,5584
1644162620.583675,-0.011047,0.009766,-0.993164,0.266656,0.447634,-0.039389,48,274,569,5552
1644162620.632051,-0.009949,0.007141,-0.99115,0.266656,0.356031,-0.130992,42,275,577,5584
1644162620.680449,-0.013428,0.010681,-0.993652,0.327725,0.356031,0.036947,52,273,572,5520
1644162620.728826,-0.012512,0.006531,-0.989685,0.281924,0.294962,-0.161527,55,281,573,5520
1644162620.777233,-0.010376,0.011047,-0.993713,0.205588,0.462901,-0.069924,61,273,575,5584
1644162620.825649,-0.011475,0.005981,-0.993042,0.327725,0.523969,0.052214,39,266,569,5584
1644162620.874065,-0.008484,0.008667,-0.994202,0.190321,0.401832,-0.085191,53,281,571,5584
1644162620.922448,-0.010315,0.009644,-0.990845,0.404061,0.432366,0.052214,53,281,578,5632
1644162620.970814,-0.009766,0.008179,-0.992615,0.190321,0.371298,-0.115725,59,282,577,5536
1644162621.019176,-0.008484,0.006836,-0.991943,0.129252,0.478168,-0.100458,51,269,569,5536
1644162621.074847,-0.01062,0.010254,-0.991272,0.098718,0.554504,-0.085191,55,279,576,5536
1644162621.11595,-0.010742,0.010193,-0.992737,0.281924,0.462901,-0.008855,48,283,569,5552
1644162621.164348,-0.009827,0.007385,-0.992554,0.236122,0.447634,-0.100458,51,283,585,5536
1644162621.212754,-0.008911,0.008057,-0.994446,0.297191,0.340763,-0.161527,46,274,585,5584
1644162621.261125,-0.01001,0.007507,-0.992432,0.159786,0.401832,-0.192061,51,279,587,5600
1644162621.309519,-0.010986,0.007019,-0.994141,0.220855,0.310229,-0.130992,41,271,573,5520
1644162621.358293,-0.009705,0.009766,-0.991821,0.251389,0.523969,-0.069924,59,270,582,5584
1644162621.408955,-0.009644,0.009521,-0.990784,0.175053,0.325496,-0.100458,57,268,572,5536
1644162621.458734,-0.011536,0.008423,-0.992676,0.205588,0.279695,-0.100458,59,275,577,5520
1644162621.503803,-0.009277,0.008972,-0.98999,0.342992,0.401832,-0.024122,55,281,580,5648
1644162621.599855,-0.011353,0.007324,-0.991577,0.098718,0.417099,-0.024122,42,275,582,5536
1644162621.64822,-0.008606,0.006775,-0.994507,0.281924,0.356031,0.052214,53,274,576,5536
1644162621.696904,-0.013,0.011169,-0.994629,0.281924,0.325496,-0.161527,41,269,583,5600
1644162621.745269,-0.012756,0.007935,-0.991943,0.220855,0.493435,-0.054656,49,277,575,5536
1644162621.793432,-0.007507,0.009583,-0.99408,0.266656,0.447634,-0.176794,52,277,577,5584
1644162621.841856,-0.010803,0.006165,-0.992981,0.144519,0.493435,0.006412,47,277,577,5536
1644162621.890244,-0.012268,0.01178,-0.992249,0.205588,0.462901,-0.176794,51,279,573,5552
1644162621.938627,-0.010681,0.010254,-0.994141,0.205588,0.462901,-0.192061,43,276,571,5536
1644162621.987011,-0.011658,0.009338,-0.992004,0.312458,0.325496,-0.115725,45,268,577,5536
1644162622.047065,-0.010132,0.009399,-0.991577,0.220855,0.401832,-0.085191,51,262,580,5536
1644162622.086119,-0.012634,0.008545,-0.99353,0.190321,0.325496,-0.192061,48,271,571,5536
1644162622.13223,-0.012512,0.009583,-0.993103,0.052916,0.401832,-0.25313,64,275,582,5488
1644162622.180537,-0.009766,0.010986,-0.989136,0.190321,0.417099,0.113282,53,271,580,5600
1644162622.228923,-0.009155,0.00769,-0.990295,0.113985,0.325496,0.006412,39,276,571,5584
1644162622.277613,-0.010376,0.007385,-0.991272,0.220855,0.24916,-0.008855,57,268,584,5584
1644162622.328907,-0.00885,0.012024,-0.993225,0.205588,0.478168,-0.14626,46,266,578,5584
1644162622.378983,-0.012512,0.007385,-0.996094,0.236122,0.310229,-0.085191,49,268,575,5584
1644162622.470898,-0.013916,0.00647,-0.993652,0.159786,0.478168,-0.130992,58,266,573,5536
1644162622.519258,-0.012512,0.008057,-0.994568,0.190321,0.401832,-0.161527,48,269,576,5584
1644162622.567651,-0.01123,0.007324,-0.992981,0.190321,0.554504,-0.008855,53,279,576,5552
1644162622.616045,-0.008423,0.00824,-0.992432,0.251389,0.417099,-0.100458,57,273,579,5552
1644162622.664447,-0.014526,0.008301,-0.990173,0.144519,0.447634,0.006412,55,271,573,5600
1644162622.712843,-0.010986,0.010132,-0.989319,0.342992,0.310229,-0.237863,52,275,568,5584
1644162622.761224,-0.009827,0.012146,-0.992981,0.35826,0.462901,-0.115725,51,279,573,5552
1644162622.80962,-0.011353,0.009644,-0.992188,0.297191,0.508702,-0.115725,49,273,582,5536
1644162622.858041,-0.009399,0.010193,-0.993225,0.281924,0.356031,-0.085191,47,285,586,5552
1644162622.906427,-0.009644,0.01062,-0.99231,0.297191,0.432366,-0.14626,52,277,572,5536
1644162622.954837,-0.010681,0.008301,-0.99231,0.190321,0.386565,0.021679,49,275,572,5584
1644162623.003227,-0.012878,0.008179,-0.994568,0.373527,0.462901,-0.161527,61,265,577,5584
1644162623.062286,-0.010864,0.012512,-0.994507,0.236122,0.325496,-0.069924,59,275,572,5536
1644162623.09998,-0.010315,0.007874,-0.99054,0.129252,0.523969,-0.207328,48,266,576,5584
1644162623.148355,-0.009827,0.008362,-0.990967,0.312458,0.493435,-0.085191,52,273,586,5584
1644162623.19674,-0.009277,0.010986,-0.995667,0.373527,0.508702,-0.039389,47,280,579,5552
1644162623.245149,-0.011597,0.010437,-0.993042,0.281924,0.24916,-0.100458,48,276,580,5584
1644162623.293524,-0.008484,0.007019,-0.992981,0.144519,0.386565,0.006412,53,269,576,5552
1644162623.341913,-0.010803,0.008179,-0.98877,0.281924,0.401832,0.036947,46,274,578,5552
1644162623.390397,-0.012085,0.010681,-0.993225,0.175053,0.325496,-0.085191,58,274,578,5536
1644162623.441263,-0.01123,0.010498,-0.991882,0.373527,0.371298,0.021679,48,276,583,5488
1644162623.491161,-0.011475,0.007263,-0.991577,0.281924,0.340763,0.12855,57,280,570,5552
1644162623.536357,-0.006653,0.008484,-0.992798,0.251389,0.462901,-0.14626,49,260,577,5600
1644162623.63238,-0.011475,0.008179,-0.993591,0.220855,0.417099,-0.115725,48,266,573,5536
1644162623.680606,-0.01239,0.009216,-0.993958,0.266656,0.462901,-0.192061,51,271,585,5584
1644162623.728995,-0.01239,0.008301,-0.990112,0.297191,0.371298,0.006412,54,275,565,5552
1644162623.777402,-0.010681,0.009949,-0.99292,0.342992,0.264427,-0.085191,47,268,572,5584
1644162623.825794,-0.009827,0.006042,-0.992371,0.190321,0.386565,-0.085191,59,275,582,5552
1644162623.874231,-0.011475,0.009216,-0.992676,0.327725,0.356031,-0.100458,40,282,570,5552
1644162623.92263,-0.008911,0.010559,-0.990479,0.144519,0.310229,-0.14626,42,270,572,5584
1644162623.971005,-0.009277,0.007874,-0.993652,0.159786,0.478168,-0.069924,42,273,577,5584
1644162624.019406,-0.011108,0.007507,-0.991028,0.205588,0.401832,-0.161527,48,276,576,5552
1644162624.072188,-0.011963,0.008606,-0.990784,0.220855,0.264427,-0.161527,53,281,583,5488
1644162624.116189,-0.010315,0.010254,-0.993591,0.236122,0.417099,-0.192061,49,275,577,5552
1644162624.164521,-0.013184,0.01001,-0.99176,0.205588,0.279695,-0.085191,40,280,577,5584
1644162624.212935,-0.010925,0.009033,-0.989197,0.113985,0.417099,0.098015,52,258,579,5584
1644162624.261304,-0.010559,0.010498,-0.990173,0.129252,0.462901,-0.115725,61,268,572,5600
1644162624.309697,-0.011047,0.00885,-0.993347,0.236122,0.371298,-0.069924,46,276,576,5600
1644162624.35838,-0.008728,0.009583,-0.991028,0.281924,0.371298,-0.100458,51,274,573,5472
1644162624.408907,-0.008423,0.00946,-0.990784,0.205588,0.340763,-0.024122,52,273,575,5552
1644162624.458941,-0.010437,0.009644,-0.989563,0.419328,0.310229,-0.176794,48,274,571,5536
1644162624.504143,-0.011475,0.010254,-0.992798,0.129252,0.371298,-0.008855,40,282,572,5536
1644162624.600048,-0.010864,0.00769,-0.992737,0.08345,0.417099,-0.25313,55,271,571,5536
1644162624.64841,-0.009766,0.009888,-0.991028,-0.008153,0.478168,-0.130992,57,280,575,5456
1644162624.696799,-0.009216,0.008118,-0.992981,0.35826,0.493435,-0.115725,46,281,566,5584
1644162624.745392,-0.011108,0.005737,-0.994446,0.220855,0.279695,-0.100458,55,266,573,5600
1644162624.793586,-0.009583,0.007507,-0.99408,0.144519,0.340763,-0.054656,53,286,559,5552
1644162624.841995,-0.009583,0.007263,-0.991516,0.144519,0.600305,0.052214,46,271,578,5536
1644162624.890427,-0.007141,0.013367,-0.993469,0.281924,0.371298,-0.008855,47,268,579,5536
1644162624.938807,-0.010925,0.009766,-0.989624,0.220855,0.340763,-0.085191,45,273,575,5488
1644162624.987201,-0.009888,0.010498,-0.991821,0.159786,0.417099,-0.039389,59,273,579,5552
1644162625.051155,-0.010132,0.010498,-0.990662,0.236122,0.432366,-0.222595,48,276,580,5552
1644162625.086202,-0.012817,0.007996,-0.991455,0.175053,0.356031,-0.100458,43,266,578,5584
1644162625.132372,-0.009399,0.00946,-0.993164,0.113985,0.432366,-0.130992,53,274,587,5536
1644162625.180753,-0.009277,0.011536,-0.991699,0.327725,0.386565,-0.069924,53,269,569,5600
1644162625.229187,-0.013367,0.009033,-0.993225,0.312458,0.447634,-0.115725,52,277,582,5536
1644162625.277564,-0.010315,0.007996,-0.99231,0.327725,0.401832,-0.100458,40,265,579,5552
1644162625.327042,-0.007874,0.010193,-0.991516,0.08345,0.432366,-0.054656,51,279,578,5600
1644162625.377045,-0.011841,0.010559,-0.991394,0.068183,0.585038,-0.14626,46,269,583,5600
1644162625.427575,-0.01062,0.008301,-0.989014,0.113985,0.417099,-0.130992,45,280,575,5600
1644162625.472416,-0.009094,0.008362,-0.990601,0.236122,0.539237,-0.039389,47,273,572,5536
1644162625.567876,-0.013123,0.005615,-0.994141,0.068183,0.417099,-0.008855,47,275,572,5536
1644162625.61626,-0.008728,0.011292,-0.994202,0.35826,0.325496,-0.161527,47,270,575,5584
1644162625.664659,-0.011719,0.011597,-0.992554,0.08345,0.493435,-0.085191,46,283,583,5584
1644162625.713078,-0.007263,0.007202,-0.992188,0.251389,0.447634,-0.039389,51,274,580,5536
1644162625.76145,-0.011108,0.012878,-0.993713,0.052916,0.386565,-0.176794,41,281,578,5584
1644162625.809836,-0.012268,0.009888,-0.99292,0.175053,0.401832,-0.222595,46,279,571,5536
1644162625.858214,-0.010681,0.009338,-0.992798,0.159786,0.401832,-0.14626,52,275,575,5584
1644162625.906611,-0.01001,0.008057,-0.99054,0.220855,0.493435,-0.024122,45,268,577,5536
1644162625.955136,-0.00885,0.009949,-0.992432,0.068183,0.493435,-0.069924,58,274,578,5584
1644162626.00339,-0.011536,0.007507,-0.99115,0.312458,0.325496,0.036947,45,270,575,5536
1644162626.061832,-0.010986,0.00946,-0.991577,0.236122,0.310229,-0.161527,54,273,586,5600
1644162626.100152,-0.012512,0.009644,-0.993347,0.312458,0.432366,-0.039389,46,281,578,5552
1644162626.148531,-0.014099,0.007202,-0.993286,0.236122,0.401832,-0.069924,51,264,580,5520
1644162626.196896,-0.011597,0.009094,-0.992798,0.220855,0.432366,-0.085191,47,268,575,5552
1644162626.245302,-0.009399,0.01062,-0.992554,0.312458,0.493435,-0.100458,48,266,571,5536
1644162626.293691,-0.007568,0.006775,-0.992798,0.327725,0.294962,-0.008855,49,275,582,5520
1644162626.342078,-0.010132,0.007935,-0.992249,0.236122,0.127023,-0.161527,49,282,572,5584
1644162626.390482,-0.014526,0.005371,-0.994934,0.312458,0.554504,0.021679,52,277,570,5536
1644162626.439912,-0.010742,0.009338,-0.993103,0.190321,0.417099,-0.054656,39,274,585,5584
1644162626.490182,-0.010376,0.008362,-0.993896,0.175053,0.447634,-0.192061,35,270,575,5552
1644162626.540226,-0.011414,0.01062,-0.991577,0.236122,0.401832,-0.069924,54,290,577,5552
1644162626.585358,-0.008362,0.006409,-0.995178,0.220855,0.462901,-0.283664,55,274,569,5584
1644162626.680807,-0.010376,0.008667,-0.99054,0.236122,0.462901,-0.008855,60,266,573,5536
1644162626.729203,-0.012085,0.008362,-0.992493,0.205588,0.447634,-0.14626,45,268,568,5584
1644162626.77759,-0.013123,0.01178,-0.989685,0.175053,0.371298,-0.115725,51,274,576,5536
1644162626.826028,-0.010254,0.011108,-0.991272,0.236122,0.447634,-0.14626,42,270,570,5552
1644162626.874417,-0.006714,0.013672,-0.993347,0.236122,0.325496,-0.008855,55,279,571,5584
1644162626.922821,-0.011536,0.010193,-0.995911,0.236122,0.325496,-0.100458,53,266,566,5600
1644162626.971194,-0.008301,0.009644,-0.991333,0.342992,0.310229,-0.069924,48,276,585,5584
1644162627.019651,-0.008179,0.009644,-0.995728,0.159786,0.386565,-0.039389,52,270,577,5536
1644162627.075348,-0.012268,0.011047,-0.991882,0.022382,0.539237,-0.161527,60,276,576,5584
1644162627.1163,-0.010132,0.010254,-0.991943,0.251389,0.462901,-0.192061,49,275,572,5536
1644162627.164719,-0.010071,0.008301,-0.994507,0.251389,0.462901,-0.085191,45,265,577,5520
1644162627.213082,-0.01178,0.010132,-0.992371,-0.069221,0.447634,-0.130992,57,275,575,5584
1644162627.261503,-0.01001,0.00946,-0.98822,0.388794,0.310229,0.067481,58,279,573,5536
1644162627.309853,-0.009338,0.010132,-0.988831,0.159786,0.661374,-0.100458,51,271,587,5648
1644162627.358267,-0.008789,0.010071,-0.99054,0.312458,0.539237,-0.207328,57,273,570,5584
1644162627.408952,-0.011353,0.01239,-0.990479,0.205588,0.478168,-0.207328,39,281,571,5584
1644162627.457312,-0.011597,0.010315,-0.993774,0.175053,0.508702,-0.176794,51,271,566,5600
1644162627.508105,-0.009277,0.007751,-0.990906,0.037649,0.340763,-0.008855,45,275,577,5536
1644162627.552624,-0.01123,0.005188,-0.992493,0.052916,0.417099,-0.008855,54,280,563,5536
1644162627.648607,-0.012451,0.006226,-0.992126,0.159786,0.279695,-0.100458,43,281,576,5584
1644162627.696989,-0.010315,0.00885,-0.993652,0.220855,0.493435,-0.069924,48,279,571,5584
1644162627.745414,-0.01062,0.010681,-0.993103,0.175053,0.447634,-0.069924,47,263,584,5584
1644162627.793808,-0.009277,0.008911,-0.99292,0.266656,0.386565,-0.024122,55,281,573,5552
1644162627.842223,-0.012146,0.009338,-0.992249,0.236122,0.432366,-0.237863,48,274,569,5600
1644162627.890609,-0.010254,0.009644,-0.992249,0.113985,0.356031,-0.14626,51,266,578,5552
1644162627.938982,-0.013672,0.00885,-0.99054,0.205588,0.401832,-0.069924,42,273,572,5600
1644162627.987399,-0.009949,0.010864,-0.992371,0.281924,0.63084,-0.039389,52,268,579,5600
1644162628.049406,-0.00946,0.008911,-0.992798,0.159786,0.508702,-0.192061,51,276,571,5536
1644162628.085316,-0.010559,0.009644,-0.992432,0.098718,0.310229,-0.039389,43,279,571,5488
1644162628.132535,-0.00769,0.009644,-0.990784,0.327725,0.401832,-0.008855,58,279,578,5584
1644162628.180909,-0.010986,0.009399,-0.993713,0.312458,0.432366,-0.039389,64,270,568,5552
1644162628.229308,-0.008789,0.008484,-0.992126,0.266656,0.554504,-0.161527,52,275,568,5632
1644162628.277683,-0.012451,0.00824,-0.99054,0.220855,0.356031,-0.14626,61,273,582,5536
1644162628.326082,-0.010559,0.009888,-0.990295,0.236122,0.401832,-0.115725,53,266,580,5552
1644162628.374494,-0.009644,0.009949,-0.99292,0.342992,0.493435,-0.069924,41,266,569,5488
1644162628.424187,-0.010193,0.008667,-0.992737,0.266656,0.417099,-0.130992,64,273,570,5552
1644162628.474997,-0.011841,0.012878,-0.991821,0.312458,0.386565,-0.039389,49,270,579,5536
1644162628.524689,-0.010498,0.007751,-0.989624,0.129252,0.447634,-0.161527,47,275,575,5536
1644162628.6164,-0.009644,0.009766,-0.99231,0.281924,0.462901,-0.100458,53,283,571,5536
1644162628.664859,-0.008789,0.005859,-0.991272,0.297191,0.462901,-0.176794,47,270,577,5600
1644162628.713197,-0.011963,0.008667,-0.99115,0.236122,0.447634,-0.024122,51,269,578,5584
1644162628.761562,-0.010498,0.012146,-0.992859,0.342992,0.356031,-0.161527,46,269,571,5584
1644162628.809974,-0.01178,0.008118,-0.98938,0.251389,0.493435,-0.054656,47,273,572,5584
1644162628.858405,-0.010742,0.006714,-0.99176,0.205588,0.325496,0.021679,46,288,576,5520
1644162628.906802,-0.010681,0.011414,-0.991455,0.175053,0.417099,-0.100458,55,271,569,5552
1644162628.955296,-0.012573,0.009705,-0.989624,0.175053,0.386565,0.021679,53,276,569,5536
1644162629.003562,-0.011414,0.007935,-0.991821,0.144519,0.279695,-0.039389,46,271,573,5552
1644162629.054185,-0.012573,0.009583,-0.992249,0.220855,0.462901,0.036947,54,280,577,5584
1644162629.100392,-0.009338,0.008728,-0.989014,0.281924,0.24916,-0.161527,53,279,580,5536
1644162629.148705,-0.009338,0.007629,-0.994202,0.266656,0.401832,-0.207328,46,269,583,5584
1644162629.19707,-0.010742,0.009277,-0.99353,0.251389,0.539237,-0.024122,51,271,580,5584
1644162629.245456,-0.007568,0.009827,-0.990723,0.312458,0.356031,-0.054656,41,281,576,5552
1644162629.293879,-0.009338,0.008911,-0.992004,0.281924,0.493435,-0.039389,57,285,577,5536
1644162629.342291,-0.010132,0.009155,-0.993164,0.434595,0.401832,0.006412,48,274,590,5584
1644162629.390657,-0.009888,0.009827,-0.991394,0.297191,0.356031,-0.115725,55,276,571,5536
1644162629.439048,-0.010498,0.009094,-0.991211,0.312458,0.508702,-0.008855,55,269,573,5552
1644162629.487429,-0.011292,0.009705,-0.990295,0.175053,0.356031,0.006412,48,274,576,5584
1644162629.535951,-0.009216,0.009033,-0.991272,0.129252,0.401832,0.159084,46,274,580,5584
1644162629.586608,-0.00885,0.008667,-0.991028,0.159786,0.432366,-0.069924,55,279,573,5536
1644162629.636796,-0.010376,0.010681,-0.991333,0.266656,0.401832,-0.115725,47,277,577,5584
1644162629.681623,-0.012634,0.006836,-0.990356,0.312458,0.401832,-0.207328,51,271,587,5520
1644162629.777755,-0.011536,0.01001,-0.990173,0.281924,0.401832,0.098015,55,276,571,5536
1644162629.82615,-0.011353,0.009033,-0.991577,0.251389,0.264427,-0.024122,52,273,565,5584
1644162629.874648,-0.011169,0.005554,-0.99292,0.220855,0.401832,-0.192061,53,276,573,5600
1644162629.92301,-0.012451,0.008484,-0.991882,0.205588,0.432366,-0.14626,46,274,566,5600
1644162629.97138,-0.00885,0.009583,-0.993591,0.052916,0.447634,-0.161527,39,274,571,5552
1644162630.019768,-0.00946,0.007812,-0.992126,0.205588,0.462901,-0.008855,45,280,572,5536
1644162630.068955,-0.010986,0.007629,-0.988281,0.281924,0.356031,-0.130992,43,274,578,5584
1644162630.116559,-0.00885,0.007812,-0.992615,0.251389,0.432366,-0.130992,45,275,558,5584
1644162630.164911,-0.010925,0.00769,-0.992371,0.312458,0.432366,0.113282,49,273,570,5552
1644162630.21329,-0.012024,0.009033,-0.990784,0.175053,0.340763,0.006412,46,269,576,5472
1644162630.261646,-0.011902,0.009949,-0.993652,0.220855,0.447634,-0.085191,54,275,582,5584
1644162630.310065,-0.009399,0.00708,-0.992798,0.098718,0.325496,-0.115725,47,270,577,5520
1644162630.358464,-0.008789,0.007751,-0.991516,0.251389,0.569771,-0.161527,48,264,576,5584
1644162630.406855,-0.009216,0.008972,-0.991699,0.068183,0.462901,-0.222595,45,282,575,5600
1644162630.455242,-0.01355,0.010498,-0.991272,0.281924,0.447634,-0.130992,47,275,589,5584
1644162630.503609,-0.010254,0.007935,-0.990234,0.251389,0.356031,-0.024122,49,273,577,5552
1644162630.55202,-0.007446,0.009277,-0.992493,0.175053,0.554504,-0.14626,53,279,573,5584
1644162630.600413,-0.009766,0.009094,-0.991699,0.327725,0.447634,-0.100458,59,270,577,5488
1644162630.648797,-0.010315,0.008911,-0.99353,0.144519,0.386565,-0.085191,57,273,575,5536
1644162630.69775,-0.01239,0.00769,-0.99176,0.35826,0.417099,-0.054656,46,274,571,5552
1644162630.748037,-0.012085,0.008179,-0.993835,0.266656,0.432366,-0.100458,57,270,575,5536
1644162630.79806,-0.010681,0.008118,-0.995789,0.342992,0.432366,-0.024122,53,276,564,5552
1644162630.843205,-0.009766,0.008972,-0.993896,0.312458,0.478168,-0.069924,53,279,578,5536
1644162630.939179,-0.007751,0.006653,-0.990417,0.175053,0.279695,-0.054656,40,275,582,5584
1644162630.987614,-0.014709,0.007996,-0.989624,0.342992,0.386565,0.036947,39,264,580,5536
1644162631.049414,-0.011047,0.009399,-0.994324,0.159786,0.600305,-0.14626,49,273,579,5584
1644162631.084774,-0.00885,0.009827,-0.989746,0.373527,0.493435,-0.085191,54,273,575,5552
1644162631.132762,-0.010071,0.009766,-0.994446,0.266656,0.462901,-0.130992,51,274,571,5584
1644162631.18108,-0.014648,0.010437,-0.99585,0.220855,0.310229,-0.054656,39,274,573,5584
1644162631.229472,-0.010925,0.008057,-0.992126,0.251389,0.585038,-0.069924,42,277,579,5536
1644162631.277863,-0.013794,0.008301,-0.990417,0.175053,0.294962,-0.039389,48,279,578,5584
1644162631.326251,-0.010071,0.009644,-0.992615,0.129252,0.569771,0.006412,49,270,570,5536
1644162631.37466,-0.012451,0.007751,-0.993469,0.205588,0.462901,-0.25313,45,273,568,5584
1644162631.423054,-0.011719,0.009338,-0.992859,0.266656,0.539237,0.006412,47,268,579,5520
1644162631.471426,-0.012085,0.009399,-0.992798,0.175053,0.447634,-0.069924,49,273,582,5584
1644162631.51982,-0.011719,0.007812,-0.995483,0.08345,0.417099,-0.14626,51,279,578,5600
1644162631.56821,-0.010193,0.009399,-0.990662,0.327725,0.401832,-0.039389,53,274,580,5536
1644162631.616882,-0.008972,0.009583,-0.991272,0.113985,0.493435,-0.024122,49,273,572,5552
1644162631.667518,-0.010498,0.009338,-0.989624,0.159786,0.340763,0.021679,54,273,572,5536
1644162631.717927,-0.011108,0.00885,-0.992798,0.297191,0.462901,-0.237863,49,273,572,5536
1644162631.762707,-0.010742,0.010071,-0.993286,0.297191,0.508702,-0.039389,45,277,568,5536
1644162631.858541,-0.012268,0.009094,-0.993225,0.449863,0.386565,0.006412,52,268,568,5584
1644162631.906987,-0.010193,0.009033,-0.992371,0.236122,0.371298,-0.14626,41,269,571,5536
1644162631.955376,-0.009521,0.008606,-0.99408,0.220855,0.432366,0.021679,57,275,572,5536
1644162632.003753,-0.009766,0.009399,-0.991028,0.251389,0.371298,-0.176794,48,271,571,5488
1644162632.05508,-0.01123,0.009216,-0.990967,0.281924,0.325496,-0.268397,45,270,575,5648
1644162632.100496,-0.01062,0.010864,-0.992554,0.327725,0.356031,-0.115725,46,283,587,5600
1644162632.148848,-0.009521,0.008606,-0.993469,0.251389,0.401832,-0.085191,43,286,573,5536
1644162632.197273,-0.010437,0.013306,-0.993896,0.46513,0.371298,-0.054656,49,275,572,5584
1644162632.245646,-0.011658,0.009705,-0.995911,0.266656,0.340763,-0.069924,53,271,576,5536
1644162632.294069,-0.011047,0.007141,-0.988953,0.113985,0.462901,-0.130992,53,274,580,5600
1644162632.342457,-0.012939,0.010315,-0.992798,0.190321,0.218626,-0.085191,57,280,575,5584
1644162632.39084,-0.010193,0.008911,-0.99231,0.007115,0.325496,0.021679,51,276,578,5536
1644162632.439239,-0.013794,0.011719,-0.991333,0.251389,0.417099,-0.069924,42,270,570,5600
1644162632.487633,-0.011292,0.008118,-0.994141,0.281924,0.447634,-0.039389,53,281,571,5552
1644162632.536015,-0.009766,0.01062,-0.991699,0.220855,0.508702,-0.130992,53,276,578,5584
1644162632.584413,-0.01123,0.011414,-0.993225,0.312458,0.371298,-0.024122,46,274,576,5584
1644162632.632803,-0.015991,0.008972,-0.993042,0.08345,0.523969,-0.024122,53,274,571,5536
1644162632.681168,-0.012634,0.013123,-0.993286,0.251389,0.508702,-0.085191,62,281,583,5600
1644162632.72955,-0.012085,0.009216,-0.991699,0.175053,0.432366,-0.176794,55,266,576,5600
1644162632.778889,-0.013428,0.008179,-0.99176,0.205588,0.432366,-0.115725,43,271,569,5552
1644162632.829115,-0.012207,0.011658,-0.99231,0.220855,0.478168,-0.024122,51,286,585,5536
1644162632.879541,-0.009827,0.010986,-0.994629,0.022382,0.356031,-0.176794,51,276,576,5488
1644162632.92399,-0.013184,0.01178,-0.992126,0.037649,0.447634,0.036947,52,275,572,5488
1644162633.019958,-0.010376,0.009705,-0.99408,0.175053,0.325496,-0.008855,49,270,568,5600
1644162633.072021,-0.012573,0.009827,-0.991455,0.08345,0.523969,-0.054656,55,259,578,5552
1644162633.116685,-0.009583,0.010437,-0.989685,0.327725,0.493435,-0.054656,42,280,568,5536
1644162633.165126,-0.013367,0.010132,-0.993164,0.236122,0.478168,-0.069924,46,281,580,5488
1644162633.213475,-0.011047,0.010376,-0.990295,0.129252,0.325496,-0.024122,55,269,573,5584
1644162633.261876,-0.010071,0.00769,-0.992981,0.007115,0.417099,-0.085191,47,275,575,5536
1644162633.310266,-0.011108,0.00647,-0.991699,0.251389,0.417099,-0.115725,49,275,575,5584
1644162633.358651,-0.010742,0.007935,-0.99292,0.236122,0.310229,0.036947,36,271,571,5552
1644162633.407032,-0.010437,0.010071,-0.990173,0.281924,0.340763,-0.054656,61,270,577,5600
1644162633.455434,-0.011658,0.012024,-0.993103,0.327725,0.386565,-0.192061,41,262,578,5536
1644162633.503838,-0.010742,0.010803,-0.99231,0.251389,0.447634,-0.207328,53,266,571,5552
1644162633.552245,-0.011597,0.010864,-0.992554,0.35826,0.493435,-0.054656,52,277,570,5536
1644162633.600587,-0.012329,0.006897,-0.992981,0.129252,0.371298,-0.344733,46,279,580,5488
1644162633.648982,-0.006775,0.009216,-0.990417,0.220855,0.356031,-0.237863,45,280,579,5488
1644162633.697372,-0.010376,0.010071,-0.989441,0.281924,0.356031,-0.176794,55,276,576,5600
1644162633.745776,-0.012085,0.008423,-0.99292,0.190321,0.340763,-0.192061,51,271,576,5552
1644162633.794208,-0.00885,0.007507,-0.989624,0.236122,0.371298,-0.115725,53,276,580,5536
1644162633.842588,-0.011169,0.009949,-0.992859,0.159786,0.508702,-0.14626,51,271,576,5488
1644162633.892304,-0.010864,0.010742,-0.994141,0.236122,0.401832,-0.207328,45,265,572,5488
1644162633.942197,-0.00946,0.011169,-0.991943,0.190321,0.401832,-0.14626,52,263,575,5600
1644162634.048859,-0.009338,0.009216,-0.994385,0.220855,0.417099,-0.283664,55,271,583,5536
1644162634.086781,-0.011536,0.009827,-0.990967,0.251389,0.478168,-0.039389,42,277,584,5584
1644162634.132912,-0.010986,0.012024,-0.990234,0.190321,0.508702,-0.100458,47,275,570,5536
1644162634.181273,-0.009216,0.008179,-0.991272,0.236122,0.310229,-0.207328,55,281,580,5584
1644162634.229638,-0.009033,0.007751,-0.992737,0.220855,0.386565,-0.085191,46,274,583,5536
1644162634.278066,-0.006897,0.008606,-0.991455,0.236122,0.401832,-0.14626,48,288,564,5536
1644162634.326454,-0.01001,0.012817,-0.991943,0.190321,0.462901,-0.237863,57,277,586,5584
1644162634.375588,-0.009399,0.011353,-0.990601,0.297191,0.462901,-0.069924,43,269,576,5536
1644162634.426039,-0.008118,0.012146,-0.992554,0.251389,0.508702,-0.14626,46,264,580,5552
1644162634.476208,-0.015991,0.01123,-0.992371,0.205588,0.371298,-0.192061,52,268,586,5632
1644162634.521135,-0.010742,0.008667,-0.992676,0.098718,0.539237,-0.008855,51,271,578,5600
1644162634.616766,-0.011536,0.01239,-0.993408,0.251389,0.432366,-0.039389,55,274,569,5584
1644162634.665232,-0.009583,0.008667,-0.992126,0.312458,0.585038,-0.130992,45,270,565,5584
1644162634.713569,-0.011414,0.006348,-0.994812,0.205588,0.447634,-0.115725,46,271,576,5536
1644162634.761942,-0.010315,0.010376,-0.990601,0.08345,0.447634,-0.161527,54,275,577,5600
1644162634.810365,-0.010498,0.007812,-0.992859,0.205588,0.447634,-0.054656,55,279,573,5536
1644162634.858767,-0.011414,0.009155,-0.991272,0.297191,0.478168,-0.115725,49,277,565,5600
1644162634.907148,-0.010925,0.010986,-0.989441,0.220855,0.539237,-0.130992,48,269,566,5584
1644162634.955615,-0.008606,0.010071,-0.99176,0.205588,0.371298,-0.192061,48,276,576,5536
1644162635.003956,-0.009705,0.012817,-0.991699,0.281924,0.493435,-0.192061,51,276,583,5536
1644162635.056905,-0.010803,0.009033,-0.990356,0.113985,0.401832,-0.130992,51,276,580,5552
1644162635.100733,-0.011108,0.008301,-0.993652,0.190321,0.585038,0.006412,54,277,570,5584
1644162635.149073,-0.01239,0.007141,-0.991028,0.220855,0.401832,-0.130992,52,277,565,5536
1644162635.197464,-0.009583,0.009399,-0.994263,0.266656,0.417099,0.036947,49,277,575,5584
1644162635.245853,-0.012512,0.012146,-0.995728,0.281924,0.340763,-0.069924,58,286,576,5536
1644162635.29423,-0.011108,0.007385,-0.993103,0.113985,0.447634,-0.069924,48,276,571,5536
1644162635.342664,-0.010925,0.009949,-0.992493,0.190321,0.523969,0.021679,59,270,577,5584
1644162635.391026,-0.009888,0.007996,-0.993103,0.266656,0.371298,-0.237863,55,279,587,5552
1644162635.439429,-0.009583,0.011292,-0.994934,0.342992,0.493435,-0.130992,60,269,576,5472
1644162635.487798,-0.012024,0.011353,-0.992615,0.098718,0.432366,-0.14626,48,283,566,5600
1644162635.536222,-0.01123,0.008972,-0.992554,0.297191,0.462901,-0.161527,51,269,576,5488
1644162635.58641,-0.011414,0.008057,-0.993225,0.113985,0.432366,-0.161527,57,268,568,5584
1644162635.636706,-0.012207,0.004333,-0.99176,0.419328,0.310229,-0.008855,45,285,570,5584
1644162635.681859,-0.011597,0.009705,-0.99176,0.205588,0.493435,-0.115725,53,276,580,5584
1644162635.77816,-0.012573,0.007996,-0.992126,0.297191,0.493435,-0.054656,45,285,575,5584
1644162635.826522,-0.011292,0.007935,-0.99292,0.236122,0.325496,-0.024122,48,269,573,5584
1644162635.875016,-0.01062,0.007751,-0.994019,0.175053,0.447634,-0.039389,42,275,577,5536
1644162635.923344,-0.010864,0.010864,-0.99176,0.220855,0.478168,-0.161527,47,275,572,5552
1644162635.971755,-0.012634,0.010803,-0.991638,0.419328,0.294962,-0.039389,60,279,576,5536
1644162636.020143,-0.013245,0.00708,-0.993713,0.297191,0.462901,-0.222595,58,269,578,5536
1644162636.070326,-0.013367,0.009033,-0.99115,0.190321,0.417099,-0.14626,52,270,577,5584
1644162636.116906,-0.011719,0.009521,-0.991516,0.144519,0.523969,-0.100458,49,282,572,5536
1644162636.165302,-0.009277,0.008057,-0.992676,0.08345,0.356031,-0.039389,53,279,566,5520
1644162636.213671,-0.009521,0.007935,-0.992126,0.266656,0.340763,-0.039389,42,270,572,5600
1644162636.262034,-0.009827,0.012329,-0.993042,0.205588,0.356031,-0.085191,49,282,568,5552
1644162636.310415,-0.012207,0.007568,-0.991638,0.220855,0.310229,-0.222595,45,273,563,5536
1644162636.358825,-0.011597,0.007446,-0.990967,0.144519,0.447634,-0.024122,41,276,571,5584
1644162636.407227,-0.01123,0.008972,-0.993652,0.327725,0.386565,0.006412,55,276,578,5648
1644162636.455613,-0.010132,0.009888,-0.992249,0.281924,0.447634,-0.207328,51,296,585,5584
1644162636.503979,-0.009155,0.009277,-0.992126,0.220855,0.294962,0.006412,42,270,579,5584
1644162636.552371,-0.010132,0.007629,-0.993713,0.327725,0.294962,-0.054656,54,280,579,5536
1644162636.600783,-0.009094,0.007996,-0.993652,0.342992,0.356031,-0.085191,48,281,569,5632
1644162636.650008,-0.011353,0.009583,-0.991821,0.205588,0.371298,-0.130992,52,275,575,5552
1644162636.700401,-0.009155,0.008789,-0.993652,0.220855,0.523969,0.006412,49,270,563,5536
1644162636.750598,-0.009583,0.006226,-0.992004,0.327725,0.478168,-0.039389,49,275,572,5600
1644162636.795657,-0.013062,0.010132,-0.992249,0.297191,0.432366,-0.085191,54,273,577,5536
1644162636.891171,-0.011719,0.006531,-0.990967,0.175053,0.478168,-0.085191,39,264,576,5584
1644162636.939549,-0.012817,0.008484,-0.990051,0.175053,0.523969,-0.039389,42,265,570,5536
1644162636.987949,-0.013977,0.010986,-0.993286,0.388794,0.401832,-0.130992,60,271,576,5536
1644162637.051631,-0.011414,0.009949,-0.995667,0.342992,0.310229,-0.192061,64,280,584,5584
1644162637.087487,-0.010437,0.008667,-0.992432,0.266656,0.356031,-0.115725,57,287,570,5584
1644162637.13312,-0.01123,0.009888,-0.992981,0.220855,0.340763,0.006412,42,275,579,5520
1644162637.181464,-0.007874,0.00769,-0.994202,0.251389,0.294962,-0.054656,46,274,569,5584
1644162637.229855,-0.009644,0.008423,-0.992004,0.113985,0.356031,-0.085191,57,263,584,5520
1644162637.278219,-0.011475,0.007446,-0.99353,0.220855,0.432366,0.006412,45,275,575,5536
1644162637.326609,-0.010376,0.009583,-0.993774,0.190321,0.417099,-0.085191,45,270,572,5584
1644162637.375055,-0.012329,0.008911,-0.995911,0.190321,0.585038,-0.207328,47,270,570,5584
1644162637.423656,-0.011841,0.010925,-0.993042,0.404061,0.218626,-0.008855,54,270,586,5584
1644162637.473909,-0.010681,0.007935,-0.995056,0.113985,0.371298,-0.054656,58,269,580,5584
1644162637.524191,-0.01062,0.007324,-0.993958,0.159786,0.523969,-0.222595,46,274,571,5584
1644162637.569294,-0.010498,0.007568,-0.990601,0.251389,0.371298,0.006412,52,270,575,5600
1644162637.6654,-0.011963,0.008911,-0.995605,0.251389,0.340763,-0.176794,54,275,565,5552
1644162637.71374,-0.012451,0.010193,-0.991882,0.022382,0.188092,-0.069924,55,266,576,5552
1644162637.762382,-0.012085,0.009583,-0.991272,0.190321,0.478168,-0.054656,52,273,572,5552
1644162637.810534,-0.011658,0.009705,-0.992554,0.266656,0.356031,-0.161527,45,275,572,5552
1644162637.858926,-0.014038,0.008667,-0.993164,0.266656,0.340763,-0.115725,49,265,586,5584
1644162637.907365,-0.011353,0.006531,-0.992432,0.205588,0.417099,-0.100458,51,281,573,5552
1644162637.955739,-0.009705,0.01123,-0.993896,0.205588,0.417099,-0.008855,53,279,573,5584
1644162638.004115,-0.012634,0.00885,-0.990173,0.449863,0.401832,-0.085191,49,273,565,5520
1644162638.054747,-0.009521,0.01001,-0.993225,0.113985,0.279695,-0.039389,45,277,577,5552
1644162638.100909,-0.012512,0.01123,-0.993896,0.205588,0.310229,-0.054656,57,280,575,5600
1644162638.149259,-0.013367,0.010437,-0.992981,0.113985,0.462901,-0.008855,48,274,573,5488
1644162638.197664,-0.010681,0.009277,-0.990967,0.342992,0.447634,-0.14626,52,275,579,5600
1644162638.24602,-0.011353,0.007385,-0.995728,0.342992,0.340763,-0.069924,47,263,577,5536
1644162638.294449,-0.009216,0.012573,-0.990601,0.373527,0.539237,-0.222595,47,273,579,5584
1644162638.342844,-0.010132,0.008911,-0.992859,0.236122,0.340763,-0.024122,46,276,573,5488
1644162638.391219,-0.012329,0.006042,-0.993042,0.220855,0.508702,-0.024122,47,260,568,5600
1644162638.43958,-0.011719,0.009155,-0.9953,0.266656,0.447634,-0.054656,51,286,580,5552
1644162638.487984,-0.011902,0.009644,-0.993225,0.129252,0.508702,0.082748,51,279,583,5552
1644162638.536381,-0.012146,0.009033,-0.993652,0.129252,0.493435,0.052214,55,279,571,5584
1644162638.585352,-0.009094,0.012268,-0.991089,0.266656,0.478168,-0.115725,55,271,564,5600
1644162638.636103,-0.015747,0.006897,-0.992371,0.266656,0.371298,-0.069924,39,271,564,5552
1644162638.686191,-0.011169,0.011475,-0.99054,0.236122,0.371298,-0.085191,54,273,577,5536
1644162638.731128,-0.009155,0.008911,-0.991272,0.434595,0.462901,-0.130992,52,280,582,5520
1644162638.826767,-0.009216,0.009583,-0.991394,0.297191,0.294962,-0.100458,43,271,566,5552
1644162638.875375,-0.011414,0.007996,-0.991882,0.175053,0.386565,-0.130992,52,277,570,5520
1644162638.923604,-0.013428,0.008911,-0.991699,0.220855,0.432366,0.052214,42,273,577,5536
1644162638.971923,-0.010864,0.010132,-0.991882,0.342992,0.340763,0.006412,43,269,571,5600
1644162639.020322,-0.010071,0.008118,-0.990112,0.342992,0.615573,-0.054656,48,276,573,5536
1644162639.068751,-0.010925,0.011047,-0.993408,0.220855,0.325496,-0.069924,57,268,586,5584
1644162639.117069,-0.011292,0.009033,-0.993713,0.190321,0.432366,0.12855,39,271,569,5552
1644162639.165454,-0.011353,0.010315,-0.992249,0.205588,0.401832,-0.024122,52,273,579,5488
1644162639.213859,-0.008423,0.008484,-0.995728,0.266656,0.310229,-0.25313,41,271,566,5584
1644162639.26226,-0.011108,0.006104,-0.99054,0.327725,0.493435,-0.176794,51,276,576,5536
1644162639.310639,-0.009216,0.00885,-0.990662,0.297191,0.539237,-0.192061,46,276,571,5536
1644162639.358997,-0.010925,0.009094,-0.994141,0.144519,0.264427,-0.100458,65,276,573,5584
1644162639.407418,-0.010376,0.007385,-0.99176,0.205588,0.356031,-0.115725,45,282,577,5536
1644162639.45577,-0.009949,0.007141,-0.99469,0.190321,0.432366,0.006412,54,273,575,5600
1644162639.504169,-0.008606,0.009888,-0.99292,0.251389,0.325496,-0.115725,45,270,579,5552
1644162639.552592,-0.013977,0.009216,-0.992188,0.068183,0.462901,-0.192061,52,273,577,5552
1644162639.60097,-0.008545,0.007202,-0.992981,0.205588,0.386565,-0.161527,46,276,580,5536
1644162639.649357,-0.011841,0.01178,-0.993042,0.281924,0.478168,-0.222595,55,286,576,5536
1644162639.697737,-0.013123,0.006348,-0.992249,0.175053,0.386565,0.036947,46,279,576,5648
1644162639.746202,-0.01239,0.006775,-0.992981,0.266656,0.539237,-0.14626,54,285,565,5536
1644162639.797054,-0.009521,0.010803,-0.994019,0.08345,0.417099,-0.100458,48,276,578,5584
1644162639.847806,-0.009644,0.011658,-0.994385,0.266656,0.417099,-0.085191,49,277,579,5584
1644162639.892323,-0.013916,0.00769,-0.991882,0.205588,0.447634,-0.192061,47,280,572,5472
1644162639.988118,-0.010559,0.00885,-0.994019,0.236122,0.386565,-0.100458,51,279,583,5648
1644162640.051332,-0.007874,0.006836,-0.991638,0.220855,0.340763,-0.115725,53,283,580,5584
1644162640.088004,-0.008301,0.009949,-0.990356,0.098718,0.447634,-0.100458,49,280,579,5584
1644162640.133253,-0.01178,0.007935,-0.99353,0.220855,0.493435,-0.069924,49,275,584,5584
1644162640.181651,-0.009521,0.007812,-0.991699,0.175053,0.340763,-0.237863,55,271,573,5552
1644162640.230042,-0.012085,0.011658,-0.992432,0.159786,0.340763,0.021679,51,279,571,5584
1644162640.278408,-0.011414,0.007751,-0.991394,0.205588,0.279695,-0.207328,52,268,577,5536
1644162640.326813,-0.011841,0.010254,-0.991882,0.205588,0.493435,-0.207328,47,280,575,5600
1644162640.375209,-0.010681,0.010803,-0.990234,0.113985,0.233893,-0.069924,61,277,584,5488
1644162640.423586,-0.010803,0.009216,-0.99176,0.129252,0.356031,-0.100458,45,263,572,5536
1644162640.471956,-0.011108,0.009399,-0.992065,0.342992,0.401832,0.006412,48,276,578,5552
1644162640.520394,-0.007568,0.010376,-0.99054,0.159786,0.447634,-0.176794,46,269,585,5584
1644162640.568796,-0.008423,0.009338,-0.991272,0.281924,0.386565,-0.100458,51,283,573,5552
1644162640.618747,-0.013977,0.007263,-0.993347,0.281924,0.386565,-0.161527,46,279,571,5584
1644162640.66953,-0.009827,0.008545,-0.992249,0.419328,0.447634,-0.207328,59,268,586,5584
1644162640.719443,-0.009705,0.011292,-0.99408,0.175053,0.386565,-0.115725,41,283,578,5536
1644162640.810744,-0.009094,0.008118,-0.996704,0.266656,0.340763,-0.192061,52,282,579,5536
1644162640.859145,-0.010803,0.006653,-0.992126,0.220855,0.493435,-0.115725,46,271,573,5600
1644162640.907495,-0.011292,0.010559,-0.992432,0.388794,0.432366,-0.024122,45,277,579,5536
1644162640.955913,-0.011414,0.008606,-0.990784,0.205588,0.508702,0.021679,48,281,578,5536
1644162641.004296,-0.009155,0.008484,-0.990723,0.220855,0.401832,-0.268397,45,275,570,5584
1644162641.053182,-0.014709,0.009399,-0.99353,0.312458,0.447634,-0.069924,57,277,572,5584
1644162641.101107,-0.007935,0.009216,-0.993164,0.175053,0.340763,-0.069924,48,274,578,5536
1644162641.149446,-0.013245,0.011108,-0.990173,0.236122,0.325496,-0.100458,55,281,580,5520
1644162641.197835,-0.012329,0.009949,-0.990112,0.251389,0.356031,-0.298931,58,279,576,5536
1644162641.246207,-0.008728,0.009521,-0.993774,-0.008153,0.294962,-0.176794,58,266,578,5536
1644162641.294714,-0.013,0.007385,-0.990662,0.220855,0.340763,-0.283664,49,273,579,5600
1644162641.343025,-0.011963,0.009949,-0.993713,0.327725,0.417099,-0.14626,43,281,576,5536
1644162641.391363,-0.010071,0.007446,-0.992126,-0.038687,0.386565,-0.069924,61,280,575,5600
1644162641.439762,-0.008545,0.007507,-0.991943,0.159786,0.386565,-0.14626,51,279,583,5536
1644162641.488272,-0.011108,0.007385,-0.992065,0.236122,0.310229,-0.25313,54,277,584,5584
1644162641.536562,-0.011597,0.00769,-0.994263,0.052916,0.478168,-0.069924,55,274,573,5536
1644162641.584999,-0.010559,0.006226,-0.993103,0.281924,0.432366,-0.069924,46,269,583,5600
1644162641.633354,-0.012512,0.012817,-0.992554,0.297191,0.417099,-0.207328,52,268,584,5520
1644162641.681871,-0.010376,0.008362,-0.993774,0.175053,0.493435,-0.100458,47,270,572,5536
1644162641.730819,-0.009338,0.008484,-0.991211,0.480397,0.294962,-0.069924,47,265,570,5552
1644162641.781214,-0.013489,0.008118,-0.99646,0.037649,0.508702,-0.069924,54,263,570,5584
1644162641.832515,-0.010864,0.009521,-0.987854,0.236122,0.447634,-0.008855,49,275,572,5600
1644162641.876967,-0.011414,0.009094,-0.991333,0.190321,0.340763,-0.039389,51,262,583,5536
1644162641.972386,-0.011658,0.007202,-0.991699,0.312458,0.478168,-0.100458,62,269,576,5584
1644162642.020493,-0.008545,0.006165,-0.993469,0.190321,0.356031,-0.14626,48,264,580,5520
1644162642.07233,-0.007935,0.009888,-0.992371,0.190321,0.325496,-0.069924,46,266,585,5552
1644162642.117293,-0.009399,0.00592,-0.992493,0.281924,0.401832,-0.222595,39,283,573,5600
1644162642.165634,-0.014343,0.008423,-0.990784,0.251389,0.432366,-0.237863,49,275,582,5520
1644162642.214038,-0.009094,0.009888,-0.992126,0.236122,0.447634,-0.176794,46,283,573,5600
1644162642.262447,-0.008423,0.008911,-0.992737,0.373527,0.493435,-0.008855,47,268,586,5552
1644162642.31081,-0.012207,0.006592,-0.993652,0.281924,0.356031,0.052214,57,277,568,5552
1644162642.359196,-0.010681,0.006592,-0.990845,0.373527,0.417099,-0.130992,60,274,576,5536
1644162642.407581,-0.011902,0.009583,-0.996704,0.388794,0.493435,-0.115725,48,288,573,5552
1644162642.455979,-0.012268,0.008911,-0.990234,0.205588,0.371298,-0.161527,53,274,578,5552
1644162642.504447,-0.013428,0.007935,-0.995667,0.327725,0.294962,-0.14626,45,275,570,5536
1644162642.552775,-0.009216,0.008301,-0.992371,0.129252,0.264427,0.036947,55,279,576,5536
1644162642.601156,-0.011353,0.010315,-0.991333,0.190321,0.264427,-0.069924,58,283,580,5584
1644162642.649509,-0.011597,0.009949,-0.991516,0.236122,0.294962,-0.100458,33,275,577,5488
1644162642.697929,-0.012634,0.007507,-0.990723,0.236122,0.340763,-0.268397,55,288,571,5584
1644162642.746323,-0.011841,0.010437,-0.993103,0.312458,0.462901,-0.054656,55,281,571,5584
1644162642.794719,-0.011719,0.01001,-0.992004,0.434595,0.447634,-0.25313,45,280,572,5600
1644162642.843153,-0.009277,0.007385,-0.992676,0.175053,0.371298,-0.207328,52,265,577,5600
1644162642.893306,-0.009338,0.009155,-0.991455,0.144519,0.401832,0.006412,42,273,584,5584
1644162642.94345,-0.008789,0.007751,-0.992859,0.205588,0.340763,-0.085191,52,268,570,5488
1644162642.993592,-0.010986,0.010559,-0.991211,0.205588,0.279695,-0.115725,48,266,576,5600
1644162643.066972,-0.011353,0.010803,-0.991028,0.205588,0.462901,-0.024122,58,283,573,5552
1644162643.133499,-0.008545,0.007568,-0.989563,0.113985,0.432366,-0.161527,52,270,579,5536
1644162643.18184,-0.010437,0.005859,-0.993958,0.297191,0.340763,-0.100458,51,271,576,5536
1644162643.230228,-0.011292,0.010498,-0.990295,0.297191,0.417099,-0.054656,54,282,563,5552
1644162643.278586,-0.009155,0.007385,-0.988831,0.175053,0.417099,-0.100458,47,273,579,5584
1644162643.326994,-0.013306,0.009583,-0.993774,0.373527,0.554504,-0.192061,34,264,571,5600
1644162643.375376,-0.011475,0.00769,-0.993225,0.236122,0.294962,-0.069924,60,274,576,5488
1644162643.423781,-0.009949,0.008789,-0.987854,0.266656,0.386565,-0.25313,65,274,566,5536
1644162643.4722,-0.01123,0.010193,-0.992615,0.220855,0.310229,-0.115725,52,275,577,5584
1644162643.520565,-0.010925,0.012512,-0.991272,0.220855,0.417099,-0.024122,45,273,575,5536
1644162643.568953,-0.011353,0.009888,-0.99353,0.129252,0.401832,-0.207328,48,279,578,5552
1644162643.617348,-0.008728,0.007874,-0.993713,0.220855,0.539237,-0.192061,47,270,572,5600
1644162643.665739,-0.007874,0.010315,-0.99408,0.220855,0.432366,-0.222595,54,280,572,5600
1644162643.714138,-0.009521,0.010132,-0.993164,0.327725,0.356031,-0.130992,51,279,571,5552
1644162643.762514,-0.012268,0.008179,-0.993347,0.266656,0.294962,-0.085191,51,276,583,5536
1644162643.810898,-0.011536,0.010925,-0.99292,0.297191,0.279695,0.006412,51,286,585,5536
1644162643.859334,-0.010193,0.009949,-0.994141,0.220855,0.371298,-0.100458,46,271,573,5600
1644162643.907717,-0.011536,0.008667,-0.994934,0.175053,0.417099,-0.100458,42,280,575,5520
1644162643.956115,-0.009521,0.00946,-0.99054,0.113985,0.310229,-0.161527,49,285,570,5584
1644162644.004507,-0.009949,0.00824,-0.992859,0.327725,0.371298,-0.085191,46,269,571,5552
1644162644.069503,-0.011841,0.008057,-0.994141,0.220855,0.310229,-0.054656,54,277,570,5584
1644162644.104498,-0.011902,0.010193,-0.99408,0.068183,0.386565,-0.25313,57,277,572,5536
1644162644.154383,-0.012268,0.009155,-0.991516,0.037649,0.356031,-0.237863,55,274,569,5520
1644162644.198775,-0.008972,0.011902,-0.99054,0.113985,0.371298,-0.130992,48,281,576,5488
1644162644.294889,-0.011963,0.009583,-0.992798,0.342992,0.401832,-0.085191,46,274,566,5552
1644162644.343208,-0.007935,0.008972,-0.992065,0.251389,0.371298,-0.268397,49,270,579,5552
1644162644.391569,-0.009521,0.010376,-0.991943,0.281924,0.447634,0.082748,43,279,583,5536
1644162644.439987,-0.008667,0.007263,-0.990845,0.312458,0.371298,-0.25313,36,276,578,5600
1644162644.488364,-0.009949,0.006226,-0.99408,0.098718,0.615573,-0.130992,47,277,572,5536
1644162644.536732,-0.009216,0.007874,-0.992676,0.236122,0.325496,-0.024122,47,285,577,5536
1644162644.585165,-0.012451,0.007751,-0.992126,0.144519,0.401832,-0.115725,51,274,578,5600
1644162644.633547,-0.01123,0.009338,-0.993835,0.205588,0.447634,0.12855,54,270,577,5584
1644162644.681937,-0.012085,0.009094,-0.990723,0.312458,0.478168,-0.008855,59,270,579,5600
1644162644.730322,-0.008667,0.01001,-0.991333,0.190321,0.417099,-0.130992,55,276,578,5552
1644162644.778708,-0.010315,0.00946,-0.991577,0.205588,0.371298,0.098015,52,277,579,5552
1644162644.827092,-0.010376,0.008728,-0.994141,0.297191,0.554504,-0.176794,49,280,575,5536
1644162644.875503,-0.011475,0.010986,-0.991394,0.220855,0.401832,0.067481,47,268,570,5552
1644162644.923915,-0.013611,0.007507,-0.992981,0.190321,0.417099,0.006412,49,282,575,5536
1644162644.972291,-0.010559,0.007202,-0.992554,0.220855,0.432366,-0.039389,47,275,572,5552
1644162645.020694,-0.010986,0.009949,-0.989929,0.220855,0.340763,-0.069924,58,274,583,5600
1644162645.071607,-0.01062,0.008667,-0.99115,0.08345,0.401832,-0.14626,54,273,577,5536
1644162645.11749,-0.012817,0.01001,-0.992615,0.35826,0.493435,-0.069924,48,269,573,5520
1644162645.165859,-0.008545,0.01001,-0.990356,0.312458,0.493435,0.006412,46,274,566,5584
1644162645.215012,-0.009705,0.01123,-0.994507,0.281924,0.310229,-0.268397,53,271,569,5472
1644162645.265401,-0.010193,0.008484,-0.991882,0.052916,0.356031,-0.115725,54,275,577,5536
1644162645.315769,-0.010254,0.00824,-0.991638,0.312458,0.585038,-0.054656,53,281,566,5600
1644162645.360375,-0.010681,0.009155,-0.992004,0.205588,0.478168,-0.161527,54,273,579,5536
1644162645.456195,-0.012451,0.009888,-0.992126,0.098718,0.371298,-0.192061,52,280,572,5552
1644162645.504885,-0.010864,0.009155,-0.991089,0.236122,0.554504,-0.130992,51,279,578,5600
1644162645.552998,-0.009521,0.008911,-0.990967,0.327725,0.356031,-0.054656,49,273,570,5472
1644162645.601372,-0.011414,0.008362,-0.994019,0.175053,0.340763,-0.008855,55,274,573,5536
1644162645.649773,-0.011536,0.008057,-0.9953,0.251389,0.478168,-0.314198,51,274,571,5584
1644162645.698539,-0.012329,0.010498,-0.990417,0.266656,0.417099,0.036947,49,280,570,5552
1644162645.746545,-0.009338,0.005981,-0.992554,0.35826,0.325496,-0.054656,46,269,580,5552
1644162645.794955,-0.010376,0.009521,-0.992493,0.312458,0.447634,-0.100458,49,275,561,5472
1644162645.843326,-0.009644,0.010132,-0.992981,0.159786,0.371298,-0.069924,45,280,565,5536
1644162645.891706,-0.013062,0.007507,-0.992065,0.220855,0.447634,-0.268397,45,270,575,5600
1644162645.940102,-0.012329,0.010132,-0.991272,0.190321,0.371298,-0.085191,52,280,572,5584
1644162645.988491,-0.010437,0.007141,-0.993042,0.251389,0.539237,-0.192061,52,285,579,5552
1644162646.05257,-0.015015,0.008423,-0.993286,0.251389,0.371298,-0.069924,60,276,576,5600
1644162646.087587,-0.008423,0.008118,-0.99231,0.205588,0.340763,-0.054656,54,273,584,5584
1644162646.13365,-0.014221,0.009338,-0.992249,0.281924,0.233893,-0.161527,53,281,594,5552
1644162646.182022,-0.009155,0.00769,-0.99469,0.251389,0.340763,-0.024122,57,270,572,5600
1644162646.230374,-0.009644,0.008362,-0.993774,0.159786,0.294962,-0.085191,54,280,582,5648
1644162646.278788,-0.013245,0.009155,-0.99176,0.190321,0.523969,-0.008855,51,281,573,5536
1644162646.3272,-0.010742,0.009094,-0.992737,0.388794,0.356031,-0.100458,46,269,571,5584
1644162646.376426,-0.010986,0.008789,-0.99231,0.129252,0.447634,-0.085191,54,268,586,5536
1644162646.427174,-0.010864,0.011414,-0.989746,0.190321,0.417099,-0.237863,55,271,585,5584
1644162646.477218,-0.008972,0.009888,-0.993042,0.281924,0.401832,-0.024122,45,280,584,5536
1644162646.522157,-0.012451,0.009155,-0.992371,0.281924,0.462901,0.052214,53,281,573,5664
1644162646.617521,-0.010437,0.008301,-0.992065,0.251389,0.417099,-0.14626,47,280,570,5552
1644162646.665896,-0.007629,0.011292,-0.991638,0.388794,0.371298,-0.176794,42,263,570,5536
1644162646.714312,-0.010559,0.008362,-0.994019,0.190321,0.310229,0.006412,59,277,582,5520
1644162646.762698,-0.009338,0.010559,-0.992371,0.281924,0.386565,-0.176794,49,273,582,5584
1644162646.811125,-0.012085,0.010498,-0.992126,0.312458,0.478168,-0.161527,51,274,573,5584
1644162646.859546,-0.010315,0.005188,-0.993408,0.35826,0.523969,-0.085191,43,269,573,5536
1644162646.907907,-0.010681,0.009827,-0.990845,0.342992,0.417099,-0.130992,51,279,566,5584
1644162646.956307,-0.01355,0.011536,-0.989502,0.312458,0.371298,-0.14626,57,275,575,5584
1644162647.004736,-0.012573,0.012573,-0.992432,0.205588,0.462901,-0.039389,45,268,586,5536
1644162647.057912,-0.010498,0.011475,-0.991882,0.251389,0.493435,-0.069924,57,285,584,5600
1644162647.101401,-0.010254,0.01001,-0.992432,0.266656,0.371298,-0.222595,52,280,586,5584
1644162647.149825,-0.010803,0.010193,-0.99231,0.175053,0.508702,-0.085191,53,286,583,5536
1644162647.198215,-0.013062,0.008911,-0.993408,0.251389,0.508702,-0.130992,58,276,573,5536
1644162647.246578,-0.010986,0.007935,-0.993835,0.052916,0.432366,-0.14626,59,268,568,5536
1644162647.295018,-0.013,0.009705,-0.996826,0.220855,0.462901,0.006412,41,276,578,5536
1644162647.34339,-0.012146,0.009399,-0.995911,0.342992,0.447634,-0.024122,49,275,584,5520
1644162647.391766,-0.009338,0.007751,-0.99176,0.175053,0.401832,-0.039389,55,259,578,5584
1644162647.440264,-0.009705,0.009644,-0.991455,0.144519,0.340763,-0.024122,49,280,577,5536
1644162647.488603,-0.010864,0.008179,-0.992004,0.098718,0.401832,-0.130992,45,273,561,5552
1644162647.539112,-0.013062,0.006042,-0.993042,0.297191,0.340763,-0.039389,42,273,584,5488
1644162647.589309,-0.009583,0.006653,-0.996155,0.113985,0.447634,-0.130992,54,265,582,5600
1644162647.634383,-0.008728,0.00946,-0.991333,0.35826,0.462901,-0.100458,52,273,575,5520
1644162647.730486,-0.009705,0.007263,-0.994812,0.190321,0.462901,-0.054656,52,265,575,5520
1644162647.778889,-0.01123,0.011169,-0.99115,0.419328,0.371298,-0.14626,52,273,572,5488
1644162647.827311,-0.009277,0.012268,-0.990845,0.312458,0.569771,-0.222595,54,268,579,5584
1644162647.875708,-0.00946,0.005798,-0.992737,0.220855,0.554504,-0.161527,46,281,569,5600
1644162647.924112,-0.011658,0.007324,-0.991455,0.236122,0.417099,-0.161527,52,277,572,5520
1644162647.972519,-0.010681,0.01178,-0.990845,0.190321,0.478168,-0.268397,48,271,569,5552
1644162648.020896,-0.010803,0.010071,-0.991882,0.251389,0.478168,-0.161527,48,271,571,5584
1644162648.081423,-0.010315,0.00885,-0.992737,0.297191,0.508702,0.006412,58,264,578,5552
1644162648.117635,-0.010132,0.012695,-0.994019,0.373527,0.462901,-0.069924,55,274,578,5648
1644162648.166021,-0.011719,0.009094,-0.992432,0.08345,0.340763,-0.222595,49,277,582,5584
1644162648.214399,-0.01062,0.011719,-0.99176,0.266656,0.417099,0.036947,48,276,576,5600
1644162648.262842,-0.011169,0.006348,-0.993347,0.159786,0.523969,-0.024122,54,268,577,5520
1644162648.311646,-0.011108,0.006104,-0.993103,0.35826,0.462901,0.052214,53,279,566,5520
1644162648.36223,-0.009155,0.010071,-0.990356,0.220855,0.371298,0.021679,38,275,565,5472
1644162648.412193,-0.011475,0.00708,-0.993469,0.175053,0.554504,-0.130992,54,270,570,5552
1644162648.457381,-0.010437,0.009888,-0.99054,0.205588,0.325496,-0.054656,33,285,572,5552
1644162648.553128,-0.009399,0.010681,-0.992615,0.220855,0.432366,0.036947,55,271,576,5584
1644162648.601516,-0.009827,0.009277,-0.993652,0.144519,0.493435,-0.054656,55,279,571,5584
1644162648.649908,-0.010376,0.009338,-0.993469,0.236122,0.386565,-0.054656,47,280,582,5536
1644162648.698289,-0.010925,0.007629,-0.990967,0.251389,0.432366,-0.024122,47,273,575,5552
1644162648.746671,-0.012634,0.010254,-0.993713,0.236122,0.600305,-0.024122,42,270,572,5536
1644162648.795404,-0.009827,0.010986,-0.992371,0.205588,0.340763,-0.054656,49,265,572,5584
1644162648.843515,-0.010132,0.009094,-0.993347,0.175053,0.523969,0.006412,46,274,576,5584
1644162648.891909,-0.008606,0.01123,-0.991577,0.236122,0.462901,-0.100458,49,275,572,5584
1644162648.940275,-0.011597,0.007385,-0.993103,0.236122,0.356031,-0.130992,39,269,571,5536
1644162648.988685,-0.012573,0.010376,-0.992188,0.129252,0.508702,-0.207328,47,275,575,5584
1644162649.046051,-0.010925,0.011047,-0.991638,0.434595,0.371298,-0.14626,46,271,571,5600
1644162649.085455,-0.01123,0.009644,-0.992188,0.281924,0.386565,-0.207328,52,277,575,5584
1644162649.133825,-0.007751,0.010437,-0.995361,0.35826,0.615573,-0.054656,34,276,569,5536
1644162649.182239,-0.011963,0.012573,-0.993896,0.068183,0.386565,-0.039389,60,269,576,5584
1644162649.230591,-0.01001,0.007568,-0.993164,0.175053,0.508702,-0.161527,48,257,562,5600
1644162649.278985,-0.009033,0.010925,-0.991699,0.159786,0.325496,-0.085191,52,280,577,5552
1644162649.327377,-0.009705,0.009766,-0.993042,0.113985,0.432366,-0.298931,58,279,573,5552
1644162649.37576,-0.011353,0.011658,-0.993103,0.434595,0.401832,-0.14626,52,275,579,5600
1644162649.424157,-0.008789,0.008667,-0.993835,0.098718,0.233893,-0.130992,54,268,584,5632
1644162649.47298,-0.011963,0.010803,-0.992493,0.129252,0.386565,-0.054656,45,277,568,5536
1644162649.523531,-0.012085,0.012024,-0.99231,0.037649,0.294962,-0.14626,52,277,570,5520
1644162649.573642,-0.012695,0.007812,-0.992615,0.312458,0.401832,-0.100458,45,277,582,5584
1644162649.618615,-0.009155,0.006409,-0.99353,0.312458,0.478168,-0.085191,42,277,575,5520
1644162649.714498,-0.012146,0.008118,-0.992249,0.281924,0.371298,-0.024122,43,281,580,5536
1644162649.76288,-0.011414,0.010681,-0.99231,0.342992,0.401832,-0.039389,38,273,565,5552
1644162649.811267,-0.010071,0.007324,-0.992432,0.281924,0.356031,-0.222595,53,276,569,5552
1644162649.8597,-0.014343,0.009216,-0.994812,0.266656,0.371298,-0.130992,43,271,562,5584
1644162649.90809,-0.009399,0.010498,-0.990906,0.129252,0.401832,-0.192061,48,281,564,5552
1644162649.956481,-0.011292,0.01001,-0.994812,0.144519,0.417099,-0.069924,51,276,566,5584
1644162650.004854,-0.011841,0.007935,-0.992249,0.281924,0.340763,-0.008855,59,268,572,5536
1644162650.062347,-0.010254,0.010925,-0.994202,0.281924,0.294962,-0.130992,51,281,578,5584
1644162650.101645,-0.013733,0.009277,-0.992859,0.220855,0.386565,-0.100458,49,265,565,5584
1644162650.149974,-0.008972,0.010437,-0.992065,0.068183,0.401832,-0.054656,59,277,570,5552
1644162650.198364,-0.012756,0.008789,-0.992676,0.297191,0.401832,-0.024122,57,273,579,5536
1644162650.246754,-0.009888,0.009094,-0.992554,0.35826,0.340763,-0.069924,42,277,579,5552
1644162650.295227,-0.009033,0.008118,-0.993713,0.327725,0.386565,-0.421069,54,275,582,5536
1644162650.343547,-0.009949,0.00824,-0.991882,0.220855,0.493435,-0.161527,51,262,576,5536
1644162650.391929,-0.010742,0.006714,-0.992554,0.159786,0.523969,-0.115725,57,270,575,5520
1644162650.440388,-0.009888,0.00885,-0.993896,0.251389,0.340763,-0.024122,51,269,571,5552
1644162650.488726,-0.009888,0.009705,-0.991333,0.205588,0.340763,-0.100458,48,271,580,5584
1644162650.537123,-0.009155,0.008423,-0.993042,0.281924,0.386565,-0.130992,49,280,572,5552
1644162650.585541,-0.013123,0.01062,-0.992798,0.266656,0.340763,0.006412,45,275,575,5536
1644162650.635736,-0.009705,0.008728,-0.992981,0.251389,0.417099,0.006412,45,270,582,5552
1644162650.686092,-0.01062,0.010986,-0.993896,0.327725,0.432366,-0.039389,43,269,576,5600
1644162650.731197,-0.010864,0.009094,-0.994385,0.205588,0.386565,-0.115725,39,276,583,5600
1644162650.827459,-0.010437,0.008301,-0.994812,0.251389,0.340763,0.006412,47,280,575,5600
1644162650.875882,-0.014832,0.005798,-0.995056,0.175053,0.325496,-0.024122,42,280,577,5488
1644162650.924284,-0.009216,0.012329,-0.990967,0.251389,0.569771,-0.130992,46,274,571,5536
1644162650.972683,-0.010742,0.008179,-0.990417,0.266656,0.417099,-0.14626,48,269,571,5552
1644162651.021069,-0.011047,0.00647,-0.993713,0.281924,0.523969,-0.039389,47,275,575,5552
1644162651.074904,-0.01001,0.006287,-0.991699,0.205588,0.462901,-0.024122,59,263,584,5552
1644162651.117836,-0.012146,0.006775,-0.993713,0.220855,0.371298,-0.14626,48,276,583,5536
1644162651.166195,-0.010132,0.010437,-0.991516,0.312458,0.401832,-0.115725,43,281,578,5536
1644162651.214689,-0.009644,0.009277,-0.99353,0.205588,0.447634,-0.085191,60,281,580,5536
1644162651.262954,-0.011108,0.009888,-0.993774,0.266656,0.432366,-0.115725,59,285,579,5600
1644162651.311365,-0.010193,0.008972,-0.993713,0.236122,0.279695,-0.100458,46,279,573,5552
1644162651.359729,-0.012512,0.009583,-0.993042,0.175053,0.386565,-0.161527,42,263,568,5584
1644162651.408152,-0.013489,0.004944,-0.991211,0.129252,0.325496,-0.130992,45,285,577,5536
1644162651.456532,-0.008118,0.008362,-0.992188,0.266656,0.264427,-0.100458,47,270,565,5584
1644162651.504916,-0.01239,0.007996,-0.993347,-0.008153,0.386565,-0.161527,53,271,585,5536
1644162651.553318,-0.011902,0.007324,-0.99115,0.190321,0.523969,-0.115725,52,282,584,5536
1644162651.601678,-0.010986,0.010742,-0.993164,0.220855,0.478168,-0.024122,58,266,576,5552
1644162651.650086,-0.008606,0.009338,-0.99353,0.419328,0.264427,-0.100458,53,274,566,5536
1644162651.69854,-0.009583,0.009033,-0.991455,0.175053,0.493435,-0.237863,39,279,578,5520
1644162651.749098,-0.008179,0.009094,-0.993042,0.342992,0.386565,-0.161527,60,266,585,5552
1644162651.798346,-0.012085,0.01001,-0.991821,0.266656,0.310229,-0.115725,53,266,573,5536
1644162651.848804,-0.00946,0.009033,-0.989868,0.297191,0.462901,0.006412,47,270,584,5552
1644162651.940513,-0.012268,0.00647,-0.992004,0.159786,0.417099,-0.024122,52,270,572,5648
1644162651.988878,-0.010315,0.007629,-0.994141,0.175053,0.585038,-0.115725,52,268,572,5584
1644162652.048801,-0.010071,0.010925,-0.991943,0.159786,0.401832,-0.161527,52,273,579,5584
1644162652.08653,-0.012695,0.009521,-0.995239,0.297191,0.478168,-0.130992,57,268,572,5536
1644162652.134044,-0.011963,0.007629,-0.992798,0.007115,0.462901,0.067481,45,273,579,5520
1644162652.182401,-0.00946,0.010437,-0.991211,0.236122,0.264427,-0.008855,53,281,569,5632
1644162652.230782,-0.011475,0.008179,-0.990967,0.297191,0.310229,-0.176794,52,273,575,5536
1644162652.279172,-0.010254,0.009277,-0.992371,0.190321,0.386565,-0.085191,35,275,570,5536
1644162652.327563,-0.009827,0.008789,-0.991882,0.220855,0.417099,-0.085191,55,269,569,5536
1644162652.375944,-0.01123,0.007874,-0.992798,0.190321,0.325496,-0.115725,52,287,579,5584
1644162652.424354,-0.01062,0.00647,-0.994141,0.159786,0.447634,-0.176794,48,276,573,5584
1644162652.47272,-0.014343,0.005737,-0.992249,0.175053,0.462901,-0.024122,54,277,565,5600
1644162652.52112,-0.014099,0.009827,-0.991821,0.08345,0.310229,-0.14626,53,276,580,5536
1644162652.569508,-0.012024,0.005859,-0.997131,-0.13029,0.340763,-0.14626,52,268,577,5536
1644162652.61787,-0.011414,0.006287,-0.990662,0.144519,0.615573,-0.100458,41,266,571,5600
1644162652.666294,-0.013794,0.007996,-0.992371,0.190321,0.417099,-0.115725,47,277,575,5584
1644162652.716355,-0.009338,0.008728,-0.993164,0.266656,0.447634,-0.176794,55,271,564,5648
1644162652.766556,-0.006775,0.007324,-0.992554,0.175053,0.508702,0.006412,57,270,565,5520
1644162652.816774,-0.010864,0.009155,-0.992676,0.251389,0.371298,-0.237863,55,279,566,5536
1644162652.908284,-0.009644,0.010132,-0.993042,0.327725,0.401832,-0.069924,47,268,575,5632
1644162652.956661,-0.010254,0.007141,-0.993713,0.266656,0.462901,-0.100458,46,269,573,5552
1644162653.005124,-0.013855,0.008911,-0.993835,0.342992,0.508702,-0.14626,52,275,575,5520
1644162653.053593,-0.012573,0.009827,-0.990845,0.129252,0.356031,-0.085191,49,280,577,5552
1644162653.101769,-0.011597,0.006653,-0.991028,0.266656,0.523969,-0.039389,45,270,568,5552
1644162653.15016,-0.009827,0.011719,-0.991577,0.129252,0.554504,-0.115725,49,277,577,5536
1644162653.198584,-0.010681,0.00946,-0.990051,0.144519,0.310229,-0.085191,48,271,576,5552
1644162653.246958,-0.009888,0.008728,-0.993164,0.068183,0.401832,-0.054656,52,275,565,5456
1644162653.295351,-0.010925,0.009399,-0.99176,0.266656,0.386565,-0.008855,57,275,575,5552
1644162653.343749,-0.00946,0.009338,-0.995544,0.251389,0.508702,-0.024122,57,273,584,5488
1644162653.392253,-0.011597,0.009521,-0.990784,0.419328,0.325496,-0.115725,45,277,568,5536
1644162653.440523,-0.008362,0.00885,-0.991882,0.434595,0.447634,-0.039389,43,276,576,5536
1644162653.489287,-0.011719,0.009338,-0.99231,0.266656,0.356031,-0.207328,46,276,580,5536
1644162653.537309,-0.012207,0.008728,-0.995117,0.251389,0.279695,-0.054656,59,280,582,5536
1644162653.585695,-0.013794,0.008179,-0.995056,0.190321,0.432366,-0.008855,47,270,568,5536
1644162653.634084,-0.014404,0.006592,-0.991882,0.297191,0.325496,-0.176794,47,282,579,5536
1644162653.682497,-0.009399,0.005737,-0.992798,0.205588,0.401832,-0.085191,58,262,580,5520
1644162653.730836,-0.010986,0.006836,-0.991943,0.144519,0.539237,0.036947,48,279,571,5584
1644162653.779305,-0.013489,0.007019,-0.992615,0.205588,0.386565,-0.054656,54,273,572,5536
1644162653.829066,-0.010925,0.009338,-0.992004,0.129252,0.508702,-0.237863,48,271,576,5536
1644162653.878932,-0.010864,0.009888,-0.992981,0.251389,0.371298,-0.222595,58,279,576,5600
1644162653.929166,-0.011658,0.010071,-0.990723,0.129252,0.554504,-0.039389,36,279,571,5536
1644162653.973742,-0.012634,0.006226,-0.991211,0.159786,0.585038,-0.008855,54,280,568,5584
1644162654.073064,-0.011597,0.008789,-0.996704,0.281924,0.325496,-0.207328,45,273,584,5664
1644162654.117967,-0.009644,0.00824,-0.99292,0.342992,0.386565,-0.008855,42,277,582,5536
1644162654.166378,-0.012085,0.011292,-0.994202,0.281924,0.508702,-0.039389,55,281,573,5536
1644162654.214776,-0.013123,0.005676,-0.991943,0.175053,0.447634,-0.024122,46,274,573,5552
1644162654.263186,-0.011047,0.010559,-0.990173,0.342992,0.432366,-0.268397,47,273,577,5552
1644162654.311561,-0.011658,0.00946,-0.992676,0.175053,0.371298,-0.14626,53,279,573,5584
1644162654.359937,-0.01062,0.007019,-0.99408,0.251389,0.371298,-0.176794,51,279,569,5536
1644162654.408372,-0.011414,0.00946,-0.993225,0.35826,0.462901,-0.192061,47,270,570,5520
1644162654.456725,-0.009216,0.007568,-0.992676,0.175053,0.294962,0.021679,52,277,572,5584
1644162654.505258,-0.011169,0.007996,-0.992249,0.266656,0.172824,-0.100458,52,275,579,5584
1644162654.553502,-0.011047,0.009521,-0.992432,0.129252,0.325496,-0.024122,53,276,573,5536
1644162654.601891,-0.011902,0.00885,-0.991089,0.281924,0.462901,-0.024122,49,285,575,5600
1644162654.650289,-0.010864,0.009216,-0.991272,0.220855,0.371298,-0.176794,42,268,575,5584
1644162654.698672,-0.009155,0.008789,-0.990845,0.297191,0.447634,-0.115725,51,276,587,5536
1644162654.747069,-0.012085,0.00885,-0.992249,0.159786,0.432366,-0.039389,53,271,585,5584
1644162654.795489,-0.010681,0.009033,-0.993469,0.220855,0.325496,-0.039389,55,274,580,5584
1644162654.843901,-0.007996,0.011169,-0.992065,0.251389,0.447634,-0.054656,54,282,570,5536
1644162654.89268,-0.013184,0.006226,-0.992188,0.495664,0.325496,0.052214,45,273,579,5552
1644162654.943224,-0.012695,0.005554,-0.994507,0.373527,0.340763,0.098015,49,275,565,5536
1644162654.993728,-0.012207,0.009583,-0.992493,0.373527,0.539237,-0.222595,54,277,570,5600
1644162655.067268,-0.010498,0.011169,-0.99054,0.46513,0.401832,-0.130992,47,277,579,5536
1644162655.13419,-0.010498,0.007935,-0.99115,0.190321,0.325496,-0.054656,39,269,569,5520
1644162655.182575,-0.009644,0.009888,-0.994812,0.220855,0.401832,0.006412,43,279,576,5536
1644162655.230959,-0.010498,0.006042,-0.991394,0.312458,0.401832,-0.14626,49,277,575,5536
1644162655.279348,-0.011108,0.009521,-0.99231,0.281924,0.432366,-0.085191,42,265,575,5520
1644162655.327749,-0.013123,0.009766,-0.995056,0.175053,0.447634,-0.115725,47,273,570,5584
1644162655.376139,-0.015076,0.007019,-0.993225,0.251389,0.447634,0.006412,36,266,562,5536
1644162655.424526,-0.010193,0.009338,-0.992615,0.144519,0.294962,-0.024122,48,288,566,5536
1644162655.472923,-0.01178,0.011169,-0.990295,0.037649,0.417099,-0.192061,48,271,580,5536
1644162655.52132,-0.008911,0.007812,-0.990295,0.175053,0.432366,-0.054656,53,279,573,5600
1644162655.56969,-0.009521,0.010803,-0.991333,0.266656,0.447634,-0.222595,52,273,568,5536
1644162655.61809,-0.010193,0.010315,-0.98999,0.266656,0.462901,-0.085191,49,280,575,5552
1644162655.666476,-0.008911,0.011902,-0.99408,0.434595,0.447634,-0.039389,51,269,573,5536
1644162655.714892,-0.01178,0.011719,-0.98822,0.220855,0.585038,-0.069924,52,273,579,5584
1644162655.763246,-0.009827,0.008728,-0.99115,0.220855,0.432366,0.082748,51,286,569,5520
1644162655.811694,-0.009766,0.008484,-0.992737,0.129252,0.447634,-0.192061,49,273,577,5584
1644162655.86008,-0.011292,0.010376,-0.990173,0.220855,0.310229,-0.100458,46,269,576,5552
1644162655.908468,-0.008423,0.009888,-0.99176,0.113985,0.539237,-0.085191,62,269,576,5584
1644162655.957053,-0.012146,0.00946,-0.991272,0.281924,0.356031,-0.039389,52,277,579,5584
1644162656.005329,-0.011414,0.010498,-0.990295,0.190321,0.432366,-0.176794,43,262,576,5584
1644162656.073107,-0.009583,0.008484,-0.992065,0.312458,0.279695,-0.100458,46,283,576,5600
1644162656.107978,-0.010193,0.010803,-0.991455,0.327725,0.523969,-0.176794,49,270,563,5552
1644162656.151725,-0.008789,0.009521,-0.990662,0.08345,0.432366,-0.130992,55,271,569,5584
1644162656.24714,-0.009705,0.01001,-0.991882,0.297191,0.432366,-0.069924,49,270,577,5552
1644162656.295522,-0.008118,0.009644,-0.992126,0.144519,0.478168,-0.25313,49,275,575,5584
1644162656.343948,-0.015015,0.009705,-0.991028,0.129252,0.462901,0.006412,52,277,577,5552
1644162656.392464,-0.01001,0.011353,-0.991821,0.342992,0.432366,-0.25313,46,276,569,5536
1644162656.440712,-0.008057,0.007385,-0.991516,0.190321,0.371298,-0.176794,51,276,571,5600
1644162656.489326,-0.009888,0.00946,-0.995117,0.312458,0.462901,-0.115725,40,268,577,5600
1644162656.537484,-0.009338,0.010803,-0.992554,0.220855,0.371298,-0.161527,58,276,573,5456
1644162656.585881,-0.008606,0.011475,-0.989441,0.480397,0.294962,-0.130992,48,266,569,5552
1644162656.634276,-0.007141,0.010254,-0.991699,0.190321,0.371298,0.021679,46,271,573,5536
1644162656.682685,-0.010559,0.008484,-0.993896,0.281924,0.325496,0.006412,41,264,569,5552
1644162656.731062,-0.01239,0.010559,-0.99054,0.175053,0.386565,0.006412,52,280,577,5536
1644162656.779453,-0.009216,0.008179,-0.988342,0.190321,0.539237,-0.161527,47,275,572,5584
1644162656.827885,-0.00885,0.010437,-0.993225,0.068183,0.325496,-0.008855,47,273,579,5584
1644162656.876269,-0.00824,0.011047,-0.994507,0.312458,0.401832,-0.008855,42,277,572,5488
1644162656.924777,-0.011169,0.011658,-0.990662,0.327725,0.493435,-0.161527,45,280,570,5600
1644162656.973065,-0.007446,0.011658,-0.991516,0.175053,0.600305,0.006412,57,277,579,5552
1644162657.021435,-0.008545,0.010071,-0.993591,0.35826,0.294962,-0.085191,47,280,584,5536
1644162657.069916,-0.012817,0.010193,-0.990845,0.175053,0.417099,-0.115725,64,280,582,5536
1644162657.118389,-0.010071,0.012939,-0.99176,0.052916,0.417099,-0.161527,52,265,573,5632
1644162657.166712,-0.010498,0.011292,-0.992798,0.266656,0.325496,-0.130992,46,274,576,5584
1644162657.217073,-0.008545,0.009155,-0.98938,0.35826,0.24916,-0.069924,36,269,566,5536
1644162657.267626,-0.009094,0.010437,-0.99353,0.342992,0.432366,-0.222595,47,273,577,5584
1644162657.312428,-0.012756,0.008362,-0.992432,0.220855,0.493435,-0.130992,42,277,572,5536
1644162657.4085,-0.010864,0.013977,-0.994019,0.266656,0.356031,-0.100458,49,277,572,5584
1644162657.456885,-0.008667,0.010071,-0.994995,0.251389,0.447634,0.006412,52,280,575,5536
1644162657.505427,-0.011414,0.012634,-0.990051,0.495664,0.615573,-0.130992,46,286,566,5584
1644162657.553699,-0.008606,0.010986,-0.992859,0.159786,0.539237,-0.039389,53,276,573,5536
1644162657.602074,-0.010986,0.007263,-0.992615,0.144519,0.493435,0.006412,45,277,565,5600
1644162657.650473,-0.011414,0.009033,-0.99115,0.190321,0.279695,-0.115725,55,271,580,5584
1644162657.698851,-0.011475,0.010315,-0.990173,0.236122,0.554504,-0.024122,49,277,577,5584
1644162657.747258,-0.008179,0.008545,-0.989624,0.220855,0.386565,-0.039389,47,273,570,5584
1644162657.795643,-0.010132,0.01239,-0.99176,0.297191,0.432366,-0.069924,51,281,578,5584
1644162657.844084,-0.013062,0.009216,-0.993164,0.236122,0.386565,-0.054656,52,273,575,5552
1644162657.892474,-0.010315,0.012085,-0.990906,0.220855,0.356031,0.036947,51,269,571,5488
1644162657.940842,-0.011169,0.01355,-0.993652,0.220855,0.279695,-0.176794,57,282,570,5632
1644162657.989237,-0.010925,0.008118,-0.993286,0.281924,0.310229,-0.008855,45,282,584,5536
1644162658.051248,-0.011658,0.01062,-0.991516,0.175053,0.386565,-0.054656,54,270,577,5584
1644162658.090147,-0.009583,0.01062,-0.990784,0.068183,0.417099,-0.130992,60,269,580,5520
1644162658.134371,-0.008545,0.007568,-0.990417,0.220855,0.340763,-0.161527,57,275,575,5600
1644162658.182746,-0.009705,0.01001,-0.993774,0.312458,0.447634,-0.100458,49,273,570,5488
1644162658.23112,-0.011108,0.011414,-0.991638,0.281924,0.279695,-0.115725,51,276,580,5584
1644162658.279537,-0.01062,0.008179,-0.990601,0.159786,0.371298,-0.176794,52,273,582,5584
1644162658.328322,-0.012573,0.007812,-0.990723,0.327725,0.401832,-0.207328,43,279,585,5584
1644162658.378523,-0.008484,0.010986,-0.990295,-0.008153,0.447634,-0.130992,52,290,577,5584
1644162658.428608,-0.008911,0.008911,-0.995117,0.327725,0.478168,-0.100458,51,269,573,5536
1644162658.473698,-0.009521,0.008362,-0.99408,0.251389,0.447634,-0.25313,57,265,565,5520
1644162658.569877,-0.009766,0.006714,-0.992432,0.144519,0.386565,-0.115725,47,280,575,5536
1644162658.618248,-0.012695,0.007568,-0.992981,0.312458,0.417099,0.052214,51,274,566,5552
1644162658.666636,-0.012146,0.01001,-0.994263,0.129252,0.462901,-0.176794,48,269,569,5488
1644162658.715422,-0.011963,0.009705,-0.98822,0.236122,0.325496,-0.130992,59,273,577,5488
1644162658.763437,-0.012451,0.009949,-0.994629,0.144519,0.508702,-0.115725,52,280,577,5552
1644162658.81181,-0.008057,0.008728,-0.991882,0.236122,0.325496,-0.161527,53,276,578,5584
1644162658.860268,-0.00946,0.006836,-0.99469,0.46513,0.417099,-0.130992,46,279,580,5520
1644162658.908648,-0.009521,0.009094,-0.989563,0.205588,0.294962,-0.069924,57,280,570,5552
1644162658.957037,-0.010803,0.009888,-0.994507,0.266656,0.447634,-0.054656,47,258,589,5536
1644162659.00543,-0.010742,0.012024,-0.993408,0.327725,0.447634,-0.161527,48,269,585,5584
1644162659.06422,-0.009888,0.012329,-0.992737,0.266656,0.310229,-0.039389,47,277,579,5520
1644162659.102256,-0.010925,0.008911,-0.990845,0.190321,0.401832,-0.054656,61,277,577,5488
1644162659.150553,-0.008667,0.008179,-0.991943,0.312458,0.569771,-0.024122,54,277,577,5584
1644162659.198952,-0.014709,0.011169,-0.991333,0.220855,0.401832,-0.192061,43,281,576,5536
1644162659.247337,-0.011169,0.007996,-0.996155,0.266656,0.493435,-0.039389,58,279,576,5584
1644162659.295715,-0.010742,0.006531,-0.991577,0.251389,0.401832,-0.176794,55,271,578,5584
1644162659.344101,-0.010925,0.010925,-0.991333,0.159786,0.432366,-0.130992,49,275,589,5520
1644162659.392526,-0.012573,0.008545,-0.993469,0.098718,0.432366,-0.25313,49,277,577,5552
1644162659.440902,-0.011963,0.00769,-0.992249,0.297191,0.676641,-0.14626,47,263,572,5584
1644162659.490837,-0.010071,0.009155,-0.989624,0.297191,0.24916,-0.130992,49,277,570,5536
1644162659.54124,-0.00946,0.007324,-0.99353,0.297191,0.325496,-0.039389,51,281,569,5632
1644162659.586115,-0.010559,0.010376,-0.990051,0.35826,0.264427,-0.069924,49,275,570,5584
1644162659.682883,-0.011108,0.01001,-0.991333,0.144519,0.417099,-0.069924,53,276,573,5600
1644162659.731221,-0.008484,0.008362,-0.993469,0.205588,0.447634,-0.069924,55,274,578,5536
1644162659.779603,-0.008118,0.005859,-0.992981,0.281924,0.569771,-0.115725,57,265,572,5552
1644162659.828018,-0.012024,0.008423,-0.990723,0.175053,0.417099,0.036947,53,271,578,5488
1644162659.87643,-0.013611,0.007996,-0.988647,0.297191,0.523969,-0.161527,40,275,570,5584
1644162659.92485,-0.010559,0.009949,-0.991455,0.434595,0.340763,-0.024122,53,276,571,5584
1644162659.973241,-0.009338,0.009888,-0.989929,0.281924,0.462901,-0.069924,52,268,575,5536
1644162660.021624,-0.009033,0.009277,-0.99115,0.327725,0.294962,-0.100458,49,280,579,5552
1644162660.071267,-0.010925,0.008972,-0.990967,0.098718,0.401832,-0.085191,54,275,575,5584
1644162660.118401,-0.010986,0.00885,-0.989929,0.251389,0.462901,-0.024122,51,269,576,5520
1644162660.166753,-0.010681,0.008972,-0.992981,0.312458,0.417099,-0.039389,46,271,580,5552
1644162660.215179,-0.011414,0.009521,-0.991882,0.175053,0.401832,-0.207328,57,275,577,5520
1644162660.263532,-0.011414,0.009338,-0.992188,0.312458,0.493435,-0.192061,42,277,572,5664
1644162660.311923,-0.009094,0.009338,-0.989502,0.251389,0.386565,-0.024122,45,275,582,5552
1644162660.360285,-0.009949,0.009521,-0.993713,0.220855,0.417099,-0.14626,57,270,579,5520
1644162660.408695,-0.010437,0.008911,-0.992126,0.281924,0.325496,-0.192061,54,277,584,5552
1644162660.457234,-0.010071,0.009888,-0.993042,0.297191,0.417099,-0.039389,57,273,584,5584
1644162660.507786,-0.007996,0.00769,-0.99176,0.266656,0.340763,-0.069924,53,274,578,5600
1644162660.558075,-0.01001,0.007874,-0.993286,0.220855,0.325496,-0.039389,57,277,575,5520
1644162660.602899,-0.010559,0.010071,-0.99231,0.236122,0.401832,-0.054656,47,273,572,5584
1644162660.69904,-0.009583,0.007263,-0.991699,0.297191,0.356031,-0.024122,52,273,563,5600
1644162660.747438,-0.010925,0.007385,-0.992554,0.144519,0.340763,-0.130992,48,276,571,5584
1644162660.795798,-0.012573,0.012573,-0.992188,0.251389,0.356031,-0.192061,51,266,580,5520
1644162660.844249,-0.009705,0.010803,-0.994019,0.175053,0.417099,-0.054656,39,269,573,5488
1644162660.892647,-0.009094,0.008057,-0.992981,0.327725,0.493435,0.006412,54,277,565,5552
1644162660.94103,-0.009827,0.010132,-0.992065,0.251389,0.493435,-0.192061,59,265,577,5552
1644162660.989431,-0.009338,0.00531,-0.990662,0.297191,0.371298,-0.024122,51,279,576,5536
1644162661.051131,-0.010254,0.007507,-0.990845,0.220855,0.417099,-0.069924,46,271,580,5536
1644162661.086193,-0.010315,0.01001,-0.991516,0.205588,0.585038,-0.069924,43,283,573,5488
1644162661.134702,-0.010559,0.010193,-0.99231,0.327725,0.401832,-0.039389,40,275,579,5536
1644162661.183004,-0.012024,0.008545,-0.991089,0.236122,0.462901,-0.054656,51,283,576,5552
1644162661.23137,-0.013611,0.00946,-0.990417,0.35826,0.508702,-0.176794,49,273,579,5536
1644162661.279735,-0.010681,0.006775,-0.992065,0.281924,0.493435,-0.237863,46,276,583,5488
1644162661.32812,-0.010986,0.01001,-0.992432,0.251389,0.356031,-0.130992,52,275,577,5584
1644162661.376597,-0.01123,0.009644,-0.992371,0.159786,0.462901,-0.207328,58,279,571,5488
1644162661.425161,-0.012512,0.010498,-0.991516,0.266656,0.447634,-0.085191,55,274,583,5584
1644162661.475666,-0.010864,0.010498,-0.991943,0.327725,0.493435,-0.008855,48,279,576,5536
1644162661.526068,-0.009399,0.009399,-0.992981,0.236122,0.417099,-0.039389,43,269,571,5584
1644162661.575683,-0.011047,0.005615,-0.991638,0.251389,0.447634,-0.069924,51,271,573,5584
1644162661.666905,-0.009338,0.007629,-0.988953,0.159786,0.478168,-0.085191,54,277,579,5584
1644162661.715457,-0.009766,0.008911,-0.990906,0.190321,0.539237,0.006412,42,275,577,5600
1644162661.763647,-0.009277,0.010376,-0.993164,0.052916,0.340763,-0.100458,46,281,573,5632
1644162661.812027,-0.008606,0.008972,-0.992859,0.251389,0.447634,-0.14626,43,279,573,5552
1644162661.860443,-0.011047,0.007446,-0.991821,0.281924,0.447634,-0.222595,43,276,569,5536
1644162661.908824,-0.010376,0.010681,-0.991516,0.297191,0.462901,-0.268397,42,270,572,5584
1644162661.957209,-0.014282,0.009338,-0.992004,0.205588,0.14229,-0.115725,53,281,571,5536
1644162662.005617,-0.011353,0.009277,-0.990295,0.144519,0.523969,-0.115725,55,271,571,5584
1644162662.05516,-0.010864,0.009033,-0.990906,0.236122,0.539237,-0.161527,43,271,571,5552
1644162662.102389,-0.010803,0.007263,-0.991211,0.388794,0.432366,-0.14626,43,279,583,5520
1644162662.150751,-0.00946,0.009338,-0.991821,0.312458,0.462901,-0.100458,53,279,566,5552
1644162662.199141,-0.009583,0.007812,-0.992371,0.129252,0.447634,-0.039389,53,279,573,5584
1644162662.247522,-0.009094,0.008179,-0.991028,0.236122,0.310229,-0.222595,51,279,573,5600
1644162662.295905,-0.011353,0.008545,-0.990173,0.236122,0.325496,0.036947,46,271,583,5584
1644162662.344307,-0.010986,0.009949,-0.992554,0.220855,0.493435,0.021679,45,275,575,5584
1644162662.392704,-0.011292,0.00885,-0.991089,0.220855,0.325496,-0.283664,49,277,586,5552
1644162662.441083,-0.011169,0.007935,-0.990601,0.266656,0.569771,-0.085191,51,269,576,5632
1644162662.489498,-0.010193,0.00769,-0.991272,0.220855,0.447634,-0.100458,45,270,579,5584
1644162662.53786,-0.006287,0.010376,-0.989441,0.113985,0.493435,-0.176794,53,293,573,5552
1644162662.586552,-0.00946,0.010376,-0.98999,0.220855,0.432366,-0.176794,49,280,577,5552
1644162662.637076,-0.008057,0.010925,-0.989685,0.251389,0.310229,-0.207328,48,269,573,5552
1644162662.687328,-0.008362,0.010498,-0.992432,0.266656,0.508702,-0.024122,47,268,572,5536
1644162662.732466,-0.011292,0.011353,-0.990662,0.342992,0.371298,-0.100458,55,274,576,5536
1644162662.828219,-0.011108,0.007874,-0.990112,0.266656,0.340763,0.036947,46,283,578,5520
1644162662.876605,-0.01178,0.011047,-0.991699,0.419328,0.447634,0.067481,49,275,568,5536
1644162662.925067,-0.012817,0.008667,-0.991455,0.342992,0.386565,-0.222595,52,275,568,5536
1644162662.973412,-0.011963,0.008972,-0.99353,0.190321,0.401832,-0.039389,42,270,565,5552
1644162663.021799,-0.008423,0.008606,-0.992004,0.220855,0.294962,-0.176794,46,276,583,5552
1644162663.074863,-0.009155,0.011414,-0.990967,0.190321,0.523969,-0.176794,54,273,579,5552
1644162663.118548,-0.010315,0.009705,-0.991028,0.159786,0.325496,-0.069924,53,279,559,5664
1644162663.166943,-0.008728,0.012024,-0.991638,0.327725,0.310229,-0.192061,52,282,577,5536
1644162663.215306,-0.01355,0.009216,-0.990601,0.220855,0.371298,-0.115725,57,280,575,5536
1644162663.263707,-0.012756,0.007446,-0.992432,0.190321,0.432366,-0.192061,41,262,571,5536
1644162663.312087,-0.009399,0.008301,-0.993591,0.251389,0.523969,-0.176794,49,273,591,5600
1644162663.360494,-0.008728,0.010132,-0.990662,0.08345,0.462901,-0.054656,57,275,572,5552
1644162663.408887,-0.010925,0.008545,-0.990112,0.297191,0.279695,-0.130992,45,280,568,5600
1644162663.457282,-0.008911,0.011108,-0.993408,0.449863,0.310229,0.006412,54,275,575,5552
1644162663.505649,-0.010864,0.008179,-0.992188,0.175053,0.233893,-0.069924,49,277,589,5584
1644162663.55406,-0.01239,0.007141,-0.992249,0.220855,0.356031,-0.054656,49,273,582,5552
1644162663.602468,-0.011597,0.006409,-0.991516,0.312458,0.417099,-0.085191,55,279,578,5584
1644162663.650832,-0.010803,0.009216,-0.992737,0.281924,0.340763,0.082748,49,280,570,5552
1644162663.69923,-0.008362,0.007263,-0.993896,0.159786,0.417099,-0.115725,52,282,572,5584
1644162663.747853,-0.011841,0.011719,-0.992126,0.190321,0.356031,-0.069924,42,263,572,5536
1644162663.798868,-0.012329,0.009399,-0.993958,0.068183,0.340763,-0.085191,52,277,570,5536
1644162663.849402,-0.009705,0.00708,-0.993286,0.129252,0.417099,-0.192061,48,271,576,5536
1644162663.893958,-0.012878,0.009216,-0.993164,0.129252,0.600305,0.021679,53,262,573,5552
1644162663.989611,-0.010315,0.009583,-0.987976,0.159786,0.417099,-0.192061,60,274,578,5520
1644162664.052551,-0.012268,0.010376,-0.9953,0.220855,0.371298,0.098015,47,268,586,5536
1644162664.08645,-0.009888,0.012268,-0.992249,0.113985,0.432366,-0.008855,59,277,577,5536
1644162664.134743,-0.009766,0.008057,-0.99115,0.327725,0.356031,-0.039389,49,270,572,5584
1644162664.183152,-0.010132,0.008301,-0.99054,0.098718,0.447634,-0.207328,45,275,570,5584
1644162664.231522,-0.011597,0.009583,-0.993042,0.205588,0.417099,-0.161527,54,270,575,5536
1644162664.279884,-0.00946,0.009521,-0.990479,0.236122,0.279695,-0.14626,54,273,577,5552
1644162664.328292,-0.01123,0.009644,-0.991455,0.129252,0.432366,-0.115725,54,275,579,5600
1644162664.376698,-0.010803,0.00885,-0.992065,0.159786,0.401832,-0.130992,40,277,579,5584
1644162664.425118,-0.008057,0.012329,-0.993591,0.297191,0.676641,-0.176794,55,269,569,5552
1644162664.473478,-0.012024,0.009094,-0.991028,0.297191,0.340763,-0.039389,49,277,579,5600
1644162664.521877,-0.010437,0.007385,-0.993347,0.281924,0.356031,-0.054656,45,273,575,5600
1644162664.570524,-0.007996,0.009155,-0.991882,0.251389,0.447634,-0.085191,43,281,576,5536
1644162664.619555,-0.008606,0.008301,-0.993164,0.251389,0.585038,-0.222595,53,271,576,5536
1644162664.669704,-0.008789,0.010742,-0.993225,0.205588,0.447634,-0.314198,41,274,566,5600
1644162664.720015,-0.012756,0.010132,-0.990173,0.144519,0.401832,-0.024122,48,279,573,5552
1644162664.812654,-0.008301,0.009644,-0.990967,0.205588,0.386565,-0.008855,48,269,576,5584
1644162664.860631,-0.010315,0.008911,-0.989685,0.144519,0.386565,-0.130992,43,279,578,5600
1644162664.909004,-0.009644,0.009033,-0.991272,0.190321,0.447634,-0.054656,43,271,569,5584
1644162664.957383,-0.011963,0.007935,-0.991943,0.35826,0.523969,-0.25313,42,268,582,5648
1644162665.005779,-0.010864,0.009888,-0.994873,0.297191,0.508702,-0.14626,60,279,566,5520
1644162665.056165,-0.010193,0.009216,-0.991821,0.419328,0.585038,-0.314198,46,271,578,5552
1644162665.10262,-0.012756,0.009949,-0.991028,0.159786,0.508702,-0.054656,47,275,582,5600
1644162665.150928,-0.013367,0.008484,-0.99469,0.342992,0.462901,0.052214,43,274,578,5536
1644162665.19933,-0.012085,0.011169,-0.991028,0.297191,0.447634,-0.222595,47,277,568,5520
1644162665.247684,-0.011597,0.008606,-0.994507,0.312458,0.386565,-0.069924,48,281,578,5584
1644162665.296101,-0.013,0.008301,-0.993042,0.251389,0.478168,-0.14626,41,269,569,5584
1644162665.344504,-0.010254,0.009766,-0.992615,0.327725,0.371298,-0.024122,57,268,575,5536
1644162665.392902,-0.008362,0.007874,-0.990967,0.205588,0.676641,-0.054656,49,270,575,5584
1644162665.441272,-0.008484,0.010315,-0.990112,0.251389,0.585038,-0.100458,49,277,577,5584
1644162665.489683,-0.011475,0.008911,-0.992004,0.205588,0.493435,-0.130992,66,277,582,5552
1644162665.53802,-0.012146,0.009399,-0.993347,0.388794,0.554504,-0.207328,46,276,566,5584
1644162665.586442,-0.011658,0.007507,-0.992615,0.098718,0.432366,-0.024122,52,270,577,5552
1644162665.634838,-0.010254,0.011719,-0.992859,0.129252,0.447634,-0.039389,46,271,585,5584
1644162665.683261,-0.012573,0.008545,-0.993835,0.129252,0.539237,0.021679,49,273,575,5600
1644162665.732392,-0.011414,0.00708,-0.991028,0.266656,0.371298,-0.283664,39,269,573,5536
1644162665.782986,-0.012512,0.010498,-0.993347,0.159786,0.447634,-0.237863,52,273,579,5600
1644162665.828645,-0.010803,0.00885,-0.990845,0.175053,0.478168,-0.024122,58,283,571,5536
1644162665.878883,-0.01123,0.010681,-0.995605,0.159786,0.447634,-0.176794,45,275,570,5536
1644162665.973605,-0.011658,0.006165,-0.992126,0.297191,0.539237,0.036947,47,265,577,5552
1644162666.02199,-0.013977,0.006165,-0.994202,0.281924,0.310229,-0.25313,41,274,573,5520
1644162666.070468,-0.010132,0.009705,-0.991516,0.327725,0.478168,-0.161527,48,274,576,5584
1644162666.118759,-0.007263,0.01001,-0.992676,0.190321,0.432366,-0.008855,47,277,577,5520
1644162666.1671,-0.00946,0.010437,-0.994446,0.327725,0.447634,-0.100458,52,270,563,5520
1644162666.215495,-0.010681,0.010986,-0.992126,0.251389,0.447634,-0.130992,40,277,572,5584
1644162666.263897,-0.011414,0.009949,-0.991821,0.113985,0.462901,-0.130992,51,266,571,5536
1644162666.312306,-0.010864,0.00824,-0.992554,0.327725,0.462901,0.021679,48,271,566,5584
1644162666.360686,-0.010559,0.008118,-0.994019,0.144519,0.493435,-0.054656,43,279,573,5584
1644162666.409085,-0.008972,0.009338,-0.993896,0.205588,0.401832,0.021679,48,266,571,5584
1644162666.45747,-0.014221,0.007751,-0.994629,0.220855,0.310229,-0.115725,49,280,570,5584
1644162666.505855,-0.013245,0.009033,-0.992798,0.129252,0.462901,-0.130992,52,282,575,5584
1644162666.55426,-0.013245,0.008789,-0.992676,0.373527,0.310229,0.006412,41,276,571,5552
1644162666.602655,-0.011169,0.010254,-0.993286,0.159786,0.386565,-0.024122,48,274,576,5584
1644162666.651028,-0.009827,0.008179,-0.993103,0.281924,0.493435,-0.130992,58,279,569,5488
1644162666.699398,-0.013428,0.00824,-0.993347,0.236122,0.523969,0.021679,49,277,577,5552
1644162666.747776,-0.012146,0.011108,-0.992615,0.388794,0.539237,-0.130992,57,277,577,5552
1644162666.796191,-0.011658,0.008728,-0.993469,0.113985,0.340763,-0.100458,55,271,578,5584
1644162666.845257,-0.011475,0.01001,-0.993652,0.388794,0.569771,-0.039389,49,285,575,5584
1644162666.896975,-0.009827,0.009033,-0.992126,0.312458,0.447634,0.006412,49,280,577,5520
1644162666.947104,-0.012024,0.008301,-0.99176,0.113985,0.447634,-0.100458,49,282,584,5664
1644162667.052003,-0.010864,0.009949,-0.989502,0.251389,0.356031,-0.008855,49,265,577,5584
1644162667.086647,-0.008789,0.01001,-0.99469,0.297191,0.432366,0.067481,51,279,583,5584
1644162667.135052,-0.00946,0.008728,-0.993713,0.205588,0.294962,-0.024122,48,276,576,5584
1644162667.183324,-0.011169,0.009644,-0.993225,0.251389,0.600305,-0.207328,54,282,572,5488
1644162667.231699,-0.013428,0.010193,-0.990356,0.129252,0.447634,-0.069924,47,270,570,5536
1644162667.280095,-0.012451,0.008789,-0.991455,0.175053,0.478168,0.067481,45,277,575,5536
