epoch,acc_x,acc_y,acc_z,rot_x,rot_y,rot_z,mag_x,mag_y,mag_z,temp
1644175500.070038,-0.00946,0.008301,-0.993042,0.297191,0.447634,-0.222595,54,268,582,5712
1644175500.108133,-0.008972,0.008057,-0.989197,0.281924,0.417099,-0.024122,52,273,582,5808
1644175500.154156,-0.011414,0.011108,-0.991272,0.220855,0.386565,-0.115725,49,280,570,5760
1644175500.202549,-0.010376,0.013367,-0.99469,0.175053,0.508702,-0.130992,53,281,580,5696
1644175500.250924,-0.006958,0.011841,-0.991516,0.052916,0.371298,-0.130992,51,269,578,5712
1644175500.299313,-0.010437,0.011597,-0.993958,0.220855,0.233893,-0.14626,45,277,584,5760
1644175500.347705,-0.008484,0.009766,-0.989929,0.251389,0.432366,-0.008855,54,277,565,5760
1644175500.396114,-0.011292,0.009338,-0.991089,0.373527,0.447634,-0.069924,54,277,579,5728
1644175500.444507,-0.010193,0.008118,-0.993347,0.281924,0.432366,-0.14626,52,273,579,5824
1644175500.492913,-0.010437,0.009094,-0.989258,0.35826,0.493435,-0.069924,53,279,580,5808
1644175500.541267,-0.010559,0.011169,-0.990479,0.342992,0.523969,-0.054656,54,275,579,5696
1644175500.589658,-0.010315,0.011841,-0.994141,0.159786,0.340763,-0.176794,48,271,571,5808
1644175500.638321,-0.00885,0.010071,-0.99231,0.08345,0.294962,-0.268397,47,277,579,5696
1644175500.687711,-0.007874,0.007812,-0.991028,0.190321,0.508702,-0.14626,53,276,576,5760
1644175500.738067,-0.012817,0.008667,-0.991577,0.144519,0.478168,-0.176794,49,275,575,5712
1644175500.78847,-0.011536,0.010315,-0.990662,0.159786,0.417099,-0.085191,58,269,566,5808
1644175500.879996,-0.007874,0.010132,-0.989807,0.236122,0.218626,-0.054656,41,276,571,5696
1644175500.928447,-0.01239,0.008179,-0.99115,0.220855,0.417099,-0.222595,46,274,576,5728
1644175500.976828,-0.011963,0.011414,-0.993164,0.144519,0.600305,-0.192061,52,275,579,5776
1644175501.025223,-0.006653,0.012878,-0.991089,0.312458,0.401832,-0.024122,40,265,586,5648
1644175501.073647,-0.00824,0.011108,-0.990173,0.251389,0.447634,-0.115725,55,274,573,5712
1644175501.121906,-0.010986,0.010315,-0.98877,0.281924,0.432366,-0.024122,67,269,580,5760
1644175501.17035,-0.007507,0.011353,-0.990601,0.266656,0.386565,-0.069924,49,277,579,5712
1644175501.218741,-0.009155,0.009766,-0.992676,0.190321,0.386565,-0.192061,57,275,570,5696
1644175501.267112,-0.009888,0.012634,-0.992676,0.266656,0.24916,0.006412,47,280,577,5840
1644175501.31553,-0.008545,0.010071,-0.989441,0.159786,0.340763,-0.024122,51,281,573,5696
1644175501.36393,-0.012085,0.012573,-0.991089,0.205588,0.508702,-0.100458,51,269,571,5728
1644175501.412297,-0.010559,0.012695,-0.989258,0.129252,0.401832,-0.268397,51,266,571,5712
1644175501.460706,-0.008179,0.007935,-0.99054,0.175053,0.386565,-0.100458,51,271,580,5728
1644175501.509075,-0.009583,0.008057,-0.991577,0.251389,0.447634,-0.130992,54,270,568,5776
1644175501.557482,-0.007507,0.011536,-0.990479,0.266656,0.356031,-0.054656,46,271,571,5808
1644175501.605869,-0.009033,0.008789,-0.989624,0.220855,0.417099,-0.176794,49,273,577,5776
1644175501.654264,-0.009583,0.010986,-0.99176,0.388794,0.386565,-0.008855,41,274,576,5712
1644175501.702672,-0.01001,0.011597,-0.991272,0.373527,0.371298,-0.176794,54,280,577,5712
1644175501.751035,-0.009033,0.011536,-0.990051,0.297191,0.386565,-0.14626,40,273,586,5824
1644175501.80031,-0.010864,0.008179,-0.991028,0.190321,0.371298,-0.085191,45,273,572,5760
1644175501.851212,-0.008118,0.011047,-0.992188,0.175053,0.539237,-0.115725,53,276,578,5712
1644175501.901971,-0.01062,0.010437,-0.989563,0.144519,0.447634,-0.100458,47,275,575,5760
1644175501.946052,-0.009644,0.010864,-0.990906,0.342992,0.432366,-0.008855,47,277,584,5808
1644175502.041435,-0.008606,0.009216,-0.992004,0.373527,0.447634,-0.085191,48,286,583,5696
1644175502.089894,-0.012756,0.00946,-0.992371,0.297191,0.24916,-0.085191,53,281,578,5760
1644175502.138172,-0.006775,0.009216,-0.991882,0.327725,0.310229,-0.039389,53,271,571,5712
1644175502.186558,-0.006104,0.012146,-0.991577,0.159786,0.371298,-0.207328,40,273,577,5712
1644175502.235006,-0.006775,0.009216,-0.988098,0.266656,0.294962,0.052214,51,274,564,5760
1644175502.283353,-0.009338,0.011475,-0.989929,0.175053,0.294962,-0.176794,52,275,570,5712
1644175502.331739,-0.008179,0.009521,-0.993286,0.205588,0.325496,-0.008855,48,271,578,5728
1644175502.380128,-0.009705,0.009949,-0.99231,0.220855,0.340763,-0.024122,54,265,572,5712
1644175502.428527,-0.008545,0.010559,-0.991821,0.266656,0.310229,-0.024122,57,265,575,5696
1644175502.476907,-0.00708,0.009644,-0.991943,0.236122,0.401832,-0.008855,49,280,575,5696
1644175502.52529,-0.008728,0.008972,-0.987915,0.205588,0.432366,-0.161527,49,277,582,5712
1644175502.573699,-0.007629,0.011292,-0.99408,0.205588,0.371298,-0.100458,54,277,579,5728
1644175502.622082,-0.009888,0.010437,-0.991211,0.175053,0.508702,-0.069924,52,273,575,5760
1644175502.670464,-0.011536,0.010132,-0.992371,0.052916,0.417099,-0.008855,53,279,585,5760
1644175502.718876,-0.008667,0.008057,-0.989868,0.190321,0.493435,-0.130992,51,276,578,5728
1644175502.767253,-0.008911,0.011719,-0.990479,0.190321,0.294962,0.082748,46,264,580,5776
1644175502.815701,-0.007874,0.007935,-0.991577,0.327725,0.279695,-0.130992,59,268,572,5696
1644175502.864079,-0.007385,0.009277,-0.99231,0.159786,0.371298,-0.008855,47,270,579,5712
1644175502.912503,-0.009338,0.011169,-0.990356,0.144519,0.478168,-0.130992,41,286,571,5712
1644175502.96241,-0.010132,0.008362,-0.99054,0.327725,0.417099,-0.192061,53,279,576,5760
1644175503.067906,-0.006714,0.009888,-0.990601,0.175053,0.310229,-0.024122,55,276,573,5760
1644175503.107131,-0.006348,0.011353,-0.992798,0.297191,0.447634,-0.115725,47,275,575,5728
1644175503.154397,-0.009583,0.012695,-0.987488,0.220855,0.432366,-0.039389,46,276,578,5760
1644175503.202795,-0.007629,0.013367,-0.993286,0.144519,0.523969,-0.283664,55,279,571,5824
1644175503.251148,-0.009521,0.008728,-0.991211,0.113985,0.356031,-0.115725,57,273,577,5728
1644175503.299535,-0.008606,0.010986,-0.991577,0.266656,0.462901,-0.100458,53,288,597,5664
1644175503.347929,-0.012146,0.011414,-0.991272,0.159786,0.523969,-0.054656,49,280,565,5808
1644175503.396339,-0.008728,0.00885,-0.989685,0.373527,0.325496,-0.115725,51,266,569,5696
1644175503.444764,-0.008789,0.00946,-0.989014,0.251389,0.600305,-0.054656,48,271,583,5712
1644175503.493108,-0.009094,0.009338,-0.989319,0.220855,0.340763,-0.207328,53,271,571,5776
1644175503.541509,-0.012451,0.009888,-0.990051,0.312458,0.310229,-0.039389,52,270,577,5760
1644175503.589903,-0.006287,0.013306,-0.991089,0.190321,0.447634,-0.161527,42,275,575,5712
1644175503.63829,-0.010315,0.011841,-0.991638,0.281924,0.432366,-0.008855,46,279,583,5712
1644175503.6867,-0.010498,0.010559,-0.98999,0.098718,0.554504,-0.054656,43,279,580,5728
1644175503.735763,-0.010254,0.011536,-0.989868,0.113985,0.447634,-0.237863,51,271,576,5808
1644175503.786387,-0.009033,0.011536,-0.989685,0.388794,0.432366,-0.115725,40,277,589,5824
1644175503.837445,-0.008911,0.010315,-0.99176,0.190321,0.371298,-0.207328,53,276,580,5664
1644175503.928678,-0.009216,0.010254,-0.990295,0.266656,0.615573,-0.115725,48,276,580,5696
1644175503.97706,-0.012573,0.009705,-0.989746,0.266656,0.539237,-0.039389,52,273,565,5728
1644175504.025424,-0.009888,0.008423,-0.990845,0.297191,0.493435,-0.115725,51,283,578,5760
1644175504.074709,-0.010132,0.008728,-0.993286,0.220855,0.356031,-0.298931,47,275,586,5776
1644175504.122451,-0.010437,0.010132,-0.988037,0.068183,0.401832,-0.222595,46,271,578,5760
1644175504.170585,-0.008911,0.009521,-0.990906,0.068183,0.294962,0.098015,46,269,580,5760
1644175504.218984,-0.009583,0.010132,-0.992371,0.236122,0.478168,-0.161527,51,286,578,5712
1644175504.267393,-0.012817,0.009155,-0.990112,0.297191,0.417099,-0.085191,55,276,573,5712
1644175504.315768,-0.009521,0.012512,-0.987854,0.159786,0.554504,-0.115725,55,264,578,5696
1644175504.364146,-0.009399,0.012146,-0.992126,0.342992,0.523969,-0.207328,45,287,577,5808
1644175504.412564,-0.007141,0.008423,-0.991577,0.251389,0.340763,0.006412,53,276,569,5728
1644175504.460941,-0.009766,0.009888,-0.989319,0.236122,0.24916,-0.085191,45,273,572,5840
1644175504.509302,-0.009949,0.009216,-0.98938,0.266656,0.432366,-0.039389,39,281,580,5728
1644175504.557733,-0.008972,0.012207,-0.989685,0.220855,0.356031,-0.14626,48,286,576,5712
1644175504.606116,-0.00769,0.010254,-0.993042,0.144519,0.264427,-0.222595,45,273,572,5808
1644175504.654519,-0.011108,0.009644,-0.991455,0.007115,0.401832,-0.069924,49,273,577,5728
1644175504.702913,-0.01062,0.009766,-0.990845,0.220855,0.386565,-0.069924,53,279,578,5760
1644175504.751257,-0.00946,0.01178,-0.990173,0.037649,0.447634,-0.085191,53,281,590,5808
1644175504.799674,-0.00824,0.011841,-0.991516,0.098718,0.356031,-0.054656,48,276,578,5760
1644175504.849026,-0.010864,0.010132,-0.990906,0.190321,0.432366,-0.14626,45,270,570,5696
1644175504.899161,-0.007568,0.012878,-0.991577,0.205588,0.508702,0.006412,58,281,583,5808
1644175504.949578,-0.009705,0.011597,-0.992126,0.159786,0.539237,-0.14626,48,276,580,5776
1644175504.994121,-0.010742,0.011414,-0.988953,0.266656,0.294962,-0.039389,61,275,577,5760
1644175505.094103,-0.008057,0.010071,-0.991821,0.220855,0.401832,-0.100458,48,283,592,5760
1644175505.138436,-0.008423,0.013367,-0.98822,0.297191,0.478168,-0.085191,48,281,585,5776
1644175505.186802,-0.010132,0.010376,-0.991211,0.144519,0.447634,0.052214,49,275,577,5760
1644175505.235192,-0.012329,0.007202,-0.992432,0.419328,0.432366,-0.085191,47,280,579,5696
1644175505.283566,-0.008606,0.006958,-0.991211,0.388794,0.493435,-0.069924,48,269,571,5808
1644175505.331986,-0.009949,0.008545,-0.990051,0.266656,0.310229,-0.024122,59,285,582,5728
1644175505.380371,-0.009644,0.01062,-0.990112,0.281924,0.478168,-0.024122,48,264,576,5776
1644175505.428754,-0.011292,0.009033,-0.991882,0.404061,0.356031,-0.130992,47,275,570,5760
1644175505.477137,-0.006531,0.009521,-0.990417,0.236122,0.432366,-0.25313,49,273,579,5760
1644175505.525532,-0.01001,0.012817,-0.99176,0.297191,0.371298,-0.085191,49,280,577,5760
1644175505.573945,-0.010803,0.010498,-0.992859,0.08345,0.386565,-0.085191,48,281,576,5776
1644175505.622337,-0.009338,0.009033,-0.990906,0.08345,0.462901,-0.161527,52,277,591,5776
1644175505.670711,-0.010803,0.011169,-0.992859,0.175053,0.462901,-0.115725,45,280,589,5664
1644175505.719104,-0.01062,0.00946,-0.993164,0.236122,0.447634,-0.115725,53,286,573,5760
1644175505.767472,-0.008301,0.013916,-0.990417,0.129252,0.462901,-0.130992,47,277,586,5712
1644175505.815862,-0.009033,0.009216,-0.991089,0.190321,0.417099,-0.024122,47,277,579,5712
1644175505.864314,-0.007751,0.009094,-0.992249,0.159786,0.462901,-0.222595,52,275,575,5760
1644175505.915483,-0.009094,0.010193,-0.987793,0.327725,0.371298,-0.085191,47,275,584,5696
1644175505.965651,-0.010925,0.010803,-0.990845,0.312458,0.554504,-0.115725,47,273,582,5760
1644175506.06752,-0.007263,0.007751,-0.989868,0.205588,0.264427,-0.222595,53,271,576,5696
1644175506.109074,-0.009399,0.009399,-0.991272,0.342992,0.432366,-0.024122,46,271,585,5808
1644175506.154678,-0.010498,0.009644,-0.990967,0.35826,0.356031,-0.008855,47,277,572,5712
1644175506.203028,-0.006775,0.009094,-0.992981,0.251389,0.508702,-0.222595,47,268,572,5728
1644175506.25138,-0.009705,0.008789,-0.991455,0.220855,0.279695,-0.14626,46,279,573,5712
1644175506.299802,-0.010681,0.009888,-0.989929,0.327725,0.523969,-0.069924,57,273,577,5808
1644175506.348186,-0.012512,0.01062,-0.993286,0.312458,0.478168,0.021679,55,286,573,5776
1644175506.396613,-0.010132,0.011169,-0.992432,0.342992,0.478168,-0.176794,46,271,576,5728
1644175506.445,-0.010437,0.010376,-0.990295,0.266656,0.462901,-0.161527,55,271,573,5728
1644175506.493369,-0.010559,0.010315,-0.990845,0.312458,0.585038,-0.024122,49,268,579,5728
1644175506.541751,-0.010864,0.01178,-0.991943,0.220855,0.478168,-0.115725,39,269,573,5776
1644175506.590136,-0.011292,0.010132,-0.991028,0.08345,0.462901,-0.192061,42,275,582,5728
1644175506.638525,-0.011536,0.010864,-0.993164,0.35826,0.478168,-0.100458,42,275,579,5776
1644175506.687244,-0.009705,0.009033,-0.99115,0.266656,0.340763,-0.115725,60,269,573,5824
1644175506.736196,-0.008789,0.008484,-0.9953,0.266656,0.401832,0.006412,58,269,578,5808
1644175506.787257,-0.007324,0.008606,-0.990723,0.266656,0.310229,-0.14626,53,271,576,5776
1644175506.836927,-0.010193,0.010986,-0.990479,0.113985,0.478168,-0.069924,45,265,572,5728
1644175506.92893,-0.01178,0.011414,-0.99292,0.220855,0.279695,-0.069924,52,285,568,5728
1644175506.977304,-0.009399,0.008179,-0.992798,0.159786,0.478168,-0.161527,55,269,576,5760
1644175507.025692,-0.011536,0.011353,-0.990356,0.236122,0.523969,-0.054656,51,269,576,5728
1644175507.074129,-0.00708,0.008423,-0.991394,0.266656,0.386565,-0.039389,54,268,586,5760
1644175507.122478,-0.008057,0.009521,-0.991882,0.190321,0.325496,-0.130992,48,279,583,5696
1644175507.170833,-0.011841,0.01239,-0.992676,0.220855,0.371298,-0.115725,49,280,572,5712
1644175507.219223,-0.011169,0.01001,-0.99292,0.190321,0.432366,-0.085191,54,280,570,5776
1644175507.267626,-0.010071,0.010437,-0.990601,0.312458,0.523969,-0.130992,51,271,571,5808
1644175507.315999,-0.008118,0.009705,-0.991577,0.220855,0.386565,-0.25313,43,276,576,5760
1644175507.364377,-0.012451,0.009216,-0.995605,0.297191,0.493435,-0.054656,55,274,571,5840
1644175507.412809,-0.00946,0.011841,-0.993164,0.251389,0.310229,-0.100458,43,271,576,5728
1644175507.461171,-0.011719,0.008911,-0.993774,0.373527,0.493435,-0.222595,45,268,572,5664
1644175507.509531,-0.009827,0.008423,-0.989746,0.190321,0.478168,-0.115725,52,270,568,5808
1644175507.557956,-0.008667,0.010193,-0.992126,0.175053,0.432366,-0.085191,52,277,582,5760
1644175507.606355,-0.008484,0.010559,-0.993164,0.205588,0.447634,-0.024122,47,285,575,5728
1644175507.654753,-0.010742,0.011047,-0.992615,0.236122,0.554504,-0.039389,53,269,576,5840
1644175507.703145,-0.008545,0.010193,-0.991516,0.205588,0.493435,-0.192061,53,271,573,5776
1644175507.751492,-0.010681,0.011108,-0.989075,0.266656,0.325496,-0.069924,48,279,573,5760
1644175507.800284,-0.010193,0.008972,-0.990967,0.404061,0.386565,-0.039389,61,275,575,5760
1644175507.850181,-0.010498,0.008301,-0.990234,0.037649,0.432366,-0.130992,46,288,583,5776
1644175507.900464,-0.006836,0.008362,-0.992737,0.205588,0.600305,-0.100458,48,279,571,5728
1644175507.950633,-0.008118,0.008179,-0.987549,0.327725,0.401832,-0.085191,49,273,570,5776
1644175508.041983,-0.011719,0.01178,-0.989319,0.327725,0.340763,-0.039389,53,279,573,5760
1644175508.090383,-0.00946,0.01062,-0.98999,0.297191,0.508702,-0.268397,43,271,592,5808
1644175508.138612,-0.011414,0.00885,-0.992859,0.190321,0.417099,-0.008855,47,275,570,5712
1644175508.187039,-0.009033,0.010193,-0.991577,0.35826,0.600305,-0.008855,53,276,576,5664
1644175508.235426,-0.012268,0.011841,-0.992554,0.236122,0.340763,-0.268397,55,266,585,5728
1644175508.283814,-0.010132,0.010437,-0.990601,0.159786,0.417099,-0.054656,45,273,579,5808
1644175508.332235,-0.009277,0.009583,-0.988464,0.281924,0.401832,-0.085191,52,270,572,5728
1644175508.380608,-0.009155,0.012146,-0.988831,0.037649,0.508702,-0.161527,54,280,572,5696
1644175508.428993,-0.010925,0.010864,-0.992493,0.327725,0.401832,0.036947,45,282,582,5712
1644175508.477401,-0.008057,0.010315,-0.987732,0.312458,0.493435,-0.192061,48,276,580,5696
1644175508.525781,-0.008484,0.00885,-0.993286,0.236122,0.447634,-0.054656,54,270,586,5760
1644175508.574183,-0.007996,0.00769,-0.991638,0.144519,0.417099,0.021679,47,273,572,5696
1644175508.622573,-0.010681,0.007935,-0.988403,0.327725,0.417099,-0.161527,46,274,576,5760
1644175508.670945,-0.008667,0.010803,-0.989441,0.251389,0.447634,-0.085191,53,274,585,5728
1644175508.719314,-0.010254,0.010986,-0.989075,0.297191,0.417099,-0.14626,46,274,580,5776
1644175508.767702,-0.006042,0.009766,-0.990295,0.251389,0.325496,-0.130992,64,277,582,5760
1644175508.816153,-0.006592,0.009583,-0.99176,0.175053,0.417099,-0.115725,55,269,576,5824
1644175508.864787,-0.006165,0.011719,-0.991028,0.144519,0.386565,-0.176794,47,275,575,5696
1644175508.912947,-0.008362,0.012207,-0.992493,0.312458,0.523969,-0.100458,54,268,582,5776
1644175508.962897,-0.007996,0.010742,-0.98877,0.35826,0.401832,-0.024122,58,276,569,5808
1644175509.066467,-0.012573,0.010254,-0.992493,0.129252,0.340763,-0.130992,54,263,586,5728
1644175509.109014,-0.008179,0.008362,-0.993591,0.266656,0.325496,-0.069924,49,277,589,5776
1644175509.154874,-0.008667,0.009216,-0.990906,0.342992,0.478168,-0.054656,51,281,569,5776
1644175509.203258,-0.007263,0.01062,-0.992737,0.327725,0.172824,-0.14626,53,283,585,5728
1644175509.251616,-0.009399,0.007874,-0.991638,0.144519,0.523969,-0.130992,57,290,582,5760
1644175509.300039,-0.008972,0.008728,-0.990662,0.266656,0.508702,-0.085191,42,277,579,5776
1644175509.348421,-0.007812,0.011536,-0.990967,0.342992,0.447634,-0.176794,48,271,576,5712
1644175509.396796,-0.009705,0.009033,-0.988831,0.205588,0.279695,-0.100458,51,286,578,5728
1644175509.445264,-0.010315,0.008362,-0.991089,0.281924,0.401832,-0.069924,52,268,582,5760
1644175509.493585,-0.009277,0.010681,-0.991699,0.205588,0.386565,-0.207328,53,276,573,5712
1644175509.541991,-0.011597,0.011414,-0.99054,0.144519,0.294962,-0.085191,55,281,573,5824
1644175509.590381,-0.008484,0.008728,-0.993164,0.281924,0.340763,-0.192061,52,265,577,5776
1644175509.638775,-0.010803,0.01123,-0.990967,0.35826,0.447634,-0.054656,57,270,575,5728
1644175509.687169,-0.011414,0.009888,-0.990112,0.205588,0.508702,-0.085191,53,276,573,5808
1644175509.73552,-0.009766,0.011536,-0.991333,0.144519,0.432366,0.021679,45,275,572,5696
1644175509.784073,-0.009277,0.007446,-0.993042,0.266656,0.493435,-0.130992,49,275,575,5728
1644175509.836024,-0.006165,0.012329,-0.990967,0.297191,0.478168,-0.008855,46,266,571,5696
1644175509.886248,-0.008545,0.007324,-0.993164,0.266656,0.371298,0.067481,54,263,584,5808
1644175509.930434,-0.010437,0.010132,-0.991943,0.297191,0.294962,-0.100458,55,279,576,5696
1644175510.025914,-0.011414,0.007751,-0.990417,0.205588,0.417099,-0.024122,52,270,582,5808
1644175510.074366,-0.010132,0.009766,-0.991333,0.144519,0.447634,-0.024122,49,273,582,5760
1644175510.122674,-0.011414,0.008423,-0.989197,0.342992,0.386565,-0.039389,52,280,572,5824
1644175510.171063,-0.013184,0.012146,-0.990784,0.236122,0.432366,-0.161527,52,263,582,5760
1644175510.219453,-0.011963,0.010681,-0.99115,0.327725,0.432366,-0.298931,47,275,575,5728
1644175510.267855,-0.008118,0.012207,-0.990662,0.266656,0.340763,-0.085191,46,281,578,5808
1644175510.31622,-0.006775,0.010193,-0.990601,0.327725,0.417099,-0.100458,42,285,577,5728
1644175510.364635,-0.009766,0.008667,-0.989685,0.159786,0.432366,-0.130992,46,276,587,5760
1644175510.413043,-0.011963,0.009827,-0.990112,0.205588,0.386565,-0.085191,48,276,578,5760
1644175510.461409,-0.010437,0.007568,-0.993286,0.434595,0.417099,-0.161527,52,275,582,5664
1644175510.509813,-0.013245,0.010803,-0.993896,0.251389,0.447634,-0.024122,51,271,571,5728
1644175510.558199,-0.006348,0.01062,-0.990051,0.190321,0.554504,-0.14626,57,273,579,5760
1644175510.606592,-0.012756,0.011108,-0.991821,0.327725,0.417099,0.036947,49,280,579,5776
1644175510.655177,-0.01062,0.010132,-0.992126,0.129252,0.371298,-0.176794,46,279,580,5760
1644175510.703385,-0.009277,0.012024,-0.989929,0.236122,0.447634,-0.100458,54,275,579,5760
1644175510.751736,-0.008179,0.011841,-0.990051,0.236122,0.401832,-0.100458,54,280,582,5760
1644175510.800144,-0.008484,0.013672,-0.990417,0.159786,0.340763,-0.237863,48,269,578,5824
1644175510.84858,-0.010803,0.009338,-0.992126,0.205588,0.523969,-0.222595,55,266,576,5728
1644175510.896984,-0.010132,0.010803,-0.992737,0.190321,0.340763,-0.161527,45,273,575,5712
1644175510.946388,-0.009949,0.010132,-0.989197,0.144519,0.478168,-0.008855,57,265,570,5728
1644175510.996798,-0.010986,0.009033,-0.992065,0.159786,0.447634,-0.008855,42,280,577,5808
1644175511.047081,-0.008057,0.01239,-0.989502,0.236122,0.371298,-0.100458,53,262,587,5760
1644175511.09309,-0.010132,0.012146,-0.990967,0.144519,0.523969,0.021679,49,269,583,5696
1644175511.187259,-0.009155,0.012634,-0.988831,0.312458,0.432366,-0.176794,46,279,576,5696
1644175511.235645,-0.009033,0.011047,-0.992371,0.236122,0.462901,-0.054656,40,275,575,5776
1644175511.284055,-0.009399,0.013611,-0.99231,0.251389,0.447634,-0.085191,64,263,572,5728
1644175511.332433,-0.006653,0.010864,-0.989624,0.098718,0.325496,-0.176794,51,283,562,5776
1644175511.380823,-0.009338,0.011902,-0.989807,0.297191,0.462901,-0.085191,51,274,562,5728
1644175511.429225,-0.008972,0.008362,-0.99292,0.205588,0.462901,0.006412,42,275,575,5808
1644175511.477617,-0.009827,0.010681,-0.991028,0.251389,0.340763,-0.130992,43,276,571,5808
1644175511.526008,-0.011475,0.007385,-0.991638,0.312458,0.417099,-0.008855,48,274,573,5760
1644175511.574414,-0.01001,0.009338,-0.991089,0.342992,0.523969,0.12855,39,274,578,5776
1644175511.622817,-0.009827,0.011841,-0.991699,0.144519,0.356031,-0.054656,41,274,573,5664
1644175511.671189,-0.010498,0.007935,-0.995178,0.144519,0.508702,-0.115725,49,280,577,5728
1644175511.719569,-0.00885,0.011597,-0.990967,0.404061,0.462901,-0.054656,48,274,573,5760
1644175511.767956,-0.010193,0.012634,-0.991821,0.159786,0.325496,-0.115725,51,276,576,5760
1644175511.816352,-0.008545,0.007446,-0.993896,0.159786,0.508702,-0.024122,55,276,580,5728
1644175511.864809,-0.004944,0.010071,-0.990356,0.220855,0.386565,-0.008855,52,285,577,5696
1644175511.913159,-0.00769,0.010803,-0.990601,0.297191,0.294962,-0.115725,51,276,569,5760
1644175511.961563,-0.010315,0.006775,-0.991455,0.373527,0.569771,-0.115725,49,268,568,5760
1644175512.010249,-0.010864,0.009521,-0.987915,0.190321,0.386565,-0.130992,36,274,578,5760
1644175512.070199,-0.004028,0.01416,-0.990906,0.35826,0.585038,-0.207328,51,281,585,5696
1644175512.113705,-0.011597,0.015015,-0.989502,0.068183,0.523969,-0.039389,54,273,589,5728
1644175512.157938,-0.004333,0.007874,-0.989868,0.281924,0.417099,-0.024122,49,277,577,5712
1644175512.207055,-0.011597,0.006958,-0.994202,0.281924,0.386565,-0.222595,51,276,566,5824
1644175512.257308,-0.010559,0.011658,-0.991882,0.312458,0.294962,-0.161527,47,280,579,5760
1644175512.348634,-0.009827,0.009583,-0.994202,0.251389,0.401832,-0.024122,54,273,582,5760
1644175512.397031,-0.007568,0.007507,-0.99176,0.129252,0.371298,-0.054656,55,274,573,5776
1644175512.445417,-0.009216,0.012268,-0.993103,0.35826,0.508702,-0.054656,49,273,586,5776
1644175512.493821,-0.01001,0.009277,-0.992981,0.251389,0.279695,0.036947,49,275,582,5696
1644175512.542467,-0.012695,0.011108,-0.989014,0.159786,0.340763,-0.008855,58,281,578,5712
1644175512.590604,-0.008789,0.009583,-0.992859,0.190321,0.447634,-0.039389,49,268,582,5728
1644175512.638996,-0.01001,0.00946,-0.99176,0.281924,0.478168,-0.085191,49,282,570,5760
1644175512.687402,-0.00885,0.011108,-0.988342,0.220855,0.24916,-0.085191,54,273,584,5728
1644175512.735781,-0.007935,0.010437,-0.99176,0.251389,0.356031,0.113282,58,269,571,5808
1644175512.784168,-0.008667,0.008545,-0.992188,0.251389,0.371298,-0.192061,49,277,568,5728
1644175512.832577,-0.009338,0.013062,-0.990479,0.205588,0.523969,-0.069924,53,274,580,5760
1644175512.880992,-0.007751,0.010925,-0.989868,0.266656,0.340763,-0.192061,51,266,583,5728
1644175512.929383,-0.011169,0.010681,-0.989929,0.205588,0.447634,-0.085191,49,275,568,5664
1644175512.977786,-0.008362,0.008423,-0.989319,0.327725,0.478168,-0.024122,48,276,580,5760
1644175513.02618,-0.007263,0.00946,-0.990295,0.220855,0.554504,-0.130992,49,280,570,5760
1644175513.095707,-0.00946,0.010437,-0.989319,0.281924,0.386565,-0.054656,47,280,572,5776
1644175513.125328,-0.009399,0.010254,-0.993286,0.129252,0.325496,-0.115725,53,276,576,5696
1644175513.175966,-0.008179,0.007385,-0.992737,0.373527,0.417099,-0.039389,47,273,565,5712
1644175513.224899,-0.008911,0.010437,-0.990845,0.205588,0.432366,-0.069924,47,277,582,5776
1644175513.316495,-0.009155,0.007507,-0.989258,0.327725,0.325496,-0.008855,55,266,576,5808
1644175513.36486,-0.008911,0.011108,-0.988831,0.236122,0.24916,-0.085191,51,271,576,5728
1644175513.413285,-0.009277,0.011536,-0.990967,0.190321,0.401832,-0.298931,49,273,582,5648
1644175513.46165,-0.01123,0.009827,-0.990173,0.113985,0.172824,-0.14626,48,281,566,5760
1644175513.510023,-0.009033,0.011353,-0.991211,0.205588,0.386565,-0.039389,47,270,579,5760
1644175513.558426,-0.007874,0.011353,-0.989868,0.205588,0.340763,-0.161527,42,280,582,5696
1644175513.606815,-0.00769,0.013,-0.992371,0.205588,0.340763,-0.054656,52,268,575,5776
1644175513.655206,-0.010559,0.009949,-0.990112,0.342992,0.523969,-0.176794,48,279,564,5712
1644175513.703602,-0.007629,0.007935,-0.98877,0.236122,0.310229,-0.054656,46,266,571,5760
1644175513.751969,-0.00769,0.01001,-0.991882,0.312458,0.478168,-0.039389,51,269,580,5696
1644175513.800381,-0.010498,0.010742,-0.991882,0.297191,0.417099,-0.130992,47,270,579,5696
1644175513.848774,-0.009949,0.011108,-0.992798,0.388794,0.493435,-0.100458,51,276,573,5712
1644175513.897213,-0.005676,0.011047,-0.991211,0.281924,0.325496,-0.14626,57,282,570,5760
1644175513.945598,-0.007507,0.010681,-0.989014,0.236122,0.615573,-0.069924,46,276,576,5728
1644175513.99398,-0.008484,0.00824,-0.99054,0.144519,0.493435,0.006412,51,288,580,5760
1644175514.042396,-0.009033,0.010681,-0.991943,0.159786,0.432366,-0.130992,48,269,583,5760
1644175514.090887,-0.010315,0.01001,-0.991882,0.281924,0.539237,-0.039389,46,281,585,5728
1644175514.139154,-0.009827,0.011353,-0.990845,0.266656,0.401832,-0.024122,61,275,575,5696
1644175514.187891,-0.008301,0.008423,-0.98938,0.312458,0.447634,-0.192061,52,270,563,5760
1644175514.237951,-0.010071,0.010071,-0.990051,0.266656,0.371298,-0.176794,51,274,580,5760
1644175514.288388,-0.008972,0.009644,-0.989929,0.220855,0.401832,-0.161527,48,274,578,5776
1644175514.338302,-0.011475,0.011719,-0.993286,0.312458,0.417099,-0.069924,60,276,576,5808
1644175514.429515,-0.010071,0.010864,-0.989746,0.281924,0.371298,-0.161527,45,275,586,5760
1644175514.477888,-0.009216,0.010315,-0.992004,0.281924,0.554504,-0.207328,46,279,576,5712
1644175514.526307,-0.009338,0.009888,-0.992432,0.220855,0.310229,-0.14626,47,268,582,5776
1644175514.5747,-0.010132,0.01239,-0.992004,0.220855,0.462901,-0.115725,46,279,576,5760
1644175514.623097,-0.009277,0.007263,-0.989136,0.220855,0.401832,-0.130992,39,274,573,5760
1644175514.67145,-0.009766,0.011902,-0.990112,0.144519,0.447634,-0.176794,48,274,587,5760
1644175514.719861,-0.009033,0.010925,-0.99054,0.281924,0.386565,-0.161527,54,270,568,5760
1644175514.768244,-0.010376,0.012695,-0.992981,0.342992,0.310229,-0.14626,48,274,571,5808
1644175514.816635,-0.009399,0.009644,-0.990601,0.159786,0.493435,-0.069924,46,279,573,5808
1644175514.865137,-0.010071,0.011108,-0.993286,0.175053,0.417099,-0.008855,52,268,565,5808
1644175514.913429,-0.011475,0.010986,-0.991211,0.266656,0.325496,-0.130992,58,271,573,5760
1644175514.961812,-0.009216,0.009033,-0.98999,0.266656,0.401832,-0.207328,48,271,585,5840
1644175515.010174,-0.009399,0.009583,-0.992249,0.251389,0.325496,-0.130992,48,276,578,5776
1644175515.073119,-0.009644,0.009155,-0.992432,0.159786,0.417099,-0.237863,42,277,589,5760
1644175515.106963,-0.010193,0.010376,-0.990906,0.175053,0.294962,-0.069924,49,273,582,5776
1644175515.155341,-0.010925,0.009277,-0.992371,0.205588,0.401832,-0.039389,64,275,579,5760
1644175515.203721,-0.009705,0.010071,-0.990662,0.312458,0.401832,-0.222595,57,277,582,5696
1644175515.252394,-0.008911,0.009521,-0.99054,0.113985,0.310229,0.006412,55,274,587,5696
1644175515.300526,-0.011902,0.009766,-0.993469,0.159786,0.508702,-0.069924,43,276,583,5760
1644175515.350869,-0.01001,0.011169,-0.990662,0.022382,0.447634,-0.161527,58,274,569,5776
1644175515.400383,-0.009949,0.010071,-0.991394,0.175053,0.371298,-0.069924,36,281,571,5760
1644175515.450739,-0.011292,0.009094,-0.993591,0.190321,0.310229,-0.14626,46,281,576,5728
1644175515.542485,-0.008179,0.012451,-0.991089,0.266656,0.233893,-0.100458,47,273,589,5776
1644175515.590873,-0.005798,0.011414,-0.991455,0.068183,0.371298,-0.069924,52,273,575,5712
1644175515.639241,-0.009399,0.012451,-0.989502,0.037649,0.386565,0.021679,54,277,577,5728
1644175515.687617,-0.008667,0.008728,-0.990845,0.312458,0.386565,0.067481,48,276,587,5824
1644175515.736023,-0.010254,0.010376,-0.991333,0.190321,0.356031,-0.085191,52,277,570,5760
1644175515.784418,-0.006531,0.013855,-0.992981,0.342992,0.478168,-0.192061,53,281,580,5808
1644175515.832879,-0.007263,0.011902,-0.992249,0.220855,0.432366,-0.176794,51,283,573,5760
1644175515.881242,-0.007812,0.014038,-0.992188,0.129252,0.386565,-0.192061,42,273,572,5776
1644175515.929635,-0.008789,0.011902,-0.98938,0.342992,0.508702,-0.085191,52,273,568,5760
1644175515.978025,-0.010376,0.010132,-0.993286,0.236122,0.386565,-0.024122,42,280,565,5712
1644175516.026415,-0.008728,0.010254,-0.991455,0.190321,0.24916,-0.222595,51,274,585,5664
1644175516.090527,-0.006836,0.011963,-0.991699,0.251389,0.386565,-0.115725,48,274,573,5776
1644175516.12318,-0.008057,0.01062,-0.990723,0.373527,0.478168,-0.039389,47,277,586,5808
1644175516.171531,-0.010742,0.011047,-0.99054,0.220855,0.432366,-0.069924,52,277,575,5776
1644175516.219921,-0.01001,0.009705,-0.99054,0.159786,0.386565,-0.024122,55,271,571,5696
1644175516.268318,-0.009766,0.009644,-0.993958,0.297191,0.401832,-0.14626,54,270,586,5760
1644175516.316708,-0.009521,0.010742,-0.990601,0.220855,0.356031,-0.298931,47,273,572,5760
1644175516.365188,-0.009766,0.01123,-0.990356,0.266656,0.356031,-0.130992,53,266,576,5728
1644175516.413519,-0.009766,0.007812,-0.993713,0.159786,0.386565,-0.192061,48,274,578,5776
1644175516.463274,-0.010071,0.01178,-0.991272,0.266656,0.386565,-0.100458,45,275,589,5696
1644175516.513428,-0.013245,0.010742,-0.991089,0.205588,0.356031,-0.069924,57,280,575,5776
1644175516.563651,-0.009277,0.011597,-0.990112,0.08345,0.24916,-0.069924,57,280,582,5776
1644175516.655445,-0.010071,0.008972,-0.993774,0.129252,0.401832,-0.085191,46,274,573,5808
1644175516.703837,-0.008606,0.009949,-0.993042,0.251389,0.371298,-0.115725,45,275,579,5728
1644175516.752401,-0.009338,0.010986,-0.992371,0.266656,0.279695,-0.192061,53,266,580,5760
1644175516.800617,-0.008484,0.010559,-0.992126,0.129252,0.386565,-0.039389,48,274,573,5712
1644175516.849049,-0.007385,0.012329,-0.993835,0.190321,0.325496,-0.130992,53,271,583,5728
1644175516.897442,-0.009277,0.008545,-0.992554,0.190321,0.493435,-0.207328,49,280,572,5712
1644175516.945841,-0.00824,0.010132,-0.990906,0.098718,0.264427,-0.176794,57,268,579,5728
1644175516.994232,-0.00946,0.012817,-0.991577,0.434595,0.417099,-0.176794,53,266,585,5696
1644175517.042644,-0.007751,0.010803,-0.990784,0.251389,0.371298,-0.008855,45,273,572,5696
1644175517.091072,-0.00824,0.009888,-0.993042,0.297191,0.447634,-0.054656,48,279,578,5728
1644175517.139362,-0.008667,0.009888,-0.989502,0.236122,0.447634,-0.024122,47,280,572,5808
1644175517.187742,-0.007935,0.010803,-0.989624,0.297191,0.462901,-0.268397,62,274,578,5760
1644175517.236156,-0.010315,0.01001,-0.991516,0.175053,0.462901,-0.085191,43,279,583,5760
1644175517.284544,-0.012207,0.014832,-0.990479,0.327725,0.371298,-0.130992,58,281,583,5712
1644175517.332941,-0.010803,0.009827,-0.991455,0.35826,0.310229,-0.115725,53,266,580,5760
1644175517.381284,-0.010193,0.008911,-0.992798,0.297191,0.279695,-0.176794,57,282,575,5760
1644175517.42968,-0.009094,0.007629,-0.991333,0.205588,0.478168,-0.100458,52,270,584,5776
1644175517.478094,-0.010925,0.010498,-0.992065,0.236122,0.417099,-0.039389,58,276,580,5696
1644175517.526484,-0.009583,0.010254,-0.990967,0.08345,0.447634,-0.008855,54,277,575,5728
1644175517.575345,-0.009216,0.00824,-0.993225,0.144519,0.462901,-0.115725,57,270,579,5824
1644175517.626084,-0.011108,0.011841,-0.989197,0.388794,0.417099,0.006412,55,274,573,5824
1644175517.676198,-0.008728,0.011658,-0.990173,0.144519,0.294962,-0.024122,59,277,586,5728
1644175517.721179,-0.011536,0.009705,-0.989258,0.236122,0.325496,-0.14626,40,273,577,5760
1644175517.816812,-0.008118,0.012695,-0.992249,0.098718,0.432366,-0.100458,47,273,570,5760
1644175517.865459,-0.011292,0.011047,-0.991394,0.327725,0.432366,-0.130992,48,281,569,5760
1644175517.91367,-0.008667,0.009277,-0.99231,0.251389,0.356031,-0.161527,46,269,569,5776
1644175517.962041,-0.010742,0.010498,-0.993286,0.129252,0.356031,-0.329466,52,282,586,5728
1644175518.010423,-0.007324,0.009216,-0.989563,0.236122,0.508702,-0.085191,48,281,571,5696
1644175518.064771,-0.013489,0.008301,-0.990295,0.220855,0.294962,-0.069924,53,283,580,5712
1644175518.107163,-0.009094,0.009033,-0.991272,0.08345,0.401832,0.067481,43,266,583,5760
1644175518.155569,-0.00946,0.010559,-0.991394,0.373527,0.523969,-0.069924,43,279,580,5728
1644175518.203964,-0.010254,0.008606,-0.992554,0.312458,0.462901,-0.100458,52,277,572,5712
1644175518.252342,-0.010742,0.013062,-0.990112,0.175053,0.417099,-0.237863,46,274,583,5776
1644175518.300743,-0.009216,0.011353,-0.990173,0.312458,0.447634,-0.054656,51,276,580,5776
1644175518.349134,-0.009033,0.011902,-0.994141,0.266656,0.432366,-0.039389,45,280,577,5696
1644175518.397516,-0.009216,0.011353,-0.992249,0.190321,0.386565,-0.192061,48,279,580,5712
1644175518.445918,-0.01001,0.011169,-0.992126,0.205588,0.371298,-0.14626,47,280,572,5696
1644175518.494656,-0.007202,0.008423,-0.991272,0.404061,0.264427,-0.176794,55,269,585,5696
1644175518.542727,-0.008057,0.011353,-0.990845,0.190321,0.310229,-0.14626,49,275,577,5824
1644175518.591083,-0.010559,0.006348,-0.992126,0.190321,0.615573,-0.207328,47,273,586,5712
1644175518.639465,-0.010376,0.009033,-0.991516,0.144519,0.325496,0.067481,51,274,576,5696
1644175518.688047,-0.010437,0.010376,-0.989929,0.175053,0.417099,-0.161527,49,270,577,5776
1644175518.736941,-0.010803,0.008972,-0.992615,0.205588,0.356031,-0.176794,54,273,572,5728
1644175518.787498,-0.00885,0.008484,-0.991516,0.220855,0.218626,-0.100458,52,275,565,5808
1644175518.837959,-0.009705,0.011292,-0.99231,0.251389,0.417099,-0.268397,54,270,577,5808
1644175518.882957,-0.008057,0.008667,-0.990417,0.236122,0.447634,0.021679,49,280,572,5728
1644175518.978261,-0.009583,0.013245,-0.990845,0.098718,0.523969,-0.161527,40,280,577,5840
1644175519.026628,-0.012207,0.007751,-0.991638,0.251389,0.432366,-0.130992,52,270,579,5728
1644175519.07519,-0.009644,0.010254,-0.989746,0.266656,0.508702,-0.054656,46,279,583,5760
1644175519.123406,-0.008667,0.010803,-0.989746,0.251389,0.432366,-0.161527,53,274,576,5824
1644175519.171776,-0.008423,0.008728,-0.991089,0.068183,0.371298,-0.237863,57,273,572,5776
1644175519.220161,-0.009521,0.011597,-0.990479,0.266656,0.401832,-0.115725,47,270,575,5728
1644175519.268529,-0.01178,0.008179,-0.994751,0.266656,0.462901,-0.085191,46,266,573,5776
1644175519.316948,-0.013855,0.011475,-0.990173,0.129252,0.340763,-0.100458,48,271,576,5776
1644175519.36535,-0.01001,0.011963,-0.992188,0.205588,0.371298,-0.161527,54,277,579,5728
1644175519.413882,-0.009766,0.009094,-0.99231,0.251389,0.447634,-0.314198,49,273,579,5712
1644175519.462241,-0.008606,0.011108,-0.992554,0.251389,0.386565,-0.115725,46,271,571,5760
1644175519.51049,-0.00946,0.011719,-0.990295,0.297191,0.447634,-0.039389,52,285,565,5760
1644175519.558916,-0.008972,0.012207,-0.989807,0.129252,0.401832,-0.115725,51,281,573,5712
1644175519.607291,-0.01001,0.009766,-0.991821,0.251389,0.325496,-0.161527,55,281,578,5712
1644175519.6557,-0.008667,0.013855,-0.990967,0.281924,0.325496,-0.069924,55,264,583,5776
1644175519.704071,-0.012207,0.009583,-0.991821,0.205588,0.462901,-0.130992,47,277,575,5776
1644175519.752464,-0.010742,0.008789,-0.989807,0.281924,0.386565,-0.100458,47,287,577,5728
1644175519.800851,-0.010681,0.009277,-0.99408,0.312458,0.432366,-0.14626,49,265,577,5760
1644175519.8493,-0.01001,0.00946,-0.987061,0.236122,0.386565,-0.207328,45,270,586,5712
1644175519.899055,-0.009949,0.010986,-0.991211,0.266656,0.340763,-0.024122,39,274,573,5760
1644175519.949311,-0.010315,0.008789,-0.989136,0.175053,0.462901,-0.054656,46,274,576,5696
1644175519.999526,-0.00824,0.01239,-0.990662,0.190321,0.447634,-0.222595,51,281,578,5760
1644175520.091773,-0.009705,0.011353,-0.991089,0.205588,0.264427,-0.085191,52,275,572,5760
1644175520.139626,-0.00946,0.009888,-0.993164,0.022382,0.462901,-0.25313,40,280,570,5712
1644175520.187983,-0.009888,0.008545,-0.988525,0.190321,0.325496,-0.054656,40,273,572,5696
1644175520.23637,-0.01062,0.009521,-0.991577,0.251389,0.279695,-0.085191,47,270,584,5728
1644175520.284759,-0.008362,0.012329,-0.991272,0.205588,0.539237,-0.054656,52,280,577,5712
1644175520.333169,-0.008484,0.005249,-0.991455,0.220855,0.508702,-0.268397,55,259,571,5760
1644175520.381558,-0.007812,0.007202,-0.99231,0.281924,0.340763,-0.207328,41,279,571,5776
1644175520.429948,-0.008362,0.006165,-0.99231,0.205588,0.340763,-0.085191,51,266,578,5760
1644175520.47834,-0.009155,0.007202,-0.990845,0.037649,0.386565,0.006412,42,273,579,5712
1644175520.526714,-0.010315,0.011169,-0.990967,0.159786,0.432366,-0.069924,47,275,582,5712
1644175520.575214,-0.007996,0.010132,-0.990784,0.281924,0.386565,-0.176794,48,269,576,5728
1644175520.623507,-0.009827,0.008545,-0.989441,0.236122,0.386565,-0.039389,48,281,580,5712
1644175520.671903,-0.009827,0.009705,-0.98999,0.220855,0.462901,0.067481,53,271,578,5776
1644175520.720289,-0.010071,0.009583,-0.991516,0.251389,0.447634,-0.14626,54,270,577,5760
1644175520.768679,-0.010315,0.012695,-0.990356,0.236122,0.417099,-0.024122,53,283,585,5712
1644175520.817068,-0.009766,0.008301,-0.991028,0.35826,0.386565,-0.024122,58,271,580,5696
1644175520.865506,-0.013489,0.009094,-0.990479,0.297191,0.294962,-0.222595,51,274,576,5776
1644175520.914258,-0.008789,0.010681,-0.99353,0.113985,0.417099,-0.085191,48,276,573,5760
1644175520.962438,-0.007751,0.010376,-0.991577,0.144519,0.493435,-0.115725,48,279,587,5808
1644175521.068821,-0.00885,0.009399,-0.99115,0.342992,0.340763,-0.14626,41,276,578,5712
1644175521.107405,-0.008118,0.010986,-0.991516,0.297191,0.356031,-0.008855,46,281,580,5760
1644175521.155806,-0.010132,0.011414,-0.987671,0.175053,0.325496,-0.085191,47,277,577,5696
1644175521.204202,-0.009399,0.009521,-0.98938,0.175053,0.462901,0.052214,47,282,577,5776
1644175521.252575,-0.008423,0.010254,-0.989197,0.281924,0.462901,-0.161527,51,281,569,5808
1644175521.300977,-0.007996,0.011169,-0.990173,0.312458,0.585038,-0.024122,55,279,583,5760
1644175521.349371,-0.009155,0.009644,-0.994019,0.159786,0.386565,-0.298931,42,277,575,5696
1644175521.39775,-0.01062,0.010071,-0.992432,0.266656,0.218626,-0.100458,47,273,577,5760
1644175521.446142,-0.012634,0.008118,-0.99054,0.266656,0.310229,-0.039389,55,271,587,5712
1644175521.494533,-0.011841,0.009766,-0.993774,0.342992,0.264427,-0.25313,62,274,578,5808
1644175521.542941,-0.006287,0.010742,-0.992676,0.098718,0.615573,-0.115725,52,265,582,5696
1644175521.591316,-0.00824,0.011108,-0.991211,0.266656,0.279695,-0.054656,49,275,586,5696
1644175521.639711,-0.01178,0.010437,-0.990845,0.144519,0.386565,-0.130992,45,270,575,5808
1644175521.688105,-0.011108,0.008362,-0.990906,0.388794,0.447634,-0.176794,49,275,577,5728
1644175521.736934,-0.012878,0.010376,-0.990784,0.205588,0.356031,-0.222595,46,269,571,5728
1644175521.787548,-0.01062,0.012146,-0.990845,0.266656,0.600305,-0.008855,52,270,575,5760
1644175521.838147,-0.008789,0.011292,-0.989563,0.190321,0.279695,-0.14626,51,276,585,5728
1644175521.882542,-0.007446,0.010925,-0.990601,0.327725,0.310229,-0.161527,48,279,573,5808
1644175521.978466,-0.011169,0.009155,-0.991028,0.266656,0.371298,-0.085191,53,274,569,5696
1644175522.026863,-0.010742,0.011597,-0.990356,0.297191,0.264427,-0.14626,62,266,580,5696
1644175522.075372,-0.008606,0.011475,-0.990417,0.175053,0.462901,-0.14626,51,276,569,5728
1644175522.124714,-0.012939,0.008911,-0.990173,0.098718,0.294962,-0.192061,41,271,564,5808
1644175522.172011,-0.009521,0.005371,-0.98877,0.419328,0.417099,-0.024122,55,276,569,5728
1644175522.220397,-0.010437,0.01123,-0.992493,0.312458,0.340763,-0.100458,47,275,584,5696
1644175522.268797,-0.010437,0.010315,-0.98938,0.220855,0.386565,-0.100458,49,270,568,5808
1644175522.317187,-0.014343,0.010559,-0.990784,0.281924,0.554504,-0.085191,48,269,576,5728
1644175522.365579,-0.008972,0.010742,-0.99292,0.266656,0.371298,-0.085191,51,271,580,5760
1644175522.413978,-0.011719,0.009216,-0.992554,0.251389,0.417099,0.021679,51,274,580,5824
1644175522.462361,-0.011108,0.011108,-0.993103,0.220855,0.493435,-0.024122,52,273,577,5808
1644175522.510731,-0.009827,0.012146,-0.987793,0.220855,0.386565,-0.207328,53,274,573,5776
1644175522.55913,-0.010315,0.010437,-0.992981,0.08345,0.432366,-0.192061,55,276,569,5664
1644175522.607528,-0.007629,0.009155,-0.991821,0.08345,0.279695,-0.237863,49,277,570,5712
1644175522.655923,-0.011108,0.010986,-0.990723,0.281924,0.508702,-0.268397,47,280,579,5776
1644175522.70431,-0.010742,0.011597,-0.991272,0.281924,0.356031,-0.14626,53,269,583,5712
1644175522.752683,-0.01001,0.010071,-0.989502,0.190321,0.325496,0.021679,48,279,587,5728
1644175522.801142,-0.010315,0.012085,-0.990784,0.373527,0.417099,-0.100458,54,275,577,5776
1644175522.849542,-0.010132,0.009644,-0.990356,0.373527,0.401832,-0.176794,45,273,577,5696
1644175522.898941,-0.007996,0.010498,-0.989258,0.251389,0.188092,0.052214,48,271,573,5760
1644175522.949006,-0.010071,0.010376,-0.991821,0.205588,0.478168,0.021679,54,277,577,5776
1644175522.999388,-0.01062,0.011047,-0.990845,0.251389,0.432366,-0.130992,55,279,569,5712
1644175523.043994,-0.009094,0.011414,-0.990173,0.159786,0.371298,-0.039389,46,274,573,5840
1644175523.139825,-0.011292,0.011169,-0.990906,0.007115,0.356031,-0.130992,53,271,576,5728
1644175523.18821,-0.009338,0.010803,-0.992188,0.068183,0.401832,-0.008855,42,275,575,5776
1644175523.236596,-0.008728,0.009888,-0.993835,0.449863,0.340763,-0.100458,49,275,579,5776
1644175523.285259,-0.010254,0.010986,-0.993164,0.281924,0.279695,-0.207328,49,277,572,5728
1644175523.333401,-0.010132,0.010864,-0.990784,0.266656,0.386565,-0.085191,49,273,579,5696
1644175523.3818,-0.007996,0.009888,-0.991516,0.205588,0.523969,-0.100458,33,268,577,5664
1644175523.430184,-0.007751,0.00946,-0.989014,0.404061,0.371298,-0.115725,41,274,578,5760
1644175523.478568,-0.008911,0.00946,-0.991882,0.205588,0.386565,-0.115725,52,280,570,5776
1644175523.526965,-0.012085,0.010254,-0.991638,0.327725,0.539237,-0.024122,53,274,587,5712
1644175523.575353,-0.010376,0.010559,-0.991516,0.220855,0.432366,-0.054656,53,266,566,5664
1644175523.623737,-0.006531,0.010742,-0.992371,0.266656,0.386565,-0.237863,47,273,572,5808
1644175523.672314,-0.010559,0.008728,-0.990845,0.342992,0.539237,-0.14626,65,274,576,5664
1644175523.720527,-0.008545,0.010681,-0.993652,0.236122,0.493435,-0.100458,48,264,566,5696
1644175523.768914,-0.009521,0.010437,-0.993225,0.297191,0.310229,-0.024122,53,283,578,5824
1644175523.817358,-0.007629,0.010925,-0.99231,0.037649,0.462901,-0.100458,52,270,586,5760
1644175523.865734,-0.009705,0.00708,-0.990601,0.327725,0.417099,0.052214,49,270,582,5728
1644175523.914132,-0.012085,0.00946,-0.993103,0.251389,0.539237,-0.283664,46,279,583,5728
1644175523.962832,-0.009033,0.010254,-0.991028,0.220855,0.478168,-0.100458,54,275,586,5696
1644175524.064018,-0.009033,0.010071,-0.990295,0.220855,0.447634,-0.008855,51,279,590,5760
1644175524.108258,-0.009949,0.007812,-0.991821,0.190321,0.401832,-0.207328,52,280,577,5696
1644175524.156032,-0.007324,0.010193,-0.991516,0.205588,0.264427,-0.039389,57,277,570,5776
1644175524.204442,-0.010437,0.00946,-0.992188,0.312458,0.508702,-0.192061,46,274,576,5696
1644175524.252813,-0.008179,0.008545,-0.990845,0.190321,0.294962,-0.069924,46,271,580,5760
1644175524.301204,-0.009644,0.011475,-0.98999,0.159786,0.294962,-0.085191,47,273,577,5728
1644175524.349605,-0.008484,0.009888,-0.989197,0.205588,0.539237,-0.14626,53,269,573,5712
1644175524.397995,-0.009399,0.01123,-0.991394,0.342992,0.417099,-0.222595,53,293,573,5808
1644175524.446381,-0.008301,0.011475,-0.991638,0.281924,0.462901,-0.176794,49,285,570,5760
1644175524.494757,-0.008484,0.009766,-0.992859,0.205588,0.417099,-0.207328,59,273,563,5760
1644175524.543186,-0.006714,0.011292,-0.990723,0.175053,0.340763,-0.14626,53,264,566,5760
1644175524.59157,-0.008423,0.01001,-0.989075,0.08345,0.447634,-0.054656,52,270,584,5696
1644175524.639928,-0.00824,0.008118,-0.99115,0.098718,0.539237,-0.085191,47,285,575,5728
1644175524.688358,-0.008423,0.010437,-0.991333,0.098718,0.356031,-0.222595,43,281,583,5728
1644175524.736738,-0.009216,0.010254,-0.99353,0.129252,0.371298,-0.100458,47,277,582,5760
1644175524.78516,-0.007812,0.010742,-0.991211,0.190321,0.401832,-0.054656,47,273,575,5824
1644175524.833683,-0.008972,0.008057,-0.992126,0.251389,0.371298,-0.115725,49,273,577,5712
1644175524.883882,-0.010925,0.01123,-0.99353,0.08345,0.447634,-0.085191,60,274,580,5760
1644175524.934105,-0.009888,0.009521,-0.990356,0.159786,0.310229,-0.25313,61,260,579,5696
1644175524.984076,-0.008179,0.011353,-0.989929,0.190321,0.417099,-0.115725,58,276,580,5808
1644175525.029104,-0.009155,0.008301,-0.992432,0.129252,0.447634,-0.207328,53,276,576,5696
1644175525.123908,-0.011292,0.009033,-0.989563,0.190321,0.401832,-0.115725,46,283,566,5840
1644175525.172404,-0.009888,0.01001,-0.992371,0.175053,0.356031,-0.207328,61,275,577,5776
1644175525.220644,-0.011353,0.011047,-0.990967,0.251389,0.203359,-0.25313,49,270,575,5776
1644175525.269031,-0.012878,0.011169,-0.990906,0.236122,0.371298,0.021679,46,271,573,5664
1644175525.317423,-0.009155,0.009216,-0.994934,0.068183,0.264427,-0.085191,46,279,578,5808
1644175525.365802,-0.006775,0.010498,-0.993774,0.220855,0.432366,0.006412,45,282,577,5696
1644175525.414206,-0.008728,0.01062,-0.991516,0.129252,0.478168,-0.008855,51,271,566,5776
1644175525.462605,-0.011169,0.009644,-0.992188,0.281924,0.340763,-0.039389,49,273,577,5776
1644175525.511,-0.009399,0.011353,-0.990295,0.236122,0.462901,-0.100458,51,264,564,5712
1644175525.559358,-0.010132,0.011047,-0.992126,0.098718,0.447634,-0.192061,42,277,575,5776
1644175525.607769,-0.008667,0.012268,-0.992065,0.266656,0.432366,-0.100458,40,285,579,5760
1644175525.656167,-0.009644,0.010071,-0.991211,0.266656,0.508702,-0.161527,47,270,570,5808
1644175525.704717,-0.01178,0.012451,-0.991821,0.113985,0.447634,-0.222595,46,264,573,5808
1644175525.75296,-0.010498,0.009399,-0.99292,0.281924,0.432366,-0.192061,48,274,576,5696
1644175525.801342,-0.011292,0.011414,-0.992371,0.266656,0.371298,-0.14626,52,273,577,5696
1644175525.849762,-0.012146,0.012878,-0.990234,0.098718,0.386565,-0.192061,57,270,577,5760
1644175525.898162,-0.010437,0.011353,-0.989746,0.129252,0.401832,-0.222595,48,276,566,5760
1644175525.94659,-0.008179,0.009827,-0.990173,0.190321,0.447634,-0.039389,52,273,572,5760
1644175525.99496,-0.005371,0.008789,-0.992798,0.190321,0.401832,-0.176794,51,279,571,5776
1644175526.094006,-0.00885,0.014038,-0.990356,0.236122,0.493435,-0.130992,51,279,573,5696
1644175526.140077,-0.010132,0.010742,-0.993042,0.190321,0.340763,-0.192061,49,273,568,5760
1644175526.18845,-0.009521,0.010376,-0.994629,0.052916,0.356031,-0.085191,46,274,573,5728
1644175526.236848,-0.01239,0.011292,-0.992859,0.220855,0.24916,-0.222595,47,275,568,5776
1644175526.285238,-0.010864,0.00885,-0.991821,0.08345,0.447634,-0.085191,43,271,578,5728
1644175526.333636,-0.010986,0.010193,-0.994873,0.35826,0.386565,-0.115725,48,271,573,5760
1644175526.382023,-0.009216,0.012085,-0.990356,0.190321,0.508702,-0.161527,47,268,568,5712
1644175526.430415,-0.008362,0.010986,-0.990051,0.220855,0.432366,-0.14626,49,273,579,5760
1644175526.478809,-0.010132,0.00946,-0.991272,0.220855,0.325496,-0.100458,49,273,579,5760
1644175526.527195,-0.010925,0.007263,-0.989258,0.266656,0.417099,-0.222595,53,271,576,5760
1644175526.575592,-0.008911,0.00769,-0.991211,0.266656,0.264427,-0.14626,58,271,578,5728
1644175526.623955,-0.008728,0.00708,-0.989624,0.236122,0.432366,-0.008855,49,277,572,5824
1644175526.672386,-0.007568,0.012268,-0.992676,0.220855,0.447634,-0.024122,54,282,579,5760
1644175526.720763,-0.006409,0.009277,-0.989929,0.022382,0.417099,-0.222595,52,275,577,5760
1644175526.769149,-0.008911,0.007263,-0.992004,-0.008153,0.508702,0.006412,57,277,575,5760
1644175526.817544,-0.008362,0.008789,-0.991821,0.113985,0.493435,-0.222595,48,283,578,5808
1644175526.865946,-0.01062,0.008606,-0.991577,0.098718,0.264427,-0.008855,48,274,578,5808
1644175526.914719,-0.008301,0.008911,-0.988281,0.190321,0.325496,-0.115725,41,283,585,5760
1644175526.965547,-0.009888,0.00769,-0.991943,0.205588,0.417099,-0.237863,55,286,573,5760
1644175527.06933,-0.007141,0.011902,-0.99115,0.098718,0.371298,-0.14626,57,265,584,5696
1644175527.107877,-0.009521,0.009155,-0.990295,0.190321,0.386565,-0.085191,61,270,582,5728
1644175527.156305,-0.009094,0.012695,-0.991882,0.068183,0.340763,-0.14626,53,274,578,5760
1644175527.204692,-0.007568,0.011047,-0.988098,0.175053,0.447634,-0.161527,36,269,571,5728
1644175527.253041,-0.008423,0.011047,-0.993103,0.205588,0.356031,-0.25313,48,281,578,5808
1644175527.301453,-0.009827,0.010925,-0.991882,0.388794,0.310229,-0.161527,52,273,570,5712
1644175527.349822,-0.011536,0.010803,-0.993347,0.312458,0.417099,-0.14626,48,281,576,5760
1644175527.398222,-0.007202,0.010254,-0.990662,0.297191,0.356031,-0.115725,42,285,577,5776
1644175527.446614,-0.009888,0.010559,-0.99353,0.297191,0.325496,-0.085191,45,275,579,5696
1644175527.495064,-0.007202,0.009766,-0.992249,0.190321,0.310229,-0.069924,55,276,569,5728
1644175527.543409,-0.013,0.010315,-0.990417,0.220855,0.386565,-0.024122,55,271,580,5840
1644175527.591792,-0.012146,0.008972,-0.988586,0.159786,0.417099,-0.222595,49,273,584,5712
1644175527.640187,-0.012817,0.010864,-0.991882,0.312458,0.386565,-0.176794,48,274,576,5696
1644175527.688556,-0.009888,0.010437,-0.992737,0.281924,0.371298,-0.36,51,269,569,5760
1644175527.737341,-0.008972,0.010925,-0.991577,0.327725,0.432366,-0.222595,54,273,570,5712
1644175527.787582,-0.009033,0.010803,-0.98938,0.236122,0.417099,-0.130992,52,273,568,5760
1644175527.837803,-0.010132,0.011292,-0.992798,0.297191,0.371298,-0.100458,47,268,575,5760
1644175527.882973,-0.00769,0.009216,-0.990662,0.08345,0.432366,-0.085191,53,274,573,5776
1644175527.978961,-0.011353,0.007935,-0.992371,0.220855,0.447634,-0.100458,55,271,583,5728
1644175528.027352,-0.010254,0.010803,-0.989868,0.281924,0.386565,-0.100458,46,269,576,5664
1644175528.075796,-0.010376,0.01001,-0.991333,0.236122,0.401832,-0.161527,52,282,582,5776
1644175528.12411,-0.009155,0.009705,-0.992493,0.175053,0.264427,-0.176794,59,273,579,5776
1644175528.172504,-0.00708,0.009521,-0.992676,0.266656,0.417099,-0.130992,47,273,575,5760
1644175528.220872,-0.007446,0.010742,-0.990784,0.312458,0.371298,-0.115725,55,279,578,5808
1644175528.269283,-0.009583,0.009827,-0.989685,0.190321,0.478168,-0.222595,41,269,583,5760
1644175528.317662,-0.010071,0.008606,-0.992981,0.220855,0.417099,-0.115725,58,281,585,5760
1644175528.366049,-0.010498,0.010803,-0.990723,0.327725,0.401832,-0.039389,51,281,576,5776
1644175528.414459,-0.009216,0.011719,-0.988403,0.113985,0.462901,-0.069924,42,287,579,5760
1644175528.462847,-0.008362,0.008606,-0.990784,0.266656,0.447634,0.021679,48,276,578,5808
1644175528.511194,-0.011292,0.01062,-0.989441,0.205588,0.325496,-0.176794,45,273,570,5696
1644175528.559844,-0.009949,0.010742,-0.993469,0.08345,0.386565,0.021679,41,283,578,5776
1644175528.607979,-0.00824,0.013245,-0.99231,0.205588,0.493435,-0.085191,55,262,566,5712
1644175528.656391,-0.010376,0.010376,-0.989563,0.236122,0.386565,-0.207328,59,270,579,5696
1644175528.704799,-0.008179,0.014526,-0.993103,0.190321,0.310229,-0.176794,46,271,573,5776
1644175528.75316,-0.007019,0.010254,-0.990845,0.159786,0.310229,-0.176794,54,282,570,5712
1644175528.802371,-0.008423,0.008972,-0.992981,0.312458,0.417099,-0.069924,49,280,568,5664
1644175528.850017,-0.01062,0.012146,-0.992981,0.327725,0.371298,-0.14626,47,275,563,5760
1644175528.899923,-0.010132,0.01123,-0.990479,0.236122,0.401832,-0.100458,54,265,575,5760
1644175528.950165,-0.01239,0.008545,-0.991455,0.297191,0.523969,-0.100458,47,273,565,5728
1644175529.000406,-0.01001,0.009338,-0.989685,0.373527,0.569771,-0.222595,51,283,576,5760
1644175529.092046,-0.005249,0.011353,-0.993347,0.266656,0.401832,-0.024122,42,273,584,5824
1644175529.140274,-0.012207,0.010376,-0.990295,0.281924,0.24916,0.067481,52,270,577,5760
1644175529.188694,-0.007874,0.013123,-0.991638,0.08345,0.356031,0.052214,49,270,570,5808
1644175529.237093,-0.009094,0.010925,-0.99176,0.205588,0.325496,-0.024122,45,268,563,5824
1644175529.285452,-0.010315,0.009277,-0.991577,0.297191,0.356031,-0.298931,54,265,572,5712
1644175529.333876,-0.007935,0.012634,-0.98938,0.419328,0.447634,-0.039389,52,275,579,5776
1644175529.382278,-0.009827,0.007202,-0.990234,0.236122,0.203359,-0.024122,52,268,577,5760
1644175529.430661,-0.005737,0.007751,-0.98999,0.236122,0.386565,-0.14626,51,269,578,5808
1644175529.479039,-0.010498,0.01178,-0.992004,0.281924,0.279695,-0.222595,51,276,569,5776
1644175529.527443,-0.01001,0.009338,-0.991943,0.159786,0.279695,-0.130992,58,276,573,5760
1644175529.57583,-0.008789,0.010864,-0.992859,0.007115,0.325496,-0.039389,46,279,564,5712
1644175529.62424,-0.00946,0.007935,-0.990417,0.251389,0.447634,-0.14626,45,280,568,5728
1644175529.672675,-0.011169,0.008484,-0.992126,0.297191,0.310229,-0.115725,58,274,571,5776
1644175529.721006,-0.009216,0.009338,-0.993347,0.190321,0.294962,-0.176794,54,282,577,5712
1644175529.769352,-0.007629,0.013,-0.991333,0.281924,0.325496,-0.115725,53,271,578,5776
1644175529.817814,-0.00769,0.009338,-0.99176,0.144519,0.310229,-0.069924,47,270,572,5728
1644175529.866199,-0.009827,0.01001,-0.991394,0.251389,0.340763,-0.192061,55,279,583,5776
1644175529.914916,-0.011658,0.010437,-0.989441,0.266656,0.356031,-0.054656,52,277,579,5776
1644175529.96343,-0.011536,0.009705,-0.991516,0.175053,0.447634,-0.130992,46,281,571,5728
1644175530.013379,-0.010986,0.009277,-0.99054,0.159786,0.340763,0.052214,47,280,577,5824
1644175530.108194,-0.010437,0.011475,-0.990417,0.266656,0.294962,-0.176794,49,280,570,5760
1644175530.156488,-0.008789,0.01239,-0.990112,0.281924,0.478168,-0.069924,53,279,564,5824
1644175530.204905,-0.007446,0.009399,-0.993347,0.068183,0.401832,-0.14626,54,268,570,5760
1644175530.25328,-0.007996,0.01062,-0.991638,0.236122,0.371298,-0.130992,48,271,573,5728
1644175530.301675,-0.011597,0.010254,-0.990479,0.220855,0.493435,-0.222595,43,276,566,5760
1644175530.350067,-0.008362,0.011108,-0.992188,0.281924,0.294962,-0.054656,49,277,572,5760
1644175530.398432,-0.010498,0.009338,-0.989868,0.281924,0.371298,-0.069924,42,273,575,5760
1644175530.446865,-0.011414,0.009155,-0.990417,0.281924,0.356031,0.006412,43,276,564,5760
1644175530.495254,-0.008728,0.009705,-0.989502,0.220855,0.310229,-0.069924,48,281,580,5760
1644175530.543667,-0.007019,0.010071,-0.989929,0.281924,0.356031,-0.283664,51,276,569,5664
1644175530.592026,-0.009094,0.012024,-0.988708,0.297191,0.523969,-0.283664,58,279,580,5728
1644175530.640433,-0.010193,0.009766,-0.99231,0.266656,0.539237,-0.14626,47,265,572,5728
1644175530.688812,-0.008972,0.010925,-0.990723,0.266656,0.401832,-0.130992,53,274,576,5760
1644175530.737209,-0.008545,0.00946,-0.987488,0.205588,0.417099,-0.054656,52,275,572,5760
1644175530.785598,-0.009949,0.009888,-0.994324,0.327725,0.493435,-0.100458,46,276,578,5728
1644175530.834049,-0.006836,0.012634,-0.989868,0.144519,0.386565,-0.008855,59,270,579,5760
1644175530.882439,-0.009705,0.008484,-0.989197,0.281924,0.493435,-0.207328,47,282,572,5712
1644175530.930808,-0.008057,0.013855,-0.990662,0.312458,0.508702,-0.192061,55,281,569,5776
1644175530.979213,-0.006775,0.010681,-0.99231,0.281924,0.401832,-0.207328,61,273,575,5664
1644175531.028688,-0.011292,0.01062,-0.988831,0.251389,0.462901,-0.039389,58,269,578,5760
1644175531.087226,-0.006836,0.010681,-0.987976,0.373527,0.325496,-0.100458,51,271,573,5728
1644175531.129776,-0.006836,0.011108,-0.992065,0.113985,0.325496,-0.176794,58,276,569,5776
1644175531.173317,-0.009827,0.011719,-0.993103,0.190321,0.508702,-0.085191,51,262,573,5696
1644175531.26948,-0.007263,0.009094,-0.989868,0.205588,0.356031,-0.085191,61,280,575,5712
1644175531.317869,-0.01062,0.009705,-0.99292,0.266656,0.417099,-0.192061,55,274,578,5696
1644175531.366266,-0.007263,0.009033,-0.990417,0.327725,0.340763,0.052214,52,277,572,5760
1644175531.414842,-0.011719,0.012268,-0.991516,0.35826,0.356031,-0.222595,51,271,573,5712
1644175531.463074,-0.009033,0.010559,-0.993286,0.251389,0.294962,-0.039389,52,277,561,5728
1644175531.511462,-0.007935,0.009888,-0.991028,0.175053,0.325496,-0.069924,51,269,569,5776
1644175531.55985,-0.008362,0.011475,-0.992432,0.190321,0.523969,0.021679,45,275,568,5664
1644175531.608248,-0.011353,0.009949,-0.990601,0.220855,0.310229,-0.192061,39,271,576,5776
1644175531.65661,-0.006531,0.012329,-0.990784,0.159786,0.310229,-0.161527,45,273,568,5824
1644175531.70515,-0.010315,0.010803,-0.990601,0.220855,0.371298,-0.14626,51,269,569,5696
1644175531.753426,-0.011719,0.011047,-0.990967,0.175053,0.325496,-0.25313,40,275,568,5824
1644175531.801805,-0.010437,0.010986,-0.992981,0.251389,0.508702,-0.130992,53,274,578,5824
1644175531.850237,-0.010742,0.010376,-0.991821,0.175053,0.386565,-0.024122,53,271,576,5712
1644175531.898628,-0.009338,0.012573,-0.990417,0.342992,0.478168,-0.008855,47,285,579,5760
1644175531.94702,-0.006165,0.009766,-0.991333,0.312458,0.462901,-0.14626,41,283,573,5776
1644175531.995416,-0.008606,0.011047,-0.990051,0.205588,0.401832,-0.161527,49,275,572,5712
1644175532.043802,-0.005432,0.010376,-0.992126,0.312458,0.371298,-0.314198,45,277,582,5728
1644175532.100631,-0.009094,0.009338,-0.990906,0.236122,0.386565,-0.14626,52,275,577,5824
1644175532.14057,-0.006348,0.009827,-0.990234,0.297191,0.539237,-0.130992,53,274,576,5712
1644175532.189038,-0.010864,0.009827,-0.993286,0.281924,0.554504,-0.039389,49,270,570,5776
1644175532.239453,-0.00824,0.010193,-0.990662,0.373527,0.462901,-0.100458,58,271,580,5824
1644175532.289755,-0.010559,0.008728,-0.992676,0.419328,0.386565,-0.069924,57,265,577,5776
1644175532.334718,-0.010254,0.010437,-0.990967,0.190321,0.264427,-0.024122,59,282,568,5728
1644175532.430876,-0.009338,0.009644,-0.990173,0.251389,0.447634,-0.100458,52,270,579,5712
1644175532.479275,-0.007019,0.008362,-0.988708,0.342992,0.356031,-0.024122,48,283,564,5776
1644175532.527664,-0.008972,0.009583,-0.994568,0.144519,0.478168,-0.069924,51,286,573,5728
1644175532.576055,-0.008484,0.009338,-0.992859,0.281924,0.401832,-0.14626,47,275,575,5760
1644175532.624458,-0.008484,0.011475,-0.98877,0.388794,0.462901,-0.085191,55,274,576,5808
1644175532.672853,-0.009216,0.009155,-0.990601,0.251389,0.462901,-0.176794,49,270,572,5696
1644175532.721224,-0.007629,0.010132,-0.992676,0.281924,0.386565,-0.161527,51,274,573,5776
1644175532.769624,-0.01123,0.012695,-0.989685,0.190321,0.310229,-0.008855,55,269,569,5760
1644175532.818007,-0.009216,0.009521,-0.991455,0.281924,0.493435,-0.14626,57,270,572,5776
1644175532.866456,-0.009094,0.010132,-0.992615,0.205588,0.401832,0.021679,51,276,573,5760
1644175532.914862,-0.009827,0.010986,-0.992676,0.236122,0.417099,-0.054656,46,271,569,5760
1644175532.963243,-0.008118,0.009949,-0.993713,0.205588,0.417099,-0.161527,68,280,579,5760
1644175533.011597,-0.008972,0.013062,-0.992981,0.251389,0.539237,-0.100458,51,271,566,5776
1644175533.070845,-0.006653,0.010742,-0.990662,0.220855,0.264427,-0.085191,61,270,582,5760
1644175533.108381,-0.009583,0.014038,-0.991577,0.220855,0.417099,-0.069924,46,276,580,5776
1644175533.15676,-0.007568,0.007507,-0.991516,0.373527,0.447634,-0.085191,51,271,578,5776
1644175533.20517,-0.008972,0.01062,-0.989014,0.144519,0.325496,-0.14626,57,277,579,5712
1644175533.253501,-0.008301,0.011047,-0.991455,0.205588,0.203359,-0.039389,54,270,582,5712
1644175533.302226,-0.009521,0.009949,-0.98938,0.266656,0.432366,-0.161527,41,283,578,5888
1644175533.35105,-0.009583,0.010437,-0.993103,0.236122,0.401832,-0.207328,46,274,571,5696
1644175533.401627,-0.00946,0.008484,-0.992798,0.251389,0.294962,-0.069924,58,277,582,5648
1644175533.451752,-0.008667,0.010071,-0.99231,0.190321,0.325496,-0.130992,51,271,576,5808
1644175533.496738,-0.010071,0.010498,-0.992493,0.144519,0.264427,-0.069924,42,268,575,5712
1644175533.593426,-0.010071,0.010071,-0.990173,0.297191,0.386565,-0.176794,59,268,575,5824
1644175533.640704,-0.011047,0.012329,-0.991943,0.236122,0.340763,-0.039389,54,277,568,5824
1644175533.689037,-0.008362,0.009094,-0.994202,0.159786,0.386565,-0.344733,52,277,575,5760
1644175533.737422,-0.010742,0.010315,-0.991516,0.312458,0.539237,-0.222595,41,274,569,5728
1644175533.785832,-0.011475,0.010132,-0.992188,0.327725,0.340763,-0.085191,52,277,563,5712
1644175533.834225,-0.006165,0.013367,-0.99408,0.175053,0.371298,-0.207328,49,268,565,5712
1644175533.882679,-0.009277,0.009521,-0.989319,0.205588,0.493435,-0.039389,51,274,564,5808
1644175533.931045,-0.008545,0.008667,-0.992065,0.08345,0.447634,-0.069924,55,274,578,5696
1644175533.979428,-0.008911,0.012756,-0.993408,0.297191,0.539237,-0.039389,53,281,571,5728
1644175534.027827,-0.009766,0.008484,-0.989624,0.236122,0.401832,-0.130992,51,271,578,5696
1644175534.091964,-0.008179,0.007568,-0.993835,0.312458,0.310229,-0.25313,55,274,566,5808
1644175534.124933,-0.009766,0.00946,-0.99054,0.113985,0.478168,0.006412,52,280,575,5728
1644175534.174535,-0.010132,0.009521,-0.990845,0.281924,0.401832,-0.054656,53,266,562,5728
1644175534.224518,-0.009094,0.012878,-0.991699,0.205588,0.447634,-0.176794,48,274,578,5760
1644175534.274685,-0.009155,0.01178,-0.993286,0.236122,0.462901,-0.130992,54,263,586,5776
1644175534.366518,-0.01123,0.006592,-0.990723,0.205588,0.447634,-0.268397,41,269,571,5728
1644175534.414916,-0.009277,0.008972,-0.991211,0.159786,0.508702,-0.161527,48,283,576,5728
1644175534.463319,-0.011047,0.01001,-0.994019,0.480397,0.233893,-0.25313,53,276,576,5728
1644175534.511677,-0.011658,0.010254,-0.993713,0.266656,0.294962,0.006412,45,273,570,5728
1644175534.560096,-0.007751,0.009338,-0.990784,0.251389,0.432366,-0.100458,45,265,575,5696
1644175534.608465,-0.008911,0.008728,-0.992126,0.297191,0.401832,-0.130992,57,277,572,5728
1644175534.656862,-0.010315,0.01123,-0.988342,0.190321,0.417099,-0.176794,53,274,571,5808
1644175534.705246,-0.01001,0.011597,-0.99176,0.266656,0.432366,-0.085191,51,276,566,5760
1644175534.75364,-0.007202,0.012939,-0.989441,0.098718,0.279695,-0.039389,59,273,565,5760
1644175534.802023,-0.010925,0.013,-0.990173,0.220855,0.447634,-0.054656,54,270,572,5696
1644175534.850434,-0.010254,0.009949,-0.991394,0.281924,0.63084,-0.161527,55,266,569,5728
1644175534.898856,-0.009277,0.01062,-0.991394,0.251389,0.264427,-0.024122,43,276,576,5648
1644175534.947248,-0.005859,0.008667,-0.991089,0.236122,0.401832,-0.085191,48,286,576,5696
1644175534.995638,-0.011292,0.009338,-0.991272,0.342992,0.294962,-0.130992,51,281,578,5712
1644175535.044038,-0.010681,0.009094,-0.989807,0.388794,0.539237,-0.085191,58,276,583,5728
1644175535.094383,-0.010742,0.010925,-0.989807,0.404061,0.356031,-0.069924,55,276,576,5760
1644175535.140757,-0.01001,0.010071,-0.994751,0.220855,0.310229,-0.085191,53,274,583,5696
1644175535.189138,-0.01062,0.010132,-0.990662,0.236122,0.462901,-0.192061,47,268,582,5760
1644175535.237579,-0.008728,0.012146,-0.992004,0.220855,0.386565,-0.192061,51,269,569,5824
1644175535.286022,-0.009949,0.009888,-0.991699,0.419328,0.417099,-0.25313,53,269,571,5760
1644175535.336272,-0.006714,0.009888,-0.991699,0.129252,0.325496,-0.192061,45,268,577,5760
1644175535.386632,-0.009033,0.009888,-0.993347,0.251389,0.340763,0.021679,47,280,575,5776
1644175535.431905,-0.009705,0.011108,-0.992859,0.266656,0.340763,-0.161527,45,277,565,5760
1644175535.527888,-0.005188,0.013123,-0.992126,0.159786,0.310229,-0.207328,48,271,573,5776
1644175535.576283,-0.010559,0.010254,-0.99231,0.175053,0.401832,-0.14626,46,279,571,5728
1644175535.624842,-0.012146,0.011536,-0.99054,0.342992,0.386565,-0.039389,51,276,571,5712
1644175535.673082,-0.006958,0.009338,-0.990295,0.266656,0.279695,-0.176794,54,270,579,5776
1644175535.721463,-0.010071,0.01001,-0.988098,0.068183,0.371298,0.052214,48,266,569,5728
1644175535.769858,-0.009949,0.009583,-0.990417,0.190321,0.340763,-0.085191,55,271,576,5728
1644175535.818301,-0.009399,0.010132,-0.991699,0.205588,0.462901,-0.100458,54,270,570,5808
1644175535.866681,-0.008484,0.010864,-0.991394,0.129252,0.447634,-0.039389,53,276,578,5760
1644175535.915204,-0.006836,0.007141,-0.992188,0.220855,0.325496,-0.115725,41,276,569,5760
1644175535.963496,-0.010925,0.011108,-0.991516,0.312458,0.325496,-0.100458,53,279,571,5760
1644175536.011827,-0.009949,0.011475,-0.99054,0.251389,0.340763,0.036947,47,270,575,5760
1644175536.06201,-0.010864,0.010376,-0.991516,0.144519,0.508702,-0.054656,43,274,576,5696
1644175536.108618,-0.009399,0.009338,-0.991272,0.312458,0.523969,-0.192061,61,275,572,5728
1644175536.156975,-0.00885,0.009949,-0.990112,0.205588,0.264427,-0.085191,59,270,568,5776
1644175536.205379,-0.00946,0.01062,-0.990906,0.327725,0.325496,-0.161527,46,271,576,5760
1644175536.253747,-0.010376,0.011353,-0.99115,0.297191,0.432366,-0.207328,58,276,580,5696
1644175536.30218,-0.011536,0.010193,-0.993042,0.327725,0.279695,-0.192061,49,275,577,5808
1644175536.350552,-0.009338,0.010254,-0.991699,0.022382,0.294962,-0.100458,51,279,569,5712
1644175536.39894,-0.011047,0.01001,-0.988647,0.266656,0.356031,-0.14626,52,277,575,5696
1644175536.447544,-0.008179,0.010681,-0.989807,0.144519,0.386565,-0.115725,48,281,578,5760
1644175536.498734,-0.009888,0.010376,-0.989685,0.281924,0.417099,-0.115725,60,276,569,5760
1644175536.548198,-0.005493,0.011475,-0.986328,0.327725,0.447634,-0.161527,47,273,579,5760
1644175536.593278,-0.009338,0.014832,-0.990479,0.113985,0.462901,-0.024122,53,271,573,5728
1644175536.68927,-0.008179,0.013611,-0.989502,0.220855,0.386565,-0.283664,39,274,580,5760
1644175536.737662,-0.008423,0.010559,-0.992004,0.144519,0.401832,-0.115725,41,271,573,5728
1644175536.786056,-0.011475,0.008667,-0.993347,0.129252,0.294962,-0.115725,46,281,580,5696
1644175536.834502,-0.009644,0.009338,-0.991821,0.190321,0.523969,-0.192061,59,270,572,5696
1644175536.882911,-0.007812,0.01062,-0.993469,0.327725,0.569771,0.082748,52,277,577,5712
1644175536.931278,-0.007935,0.012756,-0.990601,0.190321,0.325496,-0.100458,57,273,568,5760
1644175536.979691,-0.012939,0.009705,-0.991028,0.159786,0.356031,-0.054656,52,277,572,5696
1644175537.028077,-0.008545,0.008423,-0.990479,0.098718,0.310229,-0.069924,51,274,576,5776
1644175537.079666,-0.010193,0.01178,-0.989502,0.251389,0.417099,-0.008855,52,290,582,5696
1644175537.124787,-0.007202,0.010193,-0.991211,0.190321,0.401832,-0.085191,46,269,583,5760
1644175537.173223,-0.008484,0.013733,-0.990845,0.220855,0.386565,0.113282,54,275,568,5824
1644175537.221632,-0.009216,0.012207,-0.988647,0.144519,0.478168,-0.115725,54,270,575,5808
1644175537.269984,-0.012512,0.010559,-0.99292,0.297191,0.310229,-0.085191,54,265,572,5728
1644175537.318368,-0.011047,0.013367,-0.989685,0.113985,0.340763,-0.100458,51,276,576,5776
1644175537.366753,-0.011169,0.011597,-0.990967,0.251389,0.401832,-0.085191,52,277,568,5776
1644175537.420713,-0.007874,0.013855,-0.992493,0.297191,0.462901,-0.237863,54,268,584,5760
1644175537.471153,-0.010681,0.011902,-0.991089,0.129252,0.462901,-0.054656,49,270,577,5776
1644175537.523251,-0.008911,0.013916,-0.98999,0.175053,0.371298,-0.100458,55,274,571,5712
1644175537.608665,-0.008728,0.010132,-0.991516,0.251389,0.356031,-0.100458,51,274,573,5824
1644175537.657095,-0.010071,0.012024,-0.992188,0.205588,0.417099,-0.069924,53,283,573,5696
1644175537.705552,-0.007385,0.010254,-0.992493,0.236122,0.417099,0.036947,46,279,569,5760
1644175537.753866,-0.01178,0.012512,-0.992004,0.190321,0.432366,-0.039389,53,274,576,5824
1644175537.802464,-0.010803,0.011475,-0.991943,0.175053,0.310229,-0.161527,43,269,569,5760
1644175537.850884,-0.010071,0.007812,-0.990662,0.205588,0.432366,-0.115725,54,280,570,5776
1644175537.899214,-0.010864,0.009033,-0.991272,0.266656,0.356031,0.052214,45,277,589,5760
1644175537.948075,-0.009033,0.012512,-0.991821,0.266656,0.417099,-0.069924,51,274,590,5760
1644175537.995883,-0.009521,0.012573,-0.992737,0.266656,0.523969,-0.207328,48,274,587,5712
1644175538.044172,-0.009583,0.01123,-0.992493,0.220855,0.401832,-0.085191,54,273,575,5824
1644175538.092781,-0.010681,0.009644,-0.99054,0.205588,0.401832,-0.085191,54,268,593,5808
1644175538.141104,-0.011169,0.009338,-0.992432,0.113985,0.386565,-0.237863,53,279,585,5760
1644175538.189606,-0.009155,0.009521,-0.990845,0.251389,0.386565,-0.115725,51,279,573,5760
1644175538.237812,-0.009338,0.012085,-0.988525,0.159786,0.310229,-0.161527,58,269,578,5696
1644175538.286287,-0.007263,0.009094,-0.990295,0.08345,0.447634,-0.130992,51,276,569,5712
1644175538.342505,-0.009216,0.009521,-0.98877,0.113985,0.462901,-0.237863,53,271,573,5776
1644175538.383331,-0.009216,0.011475,-0.991455,0.266656,0.478168,-0.100458,52,280,584,5696
1644175538.435482,-0.008911,0.012207,-0.991943,0.327725,0.386565,-0.130992,48,288,578,5728
1644175538.485586,-0.008057,0.008362,-0.990479,0.404061,0.340763,-0.100458,55,281,583,5808
1644175538.540008,-0.009277,0.007996,-0.990662,0.312458,0.386565,-0.130992,52,273,577,5760
1644175538.624988,-0.01123,0.010193,-0.992493,0.190321,0.340763,-0.222595,55,271,578,5728
1644175538.673345,-0.006958,0.011047,-0.992126,0.236122,0.493435,-0.115725,47,268,572,5728
1644175538.721774,-0.011047,0.009399,-0.993042,0.159786,0.371298,-0.008855,52,277,572,5728
1644175538.770374,-0.010376,0.009888,-0.989685,0.190321,0.371298,-0.039389,49,285,572,5824
1644175538.81868,-0.007202,0.010681,-0.990845,0.236122,0.325496,-0.14626,53,271,580,5712
1644175538.867042,-0.008179,0.011414,-0.990051,0.327725,0.386565,-0.054656,49,277,579,5760
1644175538.915486,-0.010742,0.010376,-0.992981,0.35826,0.310229,-0.100458,54,273,584,5760
1644175538.963725,-0.01178,0.013062,-0.991821,0.297191,0.24916,-0.161527,49,280,572,5760
1644175539.012074,-0.007324,0.012268,-0.988403,0.129252,0.310229,-0.176794,53,283,580,5776
1644175539.060493,-0.007935,0.012573,-0.987793,0.159786,0.523969,-0.192061,43,269,576,5760
1644175539.110702,-0.009338,0.008118,-0.990295,0.373527,0.325496,-0.085191,51,279,578,5808
1644175539.157251,-0.00946,0.011963,-0.993286,0.098718,0.264427,-0.085191,53,279,578,5760
1644175539.205664,-0.009766,0.011658,-0.991577,0.404061,0.294962,-0.176794,55,271,583,5712
1644175539.254073,-0.005859,0.009888,-0.989807,0.297191,0.356031,-0.054656,55,279,583,5696
1644175539.302431,-0.006836,0.012024,-0.992065,0.175053,0.371298,-0.085191,54,277,586,5728
1644175539.350923,-0.009766,0.01001,-0.99115,0.129252,0.447634,-0.14626,57,277,575,5760
1644175539.399192,-0.008362,0.009644,-0.992249,0.297191,0.371298,-0.069924,60,276,573,5712
1644175539.447578,-0.010071,0.010132,-0.992188,0.266656,0.508702,-0.207328,49,273,579,5712
1644175539.496116,-0.010254,0.007324,-0.991516,0.236122,0.447634,-0.085191,57,271,583,5712
1644175539.548241,-0.009155,0.00946,-0.992676,0.175053,0.447634,0.036947,53,274,578,5712
1644175539.596153,-0.009399,0.009155,-0.99353,0.190321,0.386565,-0.100458,55,274,571,5760
1644175539.646124,-0.012695,0.006775,-0.990601,0.159786,0.462901,-0.008855,51,266,580,5728
1644175539.737894,-0.013062,0.008789,-0.992676,0.388794,0.356031,-0.161527,46,269,583,5808
1644175539.786291,-0.010925,0.009827,-0.990112,0.068183,0.432366,-0.085191,55,283,580,5728
1644175539.834862,-0.009155,0.00769,-0.993347,0.236122,0.371298,-0.100458,47,277,575,5760
1644175539.883093,-0.011108,0.009521,-0.991638,0.190321,0.432366,-0.176794,38,277,577,5760
1644175539.931477,-0.010803,0.010986,-0.992737,0.35826,0.310229,-0.085191,43,281,573,5696
1644175539.979903,-0.009827,0.009338,-0.993225,0.159786,0.371298,-0.008855,48,279,573,5808
1644175540.028293,-0.009705,0.009949,-0.993774,0.251389,0.417099,-0.115725,51,271,578,5760
1644175540.076791,-0.007874,0.010803,-0.991882,0.205588,0.340763,0.021679,48,274,580,5760
1644175540.125224,-0.010193,0.008728,-0.994202,0.098718,0.508702,-0.130992,47,280,568,5712
1644175540.173445,-0.008911,0.010193,-0.990784,0.144519,0.386565,-0.207328,47,273,584,5712
1644175540.221817,-0.011353,0.008911,-0.99115,0.312458,0.310229,-0.039389,61,280,582,5728
1644175540.270182,-0.009033,0.012146,-0.99231,0.342992,0.340763,-0.085191,51,274,583,5664
1644175540.318603,-0.010193,0.011719,-0.991577,0.35826,0.401832,-0.14626,51,271,580,5760
1644175540.367,-0.010071,0.010193,-0.991028,0.205588,0.203359,-0.237863,52,277,572,5728
1644175540.415385,-0.011353,0.007507,-0.992554,0.129252,0.24916,-0.14626,49,260,575,5664
1644175540.463789,-0.011108,0.007751,-0.993225,0.251389,0.417099,-0.085191,41,271,576,5696
1644175540.512185,-0.013611,0.010681,-0.992981,0.205588,0.325496,0.006412,48,271,580,5808
1644175540.560552,-0.010986,0.009094,-0.996948,0.266656,0.371298,-0.085191,51,276,571,5696
1644175540.615422,-0.010559,0.008118,-0.992432,0.419328,0.432366,-0.024122,53,269,580,5776
1644175540.660606,-0.009277,0.010742,-0.990601,0.205588,0.508702,-0.207328,51,276,587,5776
1644175540.708271,-0.008667,0.010681,-0.991577,0.251389,0.493435,-0.069924,42,273,579,5696
1644175540.75825,-0.011719,0.009033,-0.991394,-0.02342,0.478168,-0.069924,51,286,573,5840
1644175540.80328,-0.012634,0.008728,-0.992493,0.266656,0.447634,0.036947,51,274,573,5696
1644175540.899315,-0.009644,0.010193,-0.989075,0.236122,0.493435,-0.069924,58,269,578,5808
1644175540.947719,-0.012756,0.010071,-0.992493,0.190321,0.279695,0.021679,43,274,583,5760
1644175540.996109,-0.010071,0.009705,-0.991272,0.220855,0.539237,-0.085191,52,277,579,5712
1644175541.044502,-0.009399,0.009216,-0.991577,0.220855,0.279695,-0.115725,46,266,583,5824
1644175541.093701,-0.007263,0.009644,-0.994019,0.113985,0.371298,-0.14626,52,282,577,5712
1644175541.141286,-0.009399,0.011108,-0.992981,0.342992,0.417099,-0.054656,49,282,568,5712
1644175541.189646,-0.00885,0.010986,-0.992249,0.327725,0.447634,-0.100458,40,282,577,5712
1644175541.238031,-0.009155,0.01239,-0.993896,0.236122,0.447634,0.021679,57,270,579,5760
1644175541.286422,-0.008667,0.012146,-0.991699,0.068183,0.233893,-0.222595,46,276,571,5696
1644175541.334816,-0.010315,0.012085,-0.99115,0.327725,0.417099,-0.054656,49,273,575,5776
1644175541.383206,-0.011963,0.009094,-0.990356,0.159786,0.493435,-0.069924,54,280,572,5776
1644175541.431572,-0.007935,0.009644,-0.989868,0.281924,0.417099,-0.100458,47,273,570,5696
1644175541.492373,-0.011292,0.009399,-0.995178,0.144519,0.401832,0.006412,53,274,571,5728
1644175541.530212,-0.007874,0.007874,-0.988586,0.236122,0.447634,-0.130992,53,274,578,5760
1644175541.577144,-0.011719,0.009277,-0.99054,0.113985,0.432366,-0.039389,49,270,572,5696
1644175541.627347,-0.009766,0.010681,-0.987732,0.220855,0.417099,-0.069924,59,270,572,5776
1644175541.678112,-0.012573,0.010071,-0.99231,0.251389,0.447634,-0.192061,46,279,576,5760
1644175541.722638,-0.009338,0.010864,-0.991638,0.159786,0.386565,-0.283664,54,265,584,5776
1644175541.818711,-0.011719,0.008057,-0.994324,0.190321,0.386565,-0.100458,41,276,583,5776
1644175541.867098,-0.007996,0.013611,-0.990906,0.388794,0.417099,-0.039389,45,277,582,5648
1644175541.91554,-0.008606,0.007812,-0.99292,0.281924,0.264427,-0.008855,47,270,579,5728
1644175541.963917,-0.009583,0.009766,-0.993164,0.312458,0.325496,-0.024122,52,277,572,5776
1644175542.012331,-0.008118,0.008423,-0.991821,0.327725,0.462901,0.021679,47,277,570,5696
1644175542.076292,-0.008911,0.010498,-0.992554,0.266656,0.371298,-0.268397,49,270,579,5696
1644175542.112538,-0.011658,0.011108,-0.990112,0.236122,0.340763,-0.100458,59,268,582,5776
1644175542.157597,-0.010742,0.007629,-0.992554,0.220855,0.356031,-0.085191,42,270,586,5808
1644175542.205873,-0.009033,0.011292,-0.989075,0.220855,0.325496,-0.100458,46,276,585,5776
1644175542.254252,-0.011414,0.011963,-0.992554,0.388794,0.417099,-0.222595,67,266,583,5760
1644175542.302651,-0.008118,0.012329,-0.990234,0.404061,0.386565,0.021679,42,265,565,5728
1644175542.35101,-0.011047,0.01239,-0.992126,0.159786,0.401832,-0.36,51,266,576,5696
1644175542.399391,-0.010559,0.010132,-0.992249,0.312458,0.371298,-0.008855,49,268,586,5760
1644175542.447802,-0.008301,0.010681,-0.990173,0.220855,0.523969,-0.130992,51,286,583,5760
1644175542.496189,-0.009094,0.010681,-0.989807,0.236122,0.310229,-0.069924,60,271,585,5760
1644175542.544627,-0.00769,0.014648,-0.990417,0.144519,0.310229,-0.222595,47,275,584,5760
1644175542.593391,-0.010071,0.010559,-0.994263,0.205588,0.432366,-0.115725,51,283,571,5696
1644175542.643585,-0.008789,0.010071,-0.99176,0.205588,0.386565,-0.054656,53,274,580,5808
1644175542.693956,-0.008972,0.010437,-0.990234,0.266656,0.310229,-0.069924,46,269,576,5712
1644175542.738825,-0.009583,0.010437,-0.993408,0.190321,0.386565,-0.14626,52,280,575,5760
1644175542.835211,-0.008362,0.010254,-0.990723,0.236122,0.386565,-0.207328,48,281,576,5760
1644175542.883388,-0.011108,0.010071,-0.99115,0.159786,0.523969,-0.024122,58,266,578,5712
1644175542.931741,-0.00708,0.011536,-0.990906,0.175053,0.447634,-0.069924,48,283,573,5696
1644175542.980126,-0.006653,0.011902,-0.991089,0.373527,0.279695,0.006412,47,273,575,5776
1644175543.028536,-0.006592,0.012939,-0.989807,0.190321,0.523969,-0.161527,40,282,582,5728
1644175543.076977,-0.007385,0.01001,-0.990356,0.327725,0.462901,-0.115725,60,274,573,5776
1644175543.125265,-0.008728,0.011414,-0.990051,0.220855,0.493435,-0.115725,52,275,579,5696
1644175543.173667,-0.00708,0.007568,-0.989197,0.144519,0.386565,-0.130992,49,270,572,5728
1644175543.222063,-0.009705,0.01178,-0.991028,0.251389,0.523969,0.021679,52,275,575,5776
1644175543.270429,-0.009705,0.010132,-0.990417,0.220855,0.371298,0.021679,48,279,578,5728
1644175543.318844,-0.010376,0.010681,-0.992249,0.266656,0.356031,-0.039389,52,277,579,5760
1644175543.37144,-0.011719,0.010986,-0.992981,0.236122,0.539237,0.021679,59,280,582,5840
1644175543.416047,-0.010315,0.011292,-0.98938,0.113985,0.340763,-0.176794,52,280,586,5728
1644175543.464006,-0.009155,0.009033,-0.993347,0.159786,0.447634,-0.054656,38,270,575,5712
1644175543.512396,-0.007202,0.010986,-0.992126,0.220855,0.356031,-0.115725,53,283,594,5728
1644175543.560791,-0.009033,0.009949,-0.99292,0.144519,0.371298,-0.085191,46,276,580,5776
1644175543.609188,-0.009216,0.010986,-0.992981,0.205588,0.447634,-0.024122,58,262,576,5760
1644175543.657913,-0.008789,0.008606,-0.992432,0.205588,0.386565,-0.130992,47,280,584,5712
1644175543.706978,-0.00708,0.010254,-0.990112,0.236122,0.279695,-0.024122,48,269,580,5776
1644175543.75777,-0.010193,0.013184,-0.992432,0.266656,0.493435,-0.192061,38,275,572,5712
1644175543.808007,-0.010864,0.010376,-0.989319,0.037649,0.508702,-0.207328,53,281,571,5808
1644175543.899603,-0.009338,0.008118,-0.992615,0.190321,0.356031,-0.085191,47,282,577,5664
1644175543.947949,-0.008179,0.012207,-0.991821,0.251389,0.447634,-0.115725,51,274,576,5808
1644175543.996339,-0.010254,0.008789,-0.990601,0.251389,0.401832,-0.069924,60,274,583,5776
1644175544.044783,-0.009521,0.012695,-0.99353,0.144519,0.279695,-0.008855,43,274,578,5728
1644175544.095353,-0.01001,0.010681,-0.99231,0.388794,0.462901,-0.100458,55,274,573,5728
1644175544.141487,-0.011353,0.007507,-0.990173,0.281924,0.371298,-0.085191,46,276,573,5824
1644175544.189877,-0.009705,0.01178,-0.991455,0.159786,0.356031,-0.130992,53,276,578,5776
1644175544.238256,-0.008911,0.011963,-0.990417,0.251389,0.493435,-0.283664,52,270,575,5760
1644175544.286643,-0.010193,0.010559,-0.990784,0.220855,0.523969,-0.130992,42,270,577,5696
1644175544.335086,-0.012329,0.011902,-0.990234,0.251389,0.371298,-0.176794,53,276,576,5776
1644175544.383445,-0.010376,0.007263,-0.994568,0.068183,0.264427,-0.192061,45,273,577,5776
1644175544.431823,-0.009399,0.011047,-0.993042,0.449863,0.432366,-0.14626,61,275,579,5712
1644175544.480229,-0.008545,0.012573,-0.98877,0.144519,0.340763,-0.283664,48,271,576,5664
1644175544.528625,-0.008057,0.010742,-0.990356,0.251389,0.478168,-0.161527,52,275,575,5728
1644175544.577038,-0.008789,0.010437,-0.992065,0.251389,0.478168,-0.115725,49,277,575,5728
1644175544.627,-0.011963,0.009155,-0.992981,0.35826,0.478168,-0.130992,46,271,576,5712
1644175544.677559,-0.007202,0.01178,-0.989319,0.159786,0.386565,-0.100458,52,273,575,5712
1644175544.722239,-0.010132,0.008057,-0.990479,0.175053,0.401832,-0.115725,54,280,577,5728
1644175544.818938,-0.011108,0.009521,-0.99054,-0.008153,0.462901,-0.192061,52,285,577,5728
1644175544.867378,-0.01178,0.011658,-0.991211,0.205588,0.432366,-0.130992,60,279,576,5760
1644175544.915768,-0.010498,0.012756,-0.989441,0.236122,0.523969,-0.207328,48,274,571,5728
1644175544.964505,-0.010925,0.012634,-0.992981,0.205588,0.294962,0.006412,57,280,579,5760
1644175545.012567,-0.012207,0.009399,-0.99054,0.251389,0.356031,-0.161527,54,280,575,5696
1644175545.068514,-0.006226,0.007263,-0.990479,0.236122,0.356031,-0.054656,51,269,580,5872
1644175545.109303,-0.009827,0.009338,-0.993774,0.297191,0.508702,-0.085191,57,277,579,5776
1644175545.157694,-0.008423,0.010559,-0.991211,0.098718,0.386565,-0.161527,43,281,569,5808
1644175545.206094,-0.010803,0.011841,-0.994141,0.297191,0.356031,-0.008855,51,271,569,5728
1644175545.254488,-0.013611,0.011719,-0.992798,0.205588,0.493435,-0.130992,62,274,573,5808
1644175545.302892,-0.005371,0.008606,-0.992554,0.297191,0.462901,-0.161527,49,277,572,5712
1644175545.351253,-0.010559,0.011047,-0.989319,0.175053,0.371298,-0.085191,52,275,582,5712
1644175545.399645,-0.009033,0.011841,-0.993286,0.342992,0.325496,-0.115725,53,281,573,5776
1644175545.448054,-0.010864,0.008911,-0.991699,0.388794,0.310229,-0.024122,53,271,571,5872
1644175545.496443,-0.009338,0.009583,-0.988892,0.419328,0.462901,-0.039389,52,275,591,5776
1644175545.544807,-0.008972,0.011414,-0.990845,0.251389,0.310229,-0.192061,53,279,576,5712
1644175545.593195,-0.007568,0.006653,-0.991394,0.388794,0.371298,-0.207328,47,287,584,5696
1644175545.6416,-0.01178,0.01062,-0.995422,0.220855,0.340763,-0.176794,53,279,573,5712
1644175545.689996,-0.009827,0.006104,-0.991516,0.327725,0.523969,-0.207328,51,281,566,5696
1644175545.738438,-0.010742,0.009094,-0.991821,0.052916,0.417099,-0.069924,65,271,587,5776
1644175545.788653,-0.009949,0.008972,-0.993103,0.129252,0.340763,-0.192061,53,276,578,5648
1644175545.839981,-0.008972,0.009094,-0.990112,0.297191,0.356031,-0.115725,48,266,571,5760
1644175545.884452,-0.006836,0.007874,-0.991943,0.159786,0.508702,-0.115725,52,282,584,5712
1644175545.980384,-0.011963,0.00885,-0.991821,0.312458,0.417099,-0.14626,59,265,579,5760
1644175546.028777,-0.011353,0.008606,-0.992126,0.35826,0.417099,-0.115725,51,271,576,5760
1644175546.077206,-0.011047,0.007935,-0.991882,0.159786,0.401832,-0.085191,43,274,578,5728
1644175546.125554,-0.009155,0.00946,-0.993469,0.220855,0.432366,-0.085191,59,277,572,5808
1644175546.173917,-0.009521,0.009399,-0.98877,0.098718,0.539237,-0.115725,54,282,586,5760
1644175546.222304,-0.011719,0.011963,-0.992737,0.175053,0.371298,-0.176794,57,275,584,5696
1644175546.270668,-0.012817,0.012085,-0.993469,0.297191,0.417099,-0.207328,55,276,578,5760
1644175546.319079,-0.007874,0.009766,-0.992432,0.35826,0.386565,-0.14626,40,268,577,5696
1644175546.367462,-0.009277,0.008179,-0.992981,0.266656,0.401832,-0.207328,46,271,573,5776
1644175546.415861,-0.008484,0.006714,-0.992432,0.251389,0.218626,-0.115725,66,280,577,5760
1644175546.46424,-0.01062,0.007751,-0.991699,0.159786,0.340763,-0.14626,52,280,565,5696
1644175546.512636,-0.00769,0.008789,-0.991577,0.129252,0.386565,-0.161527,49,275,568,5728
1644175546.561034,-0.010315,0.009521,-0.991699,0.129252,0.493435,0.006412,40,268,572,5808
1644175546.609428,-0.010681,0.009521,-0.991089,0.312458,0.340763,-0.161527,54,273,572,5712
1644175546.657817,-0.008789,0.007751,-0.99176,0.297191,0.386565,-0.008855,57,273,586,5728
1644175546.706204,-0.011047,0.009399,-0.990479,0.113985,0.279695,-0.085191,51,279,585,5760
1644175546.754643,-0.011597,0.010254,-0.992981,0.236122,0.432366,-0.176794,49,285,575,5760
1644175546.803709,-0.008423,0.012207,-0.994141,0.175053,0.371298,-0.039389,51,279,583,5696
1644175546.854051,-0.010864,0.008057,-0.990112,0.08345,0.264427,-0.115725,49,277,577,5712
1644175546.90404,-0.01001,0.009827,-0.990723,0.312458,0.386565,-0.100458,61,273,584,5760
1644175546.94884,-0.006714,0.009583,-0.991699,0.159786,0.447634,-0.161527,41,276,583,5760
1644175547.045377,-0.009888,0.010559,-0.991394,0.159786,0.310229,0.098015,49,275,575,5760
1644175547.095368,-0.007935,0.011047,-0.989685,0.098718,0.24916,-0.085191,48,281,580,5760
1644175547.141762,-0.009033,0.009094,-0.991516,0.251389,0.493435,-0.054656,54,280,577,5728
1644175547.190109,-0.009155,0.011475,-0.992554,0.113985,0.417099,-0.085191,52,285,582,5840
1644175547.238507,-0.009949,0.010986,-0.992371,0.281924,0.279695,-0.008855,49,268,568,5760
1644175547.286884,-0.008301,0.011108,-0.990845,0.159786,0.432366,-0.161527,46,274,569,5776
1644175547.335281,-0.010986,0.009583,-0.990479,0.220855,0.294962,-0.069924,54,268,582,5808
1644175547.383682,-0.006653,0.010254,-0.993469,0.052916,0.401832,-0.024122,64,275,579,5776
1644175547.432048,-0.007202,0.010559,-0.994263,0.297191,0.508702,-0.085191,55,283,573,5760
1644175547.48047,-0.010742,0.013489,-0.992554,0.052916,0.325496,-0.100458,49,275,572,5696
1644175547.528849,-0.010498,0.010071,-0.990234,0.220855,0.310229,-0.008855,47,280,575,5760
1644175547.57722,-0.009033,0.011414,-0.99115,0.113985,0.401832,-0.054656,40,277,572,5776
1644175547.62563,-0.007812,0.011292,-0.989929,0.327725,0.356031,-0.268397,43,271,576,5776
1644175547.674044,-0.008423,0.012573,-0.992249,0.281924,0.462901,-0.115725,59,282,575,5728
1644175547.722429,-0.008789,0.010864,-0.993347,0.159786,0.188092,-0.039389,51,286,580,5712
1644175547.770802,-0.007385,0.010742,-0.992371,0.144519,0.233893,-0.192061,51,279,580,5776
1644175547.819177,-0.007996,0.012817,-0.991577,0.190321,0.294962,-0.054656,51,274,573,5712
1644175547.867625,-0.010498,0.009888,-0.990356,0.113985,0.539237,-0.161527,51,274,576,5728
1644175547.916048,-0.010376,0.008972,-0.991455,0.190321,0.478168,-0.054656,51,291,573,5760
1644175547.965774,-0.010559,0.011414,-0.989319,0.205588,0.432366,-0.161527,53,276,583,5808
1644175548.063128,-0.007812,0.010925,-0.992249,0.220855,0.539237,-0.085191,58,276,578,5760
1644175548.109545,-0.010742,0.009216,-0.990784,0.129252,0.386565,-0.222595,47,292,584,5648
1644175548.157965,-0.010559,0.009644,-0.989258,0.297191,0.462901,-0.130992,53,281,573,5776
1644175548.206307,-0.008728,0.007629,-0.99176,0.251389,0.401832,0.006412,54,277,577,5728
1644175548.254692,-0.009033,0.010376,-0.992065,0.266656,0.325496,0.036947,43,269,585,5728
1644175548.303117,-0.010254,0.009521,-0.990051,0.159786,0.24916,-0.207328,51,288,573,5728
1644175548.351507,-0.011414,0.009338,-0.992249,0.281924,0.462901,-0.14626,46,274,578,5760
1644175548.399894,-0.008545,0.010803,-0.994324,0.175053,0.371298,-0.14626,57,277,582,5760
1644175548.448271,-0.007507,0.008545,-0.99054,0.159786,0.264427,-0.115725,47,277,579,5824
1644175548.496651,-0.008789,0.008911,-0.993347,0.281924,0.279695,-0.130992,53,279,580,5872
1644175548.545183,-0.007996,0.009583,-0.989075,0.052916,0.447634,-0.176794,61,277,577,5696
1644175548.593459,-0.006226,0.013367,-0.991516,0.159786,0.188092,-0.024122,48,274,571,5760
1644175548.64185,-0.006836,0.008728,-0.991516,0.175053,0.325496,-0.329466,49,275,577,5728
1644175548.690237,-0.008789,0.01178,-0.989746,0.342992,0.432366,0.052214,46,269,573,5760
1644175548.738621,-0.010681,0.013123,-0.992493,0.266656,0.340763,-0.008855,52,277,579,5728
1644175548.787005,-0.00885,0.009644,-0.992981,0.297191,0.340763,-0.100458,54,270,582,5760
1644175548.835404,-0.008423,0.009521,-0.991211,0.342992,0.279695,-0.024122,49,270,577,5776
1644175548.884429,-0.010193,0.008484,-0.990784,0.220855,0.340763,-0.039389,40,275,579,5728
1644175548.934629,-0.006531,0.010559,-0.992249,0.266656,0.539237,-0.115725,51,281,580,5808
1644175548.984354,-0.010071,0.009827,-0.990173,0.297191,0.401832,-0.085191,52,268,575,5760
1644175549.034531,-0.009155,0.009827,-0.993835,0.236122,0.233893,0.006412,52,277,582,5760
1644175549.12575,-0.009888,0.009521,-0.990723,0.159786,0.447634,-0.130992,43,283,576,5712
1644175549.174158,-0.007141,0.00708,-0.988892,0.159786,0.386565,0.067481,54,270,579,5824
1644175549.222539,-0.007996,0.010925,-0.989807,0.190321,0.294962,-0.069924,47,275,577,5760
1644175549.270921,-0.008667,0.009094,-0.992981,0.113985,0.386565,-0.008855,53,276,578,5776
1644175549.319279,-0.011353,0.009705,-0.990356,0.35826,0.508702,-0.176794,49,280,572,5776
1644175549.367698,-0.008057,0.007874,-0.99353,0.266656,0.340763,-0.237863,48,276,573,5760
1644175549.416092,-0.008301,0.006226,-0.992249,0.129252,0.493435,-0.25313,43,288,587,5760
1644175549.464507,-0.007874,0.011414,-0.990601,0.098718,0.325496,-0.130992,45,277,563,5712
1644175549.512866,-0.010254,0.011292,-0.990356,0.190321,0.401832,-0.085191,48,276,573,5776
1644175549.561275,-0.009155,0.012634,-0.993225,0.205588,0.447634,-0.130992,54,268,575,5776
1644175549.609664,-0.011536,0.013489,-0.990234,0.175053,0.401832,-0.100458,55,281,569,5728
1644175549.658063,-0.00885,0.011292,-0.991211,0.266656,0.462901,-0.039389,43,264,580,5696
1644175549.706412,-0.010315,0.009277,-0.991638,0.129252,0.585038,0.036947,59,280,579,5712
1644175549.754879,-0.011169,0.010193,-0.990234,0.251389,0.478168,0.052214,54,275,582,5696
1644175549.803256,-0.00824,0.00708,-0.992676,0.388794,0.447634,-0.085191,46,274,578,5728
1644175549.851652,-0.009216,0.013184,-0.99176,0.007115,0.340763,-0.14626,51,276,587,5712
1644175549.900043,-0.008362,0.011963,-0.992737,0.251389,0.417099,-0.207328,39,279,585,5728
1644175549.948438,-0.006714,0.009521,-0.991943,0.251389,0.432366,-0.237863,61,275,565,5760
1644175549.996817,-0.010254,0.009644,-0.988892,0.220855,0.340763,0.021679,46,266,576,5696
1644175550.063168,-0.00885,0.009399,-0.99115,0.327725,0.462901,-0.130992,58,271,590,5776
1644175550.09881,-0.010864,0.008118,-0.989929,0.098718,0.401832,-0.161527,55,288,573,5728
1644175550.146041,-0.010559,0.009277,-0.990417,0.220855,0.417099,-0.14626,57,270,586,5776
1644175550.19105,-0.011353,0.010193,-0.991943,0.159786,0.401832,-0.176794,55,271,578,5760
1644175550.287114,-0.010254,0.009949,-0.992004,0.113985,0.493435,0.067481,45,275,579,5728
1644175550.335519,-0.009033,0.010986,-0.990601,0.205588,0.462901,-0.130992,49,268,570,5728
1644175550.383922,-0.008606,0.009705,-0.990967,0.113985,0.356031,-0.100458,52,280,575,5760
1644175550.432383,-0.009277,0.010498,-0.991333,0.144519,0.401832,-0.069924,42,260,572,5696
1644175550.480696,-0.011353,0.01001,-0.990906,0.220855,0.493435,0.006412,45,275,572,5728
1644175550.529084,-0.013184,0.009949,-0.992554,0.113985,0.401832,-0.039389,53,274,580,5808
1644175550.57747,-0.011536,0.009399,-0.992798,0.190321,0.432366,-0.054656,47,273,577,5760
1644175550.625859,-0.010925,0.009583,-0.99176,0.175053,0.493435,-0.100458,49,280,572,5776
1644175550.674269,-0.011963,0.010193,-0.991577,0.205588,0.508702,-0.192061,59,280,570,5776
1644175550.722665,-0.011169,0.010315,-0.991211,0.236122,0.386565,-0.100458,42,275,582,5728
1644175550.771036,-0.010498,0.010254,-0.990173,0.281924,0.462901,0.036947,51,266,573,5760
1644175550.819472,-0.010742,0.01123,-0.99353,0.312458,0.356031,-0.14626,53,271,571,5776
1644175550.867868,-0.01001,0.007324,-0.992188,0.327725,0.294962,-0.115725,43,271,583,5808
1644175550.91626,-0.011108,0.01062,-0.992004,0.251389,0.508702,-0.054656,48,269,583,5760
1644175550.964667,-0.009766,0.008179,-0.990967,0.129252,0.539237,-0.100458,59,268,586,5760
1644175551.013057,-0.007385,0.008911,-0.989258,0.266656,0.508702,-0.161527,51,274,578,5712
1644175551.078305,-0.011963,0.010803,-0.99231,0.236122,0.371298,-0.069924,48,276,583,5728
1644175551.112054,-0.007935,0.007568,-0.991699,0.236122,0.340763,-0.161527,48,269,597,5760
1644175551.158168,-0.010132,0.010681,-0.991699,0.327725,0.325496,0.036947,53,271,571,5696
1644175551.206597,-0.008667,0.010193,-0.990967,0.449863,0.340763,-0.024122,53,279,573,5760
1644175551.256841,-0.009949,0.008789,-0.989685,0.266656,0.310229,-0.085191,64,285,572,5760
1644175551.307531,-0.010864,0.00946,-0.991089,0.220855,0.356031,-0.192061,57,270,570,5776
1644175551.35237,-0.010315,0.013977,-0.99176,0.205588,0.493435,-0.008855,46,269,573,5728
1644175551.448503,-0.010254,0.011841,-0.992188,0.312458,0.325496,-0.130992,55,276,573,5696
1644175551.496894,-0.009949,0.007812,-0.992859,0.190321,0.523969,-0.069924,46,281,573,5808
1644175551.545396,-0.010437,0.009033,-0.989319,0.175053,0.493435,-0.100458,42,273,582,5728
1644175551.593695,-0.011414,0.009155,-0.99115,0.281924,0.356031,0.021679,57,270,572,5696
1644175551.642075,-0.009399,0.007629,-0.991699,0.144519,0.554504,0.021679,52,268,577,5776
1644175551.690477,-0.009827,0.00946,-0.991516,0.297191,0.325496,-0.130992,51,274,576,5696
1644175551.73885,-0.011475,0.008545,-0.992126,0.327725,0.371298,-0.024122,47,273,575,5776
1644175551.787261,-0.010864,0.007996,-0.994019,0.35826,0.371298,-0.115725,49,282,575,5824
1644175551.835691,-0.007751,0.010803,-0.992554,0.175053,0.417099,-0.039389,47,258,577,5712
1644175551.884099,-0.009216,0.009888,-0.987061,0.205588,0.432366,0.021679,41,266,573,5760
1644175551.93248,-0.008972,0.008118,-0.992249,0.205588,0.462901,-0.130992,47,275,572,5776
1644175551.980864,-0.01178,0.013123,-0.992981,0.236122,0.447634,-0.024122,46,274,585,5808
1644175552.029223,-0.008118,0.009705,-0.990295,0.236122,0.371298,-0.039389,47,277,579,5696
1644175552.085361,-0.008972,0.01178,-0.989563,0.312458,0.356031,-0.069924,57,270,596,5808
1644175552.126037,-0.010681,0.013,-0.990051,0.144519,0.310229,-0.176794,49,273,584,5808
1644175552.174357,-0.010498,0.008118,-0.992798,0.281924,0.340763,-0.024122,54,268,582,5648
1644175552.223106,-0.00885,0.006165,-0.991028,0.159786,0.417099,-0.069924,52,275,575,5728
1644175552.272165,-0.007812,0.012329,-0.987976,0.312458,0.447634,-0.100458,55,279,585,5664
1644175552.322671,-0.00885,0.007996,-0.991516,0.190321,0.417099,-0.192061,52,273,584,5776
1644175552.372972,-0.007874,0.009216,-0.989807,0.190321,0.371298,-0.024122,55,279,583,5728
1644175552.464901,-0.010132,0.013184,-0.99231,0.220855,0.371298,-0.008855,58,276,576,5696
1644175552.513117,-0.011108,0.008057,-0.991272,0.175053,0.447634,-0.085191,55,283,578,5712
1644175552.561486,-0.009216,0.010254,-0.993164,0.312458,0.279695,-0.100458,49,270,579,5728
1644175552.609894,-0.010376,0.011414,-0.990662,0.190321,0.310229,-0.207328,52,275,586,5760
1644175552.658251,-0.007507,0.010559,-0.994202,0.098718,0.447634,-0.085191,59,277,572,5760
1644175552.706656,-0.011963,0.012695,-0.989624,0.220855,0.310229,-0.039389,49,280,575,5760
1644175552.755099,-0.008972,0.01123,-0.98761,0.159786,0.386565,0.021679,51,269,578,5840
1644175552.803457,-0.010864,0.012329,-0.990662,0.297191,0.615573,0.021679,49,282,577,5696
1644175552.851907,-0.007996,0.010315,-0.991638,0.236122,0.386565,-0.054656,54,275,572,5728
1644175552.900285,-0.009644,0.008118,-0.992737,0.220855,0.294962,-0.237863,52,273,579,5760
1644175552.948683,-0.010132,0.011597,-0.992798,0.190321,0.523969,-0.100458,51,271,583,5712
1644175552.997037,-0.007996,0.011353,-0.993042,0.220855,0.447634,-0.085191,53,276,580,5808
1644175553.059873,-0.007385,0.01062,-0.990051,0.144519,0.310229,0.021679,61,280,586,5760
1644175553.093915,-0.011108,0.01062,-0.990234,0.266656,0.386565,-0.222595,41,274,580,5760
1644175553.142247,-0.01001,0.011414,-0.991089,0.327725,0.508702,-0.100458,53,279,587,5760
1644175553.190562,-0.008484,0.009949,-0.989441,0.175053,0.417099,-0.14626,52,282,579,5808
1644175553.238981,-0.009277,0.008667,-0.989563,0.251389,0.478168,-0.008855,58,266,576,5728
1644175553.287367,-0.007019,0.013062,-0.991821,0.342992,0.386565,0.021679,57,277,591,5712
1644175553.335863,-0.010498,0.011536,-0.990356,0.205588,0.310229,-0.039389,52,285,582,5824
1644175553.386323,-0.010681,0.008362,-0.990356,0.113985,0.325496,-0.039389,57,265,579,5776
1644175553.436445,-0.008789,0.011169,-0.988892,0.175053,0.493435,-0.115725,46,281,566,5760
1644175553.481682,-0.011719,0.010559,-0.993286,0.159786,0.462901,0.12855,51,274,578,5728
1644175553.5777,-0.010254,0.012573,-0.991333,0.022382,0.371298,-0.130992,48,276,585,5760
1644175553.626082,-0.008057,0.009216,-0.991638,0.281924,0.508702,-0.069924,53,279,576,5728
1644175553.674491,-0.011169,0.011841,-0.989502,0.175053,0.386565,-0.222595,46,274,583,5776
1644175553.722894,-0.009155,0.010071,-0.993042,0.388794,0.325496,-0.207328,53,279,566,5776
1644175553.771263,-0.011414,0.012573,-0.991699,0.266656,0.447634,-0.14626,65,269,583,5760
1644175553.819665,-0.010193,0.009827,-0.990967,0.190321,0.417099,0.113282,41,279,569,5760
1644175553.868099,-0.008057,0.00824,-0.991455,0.281924,0.508702,-0.008855,57,280,577,5696
1644175553.916505,-0.009888,0.011414,-0.992249,0.388794,0.340763,-0.176794,54,263,577,5696
1644175553.964898,-0.007507,0.010742,-0.990784,0.205588,0.294962,-0.069924,59,273,582,5760
1644175554.013271,-0.011597,0.012695,-0.990234,0.159786,0.386565,-0.069924,52,270,582,5776
1644175554.068208,-0.008484,0.011353,-0.990295,0.098718,0.585038,-0.085191,54,290,582,5776
1644175554.110015,-0.007141,0.009094,-0.98999,0.098718,0.432366,0.021679,58,276,571,5728
1644175554.158373,-0.010681,0.010803,-0.991699,0.220855,0.432366,-0.085191,54,273,584,5728
1644175554.206765,-0.007141,0.008484,-0.992554,0.098718,0.371298,-0.192061,51,288,587,5776
1644175554.255228,-0.01062,0.011414,-0.989868,0.480397,0.386565,-0.024122,47,282,582,5728
1644175554.303588,-0.007996,0.009949,-0.990723,0.159786,0.325496,-0.14626,58,286,585,5776
1644175554.35197,-0.009338,0.009521,-0.990417,0.342992,0.233893,-0.069924,53,279,587,5760
1644175554.40036,-0.009827,0.008972,-0.993164,0.281924,0.218626,-0.039389,48,279,578,5808
1644175554.448748,-0.011475,0.009216,-0.991943,0.220855,0.493435,-0.14626,57,282,584,5760
1644175554.497678,-0.012085,0.009827,-0.990784,0.342992,0.447634,-0.054656,42,270,575,5696
1644175554.547908,-0.009583,0.012634,-0.99292,0.281924,0.356031,-0.024122,46,281,583,5824
1644175554.597888,-0.011292,0.00708,-0.990295,0.281924,0.508702,-0.161527,51,276,576,5760
1644175554.642949,-0.010254,0.006287,-0.991028,0.281924,0.447634,-0.100458,41,271,573,5776
1644175554.739082,-0.007996,0.011841,-0.989502,0.297191,0.340763,-0.024122,46,269,576,5760
1644175554.787471,-0.012268,0.01001,-0.993896,0.129252,0.279695,-0.176794,53,276,576,5760
1644175554.835861,-0.00769,0.00824,-0.992249,0.281924,0.417099,-0.222595,49,270,575,5808
1644175554.884315,-0.009949,0.009094,-0.992065,0.159786,0.417099,-0.069924,42,275,577,5776
1644175554.932714,-0.011108,0.012024,-0.993103,0.236122,0.233893,-0.100458,48,276,576,5808
1644175554.981088,-0.008545,0.009155,-0.990967,0.022382,0.371298,-0.039389,45,275,577,5824
1644175555.029485,-0.010132,0.011963,-0.990601,0.220855,0.447634,-0.176794,54,277,579,5712
1644175555.079271,-0.01239,0.010315,-0.989258,0.129252,0.310229,-0.283664,53,281,585,5808
1644175555.126238,-0.00885,0.012878,-0.991638,0.144519,0.356031,-0.069924,42,265,572,5728
1644175555.174776,-0.009094,0.011475,-0.991943,0.129252,0.401832,-0.176794,52,271,571,5760
1644175555.223014,-0.009155,0.009155,-0.991394,0.251389,0.432366,-0.008855,48,271,585,5760
1644175555.271422,-0.010071,0.008179,-0.993103,0.266656,0.417099,-0.115725,48,281,583,5712
1644175555.31979,-0.010132,0.011597,-0.987488,0.144519,0.417099,-0.161527,47,282,575,5760
1644175555.368181,-0.011047,0.00824,-0.992554,0.297191,0.432366,-0.024122,49,277,579,5760
1644175555.416574,-0.00885,0.006897,-0.989807,0.220855,0.447634,0.021679,46,281,578,5760
1644175555.465008,-0.008301,0.009399,-0.990295,0.342992,0.386565,-0.14626,51,274,564,5760
1644175555.513362,-0.011902,0.009399,-0.992432,0.266656,0.356031,-0.039389,47,282,579,5776
1644175555.561734,-0.010315,0.008545,-0.993103,0.175053,0.462901,-0.069924,42,282,586,5728
1644175555.610122,-0.010925,0.010132,-0.99176,0.266656,0.371298,-0.130992,51,279,566,5760
1644175555.658924,-0.010315,0.008423,-0.991943,0.159786,0.539237,0.082748,49,285,572,5760
1644175555.709275,-0.008423,0.008911,-0.991028,0.327725,0.401832,-0.039389,45,285,586,5840
1644175555.759424,-0.006958,0.007935,-0.991577,0.327725,0.417099,-0.14626,54,277,584,5760
1644175555.804433,-0.008545,0.008728,-0.992493,0.281924,0.386565,0.036947,47,277,577,5760
1644175555.900528,-0.012573,0.011108,-0.991394,0.297191,0.386565,-0.115725,49,268,572,5664
1644175555.94891,-0.00946,0.010864,-0.990723,0.175053,0.478168,-0.161527,45,273,582,5696
1644175555.997281,-0.009583,0.008118,-0.990845,0.220855,0.417099,-0.085191,51,264,578,5824
1644175556.062968,-0.007202,0.009644,-0.991272,0.220855,0.294962,-0.024122,49,275,584,5712
1644175556.09443,-0.009277,0.011841,-0.988403,0.190321,0.417099,-0.024122,54,268,584,5760
1644175556.142502,-0.007507,0.010864,-0.99353,0.251389,0.447634,-0.14626,60,288,578,5808
1644175556.190826,-0.009521,0.009766,-0.992371,0.220855,0.340763,-0.069924,54,280,584,5808
1644175556.239184,-0.012817,0.008667,-0.991577,0.312458,0.417099,-0.130992,43,279,569,5712
1644175556.287609,-0.009521,0.010254,-0.992493,0.220855,0.478168,-0.039389,47,273,572,5776
1644175556.336001,-0.009216,0.012146,-0.991333,0.404061,0.401832,-0.115725,51,279,580,5696
1644175556.384392,-0.011353,0.011353,-0.992737,0.312458,0.447634,-0.222595,54,277,577,5664
1644175556.43276,-0.011353,0.010193,-0.991028,0.175053,0.386565,-0.085191,42,280,579,5728
1644175556.481159,-0.010681,0.008118,-0.990295,0.266656,0.478168,-0.008855,47,290,575,5696
1644175556.529932,-0.009338,0.00946,-0.992737,0.220855,0.294962,-0.237863,42,270,579,5696
1644175556.579984,-0.010193,0.006836,-0.990845,0.236122,0.340763,-0.237863,49,277,577,5776
1644175556.630269,-0.010376,0.008545,-0.990295,0.190321,0.233893,-0.100458,51,271,571,5728
1644175556.675446,-0.009705,0.010559,-0.989746,0.281924,0.462901,-0.039389,67,279,578,5760
1644175556.771498,-0.009827,0.010254,-0.992981,0.220855,0.386565,-0.130992,58,271,578,5808
1644175556.819912,-0.009277,0.008911,-0.98999,0.251389,0.447634,-0.069924,52,275,577,5760
1644175556.868287,-0.007935,0.008606,-0.98999,0.281924,0.386565,-0.14626,53,279,583,5728
1644175556.916727,-0.009521,0.007263,-0.991577,0.205588,0.356031,-0.069924,52,273,570,5712
1644175556.965154,-0.007996,0.011047,-0.991577,0.098718,0.401832,-0.069924,43,288,583,5728
1644175557.013513,-0.009094,0.009033,-0.994019,0.190321,0.386565,0.036947,52,265,577,5760
1644175557.069016,-0.010559,0.010132,-0.991333,0.205588,0.371298,-0.161527,49,277,582,5808
1644175557.110271,-0.008057,0.010986,-0.993408,0.281924,0.386565,-0.130992,51,271,580,5760
1644175557.158657,-0.008057,0.011108,-0.992432,0.266656,0.386565,-0.14626,48,279,571,5760
1644175557.207089,-0.008789,0.009277,-0.989929,0.251389,0.554504,-0.100458,51,271,562,5776
1644175557.255465,-0.010986,0.010254,-0.99054,0.190321,0.462901,-0.237863,38,273,577,5696
1644175557.303864,-0.012634,0.00946,-0.991211,0.312458,0.417099,0.006412,53,271,566,5728
1644175557.352265,-0.010071,0.009521,-0.990906,0.251389,0.432366,-0.161527,52,265,577,5728
1644175557.400638,-0.010498,0.007324,-0.991943,0.205588,0.401832,-0.207328,41,276,583,5728
1644175557.44903,-0.010376,0.008362,-0.990906,0.007115,0.294962,-0.024122,47,275,570,5696
1644175557.497423,-0.012268,0.009277,-0.99353,0.297191,0.310229,-0.161527,54,273,568,5776
1644175557.5458,-0.007141,0.011475,-0.993835,0.190321,0.432366,-0.054656,55,274,578,5760
1644175557.594283,-0.010071,0.00946,-0.990479,0.342992,0.233893,0.006412,47,280,572,5776
1644175557.642621,-0.009827,0.009399,-0.990295,0.266656,0.325496,-0.100458,53,269,573,5760
1644175557.692595,-0.010803,0.009338,-0.992554,0.190321,0.386565,0.021679,47,285,577,5728
1644175557.743101,-0.01123,0.008789,-0.991394,0.144519,0.356031,-0.085191,52,268,568,5760
1644175557.793335,-0.00946,0.009705,-0.992737,0.419328,0.371298,-0.069924,52,270,568,5696
1644175557.838169,-0.007935,0.008667,-0.992676,0.190321,0.478168,-0.115725,46,271,564,5712
1644175557.932952,-0.009827,0.011414,-0.992554,0.266656,0.340763,-0.207328,54,280,582,5760
1644175557.981316,-0.007935,0.009155,-0.992798,0.220855,0.371298,-0.14626,49,273,572,5696
1644175558.029708,-0.010742,0.009827,-0.991272,0.220855,0.325496,-0.039389,51,271,583,5808
1644175558.078144,-0.013062,0.01123,-0.994629,0.113985,0.386565,0.052214,49,273,582,5760
1644175558.12645,-0.007874,0.010681,-0.990723,0.327725,0.432366,-0.25313,48,262,580,5696
1644175558.174865,-0.005859,0.012024,-0.991699,0.144519,0.585038,0.113282,49,277,584,5808
1644175558.223252,-0.010803,0.009033,-0.989563,0.220855,0.386565,-0.207328,51,279,571,5776
1644175558.27161,-0.008362,0.008179,-0.99054,0.08345,0.539237,-0.024122,55,279,576,5728
1644175558.320003,-0.009033,0.009216,-0.991089,0.419328,0.264427,-0.237863,49,273,582,5728
1644175558.368427,-0.007874,0.007507,-0.991638,0.08345,0.371298,-0.130992,49,268,575,5760
1644175558.416818,-0.010986,0.008728,-0.98877,0.190321,0.356031,-0.085191,46,276,580,5696
1644175558.465278,-0.009399,0.010071,-0.99176,0.327725,0.401832,-0.024122,46,266,569,5872
1644175558.513584,-0.013184,0.008606,-0.991272,0.297191,0.325496,0.021679,53,281,578,5728
1644175558.561975,-0.007751,0.011536,-0.992126,0.251389,0.417099,-0.008855,53,271,578,5728
1644175558.610371,-0.011597,0.009399,-0.992798,0.266656,0.386565,0.021679,53,271,576,5760
1644175558.658762,-0.01001,0.012878,-0.995361,0.297191,0.401832,-0.024122,61,277,572,5712
1644175558.707145,-0.009827,0.010254,-0.989746,0.251389,0.447634,-0.130992,55,271,576,5760
1644175558.755522,-0.011169,0.009949,-0.992004,0.327725,0.478168,-0.25313,47,270,579,5808
1644175558.803981,-0.009705,0.011597,-0.989929,0.190321,0.401832,-0.283664,53,269,578,5760
1644175558.85368,-0.007141,0.012085,-0.99176,0.175053,0.386565,-0.14626,51,276,578,5824
1644175558.904003,-0.00885,0.009155,-0.990356,0.129252,0.447634,-0.069924,49,273,582,5664
1644175558.954181,-0.014343,0.007507,-0.993713,0.281924,0.356031,-0.069924,42,270,579,5808
1644175558.998818,-0.008301,0.010681,-0.994995,0.08345,0.447634,-0.192061,52,265,589,5712
1644175559.096106,-0.006531,0.008057,-0.989441,0.220855,0.432366,-0.054656,42,268,575,5712
1644175559.142676,-0.007629,0.009155,-0.990906,0.159786,0.371298,-0.115725,46,269,578,5760
1644175559.191047,-0.013062,0.007812,-0.990662,0.266656,0.386565,-0.100458,45,280,584,5728
1644175559.239475,-0.010681,0.009644,-0.99176,0.098718,0.401832,-0.069924,52,280,582,5728
1644175559.287848,-0.011353,0.006287,-0.993713,0.190321,0.417099,-0.115725,47,275,584,5696
1644175559.336245,-0.007019,0.012695,-0.993103,0.266656,0.401832,-0.054656,52,273,586,5760
1644175559.384696,-0.007935,0.009949,-0.990601,0.281924,0.493435,0.036947,46,269,576,5760
1644175559.433045,-0.01062,0.010864,-0.990967,0.175053,0.478168,-0.069924,51,264,580,5760
1644175559.481409,-0.006348,0.01123,-0.991516,0.098718,0.386565,-0.024122,61,282,577,5760
1644175559.529807,-0.010315,0.010254,-0.991638,0.190321,0.401832,-0.085191,53,276,578,5696
1644175559.578197,-0.013428,0.010315,-0.991028,0.190321,0.310229,-0.14626,53,286,573,5760
1644175559.626578,-0.008057,0.009583,-0.991028,0.46513,0.325496,-0.14626,51,279,576,5760
1644175559.675017,-0.00885,0.010132,-0.990295,0.159786,0.356031,-0.130992,55,279,583,5760
1644175559.72338,-0.009888,0.010132,-0.989807,0.220855,0.417099,-0.069924,48,274,580,5808
1644175559.771751,-0.011902,0.01001,-0.992004,0.220855,0.447634,-0.222595,47,280,575,5776
1644175559.820175,-0.007141,0.012146,-0.990845,0.220855,0.523969,-0.14626,40,270,572,5760
1644175559.869786,-0.007324,0.010864,-0.992798,-0.008153,0.340763,-0.100458,47,280,577,5760
1644175559.919426,-0.009888,0.010864,-0.991089,0.236122,0.356031,-0.024122,42,280,575,5760
1644175559.969826,-0.008118,0.009338,-0.991821,0.175053,0.478168,-0.100458,39,271,576,5712
1644175560.069013,-0.00592,0.008728,-0.992676,0.327725,0.432366,-0.176794,57,268,584,5728
1644175560.110483,-0.007324,0.00946,-0.992737,0.266656,0.523969,-0.039389,48,276,585,5760
1644175560.15885,-0.007385,0.00885,-0.992004,0.236122,0.432366,0.052214,49,280,577,5776
1644175560.207267,-0.007874,0.012085,-0.992065,0.220855,0.432366,0.021679,51,271,578,5776
1644175560.255635,-0.008545,0.012146,-0.988525,0.205588,0.478168,-0.008855,46,266,566,5664
1644175560.304054,-0.011597,0.008545,-0.991272,0.144519,0.523969,-0.085191,59,270,572,5728
1644175560.352459,-0.009521,0.011902,-0.991089,0.266656,0.371298,-0.039389,55,276,580,5776
1644175560.400809,-0.012817,0.011353,-0.989563,0.129252,0.310229,-0.283664,35,285,572,5728
1644175560.44921,-0.010315,0.011658,-0.990173,0.175053,0.417099,-0.085191,53,281,576,5776
1644175560.497606,-0.011902,0.009766,-0.992004,0.068183,0.279695,-0.161527,52,273,584,5760
1644175560.546004,-0.012573,0.009155,-0.992859,0.281924,0.356031,-0.130992,57,280,577,5760
1644175560.594398,-0.012817,0.01062,-0.990967,0.404061,0.432366,-0.024122,59,275,568,5760
1644175560.642802,-0.008728,0.011047,-0.989075,0.190321,0.432366,-0.130992,45,275,568,5728
1644175560.691177,-0.008362,0.009827,-0.989136,0.144519,0.447634,-0.024122,47,277,579,5712
1644175560.739566,-0.009155,0.009644,-0.993042,0.205588,0.356031,-0.192061,54,270,584,5728
1644175560.78829,-0.011719,0.00769,-0.995544,0.266656,0.325496,-0.085191,46,281,580,5776
1644175560.837646,-0.009338,0.008728,-0.992126,0.220855,0.279695,-0.039389,51,271,585,5696
1644175560.888671,-0.008118,0.012085,-0.989014,0.175053,0.478168,-0.069924,55,269,576,5760
1644175560.938784,-0.008423,0.010315,-0.989685,0.266656,0.432366,-0.176794,47,280,582,5760
1644175561.029993,-0.009521,0.010498,-0.991211,0.113985,0.386565,-0.176794,61,275,586,5760
1644175561.078393,-0.011841,0.00946,-0.992493,0.281924,0.340763,-0.161527,52,273,586,5776
1644175561.126742,-0.01001,0.007019,-0.992432,0.144519,0.340763,-0.161527,45,273,572,5696
1644175561.17512,-0.009827,0.009216,-0.991516,0.144519,0.279695,-0.054656,48,271,576,5760
1644175561.22348,-0.008911,0.011902,-0.989868,0.327725,0.447634,-0.161527,57,285,579,5728
1644175561.271835,-0.011536,0.011169,-0.990662,0.205588,0.417099,-0.161527,52,280,584,5728
1644175561.320259,-0.01062,0.01062,-0.989624,0.159786,0.493435,-0.069924,47,270,577,5712
1644175561.368654,-0.010315,0.009583,-0.990173,0.236122,0.264427,-0.237863,55,271,580,5760
1644175561.417044,-0.012024,0.011169,-0.993652,0.266656,0.356031,-0.192061,55,262,585,5776
1644175561.465458,-0.008423,0.007812,-0.994934,0.373527,0.478168,-0.130992,40,277,589,5728
1644175561.51382,-0.011169,0.012817,-0.990356,0.236122,0.340763,-0.054656,51,274,576,5760
1644175561.562246,-0.007629,0.008728,-0.990417,0.251389,0.447634,-0.100458,46,271,583,5776
1644175561.610605,-0.009521,0.009155,-0.992065,0.190321,0.24916,-0.14626,53,271,573,5776
1644175561.658999,-0.008789,0.01001,-0.991455,0.205588,0.417099,-0.100458,59,280,565,5728
1644175561.707387,-0.010498,0.013733,-0.99231,0.220855,0.432366,-0.008855,47,280,579,5728
1644175561.755753,-0.010193,0.013184,-0.993347,0.113985,0.417099,-0.207328,51,279,580,5760
1644175561.804174,-0.007568,0.012268,-0.991699,0.35826,0.478168,-0.100458,42,280,584,5776
1644175561.852701,-0.00946,0.005676,-0.991821,0.327725,0.447634,-0.085191,57,268,570,5728
1644175561.901457,-0.007446,0.007996,-0.989807,0.281924,0.386565,0.021679,54,282,584,5760
1644175561.951988,-0.01001,0.010437,-0.992676,0.281924,0.356031,-0.192061,45,270,579,5760
1644175562.001852,-0.008911,0.010559,-0.993652,0.175053,0.585038,-0.024122,55,271,576,5712
1644175562.059141,-0.009949,0.009583,-0.988831,0.220855,0.478168,0.021679,55,269,578,5760
1644175562.142958,-0.009155,0.010742,-0.992126,0.190321,0.325496,-0.176794,48,266,573,5728
1644175562.191286,-0.007385,0.010864,-0.988708,0.251389,0.386565,-0.222595,52,268,582,5696
1644175562.23967,-0.009766,0.012634,-0.99231,0.251389,0.401832,-0.130992,46,269,580,5808
1644175562.288057,-0.007202,0.010376,-0.99292,0.419328,0.310229,0.082748,43,269,573,5728
1644175562.33646,-0.007874,0.009583,-0.989502,0.175053,0.24916,-0.115725,54,280,582,5824
1644175562.384858,-0.010986,0.01123,-0.991577,0.144519,0.340763,-0.039389,41,269,571,5696
1644175562.433253,-0.01062,0.01123,-0.99292,0.08345,0.340763,-0.115725,41,274,578,5760
1644175562.481646,-0.010559,0.00824,-0.991577,0.175053,0.203359,-0.115725,51,269,573,5712
1644175562.530025,-0.009521,0.011047,-0.990051,0.35826,0.417099,-0.161527,54,275,582,5664
1644175562.578433,-0.011902,0.014099,-0.989685,0.205588,0.371298,-0.14626,48,269,573,5664
1644175562.62682,-0.004639,0.008179,-0.990295,0.251389,0.493435,0.006412,52,273,582,5728
1644175562.675291,-0.006958,0.009338,-0.989319,0.129252,0.462901,-0.085191,55,276,587,5824
1644175562.723608,-0.011292,0.010559,-0.99176,0.129252,0.340763,0.021679,54,282,579,5760
1644175562.77199,-0.008789,0.008545,-0.993225,0.266656,0.478168,-0.161527,47,277,577,5840
1644175562.820385,-0.010132,0.009827,-0.99176,0.312458,0.310229,-0.161527,57,268,572,5776
1644175562.868972,-0.010254,0.010498,-0.991272,0.220855,0.310229,-0.115725,59,280,582,5808
1644175562.917211,-0.008972,0.009888,-0.990723,0.220855,0.325496,0.036947,61,280,591,5712
1644175562.96634,-0.00946,0.008423,-0.992493,0.236122,0.417099,-0.085191,47,270,579,5760
1644175563.068541,-0.009399,0.008911,-0.989441,0.220855,0.417099,-0.039389,48,269,583,5776
1644175563.110713,-0.009705,0.010681,-0.992126,0.190321,0.340763,-0.176794,51,276,580,5760
1644175563.159086,-0.007629,0.008728,-0.991821,0.236122,0.417099,-0.192061,47,280,579,5728
1644175563.207498,-0.009949,0.010254,-0.993347,0.266656,0.310229,-0.069924,57,268,586,5776
1644175563.255885,-0.007751,0.01123,-0.990662,0.144519,0.493435,-0.130992,59,277,579,5728
1644175563.304275,-0.011414,0.007019,-0.990417,0.190321,0.356031,-0.100458,57,275,575,5696
1644175563.352646,-0.013367,0.010742,-0.992798,0.251389,0.447634,-0.008855,51,279,587,5824
1644175563.401065,-0.007751,0.009766,-0.991516,0.373527,0.600305,-0.069924,53,264,590,5776
1644175563.449468,-0.012024,0.010498,-0.990601,0.190321,0.478168,-0.130992,57,280,577,5696
1644175563.497844,-0.009155,0.013489,-0.991821,0.236122,0.218626,-0.115725,54,275,572,5712
1644175563.546307,-0.010681,0.010803,-0.99292,0.312458,0.554504,0.006412,57,275,577,5728
1644175563.594673,-0.010132,0.009216,-0.990295,0.236122,0.386565,-0.085191,55,274,578,5696
1644175563.643041,-0.011108,0.009216,-0.994934,0.175053,0.340763,-0.176794,49,280,572,5712
1644175563.691422,-0.005859,0.010071,-0.988281,0.175053,0.478168,-0.069924,61,280,577,5712
1644175563.744788,-0.01062,0.011597,-0.993164,0.159786,0.569771,-0.039389,42,273,579,5776
1644175563.836783,-0.009277,0.008484,-0.990112,0.327725,0.569771,-0.100458,58,274,587,5728
1644175563.88548,-0.01062,0.011963,-0.990967,0.175053,0.371298,-0.192061,57,280,577,5760
1644175563.934198,-0.012024,0.010742,-0.991211,0.129252,0.371298,-0.115725,62,279,583,5760
1644175563.981726,-0.011536,0.011414,-0.991028,0.175053,0.371298,-0.054656,52,270,584,5696
1644175564.030091,-0.009705,0.006104,-0.99176,0.175053,0.401832,-0.069924,52,282,586,5696
1644175564.083196,-0.010864,0.007446,-0.993164,0.159786,0.325496,-0.100458,59,273,584,5728
1644175564.127042,-0.011841,0.009155,-0.991455,0.159786,0.417099,-0.039389,47,273,584,5760
1644175564.175433,-0.012268,0.009705,-0.991211,0.236122,0.371298,-0.100458,57,270,584,5712
1644175564.228127,-0.010864,0.013,-0.990295,0.205588,0.325496,-0.130992,47,275,577,5696
1644175564.272314,-0.010498,0.008362,-0.990601,0.312458,0.462901,-0.192061,57,275,579,5760
1644175564.320459,-0.009094,0.009399,-0.990295,0.175053,0.264427,-0.100458,45,273,572,5712
1644175564.368928,-0.011108,0.007874,-0.993408,0.327725,0.371298,-0.008855,47,275,570,5712
1644175564.418151,-0.009888,0.009399,-0.990112,0.281924,0.447634,-0.024122,51,279,583,5664
1644175564.4659,-0.008057,0.010986,-0.991394,0.251389,0.508702,0.006412,49,280,589,5728
1644175564.516889,-0.006348,0.009094,-0.991211,0.327725,0.417099,-0.069924,57,265,582,5776
1644175564.565611,-0.008728,0.012085,-0.991699,0.159786,0.218626,-0.069924,54,282,593,5776
1644175564.618945,-0.005188,0.013123,-0.992432,0.205588,0.264427,-0.100458,49,282,586,5712
1644175564.663686,-0.005737,0.011353,-0.98938,0.098718,0.432366,-0.161527,60,276,576,5696
1644175564.708678,-0.009583,0.010315,-0.991943,0.205588,0.386565,-0.14626,58,279,576,5760
1644175564.804405,-0.008423,0.012939,-0.991577,0.297191,0.508702,-0.024122,54,270,570,5696
1644175564.852798,-0.011475,0.010437,-0.993042,0.281924,0.279695,-0.207328,57,265,582,5664
1644175564.901181,-0.008545,0.009644,-0.991638,0.220855,0.432366,-0.176794,48,264,571,5760
1644175564.949571,-0.009155,0.009521,-0.990234,0.129252,0.462901,-0.192061,55,274,571,5696
1644175564.999007,-0.009949,0.009949,-0.991943,0.205588,0.493435,-0.115725,62,283,580,5872
1644175565.059782,-0.009583,0.013245,-0.991272,0.312458,0.386565,-0.176794,43,283,585,5728
1644175565.094888,-0.009094,0.01062,-0.989075,0.190321,0.386565,0.143817,53,281,578,5696
1644175565.143168,-0.007568,0.009827,-0.990662,0.388794,0.386565,-0.100458,55,279,573,5808
1644175565.191515,-0.011597,0.009338,-0.988342,0.266656,0.447634,-0.085191,49,273,579,5776
1644175565.239972,-0.008118,0.013855,-0.990723,0.251389,0.478168,-0.008855,45,273,568,5664
1644175565.288331,-0.009155,0.012024,-0.992126,0.236122,0.401832,-0.069924,41,279,559,5760
1644175565.336741,-0.010376,0.007996,-0.990051,0.205588,0.432366,-0.115725,54,277,586,5760
1644175565.38521,-0.008301,0.012756,-0.989868,0.251389,0.401832,-0.161527,58,276,580,5696
1644175565.433498,-0.00885,0.010254,-0.99115,0.297191,0.447634,-0.115725,54,275,582,5712
1644175565.481906,-0.011169,0.012024,-0.990662,0.190321,0.401832,-0.039389,58,276,573,5760
1644175565.530314,-0.005676,0.013306,-0.989624,0.159786,0.264427,0.006412,49,277,589,5760
1644175565.579197,-0.00769,0.012085,-0.993774,0.312458,0.294962,-0.14626,51,276,578,5840
1644175565.630927,-0.008179,0.01062,-0.991028,0.113985,0.340763,-0.192061,48,276,580,5776
1644175565.681151,-0.009338,0.01123,-0.993713,0.068183,0.401832,-0.207328,57,277,575,5776
1644175565.725723,-0.007263,0.011963,-0.989563,0.404061,0.279695,0.006412,55,274,583,5712
1644175565.820616,-0.006714,0.010986,-0.990112,0.113985,0.294962,0.021679,41,279,578,5776
1644175565.869045,-0.009399,0.009033,-0.990845,0.220855,0.340763,-0.115725,52,282,577,5760
1644175565.917437,-0.008118,0.009277,-0.989685,0.220855,0.462901,-0.176794,52,270,579,5760
1644175565.965829,-0.011169,0.008972,-0.99115,0.35826,0.24916,-0.100458,54,268,579,5728
1644175566.014233,-0.009888,0.010254,-0.991638,0.159786,0.386565,-0.207328,53,276,580,5696
1644175566.066375,-0.009216,0.013672,-0.991272,0.144519,0.401832,-0.130992,51,269,578,5760
1644175566.110977,-0.008972,0.011658,-0.99231,0.159786,0.401832,0.021679,49,285,586,5712
1644175566.159358,-0.008972,0.010559,-0.989563,0.205588,0.417099,-0.008855,58,279,571,5760
1644175566.207745,-0.008545,0.009338,-0.990662,0.144519,0.447634,-0.054656,49,280,572,5760
1644175566.256135,-0.008545,0.009155,-0.993835,0.190321,0.371298,0.006412,51,266,585,5712
1644175566.304529,-0.00946,0.019409,-0.989563,0.205588,0.325496,-0.024122,45,273,575,5760
1644175566.3529,-0.008789,0.013306,-0.991821,0.327725,0.478168,-0.008855,55,281,578,5760
1644175566.40128,-0.011719,0.007263,-0.99231,0.129252,0.432366,-0.024122,54,275,589,5712
1644175566.450645,-0.007324,0.009644,-0.988037,0.236122,0.447634,-0.192061,43,276,583,5712
1644175566.498096,-0.011047,0.011658,-0.991638,0.220855,0.386565,-0.192061,60,276,583,5776
1644175566.546494,-0.007874,0.011597,-0.991699,0.266656,0.371298,0.006412,47,273,577,5824
1644175566.594882,-0.008057,0.009705,-0.990845,0.068183,0.401832,-0.054656,51,279,583,5696
1644175566.643268,-0.010559,0.010803,-0.992188,0.236122,0.356031,-0.069924,45,277,575,5808
1644175566.691962,-0.009155,0.009583,-0.992432,0.281924,0.417099,-0.024122,58,276,583,5664
1644175566.740767,-0.009033,0.013062,-0.991638,0.342992,0.539237,-0.100458,43,276,578,5776
1644175566.791437,-0.009277,0.009583,-0.990784,0.129252,0.417099,0.021679,43,274,580,5776
1644175566.83683,-0.009949,0.012329,-0.989746,0.297191,0.508702,-0.25313,54,277,572,5728
1644175566.933665,-0.009827,0.010376,-0.990906,0.434595,0.401832,-0.054656,45,270,575,5696
1644175566.982042,-0.011047,0.010437,-0.991333,0.297191,0.417099,-0.130992,51,269,566,5760
1644175567.030428,-0.006958,0.012146,-0.992737,0.419328,0.493435,-0.176794,43,271,578,5712
1644175567.078902,-0.012207,0.008728,-0.989502,0.190321,0.447634,0.067481,52,277,589,5760
1644175567.127202,-0.01123,0.009705,-0.988892,0.327725,0.279695,-0.161527,51,274,580,5728
1644175567.175581,-0.010803,0.008484,-0.989441,0.297191,0.447634,-0.207328,51,286,576,5808
1644175567.223962,-0.008118,0.011902,-0.990295,0.129252,0.478168,-0.054656,53,276,580,5776
1644175567.272336,-0.009949,0.010132,-0.990967,0.35826,0.447634,-0.115725,52,277,579,5760
1644175567.320729,-0.008606,0.010254,-0.993042,0.175053,0.157557,0.052214,52,277,579,5760
