epoch,acc_x,acc_y,acc_z,rot_x,rot_y,rot_z,mag_x,mag_y,mag_z,temp
1644184500.037698,-0.00946,0.006592,-0.990601,0.266656,0.462901,-0.100458,48,266,587,6192
1644184500.100266,-0.008301,0.008301,-0.992249,0.098718,0.523969,-0.100458,59,280,586,6240
1644184500.134476,-0.008728,0.01001,-0.990784,0.159786,0.325496,-0.130992,57,265,579,6176
1644184500.182868,-0.010315,0.011108,-0.990051,0.281924,0.432366,-0.054656,41,281,585,6176
1644184500.231228,-0.006714,0.008606,-0.992493,0.297191,0.325496,0.113282,51,281,585,6224
1644184500.279634,-0.006042,0.008789,-0.99054,0.113985,0.432366,-0.085191,53,279,587,6176
1644184500.328022,-0.010315,0.011108,-0.991272,0.129252,0.356031,-0.130992,52,277,577,6240
1644184500.376412,-0.00708,0.011353,-0.992615,0.175053,0.371298,-0.069924,57,275,582,6176
1644184500.424798,-0.010803,0.007629,-0.993408,0.281924,0.478168,-0.192061,51,291,592,6288
1644184500.473189,-0.008484,0.012817,-0.991882,0.159786,0.386565,-0.14626,43,271,578,6176
1644184500.521771,-0.007812,0.01123,-0.991028,0.373527,0.386565,-0.14626,51,279,590,6256
1644184500.5713,-0.011536,0.01062,-0.989868,0.236122,0.417099,-0.054656,47,275,584,6176
1644184500.621484,-0.007324,0.009155,-0.992188,0.129252,0.417099,-0.207328,42,273,582,6224
1644184500.671762,-0.00824,0.009949,-0.992004,0.312458,0.356031,-0.14626,41,274,587,6224
1644184500.763587,-0.007324,0.009155,-0.99292,0.251389,0.279695,-0.008855,58,274,583,6224
1644184500.811943,-0.010132,0.010498,-0.990417,0.297191,0.462901,-0.130992,48,279,587,6160
1644184500.860349,-0.010132,0.009705,-0.989075,0.113985,0.340763,-0.115725,52,277,586,6224
1644184500.90876,-0.009949,0.009216,-0.989868,0.129252,0.371298,-0.130992,47,268,582,6224
1644184500.957164,-0.007874,0.01178,-0.993896,0.052916,0.462901,-0.130992,49,273,584,6240
1644184501.005529,-0.005798,0.010254,-0.990356,0.251389,0.325496,-0.207328,47,277,591,6128
1644184501.065292,-0.00592,0.007263,-0.990601,0.098718,0.432366,-0.069924,53,286,587,6224
1644184501.104804,-0.00769,0.01178,-0.989258,0.373527,0.417099,-0.100458,48,281,587,6240
1644184501.150734,-0.008789,0.009338,-0.990967,0.144519,0.310229,-0.115725,42,275,582,6176
1644184501.19906,-0.008789,0.010681,-0.990967,0.159786,0.539237,-0.024122,52,273,577,6192
1644184501.247486,-0.009338,0.010376,-0.990417,0.220855,0.340763,-0.176794,39,288,583,6224
1644184501.295905,-0.006958,0.012329,-0.991211,0.113985,0.356031,-0.085191,43,283,578,6256
1644184501.344269,-0.009216,0.008423,-0.991699,0.098718,0.462901,-0.069924,52,273,584,6224
1644184501.392666,-0.00708,0.009644,-0.991638,0.266656,0.447634,-0.054656,53,276,587,6224
1644184501.441046,-0.010803,0.009277,-0.991272,0.068183,0.462901,-0.054656,58,279,585,6160
1644184501.48947,-0.00946,0.012573,-0.991882,0.190321,0.447634,-0.085191,48,276,590,6224
1644184501.537973,-0.008362,0.009094,-0.990479,0.175053,0.386565,-0.100458,52,275,579,6240
1644184501.58689,-0.01062,0.01062,-0.990295,0.236122,0.386565,-0.115725,49,277,579,6224
1644184501.637464,-0.009216,0.010864,-0.992371,0.266656,0.493435,-0.024122,43,269,580,6128
1644184501.688018,-0.008179,0.010742,-0.990967,0.144519,0.218626,-0.100458,52,282,582,6176
1644184501.732544,-0.008728,0.008667,-0.988953,0.236122,0.371298,0.159084,46,283,578,6112
1644184501.828175,-0.008545,0.011536,-0.99292,0.251389,0.401832,-0.039389,60,276,585,6128
1644184501.876572,-0.003296,0.010132,-0.993896,0.113985,0.417099,-0.069924,70,281,578,6176
1644184501.925056,-0.009277,0.008972,-0.991882,0.159786,0.294962,-0.054656,41,266,580,6256
1644184501.973427,-0.008118,0.01239,-0.992859,0.281924,0.371298,-0.130992,43,271,583,6192
1644184502.021801,-0.007629,0.008179,-0.991394,0.220855,0.310229,-0.024122,53,276,566,6176
1644184502.070771,-0.008118,0.01123,-0.990906,0.144519,0.478168,0.036947,61,280,584,6224
1644184502.118562,-0.009888,0.009094,-0.989685,0.236122,0.432366,0.052214,59,273,596,6192
1644184502.166959,-0.008667,0.009766,-0.991272,0.175053,0.356031,-0.100458,45,268,584,6128
1644184502.215344,-0.008423,0.00885,-0.990662,0.037649,0.447634,-0.207328,57,273,586,6224
1644184502.263736,-0.007202,0.010864,-0.990784,0.404061,0.417099,-0.085191,49,273,579,6192
1644184502.312241,-0.009949,0.010864,-0.990601,0.388794,0.386565,-0.14626,54,270,586,6256
1644184502.360515,-0.009888,0.008789,-0.990479,0.159786,0.462901,0.006412,40,273,582,6256
1644184502.408908,-0.006714,0.008728,-0.992065,0.236122,0.569771,0.052214,47,275,582,6176
1644184502.457268,-0.007935,0.010864,-0.99176,0.236122,0.294962,0.098015,45,280,584,6176
1644184502.505674,-0.010864,0.008545,-0.991211,0.266656,0.508702,-0.069924,43,271,578,6240
1644184502.554093,-0.006653,0.010315,-0.991699,0.327725,0.371298,-0.008855,45,273,584,6192
1644184502.602502,-0.009888,0.010559,-0.994385,0.236122,0.24916,-0.207328,52,282,589,6112
1644184502.650879,-0.006958,0.007568,-0.991699,0.175053,0.447634,-0.054656,51,269,590,6240
1644184502.699512,-0.00647,0.006592,-0.989685,0.129252,0.386565,0.006412,48,271,590,6240
1644184502.749866,-0.007935,0.009888,-0.993591,0.251389,0.401832,-0.008855,42,275,582,6160
1644184502.800796,-0.00769,0.008972,-0.991516,0.190321,0.417099,-0.176794,47,275,589,6192
1644184502.845688,-0.007874,0.012024,-0.99231,0.175053,0.356031,-0.130992,40,285,584,6256
1644184502.941265,-0.009338,0.010071,-0.993591,0.312458,0.493435,-0.14626,57,285,577,6224
1644184502.989668,-0.009949,0.008728,-0.992065,0.175053,0.325496,-0.054656,54,282,598,6176
1644184503.038059,-0.00531,0.007324,-0.991394,0.281924,0.417099,-0.100458,49,270,586,6224
1644184503.086555,-0.007935,0.011353,-0.992126,0.205588,0.432366,0.006412,54,287,593,6288
1644184503.134817,-0.009521,0.011169,-0.993652,0.190321,0.401832,-0.085191,55,274,592,6192
1644184503.183209,-0.00708,0.006409,-0.988647,0.266656,0.279695,-0.039389,42,275,579,6256
1644184503.231595,-0.008789,0.010193,-0.990479,0.037649,0.539237,-0.176794,55,279,576,6176
1644184503.28003,-0.006775,0.01178,-0.992065,0.419328,0.493435,-0.130992,47,275,584,6240
1644184503.328372,-0.006836,0.007385,-0.991821,0.297191,0.401832,0.036947,43,274,583,6224
1644184503.37677,-0.009155,0.008301,-0.992249,0.312458,0.401832,-0.100458,47,285,579,6192
1644184503.425241,-0.006165,0.012024,-0.991516,0.297191,0.401832,-0.069924,59,270,591,6224
1644184503.473581,-0.007874,0.01062,-0.993225,0.297191,0.172824,-0.039389,53,281,587,6256
1644184503.521965,-0.007019,0.007568,-0.991455,0.236122,0.340763,-0.176794,49,265,584,6240
1644184503.570359,-0.007874,0.010681,-0.990723,0.220855,0.401832,-0.161527,48,279,587,6240
1644184503.618731,-0.00769,0.009155,-0.990173,0.159786,0.325496,-0.069924,41,274,587,6224
1644184503.66713,-0.005798,0.010986,-0.992798,0.434595,0.279695,-0.008855,45,268,579,6192
1644184503.715485,-0.006287,0.008911,-0.990234,0.098718,0.478168,0.052214,48,281,587,6160
1644184503.763923,-0.009338,0.009583,-0.993469,0.266656,0.325496,-0.054656,49,273,589,6224
1644184503.812379,-0.007385,0.011169,-0.991943,0.175053,0.523969,-0.008855,41,279,583,6224
1644184503.862181,-0.009216,0.009888,-0.99176,0.052916,0.493435,-0.039389,55,279,587,6192
1644184503.912435,-0.008545,0.007324,-0.990723,0.297191,0.417099,-0.069924,54,277,589,6160
1644184503.962718,-0.007935,0.008972,-0.990112,0.35826,0.462901,0.021679,41,279,580,6224
1644184504.070452,-0.008972,0.00885,-0.98938,0.220855,0.417099,0.021679,45,280,579,6256
1644184504.103363,-0.006348,0.009583,-0.991333,0.175053,0.462901,-0.192061,47,263,584,6240
1644184504.151023,-0.008911,0.010925,-0.992126,0.098718,0.447634,-0.130992,53,276,585,6224
1644184504.199452,-0.008789,0.010437,-0.993958,0.175053,0.417099,-0.085191,53,279,580,6160
1644184504.247847,-0.007202,0.01062,-0.990967,0.129252,0.462901,-0.069924,48,279,587,6224
1644184504.296241,-0.010315,0.009949,-0.991272,0.251389,0.401832,-0.222595,36,291,587,6160
1644184504.344754,-0.011169,0.009583,-0.991211,0.236122,0.447634,-0.115725,48,283,578,6240
1644184504.393035,-0.005981,0.009521,-0.990479,0.205588,0.24916,0.006412,53,279,587,6192
1644184504.441407,-0.008728,0.010376,-0.989807,0.281924,0.554504,0.036947,58,274,592,6192
1644184504.489826,-0.010071,0.010437,-0.992126,0.190321,0.478168,0.052214,43,281,583,6240
1644184504.538469,-0.007996,0.008911,-0.991516,0.190321,0.371298,-0.161527,52,275,584,6224
1644184504.587363,-0.010864,0.010925,-0.991821,0.312458,0.447634,-0.176794,48,276,590,6224
1644184504.637893,-0.009705,0.007446,-0.989441,0.251389,0.188092,-0.100458,45,273,602,6240
1644184504.688302,-0.009399,0.009888,-0.991211,0.08345,0.600305,-0.069924,65,281,578,6240
1644184504.732981,-0.008972,0.008789,-0.99054,0.190321,0.523969,-0.161527,45,275,584,6192
1644184504.828539,-0.008423,0.008728,-0.990784,0.159786,0.432366,-0.069924,52,280,586,6224
1644184504.876953,-0.010315,0.009583,-0.991882,0.205588,0.478168,-0.192061,43,276,587,6112
1644184504.925378,-0.008972,0.010498,-0.992126,0.159786,0.432366,-0.130992,57,263,575,6192
1644184504.973759,-0.008179,0.010864,-0.993225,0.281924,0.462901,-0.161527,53,274,578,6240
1644184505.022187,-0.010315,0.009399,-0.991943,0.159786,0.294962,-0.176794,53,279,585,6176
1644184505.072813,-0.006714,0.007568,-0.991577,0.297191,0.386565,-0.161527,53,283,583,6176
1644184505.118945,-0.010681,0.010193,-0.993408,0.236122,0.508702,-0.115725,54,282,584,6240
1644184505.167299,-0.009216,0.008911,-0.990723,0.052916,0.447634,0.006412,49,277,589,6192
1644184505.215701,-0.010437,0.007446,-0.990723,0.220855,0.340763,0.036947,47,270,579,6224
1644184505.264082,-0.010071,0.009399,-0.993835,0.113985,0.233893,-0.039389,52,280,577,6224
1644184505.312495,-0.007751,0.010132,-0.991089,0.205588,0.432366,-0.069924,54,263,586,6160
1644184505.360873,-0.009155,0.009277,-0.992065,0.007115,0.401832,-0.100458,58,271,583,6080
1644184505.409271,-0.008423,0.006897,-0.98999,0.190321,0.539237,-0.100458,49,268,579,6192
1644184505.457652,-0.005981,0.011292,-0.989929,0.312458,0.401832,0.067481,57,273,584,6224
1644184505.506037,-0.007446,0.007263,-0.98938,0.175053,0.569771,0.052214,48,286,590,6192
1644184505.554455,-0.01001,0.009949,-0.989136,0.266656,0.417099,-0.176794,46,276,594,6240
1644184505.602829,-0.006165,0.010681,-0.992004,0.144519,0.356031,-0.100458,57,273,596,6224
1644184505.651236,-0.007812,0.012024,-0.990356,0.098718,0.432366,-0.069924,55,276,587,6224
1644184505.699834,-0.011047,0.009888,-0.990112,0.205588,0.356031,-0.161527,45,280,586,6224
1644184505.748154,-0.008789,0.009949,-0.990784,0.205588,0.462901,-0.039389,43,283,578,6192
1644184505.798651,-0.008972,0.013123,-0.991882,0.129252,0.401832,-0.054656,52,277,584,6224
1644184505.849294,-0.008484,0.00885,-0.99469,0.08345,0.478168,-0.054656,45,280,586,6160
1644184505.894491,-0.008301,0.010498,-0.993164,0.190321,0.386565,-0.008855,42,280,582,6224
1644184505.99005,-0.01123,0.009216,-0.991028,0.190321,0.294962,0.021679,52,277,575,6224
1644184506.038388,-0.007385,0.008728,-0.990356,0.35826,0.432366,-0.024122,47,265,582,6224
1644184506.090765,-0.010132,0.007996,-0.990051,0.327725,0.569771,-0.268397,47,280,579,6128
1644184506.135262,-0.007812,0.009888,-0.992065,0.159786,0.432366,-0.161527,48,281,583,6192
1644184506.183569,-0.007324,0.012756,-0.990479,0.159786,0.539237,-0.115725,49,280,586,6160
1644184506.231939,-0.007202,0.010864,-0.993103,0.175053,0.401832,-0.069924,54,282,586,6160
1644184506.280311,-0.00708,0.008789,-0.990784,0.312458,0.508702,0.006412,53,276,576,6240
1644184506.328731,-0.007935,0.011169,-0.989624,0.281924,0.417099,0.021679,58,274,580,6240
1644184506.377131,-0.00647,0.011047,-0.990356,0.159786,0.478168,-0.207328,52,270,586,6160
1644184506.42553,-0.008118,0.011292,-0.99353,0.220855,0.432366,-0.161527,53,291,580,6176
1644184506.473936,-0.009583,0.010376,-0.993591,0.297191,0.340763,-0.283664,41,274,578,6224
1644184506.522326,-0.009155,0.00946,-0.99115,0.251389,0.401832,-0.115725,60,279,583,6160
1644184506.570702,-0.008728,0.011047,-0.992371,0.052916,0.325496,-0.14626,32,276,585,6224
1644184506.619093,-0.009033,0.008606,-0.990967,0.35826,0.569771,-0.14626,55,269,578,6192
1644184506.667489,-0.009094,0.010376,-0.990784,0.129252,0.264427,-0.115725,45,277,572,6224
1644184506.715888,-0.007996,0.007202,-0.992493,0.190321,0.493435,-0.069924,45,273,584,6288
1644184506.764263,-0.008972,0.005188,-0.993042,0.251389,0.569771,-0.192061,54,280,577,6256
1644184506.812675,-0.006775,0.009216,-0.993103,0.175053,0.356031,-0.115725,47,273,589,6176
1644184506.861083,-0.012756,0.012451,-0.990723,0.251389,0.432366,-0.14626,55,281,590,6192
1644184506.910901,-0.009399,0.009277,-0.990173,0.266656,0.340763,-0.100458,42,280,586,6224
1644184506.961337,-0.008179,0.009705,-0.993347,0.236122,0.386565,-0.100458,47,282,584,6224
1644184507.011423,-0.009583,0.012268,-0.991028,0.297191,0.462901,-0.14626,46,279,585,6176
1644184507.08299,-0.008911,0.008728,-0.99115,0.251389,0.356031,0.006412,57,282,584,6224
1644184507.151443,-0.006958,0.008728,-0.990295,0.190321,0.432366,-0.054656,52,285,589,6304
1644184507.19982,-0.008057,0.009949,-0.992371,0.190321,0.447634,-0.115725,51,279,590,6176
1644184507.248186,-0.007935,0.009888,-0.99353,0.175053,0.432366,-0.115725,57,275,586,6192
1644184507.296566,-0.004761,0.00946,-0.992737,0.144519,0.585038,-0.069924,52,270,589,6192
1644184507.345027,-0.009094,0.010681,-0.990601,0.220855,0.478168,-0.008855,46,274,580,6224
1644184507.393382,-0.009644,0.010254,-0.992798,0.251389,0.432366,-0.008855,61,265,579,6128
1644184507.44178,-0.009399,0.011047,-0.991089,0.35826,0.432366,0.052214,36,276,580,6240
1644184507.490166,-0.011292,0.011353,-0.991943,0.220855,0.401832,-0.161527,41,283,592,6240
1644184507.538563,-0.007507,0.011658,-0.990845,0.190321,0.569771,0.036947,48,276,587,6128
1644184507.586954,-0.011108,0.009766,-0.990051,0.205588,0.310229,-0.115725,52,275,575,6240
1644184507.635349,-0.009033,0.008118,-0.989014,0.144519,0.294962,-0.039389,58,269,590,6160
1644184507.683751,-0.007751,0.01062,-0.991028,0.266656,0.294962,-0.176794,49,285,591,6160
1644184507.732226,-0.008484,0.008728,-0.991943,0.129252,0.401832,-0.176794,41,276,594,6160
1644184507.780512,-0.008667,0.009155,-0.994507,0.08345,0.386565,-0.054656,55,279,587,6224
1644184507.828917,-0.005432,0.006592,-0.993958,0.205588,0.478168,-0.161527,52,285,579,6240
1644184507.877343,-0.007263,0.008606,-0.98938,0.327725,0.432366,-0.176794,45,263,584,6240
1644184507.925744,-0.006104,0.008423,-0.990173,0.08345,0.401832,-0.069924,38,275,584,6256
1644184507.974397,-0.007874,0.009705,-0.990051,0.220855,0.172824,-0.222595,46,276,592,6224
1644184508.022943,-0.010254,0.00946,-0.992065,0.236122,0.447634,-0.115725,52,280,589,6160
1644184508.082789,-0.007935,0.009766,-0.990234,0.297191,0.447634,-0.115725,53,266,587,6256
1644184508.123447,-0.008606,0.011414,-0.991699,0.175053,0.279695,0.021679,52,282,591,6224
1644184508.168299,-0.007324,0.009277,-0.990601,0.281924,0.432366,-0.100458,55,279,585,6224
1644184508.264448,-0.008545,0.009949,-0.990601,0.236122,0.585038,-0.115725,47,275,591,6224
1644184508.312881,-0.007629,0.010437,-0.991882,0.08345,0.279695,-0.069924,51,276,585,6192
1644184508.361233,-0.011169,0.011169,-0.991699,0.144519,0.493435,-0.085191,47,282,579,6224
1644184508.409638,-0.009827,0.010681,-0.990051,0.312458,0.264427,-0.115725,41,271,578,6240
1644184508.458021,-0.005615,0.006836,-0.992676,0.190321,0.508702,-0.192061,51,279,585,6176
1644184508.506418,-0.010071,0.006897,-0.993225,0.175053,0.401832,-0.207328,64,285,577,6192
1644184508.554815,-0.012695,0.008179,-0.990723,0.251389,0.233893,-0.054656,54,273,582,6160
1644184508.603205,-0.006714,0.008606,-0.993408,0.113985,0.432366,-0.176794,46,283,592,6224
1644184508.651598,-0.010559,0.007568,-0.990479,0.175053,0.24916,-0.054656,59,277,577,6192
1644184508.699991,-0.009644,0.010437,-0.989319,0.281924,0.432366,-0.222595,55,271,587,6192
1644184508.748349,-0.009949,0.009949,-0.994629,0.144519,0.508702,-0.054656,39,276,580,6256
1644184508.796772,-0.011658,0.011841,-0.990906,0.251389,0.462901,0.006412,49,277,593,6224
1644184508.845256,-0.009949,0.010315,-0.991516,0.236122,0.371298,-0.283664,51,288,583,6176
1644184508.893603,-0.009399,0.008057,-0.993347,0.35826,0.401832,-0.100458,49,285,584,6224
1644184508.941991,-0.008301,0.009033,-0.992432,0.251389,0.432366,-0.115725,36,281,587,6240
1644184508.990389,-0.006531,0.009705,-0.992737,0.266656,0.417099,-0.039389,53,281,590,6240
1644184509.038839,-0.008057,0.007263,-0.989929,0.159786,0.264427,-0.192061,41,274,585,6192
1644184509.094898,-0.009583,0.008789,-0.99054,0.175053,0.127023,-0.008855,53,274,583,6224
1644184509.135548,-0.009705,0.010193,-0.990723,0.129252,0.462901,0.006412,48,283,576,6224
1644184509.185554,-0.008728,0.011658,-0.990906,0.281924,0.356031,-0.237863,55,271,587,6176
1644184509.234631,-0.007263,0.010437,-0.992859,0.175053,0.478168,0.021679,45,282,589,6176
1644184509.284802,-0.005737,0.011902,-0.993042,0.113985,0.371298,-0.024122,55,279,583,6224
1644184509.329937,-0.013184,0.009033,-0.991394,0.281924,0.462901,-0.100458,46,274,576,6224
1644184509.425869,-0.008606,0.009033,-0.99292,0.175053,0.325496,-0.115725,52,273,582,6240
1644184509.474283,-0.008179,0.009277,-0.990173,0.297191,0.294962,-0.085191,48,279,583,6192
1644184509.522701,-0.008301,0.008301,-0.994568,0.266656,0.310229,-0.130992,55,279,583,6224
1644184509.571059,-0.005859,0.010803,-0.989441,0.220855,0.279695,-0.115725,52,265,582,6192
1644184509.619455,-0.006104,0.010681,-0.989563,0.373527,0.417099,-0.039389,47,270,579,6128
1644184509.667836,-0.00946,0.010681,-0.991882,0.419328,0.386565,0.006412,46,274,578,6224
1644184509.71624,-0.010315,0.011963,-0.995483,0.388794,0.462901,-0.329466,42,275,586,6192
1644184509.764632,-0.010254,0.007385,-0.989807,0.297191,0.417099,-0.069924,52,285,582,6192
1644184509.813044,-0.008972,0.010071,-0.993042,0.129252,0.478168,-0.161527,43,279,580,6224
1644184509.861427,-0.006165,0.009216,-0.993713,0.297191,0.401832,-0.069924,49,280,584,6160
1644184509.909857,-0.010681,0.01001,-0.991211,0.281924,0.386565,-0.008855,52,285,582,6160
1644184509.958242,-0.009277,0.010437,-0.991882,0.342992,0.447634,-0.054656,43,288,583,6112
1644184510.006615,-0.00824,0.008728,-0.990723,0.251389,0.386565,-0.268397,54,268,586,6240
1644184510.070053,-0.006958,0.010559,-0.992859,0.281924,0.447634,-0.008855,51,271,587,6192
1644184510.104018,-0.00885,0.009033,-0.988281,0.190321,0.294962,-0.024122,60,279,592,6256
1644184510.151773,-0.006714,0.013794,-0.989929,0.098718,0.539237,-0.085191,47,275,582,6192
1644184510.200161,-0.007202,0.008545,-0.993042,0.190321,0.493435,-0.130992,48,281,587,6192
1644184510.248528,-0.010193,0.009705,-0.991577,0.236122,0.432366,-0.008855,48,276,590,6224
1644184510.296928,-0.007568,0.011169,-0.991821,0.144519,0.432366,-0.176794,47,280,584,6160
1644184510.345483,-0.010254,0.008789,-0.991638,0.159786,0.24916,-0.207328,49,268,589,6224
1644184510.396178,-0.007874,0.009644,-0.991943,0.175053,0.478168,-0.008855,51,281,573,6160
1644184510.446211,-0.008667,0.009583,-0.992432,0.236122,0.233893,-0.207328,49,263,586,6192
1644184510.491189,-0.009705,0.009155,-0.991089,0.251389,0.447634,-0.085191,55,274,583,6224
1644184510.587294,-0.00885,0.008728,-0.990479,0.175053,0.371298,-0.115725,49,275,579,6192
1644184510.635686,-0.009094,0.008423,-0.99292,0.35826,0.447634,-0.100458,48,276,580,6176
1644184510.684091,-0.007751,0.010803,-0.992188,0.190321,0.417099,-0.130992,46,274,578,6192
1644184510.732478,-0.010986,0.010559,-0.992249,0.08345,0.371298,-0.085191,45,275,579,6176
1644184510.780879,-0.01123,0.010559,-0.992737,0.236122,0.417099,-0.115725,48,274,590,6176
1644184510.829323,-0.00885,0.008484,-0.989258,0.342992,0.340763,-0.100458,59,280,579,6176
1644184510.877707,-0.009827,0.007568,-0.991882,0.144519,0.432366,-0.069924,52,280,577,6224
1644184510.926104,-0.009583,0.006653,-0.992249,0.373527,0.386565,-0.069924,40,275,579,6128
1644184510.974508,-0.009644,0.008789,-0.991028,0.159786,0.279695,-0.115725,53,276,578,6240
1644184511.02291,-0.008667,0.01123,-0.98999,0.220855,0.356031,-0.054656,45,285,584,6160
1644184511.074297,-0.008545,0.008911,-0.990601,0.266656,0.386565,-0.207328,52,268,591,6176
1644184511.119655,-0.009216,0.009216,-0.991882,0.236122,0.523969,-0.237863,57,268,591,6176
1644184511.16801,-0.009277,0.007629,-0.987366,0.220855,0.325496,-0.14626,51,291,585,6176
1644184511.216412,-0.008789,0.009827,-0.991699,0.098718,0.432366,-0.130992,57,285,584,6160
1644184511.264814,-0.006653,0.009094,-0.992432,0.281924,0.478168,-0.115725,57,277,579,6224
1644184511.3132,-0.010925,0.010864,-0.992065,0.281924,0.310229,-0.039389,54,275,584,6224
1644184511.361596,-0.00885,0.008301,-0.990417,0.266656,0.340763,-0.024122,54,277,584,6224
1644184511.409989,-0.008423,0.011047,-0.993958,0.205588,0.493435,0.082748,57,270,589,6224
1644184511.458391,-0.009277,0.008667,-0.991943,0.342992,0.325496,0.006412,41,271,587,6176
1644184511.507241,-0.010925,0.013123,-0.990295,0.175053,0.294962,-0.207328,43,283,578,6176
1644184511.55786,-0.004883,0.010254,-0.992004,0.297191,0.478168,-0.14626,43,266,594,6160
1644184511.607943,-0.007996,0.010132,-0.993164,0.297191,0.523969,-0.192061,43,286,590,6160
1644184511.652974,-0.005432,0.010132,-0.993103,0.220855,0.432366,-0.069924,47,290,584,6240
1644184511.748731,-0.008362,0.011719,-0.994263,0.266656,0.462901,-0.176794,43,276,578,6160
1644184511.797115,-0.010925,0.009216,-0.993896,0.312458,0.233893,-0.237863,48,274,585,6240
1644184511.845564,-0.011414,0.006836,-0.993103,0.205588,0.447634,-0.115725,47,275,591,6176
1644184511.893957,-0.006958,0.009338,-0.990967,0.144519,0.478168,-0.054656,48,281,590,6224
1644184511.942371,-0.010193,0.011292,-0.991882,0.159786,0.539237,-0.069924,51,286,578,6224
1644184511.990751,-0.006531,0.010986,-0.991821,0.297191,0.478168,-0.054656,51,269,576,6224
1644184512.039146,-0.009521,0.009827,-0.988403,0.251389,0.493435,-0.054656,58,279,578,6240
1644184512.093708,-0.009399,0.010864,-0.990967,0.205588,0.310229,-0.069924,53,286,587,6176
1644184512.135885,-0.008423,0.009583,-0.991516,0.144519,0.356031,-0.024122,58,281,590,6192
1644184512.184275,-0.007324,0.009705,-0.99353,0.068183,0.417099,0.082748,51,276,590,6160
1644184512.232698,-0.010559,0.008728,-0.99292,0.159786,0.432366,-0.268397,53,283,578,6224
1644184512.281034,-0.00769,0.010803,-0.989807,0.129252,0.569771,-0.024122,40,280,582,6256
1644184512.329459,-0.00885,0.009094,-0.992554,0.175053,0.417099,-0.222595,39,274,571,6192
1644184512.377845,-0.006042,0.012146,-0.990784,0.129252,0.340763,-0.130992,48,274,580,6224
1644184512.426752,-0.010376,0.010437,-0.993164,0.190321,0.386565,-0.115725,54,268,584,6192
1644184512.477679,-0.007812,0.010742,-0.994385,0.190321,0.462901,-0.207328,57,275,589,6224
1644184512.527416,-0.00824,0.010864,-0.990845,0.236122,0.569771,-0.054656,46,279,583,6160
1644184512.572438,-0.009583,0.00769,-0.993164,0.175053,0.417099,-0.039389,49,277,584,6192
1644184512.668187,-0.009338,0.009583,-0.993835,0.068183,0.432366,-0.100458,46,276,583,6160
1644184512.716579,-0.007874,0.011292,-0.991394,0.251389,0.432366,-0.085191,48,271,576,6224
1644184512.765279,-0.008362,0.010315,-0.991638,0.251389,0.417099,-0.115725,59,280,582,6160
1644184512.813577,-0.009094,0.006897,-0.992493,0.281924,0.172824,-0.115725,38,273,584,6224
1644184512.861825,-0.006653,0.011902,-0.990479,0.35826,0.340763,-0.222595,58,281,585,6224
1644184512.910214,-0.009583,0.010071,-0.993408,0.220855,0.386565,-0.069924,49,280,575,6192
1644184512.958606,-0.00946,0.009399,-0.990723,0.113985,0.417099,0.006412,49,270,582,6192
1644184513.007058,-0.005737,0.011536,-0.98999,0.35826,0.585038,0.036947,54,285,579,6224
1644184513.063721,-0.006714,0.010132,-0.990417,0.220855,0.356031,-0.085191,46,279,590,6112
1644184513.103765,-0.009277,0.013123,-0.98877,0.373527,0.401832,0.098015,40,277,596,6224
1644184513.152236,-0.008667,0.009949,-0.991638,0.144519,0.478168,-0.115725,51,266,585,6192
1644184513.200534,-0.012024,0.011292,-0.990723,0.175053,0.340763,0.006412,47,285,579,6224
1644184513.248929,-0.010132,0.010315,-0.992004,0.236122,0.539237,-0.024122,54,275,586,6256
1644184513.297312,-0.010864,0.007446,-0.992859,0.190321,0.462901,-0.14626,48,286,594,6128
1644184513.345719,-0.008545,0.009705,-0.992188,0.175053,0.417099,-0.039389,53,274,580,6224
1644184513.394102,-0.009583,0.007202,-0.993958,0.129252,0.340763,-0.222595,47,275,579,6160
1644184513.442526,-0.006165,0.010498,-0.993835,0.113985,0.447634,-0.054656,59,273,579,6224
1644184513.490893,-0.009766,0.01001,-0.991943,0.113985,0.493435,-0.161527,46,281,590,6176
1644184513.539292,-0.009277,0.012329,-0.993652,0.190321,0.279695,0.006412,55,296,580,6160
1644184513.587761,-0.009155,0.008728,-0.990295,0.190321,0.447634,-0.130992,53,274,573,6176
1644184513.637768,-0.007568,0.010254,-0.990234,0.449863,0.417099,-0.054656,49,275,593,6192
1644184513.688129,-0.007263,0.009705,-0.990967,0.220855,0.386565,-0.085191,51,276,597,6176
1644184513.733173,-0.009094,0.011658,-0.992859,0.159786,0.554504,0.006412,45,273,582,6224
1644184513.829625,-0.007324,0.01123,-0.989624,0.129252,0.432366,-0.130992,45,270,586,6128
1644184513.878056,-0.009216,0.009399,-0.993225,0.236122,0.417099,0.052214,51,274,576,6288
1644184513.92644,-0.010193,0.010681,-0.99353,0.159786,0.462901,-0.115725,45,282,582,6224
1644184513.974874,-0.007874,0.010986,-0.991333,0.175053,0.386565,-0.115725,42,280,577,6240
1644184514.023246,-0.008545,0.007935,-0.991516,0.388794,0.478168,-0.008855,55,271,571,6224
1644184514.07264,-0.011169,0.012207,-0.994019,0.236122,0.432366,-0.100458,53,269,599,6224
1644184514.120016,-0.007812,0.008301,-0.988831,0.175053,0.600305,-0.14626,41,274,580,6240
1644184514.168393,-0.008423,0.010681,-0.99231,0.251389,0.356031,-0.207328,51,279,583,6192
1644184514.216778,-0.010681,0.009521,-0.992981,0.144519,0.478168,-0.176794,52,280,577,6224
1644184514.265231,-0.007996,0.009644,-0.990784,0.251389,0.493435,-0.069924,42,287,577,6240
1644184514.313581,-0.009399,0.008789,-0.993286,0.312458,0.462901,-0.100458,51,281,580,6176
1644184514.361959,-0.00769,0.010742,-0.990173,0.144519,0.417099,-0.100458,51,279,578,6128
1644184514.410352,-0.006653,0.009644,-0.993652,0.312458,0.508702,-0.069924,42,292,589,6224
1644184514.458751,-0.008118,0.009705,-0.991516,0.236122,0.447634,-0.100458,54,270,586,6224
1644184514.507115,-0.005371,0.010315,-0.99231,0.251389,0.371298,-0.115725,55,279,578,6192
1644184514.555497,-0.012024,0.012146,-0.992249,0.251389,0.356031,-0.069924,47,280,575,6160
1644184514.603921,-0.006653,0.007263,-0.992126,0.236122,0.279695,-0.008855,54,282,579,6224
1644184514.652333,-0.007812,0.009033,-0.992981,0.297191,0.264427,-0.024122,52,277,575,6192
1644184514.700701,-0.011108,0.010803,-0.991211,0.312458,0.447634,-0.085191,40,282,589,6192
1644184514.749374,-0.008179,0.010254,-0.991028,0.175053,0.600305,-0.039389,53,279,585,6192
1644184514.799774,-0.008972,0.011108,-0.992554,0.205588,0.386565,-0.054656,48,281,592,6176
1644184514.850686,-0.008118,0.010681,-0.990417,0.281924,0.447634,0.052214,57,282,579,6224
1644184514.895464,-0.007507,0.007996,-0.992737,0.388794,0.523969,-0.176794,41,274,578,6176
1644184514.99111,-0.009338,0.010681,-0.991577,0.266656,0.340763,-0.176794,48,283,583,6160
1644184515.039483,-0.007874,0.007507,-0.992065,0.266656,0.371298,-0.024122,47,270,586,6224
1644184515.088365,-0.008911,0.01178,-0.990479,0.190321,0.340763,-0.161527,51,271,587,6160
1644184515.136282,-0.008545,0.00885,-0.994812,0.052916,0.340763,-0.25313,51,281,580,6176
1644184515.184652,-0.008728,0.008545,-0.992737,0.113985,0.401832,-0.222595,41,283,573,6192
1644184515.233051,-0.007446,0.00824,-0.989319,0.281924,0.508702,0.006412,54,280,579,6160
1644184515.281396,-0.008667,0.00946,-0.991943,0.220855,0.478168,-0.161527,46,271,578,6240
1644184515.32983,-0.00885,0.008057,-0.990479,0.098718,0.371298,-0.130992,48,276,585,6176
1644184515.37821,-0.008789,0.012085,-0.98938,0.220855,0.447634,-0.054656,54,270,579,6160
1644184515.426605,-0.007324,0.008606,-0.98938,0.312458,0.508702,0.036947,53,271,590,6224
1644184515.475192,-0.009155,0.011719,-0.991089,0.159786,0.279695,-0.176794,47,280,579,6240
1644184515.523379,-0.008362,0.008789,-0.990295,0.159786,0.371298,-0.14626,41,276,578,6224
1644184515.571768,-0.00824,0.011597,-0.992493,0.327725,0.401832,-0.192061,62,283,580,6224
1644184515.620175,-0.008057,0.010315,-0.991943,0.190321,0.386565,-0.207328,48,281,583,6288
1644184515.668565,-0.009094,0.010986,-0.990479,0.190321,0.356031,-0.115725,54,277,589,6192
1644184515.71695,-0.008728,0.00769,-0.991089,0.342992,0.356031,-0.161527,53,279,590,6224
1644184515.765352,-0.007568,0.008301,-0.991211,0.220855,0.432366,0.082748,49,280,582,6160
1644184515.813748,-0.007446,0.008484,-0.990967,0.35826,0.432366,-0.054656,51,276,573,6224
1644184515.862221,-0.005432,0.01178,-0.994263,0.251389,0.310229,-0.14626,47,273,582,6176
1644184515.912042,-0.00647,0.007324,-0.990845,0.190321,0.554504,-0.024122,57,282,586,6176
1644184515.962413,-0.010742,0.01062,-0.992554,0.144519,0.356031,-0.039389,54,273,589,6224
1644184516.068513,-0.006287,0.009216,-0.991699,0.175053,0.554504,-0.069924,55,279,587,6224
1644184516.104183,-0.008301,0.00885,-0.990967,0.098718,0.386565,-0.054656,47,285,593,6192
1644184516.152549,-0.010803,0.009277,-0.993164,0.220855,0.417099,-0.100458,48,281,587,6128
1644184516.200893,-0.009094,0.013,-0.992188,0.327725,0.340763,-0.054656,51,271,576,6224
1644184516.249257,-0.007935,0.008728,-0.991516,0.281924,0.356031,-0.069924,49,273,584,6192
1644184516.297673,-0.009399,0.010071,-0.991333,0.236122,0.539237,-0.115725,42,277,591,6176
1644184516.346074,-0.008362,0.010681,-0.992249,0.08345,0.356031,-0.039389,46,274,580,6224
1644184516.394453,-0.007019,0.006836,-0.991638,0.068183,0.447634,-0.100458,52,273,579,6192
1644184516.442869,-0.007568,0.009033,-0.992859,0.327725,0.340763,-0.115725,49,277,577,6240
1644184516.49125,-0.004761,0.008545,-0.993286,0.144519,0.447634,-0.161527,57,270,589,6224
1644184516.539626,-0.008362,0.01178,-0.98999,0.220855,0.478168,-0.161527,45,277,589,6224
1644184516.588032,-0.009277,0.008789,-0.995117,0.220855,0.356031,-0.130992,36,281,592,6176
1644184516.636746,-0.008545,0.011353,-0.991089,0.175053,0.493435,-0.054656,48,283,594,6192
1644184516.685869,-0.007935,0.009583,-0.993774,0.220855,0.417099,-0.039389,41,283,578,6192
1644184516.736573,-0.01062,0.007874,-0.99054,0.175053,0.401832,-0.008855,47,277,584,6224
1644184516.786603,-0.010254,0.009644,-0.989075,0.175053,0.310229,-0.161527,53,269,587,6256
1644184516.878409,-0.009033,0.010986,-0.990479,0.144519,0.462901,-0.115725,47,275,584,6224
1644184516.926811,-0.008667,0.009216,-0.992737,0.236122,0.325496,-0.085191,49,280,572,6192
1644184516.975213,-0.009338,0.010376,-0.98877,0.129252,0.310229,-0.130992,38,277,572,6224
1644184517.023595,-0.009155,0.008484,-0.990723,0.220855,0.569771,-0.008855,48,271,580,6240
1644184517.072731,-0.01062,0.009033,-0.994934,0.159786,0.493435,0.021679,49,275,586,6240
1644184517.120377,-0.008972,0.009216,-0.992676,0.068183,0.432366,-0.039389,57,282,589,6160
1644184517.168736,-0.006897,0.012024,-0.990723,0.251389,0.462901,-0.130992,48,269,576,6192
1644184517.217136,-0.01062,0.011963,-0.993652,0.236122,0.279695,-0.039389,47,270,584,6224
1644184517.265539,-0.009766,0.009766,-0.991699,0.175053,0.340763,-0.207328,42,273,582,6176
1644184517.313929,-0.009949,0.009338,-0.99054,0.35826,0.386565,0.067481,48,274,587,6224
1644184517.362322,-0.007263,0.010498,-0.98999,0.159786,0.447634,-0.054656,52,275,579,6240
1644184517.410711,-0.008972,0.010498,-0.991882,0.251389,0.371298,0.036947,49,263,579,6256
1644184517.459096,-0.007812,0.011597,-0.98938,0.159786,0.294962,-0.115725,47,275,591,6224
1644184517.507467,-0.009338,0.009705,-0.992004,0.251389,0.401832,-0.069924,52,268,589,6192
1644184517.555879,-0.011719,0.009338,-0.989197,0.098718,0.493435,-0.039389,55,271,592,6128
1644184517.604277,-0.009399,0.010437,-0.990417,0.251389,0.417099,-0.115725,48,283,578,6192
1644184517.652691,-0.007812,0.007812,-0.991882,0.113985,0.264427,-0.161527,48,274,585,6224
1644184517.701059,-0.007751,0.012634,-0.992676,0.236122,0.310229,-0.039389,39,276,585,6192
1644184517.74946,-0.01123,0.012756,-0.990601,0.236122,0.233893,-0.069924,48,274,585,6224
1644184517.799037,-0.009644,0.00769,-0.99115,0.144519,0.371298,-0.115725,51,266,583,6160
1644184517.849394,-0.010559,0.007812,-0.991821,0.205588,0.310229,-0.100458,55,274,583,6224
1644184517.899662,-0.009888,0.01001,-0.990906,0.007115,0.371298,-0.024122,47,282,593,6224
1644184517.944108,-0.011047,0.011414,-0.993042,0.312458,0.371298,-0.283664,48,269,587,6176
1644184518.039844,-0.004944,0.009644,-0.992676,0.342992,0.294962,-0.130992,47,277,579,6224
1644184518.088355,-0.007507,0.011841,-0.990417,0.327725,0.386565,-0.25313,51,274,587,6160
1644184518.136602,-0.010925,0.01001,-0.989685,0.388794,0.432366,-0.069924,42,280,591,6176
1644184518.185039,-0.008911,0.006592,-0.994507,0.419328,0.478168,-0.100458,46,274,585,6192
1644184518.233389,-0.009827,0.007507,-0.990295,0.236122,0.401832,-0.085191,47,277,584,6240
1644184518.281768,-0.010376,0.010437,-0.992188,0.098718,0.417099,-0.039389,47,277,584,6224
1644184518.330179,-0.006592,0.010193,-0.989807,0.251389,0.386565,-0.054656,47,280,579,6176
1644184518.378575,-0.009399,0.010193,-0.989685,0.220855,0.447634,-0.14626,47,275,579,6176
1644184518.426957,-0.010925,0.007996,-0.990662,0.297191,0.447634,0.006412,57,282,582,6240
1644184518.475355,-0.008057,0.004761,-0.993286,0.251389,0.447634,-0.039389,52,280,577,6192
1644184518.523738,-0.00885,0.010376,-0.99054,0.266656,0.447634,-0.237863,47,277,579,6240
1644184518.572226,-0.011597,0.008057,-0.990479,0.35826,0.264427,-0.161527,51,276,590,6160
1644184518.62053,-0.007324,0.010986,-0.992371,0.175053,0.539237,-0.14626,51,271,585,6288
1644184518.668928,-0.006897,0.009888,-0.992676,0.159786,0.325496,-0.14626,49,280,586,6224
1644184518.717295,-0.010864,0.010681,-0.98999,0.236122,0.493435,-0.14626,47,273,586,6192
1644184518.765722,-0.009644,0.007507,-0.990601,0.281924,0.401832,0.021679,46,279,583,6224
1644184518.81415,-0.00885,0.009521,-0.99231,0.190321,0.462901,-0.054656,45,285,582,6240
1644184518.862554,-0.00769,0.010681,-0.992371,0.037649,0.401832,-0.024122,49,263,582,6224
1644184518.911054,-0.008484,0.008179,-0.98938,0.266656,0.356031,-0.008855,41,283,585,6192
1644184518.961289,-0.007446,0.010864,-0.992554,0.251389,0.508702,-0.130992,49,277,584,6240
1644184519.068156,-0.010254,0.010803,-0.991821,0.266656,0.523969,-0.085191,51,282,586,6080
1644184519.104475,-0.006104,0.011597,-0.994507,0.098718,0.539237,-0.069924,47,270,596,6192
1644184519.152884,-0.008362,0.010681,-0.991699,0.220855,0.340763,0.052214,58,281,580,6176
1644184519.20125,-0.008606,0.010742,-0.991577,0.35826,0.294962,-0.115725,53,269,583,6192
1644184519.249613,-0.010071,0.01355,-0.992004,0.205588,0.264427,-0.039389,59,280,593,6160
1644184519.298028,-0.009155,0.011047,-0.991577,0.129252,0.294962,-0.054656,46,271,587,6176
1644184519.346428,-0.007751,0.009399,-0.99115,0.312458,0.386565,-0.176794,45,275,584,6192
1644184519.394845,-0.006897,0.006409,-0.993103,0.144519,0.325496,0.036947,55,274,573,6176
1644184519.44322,-0.006714,0.012146,-0.992859,0.327725,0.523969,-0.085191,54,280,589,6176
1644184519.491816,-0.009277,0.008667,-0.989197,0.220855,0.63084,-0.008855,43,281,583,6176
1644184519.539999,-0.00885,0.00769,-0.990417,0.159786,0.493435,-0.130992,47,270,577,6192
1644184519.588386,-0.005554,0.011536,-0.989136,0.113985,0.417099,-0.069924,55,264,594,6128
1644184519.636781,-0.006531,0.009827,-0.992493,0.175053,0.340763,-0.176794,39,283,583,6176
1644184519.685299,-0.007751,0.005798,-0.991882,0.113985,0.432366,-0.130992,51,271,587,6224
1644184519.736042,-0.008362,0.010193,-0.99292,0.373527,0.386565,-0.14626,43,271,594,6256
1644184519.785953,-0.010437,0.012024,-0.990662,0.220855,0.523969,0.021679,55,271,585,6256
1644184519.830958,-0.006592,0.011047,-0.99115,0.266656,0.340763,-0.130992,52,275,579,6224
1644184519.927181,-0.007568,0.009216,-0.993469,0.022382,0.493435,-0.161527,46,274,587,6160
1644184519.975541,-0.007263,0.008972,-0.991272,0.327725,0.462901,-0.085191,61,270,586,6192
1644184520.023977,-0.008667,0.008484,-0.991089,0.327725,0.325496,-0.069924,51,274,583,6176
1644184520.072425,-0.008667,0.011841,-0.99176,0.251389,0.447634,-0.115725,38,265,586,6256
1644184520.120727,-0.010071,0.009827,-0.993164,0.342992,0.478168,-0.130992,53,286,594,6240
1644184520.169105,-0.009277,0.00824,-0.991943,0.113985,0.401832,0.036947,49,273,586,6224
1644184520.217488,-0.009155,0.00946,-0.993835,0.373527,0.386565,-0.085191,51,271,585,6224
1644184520.265886,-0.00769,0.010437,-0.992004,0.190321,0.310229,-0.130992,43,283,583,6224
1644184520.31427,-0.006958,0.013062,-0.991394,0.113985,0.493435,-0.039389,51,283,578,6160
1644184520.362694,-0.008545,0.008545,-0.992676,0.220855,0.462901,-0.115725,46,281,569,6192
1644184520.411042,-0.009277,0.010254,-0.991394,0.297191,0.462901,-0.024122,41,266,576,6240
1644184520.459459,-0.009155,0.007874,-0.990479,0.022382,0.279695,-0.024122,49,273,584,6224
1644184520.507834,-0.010315,0.009033,-0.988525,0.175053,0.356031,-0.085191,46,274,587,6224
1644184520.556222,-0.006409,0.009277,-0.991882,0.342992,0.401832,-0.14626,51,276,590,6224
1644184520.604659,-0.010315,0.010437,-0.991882,0.266656,0.356031,-0.115725,52,277,589,6224
1644184520.653047,-0.008606,0.012451,-0.990051,0.175053,0.340763,-0.100458,46,274,578,6224
1644184520.701421,-0.009827,0.010315,-0.989075,0.113985,0.432366,0.006412,43,283,594,6224
1644184520.749792,-0.00769,0.009827,-0.99292,0.190321,0.462901,0.021679,54,273,579,6224
1644184520.798209,-0.00769,0.010254,-0.993652,0.236122,0.462901,-0.14626,39,276,580,6224
1644184520.846876,-0.008423,0.008972,-0.98877,0.144519,0.325496,-0.192061,52,273,586,6192
1644184520.897857,-0.007568,0.010315,-0.988586,0.220855,0.478168,-0.192061,55,276,583,6192
1644184520.9491,-0.010864,0.009888,-0.99115,0.373527,0.203359,-0.130992,52,275,579,6224
1644184520.992787,-0.007996,0.010559,-0.990845,0.098718,0.356031,-0.100458,42,282,582,6224
1644184521.090129,-0.005981,0.009827,-0.991455,0.251389,0.554504,0.067481,58,271,583,6192
1644184521.136993,-0.007263,0.008118,-0.990173,0.190321,0.386565,-0.024122,51,276,580,6224
1644184521.185347,-0.007812,0.009705,-0.989563,0.190321,0.356031,0.006412,49,273,584,6160
1644184521.23375,-0.007629,0.009277,-0.991699,0.159786,0.310229,-0.024122,51,276,583,6176
1644184521.282179,-0.007507,0.009705,-0.99353,0.129252,0.401832,-0.161527,51,276,576,6176
1644184521.330546,-0.008301,0.010925,-0.990234,0.266656,0.386565,-0.14626,53,276,585,6240
1644184521.378918,-0.009216,0.010193,-0.991638,0.220855,0.462901,-0.130992,46,279,585,6224
1644184521.427296,-0.007507,0.010986,-0.991821,0.236122,0.539237,-0.085191,42,280,591,6176
1644184521.47571,-0.009094,0.00885,-0.992859,0.220855,0.356031,-0.039389,55,276,580,6192
1644184521.5241,-0.01123,0.01062,-0.991943,0.236122,0.447634,-0.008855,55,286,578,6176
1644184521.572484,-0.006592,0.010254,-0.989624,0.312458,0.417099,-0.130992,52,275,572,6224
1644184521.620872,-0.00708,0.010559,-0.990234,0.175053,0.478168,0.052214,46,288,580,6192
1644184521.669299,-0.007812,0.010254,-0.991882,0.205588,0.554504,-0.207328,49,277,586,6224
1644184521.717687,-0.00769,0.011414,-0.990112,0.220855,0.401832,-0.192061,45,285,582,6192
1644184521.766064,-0.007385,0.009033,-0.99292,0.144519,0.279695,-0.085191,61,268,596,6224
1644184521.814472,-0.008423,0.010559,-0.992249,0.297191,0.24916,-0.176794,52,270,586,6160
1644184521.86291,-0.006714,0.012024,-0.994751,0.266656,0.325496,-0.14626,55,274,585,6256
1644184521.911294,-0.006897,0.010986,-0.989624,0.251389,0.386565,-0.130992,49,273,584,6240
1644184521.961938,-0.011169,0.008423,-0.992004,0.159786,0.478168,-0.115725,51,276,580,6192
1644184522.06175,-0.008667,0.009399,-0.990845,0.312458,0.462901,-0.161527,58,269,583,6128
1644184522.104856,-0.008667,0.010071,-0.989807,0.297191,0.417099,-0.024122,51,274,578,6192
1644184522.153257,-0.009644,0.009399,-0.992371,0.205588,0.340763,-0.25313,60,274,578,6160
1644184522.201612,-0.005615,0.01239,-0.991882,0.08345,0.401832,-0.069924,51,283,583,6224
1644184522.249977,-0.006714,0.011353,-0.993164,0.129252,0.386565,0.036947,53,266,585,6240
1644184522.298396,-0.008545,0.011292,-0.990112,0.251389,0.356031,-0.176794,43,279,583,6176
1644184522.346785,-0.01062,0.007935,-0.992676,0.175053,0.508702,0.052214,39,279,583,6192
1644184522.395234,-0.009949,0.009705,-0.990784,0.205588,0.401832,-0.100458,49,277,589,6256
1644184522.443569,-0.011597,0.010681,-0.992371,0.251389,0.371298,-0.130992,57,268,591,6224
1644184522.49231,-0.008118,0.006531,-0.992371,0.098718,0.310229,0.021679,52,275,589,6192
1644184522.540355,-0.004395,0.010803,-0.992188,0.327725,0.462901,-0.054656,55,283,592,6224
1644184522.588748,-0.01062,0.009949,-0.99054,0.098718,0.294962,-0.069924,43,274,587,6240
1644184522.637143,-0.007935,0.012024,-0.991028,0.205588,0.294962,-0.237863,58,281,590,6192
1644184522.685537,-0.008118,0.012512,-0.991943,0.327725,0.294962,-0.008855,48,271,583,6224
1644184522.733931,-0.007812,0.009094,-0.990723,0.129252,0.325496,-0.115725,59,280,579,6192
1644184522.782365,-0.007019,0.010498,-0.990967,0.251389,0.356031,-0.115725,45,280,593,6176
1644184522.830726,-0.005554,0.012207,-0.990601,0.144519,0.386565,-0.100458,47,273,589,6240
1644184522.881998,-0.008057,0.009155,-0.993225,0.266656,0.447634,0.021679,52,277,579,6224
1644184522.93174,-0.00885,0.009583,-0.992859,0.251389,0.539237,-0.024122,49,270,584,6240
1644184522.976469,-0.007629,0.008545,-0.99292,0.190321,0.432366,-0.161527,51,279,578,6224
1644184523.073223,-0.009277,0.011047,-0.993896,0.266656,0.447634,-0.039389,41,276,592,6224
1644184523.121092,-0.009521,0.010376,-0.99231,0.144519,0.478168,-0.130992,48,281,580,6176
1644184523.169493,-0.011108,0.009949,-0.993103,0.297191,0.417099,-0.039389,52,270,586,6224
1644184523.217907,-0.007996,0.008179,-0.990662,0.052916,0.432366,-0.161527,45,275,582,6176
1644184523.266283,-0.010498,0.011536,-0.988586,0.220855,0.478168,-0.008855,46,271,583,6128
1644184523.314705,-0.008118,0.011536,-0.990601,0.327725,0.356031,-0.069924,54,270,582,6176
1644184523.363085,-0.009216,0.010498,-0.990906,0.159786,0.294962,0.006412,53,269,576,6224
1644184523.411475,-0.009399,0.008789,-0.991028,0.144519,0.417099,-0.039389,47,277,579,6160
1644184523.459862,-0.006775,0.008301,-0.992188,0.236122,0.554504,-0.100458,47,275,586,6224
1644184523.508279,-0.008667,0.011414,-0.989014,0.129252,0.462901,-0.14626,51,271,587,6176
1644184523.556653,-0.010376,0.009521,-0.992371,0.190321,0.310229,-0.069924,45,273,591,6240
1644184523.605148,-0.010986,0.011841,-0.990662,0.251389,0.417099,-0.14626,51,271,583,6224
1644184523.653435,-0.00824,0.010193,-0.993896,0.159786,0.523969,-0.115725,51,279,587,6128
1644184523.701803,-0.010254,0.007019,-0.990051,0.007115,0.417099,-0.130992,54,280,593,6224
1644184523.750193,-0.006592,0.010132,-0.99408,0.175053,0.24916,-0.222595,46,283,571,6224
1644184523.798602,-0.007874,0.01062,-0.990112,0.251389,0.432366,-0.100458,51,291,580,6240
1644184523.846995,-0.010559,0.008057,-0.993225,0.098718,0.432366,-0.192061,58,276,580,6192
1644184523.895417,-0.010925,0.010803,-0.990173,0.266656,0.508702,-0.054656,52,265,584,6160
1644184523.944339,-0.00946,0.010864,-0.992371,0.312458,0.356031,-0.314198,59,275,598,6192
1644184523.994267,-0.008118,0.008423,-0.991394,0.129252,0.432366,-0.176794,47,285,591,6176
1644184524.044657,-0.006897,0.006531,-0.992981,0.281924,0.310229,-0.14626,54,265,593,6176
1644184524.097584,-0.009277,0.009888,-0.992126,0.251389,0.600305,0.006412,53,276,585,6160
1644184524.185759,-0.009583,0.008728,-0.993896,0.175053,0.356031,-0.039389,45,270,584,6160
1644184524.234123,-0.007751,0.01062,-0.990906,0.205588,0.340763,-0.069924,41,271,576,6240
1644184524.28251,-0.009644,0.009888,-0.988953,0.236122,0.386565,-0.176794,48,276,592,6176
1644184524.330883,-0.008728,0.011536,-0.991089,0.220855,0.478168,-0.100458,47,275,577,6224
1644184524.379272,-0.005188,0.012146,-0.992493,0.281924,0.462901,-0.222595,51,274,585,6160
1644184524.427676,-0.006836,0.010315,-0.991028,0.266656,0.218626,-0.192061,43,274,587,6256
1644184524.476069,-0.008301,0.009949,-0.989624,0.342992,0.401832,-0.115725,46,262,583,6240
1644184524.524479,-0.00647,0.01239,-0.989563,0.190321,0.325496,-0.207328,54,277,579,6112
1644184524.572866,-0.009949,0.011414,-0.991943,0.236122,0.493435,0.006412,52,277,577,6224
1644184524.621258,-0.009094,0.013733,-0.990601,0.342992,0.401832,-0.14626,51,276,580,6224
1644184524.669653,-0.008911,0.009827,-0.995483,0.312458,0.340763,0.021679,52,275,584,6160
1644184524.71804,-0.010681,0.009521,-0.991272,0.327725,0.417099,0.006412,55,279,590,6224
1644184524.76643,-0.010254,0.010803,-0.990967,0.342992,0.264427,-0.176794,42,277,582,6160
1644184524.814864,-0.007751,0.010315,-0.992493,0.251389,0.508702,-0.054656,46,281,573,6176
1644184524.863251,-0.007385,0.007874,-0.993103,0.205588,0.508702,-0.054656,36,279,594,6240
1644184524.911701,-0.009644,0.010315,-0.991333,0.205588,0.508702,0.036947,48,279,580,6176
1644184524.960037,-0.008728,0.010071,-0.988647,0.388794,0.478168,-0.069924,40,273,596,6240
1644184525.008772,-0.008972,0.00885,-0.991577,0.190321,0.371298,-0.130992,53,276,592,6240
1644184525.077524,-0.006042,0.010498,-0.991638,0.068183,0.24916,-0.192061,57,268,591,6240
1644184525.114062,-0.010376,0.009338,-0.990051,0.098718,0.386565,-0.008855,43,274,592,6224
1644184525.156779,-0.007996,0.010498,-0.993652,0.144519,0.340763,-0.054656,43,288,580,6240
1644184525.206958,-0.007446,0.010925,-0.992371,0.175053,0.493435,-0.130992,46,279,580,6224
1644184525.298763,-0.00708,0.008911,-0.990845,0.251389,0.569771,-0.024122,43,281,576,6192
1644184525.347107,-0.009888,0.008789,-0.99353,0.251389,0.371298,-0.130992,46,269,583,6240
1644184525.395513,-0.005981,0.009583,-0.991638,0.281924,0.325496,-0.085191,52,287,584,6224
1644184525.443933,-0.009033,0.007812,-0.989624,0.190321,0.294962,-0.054656,51,276,580,6176
1644184525.492388,-0.00708,0.010864,-0.99176,0.129252,0.371298,-0.130992,48,281,578,6224
1644184525.540727,-0.010864,0.008545,-0.991089,0.220855,0.447634,-0.237863,48,281,592,6224
1644184525.589106,-0.009094,0.00946,-0.991821,0.113985,0.279695,-0.039389,42,275,586,6240
1644184525.637501,-0.011292,0.007385,-0.990112,0.388794,0.417099,0.052214,53,271,583,6240
1644184525.685899,-0.009277,0.009888,-0.992188,0.266656,0.478168,-0.130992,51,266,583,6224
1644184525.734308,-0.010437,0.010742,-0.989868,0.205588,0.356031,-0.25313,49,270,586,6224
1644184525.78269,-0.008545,0.007996,-0.994019,0.08345,0.294962,-0.14626,46,271,580,6224
1644184525.831112,-0.006409,0.008423,-0.990662,0.159786,0.569771,-0.222595,51,274,587,6224
1644184525.879508,-0.008972,0.009949,-0.992493,0.129252,0.417099,0.036947,53,274,592,6176
1644184525.927906,-0.009827,0.01001,-0.989136,0.327725,0.417099,0.036947,51,288,585,6224
1644184525.976251,-0.008423,0.009766,-0.989685,0.327725,0.371298,0.067481,53,276,599,6224
1644184526.02476,-0.010437,0.010315,-0.99054,0.190321,0.447634,-0.14626,46,279,585,6224
1644184526.080977,-0.006775,0.011658,-0.993652,0.205588,0.401832,-0.14626,51,271,587,6176
1644184526.121442,-0.007263,0.009399,-0.990723,0.159786,0.508702,-0.115725,43,291,583,6224
1644184526.169825,-0.008667,0.011292,-0.99231,0.175053,0.523969,-0.130992,49,275,584,6224
1644184526.218364,-0.011536,0.011169,-0.991821,0.190321,0.401832,-0.130992,45,273,589,6192
1644184526.268883,-0.009583,0.009338,-0.990784,0.266656,0.371298,-0.130992,53,274,592,6240
1644184526.31905,-0.00769,0.010132,-0.993652,0.251389,0.356031,-0.085191,47,273,586,6160
1644184526.364137,-0.005127,0.013367,-0.989807,0.190321,0.401832,-0.14626,55,279,590,6176
1644184526.460191,-0.004944,0.013184,-0.99176,0.190321,0.401832,-0.176794,49,277,586,6240
1644184526.508556,-0.008301,0.010986,-0.989197,0.35826,0.401832,-0.100458,41,274,594,6224
1644184526.556949,-0.008911,0.012085,-0.989319,0.281924,0.340763,-0.069924,48,283,583,6256
1644184526.605474,-0.008423,0.009216,-0.990417,0.144519,0.371298,-0.054656,64,270,572,6240
1644184526.653757,-0.010437,0.012756,-0.99408,0.251389,0.417099,-0.161527,41,281,585,6176
1644184526.702173,-0.008179,0.011169,-0.992188,0.281924,0.233893,-0.039389,41,274,573,6176
1644184526.750512,-0.011902,0.011353,-0.992554,0.342992,0.417099,0.036947,57,280,577,6288
1644184526.798927,-0.007629,0.008789,-0.992493,0.236122,0.417099,-0.237863,51,271,590,6224
1644184526.84738,-0.009521,0.01062,-0.989075,0.129252,0.508702,-0.115725,53,281,580,6160
1644184526.89576,-0.008972,0.010559,-0.992676,0.159786,0.401832,-0.115725,48,274,576,6240
1644184526.944181,-0.008728,0.011292,-0.990784,0.236122,0.447634,0.006412,55,266,590,6224
1644184526.99255,-0.013123,0.010193,-0.989929,0.144519,0.386565,-0.085191,48,281,576,6192
1644184527.040905,-0.008484,0.009155,-0.98938,0.251389,0.356031,-0.024122,49,277,572,6160
1644184527.097144,-0.011658,0.009033,-0.990845,0.175053,0.386565,0.052214,57,277,593,6080
1644184527.137703,-0.007751,0.008606,-0.991516,0.175053,0.569771,-0.024122,49,270,591,6176
1644184527.186059,-0.009338,0.010864,-0.992859,0.281924,0.417099,-0.207328,57,280,582,6224
1644184527.234447,-0.007202,0.007751,-0.992371,0.022382,0.432366,-0.130992,57,275,579,6240
1644184527.282873,-0.008606,0.012085,-0.990173,0.327725,0.493435,-0.14626,45,260,591,6240
1644184527.331272,-0.006897,0.012329,-0.99231,0.144519,0.356031,-0.115725,48,274,585,6192
1644184527.380049,-0.009216,0.010315,-0.990051,0.129252,0.478168,-0.085191,51,271,592,6128
1644184527.430544,-0.011475,0.011047,-0.992065,0.159786,0.508702,-0.176794,54,277,575,6160
1644184527.480701,-0.008179,0.009888,-0.993469,0.159786,0.356031,0.006412,53,279,585,6176
1644184527.525845,-0.009338,0.008728,-0.991394,0.144519,0.462901,-0.192061,54,268,589,6160
1644184527.621611,-0.009399,0.008911,-0.993042,0.312458,0.264427,-0.14626,42,290,589,6192
1644184527.670006,-0.00769,0.009399,-0.992798,0.236122,0.386565,-0.069924,65,266,576,6256
1644184527.718387,-0.009094,0.010864,-0.991516,0.312458,0.417099,-0.130992,52,277,584,6224
1644184527.766782,-0.007385,0.008423,-0.991577,0.144519,0.325496,-0.192061,43,283,585,6224
1644184527.815177,-0.008057,0.009644,-0.993652,0.297191,0.264427,-0.161527,59,277,582,6224
1644184527.863602,-0.012085,0.006531,-0.991943,0.190321,0.340763,0.052214,48,269,576,6224
1644184527.912008,-0.006531,0.011475,-0.988586,0.190321,0.417099,-0.130992,42,268,582,6224
1644184527.960405,-0.010437,0.010254,-0.991211,0.190321,0.462901,-0.085191,51,276,578,6256
1644184528.008796,-0.007812,0.011719,-0.989136,0.373527,0.356031,-0.024122,58,281,597,6128
1644184528.068123,-0.009583,0.009338,-0.993164,0.175053,0.401832,-0.14626,57,275,586,6240
1644184528.106026,-0.007568,0.009949,-0.992554,0.113985,0.508702,-0.207328,39,274,585,6160
1644184528.153947,-0.007202,0.009644,-0.990967,0.08345,0.325496,-0.085191,53,271,580,6224
1644184528.202334,-0.011292,0.010742,-0.99115,0.236122,0.340763,-0.222595,54,275,596,6192
1644184528.250721,-0.010132,0.009827,-0.993591,0.236122,0.493435,-0.130992,51,279,583,6224
1644184528.299107,-0.009277,0.009216,-0.991699,0.236122,0.356031,-0.069924,38,277,584,6128
1644184528.347508,-0.009155,0.010559,-0.994873,0.175053,0.325496,-0.008855,46,281,590,6160
1644184528.395892,-0.009888,0.011719,-0.990967,0.342992,0.569771,-0.130992,46,271,583,6160
1644184528.444292,-0.009766,0.010559,-0.992737,0.159786,0.462901,-0.130992,49,273,586,6224
1644184528.492678,-0.005859,0.009583,-0.989868,0.220855,0.340763,-0.039389,49,280,589,6192
1644184528.541247,-0.009888,0.009705,-0.99115,0.236122,0.310229,-0.14626,42,277,575,6160
1644184528.591664,-0.008179,0.010193,-0.991516,0.297191,0.493435,0.021679,47,268,586,6176
1644184528.641834,-0.008728,0.008362,-0.990662,0.388794,0.447634,-0.039389,54,285,584,6176
1644184528.686952,-0.007385,0.009277,-0.993164,0.220855,0.371298,-0.039389,51,274,578,6192
1644184528.783052,-0.007324,0.010193,-0.992432,0.388794,0.493435,-0.176794,47,270,577,6160
1644184528.831424,-0.007996,0.011536,-0.992859,0.190321,0.508702,0.036947,49,277,577,6192
1644184528.879889,-0.009949,0.010254,-0.991516,0.327725,0.218626,-0.008855,48,274,590,6160
1644184528.928254,-0.008301,0.008545,-0.990906,0.266656,0.401832,0.082748,47,285,579,6240
1644184528.97665,-0.008911,0.009827,-0.993347,0.144519,0.462901,-0.115725,52,270,582,6192
1644184529.025092,-0.011047,0.007568,-0.990356,0.220855,0.569771,-0.054656,54,275,589,6192
1644184529.073546,-0.012207,0.010742,-0.989929,0.220855,0.417099,0.021679,51,283,590,6176
1644184529.121776,-0.007568,0.006165,-0.991638,0.205588,0.478168,-0.115725,57,277,579,6224
1644184529.170176,-0.009949,0.00885,-0.992432,0.190321,0.356031,-0.130992,45,277,577,6224
1644184529.218549,-0.007935,0.009583,-0.991821,0.251389,0.386565,-0.054656,48,286,583,6176
1644184529.266945,-0.00824,0.009338,-0.993347,0.129252,0.371298,-0.115725,57,277,586,6192
1644184529.315358,-0.011108,0.010193,-0.98999,0.266656,0.386565,-0.069924,43,271,585,6176
1644184529.363772,-0.009399,0.008911,-0.989685,0.236122,0.401832,-0.039389,45,273,586,6240
1644184529.412223,-0.010925,0.009827,-0.989929,0.08345,0.432366,-0.069924,57,273,584,6176
1644184529.460542,-0.008667,0.008545,-0.990417,0.251389,0.508702,-0.115725,46,281,585,6192
1644184529.508913,-0.00946,0.010559,-0.993347,0.129252,0.371298,0.082748,51,279,592,6224
1644184529.557324,-0.007629,0.007996,-0.989563,0.281924,0.585038,-0.054656,61,282,586,6224
1644184529.60572,-0.00647,0.00708,-0.994507,0.251389,0.371298,-0.085191,57,273,586,6224
1644184529.654116,-0.009277,0.010437,-0.991211,0.129252,0.371298,-0.130992,57,277,586,6192
1644184529.702878,-0.009155,0.009338,-0.994629,0.190321,0.340763,0.052214,47,277,591,6128
1644184529.752974,-0.008362,0.010864,-0.992981,0.144519,0.371298,-0.085191,48,271,580,6176
1644184529.803416,-0.007996,0.010864,-0.994446,0.205588,0.279695,-0.115725,53,283,580,6240
1644184529.848356,-0.008972,0.009766,-0.990845,0.205588,0.340763,0.113282,52,275,582,6256
1644184529.944514,-0.008972,0.009094,-0.991455,0.129252,0.432366,-0.085191,43,276,585,6240
1644184529.992907,-0.010376,0.010803,-0.992371,0.251389,0.478168,-0.085191,42,273,579,6192
1644184530.042481,-0.009766,0.00824,-0.989197,0.098718,0.310229,-0.100458,51,281,583,6224
1644184530.095731,-0.010254,0.00885,-0.991211,0.144519,0.508702,-0.161527,47,275,584,6176
1644184530.13809,-0.007996,0.008606,-0.991272,0.205588,0.356031,-0.283664,51,271,585,6160
1644184530.186429,-0.006348,0.008972,-0.991394,0.220855,0.417099,-0.039389,48,274,583,6176
1644184530.234828,-0.011169,0.011963,-0.992371,0.068183,0.401832,0.006412,49,275,584,6224
1644184530.283222,-0.00946,0.010498,-0.990967,0.220855,0.188092,-0.115725,66,270,586,6176
1644184530.331613,-0.008362,0.009155,-0.989929,0.251389,0.325496,-0.222595,48,276,576,6192
1644184530.379974,-0.008118,0.008972,-0.990967,0.236122,0.447634,-0.069924,47,275,582,6176
1644184530.42865,-0.008484,0.01001,-0.992249,0.175053,0.294962,-0.085191,55,271,578,6192
1644184530.477983,-0.009338,0.008057,-0.990967,0.220855,0.447634,-0.054656,47,285,584,6176
1644184530.528269,-0.006348,0.011902,-0.991211,0.205588,0.432366,-0.100458,45,275,577,6224
1644184530.578646,-0.010498,0.007629,-0.991455,0.312458,0.676641,-0.085191,49,282,579,6224
1644184530.670349,-0.009033,0.009827,-0.991821,0.159786,0.24916,-0.069924,58,279,587,6176
1644184530.71873,-0.009033,0.010803,-0.992676,0.205588,0.340763,-0.14626,52,273,579,6224
1644184530.767124,-0.008362,0.009888,-0.990173,0.236122,0.417099,-0.085191,54,275,584,6176
1644184530.815533,-0.00769,0.009521,-0.989746,0.098718,0.371298,-0.207328,40,275,589,6224
1644184530.86396,-0.007507,0.006897,-0.992493,0.373527,0.447634,-0.14626,42,275,577,6240
1644184530.91238,-0.007996,0.010071,-0.98999,0.159786,0.340763,0.082748,47,280,589,6224
1644184530.960772,-0.007141,0.008423,-0.990845,0.220855,0.218626,-0.222595,47,273,584,6192
1644184531.009131,-0.009094,0.007629,-0.992493,0.342992,0.340763,-0.14626,43,281,590,6224
1644184531.061706,-0.00946,0.009827,-0.990967,0.297191,0.417099,-0.237863,51,271,580,6160
1644184531.105879,-0.007507,0.01001,-0.992676,0.098718,0.600305,-0.192061,52,275,584,6192
1644184531.154306,-0.01001,0.008667,-0.988708,0.251389,0.371298,-0.085191,57,277,577,6224
1644184531.202668,-0.00531,0.011597,-0.989197,0.251389,0.417099,-0.14626,49,280,584,6160
1644184531.251076,-0.007996,0.00824,-0.993469,0.312458,0.493435,-0.039389,61,285,579,6240
1644184531.299468,-0.009216,0.011108,-0.989624,0.297191,0.356031,-0.176794,57,275,570,6128
1644184531.347857,-0.010193,0.009888,-0.992554,0.205588,0.386565,-0.161527,54,285,584,6160
1644184531.39626,-0.010437,0.00824,-0.990723,0.419328,0.432366,-0.222595,55,281,585,6192
1644184531.444652,-0.007507,0.009277,-0.989075,0.297191,0.264427,-0.008855,49,282,591,6176
1644184531.493068,-0.009644,0.011475,-0.991821,0.388794,0.325496,-0.115725,46,276,583,6224
1644184531.541445,-0.008118,0.006836,-0.990173,0.190321,0.462901,-0.222595,49,285,591,6224
1644184531.5901,-0.008545,0.007935,-0.990601,0.159786,0.417099,-0.115725,53,276,585,6192
1644184531.640627,-0.008423,0.01123,-0.995239,0.113985,0.340763,-0.085191,40,282,584,6192
1644184531.690856,-0.011353,0.00885,-0.991089,0.297191,0.401832,-0.100458,57,273,582,6112
1644184531.736054,-0.007996,0.011169,-0.989014,0.281924,0.478168,-0.237863,53,281,585,6240
1644184531.831836,-0.009277,0.007446,-0.988525,-0.02342,0.478168,-0.283664,52,273,586,6224
1644184531.880232,-0.007812,0.012207,-0.990784,0.251389,0.24916,-0.130992,57,268,586,6160
1644184531.92862,-0.010437,0.014404,-0.989929,0.068183,0.493435,0.006412,49,275,582,6240
1644184531.977016,-0.010437,0.010254,-0.98999,0.251389,0.340763,-0.115725,52,273,577,6176
1644184532.025393,-0.006226,0.012573,-0.990173,-0.008153,0.478168,-0.100458,47,270,586,6192
1644184532.073915,-0.009644,0.004517,-0.991943,0.144519,0.294962,-0.054656,48,279,594,6128
1644184532.122159,-0.008118,0.009094,-0.992065,0.251389,0.432366,-0.024122,49,280,582,6192
1644184532.170553,-0.009827,0.008362,-0.99353,0.327725,0.401832,-0.039389,48,283,585,6192
1644184532.218936,-0.009705,0.008057,-0.991089,0.220855,0.462901,-0.100458,48,281,578,6192
1644184532.267311,-0.007996,0.011108,-0.990356,0.159786,0.493435,-0.054656,47,275,589,6256
1644184532.315728,-0.007263,0.008728,-0.991638,0.022382,0.447634,-0.039389,54,280,584,6224
1644184532.364134,-0.009277,0.010193,-0.993774,0.236122,0.325496,-0.039389,53,276,578,6240
1644184532.412528,-0.007141,0.008606,-0.989685,0.281924,0.462901,-0.161527,52,273,584,6128
1644184532.460911,-0.009521,0.007263,-0.992981,0.327725,0.294962,0.12855,52,268,593,6240
1644184532.509262,-0.006958,0.011536,-0.990845,0.312458,0.478168,-0.100458,49,287,584,6176
1644184532.557681,-0.011169,0.01123,-0.990906,0.175053,0.401832,-0.115725,45,277,586,6240
1644184532.606075,-0.007812,0.010986,-0.991089,0.205588,0.432366,-0.039389,49,270,579,6176
1644184532.65477,-0.008728,0.007751,-0.991333,0.068183,0.432366,-0.039389,48,274,590,6160
1644184532.703824,-0.010315,0.009338,-0.99176,0.144519,0.325496,-0.054656,46,274,585,6240
1644184532.754363,-0.009399,0.009888,-0.989502,0.113985,0.401832,-0.008855,47,270,589,6128
1644184532.804478,-0.009827,0.007202,-0.993591,0.236122,0.401832,-0.176794,53,279,592,6128
1644184532.896495,-0.007446,0.011963,-0.991516,0.312458,0.356031,-0.085191,55,279,597,6176
1644184532.9449,-0.005737,0.011658,-0.992188,0.220855,0.447634,-0.100458,45,273,584,6192
1644184532.993273,-0.009338,0.01001,-0.993713,0.144519,0.447634,-0.069924,47,273,579,6176
1644184533.041644,-0.008484,0.008911,-0.991699,0.113985,0.554504,-0.100458,57,268,584,6224
1644184533.092232,-0.010925,0.008118,-0.992188,0.297191,0.462901,-0.192061,48,279,601,6192
1644184533.138387,-0.006042,0.009338,-0.98938,0.022382,0.371298,-0.100458,39,266,587,6176
1644184533.186795,-0.009399,0.010071,-0.992981,0.190321,0.478168,-0.085191,48,271,590,6192
1644184533.235259,-0.00824,0.011963,-0.993469,0.052916,0.523969,-0.069924,57,273,586,6224
1644184533.283566,-0.009033,0.007385,-0.992798,0.175053,0.417099,-0.069924,51,271,583,6224
1644184533.331969,-0.006958,0.008118,-0.991089,0.08345,0.356031,-0.130992,38,270,596,6128
1644184533.380372,-0.007568,0.007202,-0.989563,0.220855,0.401832,0.036947,39,271,583,6176
1644184533.428755,-0.011658,0.006592,-0.992371,0.08345,0.432366,-0.207328,45,280,589,6160
1644184533.477157,-0.006287,0.011536,-0.991577,0.251389,0.340763,-0.024122,58,283,599,6176
1644184533.525547,-0.007507,0.010376,-0.988464,0.190321,0.569771,-0.039389,48,281,585,6256
1644184533.575503,-0.00769,0.013489,-0.990417,0.220855,0.432366,-0.008855,57,285,591,6160
1644184533.625819,-0.005188,0.009888,-0.98999,0.068183,0.432366,0.036947,43,276,573,6176
1644184533.676056,-0.005554,0.008484,-0.992371,0.220855,0.508702,0.052214,59,275,575,6192
1644184533.767493,-0.009216,0.011536,-0.993347,0.113985,0.493435,-0.085191,39,271,578,6240
1644184533.815877,-0.010376,0.007935,-0.991699,0.190321,0.417099,-0.176794,52,273,584,6224
1644184533.864335,-0.011292,0.011353,-0.993958,0.312458,0.386565,0.067481,52,280,584,6256
1644184533.912732,-0.012695,0.008118,-0.993835,0.129252,0.462901,-0.161527,47,285,579,6240
1644184533.96111,-0.008545,0.009277,-0.992737,0.281924,0.340763,-0.054656,41,269,590,6176
1644184534.009521,-0.010742,0.008972,-0.99408,0.251389,0.508702,-0.222595,58,286,587,6192
1644184534.067654,-0.011841,0.008728,-0.992981,0.175053,0.523969,-0.130992,53,281,583,6192
1644184534.106271,-0.010437,0.010071,-0.99292,0.312458,0.325496,-0.14626,47,270,591,6224
1644184534.154657,-0.008484,0.008545,-0.98877,0.190321,0.386565,-0.268397,45,275,584,6160
1644184534.203062,-0.008667,0.01123,-0.991943,0.175053,0.417099,-0.085191,45,273,579,6160
1644184534.251417,-0.007812,0.012329,-0.989746,0.144519,0.325496,-0.176794,55,271,587,6224
1644184534.299829,-0.006348,0.008301,-0.990662,0.281924,0.569771,-0.14626,52,273,584,6176
1644184534.348212,-0.009033,0.009521,-0.990723,0.266656,0.279695,-0.024122,52,263,575,6160
1644184534.396621,-0.007385,0.00946,-0.989685,0.220855,0.462901,-0.008855,48,271,583,6224
1644184534.445049,-0.006714,0.009705,-0.992249,0.297191,0.401832,-0.329466,43,274,580,6240
1644184534.493406,-0.008728,0.010132,-0.98938,0.175053,0.325496,-0.100458,49,273,589,6128
1644184534.541788,-0.008911,0.009949,-0.990479,0.113985,0.310229,-0.130992,53,274,585,6224
1644184534.590182,-0.010071,0.008606,-0.99292,0.297191,0.447634,-0.024122,51,279,590,6240
1644184534.638633,-0.008118,0.010925,-0.991699,0.251389,0.417099,-0.176794,51,286,583,6256
1644184534.687282,-0.007751,0.011169,-0.990784,0.190321,0.417099,-0.100458,42,277,589,6160
1644184534.737771,-0.009094,0.01001,-0.991333,0.281924,0.63084,0.067481,58,271,585,6176
1644184534.787878,-0.008179,0.009827,-0.992859,0.068183,0.356031,-0.039389,54,273,596,6160
1644184534.832855,-0.009094,0.008545,-0.988647,0.251389,0.371298,-0.100458,52,275,577,6176
1644184534.928973,-0.009399,0.007446,-0.991272,0.373527,0.417099,0.021679,49,273,589,6224
1644184534.977359,-0.006226,0.012024,-0.991882,0.281924,0.432366,0.098015,51,283,590,6176
1644184535.025742,-0.008484,0.013062,-0.989929,0.236122,0.539237,0.098015,39,271,587,6176
1644184535.074204,-0.00708,0.010925,-0.991211,0.220855,0.462901,-0.115725,46,281,583,6224
1644184535.123203,-0.007263,0.009399,-0.993042,0.404061,0.356031,-0.100458,49,270,591,6192
1644184535.170906,-0.007568,0.009705,-0.989929,-0.02342,0.386565,-0.115725,57,270,584,6176
1644184535.219291,-0.007874,0.009827,-0.989929,0.113985,0.432366,-0.069924,57,277,584,6240
1644184535.267666,-0.00708,0.012695,-0.991638,0.205588,0.554504,-0.268397,51,281,585,6160
1644184535.316076,-0.009155,0.004944,-0.991699,0.129252,0.585038,-0.039389,47,270,579,6256
1644184535.36446,-0.010498,0.009705,-0.992798,0.220855,0.432366,-0.069924,41,276,580,6224
1644184535.412866,-0.007996,0.009094,-0.990295,0.281924,0.386565,-0.008855,46,281,580,6128
1644184535.461258,-0.006775,0.009277,-0.991577,0.236122,0.264427,-0.207328,46,274,576,6336
1644184535.509618,-0.007019,0.010437,-0.992249,0.266656,0.432366,-0.100458,61,273,591,6192
1644184535.558036,-0.007507,0.009644,-0.994263,0.022382,0.478168,-0.192061,47,280,570,6224
1644184535.606436,-0.008972,0.006592,-0.989441,0.312458,0.478168,-0.130992,53,269,594,6192
1644184535.654834,-0.009521,0.008972,-0.993103,0.175053,0.356031,-0.085191,51,276,580,6256
1644184535.703223,-0.009644,0.009338,-0.993042,0.129252,0.340763,-0.115725,61,285,589,6224
1644184535.751589,-0.008118,0.010437,-0.989197,0.159786,0.478168,-0.039389,55,286,592,6224
1644184535.800161,-0.008118,0.009399,-0.994141,0.327725,0.508702,-0.100458,53,291,585,6192
1644184535.849087,-0.00708,0.008728,-0.990417,0.35826,0.356031,-0.054656,49,275,586,6160
1644184535.901734,-0.009521,0.011108,-0.992188,0.266656,0.401832,0.036947,43,283,585,6176
1644184535.950986,-0.010559,0.008667,-0.990173,0.08345,0.508702,-0.100458,52,268,596,6160
1644184536.042023,-0.005432,0.007446,-0.993103,0.236122,0.539237,-0.100458,52,275,589,6192
1644184536.090468,-0.007874,0.008545,-0.98999,0.220855,0.569771,0.021679,46,274,592,6160
1644184536.138784,-0.005432,0.013306,-0.992188,0.251389,0.554504,-0.115725,41,283,578,6192
1644184536.187152,-0.009705,0.008118,-0.989319,0.342992,0.432366,-0.222595,53,274,578,6160
1644184536.23554,-0.008484,0.007568,-0.992493,0.190321,0.478168,-0.039389,43,276,583,6176
1644184536.283946,-0.00769,0.009644,-0.990906,0.220855,0.478168,-0.192061,51,276,573,6192
1644184536.332346,-0.008484,0.01062,-0.990967,0.220855,0.417099,-0.100458,40,277,596,6224
1644184536.380727,-0.008911,0.009888,-0.991882,0.175053,0.386565,-0.14626,48,279,583,6176
1644184536.429134,-0.007812,0.011169,-0.992554,0.068183,0.401832,-0.100458,46,283,573,6128
1644184536.477499,-0.006592,0.010742,-0.990112,0.159786,0.386565,-0.054656,51,274,587,6192
1644184536.525887,-0.008484,0.01062,-0.989746,0.236122,0.294962,-0.192061,48,274,580,6240
1644184536.574305,-0.008728,0.009644,-0.990356,0.327725,0.646107,-0.100458,46,279,585,6176
1644184536.622706,-0.00769,0.008789,-0.988281,0.175053,0.386565,0.006412,49,277,586,6224
1644184536.671081,-0.008667,0.012207,-0.990234,0.266656,0.417099,0.006412,47,268,591,6224
1644184536.71948,-0.007935,0.009338,-0.99353,0.312458,0.447634,-0.024122,55,271,587,6176
1644184536.767866,-0.007935,0.010559,-0.992554,0.373527,0.401832,-0.054656,57,280,586,6160
1644184536.816245,-0.008545,0.012146,-0.994141,0.08345,0.508702,-0.222595,53,276,576,6224
1644184536.864723,-0.007812,0.008728,-0.990479,0.312458,0.340763,-0.115725,59,277,572,6224
1644184536.914015,-0.008301,0.01178,-0.989136,0.159786,0.401832,0.006412,49,277,589,6224
1644184536.964239,-0.009033,0.009888,-0.992493,0.205588,0.279695,0.098015,48,271,573,6256
1644184537.066821,-0.011047,0.011658,-0.99115,0.175053,0.356031,-0.130992,42,275,582,6224
1644184537.106595,-0.006409,0.009277,-0.990723,0.144519,0.447634,-0.192061,57,280,600,6224
1644184537.155084,-0.010376,0.007263,-0.989441,0.144519,0.264427,-0.115725,47,277,577,6224
1644184537.203421,-0.009583,0.010986,-0.991211,0.052916,0.325496,-0.024122,55,269,580,6160
1644184537.251778,-0.010376,0.010742,-0.992676,0.190321,0.264427,-0.25313,43,271,578,6192
1644184537.300195,-0.00592,0.011658,-0.99231,0.220855,0.417099,-0.085191,51,281,580,6128
1644184537.348586,-0.008362,0.00885,-0.992188,0.220855,0.386565,0.082748,52,275,591,6240
1644184537.396977,-0.007385,0.010742,-0.992615,0.205588,0.310229,-0.283664,41,276,576,6160
1644184537.445361,-0.010681,0.008057,-0.994385,0.312458,0.508702,0.036947,53,266,580,6224
1644184537.493738,-0.005371,0.010254,-0.992615,0.129252,0.356031,0.021679,55,279,592,6224
1644184537.542225,-0.010071,0.008179,-0.991089,0.175053,0.356031,-0.069924,43,291,580,6192
1644184537.590558,-0.009644,0.010803,-0.991638,0.327725,0.203359,-0.192061,52,268,582,6160
1644184537.638915,-0.008789,0.007202,-0.992615,0.205588,0.478168,-0.069924,58,266,583,6176
1644184537.687328,-0.009521,0.010132,-0.993835,0.175053,0.401832,-0.14626,48,276,583,6240
1644184537.736009,-0.00885,0.008179,-0.994263,0.236122,0.386565,0.052214,53,266,587,6176
1644184537.784982,-0.010742,0.007751,-0.992371,0.297191,0.417099,-0.130992,46,279,585,6288
1644184537.835307,-0.010437,0.009949,-0.988953,0.190321,0.401832,-0.192061,46,279,583,6192
1644184537.885772,-0.006775,0.010925,-0.991882,0.220855,0.462901,-0.024122,55,274,590,6176
1644184537.930898,-0.010315,0.009521,-0.993164,0.236122,0.432366,-0.176794,48,274,587,6192
1644184538.026116,-0.008057,0.011719,-0.991272,0.236122,0.462901,-0.054656,48,279,580,6240
1644184538.07456,-0.008484,0.010315,-0.991943,0.175053,0.386565,-0.115725,51,288,594,6224
1644184538.122861,-0.007263,0.012817,-0.990784,0.175053,0.539237,-0.176794,64,270,586,6224
1644184538.171255,-0.009583,0.010193,-0.993103,0.297191,0.279695,-0.115725,47,290,577,6192
1644184538.219697,-0.009277,0.008118,-0.99231,0.266656,0.554504,-0.024122,58,269,578,6192
1644184538.268023,-0.010925,0.009766,-0.990173,0.190321,0.371298,-0.115725,57,275,579,6160
1644184538.316428,-0.009277,0.007812,-0.991455,0.388794,0.478168,-0.100458,49,268,584,6224
1644184538.364822,-0.00647,0.011658,-0.990845,0.098718,0.493435,-0.069924,52,273,584,6224
1644184538.413237,-0.00708,0.008057,-0.990051,0.236122,0.386565,-0.14626,48,266,587,6176
1644184538.461617,-0.008362,0.00769,-0.989441,0.220855,0.386565,0.021679,45,268,577,6224
1644184538.510013,-0.010071,0.010864,-0.990906,0.205588,0.340763,-0.054656,48,274,587,6224
1644184538.558405,-0.008423,0.008667,-0.991516,0.312458,0.371298,-0.192061,53,274,587,6240
1644184538.60681,-0.009033,0.009705,-0.991821,0.297191,0.508702,-0.054656,53,281,590,6240
1644184538.655271,-0.008423,0.009399,-0.991821,0.266656,0.310229,-0.054656,47,277,582,6192
1644184538.703576,-0.008423,0.008545,-0.991333,0.236122,0.356031,-0.192061,48,276,585,6160
1644184538.751958,-0.007629,0.009338,-0.992065,0.175053,0.340763,-0.130992,51,283,587,6240
1644184538.800414,-0.007751,0.011963,-0.992676,0.159786,0.508702,-0.100458,51,283,583,6224
1644184538.848795,-0.009033,0.008118,-0.990906,0.266656,0.310229,-0.192061,48,276,587,6192
1644184538.897237,-0.009521,0.008179,-0.992126,0.251389,0.432366,-0.069924,61,260,584,6192
1644184538.946557,-0.009766,0.008362,-0.988525,0.312458,0.325496,-0.024122,48,281,585,6128
1644184538.997113,-0.01001,0.010193,-0.99176,0.297191,0.340763,-0.176794,48,281,583,6224
1644184539.063537,-0.005798,0.013,-0.989136,0.327725,0.539237,-0.115725,49,275,591,6224
1644184539.139117,-0.009399,0.009949,-0.991943,0.175053,0.447634,-0.222595,57,277,596,6224
1644184539.187496,-0.006042,0.008423,-0.993103,0.159786,0.386565,0.036947,51,271,583,6192
1644184539.23588,-0.006165,0.009155,-0.990601,0.205588,0.386565,-0.100458,52,277,589,6224
1644184539.284286,-0.008179,0.009033,-0.990906,0.404061,0.340763,-0.085191,54,277,591,6224
1644184539.332707,-0.009949,0.006409,-0.99176,0.251389,0.493435,-0.161527,58,262,590,6224
1644184539.381076,-0.008179,0.013733,-0.99115,0.281924,0.279695,-0.14626,49,275,579,6128
1644184539.429449,-0.00592,0.010559,-0.990662,0.098718,0.371298,-0.14626,53,269,585,6176
1644184539.477856,-0.006226,0.012146,-0.992188,0.342992,0.462901,-0.054656,53,271,573,6224
1644184539.526266,-0.008972,0.00885,-0.994141,0.251389,0.478168,-0.039389,57,275,579,6224
1644184539.574709,-0.010925,0.009155,-0.991333,0.327725,0.462901,-0.039389,54,282,589,6240
1644184539.623082,-0.006836,0.008484,-0.990051,0.236122,0.478168,-0.115725,49,277,575,6224
1644184539.671441,-0.007324,0.012146,-0.990295,0.144519,0.233893,-0.085191,53,283,573,6160
1644184539.719839,-0.006958,0.009583,-0.990479,0.037649,0.310229,0.113282,58,279,590,6224
1644184539.768227,-0.007263,0.010437,-0.991577,0.068183,0.417099,-0.207328,54,280,586,6224
1644184539.816677,-0.009521,0.009094,-0.989136,0.251389,0.523969,-0.069924,53,283,573,6256
1644184539.865097,-0.00946,0.007874,-0.991028,0.08345,0.325496,0.021679,52,270,582,6224
1644184539.913439,-0.010193,0.006531,-0.99115,0.144519,0.356031,0.006412,51,271,590,6288
1644184539.961827,-0.01062,0.00769,-0.988892,0.190321,0.462901,-0.085191,33,273,589,6288
1644184540.010231,-0.008301,0.008362,-0.99176,0.08345,0.386565,-0.176794,51,271,590,6176
1644184540.106929,-0.007263,0.013184,-0.98999,0.129252,0.356031,-0.192061,54,273,593,6240
1644184540.155341,-0.008667,0.010193,-0.991211,0.098718,0.325496,0.082748,54,277,586,6256
1644184540.203768,-0.009094,0.009277,-0.989929,0.190321,0.478168,-0.054656,48,276,571,6176
1644184540.252281,-0.008728,0.008484,-0.993164,0.159786,0.432366,0.006412,47,277,584,6176
1644184540.300527,-0.011047,0.008301,-0.991211,0.373527,0.264427,-0.161527,43,271,580,6224
1644184540.348942,-0.008789,0.007019,-0.994324,0.190321,0.478168,-0.115725,57,275,582,6224
1644184540.397337,-0.009094,0.010254,-0.990723,0.205588,0.340763,-0.100458,48,274,576,6224
1644184540.445721,-0.008667,0.013245,-0.992676,0.190321,0.432366,0.006412,49,268,589,6224
1644184540.494106,-0.008423,0.011597,-0.985901,0.007115,0.386565,-0.161527,58,274,583,6192
1644184540.542516,-0.007141,0.010254,-0.98761,0.175053,0.340763,-0.100458,52,285,584,6224
1644184540.590906,-0.009338,0.009583,-0.992004,0.190321,0.340763,-0.024122,53,271,587,6160
1644184540.639303,-0.008606,0.008118,-0.993286,0.419328,0.478168,-0.085191,59,270,584,6128
1644184540.68769,-0.008423,0.006897,-0.993347,0.312458,0.340763,-0.130992,43,266,583,6192
1644184540.736089,-0.010559,0.008301,-0.990356,0.129252,0.432366,0.082748,52,280,596,6192
1644184540.784481,-0.008606,0.009155,-0.992004,0.266656,0.340763,-0.024122,51,269,576,6192
1644184540.834624,-0.007812,0.012024,-0.991394,0.281924,0.478168,-0.115725,51,286,583,6224
1644184540.884527,-0.010132,0.010559,-0.990662,0.220855,0.417099,-0.069924,45,287,584,6224
1644184540.934778,-0.008972,0.00708,-0.990967,0.190321,0.462901,-0.069924,55,276,578,6160
1644184540.979141,-0.007202,0.009644,-0.99231,0.129252,0.447634,-0.115725,51,276,578,6176
1644184541.074971,-0.007385,0.009888,-0.991455,0.144519,0.508702,0.036947,51,281,590,6176
1644184541.123258,-0.012878,0.008972,-0.992126,0.129252,0.508702,0.082748,48,276,580,6192
1644184541.171613,-0.01062,0.008484,-0.993713,0.144519,0.417099,-0.14626,51,281,573,6224
1644184541.220003,-0.00415,0.010071,-0.991516,0.220855,0.356031,-0.192061,46,266,573,6160
1644184541.268394,-0.012268,0.007996,-0.990601,0.236122,0.432366,0.006412,55,269,587,6224
1644184541.316771,-0.012695,0.009277,-0.990295,0.404061,0.264427,-0.008855,47,282,584,6192
1644184541.365174,-0.005981,0.010254,-0.99231,0.266656,0.432366,-0.054656,51,269,578,6224
1644184541.413582,-0.009155,0.009399,-0.993042,0.08345,0.432366,-0.314198,61,277,582,6192
1644184541.461955,-0.009766,0.01178,-0.992615,0.098718,0.386565,-0.100458,48,283,592,6192
1644184541.510345,-0.006287,0.010742,-0.993958,0.190321,0.294962,0.052214,59,275,586,6256
1644184541.558771,-0.009827,0.009949,-0.99176,0.297191,0.417099,0.006412,46,274,583,6240
1644184541.607155,-0.008179,0.009155,-0.990601,0.175053,0.386565,-0.283664,47,273,579,6176
1644184541.655554,-0.008606,0.006226,-0.993225,0.144519,0.279695,0.021679,57,275,584,6128
1644184541.703959,-0.007568,0.010315,-0.991394,0.251389,0.523969,-0.024122,41,279,583,6192
1644184541.752354,-0.008484,0.012146,-0.993713,0.281924,0.432366,-0.14626,55,281,585,6240
1644184541.800724,-0.005615,0.009216,-0.993713,0.266656,0.386565,-0.100458,46,276,592,6128
1644184541.849149,-0.007874,0.008728,-0.992126,0.159786,0.478168,-0.008855,49,273,589,6224
1644184541.89759,-0.00824,0.010315,-0.994019,0.205588,0.508702,-0.069924,49,282,589,6160
1644184541.945943,-0.011108,0.008667,-0.991333,0.281924,0.371298,0.052214,48,281,583,6160
1644184541.995854,-0.00415,0.010681,-0.991211,0.175053,0.478168,-0.069924,46,276,592,6224
1644184542.057785,-0.006775,0.008423,-0.987915,0.190321,0.386565,-0.130992,39,283,585,6224
1644184542.101616,-0.008606,0.010315,-0.992249,0.113985,0.569771,-0.054656,51,269,592,6224
1644184542.140903,-0.007202,0.009583,-0.990906,0.342992,0.371298,-0.130992,52,290,579,6192
1644184542.236246,-0.008728,0.009216,-0.991028,0.159786,0.508702,0.052214,38,273,582,6160
1644184542.284859,-0.009644,0.00824,-0.990356,0.190321,0.478168,-0.100458,49,275,575,6192
1644184542.33306,-0.010742,0.007324,-0.991211,0.404061,0.462901,-0.039389,36,264,583,6176
1644184542.381422,-0.006836,0.011108,-0.991272,0.35826,0.340763,-0.25313,57,275,589,6128
1644184542.429826,-0.006226,0.011169,-0.992554,0.175053,0.447634,-0.176794,49,273,591,6176
1644184542.478219,-0.010193,0.011536,-0.991699,0.297191,0.417099,-0.024122,51,276,580,6176
1644184542.526619,-0.00946,0.01001,-0.993225,0.35826,0.523969,-0.039389,53,274,587,6256
1644184542.57509,-0.008484,0.008179,-0.995483,0.159786,0.493435,-0.130992,48,269,590,6128
1644184542.623411,-0.009521,0.009583,-0.993286,0.251389,0.325496,-0.039389,45,277,575,6256
1644184542.671804,-0.010742,0.008118,-0.988953,0.251389,0.508702,-0.115725,47,268,584,6112
1644184542.720198,-0.009399,0.009827,-0.99115,0.236122,0.417099,-0.085191,47,277,575,6192
1644184542.768569,-0.009338,0.006836,-0.990845,0.190321,0.264427,-0.115725,40,270,577,6224
1644184542.816974,-0.009338,0.008911,-0.993042,0.266656,0.401832,-0.069924,40,275,586,6224
1644184542.865394,-0.009949,0.00824,-0.989685,0.205588,0.401832,0.006412,60,271,590,6224
1644184542.913804,-0.007507,0.007812,-0.993286,0.175053,0.401832,-0.192061,35,282,582,6224
1644184542.962229,-0.007019,0.013306,-0.990845,0.190321,0.356031,-0.054656,62,274,587,6240
1644184543.010591,-0.009033,0.010376,-0.991272,0.098718,0.478168,-0.085191,54,277,586,6176
1644184543.073487,-0.006897,0.009155,-0.990234,0.297191,0.585038,-0.024122,53,269,585,6176
1644184543.10984,-0.007019,0.010315,-0.992981,0.297191,0.340763,0.021679,51,269,590,6256
1644184543.157801,-0.008911,0.00885,-0.988159,0.342992,0.325496,0.036947,51,274,583,6224
1644184543.206466,-0.007996,0.00885,-0.992249,0.266656,0.417099,-0.130992,59,275,589,6224
1644184543.2566,-0.006653,0.010132,-0.991699,0.236122,0.356031,-0.130992,51,271,583,6160
1644184543.30165,-0.012268,0.009155,-0.99115,0.175053,0.386565,-0.115725,51,269,578,6192
1644184543.397678,-0.010742,0.010925,-0.989502,0.281924,0.386565,-0.039389,46,276,580,6192
1644184543.44607,-0.007324,0.012085,-0.989014,0.144519,0.386565,-0.14626,54,270,584,6128
1644184543.494467,-0.006531,0.010742,-0.992676,0.175053,0.417099,-0.054656,47,275,586,6192
1644184543.542888,-0.005188,0.010376,-0.992371,0.220855,0.462901,-0.085191,49,275,577,6160
1644184543.591256,-0.006531,0.009949,-0.993042,0.205588,0.585038,-0.115725,58,274,578,6240
1644184543.639645,-0.009033,0.010193,-0.99054,-0.02342,0.401832,0.067481,55,281,573,6176
1644184543.688048,-0.009521,0.007874,-0.993591,0.098718,0.356031,-0.039389,47,275,579,6192
1644184543.736445,-0.00946,0.010437,-0.992126,0.205588,0.417099,-0.085191,52,275,586,6224
1644184543.784828,-0.009705,0.009705,-0.990417,0.098718,0.523969,-0.115725,53,276,583,6160
1644184543.833224,-0.007874,0.011475,-0.993347,0.190321,0.310229,-0.054656,45,282,577,6160
1644184543.881633,-0.005493,0.006531,-0.989563,0.251389,0.478168,-0.14626,59,280,582,6192
1644184543.930062,-0.00824,0.010254,-0.993652,0.190321,0.371298,-0.115725,45,275,593,6192
1644184543.978448,-0.009521,0.008972,-0.991211,0.281924,0.325496,-0.054656,55,269,585,6160
1644184544.026841,-0.008118,0.010132,-0.99176,0.35826,0.523969,-0.039389,61,282,584,6192
1644184544.091847,-0.006958,0.008606,-0.994141,0.175053,0.417099,0.006412,53,271,580,6128
1644184544.124283,-0.009277,0.008484,-0.992798,0.159786,0.493435,0.067481,49,277,584,6224
1644184544.17451,-0.005798,0.005798,-0.993164,0.022382,0.340763,-0.207328,52,268,589,6192
1644184544.223829,-0.010986,0.009949,-0.99115,0.205588,0.356031,-0.085191,55,266,585,6240
1644184544.268947,-0.010437,0.009583,-0.990356,0.251389,0.417099,-0.115725,45,290,582,6128
1644184544.365538,-0.009033,0.013123,-0.990845,0.220855,0.325496,-0.207328,45,275,584,6224
1644184544.413954,-0.008301,0.010315,-0.993896,0.220855,0.447634,-0.008855,52,273,582,6240
1644184544.462406,-0.007935,0.009277,-0.99176,0.129252,0.356031,-0.008855,49,280,577,6192
1644184544.510716,-0.003601,0.007874,-0.988098,0.236122,0.310229,-0.192061,51,276,576,6128
1644184544.559136,-0.008972,0.010742,-0.992615,0.205588,0.447634,0.006412,45,287,593,6192
1644184544.607505,-0.010315,0.011719,-0.990173,0.434595,0.401832,-0.207328,51,276,583,6240
1644184544.655911,-0.005981,0.009216,-0.99115,0.220855,0.447634,-0.024122,57,270,584,6224
1644184544.704306,-0.008667,0.011292,-0.992615,0.220855,0.447634,-0.115725,52,270,582,6224
1644184544.752686,-0.010681,0.008911,-0.991028,0.236122,0.401832,-0.207328,52,277,575,6224
1644184544.801082,-0.008545,0.009033,-0.990845,0.312458,0.340763,0.021679,42,277,591,6240
1644184544.849484,-0.006958,0.011292,-0.991638,0.175053,0.157557,-0.14626,41,264,580,6192
1644184544.897887,-0.008179,0.010437,-0.994202,0.297191,0.279695,-0.069924,53,266,580,6176
1644184544.946295,-0.008911,0.007446,-0.99176,0.373527,0.371298,-0.008855,54,277,575,6224
1644184544.994699,-0.007324,0.007629,-0.990662,0.129252,0.310229,-0.039389,57,273,586,6176
1644184545.043122,-0.007568,0.010803,-0.990112,0.190321,0.493435,-0.085191,51,281,578,6224
1644184545.093723,-0.007751,0.011169,-0.991699,0.342992,0.310229,-0.130992,41,276,580,6176
1644184545.13985,-0.004333,0.011047,-0.991821,0.037649,0.478168,-0.054656,46,274,578,6256
1644184545.188235,-0.007751,0.00946,-0.994019,0.113985,0.310229,-0.222595,48,274,592,6128
1644184545.23668,-0.007812,0.009583,-0.992798,0.190321,0.523969,-0.054656,49,260,584,6192
1644184545.286093,-0.00769,0.011414,-0.989746,0.205588,0.539237,-0.161527,51,286,585,6240
1644184545.336284,-0.006348,0.010559,-0.989868,0.144519,0.294962,-0.054656,47,270,575,6240
1644184545.386983,-0.00885,0.008789,-0.992126,0.068183,0.310229,-0.069924,41,274,585,6224
1644184545.4313,-0.008179,0.008606,-0.990723,0.251389,0.371298,-0.130992,59,282,589,6224
1644184545.527022,-0.009583,0.010254,-0.992126,0.205588,0.462901,-0.14626,53,279,585,6176
1644184545.575493,-0.008667,0.010437,-0.993896,0.35826,0.279695,-0.008855,40,277,584,6128
1644184545.623802,-0.007141,0.010742,-0.991089,0.098718,0.523969,0.036947,43,279,580,6160
1644184545.672398,-0.008484,0.010742,-0.98999,0.373527,0.539237,-0.268397,52,287,579,6224
1644184545.72056,-0.007446,0.010681,-0.991211,0.08345,0.386565,-0.14626,41,281,580,6192
1644184545.768984,-0.011597,0.010559,-0.994812,0.220855,0.417099,-0.176794,47,268,584,6240
1644184545.817373,-0.007385,0.008972,-0.993042,0.266656,0.386565,-0.100458,57,277,575,6224
1644184545.865772,-0.007874,0.007629,-0.992737,0.144519,0.432366,-0.14626,52,282,579,6176
1644184545.91417,-0.009216,0.007568,-0.993103,0.327725,0.523969,-0.192061,52,280,577,6192
1644184545.962579,-0.009094,0.007019,-0.993225,0.08345,0.462901,-0.100458,47,280,579,6176
1644184546.010923,-0.00885,0.011719,-0.99292,0.205588,0.294962,-0.375267,47,280,577,6240
1644184546.061495,-0.010681,0.008301,-0.990601,0.205588,0.310229,-0.130992,47,273,589,6176
1644184546.107715,-0.009033,0.012695,-0.990234,0.098718,0.356031,-0.192061,47,277,586,6176
1644184546.156086,-0.007385,0.010986,-0.990723,0.144519,0.508702,-0.207328,57,290,589,6192
1644184546.204487,-0.009216,0.010132,-0.990356,0.312458,0.523969,-0.069924,51,269,585,6224
1644184546.252851,-0.009949,0.007446,-0.99292,0.251389,0.340763,-0.14626,51,276,583,6224
1644184546.301254,-0.008423,0.009583,-0.989746,0.220855,0.386565,-0.192061,46,274,585,6176
1644184546.34965,-0.008728,0.008484,-0.99231,0.205588,0.432366,-0.085191,48,274,594,6224
1644184546.398059,-0.007629,0.010132,-0.98938,0.175053,0.325496,-0.161527,57,287,577,6224
1644184546.446895,-0.008972,0.01123,-0.991028,0.266656,0.523969,-0.130992,52,285,593,6240
1644184546.497855,-0.009338,0.008728,-0.991943,0.236122,0.447634,-0.192061,45,273,582,6224
1644184546.548064,-0.009155,0.01178,-0.990356,0.175053,0.401832,0.067481,36,271,578,6256
1644184546.592574,-0.009399,0.01062,-0.993042,0.190321,0.325496,0.052214,51,276,585,6224
1644184546.6884,-0.005798,0.007446,-0.992188,0.373527,0.478168,-0.069924,46,286,573,6192
1644184546.736779,-0.008179,0.011597,-0.990112,0.190321,0.310229,-0.008855,53,269,580,6176
1644184546.785383,-0.009338,0.012573,-0.992371,0.129252,0.462901,-0.100458,51,276,580,6240
1644184546.833624,-0.007935,0.013489,-0.990845,0.205588,0.310229,0.082748,46,281,590,6176
1644184546.882023,-0.00824,0.010071,-0.991333,0.281924,0.356031,-0.161527,48,276,585,6128
1644184546.930396,-0.009155,0.00885,-0.990662,0.098718,0.432366,0.006412,55,274,571,6256
1644184546.97881,-0.005859,0.00946,-0.991943,0.327725,0.478168,-0.024122,53,274,571,6192
1644184547.027204,-0.008667,0.007446,-0.989197,0.281924,0.539237,-0.024122,45,280,586,6192
1644184547.08536,-0.006104,0.012207,-0.990479,0.312458,0.493435,-0.14626,48,271,585,6128
1644184547.123955,-0.005859,0.00946,-0.988953,0.266656,0.508702,-0.161527,59,277,589,6192
1644184547.172366,-0.007446,0.008667,-0.991516,0.220855,0.279695,-0.054656,51,276,580,6128
1644184547.220724,-0.010925,0.010132,-0.989075,0.281924,0.279695,-0.039389,46,271,580,6176
1644184547.269129,-0.010193,0.00885,-0.992249,0.312458,0.264427,-0.268397,52,287,579,6224
1644184547.317528,-0.006042,0.008545,-0.992188,0.052916,0.478168,0.036947,43,274,580,6128
1644184547.365907,-0.007141,0.008972,-0.990479,0.342992,0.417099,-0.222595,55,266,590,6240
1644184547.414304,-0.009155,0.009155,-0.992371,0.297191,0.356031,-0.115725,53,269,580,6192
1644184547.462713,-0.008179,0.009399,-0.990906,0.175053,0.371298,-0.314198,54,277,593,6176
1644184547.511081,-0.007812,0.009705,-0.990845,0.159786,0.447634,-0.25313,42,280,593,6224
1644184547.559521,-0.006409,0.009705,-0.990723,0.175053,0.386565,-0.14626,48,271,590,6240
1644184547.609677,-0.009583,0.009399,-0.993103,0.205588,0.401832,-0.115725,53,271,583,6224
1644184547.659903,-0.008728,0.009338,-0.990662,0.327725,0.508702,-0.14626,43,274,576,6224
1644184547.704715,-0.009705,0.009155,-0.993042,0.251389,0.401832,0.006412,46,269,576,6176
1644184547.801448,-0.012146,0.008667,-0.990601,0.205588,0.462901,-0.161527,60,269,578,6160
1644184547.849881,-0.010376,0.010376,-0.992615,0.35826,0.478168,-0.115725,60,271,580,6224
1644184547.898282,-0.006592,0.011169,-0.991516,0.220855,0.432366,-0.069924,49,282,579,6240
1644184547.946663,-0.00647,0.009399,-0.98999,0.205588,0.417099,-0.054656,54,268,586,6192
1644184547.99509,-0.006653,0.011047,-0.992188,0.236122,0.386565,-0.100458,40,275,584,6224
1644184548.043458,-0.009949,0.011963,-0.992004,0.113985,0.371298,-0.069924,51,276,585,6224
1644184548.091881,-0.009399,0.006897,-0.989441,0.297191,0.401832,-0.024122,53,269,578,6224
1644184548.140195,-0.011169,0.009949,-0.993774,0.388794,0.386565,-0.039389,58,271,587,6240
1644184548.188582,-0.009155,0.009033,-0.991272,0.266656,0.325496,0.036947,51,264,576,6192
1644184548.236938,-0.009766,0.008789,-0.99054,0.266656,0.371298,-0.039389,51,279,590,6128
1644184548.285382,-0.011353,0.010315,-0.989136,0.129252,0.432366,-0.085191,55,279,578,6240
1644184548.333776,-0.008972,0.010437,-0.990723,0.373527,0.356031,-0.161527,43,271,590,6176
1644184548.38218,-0.010193,0.011292,-0.992493,0.312458,0.478168,-0.115725,34,276,587,6224
1644184548.430552,-0.009766,0.010925,-0.994019,0.190321,0.493435,-0.176794,62,279,578,6176
1644184548.478936,-0.011353,0.010193,-0.989014,0.266656,0.356031,-0.14626,52,277,577,6176
1644184548.52767,-0.007874,0.008362,-0.992065,0.08345,0.371298,-0.207328,48,281,580,6192
1644184548.578336,-0.010925,0.012329,-0.989197,0.251389,0.356031,0.021679,48,281,592,6240
1644184548.628276,-0.010681,0.00946,-0.99115,0.205588,0.417099,-0.115725,45,268,572,6176
1644184548.673376,-0.007935,0.008179,-0.989319,0.159786,0.386565,0.006412,39,276,578,6128
1644184548.769292,-0.007385,0.01001,-0.990234,0.129252,0.523969,-0.14626,53,276,583,6128
1644184548.817676,-0.007568,0.013855,-0.989563,0.236122,0.417099,-0.14626,53,286,583,6192
1644184548.866103,-0.00885,0.011475,-0.990051,0.251389,0.508702,-0.130992,45,285,586,6192
1644184548.914529,-0.007263,0.008057,-0.990784,0.205588,0.585038,-0.054656,45,275,582,6128
1644184548.962924,-0.011841,0.011841,-0.993408,0.205588,0.386565,-0.298931,43,279,580,6224
1644184549.011304,-0.010559,0.009705,-0.988892,0.266656,0.447634,-0.024122,59,277,582,6176
1644184549.066925,-0.007507,0.012146,-0.991699,0.144519,0.539237,-0.100458,46,276,590,6224
1644184549.108051,-0.008972,0.011963,-0.989014,0.129252,0.340763,0.082748,47,265,584,6224
1644184549.156437,-0.009033,0.010742,-0.991882,0.007115,0.386565,-0.14626,49,285,579,6224
1644184549.204844,-0.007141,0.011475,-0.988953,0.312458,0.340763,-0.192061,47,275,577,6128
1644184549.253245,-0.009277,0.012451,-0.988342,0.175053,0.432366,-0.161527,40,270,577,6224
1644184549.301627,-0.006775,0.009277,-0.991089,0.205588,0.340763,-0.024122,46,283,576,6256
1644184549.350021,-0.007812,0.008667,-0.99054,0.327725,0.432366,-0.100458,58,269,576,6192
1644184549.398419,-0.00824,0.007141,-0.990479,0.266656,0.417099,0.098015,49,287,577,6224
1644184549.446801,-0.007446,0.009949,-0.992004,0.220855,0.417099,0.067481,52,273,593,6192
1644184549.49528,-0.011353,0.012268,-0.992004,0.281924,0.462901,-0.100458,52,280,572,6192
1644184549.543596,-0.008728,0.010437,-0.99115,0.312458,0.371298,0.067481,47,277,591,6224
1644184549.591983,-0.01001,0.007568,-0.990967,0.098718,0.325496,-0.069924,46,281,590,6192
1644184549.64037,-0.009644,0.010315,-0.990906,0.236122,0.371298,-0.100458,57,280,596,6224
1644184549.689049,-0.00946,0.012207,-0.989685,0.205588,0.447634,0.006412,51,281,564,6240
1644184549.739326,-0.008911,0.008484,-0.993103,0.159786,0.432366,-0.024122,41,283,583,6176
1644184549.789719,-0.008057,0.008728,-0.991882,0.236122,0.432366,-0.039389,47,273,579,6160
1644184549.835011,-0.008972,0.01062,-0.991516,0.144519,0.356031,-0.130992,40,270,575,6240
1644184549.930752,-0.010071,0.009277,-0.991943,0.220855,0.417099,-0.161527,51,271,583,6128
1644184549.979159,-0.009033,0.01062,-0.991638,0.251389,0.447634,-0.207328,51,276,580,6224
1644184550.027536,-0.008545,0.01062,-0.990173,0.159786,0.218626,-0.161527,49,268,584,6240
1644184550.079634,-0.006592,0.010498,-0.990234,0.144519,0.294962,-0.14626,49,275,579,6160
1644184550.124326,-0.007568,0.008179,-0.991699,0.175053,0.523969,-0.14626,52,268,577,6224
1644184550.172706,-0.007629,0.00824,-0.992004,0.190321,0.447634,-0.161527,48,279,573,6160
1644184550.221088,-0.008972,0.010071,-0.990662,0.266656,0.493435,-0.115725,42,277,579,6240
1644184550.269465,-0.010254,0.009827,-0.991821,0.236122,0.462901,-0.100458,51,286,583,6176
1644184550.317862,-0.01355,0.009583,-0.992798,0.327725,0.493435,-0.069924,51,274,578,6192
1644184550.366274,-0.008545,0.009644,-0.989685,0.113985,0.356031,-0.069924,42,275,579,6224
1644184550.414715,-0.008179,0.008606,-0.991455,0.220855,0.493435,-0.100458,47,268,586,6192
1644184550.463071,-0.01123,0.007141,-0.990051,0.35826,0.386565,-0.314198,53,281,585,6240
1644184550.511463,-0.008362,0.011841,-0.992432,0.175053,0.310229,-0.130992,55,279,587,6192
1644184550.559825,-0.011169,0.008118,-0.995789,0.327725,0.203359,-0.115725,51,279,583,6224
1644184550.608229,-0.009644,0.009155,-0.992249,0.251389,0.432366,-0.192061,48,283,585,6240
1644184550.656627,-0.009583,0.006714,-0.993225,0.205588,0.447634,-0.192061,60,279,587,6160
1644184550.705051,-0.010925,0.007751,-0.990417,0.281924,0.554504,-0.237863,51,271,590,6224
1644184550.753392,-0.007629,0.011108,-0.990234,0.312458,0.386565,-0.14626,64,287,584,6240
1644184550.801818,-0.01123,0.01178,-0.991699,0.327725,0.401832,-0.130992,54,270,589,6176
1644184550.852224,-0.010193,0.01062,-0.991272,0.129252,0.310229,-0.192061,48,271,582,6176
1644184550.901994,-0.010132,0.008911,-0.994141,0.236122,0.523969,-0.085191,46,274,580,6160
1644184550.952444,-0.005798,0.007446,-0.991455,0.129252,0.569771,-0.161527,52,273,577,6160
1644184550.996686,-0.00946,0.008057,-0.992798,0.251389,0.493435,-0.207328,54,273,582,6128
1644184551.09235,-0.008484,0.008545,-0.990601,0.312458,0.493435,0.036947,45,282,582,6160
1644184551.140589,-0.009827,0.01178,-0.990967,0.35826,0.386565,-0.14626,43,271,585,6176
1644184551.188935,-0.009766,0.007019,-0.990906,0.159786,0.371298,-0.130992,58,271,583,6192
1644184551.237334,-0.007874,0.012878,-0.994202,0.175053,0.462901,-0.14626,57,270,586,6192
1644184551.285732,-0.007446,0.011169,-0.991089,0.266656,0.340763,0.052214,52,277,591,6224
1644184551.334134,-0.007507,0.007996,-0.992615,0.266656,0.432366,-0.085191,40,280,582,6192
1644184551.382511,-0.008484,0.010315,-0.990112,0.251389,0.279695,-0.14626,46,271,583,6176
1644184551.430911,-0.009399,0.011169,-0.991943,0.434595,0.386565,-0.039389,49,285,579,6240
1644184551.479309,-0.011292,0.009338,-0.992737,0.205588,0.386565,-0.039389,52,277,584,6176
1644184551.527712,-0.010071,0.009094,-0.991882,0.175053,0.417099,-0.008855,48,283,583,6176
1644184551.576091,-0.010437,0.00946,-0.990601,0.190321,0.386565,-0.085191,45,282,582,6160
1644184551.62449,-0.01123,0.010559,-0.992371,0.159786,0.432366,-0.024122,42,275,582,6128
1644184551.67287,-0.00647,0.006836,-0.992554,0.220855,0.279695,-0.100458,54,280,579,6160
1644184551.721271,-0.007629,0.007751,-0.993591,0.175053,0.24916,-0.100458,41,281,585,6224
1644184551.76966,-0.009216,0.01123,-0.98999,0.205588,0.539237,0.021679,45,285,596,6240
1644184551.818059,-0.007202,0.007141,-0.991577,0.113985,0.356031,-0.054656,53,271,590,6192
1644184551.866487,-0.00946,0.008301,-0.992371,0.266656,0.386565,-0.176794,49,280,586,6192
1644184551.914901,-0.010437,0.00647,-0.994446,0.190321,0.401832,0.052214,46,276,580,6224
1644184551.963287,-0.007874,0.011414,-0.991394,0.205588,0.585038,-0.100458,52,277,586,6176
1644184552.012755,-0.009705,0.011292,-0.993164,0.037649,0.432366,-0.14626,49,277,591,6160
1644184552.108501,-0.010437,0.008911,-0.994934,0.251389,0.356031,0.021679,43,279,587,6176
1644184552.156816,-0.00824,0.009644,-0.994324,0.098718,0.386565,-0.207328,41,266,578,6240
1644184552.205394,-0.007812,0.011047,-0.99115,0.144519,0.462901,0.021679,46,276,585,6240
1644184552.253583,-0.008423,0.011108,-0.989807,0.205588,0.447634,-0.039389,42,280,584,6176
1644184552.302045,-0.008789,0.012451,-0.99054,0.281924,0.462901,-0.161527,49,270,584,6224
1644184552.350374,-0.01178,0.008972,-0.988647,0.159786,0.325496,-0.054656,47,277,582,6256
1644184552.398762,-0.008179,0.011902,-0.995056,0.297191,0.371298,-0.100458,52,268,582,6112
1644184552.447155,-0.010681,0.011597,-0.98761,0.098718,0.539237,-0.069924,54,275,584,6256
1644184552.495531,-0.007263,0.009155,-0.990906,0.236122,0.325496,-0.115725,43,276,587,6224
1644184552.543962,-0.008789,0.00946,-0.98877,0.251389,0.478168,-0.039389,57,277,586,6128
1644184552.592345,-0.009888,0.009949,-0.990479,0.159786,0.585038,-0.207328,40,287,589,6160
1644184552.640723,-0.008911,0.008606,-0.991028,0.098718,0.340763,-0.237863,52,270,577,6240
1644184552.689108,-0.009338,0.007019,-0.990662,0.159786,0.386565,-0.085191,49,280,586,6192
1644184552.737524,-0.010803,0.010315,-0.990784,0.159786,0.478168,-0.115725,39,279,585,6176
1644184552.785913,-0.007446,0.009888,-0.991699,0.205588,0.310229,-0.024122,59,280,575,6224
1644184552.834312,-0.006226,0.010742,-0.991089,0.175053,0.462901,-0.085191,41,274,590,6224
1644184552.882771,-0.012573,0.010376,-0.992798,0.190321,0.432366,-0.085191,51,281,587,6192
1644184552.931182,-0.005493,0.007324,-0.992737,0.266656,0.340763,-0.115725,43,269,585,6224
1644184552.979548,-0.006836,0.010132,-0.992432,0.068183,0.386565,-0.176794,46,283,583,6224
1644184553.029192,-0.008057,0.008667,-0.991638,0.297191,0.462901,-0.008855,47,273,586,6192
1644184553.085835,-0.009338,0.007874,-0.99353,0.312458,0.356031,0.082748,49,280,591,6176
1644184553.130525,-0.011536,0.009094,-0.990784,0.251389,0.447634,-0.039389,45,273,586,6240
1644184553.17435,-0.008789,0.01062,-0.990906,0.266656,0.508702,-0.14626,51,274,583,6224
1644184553.26988,-0.011536,0.010132,-0.991333,0.266656,0.233893,-0.192061,52,282,586,6176
1644184553.318261,-0.008423,0.010986,-0.993774,0.08345,0.462901,-0.14626,59,280,579,6176
1644184553.366661,-0.007507,0.008728,-0.990967,0.159786,0.294962,-0.024122,51,271,578,6176
1644184553.415112,-0.008789,0.009949,-0.990295,0.113985,0.432366,0.067481,45,275,579,6224
1644184553.463471,-0.009033,0.011536,-0.990723,0.190321,0.569771,-0.069924,54,285,586,6160
1644184553.511859,-0.007996,0.010803,-0.990784,0.175053,0.310229,-0.14626,54,280,586,6192
1644184553.560221,-0.006409,0.007812,-0.990784,0.129252,0.478168,-0.100458,42,275,579,6224
1644184553.608633,-0.010803,0.010315,-0.993652,0.113985,0.417099,-0.192061,47,282,584,6288
1644184553.657026,-0.009155,0.010193,-0.992554,0.419328,0.325496,-0.085191,29,283,580,6224
1644184553.705416,-0.00885,0.008972,-0.991028,0.205588,0.356031,-0.085191,52,265,584,6160
1644184553.753828,-0.010071,0.010071,-0.991394,0.236122,0.401832,0.067481,49,282,577,6176
1644184553.802253,-0.010254,0.010742,-0.994141,0.175053,0.386565,-0.192061,48,283,580,6160
1644184553.850602,-0.010376,0.007935,-0.98938,0.297191,0.264427,-0.161527,47,275,589,6160
1644184553.898991,-0.006348,0.007324,-0.993652,0.281924,0.462901,-0.054656,61,280,586,6224
1644184553.947386,-0.008728,0.008972,-0.989685,-0.02342,0.386565,-0.14626,58,283,573,6224
1644184553.995772,-0.008118,0.008301,-0.993652,0.144519,0.356031,-0.085191,41,283,587,6224
1644184554.044179,-0.008545,0.010864,-0.991516,0.281924,0.432366,-0.024122,46,286,583,6224
1644184554.096469,-0.011047,0.009155,-0.993469,0.175053,0.386565,-0.115725,47,287,584,6224
1644184554.141495,-0.008972,0.006287,-0.99176,0.404061,0.401832,-0.100458,53,276,590,6176
1644184554.191804,-0.005798,0.01123,-0.992737,0.327725,0.325496,-0.14626,51,274,583,6224
1644184554.241894,-0.008179,0.009949,-0.992249,0.175053,0.371298,0.036947,47,268,579,6256
1644184554.287,-0.009094,0.00824,-0.994995,0.098718,0.493435,-0.054656,45,268,575,6160
1644184554.382895,-0.010254,0.009644,-0.990173,0.312458,0.279695,0.036947,49,287,579,6240
1644184554.431278,-0.005249,0.010681,-0.990051,0.113985,0.371298,-0.069924,42,273,591,6192
1644184554.479662,-0.006653,0.009705,-0.992004,0.281924,0.447634,-0.115725,43,274,587,6192
1644184554.528051,-0.011353,0.007446,-0.98877,0.236122,0.279695,-0.25313,53,276,583,6224
1644184554.576446,-0.007629,0.010254,-0.991394,0.205588,0.371298,-0.069924,46,288,585,6224
1644184554.624866,-0.008301,0.009033,-0.992493,0.266656,0.569771,-0.039389,43,271,580,6160
1644184554.673242,-0.010254,0.008301,-0.995117,0.205588,0.371298,-0.222595,45,277,586,6240
1644184554.721615,-0.008118,0.010193,-0.992371,0.297191,0.493435,0.052214,49,280,577,6224
1644184554.770034,-0.007141,0.009705,-0.990417,0.144519,0.401832,-0.130992,49,280,577,6192
1644184554.818475,-0.009949,0.008911,-0.990173,0.190321,0.356031,-0.115725,49,265,589,6224
1644184554.866863,-0.008911,0.008484,-0.988892,0.266656,0.432366,-0.085191,53,276,590,6112
1644184554.915337,-0.008423,0.009644,-0.991943,0.281924,0.478168,-0.100458,52,277,575,6192
1644184554.963617,-0.008667,0.014465,-0.990051,0.205588,0.325496,-0.100458,49,270,589,6224
1644184555.011997,-0.008545,0.011047,-0.991943,0.144519,0.554504,-0.024122,51,271,585,6128
1644184555.066228,-0.007751,0.009399,-0.99292,0.159786,0.325496,-0.161527,52,280,586,6176
1644184555.10875,-0.009644,0.011475,-0.990234,0.190321,0.325496,-0.008855,48,276,585,6192
1644184555.157167,-0.007446,0.008728,-0.990662,0.190321,0.447634,-0.069924,46,279,583,6224
1644184555.205562,-0.008972,0.008179,-0.991577,0.220855,0.462901,0.174351,46,283,583,6224
1644184555.253961,-0.005676,0.009216,-0.991577,0.327725,0.356031,-0.192061,46,271,590,6240
1644184555.302918,-0.009888,0.010986,-0.993713,0.144519,0.279695,-0.115725,55,271,585,6176
1644184555.3531,-0.009399,0.008423,-0.99054,0.236122,0.340763,-0.115725,42,273,582,6224
1644184555.403498,-0.008484,0.010254,-0.991089,0.113985,0.294962,-0.344733,43,276,578,6176
1644184555.448571,-0.008972,0.009705,-0.992371,0.35826,0.294962,-0.008855,43,281,578,6224
1644184555.544317,-0.008423,0.007507,-0.989624,0.175053,0.401832,-0.085191,55,276,580,6240
1644184555.592685,-0.009216,0.01123,-0.989807,0.159786,0.478168,-0.161527,53,271,576,6160
1644184555.6411,-0.00824,0.00885,-0.994934,0.266656,0.432366,-0.024122,48,288,585,6176
1644184555.689482,-0.006409,0.010376,-0.990356,0.342992,0.539237,-0.054656,52,273,593,6224
1644184555.737888,-0.010437,0.008789,-0.991272,0.297191,0.417099,-0.024122,43,279,580,6240
1644184555.78627,-0.009338,0.009521,-0.993103,0.098718,0.310229,-0.039389,46,279,580,6224
1644184555.834729,-0.006775,0.011108,-0.992737,0.251389,0.478168,-0.130992,49,270,582,6192
1644184555.883105,-0.00885,0.010315,-0.991028,0.08345,0.371298,-0.176794,48,269,580,6160
1644184555.931503,-0.008362,0.009521,-0.992981,0.281924,0.310229,-0.024122,36,286,578,6160
1644184555.979878,-0.008545,0.010437,-0.992676,0.236122,0.417099,-0.039389,57,282,582,6160
1644184556.028279,-0.006226,0.010803,-0.990417,0.159786,0.371298,-0.054656,47,280,582,6128
1644184556.094861,-0.009949,0.009033,-0.990417,0.266656,0.294962,-0.14626,47,280,584,6256
1644184556.125079,-0.007751,0.010132,-0.988953,0.144519,0.417099,-0.268397,52,270,591,6176
1644184556.173713,-0.01062,0.011536,-0.991394,0.052916,0.233893,0.082748,43,279,578,6192
1644184556.222639,-0.009216,0.007751,-0.99115,0.251389,0.417099,-0.085191,54,285,577,6160
1644184556.273193,-0.006348,0.012573,-0.98877,0.404061,0.233893,-0.14626,51,291,580,6192
1644184556.323295,-0.008057,0.013855,-0.993713,0.159786,0.447634,-0.192061,54,275,579,6224
1644184556.368185,-0.007874,0.010925,-0.990845,0.144519,0.371298,-0.008855,54,285,591,6192
1644184556.463777,-0.005554,0.009155,-0.989563,0.236122,0.401832,-0.207328,59,287,586,6288
1644184556.512391,-0.007935,0.009583,-0.989929,0.251389,0.356031,-0.100458,49,280,584,6160
1644184556.560551,-0.010498,0.009521,-0.991333,0.236122,0.539237,-0.024122,45,270,579,6224
1644184556.608944,-0.00647,0.011658,-0.990784,0.129252,0.401832,-0.100458,54,270,589,6224
1644184556.65734,-0.009521,0.010071,-0.991333,0.129252,0.310229,-0.176794,49,282,579,6176
1644184556.705733,-0.007996,0.011475,-0.993713,0.175053,0.447634,-0.024122,46,286,583,6192
1644184556.754118,-0.006287,0.010376,-0.99054,0.342992,0.371298,-0.100458,53,274,594,6224
1644184556.802527,-0.011536,0.007935,-0.990784,0.220855,0.279695,-0.25313,47,273,579,6176
1644184556.850962,-0.009033,0.008606,-0.989441,0.327725,0.417099,0.006412,45,263,579,6192
1644184556.899352,-0.00885,0.010498,-0.991211,0.205588,0.233893,-0.115725,41,269,576,6192
1644184556.947745,-0.007568,0.009399,-0.990662,0.281924,0.340763,-0.069924,43,283,571,6256
1644184556.996098,-0.008301,0.009949,-0.993164,0.297191,0.401832,-0.298931,52,280,586,6240
1644184557.044519,-0.010315,0.009338,-0.993774,0.175053,0.371298,-0.115725,48,281,585,6224
1644184557.096516,-0.006775,0.011841,-0.993225,0.144519,0.401832,-0.024122,57,280,589,6192
1644184557.141252,-0.008362,0.010193,-0.991882,0.266656,0.356031,-0.039389,48,271,580,6176
1644184557.189674,-0.011169,0.007568,-0.992676,0.220855,0.24916,0.006412,60,296,587,6192
1644184557.238074,-0.007935,0.009399,-0.991394,0.144519,0.371298,-0.069924,46,281,590,6224
1644184557.286459,-0.010315,0.007507,-0.993103,0.220855,0.478168,-0.039389,51,279,587,6176
1644184557.334858,-0.00531,0.009644,-0.993591,0.068183,0.401832,-0.008855,49,275,591,6224
1644184557.383512,-0.00708,0.007446,-0.991028,0.159786,0.447634,-0.176794,53,274,583,6192
1644184557.433894,-0.010925,0.010986,-0.991577,0.434595,0.356031,-0.176794,39,271,580,6192
1644184557.484035,-0.007568,0.011658,-0.991455,0.327725,0.523969,-0.085191,52,290,586,6224
1644184557.52927,-0.011108,0.009521,-0.991699,0.08345,0.356031,-0.176794,45,282,575,6160
1644184557.625386,-0.007507,0.009155,-0.991821,0.281924,0.417099,-0.115725,39,281,578,6224
1644184557.673605,-0.00885,0.009949,-0.991333,0.342992,0.539237,-0.161527,45,275,584,6192
1644184557.721985,-0.007996,0.010254,-0.992676,0.190321,0.585038,-0.161527,51,286,585,6192
1644184557.770381,-0.00946,0.005737,-0.990479,0.205588,0.508702,-0.069924,45,270,579,6240
1644184557.818775,-0.012817,0.009094,-0.992981,0.312458,0.462901,-0.054656,46,283,583,6192
1644184557.867198,-0.006042,0.006287,-0.991638,0.35826,0.600305,-0.207328,53,283,576,6224
1644184557.915578,-0.009399,0.007507,-0.992615,0.281924,0.340763,-0.161527,47,280,577,6224
1644184557.963995,-0.009033,0.010925,-0.991333,0.175053,0.340763,-0.115725,48,281,585,6192
1644184558.012377,-0.011719,0.00824,-0.991028,0.373527,0.371298,-0.14626,58,283,578,6176
1644184558.066321,-0.00769,0.00946,-0.991028,0.159786,0.508702,-0.161527,57,280,582,6192
1644184558.10911,-0.00946,0.008667,-0.990051,0.113985,0.264427,-0.207328,48,276,587,6176
1644184558.157532,-0.00946,0.008606,-0.989807,0.266656,0.371298,-0.115725,51,276,576,6288
1644184558.205926,-0.009033,0.008789,-0.993713,0.388794,0.508702,0.021679,42,275,582,6192
1644184558.254332,-0.006042,0.00946,-0.991272,0.175053,0.539237,0.021679,36,276,583,6240
1644184558.302689,-0.008911,0.013123,-0.989197,0.113985,0.325496,0.006412,49,275,591,6224
1644184558.351099,-0.009277,0.008484,-0.991638,0.175053,0.417099,-0.14626,53,274,590,6224
1644184558.399474,-0.009033,0.008606,-0.99115,0.08345,0.508702,0.006412,52,277,579,6240
1644184558.447887,-0.006409,0.008728,-0.992126,0.159786,0.279695,-0.054656,53,269,590,6224
1644184558.496288,-0.009033,0.011902,-0.990295,0.266656,0.203359,-0.176794,52,273,591,6160
1644184558.545836,-0.007812,0.010437,-0.992249,0.175053,0.356031,0.006412,48,276,578,6224
1644184558.596264,-0.009949,0.011414,-0.992615,0.037649,0.462901,-0.069924,54,273,582,6240
1644184558.646413,-0.007751,0.010193,-0.990479,0.266656,0.340763,-0.192061,43,279,580,6224
1644184558.738251,-0.00885,0.011292,-0.991211,0.190321,0.523969,-0.069924,46,276,587,6240
1644184558.78661,-0.006287,0.010681,-0.989929,0.08345,0.340763,-0.161527,43,291,583,6224
1644184558.835272,-0.008423,0.010864,-0.993286,0.251389,0.386565,-0.085191,48,271,580,6192
1644184558.883457,-0.010315,0.010742,-0.993103,0.266656,0.462901,0.021679,43,288,594,6288
1644184558.931845,-0.011169,0.008423,-0.991638,0.220855,0.310229,-0.024122,53,281,587,6176
1644184558.980234,-0.007751,0.009827,-0.992737,0.342992,0.432366,-0.024122,48,288,573,6192
1644184559.028635,-0.009216,0.00946,-0.993469,0.373527,0.279695,-0.161527,36,283,587,6224
1644184559.082873,-0.011169,0.008667,-0.991455,0.251389,0.493435,-0.237863,47,275,579,6224
1644184559.125432,-0.006897,0.010071,-0.994263,0.190321,0.523969,-0.115725,49,277,591,6256
1644184559.173796,-0.00769,0.008484,-0.992615,0.388794,0.188092,-0.192061,48,266,590,6176
1644184559.222244,-0.00946,0.011047,-0.988953,0.236122,0.279695,-0.069924,59,277,582,6128
1644184559.270565,-0.007935,0.012573,-0.992554,0.220855,0.325496,-0.115725,52,277,579,6256
1644184559.318936,-0.00946,0.008972,-0.992737,0.129252,0.310229,-0.069924,57,285,586,6224
1644184559.367317,-0.006287,0.011597,-0.992493,0.297191,0.462901,-0.14626,48,269,583,6192
1644184559.415735,-0.005981,0.007812,-0.991333,0.144519,0.401832,-0.130992,38,275,584,6224
1644184559.464121,-0.007751,0.011169,-0.988708,0.159786,0.432366,-0.024122,48,281,583,6224
1644184559.516263,-0.007202,0.010437,-0.98999,0.297191,0.340763,-0.14626,42,277,577,6224
1644184559.560916,-0.007019,0.009399,-0.989685,0.251389,0.340763,-0.161527,52,277,577,6256
1644184559.609388,-0.008667,0.010986,-0.992249,0.175053,0.539237,-0.024122,48,274,594,6192
1644184559.659752,-0.006958,0.010498,-0.991272,0.205588,0.432366,-0.130992,41,274,587,6224
1644184559.710037,-0.005737,0.01062,-0.990845,0.205588,0.371298,-0.054656,54,268,591,6224
1644184559.755106,-0.007019,0.012146,-0.991455,0.190321,0.523969,-0.039389,38,285,577,6240
1644184559.851278,-0.009094,0.012268,-0.990479,0.236122,0.294962,-0.054656,46,274,583,6176
1644184559.899699,-0.010803,0.010315,-0.992798,0.35826,0.417099,-0.069924,39,281,585,6256
1644184559.948086,-0.009216,0.011597,-0.990356,0.35826,0.356031,-0.008855,41,274,578,6176
1644184559.996461,-0.008789,0.009094,-0.99231,0.281924,0.279695,-0.100458,48,274,590,6224
1644184560.057389,-0.007812,0.008423,-0.993652,0.297191,0.340763,-0.192061,51,279,592,6160
1644184560.09609,-0.010864,0.00946,-0.992737,0.144519,0.401832,-0.298931,41,279,587,6192
1644184560.141667,-0.008789,0.010742,-0.99292,0.327725,0.447634,0.021679,43,281,585,6288
1644184560.190011,-0.007935,0.009766,-0.99176,0.251389,0.371298,-0.085191,41,274,583,6192
1644184560.238475,-0.008301,0.009521,-0.992371,0.159786,0.447634,-0.130992,43,269,587,6192
1644184560.28681,-0.007996,0.008057,-0.992859,0.098718,0.264427,-0.054656,43,279,578,6240
1644184560.335248,-0.009399,0.010071,-0.992676,0.251389,0.478168,-0.100458,60,276,597,6160
1644184560.38361,-0.009338,0.011047,-0.991028,0.297191,0.539237,-0.024122,57,285,589,6240
1644184560.431986,-0.010437,0.010559,-0.990051,0.098718,0.401832,-0.100458,54,275,593,6240
1644184560.480372,-0.007202,0.010864,-0.990417,0.312458,0.310229,-0.176794,52,275,586,6224
1644184560.528771,-0.008118,0.011414,-0.993042,0.266656,0.310229,-0.115725,55,276,580,6176
1644184560.577171,-0.012207,0.010437,-0.993469,0.266656,0.340763,-0.130992,52,277,586,6240
1644184560.625608,-0.009766,0.00885,-0.993103,0.281924,0.417099,-0.130992,48,266,592,6176
1644184560.675009,-0.006836,0.009705,-0.993958,0.205588,0.386565,-0.25313,38,277,582,6112
1644184560.725415,-0.009338,0.00885,-0.993774,0.327725,0.539237,-0.192061,48,276,580,6224
1644184560.775648,-0.007263,0.012207,-0.990051,0.113985,0.554504,-0.054656,47,277,582,6224
1644184560.867535,-0.009216,0.008362,-0.991882,0.113985,0.294962,-0.054656,55,271,594,6240
1644184560.915924,-0.007935,0.007568,-0.988953,0.205588,0.447634,-0.054656,57,273,577,6192
1644184560.96436,-0.010071,0.011719,-0.993408,0.113985,0.600305,-0.115725,48,271,578,6192
1644184561.012765,-0.009155,0.007385,-0.992432,0.159786,0.294962,-0.207328,46,276,587,6256
1644184561.06803,-0.00769,0.009827,-0.992371,0.220855,0.417099,0.052214,52,275,579,6176
1644184561.109478,-0.008118,0.009094,-0.99353,0.236122,0.310229,-0.024122,51,266,590,6176
1644184561.157917,-0.01062,0.011047,-0.992004,0.175053,0.233893,-0.085191,53,276,576,6176
1644184561.206303,-0.010803,0.007812,-0.992432,0.281924,0.294962,0.006412,42,268,589,6224
1644184561.254831,-0.008484,0.010315,-0.990356,0.190321,0.447634,-0.100458,51,281,576,6176
1644184561.303102,-0.006775,0.00885,-0.992371,0.190321,0.417099,-0.130992,47,273,579,6160
1644184561.351475,-0.006531,0.009277,-0.992554,0.220855,0.478168,0.006412,36,283,576,6160
1644184561.399882,-0.00946,0.00769,-0.990479,0.342992,0.417099,-0.115725,38,273,575,6224
1644184561.448292,-0.008057,0.007996,-0.992615,0.35826,0.478168,0.052214,39,274,583,6224
1644184561.496684,-0.009705,0.008545,-0.992493,0.190321,0.417099,-0.130992,46,283,587,6240
1644184561.545107,-0.008972,0.010559,-0.991211,0.297191,0.432366,-0.054656,49,282,598,6176
1644184561.593463,-0.008545,0.008911,-0.989563,0.236122,0.447634,0.098015,61,280,586,6160
1644184561.641853,-0.010681,0.007874,-0.990356,0.251389,0.462901,-0.100458,43,276,587,6224
1644184561.690572,-0.006958,0.011597,-0.991882,0.312458,0.371298,0.021679,49,280,591,6240
1644184561.738651,-0.008484,0.00708,-0.990967,0.144519,0.493435,-0.008855,46,266,590,6224
1644184561.789177,-0.009949,0.009338,-0.988831,0.297191,0.310229,0.036947,53,279,585,6256
1644184561.838794,-0.007019,0.008606,-0.991455,0.281924,0.447634,-0.130992,48,281,587,6160
1644184561.889192,-0.006958,0.011658,-0.989746,0.190321,0.432366,-0.237863,47,277,589,6240
1644184561.933591,-0.007202,0.008362,-0.99054,0.35826,0.401832,-0.115725,43,274,587,6176
1644184562.028991,-0.010071,0.008667,-0.989624,0.205588,0.356031,-0.207328,51,274,578,6176
1644184562.081331,-0.009644,0.00531,-0.991455,0.175053,0.462901,0.052214,57,280,586,6224
1644184562.125733,-0.00769,0.008911,-0.991394,0.281924,0.539237,0.021679,55,271,583,6192
1644184562.174152,-0.007996,0.010376,-0.990295,0.037649,0.462901,0.052214,43,274,585,6192
1644184562.222548,-0.007629,0.008057,-0.99469,0.266656,0.401832,-0.222595,51,276,583,6224
1644184562.270903,-0.007141,0.01001,-0.992493,0.281924,0.401832,0.098015,51,269,585,6240
1644184562.319305,-0.009888,0.013245,-0.98877,0.251389,0.462901,-0.054656,45,273,579,6160
1644184562.367682,-0.009033,0.012146,-0.991699,0.327725,0.356031,-0.130992,45,273,579,6192
1644184562.416097,-0.009644,0.009277,-0.991699,0.342992,0.386565,-0.054656,58,283,578,6224
1644184562.464507,-0.009155,0.010437,-0.991821,0.220855,0.432366,-0.100458,40,273,584,6160
1644184562.512888,-0.007141,0.008179,-0.989746,0.144519,0.340763,-0.039389,42,282,582,6224
1644184562.561282,-0.009155,0.009094,-0.991821,0.266656,0.417099,-0.115725,54,270,584,6224
1644184562.609668,-0.007324,0.009827,-0.991516,0.175053,0.462901,-0.008855,38,268,575,6192
1644184562.658067,-0.006958,0.010254,-0.992432,0.266656,0.417099,0.006412,46,279,573,6256
1644184562.706456,-0.007568,0.009644,-0.992004,0.190321,0.417099,0.006412,45,273,575,6160
1644184562.754834,-0.009216,0.008423,-0.992004,0.251389,0.447634,-0.085191,43,276,594,6192
1644184562.803559,-0.007019,0.010315,-0.988464,0.251389,0.325496,-0.207328,61,268,584,6224
1644184562.851684,-0.008606,0.009644,-0.993469,0.098718,0.478168,-0.115725,46,279,583,6224
1644184562.90165,-0.00885,0.009827,-0.991028,0.098718,0.462901,-0.039389,43,271,576,6224
1644184562.95177,-0.008545,0.009338,-0.991638,0.08345,0.493435,-0.268397,47,277,593,6224
1644184563.002237,-0.00769,0.011047,-0.991821,0.144519,0.493435,-0.130992,42,280,586,6224
1644184563.061435,-0.007141,0.009216,-0.992859,0.220855,0.325496,-0.039389,43,281,585,6160
1644184563.141985,-0.009094,0.009033,-0.992859,0.159786,0.417099,-0.115725,48,279,578,6160
1644184563.190398,-0.008484,0.011353,-0.992126,0.205588,0.340763,0.067481,53,269,578,6224
1644184563.23877,-0.010437,0.007935,-0.99231,0.220855,0.371298,-0.100458,40,275,582,6192
1644184563.287165,-0.009094,0.007385,-0.993774,0.175053,0.325496,-0.161527,39,276,576,6192
1644184563.335559,-0.005493,0.010681,-0.990906,0.175053,0.417099,-0.024122,54,268,591,6192
1644184563.38397,-0.006409,0.007935,-0.991394,0.266656,0.294962,-0.024122,45,282,577,6176
1644184563.432376,-0.009277,0.010986,-0.993713,0.404061,0.386565,-0.069924,40,277,575,6160
1644184563.480747,-0.00708,0.011353,-0.990723,0.205588,0.325496,0.006412,45,265,584,6240
1644184563.52914,-0.008118,0.011902,-0.99176,0.266656,0.310229,-0.054656,40,285,582,6224
1644184563.577541,-0.00946,0.012451,-0.994202,0.175053,0.462901,-0.161527,46,274,583,6160
1644184563.625924,-0.010315,0.009705,-0.990051,0.205588,0.417099,-0.298931,47,285,582,6240
1644184563.674331,-0.00647,0.008057,-0.993408,0.144519,0.371298,-0.130992,57,282,589,6192
1644184563.72272,-0.009338,0.006653,-0.992798,0.113985,0.432366,-0.207328,53,276,576,6176
1644184563.771069,-0.009949,0.011292,-0.993042,0.175053,0.600305,-0.085191,47,282,586,6224
1644184563.81953,-0.00769,0.009827,-0.991577,0.098718,0.523969,-0.054656,57,268,589,6192
1644184563.867923,-0.009399,0.010376,-0.992371,0.175053,0.371298,-0.14626,48,281,578,6192
1644184563.916319,-0.008545,0.010803,-0.991516,0.327725,0.279695,-0.130992,48,271,573,6240
1644184563.964782,-0.010803,0.01062,-0.991882,0.190321,0.462901,0.006412,51,288,587,6224
1644184564.063112,-0.007568,0.010986,-0.991699,0.266656,0.294962,-0.054656,51,286,587,6256
1644184564.109803,-0.008057,0.010803,-0.992615,0.190321,0.417099,-0.237863,49,270,589,6176
1644184564.158224,-0.009338,0.012329,-0.992371,0.190321,0.310229,-0.192061,48,271,580,6160
1644184564.20663,-0.007751,0.011047,-0.99231,0.190321,0.493435,-0.176794,53,274,583,6224
1644184564.255066,-0.010925,0.010315,-0.992126,0.312458,0.417099,-0.085191,48,283,580,6224
1644184564.303421,-0.010559,0.011475,-0.991455,0.236122,0.447634,-0.069924,49,277,582,6128
1644184564.35182,-0.007568,0.007141,-0.993835,0.113985,0.493435,-0.069924,54,275,582,6224
1644184564.400201,-0.008301,0.011414,-0.992371,0.297191,0.417099,-0.100458,45,287,598,6176
1644184564.448606,-0.008545,0.009644,-0.990234,0.236122,0.371298,-0.008855,51,274,580,6224
1644184564.496974,-0.009583,0.011047,-0.992188,0.129252,0.432366,-0.069924,48,281,583,6176
1644184564.545391,-0.009888,0.01062,-0.992004,0.159786,0.310229,-0.100458,49,275,579,6192
1644184564.59379,-0.010193,0.01062,-0.992493,0.251389,0.478168,-0.069924,49,277,575,6128
1644184564.642231,-0.010925,0.008728,-0.990479,0.297191,0.432366,-0.14626,54,277,584,6240
1644184564.690584,-0.00647,0.008484,-0.993103,0.144519,0.294962,-0.130992,54,282,584,6160
1644184564.738952,-0.013977,0.007629,-0.991943,0.251389,0.325496,-0.14626,41,283,578,6192
1644184564.787332,-0.010193,0.006287,-0.992432,0.266656,0.24916,-0.008855,57,280,593,6224
1644184564.835767,-0.007751,0.00769,-0.990845,0.342992,0.417099,-0.024122,51,271,583,6304
1644184564.884196,-0.008667,0.010437,-0.990906,0.281924,0.447634,-0.085191,48,266,592,6192
1644184564.933591,-0.008118,0.009399,-0.990845,0.251389,0.462901,-0.100458,47,273,579,6240
1644184564.983913,-0.007568,0.01001,-0.990662,0.266656,0.310229,-0.069924,47,280,586,6224
1644184565.034067,-0.010742,0.010132,-0.99231,0.159786,0.401832,-0.054656,47,285,591,6224
1644184565.085425,-0.007812,0.006897,-0.991516,0.205588,0.310229,-0.100458,55,288,587,6240
1644184565.174502,-0.009644,0.009094,-0.991333,0.144519,0.401832,-0.008855,55,274,569,6176
1644184565.222895,-0.005615,0.010193,-0.990723,0.159786,0.294962,-0.069924,57,270,572,6224
1644184565.271261,-0.00592,0.007202,-0.993225,0.220855,0.432366,-0.100458,54,277,572,6192
1644184565.319647,-0.00769,0.006165,-0.991699,0.373527,0.386565,0.052214,49,270,579,6224
1644184565.368287,-0.007996,0.010986,-0.991821,0.129252,0.356031,-0.069924,52,280,589,6240
1644184565.416457,-0.00885,0.012573,-0.990295,0.098718,0.447634,-0.069924,59,270,582,6240
1644184565.464859,-0.008728,0.012817,-0.992249,0.190321,0.264427,-0.14626,59,275,589,6240
1644184565.51324,-0.008789,0.007385,-0.990723,0.251389,0.356031,-0.192061,35,282,579,6240
1644184565.56164,-0.009827,0.009644,-0.99231,0.327725,0.432366,-0.176794,42,287,591,6160
1644184565.610036,-0.007751,0.010437,-0.992065,0.144519,0.478168,-0.024122,36,271,590,6192
1644184565.658405,-0.009094,0.007019,-0.991089,0.342992,0.340763,-0.054656,49,273,584,6240
1644184565.706827,-0.009094,0.010193,-0.994202,0.037649,0.294962,-0.069924,45,287,575,6192
1644184565.755296,-0.008789,0.009644,-0.993896,0.205588,0.447634,0.098015,51,286,580,6240
1644184565.803623,-0.009094,0.010071,-0.991211,0.251389,0.493435,-0.054656,54,280,586,6160
1644184565.852036,-0.01001,0.009766,-0.991943,0.434595,0.356031,-0.130992,46,286,587,6224
1644184565.900433,-0.00885,0.007874,-0.989868,0.236122,0.417099,-0.069924,48,279,587,6192
1644184565.948793,-0.011597,0.007385,-0.99176,0.327725,0.600305,-0.14626,46,276,580,6176
1644184565.997206,-0.008667,0.010864,-0.989441,0.220855,0.462901,-0.054656,47,280,589,6256
1644184566.045589,-0.008789,0.013062,-0.991943,0.144519,0.417099,-0.054656,57,273,584,6240
1644184566.101529,-0.008301,0.009155,-0.99115,0.236122,0.294962,-0.176794,48,276,578,6176
1644184566.146149,-0.010559,0.012146,-0.993774,0.129252,0.523969,-0.298931,48,276,590,6176
1644184566.195002,-0.007202,0.009033,-0.992065,0.251389,0.340763,-0.100458,45,270,582,6192
1644184566.239959,-0.010315,0.006348,-0.993286,0.205588,0.554504,0.036947,53,279,578,6224
1644184566.335898,-0.008545,0.010498,-0.991943,0.175053,0.310229,-0.130992,48,283,580,6192
1644184566.384343,-0.009583,0.013245,-0.992981,0.266656,0.310229,0.036947,54,280,582,6128
1644184566.432721,-0.006409,0.011414,-0.991455,0.159786,0.356031,-0.130992,45,270,577,6192
1644184566.481091,-0.009644,0.008606,-0.991028,0.113985,0.462901,-0.100458,43,279,576,6192
1644184566.529488,-0.008728,0.009338,-0.992371,0.144519,0.462901,-0.130992,46,274,580,6224
1644184566.577889,-0.007568,0.009888,-0.992004,0.175053,0.401832,-0.100458,49,275,586,6224
1644184566.626279,-0.009155,0.01001,-0.993164,0.297191,0.417099,-0.14626,46,279,594,6224
1644184566.67468,-0.006836,0.009644,-0.991638,0.175053,0.493435,0.006412,43,271,576,6192
1644184566.72307,-0.007202,0.010864,-0.994873,0.129252,0.493435,-0.192061,46,271,576,6224
1644184566.771455,-0.010986,0.010254,-0.991455,0.327725,0.386565,0.021679,40,285,584,6192
1644184566.819832,-0.009644,0.007568,-0.989746,0.190321,0.523969,-0.115725,41,274,587,6224
1644184566.868279,-0.009277,0.009338,-0.991638,0.388794,0.447634,-0.085191,47,282,586,6224
1644184566.916672,-0.007019,0.009216,-0.993042,0.159786,0.432366,-0.14626,58,276,573,6240
1644184566.965117,-0.009338,0.007385,-0.99292,0.266656,0.554504,-0.192061,49,275,582,6160
1644184567.01347,-0.009644,0.011902,-0.991821,0.144519,0.432366,-0.024122,59,275,582,6192
1644184567.073052,-0.010132,0.008118,-0.991577,0.251389,0.294962,-0.069924,39,274,583,6224
1644184567.111736,-0.008728,0.011841,-0.991089,0.251389,0.386565,-0.161527,47,275,584,6160
1644184567.158602,-0.007202,0.011108,-0.99292,0.266656,0.386565,-0.130992,57,275,582,6176
1644184567.206994,-0.007874,0.008728,-0.990112,0.159786,0.401832,-0.115725,49,282,584,6176
