epoch,acc_x,acc_y,acc_z,rot_x,rot_y,rot_z,mag_x,mag_y,mag_z,temp
1644185100.069845,-0.009705,0.011841,-0.988831,0.342992,0.447634,-0.192061,43,286,592,6224
1644185100.109658,-0.00592,0.010559,-0.991699,0.297191,0.325496,-0.115725,48,283,590,6224
1644185100.158065,-0.008057,0.009766,-0.993042,0.312458,0.432366,-0.130992,54,275,577,6240
1644185100.206469,-0.007507,0.011047,-0.991272,0.08345,0.401832,-0.115725,41,279,590,6176
1644185100.254868,-0.007935,0.01001,-0.991638,0.236122,0.356031,-0.024122,45,270,570,6240
1644185100.303251,-0.004944,0.009705,-0.990906,0.342992,0.356031,-0.069924,57,275,575,6192
1644185100.35164,-0.008179,0.011292,-0.98999,0.251389,0.356031,-0.100458,55,279,571,6240
1644185100.400041,-0.008606,0.009399,-0.992371,0.129252,0.279695,-0.085191,39,274,592,6192
1644185100.448432,-0.008545,0.005859,-0.994263,0.251389,0.325496,-0.14626,46,281,587,6176
1644185100.496843,-0.008667,0.008728,-0.993103,0.190321,0.432366,-0.024122,55,281,587,6256
1644185100.545293,-0.006592,0.011658,-0.991455,0.129252,0.371298,-0.130992,52,285,579,6192
1644185100.593621,-0.007629,0.009888,-0.992737,0.236122,0.310229,-0.008855,48,274,580,6160
1644185100.642012,-0.009705,0.008057,-0.992676,0.35826,0.356031,-0.069924,49,273,572,6224
1644185100.690399,-0.009766,0.011169,-0.993408,0.327725,0.264427,-0.161527,47,287,586,6240
1644185100.739125,-0.008545,0.009888,-0.993042,0.46513,0.386565,-0.176794,46,276,590,6176
1644185100.788015,-0.009216,0.011963,-0.992188,0.251389,0.478168,-0.008855,53,286,583,6256
1644185100.838688,-0.009827,0.012451,-0.993103,0.068183,0.539237,0.021679,48,276,592,6288
1644185100.88957,-0.00824,0.00946,-0.991516,0.327725,0.462901,-0.115725,51,274,590,6224
1644185100.980819,-0.008057,0.011475,-0.990906,0.08345,0.447634,0.052214,46,279,580,6240
1644185101.029191,-0.00824,0.010254,-0.989807,0.327725,0.340763,-0.085191,47,280,593,6240
1644185101.078408,-0.008972,0.011475,-0.99292,0.205588,0.539237,-0.039389,51,271,587,6176
1644185101.125922,-0.008911,0.010254,-0.98999,0.266656,0.447634,-0.161527,46,279,587,6224
1644185101.174342,-0.009583,0.01178,-0.991333,0.205588,0.493435,-0.069924,43,281,583,6224
1644185101.222744,-0.008179,0.011597,-0.991089,0.190321,0.279695,-0.039389,61,277,589,6256
1644185101.271096,-0.006836,0.007263,-0.991943,0.129252,0.386565,-0.008855,51,274,585,6256
1644185101.319515,-0.008789,0.009155,-0.990845,0.236122,0.401832,-0.024122,46,271,580,6176
1644185101.367896,-0.008179,0.010864,-0.990906,0.175053,0.462901,-0.069924,41,276,578,6240
1644185101.416344,-0.007507,0.007263,-0.988892,0.510931,0.493435,-0.25313,40,275,589,6160
1644185101.464721,-0.010498,0.00708,-0.990906,0.159786,0.340763,-0.100458,40,285,589,6240
1644185101.513077,-0.007385,0.007751,-0.991577,0.281924,0.310229,-0.268397,47,273,577,6224
1644185101.561474,-0.00885,0.009583,-0.989746,0.205588,0.371298,-0.054656,45,277,582,6176
1644185101.609871,-0.007996,0.012695,-0.992004,0.220855,0.157557,-0.039389,46,281,592,6128
1644185101.658263,-0.009521,0.010437,-0.989014,0.236122,0.462901,-0.085191,43,269,583,6192
1644185101.706651,-0.005981,0.007507,-0.990906,0.220855,0.447634,-0.130992,52,273,589,6240
1644185101.755092,-0.008301,0.010132,-0.990234,0.266656,0.417099,-0.268397,49,282,593,6160
1644185101.80341,-0.0047,0.010864,-0.992126,0.144519,0.462901,-0.130992,57,282,584,6256
1644185101.851872,-0.009094,0.009827,-0.993958,0.129252,0.417099,-0.115725,47,275,582,6240
1644185101.901638,-0.009338,0.011597,-0.990601,0.266656,0.340763,-0.069924,48,276,583,6224
1644185101.951878,-0.008362,0.012268,-0.991028,0.113985,0.356031,-0.115725,45,273,579,6256
1644185102.001977,-0.008911,0.009216,-0.990417,0.205588,0.478168,0.036947,48,271,585,6160
1644185102.059339,-0.008606,0.006531,-0.990601,0.220855,0.523969,-0.008855,48,279,573,6192
1644185102.142704,-0.007446,0.009399,-0.99115,0.052916,0.478168,-0.207328,57,270,577,6240
1644185102.190574,-0.009338,0.010376,-0.990479,0.35826,0.401832,-0.054656,43,283,583,6224
1644185102.238958,-0.006348,0.008545,-0.990417,0.113985,0.508702,-0.115725,55,276,587,6224
1644185102.287342,-0.009644,0.010986,-0.988892,0.205588,0.325496,-0.161527,47,268,582,6224
1644185102.335754,-0.007141,0.007263,-0.991394,0.175053,0.356031,-0.375267,53,266,578,6224
1644185102.384147,-0.006714,0.009338,-0.991333,0.251389,0.447634,-0.039389,60,279,580,6192
1644185102.432537,-0.006226,0.010254,-0.99176,0.205588,0.356031,-0.024122,36,274,585,6224
1644185102.480933,-0.008545,0.011169,-0.991943,0.129252,0.417099,-0.192061,53,274,580,6128
1644185102.52934,-0.008667,0.008362,-0.992493,0.281924,0.233893,-0.085191,61,285,586,6224
1644185102.577731,-0.006714,0.008484,-0.991272,0.220855,0.356031,0.067481,49,275,577,6112
1644185102.626097,-0.007385,0.010071,-0.988831,0.297191,0.478168,0.006412,51,276,583,6128
1644185102.674523,-0.008728,0.011414,-0.989258,0.220855,0.325496,-0.008855,57,277,589,6240
1644185102.722929,-0.009949,0.00946,-0.99054,0.266656,0.462901,-0.054656,45,273,582,6256
1644185102.7713,-0.006104,0.010742,-0.992432,0.08345,0.386565,-0.100458,49,273,584,6240
1644185102.819685,-0.00769,0.008545,-0.989136,0.251389,0.325496,-0.115725,48,283,585,6240
1644185102.868115,-0.009521,0.011108,-0.993286,0.205588,0.386565,-0.176794,45,277,579,6224
1644185102.916514,-0.009094,0.01062,-0.991699,0.08345,0.401832,-0.14626,38,263,582,6160
1644185102.964978,-0.01001,0.009644,-0.991333,0.236122,0.325496,-0.130992,42,280,584,6192
1644185103.065589,-0.006226,0.009277,-0.993286,0.297191,0.356031,-0.14626,49,277,589,6192
1644185103.110046,-0.008423,0.00946,-0.990784,0.266656,0.356031,-0.115725,49,273,586,6224
1644185103.158476,-0.005615,0.011108,-0.989563,0.220855,0.493435,-0.192061,40,282,577,6240
1644185103.206864,-0.008484,0.01062,-0.992249,0.159786,0.462901,0.006412,49,280,582,6224
1644185103.255244,-0.007568,0.010376,-0.99231,0.144519,0.371298,-0.008855,51,264,585,6224
1644185103.303615,-0.009277,0.01062,-0.990967,0.175053,0.554504,-0.25313,51,281,583,6224
1644185103.35201,-0.007263,0.010132,-0.991577,0.251389,0.508702,-0.069924,51,266,583,6160
1644185103.400409,-0.007568,0.010132,-0.992188,0.098718,0.554504,-0.100458,51,266,580,6224
1644185103.448803,-0.006104,0.00946,-0.991211,0.190321,0.310229,-0.024122,46,288,580,6224
1644185103.497163,-0.007019,0.007629,-0.992371,0.266656,0.371298,-0.161527,52,280,586,6224
1644185103.545587,-0.008667,0.007446,-0.991943,0.08345,0.462901,-0.085191,46,271,592,6224
1644185103.593973,-0.007629,0.009766,-0.992554,0.220855,0.310229,0.052214,51,286,590,6224
1644185103.64239,-0.005676,0.007568,-0.990784,0.297191,0.523969,-0.100458,48,266,580,6224
1644185103.690763,-0.01001,0.009766,-0.990417,0.098718,0.279695,-0.115725,49,277,584,6224
1644185103.739155,-0.006042,0.013611,-0.990662,0.205588,0.600305,0.021679,51,274,583,6224
1644185103.787539,-0.014648,0.010681,-0.991028,0.144519,0.325496,-0.130992,41,279,590,6160
1644185103.83591,-0.008667,0.008667,-0.989807,0.281924,0.447634,-0.14626,47,275,589,6224
1644185103.885421,-0.005676,0.010681,-0.991516,0.220855,0.554504,-0.085191,53,276,590,6224
1644185103.935348,-0.009338,0.008057,-0.988892,0.236122,0.340763,-0.161527,48,281,585,6176
1644185103.986157,-0.00885,0.009277,-0.989868,0.08345,0.310229,-0.161527,60,276,587,6224
1644185104.030355,-0.009766,0.009033,-0.990417,0.098718,0.356031,-0.069924,57,273,579,6224
1644185104.126254,-0.010681,0.008789,-0.991577,0.205588,0.462901,-0.161527,48,283,587,6224
1644185104.174857,-0.009949,0.010803,-0.993652,0.190321,0.264427,-0.039389,39,283,578,6224
1644185104.223097,-0.005737,0.009521,-0.992065,0.190321,0.310229,-0.039389,51,281,583,6160
1644185104.27147,-0.005066,0.009216,-0.991394,0.220855,0.325496,-0.069924,47,270,584,6240
1644185104.319848,-0.006958,0.007507,-0.99054,0.220855,0.508702,-0.024122,49,277,584,6240
1644185104.368236,-0.004578,0.009338,-0.991089,0.190321,0.523969,-0.25313,36,288,580,6176
1644185104.416661,-0.008789,0.007874,-0.990662,0.327725,0.417099,-0.192061,59,270,586,6224
1644185104.465077,-0.005798,0.010559,-0.992065,0.159786,0.478168,-0.176794,48,276,580,6224
1644185104.513435,-0.009094,0.008484,-0.989624,0.236122,0.432366,-0.069924,54,275,586,6176
1644185104.561838,-0.009521,0.013672,-0.989502,0.266656,0.462901,-0.054656,47,277,584,6224
1644185104.610228,-0.00885,0.010437,-0.992126,0.113985,0.294962,-0.100458,47,275,591,6192
1644185104.658618,-0.00647,0.008972,-0.991211,0.266656,0.447634,-0.130992,46,279,585,6224
1644185104.706989,-0.005615,0.011536,-0.992981,0.205588,0.478168,-0.192061,46,279,573,6240
1644185104.755374,-0.008179,0.011536,-0.991943,0.129252,0.310229,-0.024122,41,276,587,6224
1644185104.803842,-0.00769,0.01123,-0.990845,0.144519,0.600305,-0.176794,46,286,587,6224
1644185104.852247,-0.008667,0.00708,-0.992004,0.098718,0.432366,-0.085191,57,275,584,6256
1644185104.900611,-0.007874,0.008545,-0.991821,0.419328,0.356031,-0.008855,54,287,586,6224
1644185104.949156,-0.008972,0.010498,-0.990356,0.068183,0.432366,-0.054656,59,270,589,6256
1644185104.997397,-0.009094,0.011719,-0.990845,0.129252,0.493435,-0.024122,51,271,587,6224
1644185105.059422,-0.01001,0.007202,-0.990417,0.236122,0.371298,-0.069924,47,275,584,6224
1644185105.099468,-0.007019,0.011597,-0.989746,0.434595,0.417099,0.052214,47,277,593,6192
1644185105.146953,-0.007812,0.008972,-0.990234,0.175053,0.401832,-0.039389,42,270,577,6192
1644185105.1919,-0.005432,0.010681,-0.992249,0.236122,0.386565,-0.085191,55,276,580,6256
1644185105.287703,-0.00769,0.009827,-0.992615,0.175053,0.386565,-0.222595,48,281,580,6192
1644185105.336106,-0.009094,0.010559,-0.991394,0.113985,0.508702,-0.039389,53,279,590,6240
1644185105.384496,-0.009155,0.01178,-0.990662,0.266656,0.462901,-0.130992,57,273,577,6192
1644185105.432922,-0.009399,0.010925,-0.992371,0.236122,0.386565,-0.115725,52,270,586,6224
1644185105.481294,-0.011475,0.008118,-0.991333,0.251389,0.356031,-0.222595,39,271,585,6192
1644185105.529684,-0.011963,0.00885,-0.990234,0.205588,0.218626,0.052214,49,277,586,6224
1644185105.578076,-0.008484,0.009827,-0.992676,0.068183,0.356031,-0.039389,47,292,584,6224
1644185105.626486,-0.00647,0.012085,-0.98999,0.342992,0.371298,-0.085191,45,273,584,6224
1644185105.67488,-0.005859,0.011719,-0.990295,0.129252,0.371298,-0.161527,46,274,590,6160
1644185105.723269,-0.006592,0.005554,-0.992615,0.281924,0.508702,-0.207328,49,280,591,6224
1644185105.771664,-0.008362,0.011902,-0.992004,0.098718,0.493435,-0.283664,47,275,584,6224
1644185105.820087,-0.009766,0.008362,-0.992615,0.281924,0.371298,-0.14626,42,282,577,6224
1644185105.868475,-0.007202,0.012085,-0.989563,0.175053,0.447634,-0.100458,48,266,580,6224
1644185105.91688,-0.009216,0.008362,-0.99231,0.35826,0.279695,-0.069924,49,280,582,6224
1644185105.965271,-0.005798,0.010498,-0.994019,0.190321,0.340763,-0.024122,52,285,589,6176
1644185106.013663,-0.007507,0.01062,-0.987915,0.129252,0.417099,-0.176794,52,268,584,6240
1644185106.072703,-0.00708,0.010559,-0.992188,0.251389,0.371298,-0.207328,51,281,585,6176
1644185106.11671,-0.008362,0.010986,-0.99115,0.175053,0.432366,-0.115725,46,274,597,6176
1644185106.161084,-0.0047,0.009277,-0.991577,0.236122,0.401832,-0.069924,48,266,592,6176
1644185106.209656,-0.006348,0.01062,-0.991821,0.251389,0.447634,-0.130992,52,282,579,6160
1644185106.260534,-0.006104,0.009705,-0.990051,0.068183,0.554504,-0.130992,40,280,582,6192
1644185106.305205,-0.008606,0.011963,-0.991821,0.312458,0.478168,-0.161527,47,273,584,6256
1644185106.400769,-0.005981,0.011719,-0.990356,0.312458,0.310229,-0.008855,46,276,578,6224
1644185106.449149,-0.003845,0.012329,-0.988708,0.266656,0.386565,-0.14626,54,282,593,6256
1644185106.497551,-0.007874,0.008972,-0.991089,-0.02342,0.371298,-0.115725,42,280,586,6240
1644185106.545935,-0.010132,0.009766,-0.988892,0.159786,0.356031,-0.115725,53,271,578,6256
1644185106.594342,-0.007874,0.007874,-0.992371,0.266656,0.417099,-0.069924,47,277,589,6176
1644185106.642746,-0.007324,0.010376,-0.992432,0.297191,0.356031,-0.207328,47,285,582,6192
1644185106.691128,-0.009949,0.009277,-0.989807,0.175053,0.417099,-0.085191,52,277,579,6192
1644185106.739507,-0.010254,0.012878,-0.992737,0.251389,0.233893,-0.176794,46,283,585,6128
1644185106.787903,-0.008423,0.009155,-0.992432,0.113985,0.325496,0.021679,46,281,576,6224
1644185106.836326,-0.007385,0.008545,-0.991516,0.220855,0.462901,-0.222595,40,275,584,6240
1644185106.884749,-0.010559,0.011963,-0.993164,0.251389,0.493435,0.021679,48,274,576,6176
1644185106.933135,-0.009888,0.010193,-0.989868,0.312458,0.188092,-0.008855,51,286,580,6240
1644185106.98152,-0.007751,0.010071,-0.991577,0.08345,0.386565,-0.161527,41,279,580,6224
1644185107.029918,-0.008545,0.008545,-0.992737,0.342992,0.203359,-0.207328,57,287,586,6192
1644185107.090125,-0.008667,0.006714,-0.990723,0.113985,0.401832,0.082748,51,274,585,6192
1644185107.126671,-0.009644,0.011169,-0.988953,0.342992,0.478168,-0.100458,49,277,584,6192
1644185107.175082,-0.006958,0.012695,-0.991699,0.388794,0.371298,0.021679,55,274,583,6192
1644185107.223751,-0.008301,0.011597,-0.991211,0.159786,0.356031,-0.25313,48,281,585,6240
1644185107.274126,-0.007141,0.00885,-0.994263,0.159786,0.325496,-0.069924,49,280,589,6224
1644185107.324218,-0.011475,0.011108,-0.993958,0.159786,0.508702,-0.161527,42,270,582,6176
1644185107.36944,-0.008545,0.007324,-0.991028,0.251389,0.417099,-0.069924,48,286,583,6224
1644185107.465403,-0.007568,0.009949,-0.989319,0.113985,0.417099,-0.14626,47,285,575,6256
1644185107.513798,-0.012756,0.012329,-0.992126,0.175053,0.386565,0.006412,41,279,585,6224
1644185107.562404,-0.008118,0.011902,-0.992065,0.175053,0.356031,-0.115725,51,276,576,6224
1644185107.610581,-0.007629,0.008545,-0.987915,0.220855,0.386565,-0.161527,57,270,591,6256
1644185107.658968,-0.006348,0.011292,-0.992615,0.098718,0.447634,-0.054656,52,287,584,6176
1644185107.707357,-0.010498,0.011658,-0.990723,0.266656,0.401832,-0.054656,46,279,587,6192
1644185107.755746,-0.00708,0.010864,-0.991638,0.098718,0.462901,0.021679,46,281,585,6256
1644185107.804158,-0.007324,0.009583,-0.992493,0.220855,0.462901,-0.207328,40,282,589,6192
1644185107.852613,-0.01001,0.010193,-0.989502,0.266656,0.508702,-0.100458,54,287,568,6128
1644185107.900978,-0.008545,0.009399,-0.991272,0.388794,0.310229,-0.176794,41,279,580,6192
1644185107.949386,-0.00946,0.011597,-0.990601,0.419328,0.401832,-0.176794,49,277,586,6224
1644185107.99777,-0.007812,0.010925,-0.98999,0.220855,0.478168,-0.085191,58,274,583,6224
1644185108.058975,-0.006165,0.010498,-0.991882,0.297191,0.508702,-0.207328,46,279,583,6288
1644185108.097253,-0.005249,0.012024,-0.988647,0.281924,0.356031,-0.237863,55,279,587,6224
1644185108.142939,-0.008972,0.011047,-0.989197,0.175053,0.417099,-0.039389,47,282,577,6224
1644185108.191297,-0.007263,0.010864,-0.989258,0.190321,0.401832,-0.100458,47,290,584,6224
1644185108.239691,-0.008667,0.008911,-0.989075,0.404061,0.523969,-0.069924,46,279,590,6176
1644185108.288085,-0.010071,0.008179,-0.991882,0.205588,0.294962,0.021679,45,277,577,6240
1644185108.33651,-0.007996,0.009766,-0.991028,0.159786,0.508702,-0.222595,43,279,585,6224
1644185108.385612,-0.007385,0.010681,-0.99054,0.281924,0.523969,-0.069924,40,275,589,6128
1644185108.436444,-0.008972,0.011414,-0.99054,0.388794,0.478168,0.036947,53,281,587,6240
1644185108.486278,-0.009094,0.010864,-0.990356,0.297191,0.371298,-0.130992,51,262,585,6224
1644185108.531214,-0.007568,0.00824,-0.990234,0.190321,0.447634,-0.039389,49,273,579,6160
1644185108.626819,-0.009033,0.010925,-0.991699,0.236122,0.493435,-0.100458,49,275,586,6128
1644185108.675388,-0.00946,0.00824,-0.991943,0.129252,0.401832,-0.130992,48,276,576,6224
1644185108.723622,-0.007141,0.010986,-0.990417,0.35826,0.340763,-0.085191,46,274,590,6192
1644185108.772019,-0.008179,0.009827,-0.990784,0.190321,0.493435,-0.054656,45,275,579,6256
1644185108.820407,-0.008362,0.008728,-0.989014,0.220855,0.462901,-0.085191,45,282,579,6256
1644185108.868852,-0.008789,0.009827,-0.988708,0.251389,0.447634,-0.161527,49,270,586,6224
1644185108.917236,-0.008179,0.00885,-0.990601,0.297191,0.417099,-0.161527,48,279,585,6176
1644185108.965634,-0.007202,0.009705,-0.991211,0.373527,0.371298,-0.176794,51,283,583,6224
1644185109.014017,-0.00647,0.008301,-0.991272,0.129252,0.462901,-0.039389,49,282,582,6176
1644185109.06369,-0.008179,0.009399,-0.991089,0.266656,0.386565,-0.100458,45,282,586,6176
1644185109.110792,-0.010437,0.007568,-0.994019,0.297191,0.310229,-0.14626,47,282,586,6224
1644185109.159129,-0.009888,0.012024,-0.992065,0.098718,0.493435,-0.100458,52,275,589,6224
1644185109.207537,-0.008484,0.012085,-0.991028,0.205588,0.233893,-0.115725,54,285,596,6288
1644185109.255956,-0.008545,0.008484,-0.990295,0.281924,0.356031,-0.161527,43,271,583,6224
1644185109.304345,-0.007629,0.005737,-0.9953,0.281924,0.478168,-0.100458,47,277,584,6192
1644185109.352816,-0.009949,0.010132,-0.994385,0.281924,0.432366,-0.192061,57,275,577,6240
1644185109.401122,-0.007324,0.01062,-0.990173,0.129252,0.279695,-0.130992,51,279,578,6112
1644185109.449522,-0.009644,0.013855,-0.989807,0.190321,0.386565,-0.115725,45,280,575,6240
1644185109.498202,-0.005615,0.010376,-0.991577,0.220855,0.279695,-0.161527,49,277,584,6240
1644185109.546673,-0.010376,0.010193,-0.991089,0.236122,0.356031,-0.024122,48,288,585,6224
1644185109.597249,-0.010254,0.010925,-0.990906,0.175053,0.401832,-0.100458,39,274,590,6176
1644185109.647326,-0.008057,0.01178,-0.992493,0.312458,0.417099,-0.085191,39,269,590,6224
1644185109.692458,-0.009521,0.008484,-0.991394,0.373527,0.523969,0.052214,51,271,578,6224
1644185109.788251,-0.00824,0.01239,-0.99231,0.281924,0.417099,-0.192061,47,277,586,6224
1644185109.836643,-0.009644,0.00824,-0.991455,0.220855,0.371298,-0.054656,47,273,584,6192
1644185109.885128,-0.008545,0.010254,-0.991089,0.205588,0.340763,-0.085191,45,273,584,6176
1644185109.933499,-0.008423,0.00708,-0.991943,0.327725,0.447634,-0.130992,46,274,585,6224
1644185109.981883,-0.008789,0.01123,-0.990417,0.144519,0.432366,-0.008855,43,274,597,6240
1644185110.030282,-0.008606,0.010925,-0.99054,0.08345,0.478168,-0.100458,45,270,589,6128
1644185110.078827,-0.009827,0.012939,-0.992432,0.08345,0.401832,-0.222595,53,274,583,6192
1644185110.127025,-0.007141,0.006409,-0.993591,0.175053,0.356031,-0.115725,49,280,584,6176
1644185110.175405,-0.009583,0.012329,-0.990906,0.281924,0.371298,-0.100458,48,281,573,6128
1644185110.223812,-0.010925,0.01062,-0.98938,0.297191,0.447634,-0.054656,45,270,582,6224
1644185110.272249,-0.010803,0.012268,-0.988464,0.236122,0.325496,0.113282,53,279,597,6256
1644185110.320595,-0.007568,0.010803,-0.991699,0.281924,0.432366,-0.008855,40,265,575,6192
1644185110.369003,-0.009705,0.011475,-0.991821,0.190321,0.371298,-0.115725,54,292,586,6160
1644185110.417342,-0.00769,0.009827,-0.991211,0.312458,0.233893,0.006412,47,277,577,6224
1644185110.465774,-0.007751,0.007202,-0.99054,0.251389,0.478168,-0.115725,52,282,591,6192
1644185110.51416,-0.009827,0.012268,-0.990112,0.159786,0.462901,-0.14626,38,277,584,6240
1644185110.562578,-0.009705,0.011169,-0.99176,0.266656,0.478168,-0.222595,35,273,579,6240
1644185110.610942,-0.00885,0.010376,-0.98877,0.144519,0.401832,-0.024122,46,274,587,6224
1644185110.659352,-0.007263,0.009583,-0.99353,0.175053,0.447634,-0.14626,46,276,583,6240
1644185110.708184,-0.008484,0.010376,-0.990784,0.312458,0.401832,-0.14626,54,277,589,6240
1644185110.75878,-0.008423,0.012024,-0.989746,0.342992,0.24916,-0.130992,46,274,585,6192
1644185110.808676,-0.007751,0.010437,-0.98999,0.297191,0.356031,-0.054656,55,279,583,6192
1644185110.853799,-0.004272,0.009277,-0.989868,0.373527,0.386565,-0.024122,34,276,578,6176
1644185110.949736,-0.008118,0.010315,-0.989929,0.190321,0.401832,0.036947,51,276,580,6256
1644185110.998105,-0.006714,0.008972,-0.993286,0.281924,0.310229,-0.100458,45,282,582,6192
1644185111.065193,-0.009338,0.011292,-0.991333,0.342992,0.508702,-0.085191,38,277,584,6192
1644185111.096772,-0.007996,0.00824,-0.990051,0.144519,0.401832,-0.115725,51,269,583,6224
1644185111.143297,-0.009216,0.008911,-0.991394,0.236122,0.371298,-0.008855,58,281,585,6240
1644185111.19167,-0.008057,0.009338,-0.993591,0.327725,0.401832,-0.14626,66,273,596,6256
1644185111.240058,-0.008301,0.010498,-0.991882,0.312458,0.432366,-0.069924,51,281,585,6224
1644185111.288455,-0.009644,0.009399,-0.990234,0.236122,0.356031,0.021679,55,279,587,6224
1644185111.336845,-0.006958,0.013794,-0.989319,0.297191,0.310229,-0.008855,58,279,576,6224
1644185111.385235,-0.010071,0.010559,-0.989685,0.342992,0.523969,-0.024122,52,270,593,6176
1644185111.433629,-0.006226,0.009888,-0.992126,0.281924,0.447634,-0.069924,46,274,592,6224
1644185111.482046,-0.008728,0.010315,-0.992554,0.159786,0.340763,-0.161527,61,273,593,6224
1644185111.532197,-0.007751,0.010498,-0.991028,0.190321,0.371298,-0.14626,53,283,587,6224
1644185111.582342,-0.011169,0.01123,-0.992676,0.312458,0.401832,-0.115725,49,280,577,6224
1644185111.627377,-0.010193,0.012024,-0.993225,0.312458,0.417099,-0.085191,47,282,575,6176
1644185111.723997,-0.007812,0.01239,-0.990967,0.312458,0.386565,-0.069924,57,287,579,6240
1644185111.772408,-0.007812,0.009155,-0.99115,0.052916,0.554504,-0.039389,52,280,591,6224
1644185111.82076,-0.007263,0.011658,-0.990234,0.266656,0.24916,-0.069924,47,263,582,6176
1644185111.869173,-0.005981,0.010681,-0.99292,0.251389,0.447634,-0.069924,47,287,586,6256
1644185111.917593,-0.007874,0.010254,-0.990234,0.175053,0.447634,-0.161527,48,274,585,6176
1644185111.965991,-0.007751,0.011047,-0.990479,0.190321,0.356031,-0.14626,47,282,579,6192
1644185112.014371,-0.007446,0.012085,-0.991028,0.236122,0.279695,-0.054656,39,279,585,6192
1644185112.067648,-0.008667,0.012268,-0.99231,0.08345,0.279695,-0.176794,49,277,584,6224
1644185112.11108,-0.009399,0.012451,-0.990723,0.220855,0.462901,-0.192061,49,280,593,6224
1644185112.159706,-0.007202,0.009277,-0.991394,0.175053,0.386565,-0.161527,42,285,589,6224
1644185112.207917,-0.005676,0.011658,-0.989441,0.342992,0.294962,-0.222595,49,285,591,6224
1644185112.256301,-0.007141,0.008545,-0.990356,0.220855,0.554504,0.021679,46,266,585,6224
1644185112.304789,-0.007568,0.007996,-0.992737,0.251389,0.478168,-0.054656,54,265,589,6224
1644185112.353121,-0.007446,0.010315,-0.992004,0.113985,0.371298,0.006412,51,276,583,6176
1644185112.401489,-0.009216,0.008301,-0.991211,0.220855,0.462901,-0.054656,47,280,570,6240
1644185112.449877,-0.007446,0.008118,-0.992737,0.159786,0.401832,-0.024122,45,275,577,6240
1644185112.498274,-0.008423,0.009094,-0.992126,0.236122,0.264427,0.006412,49,268,596,6224
1644185112.546662,-0.008362,0.008545,-0.992004,0.297191,0.371298,-0.115725,49,282,591,6224
1644185112.595088,-0.007996,0.010986,-0.991455,0.281924,0.325496,-0.039389,46,281,578,6192
1644185112.643665,-0.010315,0.009644,-0.990173,0.297191,0.447634,-0.14626,42,280,579,6192
1644185112.69406,-0.009216,0.008545,-0.992981,0.434595,0.447634,-0.069924,45,280,584,6224
1644185112.744207,-0.009155,0.011414,-0.990906,0.08345,0.493435,-0.115725,49,282,600,6224
1644185112.789341,-0.008606,0.010803,-0.993469,0.144519,0.325496,-0.008855,38,273,575,6192
1644185112.885468,-0.006897,0.009399,-0.98938,0.144519,0.432366,-0.085191,48,274,576,6224
1644185112.933873,-0.007935,0.008545,-0.989258,0.312458,0.508702,-0.115725,41,279,578,6192
1644185112.982428,-0.00885,0.011414,-0.993225,0.007115,0.417099,-0.207328,47,280,582,6256
1644185113.03062,-0.00647,0.013184,-0.99054,0.190321,0.386565,-0.130992,48,283,583,6240
1644185113.079065,-0.005737,0.012634,-0.993408,0.312458,0.371298,-0.069924,47,280,598,6240
1644185113.127374,-0.006348,0.009399,-0.989563,0.159786,0.386565,-0.024122,39,283,583,6224
1644185113.175762,-0.007507,0.013733,-0.992615,0.342992,0.371298,0.006412,41,276,580,6192
1644185113.224181,-0.007874,0.009521,-0.990173,0.236122,0.432366,-0.024122,43,279,580,6240
1644185113.272552,-0.007874,0.010559,-0.991638,0.205588,0.401832,-0.008855,54,277,584,6224
1644185113.320968,-0.008118,0.009521,-0.991577,0.220855,0.356031,0.006412,47,270,579,6224
1644185113.369343,-0.005981,0.009521,-0.992737,0.236122,0.417099,-0.222595,45,280,582,6128
1644185113.417738,-0.008911,0.009583,-0.991638,0.220855,0.356031,0.006412,61,270,582,6224
1644185113.466127,-0.007263,0.012085,-0.992432,0.175053,0.371298,-0.085191,57,285,589,6224
1644185113.514518,-0.008606,0.00885,-0.99231,0.419328,0.646107,-0.14626,45,285,589,6240
1644185113.562894,-0.009338,0.011536,-0.989136,0.297191,0.417099,-0.176794,49,290,589,6224
1644185113.6113,-0.010132,0.009033,-0.992493,0.266656,0.401832,0.036947,42,290,582,6224
1644185113.659705,-0.008057,0.008606,-0.990784,0.037649,0.478168,-0.192061,53,276,580,6224
1644185113.708088,-0.009705,0.008484,-0.991882,0.327725,0.432366,-0.115725,43,281,587,6192
1644185113.756624,-0.007751,0.011719,-0.989502,0.236122,0.294962,-0.039389,54,277,586,6224
1644185113.807207,-0.006775,0.008911,-0.990906,0.281924,0.340763,-0.008855,49,268,582,6160
1644185113.858277,-0.009583,0.009216,-0.994568,0.297191,0.554504,-0.237863,47,273,589,6240
1644185113.902735,-0.010925,0.006836,-0.991577,0.281924,0.356031,-0.207328,46,274,585,6192
1644185113.998476,-0.007263,0.010803,-0.991943,0.220855,0.462901,-0.130992,52,265,586,6192
1644185114.046869,-0.008118,0.012024,-0.989075,0.266656,0.371298,-0.100458,46,266,583,6288
1644185114.095426,-0.009949,0.011353,-0.990417,0.129252,0.478168,-0.14626,45,287,584,6240
1644185114.143632,-0.007385,0.010681,-0.991211,0.251389,0.447634,0.036947,47,275,568,6240
1644185114.19204,-0.007935,0.009583,-0.991516,0.266656,0.447634,0.098015,57,270,575,6256
1644185114.24042,-0.006836,0.007812,-0.99231,0.35826,0.554504,-0.100458,49,277,584,6176
1644185114.288798,-0.008545,0.011475,-0.989929,0.251389,0.325496,-0.085191,58,276,585,6224
1644185114.33721,-0.009521,0.008667,-0.992065,0.159786,0.447634,-0.100458,53,274,590,6224
1644185114.385607,-0.009277,0.012451,-0.989746,0.205588,0.554504,-0.085191,57,280,582,6224
1644185114.433998,-0.008118,0.010376,-0.991638,0.236122,0.401832,-0.130992,45,275,584,6240
1644185114.482393,-0.007568,0.013672,-0.988098,0.159786,0.478168,-0.054656,48,281,585,6192
1644185114.530764,-0.006958,0.009521,-0.990723,0.220855,0.478168,-0.039389,45,277,579,6160
1644185114.579485,-0.006165,0.011108,-0.992859,0.113985,0.386565,-0.237863,54,280,584,6240
1644185114.628414,-0.011169,0.007019,-0.99353,-0.053954,0.569771,-0.130992,49,265,582,6256
1644185114.679012,-0.008972,0.010559,-0.992065,0.251389,0.447634,-0.069924,47,275,584,6224
1644185114.729153,-0.010132,0.011475,-0.99353,0.159786,0.356031,-0.14626,54,275,586,6256
1644185114.774057,-0.009949,0.012756,-0.990906,0.312458,0.401832,-0.054656,43,279,587,6224
1644185114.869566,-0.009827,0.010559,-0.990601,0.312458,0.294962,-0.161527,53,286,587,6224
1644185114.917921,-0.00885,0.010193,-0.991455,0.159786,0.478168,-0.008855,47,280,582,6240
1644185114.96634,-0.008301,0.00946,-0.991455,0.281924,0.371298,0.021679,48,271,590,6224
1644185115.01474,-0.009033,0.009277,-0.994385,0.281924,0.340763,-0.268397,46,274,578,6224
1644185115.068195,-0.00708,0.010193,-0.990845,0.068183,0.447634,-0.25313,39,279,587,6192
1644185115.111523,-0.003784,0.009216,-0.99231,0.281924,0.417099,-0.115725,55,279,583,6176
1644185115.159872,-0.006897,0.011902,-0.990601,0.251389,0.340763,-0.161527,57,275,570,6192
1644185115.20826,-0.005676,0.011353,-0.990967,0.236122,0.24916,-0.069924,51,264,583,6256
1644185115.256667,-0.008362,0.009094,-0.99176,0.342992,0.325496,-0.024122,36,274,585,6176
1644185115.30518,-0.008972,0.008423,-0.991333,0.220855,0.432366,-0.130992,41,276,578,6192
1644185115.353464,-0.008423,0.010559,-0.989624,0.297191,0.417099,-0.130992,49,282,579,6224
1644185115.401862,-0.010559,0.00708,-0.991455,0.175053,0.462901,-0.115725,61,265,577,6192
1644185115.450234,-0.006836,0.01123,-0.991699,0.220855,0.371298,-0.085191,47,273,593,6224
1644185115.49863,-0.009949,0.009766,-0.992737,0.022382,0.417099,-0.115725,42,282,577,6256
1644185115.547017,-0.007935,0.009583,-0.98999,0.312458,0.24916,-0.130992,47,282,586,6224
1644185115.595427,-0.008484,0.010437,-0.988281,0.220855,0.432366,0.036947,47,275,589,6240
1644185115.643817,-0.006958,0.008728,-0.992737,0.297191,0.325496,-0.069924,46,276,585,6240
1644185115.692238,-0.006409,0.01062,-0.992065,0.068183,0.401832,-0.054656,52,282,579,6176
1644185115.740631,-0.008972,0.010071,-0.992737,0.297191,0.432366,-0.115725,45,275,582,6256
1644185115.789476,-0.009888,0.011536,-0.992615,0.220855,0.401832,-0.085191,48,276,583,6224
1644185115.840336,-0.010742,0.009155,-0.989807,0.190321,0.554504,-0.130992,46,269,578,6128
1644185115.891177,-0.006409,0.010864,-0.989685,0.098718,0.462901,0.067481,48,276,587,6240
1644185115.935797,-0.009216,0.010803,-0.99054,0.129252,0.371298,-0.130992,54,280,572,6224
1644185116.030987,-0.005859,0.010986,-0.991333,0.297191,0.356031,-0.024122,47,270,579,6240
1644185116.082525,-0.00647,0.012451,-0.990967,0.159786,0.340763,-0.085191,46,281,587,6224
1644185116.127772,-0.007629,0.012329,-0.992004,0.205588,0.294962,-0.130992,48,276,587,6224
1644185116.17613,-0.006836,0.011719,-0.991699,0.327725,0.432366,-0.024122,49,270,584,6176
1644185116.224529,-0.008423,0.011597,-0.988037,0.266656,0.432366,0.036947,39,288,576,6192
1644185116.272912,-0.009216,0.007935,-0.989075,0.205588,0.478168,-0.130992,59,273,582,6224
1644185116.32132,-0.005371,0.01123,-0.989685,0.159786,0.233893,-0.130992,49,273,589,6128
1644185116.369704,-0.007568,0.010681,-0.992126,0.144519,0.371298,-0.161527,49,275,582,6224
1644185116.418101,-0.007019,0.009827,-0.993164,0.220855,0.371298,-0.100458,46,274,587,6128
1644185116.466491,-0.006409,0.009888,-0.988403,0.205588,0.279695,-0.054656,51,276,580,6224
1644185116.514864,-0.007263,0.013062,-0.991577,0.113985,0.508702,-0.054656,52,280,582,6240
1644185116.563287,-0.006348,0.010681,-0.990173,0.266656,0.218626,-0.161527,66,270,586,6224
1644185116.611647,-0.004944,0.009949,-0.991394,0.297191,0.569771,-0.176794,48,279,583,6256
1644185116.660067,-0.005249,0.008972,-0.992432,0.022382,0.493435,-0.161527,48,271,585,6160
1644185116.708456,-0.007446,0.012207,-0.991943,0.281924,0.356031,-0.161527,52,270,582,6224
1644185116.75683,-0.010437,0.008667,-0.988586,0.312458,0.325496,-0.161527,41,279,587,6240
1644185116.805237,-0.008606,0.010986,-0.992432,0.129252,0.371298,-0.115725,52,268,582,6224
1644185116.853701,-0.008545,0.011597,-0.993042,0.159786,0.356031,-0.298931,48,288,590,6224
1644185116.904977,-0.005737,0.007812,-0.991211,0.175053,0.493435,-0.085191,54,268,584,6160
1644185116.955776,-0.009827,0.012878,-0.990967,0.175053,0.371298,-0.085191,41,276,576,6176
1644185116.999971,-0.007324,0.010376,-0.992126,0.35826,0.310229,-0.039389,47,277,582,6192
1644185117.097092,-0.003601,0.009888,-0.990295,0.205588,0.462901,-0.085191,48,271,594,6224
1644185117.143996,-0.008301,0.010498,-0.989502,0.281924,0.340763,0.006412,55,283,585,6224
1644185117.192389,-0.008301,0.008667,-0.989075,0.266656,0.325496,-0.054656,43,281,583,6224
1644185117.240774,-0.008362,0.012268,-0.992737,0.129252,0.432366,-0.115725,54,275,577,6224
1644185117.289209,-0.003967,0.012512,-0.992371,0.312458,0.401832,-0.085191,48,279,583,6224
1644185117.337563,-0.008606,0.011108,-0.989258,0.297191,0.310229,-0.039389,48,274,580,6240
1644185117.385951,-0.008423,0.009399,-0.991455,0.205588,0.325496,-0.115725,58,281,585,6224
1644185117.434349,-0.008179,0.011902,-0.990051,0.129252,0.325496,-0.192061,45,285,591,6176
1644185117.482748,-0.004822,0.007324,-0.993835,0.190321,0.340763,-0.192061,43,276,583,6224
1644185117.531139,-0.007629,0.010193,-0.990784,0.098718,0.264427,-0.115725,54,282,586,6240
1644185117.579527,-0.009644,0.010681,-0.991943,0.144519,0.478168,0.021679,55,274,580,6192
1644185117.627929,-0.005676,0.009521,-0.990967,0.327725,0.310229,-0.100458,46,276,583,6224
1644185117.676318,-0.009216,0.010925,-0.989807,0.144519,0.401832,0.021679,46,276,578,6240
1644185117.72472,-0.009521,0.012268,-0.990417,0.068183,0.371298,-0.069924,53,274,580,6240
1644185117.773115,-0.010742,0.007629,-0.992004,0.037649,0.493435,-0.192061,59,280,570,6192
1644185117.821495,-0.006287,0.006836,-0.991455,0.297191,0.600305,-0.14626,52,273,598,6192
1644185117.869922,-0.006653,0.01062,-0.98938,0.266656,0.432366,-0.100458,61,282,586,6160
1644185117.918327,-0.009338,0.012756,-0.991455,0.205588,0.401832,-0.192061,48,274,583,6224
1644185117.967578,-0.007507,0.010376,-0.991455,0.220855,0.279695,-0.237863,57,263,584,6256
1644185118.017247,-0.008728,0.012634,-0.992004,0.190321,0.432366,-0.100458,46,279,578,6224
1644185118.111857,-0.008362,0.009277,-0.993591,0.205588,0.478168,-0.161527,45,282,584,6128
1644185118.160272,-0.009033,0.01123,-0.989807,0.220855,0.539237,-0.115725,48,276,578,6176
1644185118.208641,-0.006165,0.013,-0.988708,0.220855,0.310229,0.021679,48,264,594,6224
1644185118.257005,-0.007263,0.008972,-0.990784,0.159786,0.462901,-0.054656,47,265,577,6256
1644185118.305411,-0.008484,0.011963,-0.991333,0.175053,0.371298,-0.024122,51,276,578,6224
1644185118.353817,-0.006958,0.012146,-0.990906,0.220855,0.356031,0.006412,46,276,580,6224
1644185118.402207,-0.007324,0.015198,-0.99115,0.220855,0.432366,-0.085191,48,279,583,6240
1644185118.450602,-0.009338,0.010681,-0.989441,0.327725,0.401832,-0.024122,54,280,579,6240
1644185118.498967,-0.00769,0.011597,-0.993408,0.281924,0.371298,-0.14626,52,275,586,6176
1644185118.547388,-0.009705,0.010437,-0.992493,0.175053,0.493435,-0.085191,45,273,586,6224
1644185118.595759,-0.007874,0.010437,-0.991699,0.297191,0.447634,-0.039389,49,275,577,6176
1644185118.644162,-0.005188,0.010437,-0.991028,0.373527,0.401832,0.006412,54,273,582,6176
1644185118.692585,-0.00592,0.010803,-0.988037,0.281924,0.508702,0.098015,47,275,591,6176
1644185118.740965,-0.009277,0.010742,-0.991394,0.236122,0.432366,-0.222595,53,279,583,6240
1644185118.789334,-0.009521,0.010986,-0.990356,0.220855,0.203359,-0.161527,49,280,593,6192
1644185118.837747,-0.007996,0.00885,-0.991333,0.251389,0.508702,-0.069924,45,273,596,6240
1644185118.886174,-0.008301,0.011536,-0.992432,0.327725,0.478168,-0.176794,52,273,579,6224
1644185118.934751,-0.007385,0.01062,-0.991455,0.281924,0.401832,-0.039389,57,275,579,6160
1644185118.982992,-0.004883,0.007751,-0.993347,0.113985,0.24916,-0.039389,48,279,592,6224
1644185119.032928,-0.008362,0.012634,-0.990417,0.190321,0.233893,0.036947,55,276,599,6224
1644185119.093768,-0.008118,0.008362,-0.992554,0.098718,0.508702,-0.069924,42,273,586,6224
1644185119.133251,-0.01062,0.01239,-0.992554,0.251389,0.432366,-0.268397,48,279,587,6192
1644185119.177878,-0.01001,0.011536,-0.991333,0.236122,0.401832,0.006412,47,277,584,6176
1644185119.273334,-0.007141,0.011963,-0.991028,0.175053,0.523969,-0.008855,53,276,580,6240
1644185119.321697,-0.006531,0.010498,-0.990051,0.327725,0.478168,-0.100458,51,286,576,6112
1644185119.37009,-0.008423,0.00946,-0.990784,0.266656,0.386565,-0.14626,43,279,587,6176
1644185119.418504,-0.00824,0.007446,-0.99292,0.312458,0.325496,-0.008855,53,276,585,6256
1644185119.466872,-0.006592,0.007996,-0.990845,0.190321,0.401832,-0.161527,46,269,585,6256
1644185119.515285,-0.010132,0.010071,-0.992676,0.251389,0.493435,-0.039389,49,285,584,6160
1644185119.563726,-0.009399,0.008118,-0.989319,0.190321,0.539237,0.021679,51,274,580,6240
1644185119.612075,-0.010071,0.00647,-0.992798,0.175053,0.356031,-0.069924,51,281,587,6192
1644185119.660435,-0.00647,0.008667,-0.99231,0.236122,0.371298,-0.14626,38,277,582,6224
1644185119.708864,-0.004639,0.010437,-0.991455,0.098718,0.264427,-0.237863,46,279,580,6224
1644185119.757226,-0.006226,0.011292,-0.992554,0.236122,0.340763,-0.115725,52,263,575,6160
1644185119.805616,-0.007874,0.011475,-0.988953,0.266656,0.508702,-0.085191,46,279,578,6240
1644185119.854044,-0.007935,0.009583,-0.993896,0.113985,0.432366,-0.222595,54,282,582,6256
1644185119.902442,-0.00946,0.010437,-0.99176,0.281924,0.279695,-0.024122,49,273,586,6192
1644185119.950818,-0.009827,0.010925,-0.992493,0.404061,0.310229,-0.008855,42,282,591,6240
1644185119.999185,-0.008545,0.007812,-0.992249,0.220855,0.371298,-0.085191,54,273,579,6176
1644185120.066221,-0.00647,0.012573,-0.990234,0.175053,0.386565,-0.192061,53,283,594,6192
1644185120.101621,-0.006897,0.010742,-0.991455,0.113985,0.264427,-0.176794,46,276,587,6224
1644185120.145008,-0.008301,0.012878,-0.990967,0.404061,0.279695,-0.130992,46,281,583,6176
1644185120.195429,-0.005127,0.010071,-0.992249,0.236122,0.508702,-0.14626,47,280,591,6160
1644185120.245628,-0.008911,0.011292,-0.991333,0.08345,0.462901,0.098015,45,280,584,6224
1644185120.290667,-0.007629,0.011292,-0.991821,0.35826,0.340763,-0.130992,41,281,585,6224
1644185120.386297,-0.008301,0.011902,-0.990417,0.266656,0.462901,-0.130992,35,277,575,6256
1644185120.434865,-0.006531,0.009583,-0.991699,0.205588,0.401832,-0.085191,46,269,573,6160
1644185120.483105,-0.005737,0.009949,-0.991333,0.08345,0.294962,0.036947,47,277,589,6192
1644185120.531502,-0.007446,0.008423,-0.994446,0.281924,0.401832,-0.024122,47,277,591,6256
1644185120.579887,-0.009583,0.010193,-0.995117,0.113985,0.264427,-0.008855,60,276,583,6224
1644185120.628292,-0.007324,0.011414,-0.991089,0.342992,0.310229,-0.176794,54,280,584,6160
1644185120.676665,-0.010376,0.009094,-0.993469,0.312458,0.417099,-0.100458,45,282,582,6192
1644185120.725099,-0.007568,0.009216,-0.989746,0.220855,0.371298,-0.14626,55,276,583,6224
1644185120.773472,-0.008301,0.009155,-0.991638,0.373527,0.325496,-0.283664,48,279,585,6176
1644185120.821879,-0.007812,0.011536,-0.99115,0.35826,0.325496,0.021679,60,279,585,6256
1644185120.870281,-0.006836,0.01001,-0.992004,0.175053,0.508702,-0.039389,38,280,586,6128
1644185120.918646,-0.006042,0.010559,-0.992188,0.190321,0.417099,-0.024122,42,275,575,6224
1644185120.967069,-0.00885,0.01001,-0.991821,0.419328,0.417099,0.036947,42,268,572,6224
1644185121.01546,-0.007324,0.008423,-0.991333,0.236122,0.462901,-0.054656,43,276,585,6256
1644185121.072551,-0.008301,0.009766,-0.989502,0.205588,0.279695,0.006412,46,279,583,6240
1644185121.112237,-0.005737,0.009155,-0.991028,0.236122,0.356031,-0.25313,49,265,591,6192
1644185121.16061,-0.010437,0.009644,-0.990295,0.236122,0.447634,0.036947,54,270,586,6224
1644185121.208991,-0.008118,0.007751,-0.989868,0.205588,0.432366,-0.161527,51,276,592,6176
1644185121.257393,-0.010925,0.009338,-0.991455,0.251389,0.356031,-0.176794,60,274,594,6256
1644185121.305859,-0.007751,0.01178,-0.989807,0.236122,0.294962,-0.176794,52,277,584,6224
1644185121.356274,-0.008118,0.011719,-0.992004,0.266656,0.386565,-0.161527,48,276,580,6192
1644185121.406426,-0.009888,0.011047,-0.991089,0.281924,0.356031,-0.207328,55,288,578,6240
1644185121.45159,-0.008057,0.012146,-0.994202,0.327725,0.264427,-0.069924,42,273,591,6240
1644185121.547725,-0.008362,0.010193,-0.991821,0.113985,0.478168,-0.14626,61,280,589,6256
1644185121.596127,-0.00708,0.010071,-0.993225,0.266656,0.478168,0.006412,49,282,586,6160
1644185121.644547,-0.005981,0.009399,-0.989197,0.236122,0.401832,-0.237863,57,277,586,6160
1644185121.692931,-0.007324,0.007446,-0.990906,0.236122,0.447634,-0.130992,46,271,583,6160
1644185121.741323,-0.008606,0.008667,-0.990051,0.129252,0.478168,-0.344733,49,282,584,6224
1644185121.789711,-0.00531,0.011902,-0.992493,0.113985,0.447634,0.052214,34,276,590,6256
1644185121.838121,-0.009888,0.010315,-0.989624,0.190321,0.340763,-0.237863,49,270,577,6224
1644185121.886536,-0.007446,0.010986,-0.993103,0.327725,0.325496,-0.100458,54,282,579,6176
1644185121.934956,-0.007629,0.010254,-0.992615,0.159786,0.417099,-0.268397,58,274,580,6192
1644185121.983332,-0.007324,0.012451,-0.993896,0.068183,0.417099,-0.069924,53,276,580,6192
1644185122.031704,-0.007935,0.010254,-0.991882,0.190321,0.294962,-0.14626,52,273,584,6224
1644185122.086126,-0.006897,0.012573,-0.992004,0.297191,0.356031,-0.100458,51,276,587,6224
1644185122.128482,-0.005676,0.008545,-0.989502,0.236122,0.432366,0.052214,55,283,587,6224
1644185122.176829,-0.005432,0.009583,-0.991028,0.129252,0.401832,-0.054656,51,279,585,6160
1644185122.225247,-0.00885,0.012573,-0.990784,0.312458,0.386565,-0.14626,48,279,583,6192
1644185122.273966,-0.007141,0.010376,-0.98938,0.342992,0.218626,-0.008855,47,282,586,6224
1644185122.322813,-0.008301,0.009888,-0.991089,0.251389,0.508702,-0.024122,49,277,582,6256
1644185122.373328,-0.007812,0.009094,-0.99231,0.236122,0.447634,-0.100458,47,273,589,6224
1644185122.423447,-0.009949,0.012146,-0.989685,0.098718,0.493435,-0.054656,45,280,579,6240
1644185122.515642,-0.00708,0.007874,-0.990906,0.236122,0.493435,-0.069924,47,277,575,6224
1644185122.56402,-0.007507,0.01001,-0.989929,0.297191,0.417099,0.098015,53,281,585,6192
1644185122.612403,-0.006531,0.009521,-0.991455,0.159786,0.325496,-0.039389,49,277,584,6192
1644185122.660791,-0.008179,0.00885,-0.994141,0.037649,0.356031,0.006412,48,269,583,6224
1644185122.70917,-0.009521,0.008118,-0.990784,0.297191,0.356031,-0.069924,46,279,587,6240
1644185122.757546,-0.007935,0.009338,-0.989258,0.312458,0.417099,-0.115725,51,276,590,6224
1644185122.805928,-0.007996,0.011353,-0.99115,0.190321,0.432366,-0.024122,45,265,589,6240
1644185122.854399,-0.00885,0.009644,-0.990662,0.327725,0.432366,-0.100458,54,280,586,6240
1644185122.902809,-0.004517,0.007507,-0.990967,0.08345,0.493435,-0.161527,48,291,583,6160
1644185122.951193,-0.009949,0.008362,-0.990234,0.144519,0.523969,-0.024122,60,279,580,6224
1644185122.999574,-0.005371,0.010254,-0.98999,0.35826,0.462901,-0.054656,45,277,598,6240
1644185123.066488,-0.009583,0.010559,-0.989563,0.205588,0.432366,-0.161527,58,286,583,6128
1644185123.098762,-0.006409,0.010071,-0.993408,0.236122,0.523969,-0.14626,43,271,585,6128
1644185123.144753,-0.009094,0.009888,-0.990356,0.08345,0.600305,-0.161527,48,269,580,6224
1644185123.19313,-0.003967,0.009644,-0.990845,0.297191,0.432366,-0.054656,35,275,577,6160
1644185123.241489,-0.009094,0.009155,-0.991943,0.327725,0.401832,-0.085191,51,283,592,6224
1644185123.289889,-0.01001,0.012817,-0.988464,0.144519,0.462901,-0.100458,51,283,583,6240
1644185123.33828,-0.005615,0.01001,-0.992554,0.220855,0.325496,-0.268397,46,274,580,6224
1644185123.386684,-0.006226,0.010315,-0.98877,0.175053,0.401832,-0.054656,57,285,584,6192
1644185123.435914,-0.008484,0.010376,-0.992798,0.159786,0.279695,-0.237863,54,282,582,6256
1644185123.485597,-0.005249,0.008789,-0.989929,0.129252,0.462901,-0.085191,59,280,589,6240
1644185123.535836,-0.006775,0.01178,-0.99054,0.175053,0.508702,-0.14626,45,287,589,6224
1644185123.580874,-0.007446,0.010071,-0.99231,0.236122,0.233893,-0.283664,58,276,583,6224
1644185123.677016,-0.008789,0.009827,-0.989197,0.144519,0.432366,-0.130992,49,277,582,6224
1644185123.725413,-0.007874,0.011841,-0.991882,0.144519,0.218626,-0.130992,41,281,576,6176
1644185123.773823,-0.005493,0.009827,-0.992798,0.113985,0.386565,-0.069924,49,270,582,6240
1644185123.822643,-0.005432,0.010437,-0.990967,0.220855,0.356031,-0.237863,53,276,580,6224
1644185123.870644,-0.008667,0.010437,-0.991028,0.068183,0.24916,-0.054656,53,274,580,6128
1644185123.919032,-0.007568,0.012817,-0.989807,0.113985,0.523969,-0.115725,51,269,585,6224
1644185123.96744,-0.007446,0.010925,-0.989929,0.159786,0.401832,-0.14626,48,279,590,6224
1644185124.015826,-0.009888,0.009644,-0.990723,0.205588,0.325496,-0.161527,41,274,587,6224
1644185124.06866,-0.006287,0.009705,-0.989807,0.327725,0.340763,-0.069924,53,276,587,6192
1644185124.112621,-0.00824,0.009705,-0.991211,0.266656,0.447634,-0.100458,49,282,584,6176
1644185124.160969,-0.008667,0.009155,-0.99292,0.327725,0.356031,-0.14626,45,285,575,6256
1644185124.209368,-0.008118,0.011108,-0.994019,0.266656,0.356031,-0.024122,46,269,583,6160
1644185124.257727,-0.008484,0.008728,-0.991089,0.098718,0.417099,-0.14626,53,274,578,6224
1644185124.306136,-0.005798,0.009888,-0.993103,0.404061,0.417099,-0.192061,46,279,587,6160
1644185124.354549,-0.006958,0.009277,-0.991516,0.129252,0.325496,-0.130992,47,277,598,6160
1644185124.402938,-0.005005,0.008301,-0.988403,0.205588,0.585038,-0.100458,49,285,579,6128
1644185124.451337,-0.005005,0.008972,-0.989929,0.190321,0.279695,-0.085191,58,279,587,6240
1644185124.499689,-0.009888,0.007507,-0.991882,0.251389,0.432366,-0.039389,52,273,570,6176
1644185124.548102,-0.007446,0.010986,-0.987854,0.220855,0.432366,-0.176794,42,282,586,6112
1644185124.596526,-0.008545,0.009949,-0.992615,0.113985,0.386565,-0.130992,47,273,586,6160
1644185124.64668,-0.008057,0.009521,-0.990051,0.251389,0.386565,-0.085191,58,283,576,6176
1644185124.69713,-0.008301,0.009094,-0.990173,0.205588,0.462901,0.098015,53,276,587,6112
1644185124.742024,-0.00769,0.011047,-0.989929,0.190321,0.417099,0.082748,40,285,577,6160
1644185124.838458,-0.008789,0.010803,-0.991821,0.205588,0.539237,-0.115725,57,275,584,6224
1644185124.886912,-0.007935,0.007385,-0.990967,0.190321,0.401832,0.12855,45,280,572,6224
1644185124.93528,-0.011841,0.009888,-0.990417,0.297191,0.462901,0.036947,48,286,576,6176
1644185124.983699,-0.008911,0.007874,-0.990173,0.098718,0.401832,-0.237863,46,269,583,6192
1644185125.032063,-0.010559,0.009583,-0.991882,0.297191,0.478168,-0.024122,57,277,589,6176
1644185125.080527,-0.010559,0.008667,-0.990784,0.175053,0.294962,-0.024122,53,264,587,6240
1644185125.128841,-0.010193,0.009827,-0.990295,0.342992,0.462901,-0.130992,47,275,582,6240
1644185125.177221,-0.009888,0.011719,-0.991333,0.144519,0.310229,0.021679,41,274,585,6304
1644185125.225649,-0.008301,0.007385,-0.991943,0.007115,0.386565,-0.115725,61,277,589,6224
1644185125.274029,-0.01001,0.009277,-0.991516,0.175053,0.508702,-0.069924,43,281,580,6240
1644185125.322423,-0.010132,0.00824,-0.992371,0.159786,0.432366,-0.100458,43,279,583,6176
1644185125.370787,-0.006042,0.007935,-0.990662,0.098718,0.417099,0.021679,55,274,594,6240
1644185125.419158,-0.01001,0.009888,-0.991089,0.175053,0.310229,-0.024122,41,279,578,6224
1644185125.467588,-0.007751,0.007935,-0.991211,0.236122,0.279695,-0.176794,41,283,576,6176
1644185125.515971,-0.009766,0.013367,-0.991394,0.205588,0.340763,0.036947,49,275,586,6224
1644185125.564373,-0.010559,0.011597,-0.990784,0.129252,0.447634,-0.115725,54,270,591,6240
1644185125.612774,-0.008179,0.010986,-0.99115,0.251389,0.24916,-0.130992,58,274,585,6192
1644185125.661151,-0.009094,0.010559,-0.989624,0.327725,0.294962,-0.115725,51,279,592,6240
1644185125.709756,-0.008301,0.012512,-0.990662,0.266656,0.371298,-0.130992,47,287,584,6192
1644185125.758544,-0.008972,0.011047,-0.992249,0.251389,0.401832,-0.14626,51,279,587,6224
1644185125.809092,-0.008179,0.008362,-0.990967,0.342992,0.447634,-0.192061,54,275,579,6224
1644185125.859687,-0.006592,0.009277,-0.992859,0.297191,0.371298,-0.192061,54,282,582,6176
1644185125.904655,-0.00885,0.011108,-0.992065,0.434595,0.432366,-0.085191,48,281,580,6192
1644185125.999936,-0.007446,0.009094,-0.990967,0.175053,0.523969,-0.085191,55,279,576,6240
1644185126.060197,-0.011169,0.008728,-0.992188,0.205588,0.569771,-0.192061,57,265,584,6176
1644185126.098054,-0.009583,0.011963,-0.991028,0.251389,0.508702,-0.054656,47,273,582,6224
1644185126.145251,-0.009521,0.01062,-0.991455,0.236122,0.386565,-0.100458,43,281,592,6224
1644185126.193484,-0.00708,0.011108,-0.990479,-0.008153,0.417099,-0.024122,52,273,582,6224
1644185126.24186,-0.009216,0.009033,-0.991272,0.190321,0.401832,-0.085191,40,280,584,6224
1644185126.290254,-0.008545,0.00946,-0.991394,0.129252,0.371298,-0.069924,54,285,579,6224
1644185126.338642,-0.006042,0.010437,-0.991455,0.068183,0.462901,-0.222595,46,279,594,6192
1644185126.387047,-0.011047,0.010254,-0.992737,0.205588,0.417099,-0.222595,53,281,571,6224
1644185126.435408,-0.010498,0.011841,-0.990906,0.144519,0.478168,-0.024122,49,275,584,6160
1644185126.483828,-0.008667,0.011841,-0.990723,0.266656,0.340763,-0.054656,52,275,591,6224
1644185126.532291,-0.007019,0.011108,-0.992004,0.159786,0.401832,-0.115725,38,280,591,6240
1644185126.58137,-0.008667,0.007874,-0.992004,0.205588,0.569771,0.021679,42,268,579,6240
1644185126.631688,-0.00647,0.010071,-0.993286,0.281924,0.478168,-0.100458,52,280,586,6160
1644185126.681706,-0.009033,0.008301,-0.992432,0.297191,0.447634,0.036947,51,286,590,6128
1644185126.726863,-0.006958,0.010925,-0.990967,0.190321,0.279695,-0.176794,60,279,590,6112
1644185126.822592,-0.008789,0.010254,-0.988953,0.205588,0.447634,-0.024122,52,270,586,6176
1644185126.870973,-0.008484,0.010498,-0.990601,0.159786,0.478168,-0.176794,46,274,578,6224
1644185126.919389,-0.007812,0.008545,-0.992065,0.159786,0.569771,-0.100458,48,281,592,6240
1644185126.967793,-0.007019,0.007751,-0.991211,0.251389,0.523969,-0.130992,57,265,577,6160
1644185127.016193,-0.009521,0.009399,-0.991028,0.312458,0.432366,-0.161527,55,279,583,6240
1644185127.069788,-0.009155,0.009155,-0.988831,0.205588,0.356031,-0.14626,53,281,590,6224
1644185127.112951,-0.007385,0.011841,-0.994019,0.159786,0.325496,-0.14626,46,283,590,6192
1644185127.161359,-0.008301,0.011658,-0.992432,0.068183,0.417099,-0.115725,55,279,578,6224
1644185127.209723,-0.007324,0.011353,-0.990784,0.205588,0.447634,-0.100458,52,273,589,6224
1644185127.258146,-0.0047,0.009827,-0.991638,0.297191,0.462901,-0.024122,49,280,579,6224
1644185127.306525,-0.007507,0.008545,-0.990967,0.190321,0.401832,-0.115725,47,275,579,6240
1644185127.354959,-0.007996,0.008423,-0.992004,0.205588,0.508702,-0.024122,51,276,585,6288
1644185127.403343,-0.010803,0.012695,-0.987671,0.159786,0.279695,-0.115725,48,283,564,6240
1644185127.451725,-0.008179,0.008667,-0.992981,0.08345,0.493435,-0.069924,52,282,589,6240
1644185127.500126,-0.008789,0.010254,-0.992188,0.266656,0.371298,-0.054656,54,273,586,6304
1644185127.548508,-0.006714,0.00946,-0.990356,0.281924,0.371298,0.021679,59,280,589,6192
1644185127.596899,-0.007812,0.009033,-0.992126,0.220855,0.325496,0.006412,41,281,583,6256
1644185127.645568,-0.010681,0.007751,-0.990356,0.175053,0.294962,-0.115725,53,286,585,6240
1644185127.693735,-0.005981,0.010254,-0.988892,0.312458,0.523969,-0.039389,43,279,587,6288
1644185127.744198,-0.006226,0.009705,-0.990662,0.175053,0.462901,-0.008855,58,274,597,6176
1644185127.794071,-0.008972,0.010742,-0.990967,0.052916,0.386565,-0.130992,48,279,587,6192
1644185127.844081,-0.008118,0.009888,-0.989502,0.251389,0.371298,-0.039389,49,270,579,6240
1644185127.88879,-0.010864,0.012878,-0.991272,0.35826,0.432366,-0.054656,52,270,584,6160
1644185127.984076,-0.007629,0.007507,-0.988647,0.220855,0.386565,-0.115725,48,271,583,6176
1644185128.032466,-0.009399,0.009705,-0.994812,0.129252,0.279695,-0.069924,51,276,592,6224
1644185128.082083,-0.007996,0.009766,-0.990173,0.281924,0.432366,-0.222595,41,271,592,6224
1644185128.129169,-0.008728,0.011108,-0.989075,0.159786,0.356031,0.052214,49,277,586,6160
1644185128.17758,-0.008606,0.007202,-0.991821,0.281924,0.401832,-0.237863,41,279,578,6128
1644185128.225958,-0.006592,0.006836,-0.993591,0.144519,0.478168,-0.115725,46,271,585,6224
1644185128.274361,-0.009338,0.010742,-0.990601,0.205588,0.340763,-0.069924,52,270,582,6240
1644185128.322769,-0.005676,0.012146,-0.992065,0.220855,0.417099,-0.085191,46,269,583,6160
1644185128.371933,-0.006714,0.011292,-0.990417,0.144519,0.157557,-0.222595,49,277,584,6240
1644185128.419544,-0.008667,0.008911,-0.990479,0.08345,0.508702,-0.008855,52,282,589,6224
1644185128.467918,-0.009888,0.009705,-0.990723,0.159786,0.310229,-0.085191,57,277,582,6224
1644185128.516333,-0.010315,0.009827,-0.99054,0.266656,0.233893,-0.054656,49,280,584,6224
1644185128.564749,-0.005554,0.009583,-0.99054,0.220855,0.462901,-0.069924,54,270,586,6224
1644185128.613127,-0.006897,0.010864,-0.989746,0.190321,0.371298,-0.039389,42,280,582,6128
1644185128.661504,-0.009766,0.010681,-0.991211,0.251389,0.264427,-0.054656,49,287,586,6224
1644185128.709899,-0.010437,0.009094,-0.991455,0.205588,0.493435,-0.039389,54,275,586,6224
1644185128.758272,-0.003723,0.011169,-0.991028,0.297191,0.493435,-0.054656,49,287,593,6176
1644185128.806793,-0.008545,0.011963,-0.990845,0.190321,0.462901,-0.115725,45,280,591,6240
1644185128.855202,-0.009094,0.010315,-0.991577,0.266656,0.432366,-0.024122,45,275,579,6240
1644185128.905007,-0.008362,0.007812,-0.989746,0.190321,0.417099,-0.008855,46,271,576,6224
1644185128.954976,-0.007141,0.006531,-0.98761,0.190321,0.294962,0.082748,48,269,592,6224
1644185129.005717,-0.007141,0.012817,-0.994568,0.220855,0.24916,-0.054656,49,277,584,6240
1644185129.076901,-0.003906,0.010193,-0.989807,0.144519,0.569771,-0.14626,42,277,593,6224
1644185129.14541,-0.00708,0.009766,-0.991516,0.190321,0.264427,0.006412,46,283,587,6256
1644185129.193843,-0.005798,0.013611,-0.991333,0.205588,0.386565,-0.039389,41,279,578,6192
1644185129.242386,-0.007874,0.010315,-0.991028,0.251389,0.24916,0.113282,48,264,576,6176
1644185129.290632,-0.00647,0.01178,-0.992493,0.251389,0.417099,0.082748,54,270,589,6192
1644185129.339008,-0.007141,0.012573,-0.989075,0.327725,0.432366,0.006412,60,286,585,6240
1644185129.387406,-0.00708,0.010254,-0.989929,0.236122,0.432366,-0.222595,54,275,575,6192
1644185129.435793,-0.008118,0.009644,-0.993713,0.190321,0.310229,-0.192061,59,282,582,6176
1644185129.484194,-0.009827,0.010193,-0.990417,0.205588,0.401832,-0.237863,41,288,592,6160
1644185129.532593,-0.006653,0.011292,-0.990234,0.220855,0.462901,-0.085191,52,280,589,6240
1644185129.580983,-0.009216,0.00885,-0.993652,0.281924,0.386565,-0.222595,54,275,586,6224
1644185129.629362,-0.011292,0.01416,-0.989258,0.205588,0.356031,-0.008855,60,283,576,6224
1644185129.677752,-0.010986,0.007812,-0.992126,0.297191,0.432366,-0.100458,57,282,572,6256
1644185129.726129,-0.010132,0.010071,-0.988098,0.266656,0.356031,-0.130992,47,277,584,6256
1644185129.774662,-0.008484,0.011963,-0.992432,0.037649,0.340763,-0.039389,43,271,601,6224
1644185129.822993,-0.006958,0.009644,-0.991516,0.281924,0.401832,-0.14626,49,275,582,6256
1644185129.871377,-0.007324,0.012268,-0.990784,0.129252,0.325496,-0.100458,59,273,575,6192
1644185129.920085,-0.007141,0.00885,-0.991333,0.205588,0.401832,-0.161527,49,275,589,6256
1644185129.968159,-0.006409,0.010986,-0.990723,0.495664,0.386565,-0.161527,46,274,597,6192
1644185130.016562,-0.008911,0.007629,-0.991394,0.220855,0.462901,0.006412,53,283,580,6224
1644185130.093436,-0.005127,0.012939,-0.99176,0.220855,0.493435,-0.14626,49,277,584,6192
1644185130.161653,-0.007935,0.009216,-0.990601,0.373527,0.417099,-0.192061,52,275,584,6176
1644185130.210067,-0.005859,0.011597,-0.992615,0.159786,0.401832,-0.176794,53,286,585,6160
1644185130.258454,-0.007629,0.011169,-0.990479,0.129252,0.279695,-0.176794,47,277,582,6224
1644185130.306865,-0.00769,0.012817,-0.989075,0.159786,0.401832,-0.069924,55,281,585,6176
1644185130.355257,-0.011292,0.007263,-0.993591,0.236122,0.508702,-0.054656,53,281,585,6176
1644185130.403663,-0.008972,0.012024,-0.990356,0.297191,0.600305,-0.054656,59,273,577,6160
1644185130.452048,-0.008179,0.011963,-0.990601,0.175053,0.279695,-0.130992,42,285,570,6176
1644185130.500428,-0.006958,0.009521,-0.99231,0.220855,0.432366,-0.207328,53,274,578,6176
1644185130.548834,-0.006348,0.011475,-0.990723,0.327725,0.356031,-0.115725,48,283,580,6224
1644185130.597227,-0.006653,0.010498,-0.993713,0.251389,0.508702,-0.085191,58,279,585,6224
1644185130.645611,-0.00946,0.009338,-0.988708,0.281924,0.462901,-0.024122,46,276,587,6160
1644185130.694045,-0.008301,0.009766,-0.991089,0.037649,0.371298,-0.14626,49,285,589,6224
1644185130.742414,-0.006714,0.009827,-0.98999,0.281924,0.493435,-0.069924,53,281,587,6192
1644185130.790761,-0.007202,0.009705,-0.991516,0.190321,0.493435,-0.085191,49,275,586,6224
1644185130.839233,-0.008362,0.009827,-0.991638,0.266656,0.340763,-0.069924,43,276,578,6224
1644185130.887603,-0.009033,0.008301,-0.990173,0.342992,0.523969,-0.085191,46,271,583,6176
1644185130.936012,-0.009521,0.013245,-0.989929,0.205588,0.279695,-0.024122,35,282,584,6256
1644185130.98481,-0.007263,0.011414,-0.993286,0.159786,0.325496,-0.176794,39,281,585,6192
1644185131.033189,-0.006042,0.010193,-0.987488,0.251389,0.371298,-0.130992,52,273,586,6224
1644185131.0894,-0.009583,0.011414,-0.99054,0.266656,0.356031,-0.115725,52,273,593,6192
1644185131.133004,-0.006897,0.007751,-0.989746,0.205588,0.432366,-0.115725,58,279,587,6160
1644185131.182338,-0.007324,0.00885,-0.991577,0.220855,0.386565,-0.192061,51,283,592,6256
1644185131.227453,-0.007751,0.008911,-0.991577,0.35826,0.554504,-0.237863,54,280,582,6176
1644185131.323124,-0.009888,0.007019,-0.993652,0.251389,0.432366,-0.085191,52,275,584,6224
1644185131.371503,-0.010071,0.009888,-0.992432,0.327725,0.371298,-0.115725,39,281,578,6160
1644185131.419878,-0.009521,0.008606,-0.992065,0.08345,0.356031,-0.024122,47,287,579,6224
1644185131.468291,-0.006165,0.00769,-0.99115,0.342992,0.493435,-0.039389,51,271,585,6240
1644185131.516697,-0.009216,0.009277,-0.988342,0.129252,0.401832,-0.176794,48,276,578,6176
1644185131.565107,-0.009216,0.008606,-0.991333,0.144519,0.325496,-0.176794,53,279,583,6224
1644185131.613481,-0.010498,0.009399,-0.990601,0.220855,0.401832,-0.085191,51,274,573,6224
1644185131.661867,-0.008789,0.011597,-0.991333,0.342992,0.325496,0.067481,45,277,584,6176
1644185131.710267,-0.00824,0.010132,-0.991516,0.144519,0.462901,-0.069924,43,281,580,6160
1644185131.758665,-0.010071,0.008972,-0.990906,0.144519,0.401832,-0.008855,40,273,579,6160
1644185131.807058,-0.009033,0.011169,-0.98999,0.342992,0.371298,0.006412,47,275,591,6224
1644185131.855491,-0.00885,0.011841,-0.991455,0.327725,0.172824,-0.192061,48,271,583,6240
1644185131.903909,-0.008728,0.009705,-0.989502,0.068183,0.539237,-0.192061,54,280,579,6240
1644185131.952298,-0.007324,0.010315,-0.992065,0.190321,0.264427,-0.039389,54,275,572,6128
1644185132.000665,-0.004822,0.009033,-0.990723,0.251389,0.386565,-0.069924,49,280,584,6176
1644185132.069998,-0.010193,0.008362,-0.990601,0.327725,0.462901,-0.130992,43,279,594,6224
1644185132.099408,-0.010193,0.008789,-0.992188,0.236122,0.264427,-0.25313,47,280,591,6176
1644185132.145813,-0.006836,0.010437,-0.99054,0.098718,0.432366,-0.039389,46,279,583,6192
1644185132.194194,-0.006897,0.009949,-0.98938,0.144519,0.310229,-0.14626,52,280,593,6240
1644185132.242954,-0.008301,0.01001,-0.989197,0.113985,0.493435,-0.054656,46,271,583,6176
1644185132.293453,-0.007019,0.008911,-0.990112,0.236122,0.432366,-0.115725,49,277,579,6224
1644185132.343782,-0.005249,0.009949,-0.98938,0.266656,0.371298,-0.25313,45,280,579,6240
1644185132.388646,-0.008301,0.012512,-0.991821,0.327725,0.615573,-0.054656,45,280,572,6176
1644185132.484559,-0.007812,0.010437,-0.992188,0.297191,0.340763,-0.024122,45,273,591,6256
1644185132.532958,-0.008362,0.01123,-0.993042,0.098718,0.462901,-0.222595,46,279,576,6240
1644185132.581319,-0.009277,0.011169,-0.993958,0.159786,0.432366,-0.085191,48,281,573,6256
1644185132.629725,-0.008301,0.011169,-0.991211,0.297191,0.432366,-0.192061,52,268,579,6240
1644185132.67809,-0.008728,0.008667,-0.989197,0.251389,0.294962,-0.161527,48,279,585,6160
1644185132.726513,-0.010681,0.008362,-0.993408,0.236122,0.401832,-0.100458,52,282,582,6256
1644185132.774904,-0.008484,0.009155,-0.992798,0.052916,0.310229,-0.130992,41,269,592,6224
1644185132.823314,-0.008484,0.008606,-0.991455,0.190321,0.340763,-0.192061,42,270,575,6160
1644185132.871744,-0.008362,0.010437,-0.989929,0.144519,0.340763,-0.192061,53,271,587,6224
1644185132.920111,-0.005005,0.012024,-0.990356,0.327725,0.432366,-0.130992,47,285,586,6192
1644185132.968533,-0.008728,0.012207,-0.990906,0.220855,0.554504,-0.024122,51,283,578,6240
1644185133.016904,-0.007935,0.012573,-0.991882,0.159786,0.279695,-0.069924,55,281,587,6176
1644185133.071977,-0.0047,0.010376,-0.991699,0.129252,0.417099,-0.039389,46,274,583,6240
1644185133.113698,-0.007385,0.011475,-0.990662,0.297191,0.233893,-0.115725,52,277,577,6176
1644185133.162054,-0.009155,0.012024,-0.990112,0.144519,0.310229,-0.069924,57,280,579,6192
1644185133.210467,-0.008728,0.010193,-0.990417,0.175053,0.310229,-0.161527,52,273,584,6192
1644185133.258837,-0.005981,0.007751,-0.99176,0.175053,0.401832,-0.100458,43,276,585,6224
1644185133.307523,-0.007141,0.010254,-0.991699,0.236122,0.478168,-0.207328,51,271,585,6256
1644185133.356542,-0.008362,0.012451,-0.992554,0.098718,0.462901,0.006412,53,276,587,6256
1644185133.407011,-0.008301,0.009888,-0.992859,0.373527,0.417099,-0.100458,43,276,583,6176
1644185133.457111,-0.008728,0.009155,-0.990356,0.190321,0.356031,-0.115725,42,282,579,6240
1644185133.502044,-0.009583,0.009949,-0.993896,0.022382,0.401832,0.12855,52,270,582,6224
1644185133.597565,-0.008972,0.010315,-0.990234,0.297191,0.401832,0.082748,51,271,590,6176
1644185133.645969,-0.007812,0.009033,-0.992859,0.281924,0.264427,-0.161527,52,270,591,6256
1644185133.694382,-0.007751,0.012268,-0.990295,0.297191,0.310229,-0.039389,43,269,580,6224
1644185133.742768,-0.007629,0.008545,-0.991882,0.052916,0.340763,-0.024122,45,282,584,6192
1644185133.791155,-0.007141,0.009399,-0.991638,0.327725,0.325496,-0.268397,46,276,571,6224
1644185133.83955,-0.007751,0.010193,-0.992126,0.190321,0.478168,-0.085191,40,270,589,6192
1644185133.887989,-0.00592,0.01123,-0.993713,0.327725,0.279695,-0.069924,55,271,569,6224
1644185133.936349,-0.004883,0.015625,-0.989563,0.236122,0.356031,-0.192061,45,273,579,6240
1644185133.984767,-0.006348,0.012207,-0.993774,0.037649,0.294962,-0.008855,48,279,580,6224
1644185134.033164,-0.006531,0.009033,-0.991333,0.190321,0.340763,-0.024122,58,286,580,6224
1644185134.090355,-0.003723,0.011902,-0.989929,0.159786,0.432366,-0.085191,52,275,582,6224
1644185134.129929,-0.011414,0.009094,-0.991516,0.297191,0.417099,-0.085191,55,276,578,6240
1644185134.178299,-0.00824,0.009644,-0.98938,0.236122,0.478168,-0.024122,58,276,569,6240
1644185134.226697,-0.007568,0.011108,-0.989868,0.190321,0.447634,0.052214,54,275,584,6224
1644185134.27544,-0.009033,0.007385,-0.990295,0.342992,0.417099,-0.085191,45,268,575,6192
1644185134.32511,-0.006104,0.011047,-0.991699,0.297191,0.417099,-0.085191,43,274,587,6192
1644185134.375381,-0.008057,0.009155,-0.99231,0.266656,0.401832,-0.207328,54,280,591,6224
1644185134.420301,-0.007263,0.007629,-0.991455,0.205588,0.432366,0.036947,49,273,586,6240
1644185134.517037,-0.00885,0.009888,-0.993103,0.220855,0.371298,-0.298931,64,290,586,6256
1644185134.565454,-0.00708,0.010742,-0.992737,0.236122,0.401832,-0.069924,49,275,582,6176
1644185134.613833,-0.005127,0.013184,-0.992432,0.129252,0.264427,-0.024122,53,274,583,6224
1644185134.662384,-0.008179,0.010193,-0.990173,0.327725,0.569771,-0.161527,49,282,582,6224
1644185134.710622,-0.007324,0.009949,-0.989075,0.327725,0.432366,-0.054656,47,285,584,6224
1644185134.758997,-0.00824,0.011719,-0.993164,0.098718,0.356031,-0.069924,54,280,579,6128
1644185134.807409,-0.009338,0.009827,-0.993408,0.159786,0.356031,-0.085191,46,274,592,6224
1644185134.855797,-0.008972,0.009338,-0.994324,0.266656,0.371298,-0.100458,46,279,585,6256
1644185134.90424,-0.009644,0.009033,-0.991089,0.297191,0.432366,-0.069924,47,282,586,6224
1644185134.953462,-0.008972,0.009888,-0.991577,0.144519,0.432366,-0.115725,59,282,582,6224
1644185135.001004,-0.008606,0.010925,-0.993225,0.052916,0.478168,-0.054656,57,277,584,6128
1644185135.069603,-0.005737,0.012085,-0.99176,0.098718,0.401832,0.067481,49,285,586,6240
1644185135.097939,-0.005981,0.008606,-0.989929,0.251389,0.462901,-0.054656,48,274,590,6224
1644185135.146199,-0.010986,0.009033,-0.994141,0.35826,0.356031,-0.344733,45,282,582,6224
1644185135.194733,-0.010193,0.009827,-0.990723,0.327725,0.356031,-0.054656,61,277,579,6240
1644185135.243003,-0.006348,0.009277,-0.992065,0.220855,0.417099,-0.100458,41,281,590,6224
1644185135.291372,-0.007568,0.007629,-0.990662,0.281924,0.417099,-0.115725,48,279,583,6192
1644185135.339765,-0.008606,0.008728,-0.992554,0.342992,0.24916,-0.115725,53,276,573,6192
1644185135.388181,-0.00946,0.010742,-0.990845,0.190321,0.432366,-0.192061,51,276,580,6224
1644185135.43773,-0.009827,0.010742,-0.990295,0.281924,0.279695,-0.054656,57,273,591,6128
1644185135.487845,-0.008789,0.010559,-0.99353,0.327725,0.539237,-0.039389,51,276,576,6240
1644185135.538271,-0.008545,0.010498,-0.989746,0.220855,0.386565,-0.192061,46,281,580,6256
1644185135.582702,-0.007019,0.011963,-0.992371,0.236122,0.447634,-0.069924,55,281,576,6240
1644185135.67852,-0.005066,0.012268,-0.991455,0.098718,0.417099,-0.14626,46,276,578,6224
1644185135.726919,-0.005859,0.008606,-0.992432,0.297191,0.401832,-0.100458,53,266,578,6176
1644185135.775298,-0.008423,0.009155,-0.992859,0.342992,0.447634,-0.100458,41,276,583,6176
1644185135.823682,-0.00769,0.012024,-0.99176,0.159786,0.508702,-0.085191,47,287,582,6192
1644185135.87215,-0.012329,0.011047,-0.990845,0.175053,0.508702,-0.176794,43,276,583,6224
1644185135.920479,-0.005005,0.00885,-0.990112,0.144519,0.386565,0.036947,53,279,578,6192
1644185135.968871,-0.008362,0.007874,-0.992554,0.144519,0.386565,-0.14626,49,277,586,6224
1644185136.017265,-0.007629,0.007874,-0.994507,0.098718,0.493435,-0.161527,47,275,589,6160
1644185136.072079,-0.00946,0.009583,-0.991699,-0.008153,0.325496,-0.207328,39,276,594,6192
1644185136.114026,-0.009033,0.010254,-0.989929,0.236122,0.462901,0.021679,52,285,579,6192
1644185136.162426,-0.008057,0.011108,-0.991272,0.190321,0.401832,-0.024122,43,274,583,6224
1644185136.210805,-0.008301,0.012573,-0.989075,0.297191,0.294962,-0.161527,53,271,578,6192
1644185136.259178,-0.009338,0.013733,-0.98877,0.175053,0.371298,-0.100458,61,270,582,6192
1644185136.30759,-0.008789,0.008301,-0.990234,0.175053,0.310229,-0.024122,53,279,587,6176
1644185136.355988,-0.006165,0.011597,-0.992004,0.312458,0.478168,-0.054656,48,283,592,6224
1644185136.404376,-0.007507,0.01123,-0.989319,0.373527,0.462901,-0.054656,47,277,600,6224
1644185136.452746,-0.006775,0.011414,-0.99353,0.312458,0.401832,-0.115725,59,282,591,6192
1644185136.501125,-0.006226,0.011108,-0.991394,0.281924,0.462901,-0.161527,43,279,580,6176
1644185136.549756,-0.007141,0.010803,-0.988708,0.266656,0.386565,-0.008855,51,274,580,6224
1644185136.59856,-0.009155,0.008057,-0.991272,0.236122,0.340763,-0.069924,58,274,583,6224
1644185136.649108,-0.009888,0.014404,-0.989014,0.190321,0.279695,-0.161527,46,271,585,6128
1644185136.699247,-0.008484,0.010376,-0.990356,0.205588,0.462901,-0.039389,54,277,584,6192
1644185136.744263,-0.005005,0.011658,-0.990906,0.236122,0.401832,-0.100458,45,282,577,6128
1644185136.839961,-0.011169,0.010559,-0.990417,0.113985,0.523969,0.036947,51,279,578,6224
1644185136.888338,-0.008362,0.009094,-0.993469,0.266656,0.325496,0.082748,52,280,586,6192
1644185136.936732,-0.00885,0.011292,-0.990723,0.373527,0.340763,-0.069924,47,282,593,6240
1644185136.985145,-0.006104,0.009766,-0.992004,0.266656,0.356031,-0.039389,46,281,585,6240
1644185137.033539,-0.010681,0.010681,-0.990723,0.113985,0.600305,-0.115725,49,280,584,6176
1644185137.082048,-0.006531,0.008667,-0.993408,0.312458,0.447634,-0.192061,51,274,585,6176
1644185137.130235,-0.006226,0.006409,-0.991638,0.175053,0.523969,-0.192061,57,285,582,6224
1644185137.178652,-0.007202,0.008911,-0.991882,0.388794,0.432366,-0.069924,45,275,577,6192
1644185137.227054,-0.008118,0.010559,-0.99176,0.327725,0.401832,0.006412,41,271,580,6160
1644185137.275452,-0.007935,0.008545,-0.992249,0.220855,0.294962,-0.25313,51,276,587,6224
1644185137.323859,-0.007385,0.009583,-0.990662,0.190321,0.24916,-0.14626,55,283,585,6256
1644185137.372251,-0.009888,0.009094,-0.989014,0.251389,0.310229,-0.14626,45,273,582,6192
1644185137.42062,-0.010864,0.011475,-0.992493,0.144519,0.600305,-0.25313,46,274,580,6176
1644185137.469016,-0.006104,0.010437,-0.991028,0.327725,0.401832,-0.161527,48,274,580,6224
1644185137.517382,-0.006042,0.012329,-0.990723,0.281924,0.493435,-0.054656,54,287,584,6160
1644185137.565798,-0.008301,0.009949,-0.992371,0.052916,0.432366,-0.100458,48,283,585,6240
1644185137.614199,-0.007446,0.010864,-0.988953,0.251389,0.432366,-0.069924,51,271,580,6224
1644185137.662607,-0.011414,0.012573,-0.992432,0.113985,0.340763,-0.100458,53,271,587,6304
1644185137.710976,-0.008484,0.011292,-0.990967,0.022382,0.24916,-0.085191,51,281,585,6224
1644185137.760853,-0.012024,0.008057,-0.991394,0.266656,0.279695,-0.130992,53,269,576,6160
1644185137.812484,-0.007996,0.012207,-0.991272,0.205588,0.462901,-0.115725,41,271,585,6256
1644185137.857005,-0.007324,0.013,-0.990845,0.113985,0.310229,0.067481,42,277,582,6176
1644185137.953001,-0.008179,0.012817,-0.992004,0.113985,0.340763,-0.192061,52,280,577,6176
1644185138.001374,-0.010681,0.008606,-0.99176,0.175053,0.294962,-0.14626,48,279,578,6176
1644185138.068729,-0.011108,0.01001,-0.993652,0.220855,0.417099,-0.039389,57,275,582,6224
1644185138.103226,-0.007019,0.009949,-0.99115,0.159786,0.447634,0.006412,55,286,585,6160
1644185138.146495,-0.009033,0.01001,-0.991089,0.113985,0.493435,-0.100458,53,281,580,6288
1644185138.194935,-0.009949,0.012024,-0.991699,0.236122,0.585038,-0.161527,52,275,589,6224
1644185138.243323,-0.007751,0.009338,-0.991882,0.266656,0.340763,0.006412,40,285,577,6288
1644185138.291685,-0.010681,0.009155,-0.991577,0.129252,0.401832,-0.054656,51,276,578,6192
1644185138.340281,-0.008362,0.011047,-0.993164,0.312458,0.371298,-0.069924,38,280,582,6192
1644185138.38848,-0.009155,0.009949,-0.991272,0.281924,0.356031,-0.039389,47,275,579,6256
1644185138.436867,-0.005005,0.010315,-0.990906,0.266656,0.554504,-0.024122,54,275,586,6256
1644185138.485584,-0.009094,0.013306,-0.98999,0.35826,0.447634,-0.054656,38,282,582,6288
1644185138.535022,-0.010254,0.01062,-0.99353,0.327725,0.432366,-0.008855,43,279,580,6192
1644185138.585367,-0.00885,0.011597,-0.991089,0.236122,0.447634,-0.192061,54,273,589,6240
1644185138.635435,-0.007629,0.011719,-0.990601,0.190321,0.478168,-0.176794,46,269,587,6176
1644185138.727218,-0.009583,0.012512,-0.990723,0.175053,0.279695,-0.008855,55,266,576,6240
1644185138.775607,-0.008362,0.011475,-0.992004,0.251389,0.569771,0.067481,49,277,572,6240
1644185138.824054,-0.008545,0.009033,-0.992432,0.159786,0.539237,-0.085191,47,270,577,6240
1644185138.872465,-0.009277,0.007385,-0.991577,0.266656,0.417099,-0.085191,49,273,582,6176
1644185138.920839,-0.008118,0.009521,-0.992859,0.190321,0.24916,-0.176794,39,283,587,6128
1644185138.969219,-0.008606,0.009827,-0.992981,0.052916,0.310229,0.006412,41,274,576,6192
1644185139.017633,-0.006775,0.008179,-0.991943,0.190321,0.417099,-0.024122,51,276,583,6336
1644185139.069297,-0.009033,0.00708,-0.991455,0.159786,0.24916,-0.100458,49,275,586,6160
1644185139.114462,-0.007263,0.008484,-0.993164,0.342992,0.386565,-0.268397,52,285,584,6224
1644185139.162794,-0.007996,0.010437,-0.992065,0.037649,0.371298,0.006412,43,286,578,6176
1644185139.211159,-0.00647,0.010803,-0.98999,0.144519,0.371298,-0.222595,49,273,572,6224
1644185139.25955,-0.009277,0.010193,-0.993774,0.037649,0.371298,-0.008855,42,280,582,6160
1644185139.307948,-0.009644,0.010803,-0.99115,0.159786,0.417099,-0.176794,53,283,583,6240
1644185139.356341,-0.009583,0.009216,-0.990784,0.190321,0.340763,-0.115725,45,275,586,6176
1644185139.404733,-0.00885,0.012451,-0.990906,0.251389,0.417099,-0.085191,47,275,582,6176
1644185139.453155,-0.011414,0.007996,-0.99176,0.159786,0.371298,-0.176794,51,283,587,6176
1644185139.501503,-0.008362,0.011414,-0.993164,0.205588,0.447634,-0.085191,48,286,571,6240
1644185139.549886,-0.008362,0.007812,-0.993896,0.190321,0.447634,0.036947,43,283,594,6176
1644185139.598291,-0.007141,0.008728,-0.990295,0.342992,0.386565,-0.100458,38,285,582,6224
1644185139.647266,-0.010864,0.010315,-0.993408,0.236122,0.401832,-0.085191,57,282,586,6192
1644185139.698006,-0.011597,0.00946,-0.98999,0.220855,0.493435,-0.008855,46,281,592,6176
1644185139.747908,-0.008301,0.012024,-0.987732,0.175053,0.478168,-0.008855,59,268,584,6256
1644185139.792903,-0.010071,0.010559,-0.988831,0.251389,0.417099,0.021679,48,276,578,6192
1644185139.888695,-0.006958,0.010254,-0.992798,0.098718,0.585038,-0.130992,51,276,585,6192
1644185139.937085,-0.009949,0.009583,-0.991333,0.236122,0.539237,-0.008855,49,285,596,6192
1644185139.985486,-0.006775,0.010925,-0.992615,0.251389,0.325496,-0.039389,51,266,580,6224
1644185140.033881,-0.005798,0.009583,-0.988525,0.052916,0.386565,-0.085191,55,286,578,6192
1644185140.082325,-0.007751,0.009949,-0.991455,0.190321,0.325496,-0.14626,42,275,572,6160
1644185140.13068,-0.005371,0.010071,-0.992432,0.129252,0.432366,-0.176794,36,269,585,6256
1644185140.179031,-0.009277,0.00946,-0.990173,0.419328,0.203359,-0.039389,45,280,579,6192
1644185140.227399,-0.005676,0.011902,-0.990356,0.220855,0.401832,0.036947,48,266,573,6224
1644185140.27579,-0.008118,0.009827,-0.991028,0.327725,0.356031,-0.054656,53,281,590,6176
1644185140.324214,-0.01123,0.009033,-0.991943,0.129252,0.462901,-0.024122,45,270,584,6224
1644185140.372611,-0.007385,0.006775,-0.991516,0.251389,0.294962,-0.054656,49,282,586,6176
1644185140.420986,-0.009644,0.008789,-0.990967,0.098718,0.294962,-0.237863,47,280,582,6176
1644185140.469392,-0.007629,0.009216,-0.990967,0.236122,0.462901,-0.054656,45,275,584,6192
1644185140.517775,-0.008057,0.010803,-0.989319,0.144519,0.432366,-0.054656,55,276,585,6176
1644185140.566181,-0.008545,0.013123,-0.990295,0.297191,0.646107,-0.176794,46,279,587,6240
1644185140.614606,-0.008728,0.012146,-0.98999,0.236122,0.264427,-0.008855,51,274,592,6192
1644185140.662982,-0.009094,0.012451,-0.990479,0.251389,0.569771,0.067481,46,279,580,6176
1644185140.711333,-0.009583,0.007141,-0.990234,0.266656,0.401832,-0.008855,52,270,586,6288
1644185140.760074,-0.007996,0.008972,-0.991821,0.281924,0.447634,-0.222595,51,276,587,6176
1644185140.808974,-0.009094,0.010925,-0.99115,-0.053954,0.356031,-0.14626,55,274,571,6224
1644185140.859674,-0.007385,0.011108,-0.98999,0.144519,0.325496,-0.130992,58,266,592,6224
1644185140.910609,-0.009216,0.007141,-0.992981,0.342992,0.386565,0.006412,49,280,582,6224
1644185141.001772,-0.007751,0.008789,-0.989746,0.113985,0.294962,-0.100458,48,281,578,6240
1644185141.067623,-0.008667,0.010742,-0.991516,0.144519,0.539237,-0.008855,49,280,579,6192
1644185141.099577,-0.0047,0.010498,-0.988037,0.205588,0.417099,-0.14626,53,269,583,6176
1644185141.146924,-0.008972,0.011841,-0.989929,0.144519,0.508702,-0.085191,45,275,577,6288
1644185141.19543,-0.007751,0.008423,-0.992798,0.159786,0.371298,-0.161527,46,279,580,6224
1644185141.24367,-0.007324,0.010315,-0.991455,0.129252,0.478168,-0.024122,59,290,582,6192
1644185141.292031,-0.010681,0.011475,-0.992493,0.144519,0.371298,-0.207328,55,274,576,6224
1644185141.34045,-0.010742,0.009277,-0.992249,0.175053,0.371298,-0.069924,47,285,589,6256
1644185141.388841,-0.010376,0.008728,-0.992859,0.266656,0.447634,-0.14626,42,285,586,6224
1644185141.437237,-0.007874,0.010315,-0.987549,0.190321,0.554504,0.082748,58,281,585,6224
1644185141.485631,-0.00708,0.009033,-0.992004,0.113985,0.401832,-0.161527,48,274,590,6176
1644185141.534267,-0.008606,0.010437,-0.991272,0.281924,0.447634,-0.085191,45,280,586,6176
1644185141.584737,-0.009583,0.006592,-0.994019,0.236122,0.432366,0.052214,48,274,578,6224
1644185141.634928,-0.009399,0.009583,-0.994385,0.297191,0.554504,-0.130992,49,280,584,6160
1644185141.680053,-0.008728,0.008362,-0.992737,0.281924,0.386565,-0.14626,49,285,582,6160
1644185141.775967,-0.008728,0.014587,-0.993164,0.190321,0.539237,-0.283664,54,275,579,6224
1644185141.824378,-0.00769,0.010498,-0.993042,0.266656,0.294962,-0.192061,45,273,586,6192
1644185141.872797,-0.007324,0.00946,-0.992249,0.175053,0.24916,-0.161527,49,282,579,6240
1644185141.921176,-0.006714,0.008606,-0.990295,0.236122,0.386565,-0.161527,49,277,584,6160
1644185141.969606,-0.007019,0.010132,-0.989624,0.297191,0.294962,-0.192061,52,280,584,6224
1644185142.01799,-0.007935,0.008362,-0.990479,0.052916,0.340763,-0.14626,53,279,585,6176
1644185142.073579,-0.010559,0.007935,-0.988098,0.236122,0.325496,-0.008855,54,270,582,6224
1644185142.11476,-0.007019,0.009644,-0.990784,0.236122,0.279695,-0.161527,42,275,591,6224
1644185142.1632,-0.010681,0.009399,-0.993225,0.236122,0.508702,0.006412,48,271,578,6224
1644185142.211557,-0.009949,0.009277,-0.991028,0.144519,0.432366,-0.085191,42,268,579,6224
1644185142.259934,-0.008301,0.009827,-0.991821,0.08345,0.417099,-0.024122,46,274,587,6240
1644185142.308342,-0.008728,0.010071,-0.993042,0.342992,0.615573,0.006412,49,270,589,6176
1644185142.35673,-0.011536,0.013184,-0.990845,0.190321,0.386565,-0.054656,48,281,590,6240
1644185142.405169,-0.007935,0.009583,-0.991943,0.098718,0.462901,-0.268397,46,281,569,6224
1644185142.453535,-0.009705,0.012695,-0.993469,0.190321,0.478168,-0.100458,57,285,582,6176
1644185142.501902,-0.011169,0.012573,-0.989807,0.159786,0.386565,-0.130992,35,282,579,6224
1644185142.550321,-0.008362,0.010254,-0.992371,0.098718,0.478168,-0.069924,49,285,584,6160
1644185142.599047,-0.005249,0.010803,-0.993347,0.236122,0.432366,-0.115725,49,275,586,6224
1644185142.647123,-0.007751,0.009094,-0.990234,0.098718,0.432366,-0.207328,54,273,584,6192
1644185142.697086,-0.010681,0.010437,-0.99292,0.266656,0.371298,-0.14626,51,279,580,6224
1644185142.747349,-0.006653,0.01178,-0.99292,0.251389,0.478168,-0.192061,59,277,589,6192
1644185142.79762,-0.006653,0.010071,-0.991943,0.312458,0.447634,-0.161527,53,276,583,6224
1644185142.842053,-0.00769,0.010742,-0.988098,0.113985,0.493435,-0.085191,54,285,577,6224
1644185142.937454,-0.008972,0.007019,-0.990479,0.175053,0.462901,-0.100458,55,271,578,6192
1644185142.985826,-0.007812,0.009888,-0.990234,0.266656,0.279695,-0.008855,45,287,579,6192
1644185143.034257,-0.006287,0.010681,-0.991943,0.220855,0.462901,-0.115725,52,273,586,6192
1644185143.082703,-0.009705,0.01001,-0.991211,0.175053,0.401832,-0.069924,58,274,585,6192
1644185143.130966,-0.009888,0.010681,-0.992126,0.266656,0.386565,-0.008855,53,276,583,6128
1644185143.179365,-0.008423,0.008118,-0.99115,0.159786,0.432366,-0.100458,51,281,585,6256
1644185143.227767,-0.00824,0.007446,-0.990723,0.098718,0.539237,-0.085191,40,275,584,6176
1644185143.276174,-0.010132,0.009033,-0.991882,0.113985,0.279695,-0.100458,61,270,586,6224
1644185143.324666,-0.00824,0.009033,-0.989807,0.266656,0.478168,0.006412,54,263,586,6176
1644185143.372958,-0.008362,0.011108,-0.990784,0.205588,0.462901,-0.14626,47,280,582,6160
1644185143.421345,-0.009338,0.012573,-0.992371,0.190321,0.371298,-0.207328,42,275,579,6240
1644185143.469742,-0.008423,0.011597,-0.989624,0.144519,0.371298,-0.130992,51,274,585,6192
1644185143.518133,-0.008972,0.008667,-0.990784,0.129252,0.462901,-0.237863,45,275,584,6240
1644185143.566529,-0.00824,0.009583,-0.991028,0.190321,0.401832,-0.176794,47,280,577,6160
1644185143.614906,-0.01062,0.011169,-0.989319,0.220855,0.493435,0.036947,57,280,586,6256
1644185143.663319,-0.00708,0.010986,-0.992798,0.129252,0.417099,-0.085191,57,277,586,6224
1644185143.711701,-0.011597,0.011536,-0.991577,0.266656,0.386565,-0.130992,49,285,582,6192
1644185143.760311,-0.008057,0.01062,-0.992126,0.144519,0.462901,-0.298931,45,268,586,6192
1644185143.808562,-0.008118,0.01001,-0.99115,0.129252,0.432366,-0.161527,38,282,577,6224
1644185143.858811,-0.008728,0.010864,-0.990356,0.144519,0.508702,-0.100458,43,276,580,6224
1644185143.909089,-0.011536,0.009888,-0.99176,0.266656,0.264427,0.006412,51,279,578,6224
1644185143.959236,-0.009338,0.008301,-0.991394,0.251389,0.447634,-0.100458,47,275,582,6256
1644185144.068191,-0.011169,0.01123,-0.991272,0.251389,0.325496,-0.161527,49,282,593,6304
1644185144.10138,-0.00824,0.012817,-0.991577,0.297191,0.325496,-0.192061,43,279,587,6224
1644185144.147241,-0.010803,0.007751,-0.994629,0.144519,0.386565,-0.069924,52,270,572,6176
1644185144.195641,-0.008301,0.010437,-0.99176,0.220855,0.386565,-0.115725,38,273,579,6176
1644185144.244003,-0.006836,0.010132,-0.989868,0.205588,0.432366,0.098015,41,274,583,6160
1644185144.292629,-0.006348,0.010925,-0.991699,0.098718,0.569771,-0.237863,46,274,573,6176
1644185144.340813,-0.006592,0.010132,-0.991089,0.327725,0.478168,-0.085191,43,269,576,6224
1644185144.389228,-0.005676,0.009216,-0.990845,0.236122,0.462901,-0.192061,45,282,584,6224
1644185144.437566,-0.008911,0.010193,-0.992065,0.205588,0.462901,-0.039389,49,270,579,6304
1644185144.486004,-0.005737,0.009033,-0.991089,0.175053,0.386565,-0.054656,47,282,579,6224
1644185144.534704,-0.010132,0.011169,-0.991394,0.175053,0.508702,-0.039389,45,282,584,6240
1644185144.585276,-0.006836,0.011841,-0.991089,0.037649,0.493435,-0.130992,46,266,587,6224
1644185144.635444,-0.008301,0.009094,-0.989807,0.312458,0.325496,-0.314198,49,277,591,6128
1644185144.680554,-0.008423,0.009644,-0.990967,0.159786,0.279695,-0.039389,49,275,593,6240
1644185144.776323,-0.009033,0.009583,-0.990662,0.098718,0.325496,-0.115725,36,274,580,6224
1644185144.825137,-0.010864,0.010803,-0.992126,0.098718,0.371298,0.021679,52,277,577,6240
1644185144.87318,-0.007935,0.010071,-0.98938,0.113985,0.432366,-0.085191,49,280,584,6256
1644185144.921561,-0.009827,0.007324,-0.98999,0.327725,0.493435,-0.115725,47,270,589,6176
1644185144.969957,-0.008789,0.007629,-0.989502,0.144519,0.203359,-0.130992,43,271,585,6240
1644185145.018345,-0.009949,0.010437,-0.991089,0.281924,0.478168,0.052214,58,281,585,6192
1644185145.071079,-0.009033,0.009766,-0.989258,0.068183,0.432366,-0.176794,48,276,590,6160
1644185145.115223,-0.009155,0.008972,-0.993408,0.144519,0.218626,-0.14626,51,286,583,6224
1644185145.163476,-0.005249,0.004395,-0.992554,0.190321,0.554504,-0.161527,48,283,576,6224
1644185145.211886,-0.008545,0.009583,-0.988464,0.144519,0.356031,-0.176794,45,273,586,6192
1644185145.260272,-0.009644,0.008301,-0.992065,0.098718,0.523969,-0.039389,54,273,582,6160
1644185145.308655,-0.008301,0.010498,-0.991821,0.129252,0.401832,-0.130992,46,276,592,6240
1644185145.357078,-0.008362,0.011475,-0.991211,0.312458,0.417099,-0.14626,43,269,585,6176
1644185145.405462,-0.007385,0.010681,-0.990906,0.342992,0.493435,-0.085191,48,286,571,6240
1644185145.453863,-0.009888,0.009338,-0.990845,0.175053,0.356031,0.067481,42,273,584,6192
1644185145.502231,-0.004883,0.01123,-0.990051,0.205588,0.264427,-0.039389,49,270,582,6224
1644185145.55063,-0.009827,0.009277,-0.992371,0.175053,0.478168,0.036947,52,277,589,6224
1644185145.599031,-0.010437,0.009277,-0.991699,0.251389,0.401832,-0.161527,43,276,583,6240
1644185145.647439,-0.010315,0.00946,-0.993042,0.037649,0.356031,-0.085191,38,273,579,6224
1644185145.695839,-0.00769,0.009766,-0.994507,0.312458,0.325496,-0.268397,58,271,585,6224
1644185145.745884,-0.011658,0.008545,-0.992065,0.190321,0.462901,-0.161527,52,275,579,6224
1644185145.796224,-0.008911,0.007385,-0.988831,0.251389,0.523969,-0.14626,58,271,576,6240
1644185145.841277,-0.007385,0.007629,-0.991699,0.236122,0.294962,0.036947,54,275,575,6240
1644185145.937811,-0.008972,0.008789,-0.992126,0.236122,0.478168,0.082748,46,271,571,6224
1644185145.986194,-0.011536,0.008911,-0.991211,0.419328,0.356031,-0.054656,47,273,577,6192
1644185146.034873,-0.009155,0.007324,-0.99231,0.312458,0.401832,-0.069924,46,283,573,6192
1644185146.083058,-0.006165,0.008606,-0.991394,0.190321,0.279695,-0.192061,47,273,579,6192
1644185146.131384,-0.011169,0.009888,-0.99054,0.251389,0.493435,-0.130992,45,277,584,6224
1644185146.179716,-0.011597,0.009277,-0.990479,0.404061,0.340763,-0.207328,51,281,580,6224
1644185146.228139,-0.007568,0.011963,-0.993164,0.281924,0.447634,-0.161527,53,274,578,6192
1644185146.276512,-0.011414,0.007568,-0.992249,0.220855,0.294962,-0.14626,59,263,593,6224
1644185146.325051,-0.008667,0.009705,-0.992004,0.251389,0.401832,-0.161527,41,281,573,6176
1644185146.373336,-0.00885,0.011353,-0.990662,0.236122,0.493435,-0.039389,55,271,583,6160
1644185146.421721,-0.009705,0.01001,-0.991882,0.159786,0.294962,-0.130992,55,283,576,6256
1644185146.470121,-0.008667,0.011597,-0.992798,0.251389,0.539237,-0.100458,53,279,571,6176
1644185146.518497,-0.009521,0.008911,-0.992004,0.220855,0.310229,-0.176794,58,274,587,6160
1644185146.566893,-0.009521,0.009399,-0.993347,0.281924,0.371298,-0.176794,48,274,585,6240
1644185146.615281,-0.008057,0.006897,-0.993591,0.08345,0.386565,-0.085191,51,281,580,6224
1644185146.663666,-0.007324,0.010193,-0.991272,0.266656,0.569771,0.113282,58,271,590,6224
1644185146.712339,-0.008301,0.009521,-0.993347,0.144519,0.432366,-0.130992,51,274,585,6224
1644185146.760478,-0.009705,0.006226,-0.993774,0.327725,0.447634,-0.161527,46,269,583,6240
1644185146.81029,-0.008484,0.008728,-0.991089,0.129252,0.432366,-0.176794,55,269,580,6160
1644185146.860785,-0.008484,0.009094,-0.993347,0.251389,0.432366,-0.192061,46,281,590,6240
1644185146.911525,-0.007568,0.009827,-0.99292,0.236122,0.401832,-0.008855,49,275,589,6192
1644185147.002525,-0.00769,0.007446,-0.992371,0.236122,0.432366,0.006412,43,279,576,6192
1644185147.066738,-0.012146,0.009033,-0.991943,0.08345,0.462901,-0.161527,54,294,589,6240
1644185147.09971,-0.007812,0.007568,-0.991638,0.08345,0.417099,-0.192061,51,262,587,6224
1644185147.147641,-0.006775,0.013367,-0.994995,0.312458,0.523969,-0.130992,54,275,586,6240
1644185147.195966,-0.007568,0.008606,-0.993469,0.175053,0.340763,-0.069924,49,273,577,6160
1644185147.244388,-0.007202,0.010742,-0.99115,0.251389,0.478168,-0.115725,48,286,578,6224
1644185147.292798,-0.005066,0.01001,-0.991272,0.190321,0.417099,-0.069924,49,282,586,6288
1644185147.341177,-0.008728,0.007935,-0.991272,0.098718,0.447634,-0.14626,54,280,577,6224
1644185147.389564,-0.009644,0.006775,-0.99115,0.236122,0.523969,-0.039389,52,275,589,6224
1644185147.437962,-0.009033,0.009644,-0.991821,0.175053,0.401832,-0.130992,45,287,593,6176
1644185147.486356,-0.007629,0.012939,-0.989746,0.175053,0.539237,-0.039389,57,282,575,6176
1644185147.534751,-0.008118,0.009155,-0.995178,0.236122,0.294962,-0.192061,43,279,583,6192
1644185147.583468,-0.009644,0.01062,-0.990417,0.190321,0.340763,-0.085191,51,276,580,6160
1644185147.633968,-0.007141,0.009949,-0.99231,0.022382,0.493435,-0.069924,49,273,579,6256
1644185147.683949,-0.009521,0.010315,-0.990601,0.052916,0.371298,-0.115725,54,275,582,6176
1644185147.729182,-0.01001,0.009644,-0.99115,0.297191,0.310229,0.021679,60,276,580,6128
1644185147.825335,-0.008179,0.013428,-0.989746,0.113985,0.508702,0.006412,42,275,577,6160
1644185147.873628,-0.008972,0.006714,-0.991394,0.35826,0.371298,0.006412,53,271,573,6176
1644185147.921896,-0.009827,0.009277,-0.992188,0.205588,0.417099,-0.085191,49,273,577,6160
1644185147.970317,-0.008301,0.010376,-0.99176,0.068183,0.539237,-0.130992,45,275,570,6224
1644185148.018718,-0.009094,0.012207,-0.991882,0.297191,0.371298,0.036947,46,271,573,6160
1644185148.073313,-0.006653,0.009827,-0.993408,0.251389,0.325496,-0.085191,47,273,575,6256
1644185148.115482,-0.009949,0.009277,-0.988831,0.342992,0.371298,0.098015,49,282,589,6240
1644185148.163896,-0.00708,0.009583,-0.992859,0.342992,0.417099,-0.161527,54,280,570,6224
1644185148.212309,-0.007141,0.011963,-0.989624,0.113985,0.325496,-0.085191,55,271,573,6224
1644185148.26068,-0.011047,0.010132,-0.988525,0.144519,0.569771,0.082748,59,275,584,6192
1644185148.309083,-0.006897,0.007385,-0.990295,0.205588,0.432366,-0.115725,53,283,576,6240
1644185148.357467,-0.008606,0.007446,-0.993408,0.236122,0.386565,-0.085191,48,279,578,6192
1644185148.405868,-0.009216,0.010742,-0.991699,0.297191,0.340763,-0.176794,58,276,576,6192
1644185148.454266,-0.007874,0.007324,-0.993591,0.205588,0.356031,-0.14626,46,279,578,6224
1644185148.502622,-0.008057,0.010132,-0.990784,0.159786,0.417099,-0.14626,57,280,584,6176
1644185148.551034,-0.010437,0.007996,-0.991455,0.266656,0.279695,-0.085191,48,281,576,6240
1644185148.599415,-0.00946,0.008728,-0.993835,0.327725,0.218626,-0.115725,60,274,585,6224
1644185148.648164,-0.010315,0.008301,-0.990173,0.266656,0.478168,-0.039389,53,279,573,6160
1644185148.69622,-0.012512,0.011658,-0.992493,0.297191,0.493435,-0.115725,48,274,580,6192
1644185148.746418,-0.011108,0.007935,-0.993713,-0.02342,0.371298,-0.222595,47,270,577,6240
1644185148.796768,-0.009888,0.011414,-0.992371,0.35826,0.401832,-0.039389,52,280,582,6192
1644185148.847101,-0.009766,0.010864,-0.992798,0.129252,0.325496,-0.039389,57,280,577,6240
1644185148.891236,-0.006287,0.009277,-0.992126,0.190321,0.279695,-0.14626,49,277,582,6256
1644185148.986553,-0.009888,0.009583,-0.992981,0.190321,0.279695,0.021679,45,273,579,6176
1644185149.035277,-0.008728,0.010132,-0.990295,0.388794,0.523969,0.12855,54,273,586,6224
1644185149.083479,-0.008057,0.010132,-0.991028,0.404061,0.325496,-0.054656,46,281,583,6224
1644185149.131716,-0.010742,0.011414,-0.99176,0.159786,0.279695,-0.115725,43,293,578,6192
1644185149.1801,-0.007385,0.011414,-0.991882,0.144519,0.432366,-0.069924,47,285,577,6240
1644185149.228494,-0.010437,0.010254,-0.993591,0.052916,0.371298,-0.237863,42,273,586,6160
1644185149.27688,-0.006714,0.008423,-0.991638,0.205588,0.386565,-0.008855,54,277,577,6192
1644185149.325288,-0.006592,0.01062,-0.992615,0.113985,0.340763,-0.130992,48,274,578,6192
1644185149.373683,-0.007874,0.011536,-0.989929,0.236122,0.462901,-0.115725,45,275,582,6160
1644185149.422086,-0.008667,0.010376,-0.989929,0.159786,0.386565,-0.054656,59,275,584,6192
1644185149.470446,-0.008728,0.010498,-0.990967,0.068183,0.447634,-0.14626,57,265,579,6224
1644185149.518864,-0.007324,0.013245,-0.993347,0.175053,0.325496,-0.100458,60,276,576,6176
1644185149.567245,-0.006836,0.01062,-0.989685,0.129252,0.356031,0.006412,52,287,584,6224
1644185149.61563,-0.006592,0.010254,-0.992065,0.098718,0.432366,-0.237863,54,280,584,6176
1644185149.664035,-0.006287,0.009094,-0.991455,0.388794,0.264427,-0.161527,53,281,585,6224
1644185149.712453,-0.009766,0.008789,-0.989441,0.159786,0.264427,-0.192061,48,271,580,6176
1644185149.760824,-0.009216,0.009399,-0.991821,0.205588,0.340763,-0.039389,47,290,582,6224
1644185149.809254,-0.008362,0.011414,-0.991028,0.297191,0.264427,-0.115725,49,280,586,6192
1644185149.857668,-0.00824,0.006104,-0.992188,0.281924,0.569771,-0.130992,36,271,573,6224
1644185149.907104,-0.009338,0.008972,-0.992249,0.220855,0.462901,-0.054656,49,280,579,6176
1644185149.957103,-0.007751,0.009827,-0.992188,0.08345,0.356031,-0.115725,57,273,582,6240
1644185150.065471,-0.008972,0.010559,-0.990234,0.190321,0.386565,0.006412,45,275,586,6224
1644185150.101601,-0.008118,0.009216,-0.988708,0.159786,0.356031,-0.008855,53,283,585,6176
1644185150.147954,-0.010254,0.010132,-0.993225,0.175053,0.401832,-0.039389,55,271,576,6176
1644185150.196361,-0.00769,0.01416,-0.990601,0.205588,0.508702,-0.024122,53,269,583,6224
1644185150.244753,-0.009949,0.006958,-0.993652,0.266656,0.508702,0.036947,46,266,573,6224
1644185150.293153,-0.006958,0.011536,-0.990234,0.236122,0.386565,-0.130992,47,277,579,6256
1644185150.341544,-0.010437,0.009033,-0.989685,0.190321,0.447634,-0.085191,49,282,589,6128
1644185150.389931,-0.006226,0.012573,-0.990967,0.098718,0.462901,-0.115725,53,288,583,6240
1644185150.438363,-0.010803,0.011719,-0.991455,0.266656,0.432366,0.006412,42,277,598,6336
1644185150.486715,-0.006836,0.009827,-0.989868,0.236122,0.356031,-0.085191,51,281,590,6224
1644185150.535144,-0.005249,0.006531,-0.992676,0.205588,0.417099,-0.14626,53,271,578,6304
1644185150.583582,-0.006714,0.010803,-0.989441,0.129252,0.417099,-0.161527,53,281,578,6160
1644185150.632456,-0.005981,0.009644,-0.991272,0.281924,0.432366,0.006412,38,282,586,6192
1644185150.682966,-0.008362,0.009338,-0.991211,0.312458,0.340763,-0.008855,53,276,580,6160
1644185150.733255,-0.009094,0.011353,-0.992676,0.113985,0.310229,-0.192061,58,276,566,6240
1644185150.77833,-0.007996,0.008179,-0.992798,0.266656,0.325496,-0.176794,53,271,580,6224
1644185150.873917,-0.006592,0.008423,-0.991394,0.159786,0.478168,-0.14626,54,275,579,6256
1644185150.922432,-0.007202,0.011353,-0.990234,0.098718,0.24916,-0.130992,49,277,575,6128
1644185150.970671,-0.008423,0.010742,-0.99469,0.129252,0.279695,-0.100458,51,274,571,6176
1644185151.019048,-0.01062,0.009338,-0.992615,0.068183,0.340763,-0.14626,47,280,570,6256
1644185151.06941,-0.007446,0.009521,-0.988464,0.35826,0.478168,-0.14626,54,282,582,6224
1644185151.115847,-0.011719,0.010254,-0.990295,0.175053,0.569771,-0.115725,43,269,580,6192
1644185151.164212,-0.011963,0.009583,-0.992737,0.175053,0.310229,-0.14626,55,276,580,6224
1644185151.21263,-0.010376,0.009155,-0.992798,0.404061,0.417099,-0.14626,46,271,587,6176
1644185151.261008,-0.006958,0.008118,-0.990845,0.327725,0.478168,-0.024122,55,281,585,6224
1644185151.309372,-0.009399,0.007996,-0.992493,0.220855,0.462901,-0.008855,38,275,584,6240
1644185151.357769,-0.009399,0.007263,-0.99176,0.205588,0.493435,0.098015,43,269,583,6192
1644185151.406185,-0.010193,0.009277,-0.99115,0.190321,0.24916,-0.008855,53,271,571,6224
1644185151.454686,-0.009033,0.010071,-0.987549,0.159786,0.432366,-0.008855,53,279,576,6176
1644185151.502993,-0.009827,0.009888,-0.993225,0.129252,0.310229,-0.115725,48,281,583,6224
1644185151.551358,-0.008728,0.007629,-0.99054,0.281924,0.401832,-0.130992,47,282,598,6224
1644185151.599751,-0.005737,0.010437,-0.989807,0.220855,0.447634,-0.176794,55,274,580,6256
1644185151.648149,-0.005249,0.00946,-0.992004,0.251389,0.432366,-0.008855,45,277,582,6304
1644185151.696535,-0.010986,0.010376,-0.990417,0.098718,0.325496,0.006412,45,275,575,6224
1644185151.744913,-0.006775,0.012146,-0.989929,0.281924,0.462901,0.006412,46,288,583,6192
1644185151.793491,-0.010681,0.011414,-0.990479,0.404061,0.386565,-0.054656,54,273,565,6304
1644185151.845444,-0.009399,0.009338,-0.993347,0.327725,0.279695,0.021679,57,280,582,6240
1644185151.894903,-0.006653,0.013,-0.989929,0.144519,0.340763,-0.039389,62,269,578,6160
1644185151.939526,-0.009644,0.00946,-0.99054,0.190321,0.371298,-0.176794,54,275,582,6224
1644185152.035456,-0.01001,0.010742,-0.991638,0.281924,0.447634,-0.054656,51,283,573,6224
1644185152.083841,-0.008057,0.009766,-0.993652,0.08345,0.310229,-0.085191,46,281,583,6160
1644185152.132388,-0.007751,0.009644,-0.990356,0.205588,0.401832,-0.100458,61,282,575,6160
1644185152.180446,-0.008484,0.009949,-0.991211,0.129252,0.386565,0.006412,46,279,585,6224
1644185152.228844,-0.006287,0.011292,-0.990784,0.190321,0.356031,-0.161527,47,280,575,6304
1644185152.277236,-0.005737,0.008728,-0.991028,0.251389,0.401832,-0.115725,46,274,571,6240
1644185152.32564,-0.008545,0.009033,-0.990295,0.388794,0.493435,-0.039389,51,274,576,6224
1644185152.374047,-0.011292,0.010193,-0.991333,0.266656,0.340763,-0.130992,46,283,576,6224
1644185152.422442,-0.006958,0.010193,-0.990295,0.251389,0.157557,0.067481,54,275,582,6240
1644185152.470833,-0.007019,0.009033,-0.990662,0.129252,0.325496,0.021679,52,273,586,6256
1644185152.51922,-0.007812,0.01178,-0.990295,-0.038687,0.432366,-0.14626,47,263,586,6176
1644185152.567605,-0.008118,0.011414,-0.991089,0.220855,0.417099,-0.207328,47,285,579,6224
1644185152.61599,-0.009644,0.009094,-0.990723,0.281924,0.401832,-0.115725,55,288,590,6240
1644185152.664407,-0.00824,0.01123,-0.995667,0.052916,0.340763,-0.176794,46,283,585,6224
1644185152.712811,-0.009644,0.007996,-0.991028,0.281924,0.310229,-0.024122,54,277,586,6224
1644185152.761158,-0.011536,0.008301,-0.991028,0.205588,0.478168,-0.085191,43,281,587,6240
1644185152.809549,-0.008301,0.009766,-0.990112,0.190321,0.386565,-0.039389,48,271,571,6192
1644185152.858007,-0.008667,0.009583,-0.991028,0.297191,0.294962,-0.069924,48,274,578,6240
1644185152.906421,-0.009338,0.009094,-0.991577,0.037649,0.646107,-0.161527,49,265,577,6224
1644185152.956578,-0.006226,0.010803,-0.992798,0.297191,0.417099,-0.085191,49,280,586,6256
1644185153.006605,-0.009338,0.012573,-0.990845,0.251389,0.371298,-0.14626,48,286,580,6240
1644185153.074085,-0.009338,0.00946,-0.992554,0.08345,0.401832,-0.024122,43,279,578,6224
1644185153.105862,-0.009766,0.009399,-0.991455,0.190321,0.508702,-0.130992,55,283,580,6256
1644185153.196708,-0.008667,0.011292,-0.99054,0.449863,0.493435,-0.161527,55,266,576,6192
1644185153.245334,-0.007568,0.010071,-0.991882,0.281924,0.233893,-0.130992,58,271,569,6240
1644185153.293496,-0.006958,0.009033,-0.993652,0.297191,0.462901,-0.069924,42,280,579,6224
1644185153.341895,-0.007141,0.009399,-0.990784,0.205588,0.356031,-0.14626,42,275,577,6240
1644185153.39029,-0.00946,0.006409,-0.991333,0.35826,0.279695,-0.024122,47,275,570,6176
1644185153.438678,-0.010132,0.00885,-0.990356,0.113985,0.294962,-0.115725,42,277,584,6176
1644185153.487059,-0.006165,0.009216,-0.990417,0.129252,0.539237,-0.054656,54,282,584,6256
1644185153.535455,-0.00946,0.011047,-0.994507,0.144519,0.386565,-0.008855,54,282,589,6224
1644185153.583873,-0.008789,0.008728,-0.99115,0.220855,0.325496,0.021679,53,279,573,6176
1644185153.632275,-0.009033,0.011536,-0.992859,0.144519,0.401832,-0.115725,51,281,578,6176
1644185153.680645,-0.009155,0.011108,-0.991577,0.327725,0.508702,-0.130992,46,281,578,6176
1644185153.729048,-0.00885,0.012512,-0.994202,0.175053,0.508702,0.052214,54,285,582,6176
1644185153.777441,-0.006836,0.010315,-0.990356,0.098718,0.356031,-0.069924,62,271,578,6160
1644185153.825806,-0.008728,0.006958,-0.991516,0.190321,0.279695,-0.069924,52,285,582,6176
1644185153.874282,-0.009705,0.010559,-0.993713,0.159786,0.401832,-0.085191,49,282,579,6160
1644185153.922671,-0.009033,0.011658,-0.992798,0.190321,0.447634,-0.176794,47,285,591,6176
1644185153.971004,-0.009888,0.009949,-0.994446,0.144519,0.417099,-0.085191,52,273,577,6224
1644185154.019432,-0.008789,0.010254,-0.990601,0.220855,0.554504,-0.024122,57,277,593,6176
1644185154.116252,-0.006958,0.01123,-0.992493,0.007115,0.417099,-0.130992,55,276,569,6224
1644185154.165179,-0.007385,0.009644,-0.990173,0.266656,0.356031,-0.192061,54,268,582,6176
1644185154.212977,-0.009888,0.009155,-0.991272,0.251389,0.417099,-0.054656,54,277,579,6192
1644185154.261348,-0.007874,0.008789,-0.993225,0.35826,0.401832,-0.069924,54,275,582,6224
1644185154.309743,-0.009521,0.00946,-0.99115,0.35826,0.432366,-0.039389,49,287,582,6224
1644185154.35816,-0.007751,0.00708,-0.992432,0.068183,0.493435,-0.161527,35,268,572,6240
1644185154.406534,-0.00885,0.012146,-0.993896,0.190321,0.401832,-0.130992,33,268,570,6224
1644185154.454926,-0.009155,0.010071,-0.993042,0.113985,0.447634,-0.115725,49,280,582,6224
1644185154.503305,-0.007446,0.008728,-0.994385,0.190321,0.417099,-0.054656,42,292,582,6256
1644185154.551726,-0.00592,0.012756,-0.992676,0.236122,0.508702,0.052214,47,270,582,6240
1644185154.60012,-0.004944,0.012146,-0.989502,0.08345,0.325496,-0.237863,47,277,575,6192
1644185154.648508,-0.007812,0.011536,-0.99292,0.190321,0.340763,-0.115725,52,280,586,6240
1644185154.696903,-0.010559,0.009277,-0.989014,0.052916,0.356031,-0.161527,54,282,575,6160
1644185154.74529,-0.008179,0.010925,-0.990784,0.022382,0.356031,-0.008855,46,276,578,6224
1644185154.793674,-0.009827,0.011169,-0.993652,0.175053,0.401832,-0.100458,47,280,586,6224
1644185154.842084,-0.008545,0.007202,-0.991577,0.266656,0.401832,-0.115725,45,282,586,6224
1644185154.890515,-0.006836,0.008423,-0.989441,0.266656,0.371298,-0.054656,42,292,577,6240
1644185154.938891,-0.009521,0.009888,-0.992615,0.266656,0.371298,-0.176794,39,281,576,6224
1644185154.987297,-0.007751,0.009399,-0.990234,0.175053,0.310229,-0.115725,54,277,582,6192
1644185155.036501,-0.007996,0.008423,-0.989075,0.281924,0.447634,-0.085191,52,285,577,6192
1644185155.098059,-0.01001,0.009644,-0.993469,0.052916,0.417099,-0.176794,49,282,575,6192
1644185155.136269,-0.007629,0.011597,-0.989502,0.236122,0.340763,-0.039389,53,281,583,6240
1644185155.181184,-0.009705,0.01001,-0.992981,0.113985,0.447634,-0.069924,49,285,575,6224
1644185155.277609,-0.007324,0.008972,-0.994751,0.144519,0.386565,-0.115725,45,280,582,6192
1644185155.325993,-0.008667,0.010864,-0.993896,0.236122,0.356031,-0.192061,52,275,577,6240
1644185155.374391,-0.007385,0.009644,-0.990479,0.037649,0.432366,-0.039389,47,275,570,6224
1644185155.422796,-0.010071,0.009827,-0.993225,0.236122,0.417099,-0.024122,47,273,582,6240
1644185155.471187,-0.00946,0.012268,-0.991577,0.251389,0.279695,-0.039389,48,281,583,6240
1644185155.519567,-0.005859,0.008972,-0.992493,0.312458,0.386565,-0.222595,51,274,578,6176
1644185155.567951,-0.00824,0.007141,-0.990479,0.129252,0.371298,-0.207328,45,277,584,6240
1644185155.616373,-0.007263,0.00708,-0.992859,0.297191,0.386565,-0.161527,61,277,565,6192
1644185155.664779,-0.008545,0.009399,-0.990845,0.205588,0.417099,-0.130992,43,276,580,6224
1644185155.713175,-0.006775,0.010925,-0.993835,0.35826,0.356031,0.082748,58,288,580,6224
1644185155.761549,-0.010864,0.010193,-0.991821,0.220855,0.371298,-0.085191,57,275,582,6240
1644185155.809976,-0.007568,0.006836,-0.993042,0.113985,0.356031,-0.237863,49,275,582,6224
1644185155.85837,-0.008057,0.008057,-0.992859,0.159786,0.417099,-0.054656,45,282,579,6224
1644185155.90676,-0.007996,0.011719,-0.990356,0.08345,0.447634,-0.192061,49,277,579,6224
1644185155.955189,-0.009216,0.013916,-0.990601,0.175053,0.523969,-0.085191,43,274,580,6160
1644185156.003514,-0.00592,0.010986,-0.992737,0.159786,0.386565,-0.024122,54,270,582,6160
1644185156.066401,-0.008301,0.010559,-0.99176,0.373527,0.294962,-0.008855,32,281,587,6176
1644185156.103181,-0.00647,0.008911,-0.99115,0.113985,0.432366,-0.130992,51,283,583,6224
1644185156.148687,-0.008606,0.009766,-0.992859,0.175053,0.417099,-0.008855,55,274,590,6240
1644185156.197709,-0.007996,0.009521,-0.991028,0.159786,0.417099,-0.024122,59,273,582,6224
1644185156.247919,-0.009155,0.009644,-0.993347,0.175053,0.386565,-0.100458,51,271,576,6224
1644185156.297962,-0.008606,0.010559,-0.991882,0.251389,0.371298,-0.085191,48,276,576,6176
1644185156.343042,-0.008301,0.010132,-0.992737,0.251389,0.493435,-0.039389,62,281,583,6224
1644185156.439023,-0.008179,0.008484,-0.99176,0.190321,0.386565,-0.161527,39,274,576,6192
1644185156.487418,-0.006531,0.00946,-0.991882,0.327725,0.462901,-0.130992,52,275,570,6176
1644185156.535804,-0.007812,0.011536,-0.993958,0.327725,0.279695,-0.14626,55,271,571,6224
1644185156.584281,-0.010864,0.010925,-0.99292,0.144519,0.325496,-0.054656,48,279,587,6240
1644185156.632617,-0.010437,0.010132,-0.992493,0.068183,0.462901,-0.161527,52,282,579,6192
1644185156.681008,-0.010498,0.010193,-0.992126,0.297191,0.401832,-0.085191,48,283,576,6176
1644185156.729398,-0.008606,0.010193,-0.990051,0.251389,0.569771,-0.039389,48,281,590,6240
1644185156.777802,-0.005493,0.009766,-0.990112,0.175053,0.279695,-0.100458,45,280,582,6256
1644185156.826234,-0.010254,0.008484,-0.992737,0.159786,0.462901,-0.14626,54,275,577,6224
1644185156.874746,-0.009155,0.010864,-0.992126,0.266656,0.325496,-0.039389,49,276,583,6176
1644185156.923026,-0.010681,0.009644,-0.992188,0.159786,0.417099,-0.085191,48,281,592,6192
1644185156.971393,-0.009155,0.01062,-0.990234,0.175053,0.462901,-0.130992,41,281,590,6160
1644185157.019799,-0.007996,0.009155,-0.98877,0.251389,0.462901,-0.192061,58,279,578,6192
1644185157.081844,-0.004944,0.009949,-0.991211,0.251389,0.218626,-0.085191,54,292,589,6192
1644185157.116541,-0.007507,0.008545,-0.99176,0.297191,0.294962,-0.207328,48,279,587,6176
1644185157.164932,-0.010803,0.011902,-0.992249,0.037649,0.417099,-0.176794,54,270,575,6240
1644185157.213336,-0.007385,0.010559,-0.991211,0.052916,0.325496,-0.085191,53,276,590,6176
1644185157.261725,-0.00769,0.012085,-0.990845,0.098718,0.539237,-0.115725,51,276,578,6336
1644185157.310106,-0.007874,0.009399,-0.992981,0.159786,0.325496,0.036947,46,274,587,6160
1644185157.358546,-0.007874,0.008972,-0.991882,0.190321,0.417099,-0.069924,51,271,576,6224
1644185157.408646,-0.010986,0.009644,-0.993164,0.297191,0.447634,-0.25313,67,276,578,6224
1644185157.458916,-0.008057,0.011353,-0.993042,0.113985,0.417099,-0.207328,57,275,579,6224
1644185157.50397,-0.007935,0.010742,-0.995544,0.098718,0.585038,-0.085191,51,279,583,6176
1644185157.600479,-0.009155,0.008606,-0.990112,0.266656,0.508702,-0.207328,47,265,589,6240
1644185157.64886,-0.006775,0.011719,-0.989868,0.35826,0.417099,-0.100458,52,268,579,6224
1644185157.697262,-0.010376,0.009827,-0.993042,0.159786,0.508702,-0.192061,46,286,578,6224
1644185157.745647,-0.010193,0.010681,-0.98999,0.373527,0.371298,-0.100458,45,287,579,6224
1644185157.794053,-0.010193,0.012634,-0.990234,0.251389,0.417099,-0.039389,51,271,580,6192
1644185157.842496,-0.00769,0.011841,-0.991638,0.266656,0.325496,-0.085191,45,275,582,6160
1644185157.890875,-0.006714,0.010986,-0.994202,0.236122,0.310229,-0.25313,46,276,580,6240
1644185157.939263,-0.011414,0.005798,-0.994202,0.113985,0.432366,-0.008855,49,277,575,6176
1644185157.987667,-0.00708,0.011475,-0.992432,0.312458,0.325496,-0.161527,48,286,585,6224
1644185158.036052,-0.007996,0.009277,-0.992859,0.144519,0.508702,-0.14626,40,275,584,6224
1644185158.084541,-0.009033,0.010742,-0.993164,0.08345,0.371298,-0.008855,45,277,591,6128
1644185158.132829,-0.008118,0.008972,-0.99115,0.312458,0.233893,-0.100458,54,282,589,6176
1644185158.181199,-0.008423,0.012024,-0.989929,0.251389,0.493435,-0.039389,47,273,582,6112
1644185158.229581,-0.007507,0.009583,-0.988708,0.098718,0.417099,-0.115725,48,283,580,6224
1644185158.277984,-0.006653,0.010254,-0.992188,0.159786,0.401832,-0.085191,40,273,582,6224
1644185158.326362,-0.006592,0.01123,-0.991516,0.190321,0.310229,-0.024122,42,275,579,6240
1644185158.374785,-0.008972,0.010498,-0.991638,0.175053,0.462901,-0.039389,57,270,579,6192
1644185158.423229,-0.009583,0.008972,-0.992249,0.205588,0.462901,-0.207328,39,281,578,6224
1644185158.473649,-0.00769,0.010193,-0.991882,0.175053,0.417099,-0.222595,58,271,592,6256
1644185158.523916,-0.008606,0.007874,-0.992249,0.220855,0.24916,-0.054656,38,268,584,6224
1644185158.569102,-0.010559,0.007568,-0.991333,0.159786,0.386565,-0.14626,48,276,585,6240
1644185158.665352,-0.010925,0.010376,-0.990723,0.113985,0.417099,-0.069924,51,269,578,6240
1644185158.713533,-0.009338,0.008911,-0.990906,0.220855,0.386565,-0.039389,57,268,582,6224
1644185158.761885,-0.011963,0.009827,-0.993286,0.052916,0.478168,0.006412,53,279,587,6240
1644185158.810303,-0.009033,0.009888,-0.990662,0.052916,0.508702,-0.115725,48,276,573,6192
1644185158.858719,-0.008179,0.010071,-0.991455,0.236122,0.478168,-0.161527,52,277,579,6224
1644185158.907123,-0.008972,0.008911,-0.990173,0.297191,0.401832,-0.115725,40,282,579,6240
1644185158.955511,-0.007812,0.010193,-0.988953,0.236122,0.386565,-0.054656,45,263,589,6224
1644185159.003893,-0.010864,0.01123,-0.988953,0.205588,0.447634,0.006412,53,281,566,6240
1644185159.063637,-0.004639,0.009949,-0.989014,0.251389,0.310229,-0.115725,48,276,585,6224
1644185159.103559,-0.009399,0.00946,-0.990234,0.129252,0.508702,-0.100458,49,282,572,6224
1644185159.149052,-0.009155,0.011719,-0.991638,0.144519,0.600305,-0.207328,51,274,578,6128
1644185159.197453,-0.009277,0.011414,-0.99054,0.129252,0.401832,-0.024122,47,277,584,6256
1644185159.245833,-0.00946,0.008667,-0.991638,0.236122,0.356031,-0.100458,49,277,584,6192
1644185159.29424,-0.005676,0.01062,-0.991882,0.281924,0.462901,-0.192061,48,269,585,6192
1644185159.342606,-0.006897,0.007751,-0.995178,0.327725,0.310229,-0.130992,55,283,587,6224
1644185159.391009,-0.00531,0.011475,-0.989014,0.159786,0.432366,-0.039389,59,270,584,6224
1644185159.439376,-0.012085,0.007874,-0.988831,0.342992,0.493435,-0.100458,62,269,573,6240
1644185159.487818,-0.011475,0.008911,-0.989014,0.129252,0.325496,0.006412,47,273,579,6256
1644185159.537809,-0.006287,0.008179,-0.989746,0.449863,0.310229,-0.024122,46,276,573,6176
1644185159.588174,-0.007446,0.009766,-0.989441,0.251389,0.417099,-0.069924,52,277,591,6224
1644185159.6383,-0.009399,0.00885,-0.990906,0.251389,0.523969,-0.039389,48,281,573,6224
1644185159.729769,-0.008545,0.012268,-0.991455,0.113985,0.493435,-0.192061,55,271,583,6176
1644185159.778134,-0.008545,0.007141,-0.993164,0.190321,0.478168,-0.054656,45,273,586,6192
1644185159.826525,-0.006958,0.010742,-0.98999,0.449863,0.462901,0.021679,52,270,572,6192
1644185159.875009,-0.007629,0.009338,-0.992676,-0.008153,0.401832,0.021679,49,277,582,6224
1644185159.923383,-0.009583,0.010132,-0.992493,0.236122,0.294962,-0.054656,47,282,582,6112
1644185159.971745,-0.008972,0.009155,-0.992798,0.281924,0.432366,-0.100458,48,276,587,6224
1644185160.020169,-0.007812,0.008911,-0.99176,0.175053,0.401832,-0.115725,51,276,587,6192
1644185160.069208,-0.007568,0.010559,-0.992432,0.190321,0.508702,-0.100458,54,280,579,6224
1644185160.11694,-0.008911,0.011292,-0.991028,0.190321,0.310229,-0.100458,45,268,591,6192
1644185160.165332,-0.008911,0.009338,-0.992859,0.022382,0.356031,0.006412,46,271,576,6224
1644185160.213711,-0.008667,0.012939,-0.98999,0.266656,0.447634,-0.054656,58,274,580,6192
1644185160.262072,-0.010437,0.009644,-0.992554,0.373527,0.508702,-0.024122,52,292,586,6192
1644185160.310472,-0.010132,0.010742,-0.992249,0.281924,0.340763,0.006412,42,275,570,6256
1644185160.358866,-0.008362,0.009705,-0.99176,0.129252,0.294962,-0.14626,43,279,585,6224
1644185160.407264,-0.006287,0.010681,-0.99292,0.205588,0.310229,-0.14626,51,283,587,6288
1644185160.455672,-0.007812,0.009094,-0.994019,0.190321,0.386565,-0.176794,47,273,577,6176
1644185160.504026,-0.005493,0.011719,-0.990662,0.297191,0.401832,-0.130992,42,277,589,6240
1644185160.55247,-0.009705,0.009766,-0.994629,0.236122,0.478168,-0.024122,40,282,575,6224
1644185160.600808,-0.006836,0.011841,-0.994385,0.46513,0.432366,-0.024122,54,277,586,6224
1644185160.649421,-0.007507,0.009216,-0.990234,0.251389,0.24916,-0.207328,48,283,583,6224
1644185160.699769,-0.009705,0.006714,-0.990295,0.236122,0.340763,-0.085191,53,276,580,6160
1644185160.750033,-0.006653,0.007874,-0.98938,0.159786,0.63084,-0.039389,59,280,577,6224
1644185160.79511,-0.008911,0.009033,-0.991272,0.312458,0.493435,-0.115725,49,277,591,6224
1644185160.891233,-0.007874,0.013,-0.988525,0.159786,0.340763,-0.192061,54,273,568,6224
1644185160.939619,-0.009705,0.009583,-0.992065,0.220855,0.493435,-0.25313,51,281,580,6192
1644185160.988014,-0.0047,0.01239,-0.990234,0.113985,0.462901,-0.039389,46,276,580,6224
1644185161.0364,-0.009033,0.011169,-0.993042,0.129252,0.462901,-0.14626,51,274,571,6240
1644185161.087122,-0.009277,0.011536,-0.991821,0.297191,0.310229,0.021679,46,283,587,6176
1644185161.133215,-0.008118,0.011902,-0.992249,0.129252,0.447634,-0.069924,47,273,586,6192
1644185161.181561,-0.007935,0.011353,-0.991638,0.159786,0.523969,-0.085191,47,287,577,6176
1644185161.229923,-0.007385,0.009949,-0.991882,0.190321,0.417099,-0.115725,47,285,584,6192
1644185161.278336,-0.005066,0.011353,-0.988159,0.190321,0.462901,-0.085191,51,274,580,6160
1644185161.326736,-0.008179,0.011047,-0.991272,0.190321,0.401832,-0.130992,52,290,579,6176
1644185161.375224,-0.008728,0.010803,-0.992676,0.312458,0.371298,0.021679,51,276,587,6288
1644185161.423514,-0.00647,0.013367,-0.990112,0.297191,0.325496,-0.115725,49,273,593,6224
1644185161.47192,-0.009521,0.010071,-0.990845,0.068183,0.386565,-0.008855,55,286,587,6192
1644185161.520271,-0.00946,0.007874,-0.991211,0.205588,0.493435,-0.222595,49,282,582,6176
1644185161.568697,-0.009155,0.008484,-0.989441,0.297191,0.478168,-0.237863,49,275,582,6160
1644185161.617085,-0.01123,0.010315,-0.992432,0.129252,0.508702,-0.085191,52,273,577,6128
1644185161.665476,-0.010132,0.008911,-0.990173,0.220855,0.340763,-0.192061,49,280,575,6192
1644185161.71387,-0.011719,0.005859,-0.99469,0.190321,0.386565,-0.008855,48,274,587,6192
1644185161.762282,-0.010498,0.01001,-0.993652,0.266656,0.417099,-0.130992,51,279,585,6192
1644185161.810986,-0.009888,0.013306,-0.991638,0.266656,0.340763,-0.008855,46,276,580,6256
1644185161.862444,-0.00885,0.010925,-0.990479,0.220855,0.401832,-0.192061,51,271,578,6224
1644185161.912512,-0.007202,0.007874,-0.992249,0.190321,0.462901,-0.100458,39,276,585,6192
1644185161.957557,-0.009949,0.006714,-0.993652,0.205588,0.447634,-0.069924,52,277,577,6240
1644185162.067478,-0.011047,0.007446,-0.992065,0.205588,0.401832,-0.054656,55,274,599,6176
1644185162.102712,-0.008057,0.00592,-0.99176,0.098718,0.447634,-0.039389,54,290,582,6160
1644185162.149447,-0.010254,0.009277,-0.991882,0.08345,0.508702,-0.085191,51,271,585,6176
1644185162.197805,-0.012024,0.007874,-0.992676,0.098718,0.371298,-0.14626,47,287,584,6192
1644185162.24617,-0.006592,0.010681,-0.992188,0.342992,0.508702,0.036947,53,274,585,6192
1644185162.294636,-0.010925,0.009399,-0.992004,0.312458,0.523969,-0.14626,46,283,585,6160
1644185162.342995,-0.009033,0.009583,-0.992188,0.159786,0.264427,-0.222595,54,273,577,6176
1644185162.391386,-0.009155,0.010681,-0.991638,0.037649,0.356031,-0.069924,53,279,580,6192
1644185162.439767,-0.005432,0.013245,-0.99176,0.129252,0.432366,-0.237863,55,286,583,6224
1644185162.488132,-0.008362,0.011963,-0.991943,0.175053,0.539237,-0.14626,57,275,591,6128
1644185162.536534,-0.006348,0.009216,-0.993164,0.205588,0.417099,-0.039389,58,286,583,6224
1644185162.585327,-0.00824,0.009094,-0.991821,0.220855,0.432366,-0.069924,41,276,583,6224
1644185162.634212,-0.008362,0.009583,-0.993469,0.190321,0.264427,-0.207328,57,273,584,6176
1644185162.684781,-0.010071,0.010071,-0.992615,0.35826,0.554504,-0.130992,51,269,583,6240
1644185162.73505,-0.011963,0.007629,-0.991699,0.281924,0.493435,-0.085191,58,281,583,6256
1644185162.826931,-0.010925,0.007935,-0.991394,0.220855,0.462901,-0.14626,47,273,582,6240
1644185162.875416,-0.006714,0.006775,-0.990479,0.190321,0.356031,-0.085191,55,281,587,6224
1644185162.923724,-0.010132,0.010132,-0.989807,0.144519,0.356031,-0.054656,51,271,583,6160
1644185162.972398,-0.005615,0.013794,-0.98938,0.220855,0.310229,-0.14626,45,280,575,6240
1644185163.020534,-0.007935,0.010376,-0.988464,0.113985,0.310229,-0.039389,57,268,593,6192
1644185163.068963,-0.006104,0.010803,-0.991028,0.236122,0.325496,-0.039389,59,273,586,6240
1644185163.117247,-0.006287,0.011353,-0.990173,0.113985,0.401832,-0.100458,42,277,593,6240
1644185163.165661,-0.01001,0.009094,-0.991638,0.220855,0.371298,-0.039389,52,280,589,6240
1644185163.214058,-0.006287,0.008606,-0.995056,0.129252,0.478168,-0.115725,52,273,589,6224
1644185163.262458,-0.010071,0.013123,-0.991394,0.220855,0.371298,-0.024122,52,280,593,6288
1644185163.310835,-0.006958,0.01239,-0.992126,0.190321,0.417099,-0.069924,47,270,570,6192
1644185163.359231,-0.005493,0.00946,-0.99115,0.312458,0.447634,-0.085191,47,285,589,6256
1644185163.407634,-0.008667,0.007996,-0.988708,0.098718,0.325496,-0.069924,47,275,602,6192
1644185163.456011,-0.011719,0.009583,-0.992554,0.205588,0.554504,-0.024122,49,282,591,6192
1644185163.504388,-0.01062,0.007874,-0.990967,0.205588,0.646107,-0.115725,45,280,591,6160
1644185163.55282,-0.00592,0.011108,-0.991272,0.342992,0.386565,-0.161527,57,277,584,6240
1644185163.601197,-0.007568,0.008728,-0.989502,0.327725,0.417099,-0.085191,52,282,593,6176
1644185163.649589,-0.009705,0.011597,-0.989746,0.144519,0.325496,-0.130992,49,277,591,6160
1644185163.697977,-0.00769,0.008484,-0.99054,0.205588,0.294962,-0.176794,47,275,589,6176
1644185163.746725,-0.008667,0.012085,-0.993225,0.190321,0.432366,-0.039389,43,279,585,6224
1644185163.797084,-0.00824,0.007935,-0.990417,0.220855,0.432366,-0.130992,53,276,571,6240
1644185163.848093,-0.009033,0.009827,-0.992676,0.236122,0.432366,-0.054656,45,285,579,6128
1644185163.892623,-0.009155,0.009827,-0.992981,0.190321,0.493435,-0.085191,45,279,573,6192
1644185163.988364,-0.010254,0.008545,-0.991455,0.312458,0.325496,-0.115725,53,276,585,6176
1644185164.036761,-0.011047,0.009644,-0.99292,0.129252,0.294962,-0.14626,51,269,576,6160
1644185164.0853,-0.008606,0.008972,-0.992432,0.175053,0.325496,-0.008855,53,274,583,6240
1644185164.133547,-0.009338,0.010498,-0.989685,0.266656,0.386565,-0.054656,53,279,583,6160
1644185164.181904,-0.007568,0.008789,-0.992554,0.251389,0.325496,-0.25313,46,271,590,6240
1644185164.230308,-0.008118,0.011108,-0.992737,0.022382,0.432366,-0.130992,52,275,577,6224
1644185164.278668,-0.007568,0.010986,-0.990479,0.327725,0.356031,-0.069924,52,275,577,6240
1644185164.327094,-0.006714,0.009338,-0.990906,0.098718,0.325496,0.067481,46,274,583,6224
1644185164.375461,-0.009827,0.011841,-0.990845,0.098718,0.386565,-0.222595,59,277,577,6176
1644185164.423904,-0.007629,0.009033,-0.994995,0.159786,0.325496,-0.100458,49,280,584,6256
1644185164.472291,-0.009277,0.007996,-0.992737,0.022382,0.432366,-0.100458,52,282,586,6224
1644185164.520701,-0.009155,0.00885,-0.991821,0.327725,0.432366,-0.054656,51,274,578,6176
1644185164.56906,-0.007324,0.010071,-0.991089,0.297191,0.478168,-0.161527,52,273,584,6224
1644185164.617447,-0.008972,0.012024,-0.989319,0.220855,0.386565,-0.115725,35,285,586,6224
1644185164.66584,-0.008301,0.00824,-0.989075,0.144519,0.539237,-0.069924,52,280,584,6224
1644185164.71423,-0.011475,0.008057,-0.992249,0.159786,0.432366,-0.054656,52,277,586,6224
1644185164.762638,-0.007996,0.007812,-0.994202,0.098718,0.447634,0.006412,55,274,590,6192
1644185164.811067,-0.009155,0.008728,-0.988464,0.297191,0.508702,-0.085191,45,273,591,6224
1644185164.860718,-0.009155,0.010925,-0.990784,0.312458,0.294962,-0.024122,52,285,579,6224
1644185164.911146,-0.009094,0.010315,-0.991699,0.312458,0.447634,-0.039389,55,271,569,6176
1644185164.961139,-0.006897,0.00824,-0.990479,0.144519,0.356031,0.006412,45,277,589,6176
1644185165.005797,-0.008606,0.01001,-0.993408,0.08345,0.523969,-0.024122,58,279,576,6224
1644185165.103379,-0.012024,0.010071,-0.993225,0.205588,0.371298,0.021679,54,287,596,6176
1644185165.149763,-0.010437,0.009338,-0.992676,0.297191,0.462901,-0.115725,53,274,590,6160
1644185165.198196,-0.008057,0.01062,-0.991638,0.190321,0.432366,-0.25313,43,274,580,6224
1644185165.246527,-0.007874,0.008057,-0.991882,0.129252,0.401832,-0.069924,43,286,580,6240
1644185165.295067,-0.008667,0.008179,-0.994385,0.159786,0.508702,-0.024122,62,281,580,6224
1644185165.343357,-0.009216,0.006775,-0.992737,0.327725,0.356031,-0.008855,59,282,582,6224
1644185165.39174,-0.00885,0.012024,-0.989746,0.236122,0.478168,-0.130992,49,273,584,6240
1644185165.440101,-0.007446,0.01001,-0.994446,0.266656,0.386565,-0.069924,41,276,578,6240
1644185165.488522,-0.010742,0.00946,-0.989807,0.129252,0.386565,-0.115725,57,275,577,6240
1644185165.536918,-0.008362,0.008301,-0.991943,0.220855,0.325496,-0.14626,47,270,589,6192
1644185165.585306,-0.007141,0.009705,-0.991089,0.144519,0.371298,-0.039389,49,277,598,6224
1644185165.633702,-0.013184,0.006836,-0.992493,0.236122,0.478168,-0.14626,62,274,587,6160
1644185165.68209,-0.010803,0.010986,-0.992493,0.297191,0.585038,-0.176794,39,291,583,6240
1644185165.730725,-0.008911,0.009644,-0.993347,0.220855,0.340763,-0.130992,45,280,586,6256
1644185165.781219,-0.008484,0.00769,-0.992615,0.159786,0.462901,-0.130992,41,281,580,6224
1644185165.833117,-0.008728,0.010254,-0.990906,0.236122,0.508702,-0.054656,45,270,582,6160
1644185165.877094,-0.012573,0.010559,-0.990967,0.190321,0.325496,-0.130992,45,275,579,6128
1644185165.972499,-0.00824,0.00885,-0.994324,0.159786,0.371298,0.067481,57,273,575,6176
1644185166.020881,-0.010864,0.00824,-0.99292,0.190321,0.432366,-0.207328,47,275,577,6176
1644185166.070052,-0.007751,0.007812,-0.988831,0.220855,0.432366,0.036947,45,277,589,6128
1644185166.117615,-0.009033,0.010498,-0.992798,0.266656,0.264427,-0.085191,45,275,593,6192
1644185166.166001,-0.01062,0.010254,-0.990356,0.175053,0.386565,-0.039389,47,273,582,6224
1644185166.214395,-0.010742,0.006836,-0.989929,0.281924,0.493435,-0.207328,45,282,589,6240
1644185166.262826,-0.006531,0.011536,-0.991943,0.113985,0.462901,-0.008855,47,282,591,6192
1644185166.311192,-0.006531,0.008606,-0.989807,0.159786,0.264427,-0.176794,48,276,569,6224
1644185166.359597,-0.007629,0.011108,-0.990967,0.007115,0.523969,-0.115725,58,264,585,6240
1644185166.407991,-0.006287,0.009277,-0.992432,0.266656,0.417099,-0.039389,48,279,578,6224
1644185166.456381,-0.005005,0.00885,-0.990479,0.373527,0.432366,-0.100458,57,280,600,6192
1644185166.504796,-0.007202,0.010132,-0.990967,0.35826,0.325496,0.082748,61,280,579,6224
1644185166.553185,-0.007507,0.008362,-0.992676,0.129252,0.569771,0.006412,57,270,586,6192
1644185166.601562,-0.008423,0.010132,-0.994812,0.251389,0.401832,0.143817,57,273,584,6176
1644185166.649948,-0.008606,0.008728,-0.989624,0.266656,0.401832,-0.130992,54,275,589,6224
1644185166.69831,-0.00824,0.011169,-0.990662,0.281924,0.447634,-0.100458,53,276,594,6240
1644185166.746742,-0.007996,0.010864,-0.990601,0.281924,0.325496,-0.024122,40,275,586,6288
1644185166.796138,-0.00769,0.008118,-0.993042,0.251389,0.432366,-0.069924,52,277,586,6160
1644185166.843585,-0.009583,0.009399,-0.992126,0.08345,0.569771,-0.115725,52,273,582,6240
1644185166.893384,-0.008911,0.007935,-0.991455,0.068183,0.462901,-0.130992,53,276,583,6224
1644185166.943796,-0.007202,0.007385,-0.990662,0.175053,0.371298,-0.207328,53,276,583,6224
1644185166.994039,-0.009827,0.013,-0.991089,0.205588,0.325496,-0.069924,40,282,582,6224
1644185167.038567,-0.006348,0.008667,-0.989624,0.068183,0.493435,-0.024122,51,274,580,6240
1644185167.133907,-0.00824,0.009216,-0.991028,0.342992,0.386565,-0.176794,54,275,582,6288
1644185167.182409,-0.011475,0.009338,-0.988098,0.190321,0.508702,-0.039389,49,280,591,6192
1644185167.230659,-0.009216,0.009521,-0.990234,0.266656,0.356031,0.021679,49,287,584,6224
1644185167.279054,-0.009888,0.008606,-0.990173,0.190321,0.371298,-0.069924,46,271,578,6224
