epoch,acc_x,acc_y,acc_z,rot_x,rot_y,rot_z,mag_x,mag_y,mag_z,temp
1644177600.040031,-0.008301,0.006897,-0.992737,0.175053,0.325496,-0.024122,57,273,584,5888
1644177600.088474,-0.009583,0.010559,-0.989929,0.266656,0.432366,0.052214,47,280,582,5952
1644177600.13681,-0.011536,0.007935,-0.990906,0.220855,0.432366,-0.100458,55,283,578,5824
1644177600.185192,-0.010193,0.01062,-0.991272,0.251389,0.218626,-0.115725,45,273,577,5984
1644177600.233559,-0.008423,0.00824,-0.992981,0.159786,0.462901,-0.237863,43,288,590,5984
1644177600.281916,-0.00769,0.008606,-0.990723,0.342992,0.356031,-0.100458,42,275,577,5888
1644177600.330347,-0.011108,0.010925,-0.990784,0.068183,0.401832,-0.115725,47,277,589,5840
1644177600.378723,-0.009766,0.010437,-0.993347,0.404061,0.310229,-0.161527,49,282,582,5984
1644177600.427124,-0.00708,0.009277,-0.990356,0.281924,0.325496,-0.115725,49,277,577,5952
1644177600.475513,-0.009033,0.006958,-0.992737,0.113985,0.462901,0.067481,49,268,582,5904
1644177600.523923,-0.009338,0.010132,-0.992615,0.129252,0.356031,-0.14626,49,285,582,5888
1644177600.572294,-0.012146,0.009094,-0.991516,0.220855,0.264427,0.006412,52,275,575,5888
1644177600.620687,-0.008789,0.009277,-0.990906,0.098718,0.523969,-0.024122,49,277,584,5936
1644177600.669082,-0.008728,0.008118,-0.993591,0.205588,0.447634,-0.024122,43,269,578,5888
1644177600.717466,-0.009705,0.010193,-0.994141,0.175053,0.432366,-0.100458,57,263,577,5872
1644177600.765853,-0.011353,0.009338,-0.99115,0.113985,0.462901,-0.130992,47,280,591,5936
1644177600.814254,-0.011169,0.008606,-0.992126,0.327725,0.340763,-0.039389,43,279,585,5936
1644177600.862726,-0.009277,0.007751,-0.991028,0.251389,0.493435,-0.024122,51,274,587,5872
1644177600.911581,-0.009521,0.013123,-0.991821,0.281924,0.493435,-0.085191,58,276,576,5904
1644177600.961871,-0.010925,0.011353,-0.991394,0.220855,0.417099,-0.192061,49,275,589,5952
1644177601.012185,-0.009521,0.008789,-0.993164,0.144519,0.279695,-0.115725,55,279,590,5904
1644177601.104684,-0.011292,0.008484,-0.992371,0.190321,0.356031,-0.192061,55,274,592,5952
1644177601.153065,-0.010864,0.009644,-0.993103,0.068183,0.432366,-0.054656,53,271,587,5904
1644177601.201386,-0.007751,0.012451,-0.989014,0.342992,0.356031,-0.024122,58,264,578,5904
1644177601.249753,-0.008057,0.008301,-0.992981,0.037649,0.386565,-0.14626,42,277,572,5952
1644177601.298169,-0.008911,0.009888,-0.992615,0.281924,0.340763,-0.237863,53,262,585,5984
1644177601.346568,-0.01001,0.008301,-0.992371,0.129252,0.462901,-0.207328,53,281,583,5872
1644177601.395082,-0.009644,0.008667,-0.989807,0.175053,0.462901,-0.192061,48,279,580,5888
1644177601.443365,-0.006836,0.008423,-0.992249,0.08345,0.478168,-0.054656,52,275,584,5872
1644177601.492235,-0.009094,0.008057,-0.991943,0.144519,0.523969,-0.130992,59,273,593,5904
1644177601.540128,-0.009949,0.008301,-0.992676,0.236122,0.371298,-0.176794,51,276,587,5888
1644177601.588508,-0.009277,0.011414,-0.992249,0.144519,0.325496,-0.130992,59,280,589,5984
1644177601.636885,-0.01001,0.01062,-0.991882,0.281924,0.294962,0.067481,48,283,585,5936
1644177601.685301,-0.007141,0.006531,-0.992981,0.281924,0.386565,-0.008855,51,274,590,5872
1644177601.733693,-0.009705,0.00885,-0.991089,0.068183,0.417099,-0.115725,46,274,583,5824
1644177601.782083,-0.00824,0.006714,-0.990112,0.327725,0.325496,-0.039389,52,275,591,5936
1644177601.830793,-0.007629,0.008545,-0.993286,0.190321,0.340763,-0.054656,52,275,579,5984
1644177601.880393,-0.00946,0.013855,-0.991333,0.190321,0.279695,0.021679,49,285,589,5904
1644177601.930925,-0.009399,0.01178,-0.993896,0.113985,0.325496,-0.161527,46,279,580,5904
1644177601.98156,-0.011963,0.00946,-0.992981,0.297191,0.294962,-0.039389,43,262,580,5904
1644177602.072618,-0.009766,0.009949,-0.989563,0.327725,0.310229,-0.176794,47,270,589,5952
1644177602.120858,-0.009216,0.011353,-0.992676,0.129252,0.264427,-0.100458,46,281,578,5936
1644177602.169251,-0.008667,0.008728,-0.991577,0.052916,0.432366,-0.069924,43,271,587,5904
1644177602.217637,-0.009155,0.012085,-0.991333,0.220855,0.417099,-0.024122,42,280,582,5904
1644177602.266017,-0.00769,0.008606,-0.992676,0.327725,0.401832,-0.222595,53,283,587,5888
1644177602.314416,-0.009094,0.00824,-0.991821,0.236122,0.340763,-0.176794,47,270,582,5984
1644177602.362867,-0.009216,0.005249,-0.99176,0.312458,0.294962,-0.176794,58,279,578,5888
1644177602.411221,-0.010071,0.008362,-0.991333,0.022382,0.386565,-0.115725,46,279,587,5872
1644177602.45962,-0.011169,0.011047,-0.991089,0.236122,0.386565,-0.222595,52,285,577,5888
1644177602.508005,-0.009216,0.010498,-0.993958,0.312458,0.356031,-0.14626,52,277,570,5936
1644177602.556399,-0.008301,0.01123,-0.991821,0.327725,0.462901,-0.25313,32,269,573,5984
1644177602.604806,-0.008484,0.010681,-0.991638,0.281924,0.523969,-0.283664,53,271,587,5904
1644177602.653195,-0.005859,0.009094,-0.991272,0.281924,0.447634,-0.192061,42,280,584,5904
1644177602.701559,-0.008362,0.008972,-0.991577,0.022382,0.462901,-0.237863,47,287,584,5984
1644177602.749961,-0.009766,0.009644,-0.991394,0.251389,0.447634,-0.207328,46,269,578,5952
1644177602.798357,-0.009338,0.007935,-0.993347,0.113985,0.371298,-0.100458,49,277,584,5904
1644177602.846748,-0.007874,0.009827,-0.990784,0.251389,0.386565,-0.192061,45,282,579,5936
1644177602.895571,-0.007568,0.009155,-0.990173,0.251389,0.325496,-0.100458,53,274,580,5936
1644177602.943801,-0.010132,0.008911,-0.990234,0.281924,0.417099,-0.039389,45,277,582,5936
1644177602.994883,-0.008972,0.00946,-0.991882,0.08345,0.493435,-0.176794,42,273,579,5872
1644177603.044458,-0.007385,0.010376,-0.993286,0.190321,0.340763,-0.207328,45,265,591,5936
1644177603.10076,-0.005981,0.007263,-0.991943,0.327725,0.386565,-0.222595,60,281,583,5952
1644177603.185444,-0.009155,0.010864,-0.989197,0.220855,0.340763,-0.222595,47,277,579,5888
1644177603.233845,-0.009155,0.010864,-0.989929,0.129252,0.462901,-0.085191,61,265,582,5936
1644177603.282439,-0.010376,0.009583,-0.992432,0.251389,0.554504,-0.298931,59,268,584,5936
1644177603.330614,-0.009216,0.010071,-0.99054,0.08345,0.371298,-0.192061,53,266,571,5888
1644177603.379048,-0.010193,0.010681,-0.990051,0.236122,0.401832,-0.115725,47,268,586,5936
1644177603.427397,-0.007996,0.009766,-0.991882,0.251389,0.340763,-0.161527,57,273,579,5952
1644177603.475806,-0.00946,0.00946,-0.992615,0.220855,0.401832,-0.192061,45,277,575,5872
1644177603.524176,-0.008545,0.010254,-0.993652,0.251389,0.371298,-0.222595,51,271,590,5952
1644177603.572605,-0.009094,0.00885,-0.99292,0.190321,0.386565,-0.237863,53,269,587,5936
1644177603.620971,-0.008179,0.01178,-0.991028,0.220855,0.432366,-0.085191,41,266,571,5872
1644177603.669374,-0.009949,0.008606,-0.990356,0.281924,0.371298,-0.024122,51,274,590,5952
1644177603.717749,-0.007629,0.008362,-0.990906,0.144519,0.554504,-0.130992,46,269,587,5952
1644177603.766141,-0.008667,0.007568,-0.989807,0.205588,0.294962,-0.161527,52,277,584,5872
1644177603.81462,-0.008362,0.01001,-0.990112,0.190321,0.417099,-0.115725,57,285,582,5936
1644177603.862986,-0.008057,0.010193,-0.991028,0.251389,0.447634,0.082748,47,280,582,5888
1644177603.911363,-0.008606,0.009033,-0.990784,0.159786,0.386565,-0.176794,41,276,594,5904
1644177603.959744,-0.006836,0.009216,-0.992432,0.312458,0.432366,-0.100458,52,282,591,5872
1644177604.008133,-0.00769,0.010986,-0.990417,0.327725,0.493435,-0.024122,49,277,593,5952
1644177604.082358,-0.009277,0.007507,-0.992493,0.373527,0.356031,-0.130992,47,277,582,5888
1644177604.114381,-0.008545,0.009277,-0.992493,0.159786,0.310229,0.021679,54,273,572,5904
1644177604.156355,-0.007568,0.007568,-0.992981,0.236122,0.493435,-0.085191,53,283,587,5952
1644177604.205861,-0.007996,0.00946,-0.992737,0.205588,0.432366,-0.054656,48,283,576,5888
1644177604.250944,-0.00708,0.011169,-0.992188,0.220855,0.386565,-0.085191,53,274,587,5904
1644177604.346855,-0.008301,0.009277,-0.990173,0.327725,0.371298,-0.054656,45,277,582,5904
1644177604.395243,-0.006653,0.007263,-0.993347,0.281924,0.371298,0.036947,54,275,579,5888
1644177604.443619,-0.009033,0.011047,-0.991455,0.129252,0.386565,-0.130992,54,270,572,5936
1644177604.492395,-0.008728,0.01062,-0.992493,0.220855,0.386565,-0.100458,55,281,594,5840
1644177604.540412,-0.008362,0.009399,-0.992615,0.144519,0.386565,-0.14626,45,277,593,5888
1644177604.588805,-0.00708,0.007141,-0.99054,0.037649,0.188092,-0.192061,57,282,591,5872
1644177604.637175,-0.009583,0.008728,-0.993713,0.297191,0.462901,-0.085191,51,276,583,5904
1644177604.68558,-0.012207,0.009338,-0.993103,0.190321,0.24916,-0.069924,57,282,579,5936
1644177604.733988,-0.006714,0.009949,-0.993713,0.113985,0.371298,-0.14626,51,276,578,5952
1644177604.782367,-0.006836,0.011475,-0.99115,0.205588,0.386565,-0.115725,45,273,579,5904
1644177604.83081,-0.008911,0.01062,-0.991821,0.190321,0.432366,-0.14626,55,279,576,5952
1644177604.879201,-0.009216,0.008362,-0.989685,0.190321,0.447634,-0.14626,53,269,590,5904
1644177604.92759,-0.011414,0.008972,-0.994141,0.281924,0.417099,-0.069924,41,269,585,5888
1644177604.975993,-0.008728,0.011108,-0.991211,0.297191,0.417099,-0.039389,49,275,577,5904
1644177605.024387,-0.006348,0.009644,-0.993225,0.312458,0.340763,-0.085191,40,273,579,5904
1644177605.09412,-0.006531,0.009277,-0.993225,0.236122,0.432366,-0.161527,47,285,582,5904
1644177605.121101,-0.009583,0.007141,-0.994446,0.190321,0.279695,-0.14626,36,281,578,5952
1644177605.169503,-0.008179,0.00647,-0.992126,0.373527,0.233893,-0.130992,53,266,585,5936
1644177605.217919,-0.009094,0.008362,-0.992737,0.205588,0.401832,-0.054656,51,274,578,5952
1644177605.267564,-0.010681,0.010315,-0.990723,0.342992,0.417099,-0.085191,51,283,592,5904
1644177605.317887,-0.009277,0.009827,-0.992126,0.144519,0.386565,-0.085191,61,277,596,5984
1644177605.368416,-0.011292,0.009155,-0.992065,0.266656,0.233893,-0.176794,51,283,585,5904
1644177605.459842,-0.009216,0.011292,-0.991516,0.266656,0.325496,-0.100458,55,274,585,5904
1644177605.50823,-0.008667,0.009155,-0.99115,0.175053,0.386565,-0.207328,54,294,577,5904
1644177605.556633,-0.011475,0.011353,-0.991272,0.129252,0.325496,-0.085191,45,285,584,5952
1644177605.60525,-0.006775,0.009155,-0.988892,0.281924,0.478168,0.036947,45,273,586,5984
1644177605.653413,-0.010803,0.011292,-0.993835,0.281924,0.340763,-0.100458,55,286,580,5904
1644177605.701832,-0.011719,0.00946,-0.994202,0.327725,0.493435,-0.069924,42,273,593,5904
1644177605.750185,-0.009949,0.005798,-0.99292,0.175053,0.432366,0.021679,60,274,590,5984
1644177605.798605,-0.008911,0.008362,-0.992615,0.175053,0.325496,-0.14626,46,271,573,5952
1644177605.84703,-0.00769,0.006836,-0.991638,0.281924,0.203359,-0.085191,52,273,584,5984
1644177605.895423,-0.012573,0.010864,-0.991638,0.388794,0.417099,-0.054656,55,269,590,5952
1644177605.943821,-0.008362,0.008118,-0.991638,0.373527,0.523969,-0.207328,45,277,582,6000
1644177605.992252,-0.008728,0.01062,-0.991943,0.08345,0.523969,-0.161527,46,286,585,5904
1644177606.040603,-0.010132,0.01001,-0.990662,0.342992,0.401832,0.021679,52,280,596,5904
1644177606.091065,-0.010132,0.007141,-0.992615,0.281924,0.371298,-0.192061,49,282,589,5952
1644177606.137346,-0.010925,0.009949,-0.993469,0.205588,0.371298,-0.069924,61,285,579,5888
1644177606.185739,-0.010071,0.007507,-0.992371,0.205588,0.356031,-0.054656,47,277,582,5952
1644177606.234125,-0.009094,0.009094,-0.992004,0.251389,0.371298,-0.207328,52,268,584,5952
1644177606.282528,-0.00824,0.012207,-0.990967,0.266656,0.371298,-0.268397,45,277,589,5952
1644177606.33092,-0.005859,0.00885,-0.99231,0.266656,0.600305,-0.237863,49,275,586,5936
1644177606.380676,-0.009338,0.008972,-0.991699,0.175053,0.325496,-0.024122,39,269,583,5888
1644177606.430669,-0.007446,0.009705,-0.991516,0.236122,0.462901,-0.207328,46,269,576,5888
1644177606.481138,-0.012634,0.009521,-0.991882,0.35826,0.279695,-0.283664,40,280,589,5984
1644177606.525826,-0.007812,0.008667,-0.992493,0.266656,0.401832,-0.192061,45,277,579,5888
1644177606.621249,-0.010742,0.01001,-0.989624,0.220855,0.432366,-0.192061,47,282,586,5904
1644177606.669648,-0.010315,0.007874,-0.991577,0.373527,0.325496,-0.024122,51,286,578,5952
1644177606.718034,-0.006226,0.011169,-0.990234,0.144519,0.478168,-0.314198,41,279,578,5872
1644177606.766423,-0.011902,0.008057,-0.991089,0.327725,0.386565,-0.314198,55,276,573,5872
1644177606.814837,-0.008667,0.008972,-0.991211,0.068183,0.554504,-0.115725,43,283,580,5872
1644177606.863264,-0.009888,0.008484,-0.992065,0.190321,0.310229,-0.161527,45,273,591,5936
1644177606.911656,-0.008423,0.010071,-0.993042,0.205588,0.401832,-0.008855,46,274,583,5936
1644177606.960035,-0.009216,0.008362,-0.989197,0.113985,0.386565,-0.039389,46,269,585,5888
1644177607.008434,-0.011047,0.012451,-0.993469,0.35826,0.371298,-0.069924,38,270,575,5952
1644177607.066657,-0.009277,0.009033,-0.989258,0.144519,0.24916,-0.130992,38,277,589,5984
1644177607.105227,-0.007629,0.012573,-0.992737,0.220855,0.401832,-0.039389,53,279,587,5872
1644177607.153553,-0.008484,0.007385,-0.990417,0.220855,0.539237,-0.039389,49,282,582,5952
1644177607.201957,-0.008301,0.010071,-0.98999,0.342992,0.340763,-0.008855,51,271,587,5936
1644177607.250355,-0.007324,0.009155,-0.990845,0.113985,0.447634,-0.176794,42,277,586,5904
1644177607.29873,-0.008545,0.01178,-0.991638,0.266656,0.493435,-0.130992,38,277,582,5888
1644177607.347138,-0.008545,0.013062,-0.989685,0.281924,0.478168,-0.207328,54,282,582,5888
1644177607.395827,-0.010437,0.010071,-0.992859,0.159786,0.447634,-0.069924,42,280,589,5888
1644177607.444953,-0.010254,0.010559,-0.993408,0.236122,0.417099,-0.054656,51,279,573,5904
1644177607.495595,-0.012939,0.008118,-0.991516,0.098718,0.432366,-0.085191,38,285,579,5984
1644177607.545346,-0.007568,0.008179,-0.993347,0.175053,0.325496,-0.130992,48,283,580,5824
1644177607.590367,-0.008667,0.013916,-0.989685,0.373527,0.478168,-0.069924,48,281,578,5984
1644177607.685861,-0.009949,0.006348,-0.99292,0.144519,0.294962,-0.176794,53,274,573,5872
1644177607.734257,-0.009155,0.008057,-0.990967,0.144519,0.386565,-0.008855,41,274,585,5904
1644177607.782676,-0.010559,0.012451,-0.990234,0.251389,0.325496,-0.115725,38,285,593,5952
1644177607.831035,-0.01062,0.01062,-0.98877,0.266656,0.386565,-0.085191,41,283,587,5888
1644177607.879463,-0.008118,0.011108,-0.991516,0.312458,0.478168,-0.237863,49,277,584,5984
1644177607.927871,-0.006958,0.013428,-0.992004,0.175053,0.401832,0.12855,33,277,586,5952
1644177607.976268,-0.010803,0.009338,-0.990967,0.251389,0.432366,-0.008855,49,280,582,5952
1644177608.024655,-0.007446,0.010071,-0.990784,0.434595,0.462901,-0.192061,55,274,583,5904
1644177608.088357,-0.009216,0.008606,-0.993713,0.281924,0.539237,0.006412,42,280,579,5984
1644177608.121431,-0.010742,0.007751,-0.990906,0.236122,0.447634,-0.161527,36,271,587,5872
1644177608.169788,-0.00824,0.010986,-0.994568,0.266656,0.401832,-0.024122,55,276,578,5936
1644177608.218185,-0.009888,0.010132,-0.994263,0.251389,0.478168,-0.14626,48,271,583,5952
1644177608.266574,-0.008545,0.013245,-0.994751,0.205588,0.432366,-0.130992,39,274,587,5952
1644177608.315107,-0.008423,0.011841,-0.992554,0.419328,0.493435,-0.25313,55,271,580,5872
1644177608.363336,-0.010681,0.009521,-0.98999,0.190321,0.371298,-0.130992,51,274,578,5984
1644177608.411733,-0.010376,0.010437,-0.99231,0.251389,0.478168,-0.100458,48,274,592,5936
1644177608.460138,-0.010437,0.01178,-0.992737,0.159786,0.401832,-0.14626,43,281,592,5888
1644177608.508502,-0.007385,0.008667,-0.991211,0.251389,0.371298,-0.085191,52,268,577,5904
1644177608.557494,-0.007812,0.009033,-0.989807,0.159786,0.600305,-0.115725,45,287,593,5984
1644177608.605656,-0.008362,0.010498,-0.990601,0.35826,0.401832,-0.192061,52,275,591,5872
1644177608.655892,-0.010315,0.010925,-0.992188,0.220855,0.218626,-0.130992,43,269,583,5952
1644177608.706067,-0.006531,0.011536,-0.991455,0.266656,0.554504,-0.008855,47,265,586,5824
1644177608.75105,-0.010132,0.012146,-0.992859,0.281924,0.432366,-0.039389,57,282,589,5904
1644177608.847264,-0.006592,0.008789,-0.98822,0.388794,0.447634,-0.100458,52,273,579,5904
1644177608.895698,-0.009644,0.008545,-0.990967,0.205588,0.508702,-0.115725,54,277,577,5936
1644177608.944099,-0.009583,0.007935,-0.990173,0.373527,0.401832,-0.115725,45,285,582,5952
1644177608.99249,-0.010376,0.008423,-0.989075,0.220855,0.325496,-0.115725,47,280,586,5904
1644177609.040864,-0.00708,0.010803,-0.99176,0.144519,0.432366,-0.054656,48,264,578,5904
1644177609.092332,-0.00824,0.009094,-0.990479,0.312458,0.325496,-0.329466,46,276,594,5888
1644177609.137669,-0.009827,0.010193,-0.996216,0.236122,0.203359,-0.207328,51,266,580,5840
1644177609.185996,-0.00946,0.010071,-0.990356,0.113985,0.401832,-0.237863,42,280,589,5952
1644177609.234419,-0.009094,0.010254,-0.990662,0.205588,0.310229,-0.130992,45,273,586,5904
1644177609.282824,-0.006287,0.011902,-0.991821,0.08345,0.356031,-0.039389,42,275,586,5936
1644177609.331191,-0.00824,0.007812,-0.99176,0.190321,0.24916,-0.115725,45,273,584,5840
1644177609.379587,-0.005981,0.009277,-0.992493,0.266656,0.417099,-0.069924,43,271,597,5904
1644177609.427994,-0.007202,0.010132,-0.991089,0.205588,0.493435,-0.14626,43,276,590,5872
1644177609.476362,-0.00708,0.01178,-0.993652,0.342992,0.356031,-0.024122,48,271,578,6000
1644177609.524797,-0.007751,0.012451,-0.988708,0.327725,0.218626,-0.207328,41,274,580,5888
1644177609.573159,-0.005432,0.010986,-0.993774,0.159786,0.340763,-0.161527,47,275,579,5888
1644177609.621546,-0.007202,0.00769,-0.990479,0.266656,0.432366,-0.176794,43,269,578,5904
1644177609.670251,-0.008545,0.010071,-0.990784,0.205588,0.310229,-0.085191,52,273,593,5936
1644177609.720798,-0.009033,0.013123,-0.992126,0.327725,0.539237,-0.161527,48,279,573,5936
1644177609.770829,-0.00885,0.010315,-0.990234,0.190321,0.279695,-0.176794,51,274,578,5888
1644177609.815998,-0.009399,0.010437,-0.991394,0.205588,0.325496,-0.25313,52,273,584,5872
1644177609.911934,-0.011353,0.010376,-0.992615,0.342992,0.493435,-0.085191,49,275,584,5888
1644177609.96031,-0.011597,0.007751,-0.991394,0.236122,0.310229,-0.130992,53,274,583,5984
1644177610.008685,-0.00946,0.013123,-0.990356,0.220855,0.371298,-0.100458,43,281,578,5904
1644177610.057886,-0.00946,0.010315,-0.991272,0.190321,0.447634,-0.14626,47,277,593,5888
1644177610.105435,-0.007019,0.011963,-0.992371,0.144519,0.24916,-0.222595,49,280,586,5888
1644177610.153899,-0.007935,0.008728,-0.98938,0.220855,0.356031,-0.069924,51,269,583,5872
1644177610.202299,-0.006775,0.010864,-0.987915,0.220855,0.523969,-0.176794,45,277,586,5888
1644177610.250643,-0.007751,0.010559,-0.991699,0.190321,0.340763,-0.085191,41,286,578,5936
1644177610.299043,-0.008911,0.007629,-0.990662,0.205588,0.447634,-0.237863,55,274,580,5984
1644177610.347456,-0.008667,0.009521,-0.991943,0.251389,0.386565,-0.130992,43,274,573,5872
1644177610.395846,-0.006409,0.008728,-0.992371,0.342992,0.432366,0.021679,46,281,587,5952
1644177610.444235,-0.010742,0.010132,-0.990784,0.159786,0.523969,-0.176794,49,282,586,5888
1644177610.492647,-0.008423,0.010864,-0.990601,0.159786,0.371298,-0.14626,51,279,590,5904
1644177610.541021,-0.007324,0.008911,-0.993408,0.266656,0.279695,-0.024122,52,275,596,5904
1644177610.589413,-0.009583,0.01001,-0.994202,0.175053,0.417099,-0.115725,49,280,579,5888
1644177610.637807,-0.008484,0.010437,-0.991577,0.251389,0.325496,-0.14626,43,271,592,5936
1644177610.6862,-0.009155,0.008545,-0.991272,0.175053,0.340763,-0.069924,42,275,589,5872
1644177610.734929,-0.008789,0.010803,-0.991638,0.129252,0.386565,-0.039389,49,275,586,5872
1644177610.785431,-0.009705,0.009705,-0.991211,0.297191,0.233893,-0.024122,57,273,586,5936
1644177610.835768,-0.008057,0.012329,-0.991821,0.266656,0.417099,-0.008855,54,268,579,5888
1644177610.880279,-0.010437,0.009521,-0.992615,0.052916,0.264427,0.021679,48,269,583,5904
1644177610.976525,-0.010254,0.013489,-0.990967,0.190321,0.508702,-0.069924,48,274,573,5872
1644177611.024945,-0.009277,0.011292,-0.992126,0.251389,0.432366,-0.024122,47,290,586,5936
1644177611.073414,-0.008667,0.011719,-0.98999,0.327725,0.386565,-0.237863,57,280,586,5904
1644177611.121701,-0.006958,0.008606,-0.992126,0.052916,0.462901,-0.192061,57,280,584,5904
1644177611.170063,-0.007874,0.008423,-0.99054,0.190321,0.340763,-0.161527,55,281,573,5904
1644177611.218467,-0.007385,0.010071,-0.990295,0.236122,0.508702,-0.176794,49,282,575,5904
1644177611.266851,-0.009888,0.010254,-0.992004,0.297191,0.325496,-0.024122,49,273,582,6000
1644177611.315274,-0.007263,0.008972,-0.990784,0.205588,0.493435,-0.085191,51,279,592,5888
1644177611.363646,-0.010498,0.008118,-0.991943,0.297191,0.356031,-0.069924,52,273,584,5936
1644177611.412032,-0.007385,0.009216,-0.99054,0.190321,0.432366,-0.161527,49,275,577,5904
1644177611.46042,-0.00769,0.010376,-0.990723,0.220855,0.523969,-0.130992,48,274,583,5872
1644177611.508805,-0.005676,0.009155,-0.991089,0.220855,0.340763,-0.115725,52,285,586,5904
1644177611.557204,-0.010925,0.010498,-0.990784,0.404061,0.493435,-0.069924,42,270,577,5936
1644177611.605603,-0.008667,0.012329,-0.990967,0.281924,0.447634,0.006412,53,279,592,5936
1644177611.653991,-0.009399,0.012878,-0.991516,0.266656,0.401832,-0.176794,53,279,583,5872
1644177611.702404,-0.011475,0.012268,-0.990784,0.175053,0.340763,-0.085191,45,280,586,5840
1644177611.750745,-0.007141,0.010132,-0.989807,0.266656,0.523969,-0.130992,38,275,582,5952
1644177611.799203,-0.008118,0.008789,-0.98999,0.312458,0.478168,-0.069924,52,275,584,5904
1644177611.847616,-0.009644,0.01123,-0.991333,0.098718,0.432366,0.052214,40,273,589,5936
1644177611.897422,-0.010742,0.009155,-0.991516,0.098718,0.508702,-0.039389,48,276,580,5872
1644177611.948344,-0.007202,0.010254,-0.991455,0.159786,0.386565,-0.314198,49,285,577,5936
1644177611.997979,-0.009216,0.009644,-0.992737,0.052916,0.417099,-0.039389,53,283,576,5952
1644177612.042568,-0.00824,0.010559,-0.992615,0.480397,0.340763,-0.008855,46,269,583,5952
1644177612.137861,-0.00946,0.00824,-0.993652,0.236122,0.447634,-0.054656,40,275,570,5936
1644177612.186287,-0.009216,0.009888,-0.992188,0.297191,0.386565,-0.100458,43,276,576,5872
1644177612.234858,-0.008606,0.009705,-0.991882,0.220855,0.279695,-0.085191,48,281,592,5936
1644177612.283089,-0.006165,0.009094,-0.992737,0.129252,0.447634,-0.130992,45,275,591,5936
1644177612.331453,-0.009705,0.008179,-0.992493,0.266656,0.432366,-0.085191,53,266,580,5904
1644177612.379856,-0.009033,0.010803,-0.990295,0.297191,0.356031,-0.069924,47,280,579,5936
1644177612.42826,-0.010864,0.013062,-0.991821,0.205588,0.279695,-0.14626,49,275,586,5984
1644177612.47664,-0.007812,0.011047,-0.993042,0.205588,0.432366,-0.237863,53,271,585,5984
1644177612.525073,-0.009644,0.009399,-0.991577,0.190321,0.386565,-0.039389,47,270,572,5984
1644177612.573431,-0.00769,0.009705,-0.990845,0.46513,0.401832,-0.085191,48,274,587,5952
1644177612.62182,-0.010681,0.011841,-0.992798,0.373527,0.401832,-0.054656,58,271,592,5984
1644177612.67021,-0.005676,0.010071,-0.990417,0.251389,0.294962,-0.039389,49,273,579,5936
1644177612.718601,-0.008423,0.009583,-0.992432,0.144519,0.432366,0.021679,49,282,582,5840
1644177612.766966,-0.010986,0.010132,-0.991394,0.113985,0.356031,-0.054656,41,281,585,5840
1644177612.815434,-0.009521,0.011719,-0.989685,0.35826,0.462901,-0.176794,53,269,583,5904
1644177612.863824,-0.00708,0.007385,-0.990967,0.388794,0.371298,-0.085191,47,268,577,5952
1644177612.912225,-0.010498,0.008545,-0.993225,0.205588,0.447634,0.006412,61,282,582,5984
1644177612.960597,-0.009277,0.006897,-0.990356,0.281924,0.371298,-0.069924,41,274,592,5984
1644177613.066328,-0.009949,0.007568,-0.992371,0.205588,0.569771,-0.008855,49,268,586,6000
1644177613.10584,-0.007874,0.008484,-0.992004,0.190321,0.310229,0.052214,49,287,586,5888
1644177613.154137,-0.009644,0.009155,-0.990295,0.175053,0.340763,-0.161527,48,279,585,5904
1644177613.202536,-0.008545,0.009888,-0.990723,0.266656,0.447634,-0.024122,55,269,587,5888
1644177613.250902,-0.009827,0.011108,-0.99176,0.175053,0.417099,-0.054656,46,274,590,5888
1644177613.299306,-0.011292,0.007874,-0.989929,0.113985,0.356031,-0.130992,55,276,585,5952
1644177613.347684,-0.008972,0.010559,-0.990417,0.35826,0.371298,-0.069924,48,269,583,5888
1644177613.396066,-0.007568,0.012573,-0.991211,0.342992,0.325496,-0.192061,43,281,583,5888
1644177613.444508,-0.009094,0.010986,-0.99176,0.266656,0.325496,-0.008855,45,275,596,6000
1644177613.492919,-0.010498,0.007324,-0.990906,0.190321,0.356031,-0.115725,51,271,587,5936
1644177613.541273,-0.010376,0.008362,-0.990234,0.144519,0.386565,-0.039389,48,276,571,5904
1644177613.589658,-0.008606,0.009338,-0.992859,0.434595,0.508702,-0.100458,48,276,578,5984
1644177613.638049,-0.008667,0.009766,-0.990784,0.297191,0.417099,-0.100458,36,276,583,5904
1644177613.686677,-0.004639,0.008972,-0.995605,0.297191,0.264427,0.021679,47,287,589,5888
1644177613.737141,-0.008179,0.009155,-0.992798,0.251389,0.493435,-0.039389,38,280,586,5952
1644177613.787471,-0.008972,0.010925,-0.991882,0.251389,0.325496,-0.192061,43,286,585,5888
1644177613.83284,-0.009949,0.009033,-0.992432,0.236122,0.401832,-0.085191,45,273,586,5952
1644177613.928394,-0.010864,0.011169,-0.99176,0.266656,0.462901,-0.25313,45,263,579,5904
1644177613.976814,-0.009216,0.008728,-0.995789,0.175053,0.371298,-0.192061,40,268,582,5936
1644177614.025304,-0.01123,0.009583,-0.993164,0.205588,0.279695,-0.008855,57,275,582,5952
1644177614.073678,-0.009827,0.00946,-0.993469,0.297191,0.356031,-0.161527,46,266,583,5872
1644177614.121985,-0.008057,0.008728,-0.993286,0.144519,0.310229,-0.008855,49,275,584,5952
1644177614.170362,-0.012878,0.008911,-0.992615,0.098718,0.401832,-0.054656,52,277,589,5904
1644177614.218753,-0.009277,0.010498,-0.98999,0.113985,0.325496,-0.085191,54,277,591,5888
1644177614.267146,-0.010376,0.006775,-0.992737,0.35826,0.554504,-0.039389,40,292,582,5872
1644177614.315533,-0.009277,0.008057,-0.99585,0.266656,0.417099,-0.054656,55,271,587,5936
1644177614.363929,-0.008362,0.008118,-0.990601,0.342992,0.478168,-0.222595,54,268,591,5904
1644177614.412323,-0.007996,0.009705,-0.99353,0.266656,0.24916,-0.14626,46,279,594,5952
1644177614.460712,-0.007996,0.010803,-0.993713,0.129252,0.340763,-0.161527,49,277,582,6000
1644177614.50908,-0.005737,0.008118,-0.993835,0.251389,0.279695,-0.085191,53,271,585,5904
1644177614.557494,-0.009644,0.010193,-0.992432,0.404061,0.462901,-0.115725,55,283,583,5952
1644177614.605885,-0.006653,0.011169,-0.991272,0.175053,0.325496,0.006412,52,270,591,5984
1644177614.654262,-0.007507,0.008301,-0.992371,0.327725,0.310229,-0.039389,52,280,582,5872
1644177614.702687,-0.00769,0.009949,-0.990601,0.251389,0.417099,-0.176794,53,276,585,5984
1644177614.751025,-0.006714,0.009644,-0.992493,0.297191,0.386565,-0.115725,45,273,586,5904
1644177614.799784,-0.008606,0.008972,-0.992737,0.175053,0.340763,-0.115725,43,281,583,5888
1644177614.849002,-0.00531,0.011169,-0.993103,0.251389,0.478168,-0.085191,59,277,577,5888
1644177614.900019,-0.008972,0.01062,-0.990051,0.190321,0.386565,-0.085191,41,271,585,5904
1644177614.951005,-0.010132,0.008789,-0.99115,0.236122,0.310229,-0.176794,57,280,582,5872
1644177615.041477,-0.007996,0.009949,-0.994263,0.175053,0.172824,-0.054656,53,274,592,5936
1644177615.092277,-0.009094,0.012085,-0.990845,0.312458,0.325496,-0.14626,45,275,591,5872
1644177615.138194,-0.009277,0.006958,-0.991882,0.236122,0.523969,0.021679,49,270,579,5952
1644177615.186558,-0.007202,0.011414,-0.99176,0.236122,0.279695,-0.14626,61,275,586,5872
1644177615.235107,-0.008118,0.010498,-0.991516,0.129252,0.462901,-0.085191,55,279,590,5872
1644177615.28337,-0.007446,0.010193,-0.992371,0.297191,0.371298,-0.085191,54,275,584,5872
1644177615.331754,-0.006653,0.010071,-0.993286,0.297191,0.523969,-0.207328,53,279,578,5952
1644177615.380141,-0.008728,0.013,-0.990662,0.251389,0.24916,-0.054656,35,273,589,5872
1644177615.428537,-0.008606,0.010803,-0.990112,0.129252,0.493435,-0.130992,53,281,580,5952
1644177615.476926,-0.00824,0.01001,-0.990356,0.159786,0.325496,-0.176794,41,271,592,5936
1644177615.525309,-0.007812,0.012512,-0.993103,0.220855,0.493435,-0.085191,47,294,589,5904
1644177615.573948,-0.007507,0.012695,-0.991211,0.113985,0.478168,-0.069924,49,282,589,5984
1644177615.624304,-0.005371,0.008423,-0.993408,0.205588,0.493435,-0.14626,51,274,576,5904
1644177615.674687,-0.009277,0.013367,-0.992065,0.175053,0.432366,-0.237863,54,280,582,5904
1644177615.719629,-0.010925,0.010681,-0.991516,0.251389,0.508702,-0.054656,62,281,578,5904
1644177615.815658,-0.010376,0.009277,-0.992065,0.175053,0.432366,0.098015,40,277,586,5904
1644177615.864099,-0.006226,0.010315,-0.991333,0.266656,0.310229,-0.14626,47,275,582,5888
1644177615.91254,-0.007202,0.009949,-0.990723,0.297191,0.478168,-0.100458,41,283,578,5936
1644177615.960893,-0.008606,0.010193,-0.992004,0.159786,0.523969,-0.115725,43,279,587,5952
1644177616.009262,-0.013367,0.009094,-0.992249,0.220855,0.356031,-0.130992,49,280,589,5952
1644177616.061054,-0.011536,0.00946,-0.989807,0.266656,0.233893,-0.130992,46,283,583,5952
1644177616.106035,-0.007507,0.013855,-0.99115,0.236122,0.401832,-0.176794,51,274,578,5904
1644177616.15446,-0.009888,0.010925,-0.990112,0.205588,0.340763,-0.14626,38,290,589,5952
1644177616.202853,-0.011475,0.009338,-0.991516,0.388794,0.447634,-0.130992,52,280,589,5872
1644177616.25124,-0.005493,0.010437,-0.989929,0.205588,0.371298,-0.069924,48,281,576,5952
1644177616.299622,-0.007812,0.013123,-0.994629,0.190321,0.417099,-0.115725,42,277,591,6000
1644177616.348008,-0.012085,0.009583,-0.991943,0.251389,0.401832,-0.115725,41,281,585,5952
1644177616.396401,-0.007568,0.010315,-0.990479,0.098718,0.203359,-0.069924,45,282,582,5936
1644177616.444821,-0.009583,0.010437,-0.990051,0.113985,0.447634,-0.130992,47,273,570,5936
1644177616.493205,-0.010925,0.011841,-0.991333,0.205588,0.554504,-0.039389,49,273,584,5904
1644177616.54156,-0.010071,0.012024,-0.988464,0.312458,0.478168,-0.054656,40,277,589,5872
1644177616.589973,-0.006592,0.010132,-0.991882,0.175053,0.325496,-0.115725,59,270,582,5888
1644177616.638704,-0.009521,0.010071,-0.989685,0.08345,0.447634,0.036947,35,275,586,5872
1644177616.686797,-0.008606,0.010803,-0.987671,0.113985,0.401832,-0.298931,47,280,589,5888
1644177616.73672,-0.007935,0.009766,-0.991455,0.175053,0.310229,-0.161527,51,279,590,5952
1644177616.787235,-0.008057,0.008911,-0.990112,0.129252,0.417099,-0.039389,40,280,589,5872
1644177616.837087,-0.01062,0.008728,-0.990967,0.190321,0.294962,-0.054656,46,279,583,5904
1644177616.881643,-0.007751,0.008118,-0.989197,0.068183,0.447634,-0.192061,46,274,587,6000
1644177616.97711,-0.010071,0.011841,-0.991516,0.251389,0.493435,-0.100458,51,279,583,5936
1644177617.025488,-0.009521,0.009583,-0.99176,0.251389,0.24916,-0.161527,49,270,582,5952
1644177617.074003,-0.008057,0.010803,-0.995239,0.190321,0.493435,0.021679,52,280,589,5984
1644177617.122238,-0.008728,0.006836,-0.990662,0.266656,0.371298,-0.14626,52,273,600,5888
1644177617.170647,-0.009033,0.008911,-0.992981,0.08345,0.508702,-0.069924,59,268,586,5984
1644177617.219031,-0.007324,0.010925,-0.991943,0.190321,0.432366,-0.008855,58,283,571,5984
1644177617.267413,-0.008484,0.007812,-0.992249,0.297191,0.447634,-0.130992,42,277,582,5872
1644177617.315789,-0.009583,0.010681,-0.988464,0.297191,0.539237,0.021679,43,274,583,5904
1644177617.364221,-0.00946,0.01001,-0.993103,0.144519,0.340763,-0.024122,42,268,577,5952
1644177617.412621,-0.007996,0.006653,-0.98877,0.251389,0.447634,-0.069924,46,281,576,5872
1644177617.461003,-0.008301,0.008789,-0.991943,0.144519,0.447634,-0.024122,55,293,590,5888
1644177617.509364,-0.008545,0.008606,-0.991516,0.159786,0.386565,-0.115725,43,271,580,5872
1644177617.55777,-0.011047,0.01355,-0.992065,0.175053,0.447634,-0.161527,48,269,592,5952
1644177617.606156,-0.007629,0.011169,-0.990906,0.236122,0.371298,-0.100458,45,275,579,5904
1644177617.654609,-0.009521,0.008057,-0.993042,0.175053,0.325496,-0.161527,39,288,576,5904
1644177617.702968,-0.010742,0.009521,-0.991394,0.08345,0.417099,-0.069924,55,281,578,5888
1644177617.751307,-0.008789,0.009888,-0.991394,0.129252,0.417099,-0.115725,52,275,591,5840
1644177617.79974,-0.009155,0.012756,-0.990417,0.312458,0.371298,-0.054656,48,279,583,5904
1644177617.848177,-0.007874,0.011963,-0.992065,0.266656,0.462901,0.021679,49,270,584,5984
1644177617.897738,-0.007324,0.010132,-0.98877,0.251389,0.310229,-0.14626,46,271,583,5952
1644177617.948723,-0.006104,0.007263,-0.991882,0.251389,0.508702,-0.14626,45,280,598,5904
1644177617.998601,-0.006287,0.011719,-0.991089,0.190321,0.417099,-0.069924,45,285,579,5952
1644177618.043003,-0.008057,0.008118,-0.990845,0.388794,0.340763,-0.039389,54,270,579,5904
1644177618.138466,-0.008545,0.012268,-0.992676,0.236122,0.310229,0.021679,51,279,590,5904
1644177618.186864,-0.007446,0.007812,-0.992493,0.205588,0.417099,-0.039389,53,286,587,5952
1644177618.235389,-0.009277,0.012756,-0.990051,0.205588,0.371298,-0.192061,45,273,584,5904
1644177618.283658,-0.009949,0.011108,-0.992432,0.190321,0.447634,-0.054656,51,271,573,5904
1644177618.332033,-0.008179,0.009949,-0.991577,0.08345,0.508702,-0.14626,36,274,583,5904
1644177618.380438,-0.007629,0.007874,-0.992065,0.175053,0.371298,-0.069924,51,281,573,5888
1644177618.428815,-0.009399,0.008484,-0.993286,0.205588,0.356031,-0.130992,53,279,583,5936
1644177618.477222,-0.010437,0.01001,-0.991455,0.297191,0.310229,-0.161527,43,279,573,5952
1644177618.525609,-0.008301,0.009644,-0.993225,0.159786,0.523969,-0.039389,39,264,590,5888
1644177618.574015,-0.009094,0.009277,-0.993347,0.220855,0.493435,-0.024122,49,275,596,5904
1644177618.622406,-0.010132,0.008423,-0.992432,0.312458,0.371298,-0.008855,48,269,585,5984
1644177618.670793,-0.010071,0.013672,-0.990417,0.281924,0.432366,-0.069924,55,274,578,5904
1644177618.719151,-0.008911,0.010132,-0.994019,0.281924,0.401832,-0.115725,57,275,589,5888
1644177618.767564,-0.010376,0.010193,-0.990723,0.236122,0.447634,-0.207328,54,285,593,5936
1644177618.816003,-0.009155,0.009155,-0.994568,0.312458,0.508702,-0.161527,45,280,598,5984
1644177618.864393,-0.010254,0.007935,-0.991821,0.08345,0.462901,-0.054656,43,281,585,5872
1644177618.912804,-0.007812,0.010925,-0.991394,0.098718,0.417099,-0.176794,46,281,587,5904
1644177618.961381,-0.009949,0.006714,-0.992432,0.266656,0.478168,-0.069924,46,262,590,5904
1644177619.064897,-0.008728,0.009827,-0.990417,0.068183,0.432366,-0.14626,41,281,580,5952
1644177619.106403,-0.006592,0.009644,-0.990356,0.129252,0.325496,-0.069924,52,275,586,5904
1644177619.154707,-0.010803,0.008362,-0.990662,0.419328,0.554504,-0.176794,48,276,583,5872
1644177619.203099,-0.007446,0.01001,-0.99054,0.327725,0.386565,-0.024122,48,276,583,5872
1644177619.251468,-0.008667,0.010925,-0.989624,0.190321,0.279695,-0.207328,49,273,584,5936
1644177619.299871,-0.009521,0.008545,-0.993347,0.190321,0.417099,-0.14626,53,276,587,5952
1644177619.348246,-0.009094,0.008911,-0.992859,0.220855,0.417099,0.021679,54,285,586,5888
1644177619.396666,-0.009094,0.010925,-0.993652,0.266656,0.462901,-0.024122,41,274,594,5936
1644177619.445177,-0.008911,0.009888,-0.992371,0.236122,0.523969,-0.268397,49,273,584,5936
1644177619.49343,-0.012817,0.009888,-0.989624,0.175053,0.325496,-0.115725,52,280,579,5904
1644177619.541852,-0.009766,0.007202,-0.991394,0.297191,0.325496,-0.100458,51,276,590,5936
1644177619.590234,-0.009155,0.007568,-0.990173,0.266656,0.432366,-0.130992,48,269,583,5888
1644177619.638609,-0.009705,0.00946,-0.992065,0.129252,0.310229,-0.100458,52,265,584,5936
1644177619.687009,-0.01123,0.008301,-0.991516,0.052916,0.508702,-0.161527,57,275,579,5872
1644177619.735365,-0.012573,0.009521,-0.993286,0.113985,0.401832,-0.176794,48,279,587,5888
1644177619.783844,-0.011108,0.006592,-0.993652,0.113985,0.63084,-0.115725,43,269,594,5872
1644177619.834638,-0.012878,0.00708,-0.99176,0.129252,0.264427,-0.237863,53,266,580,5936
1644177619.884665,-0.010315,0.009399,-0.991394,0.205588,0.401832,-0.115725,52,270,570,5936
1644177619.934945,-0.009033,0.008667,-0.990112,0.129252,0.371298,-0.054656,47,282,598,5872
1644177620.025769,-0.007324,0.008301,-0.990417,0.190321,0.432366,-0.161527,47,270,584,5872
1644177620.074235,-0.007996,0.007446,-0.991821,0.190321,0.523969,-0.085191,42,270,589,5888
1644177620.122519,-0.009033,0.006714,-0.993774,0.129252,0.462901,-0.161527,47,285,586,5936
1644177620.170941,-0.009827,0.007996,-0.992493,0.251389,0.371298,-0.115725,49,268,584,5952
1644177620.219302,-0.007874,0.00824,-0.990112,0.281924,0.401832,-0.130992,46,276,592,5904
1644177620.267692,-0.015686,0.010864,-0.993408,0.113985,0.310229,-0.054656,52,280,586,5904
1644177620.316082,-0.006897,0.011414,-0.994995,0.129252,0.356031,0.067481,53,271,585,5872
1644177620.364497,-0.010376,0.009644,-0.992065,0.312458,0.462901,0.006412,48,274,580,5904
1644177620.412901,-0.009094,0.008179,-0.993164,0.220855,0.356031,-0.207328,40,285,575,5904
1644177620.461277,-0.007568,0.009216,-0.99408,0.175053,0.386565,-0.100458,45,277,579,5936
1644177620.509671,-0.007202,0.010254,-0.990479,0.220855,0.340763,-0.14626,58,274,580,5888
1644177620.558064,-0.008484,0.009521,-0.993103,0.129252,0.447634,0.006412,40,275,579,5904
1644177620.606454,-0.008911,0.006836,-0.994629,0.266656,0.340763,-0.085191,46,279,597,5904
1644177620.65487,-0.010376,0.010559,-0.991699,0.175053,0.523969,-0.054656,49,282,584,5936
1644177620.703218,-0.009338,0.010498,-0.993286,0.312458,0.294962,-0.100458,41,281,590,5904
1644177620.75159,-0.010071,0.008057,-0.991577,0.266656,0.356031,-0.054656,49,285,589,5872
1644177620.80002,-0.010315,0.009216,-0.989441,0.297191,0.600305,-0.192061,41,281,583,5872
1644177620.848444,-0.007812,0.008118,-0.991455,0.037649,0.386565,-0.115725,53,279,587,5904
1644177620.896852,-0.010437,0.008301,-0.989868,0.388794,0.401832,-0.268397,42,273,582,5936
1644177620.946754,-0.009827,0.01239,-0.990845,0.388794,0.294962,0.098015,51,274,576,5904
1644177620.997489,-0.007751,0.008789,-0.991394,0.373527,0.340763,-0.130992,46,266,587,5984
1644177621.058789,-0.010864,0.01001,-0.993408,0.08345,0.508702,0.098015,52,277,582,5952
1644177621.138775,-0.012756,0.009766,-0.989197,0.037649,0.401832,-0.192061,52,277,570,5952
1644177621.187137,-0.008362,0.008362,-0.990234,0.175053,0.218626,0.021679,46,281,580,5952
1644177621.235517,-0.009766,0.010864,-0.990173,0.220855,0.401832,-0.14626,43,286,578,6000
1644177621.28393,-0.008118,0.009949,-0.989258,0.220855,0.523969,-0.176794,45,273,586,5888
1644177621.33238,-0.008545,0.009399,-0.99115,0.251389,0.371298,-0.100458,49,273,572,5952
1644177621.380692,-0.007629,0.01239,-0.990112,0.251389,0.493435,-0.314198,48,274,590,5904
1644177621.429103,-0.007568,0.010925,-0.989746,0.068183,0.371298,-0.176794,47,285,577,5936
1644177621.477501,-0.007202,0.011475,-0.991333,0.236122,0.539237,-0.130992,40,270,579,5904
1644177621.525893,-0.012573,0.011841,-0.991455,0.236122,0.294962,-0.069924,43,274,594,5824
1644177621.574284,-0.010193,0.010803,-0.992004,0.251389,0.310229,-0.115725,43,276,583,5936
1644177621.622693,-0.012085,0.008606,-0.990784,0.327725,0.356031,-0.283664,43,279,594,5888
1644177621.671056,-0.009094,0.011414,-0.992371,0.251389,0.264427,-0.130992,49,270,584,5936
1644177621.719454,-0.009216,0.011841,-0.991028,0.129252,0.386565,-0.268397,54,280,570,5904
1644177621.767845,-0.009583,0.010071,-0.992004,0.098718,0.493435,-0.100458,49,273,582,5904
1644177621.816249,-0.008728,0.010254,-0.994873,0.327725,0.432366,-0.069924,51,276,578,5984
1644177621.864696,-0.007324,0.009949,-0.991455,0.220855,0.462901,-0.14626,51,274,585,5936
1644177621.913084,-0.010254,0.009644,-0.990479,0.281924,0.417099,-0.115725,40,277,584,5872
1644177621.961452,-0.009094,0.01001,-0.991394,0.190321,0.386565,-0.100458,47,270,586,5984
1644177622.062891,-0.009216,0.010376,-0.989075,0.404061,0.478168,-0.176794,47,280,584,5904
1644177622.106591,-0.010254,0.010498,-0.991333,0.159786,0.294962,-0.14626,62,269,578,6000
1644177622.155475,-0.012451,0.011963,-0.993225,0.144519,0.386565,-0.069924,41,286,576,5872
1644177622.203389,-0.010071,0.008972,-0.990417,0.113985,0.340763,-0.161527,43,276,578,5904
1644177622.251743,-0.00885,0.010498,-0.992615,0.159786,0.371298,-0.115725,52,275,584,5952
1644177622.300173,-0.011047,0.009399,-0.993591,0.266656,0.432366,-0.024122,41,266,580,5936
1644177622.348534,-0.009216,0.008728,-0.990601,0.037649,0.386565,-0.176794,39,271,576,5840
1644177622.396952,-0.010376,0.010132,-0.991333,0.205588,0.294962,0.036947,42,282,589,5904
1644177622.44534,-0.011536,0.009766,-0.99176,0.251389,0.218626,-0.008855,53,276,587,5936
1644177622.493715,-0.00769,0.010132,-0.992126,0.113985,0.386565,-0.130992,49,277,589,5952
1644177622.542221,-0.00885,0.009399,-0.990723,0.327725,0.417099,-0.14626,55,286,585,5888
1644177622.590516,-0.010925,0.007629,-0.99231,0.251389,0.386565,-0.176794,51,281,578,5904
1644177622.638862,-0.009827,0.009766,-0.993408,0.113985,0.417099,-0.192061,47,265,582,5888
1644177622.687284,-0.008484,0.012268,-0.992188,0.144519,0.447634,-0.054656,51,281,594,5904
1644177622.735685,-0.006409,0.008911,-0.99054,0.175053,0.401832,-0.14626,54,280,582,5984
1644177622.784082,-0.010132,0.008423,-0.991394,0.220855,0.417099,-0.130992,45,277,593,5904
1644177622.8325,-0.005737,0.010132,-0.992065,0.35826,0.371298,-0.176794,60,269,585,5936
1644177622.883603,-0.00647,0.010376,-0.994568,0.037649,0.14229,-0.054656,55,264,585,5904
1644177622.933661,-0.01239,0.006531,-0.992188,0.08345,0.386565,-0.069924,40,287,584,5904
1644177622.978384,-0.012634,0.009155,-0.98938,0.251389,0.493435,-0.176794,48,286,573,5904
1644177623.074539,-0.011047,0.010071,-0.991516,0.266656,0.371298,-0.130992,45,277,591,5904
1644177623.12283,-0.009277,0.010986,-0.992493,0.205588,0.569771,-0.024122,45,277,589,5872
1644177623.171196,-0.008667,0.008484,-0.991821,0.236122,0.401832,-0.085191,53,279,585,5888
1644177623.219651,-0.007446,0.006531,-0.987488,0.312458,0.554504,-0.069924,58,283,578,5888
1644177623.267964,-0.011841,0.008057,-0.990601,0.297191,0.371298,-0.14626,39,288,580,5888
1644177623.316384,-0.006592,0.012817,-0.99176,0.220855,0.508702,-0.130992,49,275,572,5872
1644177623.364785,-0.008118,0.010925,-0.991882,0.220855,0.462901,-0.161527,53,279,585,5952
1644177623.413182,-0.010071,0.010376,-0.992004,0.144519,0.432366,-0.024122,58,274,580,5952
1644177623.461564,-0.009521,0.009216,-0.992065,0.342992,0.310229,-0.115725,54,277,586,6000
1644177623.509938,-0.012268,0.01001,-0.989929,0.342992,0.279695,-0.069924,55,283,578,5936
1644177623.558343,-0.011658,0.009155,-0.992554,0.297191,0.447634,-0.14626,47,285,579,5888
1644177623.606726,-0.006409,0.011353,-0.992126,0.175053,0.356031,-0.176794,40,275,589,5952
1644177623.655157,-0.008667,0.011719,-0.992371,0.388794,0.325496,-0.024122,47,282,575,5872
1644177623.703544,-0.010864,0.010132,-0.990234,0.388794,0.462901,-0.085191,42,273,586,5904
1644177623.751913,-0.010437,0.008362,-0.989502,0.373527,0.417099,-0.115725,42,285,584,5952
1644177623.800342,-0.010254,0.011414,-0.991455,0.236122,0.462901,-0.161527,55,271,585,5936
1644177623.848734,-0.007385,0.011353,-0.993286,0.251389,0.264427,-0.069924,47,290,582,5936
1644177623.897367,-0.012207,0.008545,-0.99408,0.404061,0.462901,-0.14626,55,279,578,5936
1644177623.945826,-0.011292,0.009338,-0.989868,0.129252,0.371298,-0.054656,49,285,582,5888
1644177623.99598,-0.007996,0.009216,-0.991577,0.373527,0.386565,-0.161527,45,280,584,5984
1644177624.059939,-0.007751,0.008728,-0.98999,0.159786,0.310229,-0.039389,43,279,583,5904
1644177624.101401,-0.008606,0.009705,-0.99054,0.281924,0.523969,-0.008855,57,273,591,5952
1644177624.140185,-0.007324,0.010925,-0.993469,0.190321,0.386565,0.12855,45,270,577,5952
1644177624.235811,-0.008484,0.007629,-0.991333,0.129252,0.371298,-0.14626,48,281,576,5936
1644177624.284231,-0.008606,0.006653,-0.994141,0.236122,0.462901,-0.039389,57,275,589,5936
1644177624.332606,-0.009216,0.009583,-0.992371,0.281924,0.401832,-0.024122,41,279,576,5904
1644177624.380994,-0.010803,0.010437,-0.991638,0.08345,0.462901,-0.085191,48,286,573,5952
1644177624.429385,-0.009705,0.008057,-0.991638,0.144519,0.279695,-0.054656,47,282,584,5952
1644177624.477779,-0.009094,0.008423,-0.994446,0.175053,0.478168,-0.14626,49,275,575,5888
1644177624.526154,-0.007202,0.012146,-0.990112,0.175053,0.417099,-0.054656,41,274,585,5952
1644177624.574607,-0.008911,0.007629,-0.990479,0.205588,0.432366,-0.085191,42,287,579,5888
1644177624.622969,-0.010986,0.010254,-0.991211,0.251389,0.417099,-0.008855,47,275,586,5904
1644177624.671351,-0.010071,0.008301,-0.991577,0.297191,0.478168,-0.115725,47,275,584,5872
1644177624.719753,-0.008728,0.00769,-0.992676,0.342992,0.447634,-0.085191,45,282,582,5984
1644177624.768147,-0.008667,0.01123,-0.993347,0.327725,0.554504,-0.024122,61,285,591,5984
1644177624.816575,-0.010254,0.008606,-0.990845,0.388794,0.264427,-0.207328,48,274,592,5904
1644177624.865009,-0.011353,0.010498,-0.992126,0.052916,0.401832,-0.039389,52,277,586,5872
1644177624.913366,-0.009399,0.009521,-0.991211,0.068183,0.386565,0.021679,45,275,591,5904
1644177624.961743,-0.007935,0.009949,-0.992432,0.251389,0.356031,-0.192061,49,277,586,5904
1644177625.010143,-0.005005,0.008972,-0.991455,0.113985,0.539237,-0.207328,46,271,590,5936
1644177625.073837,-0.007263,0.00824,-0.993652,0.205588,0.401832,-0.024122,43,281,583,5952
1644177625.112282,-0.010254,0.008789,-0.993713,0.190321,0.508702,-0.008855,38,277,589,5936
1644177625.155503,-0.008179,0.009644,-0.990295,0.35826,0.447634,-0.161527,45,282,582,5952
1644177625.205943,-0.007019,0.008728,-0.990967,0.113985,0.417099,-0.039389,42,287,582,5984
1644177625.256128,-0.010071,0.011841,-0.99176,0.220855,0.325496,-0.024122,58,281,583,5952
1644177625.30117,-0.008179,0.009338,-0.98999,0.113985,0.493435,-0.085191,48,276,583,5904
1644177625.397207,-0.008301,0.013428,-0.992065,0.236122,0.386565,-0.054656,47,277,582,5872
1644177625.445614,-0.008789,0.008789,-0.990356,0.190321,0.401832,-0.069924,46,271,583,5952
1644177625.493999,-0.009644,0.010498,-0.992126,0.327725,0.386565,-0.100458,55,274,576,5952
1644177625.542404,-0.009827,0.012024,-0.989502,0.281924,0.356031,-0.054656,42,268,584,5904
1644177625.590775,-0.011292,0.009766,-0.991699,0.129252,0.401832,-0.14626,49,275,575,5952
1644177625.639183,-0.011597,0.008179,-0.990967,0.190321,0.294962,-0.14626,48,276,592,5952
1644177625.687574,-0.007629,0.010925,-0.992371,0.266656,0.508702,0.036947,58,283,583,5872
1644177625.735968,-0.00824,0.011475,-0.993103,0.08345,0.447634,-0.100458,54,270,586,5952
1644177625.784349,-0.006592,0.009277,-0.99054,0.052916,0.340763,-0.130992,43,276,583,5952
1644177625.832827,-0.007812,0.011597,-0.990479,0.129252,0.401832,-0.25313,55,279,580,5936
1644177625.881183,-0.009583,0.009644,-0.990662,0.113985,0.294962,-0.069924,46,279,571,5872
1644177625.929588,-0.007446,0.009338,-0.992737,0.159786,0.310229,-0.192061,36,274,583,5872
1644177625.977961,-0.008057,0.009399,-0.991821,0.266656,0.386565,-0.176794,41,259,569,5904
1644177626.026356,-0.010315,0.010071,-0.991516,0.327725,0.371298,-0.207328,41,274,587,5904
1644177626.093537,-0.00885,0.010986,-0.990662,0.251389,0.356031,-0.130992,52,277,582,5952
1644177626.126979,-0.009399,0.009949,-0.991699,0.190321,0.218626,-0.161527,55,274,587,5904
1644177626.175667,-0.01001,0.011719,-0.988525,0.175053,0.172824,-0.069924,55,276,587,5904
1644177626.220738,-0.005432,0.007751,-0.991272,0.098718,0.432366,-0.069924,54,280,591,5888
1644177626.316655,-0.013733,0.011475,-0.99176,0.251389,0.340763,0.082748,48,283,590,5984
1644177626.365295,-0.010559,0.008362,-0.990967,0.205588,0.356031,0.082748,52,280,589,5888
1644177626.41346,-0.009399,0.009521,-0.995483,0.144519,0.340763,-0.085191,45,273,575,5904
1644177626.461833,-0.009521,0.01178,-0.99176,0.175053,0.340763,0.006412,65,274,587,5984
1644177626.510204,-0.007935,0.009277,-0.993408,0.220855,0.539237,-0.100458,40,277,589,5888
1644177626.558622,-0.009399,0.010437,-0.992004,0.175053,0.356031,-0.130992,41,274,576,5952
1644177626.607003,-0.009644,0.010376,-0.991882,0.388794,0.432366,-0.115725,45,273,582,5952
1644177626.655401,-0.00885,0.011719,-0.993042,0.251389,0.462901,-0.130992,46,276,587,5936
1644177626.703808,-0.008789,0.00824,-0.993774,0.251389,0.569771,-0.054656,49,282,575,5952
1644177626.752214,-0.010986,0.011169,-0.992065,0.129252,0.386565,-0.161527,46,279,587,5952
1644177626.800591,-0.011292,0.010925,-0.989014,0.35826,0.371298,-0.085191,48,286,578,5952
1644177626.849012,-0.006226,0.010437,-0.991333,0.190321,0.462901,-0.115725,43,276,573,5904
1644177626.897404,-0.00708,0.009949,-0.994751,0.251389,0.356031,-0.069924,48,276,585,5952
1644177626.945805,-0.009766,0.009155,-0.99176,0.236122,0.508702,-0.268397,61,273,584,5904
1644177626.994186,-0.009399,0.008179,-0.989868,0.297191,0.447634,-0.176794,49,277,591,5936
1644177627.042561,-0.009521,0.007874,-0.992493,0.327725,0.203359,0.021679,40,275,593,5904
1644177627.09323,-0.006042,0.010864,-0.992371,0.08345,0.371298,-0.222595,47,280,586,5888
1644177627.139305,-0.007141,0.010315,-0.993591,0.190321,0.462901,-0.115725,52,275,596,5984
1644177627.18773,-0.010071,0.008057,-0.989685,0.236122,0.264427,-0.100458,45,282,586,5984
1644177627.236129,-0.007812,0.011353,-0.994141,0.129252,0.432366,-0.024122,49,277,584,5904
1644177627.286261,-0.007812,0.010559,-0.992798,0.113985,0.356031,-0.161527,47,275,586,5888
1644177627.336616,-0.00824,0.009949,-0.992126,0.175053,0.417099,-0.054656,48,279,580,5888
1644177627.38156,-0.01239,0.009521,-0.992554,0.144519,0.356031,-0.085191,57,277,577,5984
1644177627.478048,-0.010681,0.011963,-0.990417,0.175053,0.432366,-0.283664,45,275,579,5904
1644177627.526438,-0.007202,0.00946,-0.991821,0.175053,0.340763,-0.115725,45,277,584,5984
1644177627.574845,-0.008911,0.009216,-0.991699,0.236122,0.401832,-0.161527,41,274,576,5872
1644177627.623247,-0.007812,0.010559,-0.991333,0.297191,0.432366,-0.100458,47,287,584,5872
1644177627.671633,-0.007751,0.008484,-0.995117,0.297191,0.340763,-0.161527,57,282,596,5984
1644177627.720025,-0.01001,0.011169,-0.989807,0.327725,0.371298,-0.085191,48,279,585,5872
1644177627.768403,-0.01062,0.009521,-0.993042,0.190321,0.386565,-0.130992,48,271,580,5984
1644177627.816805,-0.010254,0.007996,-0.991394,0.312458,0.493435,-0.14626,51,276,576,5952
1644177627.86533,-0.011902,0.009216,-0.992188,0.205588,0.279695,-0.130992,43,276,578,5872
1644177627.913658,-0.01001,0.010193,-0.991577,0.098718,0.371298,-0.130992,57,285,584,5952
1644177627.962021,-0.007935,0.010132,-0.98938,0.129252,0.462901,-0.100458,43,279,590,5872
1644177628.010397,-0.007324,0.007751,-0.991211,0.205588,0.294962,-0.039389,57,275,584,5904
1644177628.06842,-0.005127,0.009766,-0.992065,0.052916,0.478168,0.006412,57,277,584,5904
1644177628.107225,-0.010132,0.008179,-0.989075,0.281924,0.462901,-0.268397,49,280,584,5936
1644177628.155555,-0.007202,0.006165,-0.993286,0.144519,0.356031,-0.268397,61,273,586,5936
1644177628.203947,-0.009094,0.008423,-0.991333,0.312458,0.447634,-0.100458,52,280,591,5888
1644177628.252326,-0.011353,0.010986,-0.991821,0.175053,0.371298,-0.039389,43,271,599,5952
1644177628.300698,-0.009155,0.008118,-0.991821,0.205588,0.325496,-0.176794,48,271,587,5904
1644177628.349191,-0.01001,0.013123,-0.991821,0.342992,0.432366,-0.054656,49,275,589,5904
1644177628.397834,-0.008423,0.009888,-0.990845,0.144519,0.417099,-0.069924,47,280,589,5904
1644177628.448383,-0.012146,0.011597,-0.990906,0.144519,0.356031,-0.085191,51,288,583,5952
1644177628.498897,-0.008362,0.010864,-0.991516,0.236122,0.401832,-0.024122,42,277,584,5952
1644177628.543573,-0.009521,0.009521,-0.990845,0.297191,0.417099,-0.069924,43,286,585,5904
1644177628.639461,-0.008484,0.012512,-0.991699,0.220855,0.417099,0.006412,52,285,589,5952
1644177628.687837,-0.008606,0.009705,-0.991333,0.022382,0.493435,-0.329466,46,281,590,5984
1644177628.736237,-0.010315,0.009094,-0.993347,0.113985,0.401832,-0.161527,51,269,583,5904
1644177628.784884,-0.00946,0.011841,-0.990601,0.342992,0.325496,-0.100458,46,281,576,5952
1644177628.833042,-0.006958,0.008301,-0.992126,0.236122,0.386565,-0.176794,45,270,582,5936
1644177628.881469,-0.010986,0.012085,-0.99115,0.159786,0.310229,-0.054656,42,277,582,5904
1644177628.929834,-0.009766,0.007568,-0.991516,0.08345,0.24916,-0.14626,47,282,582,5888
1644177628.978258,-0.007202,0.008789,-0.992493,0.220855,0.432366,-0.130992,52,277,582,5904
1644177629.026641,-0.009216,0.008423,-0.992371,0.327725,0.478168,0.021679,47,285,584,5872
1644177629.084805,-0.011292,0.010376,-0.990723,0.297191,0.417099,-0.100458,58,271,594,5936
1644177629.123464,-0.009949,0.010376,-0.992676,0.434595,0.401832,-0.115725,49,282,593,5904
1644177629.171788,-0.009155,0.010681,-0.992249,0.144519,0.523969,-0.085191,46,271,590,5888
1644177629.220163,-0.010864,0.008484,-0.990784,0.266656,0.371298,-0.039389,45,282,582,5904
1644177629.268563,-0.011414,0.011902,-0.992615,0.236122,0.401832,0.036947,42,285,584,5952
1644177629.316962,-0.010315,0.01062,-0.991577,0.068183,0.432366,-0.14626,57,275,586,5904
1644177629.36535,-0.010681,0.009094,-0.990356,0.281924,0.554504,-0.069924,51,279,590,5904
1644177629.413742,-0.009216,0.012024,-0.992371,0.220855,0.447634,-0.054656,55,271,599,5888
1644177629.462185,-0.00946,0.011658,-0.991394,0.342992,0.386565,-0.069924,47,287,593,5872
1644177629.510513,-0.011169,0.009399,-0.993347,0.251389,0.401832,-0.115725,45,273,584,5936
1644177629.559147,-0.009155,0.011841,-0.993286,0.175053,0.356031,-0.100458,57,273,591,5936
1644177629.609524,-0.010864,0.009949,-0.992432,0.159786,0.203359,-0.130992,43,281,580,5888
1644177629.659937,-0.006775,0.009766,-0.99176,0.098718,0.356031,-0.069924,48,279,583,5984
1644177629.704845,-0.010437,0.009338,-0.993347,0.08345,0.493435,-0.237863,53,276,592,5904
1644177629.800863,-0.012207,0.007385,-0.990479,0.236122,0.279695,-0.008855,41,274,576,5888
1644177629.849272,-0.009521,0.010376,-0.992126,0.220855,0.279695,-0.130992,42,277,577,5904
1644177629.89769,-0.010254,0.012024,-0.991211,0.205588,0.508702,-0.14626,39,281,590,5936
1644177629.946094,-0.00592,0.009216,-0.989929,0.327725,0.371298,-0.100458,41,274,580,5936
1644177629.994453,-0.010742,0.009766,-0.991577,0.190321,0.356031,-0.130992,59,285,582,5904
1644177630.042889,-0.007874,0.007141,-0.988098,0.159786,0.386565,-0.14626,47,280,589,5952
1644177630.091366,-0.007629,0.01123,-0.992065,0.266656,0.493435,-0.161527,47,280,589,5952
1644177630.139649,-0.008179,0.009155,-0.99353,0.236122,0.432366,-0.024122,47,280,579,5936
1644177630.187983,-0.00824,0.007507,-0.988708,0.327725,0.371298,-0.298931,45,273,579,5936
1644177630.236398,-0.011292,0.008057,-0.99231,0.327725,0.478168,0.021679,51,274,590,5936
1644177630.284806,-0.011475,0.010864,-0.989441,0.236122,0.462901,-0.222595,58,291,590,5888
1644177630.333201,-0.006226,0.008728,-0.988281,0.144519,0.356031,-0.192061,47,277,582,5904
1644177630.381573,-0.005981,0.011841,-0.993469,0.251389,0.493435,-0.024122,53,286,590,5904
1644177630.429958,-0.010986,0.00769,-0.992859,0.068183,0.401832,0.052214,46,279,580,5952
1644177630.478322,-0.008545,0.010254,-0.989441,0.052916,0.447634,-0.25313,52,273,586,5952
1644177630.526743,-0.008484,0.008301,-0.989685,0.113985,0.508702,-0.024122,52,277,584,5888
1644177630.575489,-0.008423,0.013367,-0.992004,0.312458,0.462901,-0.039389,49,277,584,5952
1644177630.624559,-0.014038,0.010376,-0.992126,0.281924,0.462901,-0.008855,53,279,592,5952
1644177630.675016,-0.012451,0.009521,-0.990479,0.220855,0.432366,0.006412,47,282,577,5904
1644177630.725276,-0.007446,0.008728,-0.991638,0.236122,0.24916,-0.085191,41,281,587,5904
1644177630.817114,-0.009521,0.009644,-0.988831,0.144519,0.432366,-0.176794,48,279,590,5984
1644177630.865473,-0.010559,0.007996,-0.990295,0.35826,0.356031,-0.085191,51,281,585,5936
1644177630.913913,-0.009399,0.010132,-0.991333,0.220855,0.462901,-0.115725,43,279,573,5952
1644177630.962427,-0.007812,0.007812,-0.991638,0.08345,0.401832,-0.115725,51,274,583,5888
1644177631.01069,-0.009949,0.009949,-0.991638,0.220855,0.386565,-0.192061,48,286,583,5984
1644177631.06765,-0.011719,0.012573,-0.98999,0.113985,0.401832,-0.161527,54,285,582,5840
1644177631.10748,-0.008057,0.00824,-0.989685,0.251389,0.401832,-0.039389,53,274,580,5952
1644177631.155884,-0.010925,0.010132,-0.991943,0.236122,0.356031,-0.085191,53,279,590,5984
1644177631.204268,-0.008545,0.011353,-0.98999,0.144519,0.508702,-0.100458,46,271,587,5872
1644177631.252649,-0.009277,0.010925,-0.989868,0.297191,0.340763,-0.161527,43,281,590,5904
1644177631.30105,-0.009827,0.010498,-0.991272,0.342992,0.340763,-0.085191,52,275,584,5984
1644177631.349446,-0.00824,0.008545,-0.988892,0.312458,0.188092,-0.298931,48,274,571,5952
1644177631.397828,-0.00769,0.009399,-0.990601,0.190321,0.585038,-0.024122,52,282,589,5904
1644177631.446218,-0.006653,0.010803,-0.993347,0.251389,0.401832,-0.176794,46,291,585,5888
1644177631.494681,-0.005981,0.010376,-0.990479,0.327725,0.371298,0.052214,51,276,592,5952
1644177631.543025,-0.009888,0.008789,-0.989136,0.190321,0.356031,-0.115725,45,292,577,5904
1644177631.591685,-0.006897,0.011047,-0.988831,0.251389,0.356031,0.036947,54,287,584,5952
1644177631.640157,-0.008118,0.008728,-0.991394,0.205588,0.371298,-0.14626,55,281,587,5904
1644177631.688445,-0.011108,0.009644,-0.99176,0.098718,0.401832,-0.039389,53,276,583,5936
1644177631.738743,-0.008545,0.013245,-0.993103,0.251389,0.615573,-0.130992,55,281,597,5952
1644177631.789088,-0.009338,0.010254,-0.991333,0.297191,0.340763,0.006412,49,275,577,5872
1644177631.839731,-0.010498,0.011658,-0.990173,0.35826,0.371298,-0.069924,47,275,575,5872
1644177631.930126,-0.008972,0.011841,-0.989624,0.266656,0.386565,-0.069924,49,273,582,5936
1644177631.978525,-0.00885,0.011414,-0.992188,0.205588,0.417099,-0.176794,51,269,585,5952
1644177632.026925,-0.008484,0.009338,-0.993042,0.220855,0.432366,-0.039389,45,273,582,5872
1644177632.075382,-0.006836,0.009521,-0.991882,0.175053,0.554504,-0.115725,54,277,589,5888
1644177632.123645,-0.007324,0.008667,-0.992981,0.297191,0.218626,-0.054656,48,288,587,5952
1644177632.172082,-0.009033,0.007874,-0.991943,0.08345,0.386565,-0.130992,52,275,579,5904
1644177632.220459,-0.006226,0.010437,-0.992981,0.388794,0.340763,-0.298931,58,288,587,5904
1644177632.268828,-0.011841,0.008118,-0.990601,0.037649,0.386565,-0.161527,46,271,585,5952
1644177632.317239,-0.008972,0.012329,-0.993774,0.037649,0.340763,-0.207328,45,282,579,5952
1644177632.365629,-0.007568,0.007812,-0.990356,0.297191,0.371298,-0.039389,46,271,583,5888
1644177632.414029,-0.007202,0.010498,-0.991272,0.281924,0.462901,-0.161527,49,282,593,5904
1644177632.462438,-0.007935,0.007996,-0.989624,0.190321,0.432366,-0.039389,53,283,585,5888
1644177632.510771,-0.009827,0.009155,-0.991455,0.236122,0.462901,-0.054656,45,273,584,5952
1644177632.5592,-0.00946,0.008362,-0.991577,0.327725,0.539237,-0.085191,46,266,587,5952
1644177632.607589,-0.009827,0.007996,-0.992065,0.220855,0.508702,-0.054656,47,270,593,5984
1644177632.655977,-0.008057,0.010437,-0.992493,0.129252,0.340763,-0.069924,51,274,604,5872
1644177632.70437,-0.010437,0.011597,-0.991882,0.35826,0.264427,-0.100458,53,271,583,5888
1644177632.752742,-0.009583,0.00885,-0.992004,0.388794,0.340763,-0.130992,58,276,578,5904
1644177632.8012,-0.005859,0.006836,-0.992981,0.159786,0.401832,-0.085191,47,282,589,5904
1644177632.850578,-0.006958,0.009766,-0.991394,0.190321,0.523969,0.021679,48,281,599,5984
1644177632.90162,-0.010925,0.007935,-0.990051,0.205588,0.356031,-0.14626,55,274,587,5952
1644177632.951301,-0.008301,0.012329,-0.989136,0.175053,0.478168,-0.085191,54,270,591,5904
1644177632.995951,-0.009094,0.009583,-0.992554,0.190321,0.371298,-0.161527,48,276,587,5952
1644177633.091632,-0.007812,0.008545,-0.993286,0.159786,0.233893,-0.008855,49,275,582,5984
1644177633.139864,-0.009033,0.010925,-0.990173,0.434595,0.462901,-0.054656,49,277,593,5888
1644177633.188287,-0.010986,0.010193,-0.990845,0.327725,0.356031,-0.161527,49,280,577,5952
1644177633.236671,-0.009583,0.008423,-0.99054,0.236122,0.325496,-0.054656,59,287,586,5952
1644177633.285113,-0.009216,0.008606,-0.990051,0.342992,0.600305,-0.176794,60,279,585,5952
1644177633.333498,-0.009521,0.01239,-0.991394,0.037649,0.447634,-0.192061,42,277,586,5904
1644177633.381852,-0.007996,0.008911,-0.991394,0.251389,0.432366,-0.161527,53,269,578,5888
1644177633.43058,-0.007446,0.008362,-0.989868,0.037649,0.294962,-0.222595,49,280,572,5904
1644177633.478648,-0.008972,0.008606,-0.989502,0.236122,0.24916,-0.008855,47,287,586,5984
1644177633.527036,-0.009155,0.010864,-0.991821,0.098718,0.462901,-0.085191,47,277,582,5936
1644177633.575431,-0.011108,0.009705,-0.990845,0.205588,0.462901,-0.039389,49,282,589,5936
1644177633.62383,-0.009583,0.009094,-0.990417,0.175053,0.508702,-0.14626,47,282,584,5888
1644177633.672236,-0.012268,0.008911,-0.993164,0.190321,0.447634,-0.039389,46,271,583,5904
1644177633.720594,-0.009521,0.009766,-0.989197,0.113985,0.417099,-0.069924,45,287,579,5952
1644177633.768959,-0.004395,0.010681,-0.993408,0.281924,0.462901,-0.192061,45,275,591,5904
1644177633.81742,-0.011658,0.011414,-0.991211,0.205588,0.539237,-0.192061,45,273,579,5872
1644177633.865803,-0.009888,0.012939,-0.99115,0.281924,0.188092,-0.192061,57,282,572,5984
1644177633.914499,-0.009155,0.012817,-0.990356,0.236122,0.417099,-0.100458,54,280,582,5904
1644177633.962634,-0.008362,0.007263,-0.991577,0.205588,0.340763,-0.085191,54,277,591,5904
1644177634.066798,-0.007385,0.006836,-0.989807,0.251389,0.325496,-0.085191,47,273,593,5952
1644177634.107675,-0.006653,0.012207,-0.990784,0.205588,0.371298,-0.069924,51,271,590,5904
1644177634.156089,-0.010193,0.008301,-0.992859,0.251389,0.218626,-0.237863,51,276,580,5904
1644177634.204514,-0.008118,0.009033,-0.992371,0.251389,0.356031,-0.085191,60,276,594,5936
1644177634.252915,-0.011353,0.006958,-0.989868,0.052916,0.325496,-0.100458,48,286,583,5904
1644177634.301286,-0.011047,0.009216,-0.992249,0.159786,0.24916,-0.115725,45,282,586,5888
1644177634.349677,-0.010681,0.011597,-0.991577,0.144519,0.539237,-0.069924,53,283,592,5952
1644177634.398048,-0.010315,0.008545,-0.992371,0.098718,0.340763,-0.14626,43,281,583,5888
1644177634.446466,-0.009155,0.007507,-0.992737,0.236122,0.432366,-0.192061,54,277,586,5936
1644177634.494872,-0.008911,0.010437,-0.99231,0.129252,0.325496,-0.069924,43,274,592,5936
1644177634.543253,-0.010254,0.009277,-0.990967,0.129252,0.310229,-0.176794,48,283,599,5888
1644177634.591645,-0.007507,0.008911,-0.992188,0.312458,0.585038,0.036947,48,291,597,5904
1644177634.640034,-0.00647,0.010498,-0.993652,0.251389,0.371298,-0.039389,55,271,583,5952
1644177634.688725,-0.009338,0.008545,-0.990845,0.312458,0.508702,-0.069924,51,283,590,5952
1644177634.737638,-0.007507,0.011169,-0.991089,0.251389,0.432366,-0.100458,51,279,592,5904
1644177634.788158,-0.009399,0.010071,-0.992126,0.190321,0.356031,-0.069924,46,271,587,5904
1644177634.839138,-0.009338,0.011047,-0.990845,0.266656,0.371298,-0.115725,62,276,578,5904
1644177634.930398,-0.010925,0.013306,-0.987,0.297191,0.508702,-0.039389,47,282,591,5904
1644177634.978816,-0.009277,0.008728,-0.991882,0.281924,0.340763,-0.25313,49,277,584,5904
1644177635.027181,-0.007996,0.010498,-0.988159,0.251389,0.386565,0.082748,45,277,582,5952
1644177635.075689,-0.010681,0.011353,-0.992615,0.144519,0.264427,-0.207328,52,275,589,5904
1644177635.123991,-0.008972,0.007263,-0.991699,0.08345,0.447634,-0.115725,42,268,593,5888
1644177635.17236,-0.007874,0.009094,-0.990417,0.220855,0.478168,-0.176794,42,285,586,5984
1644177635.22074,-0.011108,0.008362,-0.993286,0.022382,0.539237,-0.130992,51,274,583,5952
1644177635.269106,-0.009766,0.010681,-0.992676,0.205588,0.417099,-0.237863,52,282,586,5952
1644177635.317511,-0.006897,0.011047,-0.994629,0.190321,0.24916,-0.14626,55,276,576,5904
1644177635.365906,-0.010925,0.012634,-0.992126,0.342992,0.310229,-0.14626,48,274,594,5984
1644177635.414314,-0.011902,0.007202,-0.993164,0.175053,0.371298,0.052214,43,274,583,5904
1644177635.462713,-0.012085,0.007324,-0.993164,0.342992,0.386565,-0.14626,54,270,584,5904
1644177635.511071,-0.009827,0.009888,-0.992188,0.236122,0.432366,-0.024122,45,265,593,5952
1644177635.559488,-0.009155,0.006348,-0.992004,0.129252,0.294962,-0.161527,49,290,575,5904
1644177635.607876,-0.010376,0.009155,-0.990173,0.266656,0.325496,-0.069924,38,275,575,5936
1644177635.656228,-0.007812,0.01355,-0.992676,0.190321,0.539237,-0.298931,52,270,593,5888
1644177635.704668,-0.009155,0.01123,-0.990601,0.068183,0.371298,-0.176794,57,263,584,5872
1644177635.753028,-0.011108,0.010681,-0.991455,0.037649,0.417099,-0.054656,43,283,594,5888
1644177635.801448,-0.008362,0.010132,-0.990356,0.236122,0.386565,-0.161527,52,287,577,5904
1644177635.850901,-0.009766,0.012085,-0.99115,0.266656,0.371298,-0.085191,45,277,589,5888
1644177635.902317,-0.008789,0.009521,-0.989136,0.312458,0.386565,-0.039389,54,275,593,5824
1644177635.95199,-0.009338,0.010315,-0.991577,0.419328,0.279695,-0.115725,48,279,583,5904
1644177635.996635,-0.010071,0.010498,-0.991394,0.113985,0.386565,-0.192061,49,277,579,5872
1644177636.091956,-0.007751,0.01001,-0.992493,0.113985,0.432366,-0.054656,57,282,589,5904
1644177636.140225,-0.009644,0.007874,-0.990845,0.373527,0.386565,-0.130992,47,275,572,5984
1644177636.188572,-0.009338,0.010498,-0.989075,0.205588,0.310229,-0.115725,52,273,575,5872
1644177636.236935,-0.010437,0.009766,-0.99054,0.175053,0.585038,-0.222595,49,270,589,5872
1644177636.285326,-0.009399,0.009949,-0.99408,0.098718,0.264427,-0.115725,54,282,584,5904
1644177636.333745,-0.010254,0.008789,-0.991882,0.159786,0.310229,-0.161527,49,277,586,5888
1644177636.382182,-0.008789,0.011047,-0.991394,0.251389,0.310229,-0.069924,57,273,586,5904
1644177636.430515,-0.009949,0.007874,-0.992554,0.220855,0.401832,-0.085191,49,280,584,5904
1644177636.478922,-0.010864,0.009399,-0.990051,0.297191,0.447634,-0.115725,48,274,576,5888
1644177636.527312,-0.009399,0.009399,-0.990784,0.098718,0.371298,-0.100458,55,283,578,5936
1644177636.575709,-0.00647,0.010498,-0.99115,0.098718,0.508702,-0.130992,49,287,582,5952
1644177636.624113,-0.010071,0.007568,-0.991028,0.098718,0.493435,-0.069924,46,274,583,5984
1644177636.67251,-0.01001,0.011719,-0.991028,0.144519,0.432366,-0.069924,41,279,592,5952
1644177636.72088,-0.010681,0.008911,-0.991272,0.35826,0.447634,-0.130992,54,275,582,5936
1644177636.769266,-0.010315,0.007874,-0.993835,0.144519,0.294962,-0.100458,48,283,590,5984
1644177636.817653,-0.008057,0.00946,-0.993958,0.281924,0.386565,-0.085191,39,279,571,5904
1644177636.866101,-0.010071,0.008789,-0.989929,0.159786,0.432366,-0.085191,41,271,583,5952
1644177636.91456,-0.009888,0.009888,-0.989685,0.251389,0.569771,-0.207328,36,276,576,5952
1644177636.962914,-0.009033,0.009033,-0.990112,0.297191,0.386565,-0.039389,47,285,591,5952
1644177637.064255,-0.00885,0.010376,-0.990906,0.312458,0.371298,-0.085191,54,273,577,5904
1644177637.108039,-0.008667,0.009094,-0.99176,0.281924,0.615573,-0.100458,45,285,582,5984
1644177637.156434,-0.009827,0.009949,-0.992676,0.220855,0.432366,0.006412,40,282,584,5904
1644177637.204812,-0.008423,0.009216,-0.992188,0.129252,0.371298,-0.115725,52,268,586,5872
1644177637.253167,-0.010193,0.010925,-0.99176,0.190321,0.294962,-0.100458,47,280,586,5936
1644177637.301599,-0.007446,0.010803,-0.990479,0.251389,0.417099,-0.207328,60,279,585,5904
1644177637.349986,-0.009827,0.012024,-0.989868,0.297191,0.310229,-0.237863,54,268,591,5952
1644177637.398373,-0.008545,0.011841,-0.989746,0.220855,0.432366,-0.130992,54,277,579,5888
1644177637.446734,-0.01001,0.009399,-0.990662,0.251389,0.539237,-0.024122,51,281,587,5936
1644177637.495224,-0.006714,0.012634,-0.991455,0.205588,0.325496,-0.054656,42,280,582,5904
1644177637.543562,-0.010498,0.01123,-0.98938,0.297191,0.401832,-0.207328,55,266,587,5936
1644177637.591914,-0.007263,0.006897,-0.992676,0.205588,0.356031,-0.192061,53,274,590,5904
1644177637.640328,-0.011108,0.010193,-0.991577,0.205588,0.417099,-0.115725,53,271,592,5984
1644177637.688707,-0.007324,0.011597,-0.994751,0.251389,0.493435,-0.161527,43,276,594,5872
1644177637.737094,-0.011169,0.008179,-0.992737,0.144519,0.432366,-0.085191,52,285,589,5872
1644177637.785488,-0.008484,0.008301,-0.990601,0.297191,0.523969,-0.054656,48,279,580,5984
1644177637.834082,-0.012085,0.009949,-0.992371,0.098718,0.340763,-0.161527,47,270,591,5936
1644177637.884267,-0.011597,0.009399,-0.992737,0.175053,0.310229,-0.085191,41,274,585,5904
1644177637.934251,-0.006592,0.009888,-0.991821,0.236122,0.294962,-0.054656,45,275,577,5904
1644177637.984475,-0.008545,0.01178,-0.988953,0.281924,0.462901,-0.115725,38,263,572,5888
1644177638.075937,-0.007874,0.01001,-0.990662,0.190321,0.356031,0.021679,54,285,582,5936
1644177638.124249,-0.007812,0.008423,-0.989502,0.251389,0.447634,-0.161527,47,270,579,5904
1644177638.172642,-0.01001,0.010986,-0.990967,0.312458,0.478168,-0.130992,45,287,586,5888
1644177638.221019,-0.011108,0.010742,-0.99292,0.281924,0.386565,0.021679,52,277,582,5888
1644177638.269406,-0.009583,0.008362,-0.989502,0.327725,0.356031,-0.192061,41,271,587,5952
1644177638.317782,-0.007446,0.009155,-0.992065,0.098718,0.264427,-0.085191,49,268,591,5904
1644177638.366186,-0.008728,0.012207,-0.988892,0.281924,0.386565,-0.176794,51,276,585,5904
1644177638.414639,-0.008545,0.010681,-0.990845,0.159786,0.539237,0.006412,51,279,583,5904
1644177638.463002,-0.011414,0.010071,-0.991516,0.251389,0.310229,-0.207328,51,276,583,5888
1644177638.511388,-0.007568,0.011963,-0.989868,0.281924,0.386565,-0.039389,54,270,577,5888
1644177638.559767,-0.010803,0.010132,-0.988831,0.052916,0.447634,-0.192061,42,270,586,5984
1644177638.608159,-0.008545,0.010193,-0.992676,0.220855,0.554504,-0.192061,49,282,582,5904
1644177638.656553,-0.005981,0.010315,-0.994019,0.220855,0.294962,-0.192061,43,279,587,5952
1644177638.705083,-0.010193,0.009338,-0.992676,0.068183,0.371298,-0.054656,57,282,584,5904
1644177638.753344,-0.012146,0.009155,-0.991211,0.144519,0.447634,-0.130992,52,285,589,5904
1644177638.801733,-0.006958,0.00885,-0.993286,0.159786,0.386565,-0.039389,46,288,578,5888
1644177638.850147,-0.00708,0.010681,-0.990723,0.327725,0.24916,-0.161527,48,279,590,5984
1644177638.898899,-0.00885,0.01178,-0.993896,0.144519,0.264427,0.098015,53,281,587,5952
1644177638.946931,-0.009521,0.009094,-0.99176,0.190321,0.493435,-0.237863,48,286,573,5904
1644177638.996174,-0.010803,0.012634,-0.991089,0.190321,0.24916,0.006412,58,281,583,5952
1644177639.060145,-0.009033,0.009644,-0.990417,0.373527,0.401832,-0.176794,36,277,586,5984
1644177639.096603,-0.007019,0.010925,-0.98822,0.236122,0.24916,-0.176794,48,269,587,5904
1644177639.188837,-0.007141,0.010132,-0.989258,0.297191,0.432366,-0.207328,49,275,582,5888
1644177639.237216,-0.008484,0.009033,-0.992676,0.388794,0.417099,-0.085191,46,276,585,5936
1644177639.285618,-0.008423,0.012451,-0.990845,0.144519,0.310229,-0.115725,51,269,578,5936
1644177639.334037,-0.009033,0.010559,-0.990967,0.251389,0.279695,-0.192061,49,280,589,5936
1644177639.382432,-0.008789,0.01062,-0.993164,0.220855,0.264427,-0.100458,55,271,592,5888
1644177639.430811,-0.011902,0.010376,-0.990723,0.327725,0.325496,0.052214,47,277,582,5952
1644177639.479196,-0.009094,0.013489,-0.990479,0.08345,0.386565,-0.069924,51,276,583,5888
1644177639.527596,-0.012573,0.01062,-0.989502,0.297191,0.386565,-0.176794,54,280,577,5952
1644177639.575996,-0.009155,0.010071,-0.990173,0.144519,0.233893,-0.115725,52,277,582,5904
1644177639.624408,-0.006958,0.01062,-0.991638,0.281924,0.294962,-0.039389,55,279,585,5872
1644177639.672773,-0.010803,0.008911,-0.99054,0.281924,0.493435,-0.085191,46,271,583,5904
1644177639.721176,-0.009583,0.00946,-0.991394,0.266656,0.203359,-0.008855,52,287,589,5936
1644177639.769561,-0.008972,0.008423,-0.99115,0.205588,0.417099,-0.161527,51,286,587,5984
1644177639.818005,-0.010315,0.011719,-0.993347,0.236122,0.386565,-0.100458,57,280,584,5984
1644177639.866386,-0.011719,0.012634,-0.993896,0.08345,0.279695,-0.039389,53,281,585,5984
1644177639.914797,-0.007263,0.008789,-0.98938,0.190321,0.386565,0.036947,48,269,587,5872
1644177639.963183,-0.007324,0.009949,-0.992004,0.129252,0.417099,-0.039389,41,276,587,5936
1644177640.066899,-0.009338,0.008179,-0.992126,0.342992,0.356031,0.052214,46,286,587,5872
1644177640.108257,-0.008484,0.008484,-0.992615,0.251389,0.310229,-0.176794,41,262,583,5936
1644177640.156647,-0.009766,0.010681,-0.988892,0.175053,0.432366,-0.25313,52,285,589,6000
1644177640.205099,-0.011047,0.007202,-0.993103,0.281924,0.462901,-0.115725,53,276,585,5904
1644177640.253456,-0.005554,0.010132,-0.991028,0.144519,0.386565,-0.14626,49,282,577,5984
1644177640.301865,-0.008789,0.010437,-0.991028,0.373527,0.386565,-0.008855,49,280,586,5904
1644177640.350255,-0.010254,0.007019,-0.991028,0.113985,0.371298,-0.008855,47,282,586,5872
1644177640.398648,-0.005127,0.010315,-0.991272,0.236122,0.356031,-0.207328,43,276,594,5904
1644177640.447042,-0.009644,0.009705,-0.992859,0.342992,0.508702,-0.008855,43,279,580,5872
1644177640.495404,-0.009216,0.008728,-0.990051,0.281924,0.294962,-0.069924,43,283,590,5984
1644177640.543838,-0.008972,0.010437,-0.992432,0.281924,0.417099,0.067481,55,271,592,5872
1644177640.592246,-0.009888,0.010742,-0.99231,0.129252,0.478168,-0.069924,58,276,587,5952
1644177640.640576,-0.009033,0.008179,-0.989624,0.175053,0.371298,-0.085191,52,280,591,5984
1644177640.688963,-0.007324,0.00885,-0.988403,0.144519,0.447634,-0.069924,57,265,586,5888
1644177640.737386,-0.008179,0.007751,-0.992371,0.236122,0.585038,-0.176794,43,281,578,5936
1644177640.786114,-0.010498,0.007935,-0.992493,0.159786,0.493435,-0.115725,40,292,586,5904
1644177640.836086,-0.006165,0.011536,-0.988708,0.175053,0.417099,-0.176794,46,279,587,5936
1644177640.886589,-0.007019,0.009521,-0.994629,0.08345,0.264427,-0.115725,54,277,596,5952
1644177640.93672,-0.006836,0.005615,-0.992737,0.113985,0.661374,-0.176794,51,281,583,5936
1644177641.02781,-0.009766,0.008728,-0.99231,0.190321,0.462901,-0.14626,48,274,585,5936
1644177641.076253,-0.008545,0.010742,-0.990845,0.098718,0.264427,-0.176794,53,286,597,5888
1644177641.124482,-0.00708,0.010559,-0.988159,0.190321,0.386565,-0.283664,51,274,583,5984
1644177641.17291,-0.00946,0.010559,-0.989807,0.312458,0.478168,-0.115725,43,281,590,5872
1644177641.22131,-0.009338,0.007935,-0.990601,0.098718,0.325496,0.006412,57,287,582,5952
1644177641.269687,-0.010986,0.010986,-0.990784,0.159786,0.386565,-0.222595,46,274,585,5888
1644177641.318068,-0.009521,0.008667,-0.989624,0.220855,0.401832,-0.25313,60,276,580,5952
1644177641.366477,-0.005859,0.009644,-0.991943,0.251389,0.508702,-0.039389,58,276,580,5872
1644177641.414886,-0.007507,0.008545,-0.992493,0.251389,0.417099,-0.161527,51,276,580,5936
1644177641.46327,-0.010132,0.011292,-0.989014,0.434595,0.294962,-0.130992,57,285,579,5952
1644177641.511639,-0.010071,0.011536,-0.99231,0.266656,0.340763,-0.100458,46,276,580,5840
1644177641.560042,-0.009766,0.010132,-0.991821,0.159786,0.279695,-0.085191,52,268,582,5888
1644177641.60843,-0.010559,0.007019,-0.99231,0.342992,0.447634,-0.130992,46,279,585,5904
1644177641.656833,-0.009521,0.008606,-0.992065,0.281924,0.356031,-0.115725,48,264,590,5936
1644177641.705221,-0.008728,0.010742,-0.993225,0.312458,0.447634,-0.176794,40,280,584,5984
1644177641.753586,-0.007141,0.008606,-0.989441,0.266656,0.294962,-0.115725,41,276,590,5984
1644177641.802004,-0.009949,0.012329,-0.988831,0.297191,0.508702,-0.176794,47,280,584,5904
1644177641.850502,-0.012207,0.007629,-0.989929,0.08345,0.356031,-0.192061,53,274,580,5904
1644177641.899165,-0.010925,0.009644,-0.993042,0.175053,0.508702,-0.14626,47,280,579,5872
1644177641.949089,-0.010437,0.009521,-0.991333,0.373527,0.340763,-0.115725,53,281,585,5936
1644177641.999366,-0.008911,0.009094,-0.991699,0.068183,0.478168,-0.222595,49,268,582,5952
1644177642.093739,-0.009399,0.010071,-0.992798,0.175053,0.279695,-0.039389,52,273,579,5904
1644177642.140724,-0.00824,0.005981,-0.993225,0.220855,0.325496,0.220153,53,291,578,5936
1644177642.189122,-0.007019,0.009338,-0.990112,0.281924,0.478168,-0.161527,47,277,584,5984
1644177642.237506,-0.010071,0.009766,-0.992554,0.236122,0.478168,-0.115725,48,276,585,5904
1644177642.285913,-0.007446,0.006531,-0.990967,0.236122,0.508702,-0.085191,54,273,584,6016
1644177642.334331,-0.009094,0.00946,-0.993713,0.251389,0.417099,-0.054656,59,280,577,5984
1644177642.38272,-0.009399,0.01001,-0.991211,0.236122,0.356031,-0.14626,41,271,573,5888
1644177642.431113,-0.008545,0.009583,-0.993408,0.236122,0.447634,-0.008855,42,280,584,5904
1644177642.479488,-0.00885,0.010864,-0.990234,0.052916,0.340763,-0.14626,59,268,577,5872
1644177642.527879,-0.009155,0.009827,-0.989441,0.205588,0.233893,-0.054656,48,271,592,5952
1644177642.57625,-0.010681,0.008972,-0.990601,0.144519,0.432366,0.006412,48,276,587,5952
1644177642.62471,-0.009521,0.006165,-0.989258,0.205588,0.447634,-0.207328,42,277,582,5952
1644177642.67307,-0.009338,0.008179,-0.991516,0.251389,0.432366,-0.039389,52,268,579,5888
1644177642.721452,-0.006836,0.010559,-0.99054,0.220855,0.371298,-0.237863,55,276,585,5888
1644177642.769843,-0.010193,0.007935,-0.993774,0.404061,0.478168,-0.192061,49,268,584,5872
1644177642.818233,-0.007141,0.011414,-0.990662,0.159786,0.447634,-0.054656,47,270,579,5904
1644177642.866653,-0.00769,0.010315,-0.992798,0.129252,0.371298,-0.054656,46,274,585,5872
1644177642.915454,-0.010559,0.007263,-0.991882,0.236122,0.340763,-0.283664,42,285,584,5984
1644177642.963848,-0.009521,0.008728,-0.992859,0.190321,0.264427,0.021679,52,273,572,5888
1644177643.014204,-0.009277,0.012512,-0.990967,0.388794,0.386565,-0.054656,60,271,599,5904
1644177643.10861,-0.00708,0.011841,-0.994751,0.449863,0.325496,-0.008855,46,271,585,5952
1644177643.156987,-0.00824,0.011169,-0.98999,0.098718,0.264427,-0.130992,55,279,578,5904
1644177643.205384,-0.007751,0.010742,-0.990112,0.373527,0.356031,0.006412,54,285,582,5952
1644177643.253773,-0.008789,0.012024,-0.993164,0.266656,0.417099,0.021679,48,274,578,5936
1644177643.302361,-0.010681,0.01062,-0.991821,0.037649,0.340763,0.021679,52,282,591,5984
1644177643.350543,-0.009583,0.007996,-0.992859,0.266656,0.478168,-0.283664,54,277,584,5984
1644177643.398934,-0.009094,0.011353,-0.995178,0.129252,0.462901,-0.115725,48,283,573,5872
1644177643.447329,-0.007446,0.008545,-0.992798,0.297191,0.386565,-0.14626,42,280,577,6000
1644177643.495718,-0.008179,0.012939,-0.991394,0.190321,0.432366,-0.085191,45,277,586,5936
1644177643.544125,-0.008911,0.008057,-0.989258,0.205588,0.462901,-0.069924,45,280,582,5872
1644177643.592519,-0.009399,0.007019,-0.993774,0.373527,0.294962,-0.008855,47,275,589,6016
1644177643.640854,-0.009888,0.011841,-0.993835,0.312458,0.325496,0.021679,52,277,584,5952
1644177643.689284,-0.007812,0.011597,-0.991882,0.342992,0.478168,-0.222595,52,280,586,5904
1644177643.737678,-0.010559,0.005737,-0.990234,0.297191,0.417099,-0.100458,51,269,585,5984
1644177643.786067,-0.008606,0.011414,-0.99408,0.312458,0.478168,-0.130992,51,276,583,5936
1644177643.83446,-0.01001,0.009644,-0.994385,0.373527,0.279695,-0.130992,42,273,589,5952
1644177643.882918,-0.00708,0.009705,-0.988708,0.266656,0.386565,-0.222595,59,270,591,5888
1644177643.931277,-0.007935,0.009033,-0.991638,0.205588,0.401832,-0.115725,52,275,584,5952
1644177643.97969,-0.011475,0.010498,-0.990845,0.251389,0.371298,-0.008855,55,283,580,5888
1644177644.029775,-0.009216,0.008728,-0.992004,0.190321,0.279695,-0.130992,48,276,587,5904
1644177644.085362,-0.010437,0.010803,-0.991821,0.144519,0.417099,0.021679,53,274,592,5952
1644177644.129859,-0.009521,0.010193,-0.993286,0.159786,0.478168,-0.161527,52,275,584,5936
1644177644.174405,-0.007996,0.010437,-0.990784,0.175053,0.386565,-0.054656,39,274,580,5952
1644177644.270001,-0.006653,0.008911,-0.990234,0.220855,0.401832,0.006412,49,275,577,5936
1644177644.318393,-0.009644,0.009277,-0.992493,0.205588,0.401832,0.006412,38,268,586,5904
1644177644.366808,-0.009766,0.010071,-0.990173,0.159786,0.401832,-0.237863,61,275,584,5872
1644177644.415224,-0.009338,0.010498,-0.992554,0.159786,0.325496,-0.039389,39,269,580,5904
1644177644.463603,-0.008362,0.007324,-0.993591,0.220855,0.432366,0.021679,52,282,582,5904
1644177644.511991,-0.008545,0.010315,-0.990112,0.129252,0.432366,-0.054656,58,266,580,5936
1644177644.560373,-0.009338,0.008423,-0.991699,0.159786,0.417099,-0.085191,49,273,593,5904
1644177644.608766,-0.010437,0.007996,-0.988403,0.266656,0.386565,-0.100458,45,275,582,5888
1644177644.657165,-0.010254,0.010803,-0.989075,0.144519,0.462901,-0.161527,53,283,580,5936
1644177644.705549,-0.009338,0.007996,-0.990906,0.113985,0.371298,-0.161527,49,268,584,5904
1644177644.753967,-0.009644,0.008667,-0.990784,0.281924,0.340763,0.006412,51,276,580,5904
1644177644.802361,-0.008545,0.011536,-0.990723,0.205588,0.310229,-0.268397,46,279,587,5888
1644177644.850744,-0.009094,0.010498,-0.992004,0.175053,0.417099,-0.008855,46,274,580,5840
1644177644.899082,-0.01062,0.008118,-0.992371,0.129252,0.325496,0.082748,47,277,586,5984
1644177644.947524,-0.008301,0.009399,-0.990417,0.327725,0.386565,-0.085191,41,274,576,5904
1644177644.995903,-0.009338,0.010437,-0.992004,0.220855,0.401832,-0.14626,54,273,591,5904
1644177645.044279,-0.008118,0.010437,-0.991943,0.129252,0.325496,-0.14626,47,268,593,5936
1644177645.099448,-0.007263,0.012573,-0.989807,0.190321,0.325496,-0.115725,51,276,585,5936
1644177645.14147,-0.010742,0.01001,-0.991699,0.098718,0.462901,0.113282,48,271,592,5936
1644177645.192024,-0.008972,0.008667,-0.990112,0.205588,0.523969,-0.039389,59,285,589,6000
1644177645.242187,-0.010437,0.009521,-0.991272,0.373527,0.508702,-0.115725,52,285,589,5872
1644177645.286986,-0.005737,0.01239,-0.99292,0.220855,0.523969,-0.115725,46,281,590,5936
1644177645.383011,-0.010132,0.010681,-0.990723,0.220855,0.371298,-0.008855,43,276,585,5904
1644177645.431378,-0.010071,0.010803,-0.992371,0.236122,0.294962,-0.008855,43,281,587,5952
1644177645.479771,-0.01001,0.008362,-0.991211,0.175053,0.447634,-0.024122,45,287,579,5984
1644177645.528134,-0.007446,0.010742,-0.994446,0.144519,0.371298,-0.237863,55,269,583,5888
1644177645.576538,-0.005981,0.01001,-0.990662,0.236122,0.386565,-0.039389,49,277,586,5872
1644177645.625004,-0.007202,0.011108,-0.990173,0.312458,0.386565,-0.100458,49,268,589,5984
1644177645.673357,-0.006958,0.007507,-0.992737,0.220855,0.447634,-0.039389,51,274,594,5936
1644177645.721735,-0.006714,0.011047,-0.990234,0.251389,0.462901,-0.115725,36,264,587,5872
1644177645.770132,-0.007629,0.009277,-0.991943,0.266656,0.233893,-0.222595,40,287,579,5888
1644177645.818559,-0.008057,0.010437,-0.992371,0.220855,0.401832,-0.283664,51,279,590,5904
1644177645.866959,-0.008789,0.008545,-0.991638,0.266656,0.386565,-0.085191,62,276,580,5904
1644177645.915353,-0.009766,0.009338,-0.990051,0.251389,0.401832,0.082748,47,277,589,5872
1644177645.963762,-0.008118,0.008728,-0.990845,0.236122,0.432366,-0.054656,48,279,576,5984
1644177646.012219,-0.009338,0.009155,-0.993591,0.190321,0.493435,-0.085191,47,277,586,5904
1644177646.074039,-0.007874,0.011841,-0.992249,0.175053,0.264427,-0.222595,52,273,582,5952
1644177646.110366,-0.007996,0.009949,-0.992004,0.35826,0.294962,-0.039389,64,282,586,5984
1644177646.157233,-0.009216,0.011108,-0.989929,0.205588,0.401832,-0.14626,45,280,582,5936
1644177646.205647,-0.007446,0.011658,-0.990479,0.113985,0.340763,-0.008855,48,283,590,5904
1644177646.254335,-0.010559,0.009521,-0.992065,0.236122,0.310229,-0.085191,48,271,587,5952
1644177646.304476,-0.009399,0.010254,-0.991882,0.281924,0.508702,-0.085191,51,283,590,5904
1644177646.3547,-0.008179,0.011475,-0.991089,0.098718,0.24916,-0.207328,52,280,596,5952
1644177646.399831,-0.008118,0.008545,-0.989685,0.266656,0.554504,-0.283664,52,275,582,5936
1644177646.49598,-0.008301,0.01123,-0.993103,0.236122,0.356031,-0.115725,48,283,576,5936
1644177646.544412,-0.008301,0.008179,-0.991638,0.251389,0.24916,0.006412,53,276,590,5952
1644177646.592785,-0.007874,0.011108,-0.991943,0.220855,0.600305,-0.115725,59,277,582,5952
1644177646.641152,-0.008484,0.010132,-0.989319,0.236122,0.279695,-0.192061,53,286,578,5952
1644177646.689563,-0.008667,0.009644,-0.989624,0.068183,0.417099,-0.100458,49,275,589,5904
1644177646.737953,-0.00769,0.010071,-0.989502,0.373527,0.386565,-0.085191,48,269,585,5888
1644177646.78632,-0.007812,0.011353,-0.989929,0.327725,0.432366,0.052214,47,273,591,5936
1644177646.834795,-0.008301,0.010864,-0.991638,0.236122,0.24916,-0.054656,51,281,583,5904
1644177646.883189,-0.008118,0.010437,-0.991455,0.175053,0.447634,-0.283664,54,282,586,5904
1644177646.931561,-0.007019,0.008301,-0.990662,0.297191,0.554504,-0.024122,52,268,584,5888
1644177646.979941,-0.008301,0.00946,-0.988159,0.281924,0.447634,-0.085191,52,285,582,5904
1644177647.02838,-0.009705,0.009399,-0.991882,0.236122,0.356031,-0.130992,52,277,589,5888
1644177647.084814,-0.01001,0.010315,-0.992249,0.342992,0.310229,-0.024122,49,285,584,5952
1644177647.125147,-0.009094,0.009949,-0.994141,0.251389,0.386565,-0.115725,42,280,591,5904
1644177647.173484,-0.008301,0.010315,-0.986938,0.175053,0.371298,-0.192061,46,279,587,5936
1644177647.222226,-0.006958,0.010681,-0.992249,0.175053,0.386565,-0.100458,59,268,593,5952
1644177647.271618,-0.00946,0.011047,-0.990295,0.113985,0.279695,-0.100458,43,276,569,5888
1644177647.321924,-0.007263,0.011414,-0.993225,0.205588,0.356031,-0.161527,46,279,573,5888
1644177647.372011,-0.009399,0.008301,-0.99054,0.098718,0.417099,-0.176794,51,276,580,5904
1644177647.463818,-0.009766,0.008789,-0.991028,0.312458,0.233893,-0.161527,48,276,580,5904
1644177647.512221,-0.008301,0.012268,-0.992798,0.236122,0.279695,-0.100458,59,282,579,5904
1644177647.560617,-0.009888,0.009521,-0.990479,0.098718,0.462901,-0.024122,49,270,584,5984
1644177647.609002,-0.010193,0.011963,-0.993225,0.266656,0.417099,-0.054656,42,285,586,5936
1644177647.65738,-0.007019,0.011536,-0.991699,0.35826,0.356031,-0.176794,52,268,586,5936
1644177647.705787,-0.009521,0.009583,-0.992676,0.220855,0.386565,-0.268397,45,277,586,5952
1644177647.754166,-0.008118,0.010132,-0.990112,0.266656,0.340763,0.082748,42,285,579,5904
1644177647.802581,-0.00769,0.009216,-0.989746,0.175053,0.340763,-0.192061,52,273,579,5872
1644177647.851004,-0.004822,0.009888,-0.992004,0.281924,0.508702,-0.069924,46,271,592,5952
1644177647.89941,-0.00885,0.010925,-0.992493,0.373527,0.569771,-0.069924,45,275,586,5904
1644177647.947788,-0.007812,0.011414,-0.991943,0.175053,0.508702,-0.25313,47,273,570,5904
1644177647.996152,-0.007935,0.010681,-0.991516,0.144519,0.432366,0.052214,46,271,578,5936
1644177648.044773,-0.009888,0.007874,-0.99408,0.144519,0.340763,0.006412,53,274,590,5888
1644177648.098507,-0.009277,0.009766,-0.991821,0.205588,0.462901,-0.14626,51,274,587,5936
1644177648.141337,-0.010071,0.008301,-0.993225,0.175053,0.478168,-0.207328,60,281,587,5952
1644177648.189712,-0.006775,0.009827,-0.990295,0.251389,0.493435,-0.176794,48,276,583,5888
1644177648.238101,-0.009216,0.013062,-0.992371,0.175053,0.371298,-0.069924,49,285,582,5888
1644177648.286472,-0.011414,0.008545,-0.99231,0.190321,0.569771,0.067481,51,286,583,5904
1644177648.334891,-0.009949,0.009277,-0.991821,0.236122,0.432366,0.036947,55,276,590,5904
1644177648.383316,-0.007019,0.008606,-0.990417,0.342992,0.508702,-0.100458,51,279,578,5888
1644177648.433503,-0.010132,0.010132,-0.996094,0.281924,0.569771,0.143817,45,275,589,5904
1644177648.483857,-0.010864,0.008423,-0.992554,0.281924,0.523969,-0.024122,41,279,583,5936
1644177648.529091,-0.009399,0.008484,-0.990112,0.159786,0.432366,-0.14626,53,281,594,5904
1644177648.625396,-0.009644,0.009888,-0.991272,0.175053,0.447634,-0.069924,58,276,578,5888
1644177648.673647,-0.009094,0.01178,-0.990234,0.251389,0.417099,-0.192061,47,268,584,5888
1644177648.721994,-0.011169,0.009888,-0.991882,0.373527,0.508702,-0.130992,45,277,589,5936
1644177648.770411,-0.006165,0.011047,-0.99292,0.236122,0.417099,-0.176794,49,282,586,5904
1644177648.818807,-0.010925,0.009033,-0.992798,0.297191,0.371298,-0.115725,52,277,582,5872
1644177648.867221,-0.007324,0.00946,-0.991089,0.236122,0.462901,-0.115725,59,273,586,5936
1644177648.915726,-0.00647,0.009338,-0.987976,0.312458,0.356031,-0.14626,33,273,589,5904
1644177648.964016,-0.011597,0.00824,-0.993286,0.251389,0.432366,-0.039389,33,277,579,5952
1644177649.012424,-0.005188,0.008057,-0.989868,0.052916,0.462901,-0.024122,54,268,584,5936
1644177649.063018,-0.006714,0.008789,-0.992371,0.205588,0.432366,0.006412,45,273,591,5936
1644177649.109216,-0.009033,0.00946,-0.991272,0.236122,0.294962,-0.115725,58,271,594,5984
1644177649.157544,-0.006287,0.010132,-0.991394,0.144519,0.294962,-0.176794,42,277,593,5904
1644177649.20594,-0.011047,0.009827,-0.989319,0.312458,0.386565,0.052214,52,270,586,5904
1644177649.254341,-0.009644,0.007202,-0.994873,0.205588,0.417099,-0.115725,57,282,582,5888
1644177649.302738,-0.00946,0.009216,-0.991882,0.327725,0.340763,-0.085191,55,269,590,5872
1644177649.351111,-0.006287,0.009644,-0.991638,0.312458,0.310229,-0.100458,53,274,580,5984
1644177649.399472,-0.00946,0.009705,-0.993835,0.175053,0.401832,-0.115725,59,282,586,5888
1644177649.44789,-0.00824,0.009521,-0.98938,0.327725,0.356031,-0.115725,48,271,592,5952
1644177649.49627,-0.00946,0.008301,-0.992676,0.113985,0.356031,-0.14626,51,286,590,5888
1644177649.545082,-0.00647,0.010925,-0.991272,0.297191,0.401832,-0.176794,55,269,592,5952
1644177649.595732,-0.00885,0.013184,-0.99176,0.190321,0.310229,-0.085191,43,274,576,5936
1644177649.645544,-0.01062,0.01178,-0.993591,0.297191,0.340763,-0.069924,52,275,579,5872
1644177649.690623,-0.006714,0.009399,-0.991394,0.144519,0.386565,-0.085191,49,282,591,5872
1644177649.786625,-0.008362,0.009705,-0.990845,0.129252,0.432366,-0.054656,47,285,586,5952
1644177649.835264,-0.008667,0.010864,-0.991821,0.297191,0.356031,-0.161527,46,276,592,5888
1644177649.883465,-0.006653,0.009277,-0.991943,0.190321,0.279695,-0.176794,49,275,584,5840
1644177649.93184,-0.009033,0.009644,-0.989685,0.190321,0.401832,-0.130992,53,271,585,5936
1644177649.980236,-0.010071,0.008301,-0.992493,0.175053,0.371298,-0.14626,54,273,579,5952
1644177650.028617,-0.011047,0.010193,-0.992004,0.312458,0.508702,-0.115725,43,283,580,5936
1644177650.077119,-0.009033,0.013489,-0.990112,0.266656,0.294962,-0.100458,48,281,590,5904
1644177650.125432,-0.009949,0.006409,-0.995422,0.144519,0.462901,-0.14626,54,268,584,5872
1644177650.173779,-0.007568,0.009216,-0.993469,0.220855,0.401832,-0.085191,39,276,580,5936
1644177650.222177,-0.007385,0.009949,-0.993042,0.281924,0.371298,-0.25313,53,276,590,5984
1644177650.27053,-0.007935,0.007629,-0.990784,0.159786,0.447634,-0.085191,51,266,590,5904
1644177650.318921,-0.01123,0.011292,-0.990906,0.190321,0.371298,-0.054656,49,277,582,5952
1644177650.367337,-0.009583,0.010254,-0.99231,0.236122,0.523969,-0.008855,42,270,596,5808
1644177650.415724,-0.008179,0.008545,-0.992188,0.327725,0.493435,-0.25313,58,288,590,5952
1644177650.46412,-0.008972,0.012695,-0.992737,0.46513,0.508702,0.036947,51,271,592,5952
1644177650.512528,-0.008545,0.009155,-0.993347,0.144519,0.279695,-0.085191,51,274,590,5952
1644177650.560878,-0.005981,0.008545,-0.989868,0.388794,0.325496,-0.207328,53,283,590,5904
1644177650.609303,-0.007446,0.009277,-0.991943,0.159786,0.325496,-0.161527,43,264,597,5936
1644177650.657997,-0.010193,0.009521,-0.989319,0.312458,0.386565,-0.115725,35,282,584,5904
1644177650.706895,-0.006348,0.010071,-0.988586,0.068183,0.401832,-0.054656,48,276,578,5952
1644177650.757477,-0.008118,0.008179,-0.990479,0.129252,0.386565,-0.054656,43,269,578,5952
1644177650.807599,-0.010803,0.011719,-0.99292,0.205588,0.340763,-0.024122,38,285,586,5984
1644177650.899681,-0.007141,0.010742,-0.993896,0.159786,0.417099,-0.161527,49,275,582,5984
1644177650.948064,-0.011902,0.008972,-0.994385,0.037649,0.386565,-0.085191,53,271,576,5904
1644177650.996494,-0.005859,0.010193,-0.992126,0.236122,0.539237,-0.008855,38,292,591,5952
1644177651.044875,-0.007446,0.010376,-0.992065,0.205588,0.340763,-0.115725,57,287,586,5936
1644177651.095037,-0.008972,0.009583,-0.990784,0.236122,0.340763,-0.14626,39,271,592,5872
1644177651.141666,-0.012451,0.011658,-0.992249,0.159786,0.218626,-0.115725,54,275,579,5936
1644177651.189979,-0.012939,0.008362,-0.992371,0.175053,0.310229,-0.222595,46,274,590,5904
1644177651.238389,-0.006226,0.008972,-0.993835,0.388794,0.447634,-0.085191,46,274,587,5904
1644177651.286777,-0.008057,0.012085,-0.992676,0.251389,0.340763,-0.207328,48,279,583,5872
1644177651.335256,-0.008301,0.005432,-0.992859,0.251389,0.340763,-0.115725,51,269,587,5936
1644177651.383559,-0.007568,0.00824,-0.992798,0.342992,0.417099,0.021679,55,281,585,5904
1644177651.431946,-0.007446,0.010254,-0.993469,0.175053,0.508702,0.052214,61,285,596,5888
1644177651.480364,-0.009521,0.007141,-0.99054,0.190321,0.447634,-0.085191,46,283,587,5904
1644177651.528737,-0.006653,0.012146,-0.989319,0.220855,0.386565,-0.207328,41,276,590,5840
1644177651.577127,-0.01123,0.007996,-0.990051,0.190321,0.447634,-0.115725,53,269,590,5952
1644177651.625552,-0.00708,0.010864,-0.993286,0.297191,0.310229,-0.054656,49,275,582,5888
1644177651.675804,-0.009277,0.010376,-0.990295,0.129252,0.462901,-0.222595,51,283,580,5872
1644177651.726124,-0.007874,0.011414,-0.991577,0.251389,0.325496,0.067481,47,277,572,5952
1644177651.771199,-0.010254,0.00647,-0.990479,0.159786,0.294962,-0.161527,49,277,584,5952
1644177651.867458,-0.007935,0.008423,-0.992859,0.159786,0.356031,-0.085191,46,288,587,5904
1644177651.91589,-0.009644,0.008911,-0.989807,0.205588,0.508702,-0.054656,55,274,587,5952
1644177651.964306,-0.01001,0.009094,-0.989014,0.266656,0.356031,-0.115725,61,282,582,5904
1644177652.012685,-0.008301,0.010925,-0.993347,0.266656,0.310229,-0.024122,52,275,589,5904
1644177652.062759,-0.009277,0.013306,-0.991089,0.251389,0.386565,-0.115725,48,281,592,5888
1644177652.109475,-0.007935,0.01123,-0.991455,0.251389,0.417099,-0.14626,51,276,583,6016
1644177652.157893,-0.008118,0.009338,-0.989746,0.159786,0.569771,-0.130992,47,277,586,5904
1644177652.206266,-0.009705,0.010742,-0.991638,0.098718,0.386565,-0.14626,51,274,587,5936
1644177652.254735,-0.009705,0.009521,-0.990051,0.175053,0.356031,-0.008855,52,273,596,5904
1644177652.30306,-0.010864,0.008606,-0.991882,0.190321,0.493435,-0.054656,53,281,590,5984
1644177652.351427,-0.008118,0.009705,-0.989929,0.312458,0.432366,0.113282,46,276,592,5904
1644177652.39983,-0.008911,0.007812,-0.989929,0.373527,0.493435,-0.085191,49,280,577,5872
1644177652.448224,-0.010986,0.011292,-0.98877,0.327725,0.401832,-0.115725,49,294,596,5936
1644177652.49662,-0.008484,0.008911,-0.989502,0.129252,0.432366,-0.100458,52,277,586,5952
1644177652.545053,-0.007507,0.013062,-0.98938,0.190321,0.417099,-0.115725,53,264,592,5952
1644177652.5934,-0.010559,0.011108,-0.992371,0.373527,0.554504,-0.008855,53,281,592,5904
1644177652.641778,-0.008911,0.010315,-0.992798,0.327725,0.325496,-0.192061,45,277,586,5904
1644177652.690419,-0.006958,0.009705,-0.992004,0.159786,0.279695,-0.192061,58,274,583,5872
1644177652.738594,-0.007935,0.009583,-0.990601,0.342992,0.294962,-0.069924,43,271,580,5952
1644177652.788848,-0.009216,0.009338,-0.98938,0.251389,0.493435,-0.085191,51,279,590,5936
1644177652.838721,-0.010803,0.009827,-0.991577,0.220855,0.310229,-0.024122,49,270,584,5872
1644177652.889037,-0.008972,0.009888,-0.989868,0.220855,0.447634,-0.161527,36,279,590,5984
1644177652.933533,-0.01178,0.010559,-0.990601,0.266656,0.24916,-0.192061,49,280,582,5872
1644177653.028919,-0.007202,0.00824,-0.99231,0.190321,0.264427,-0.054656,53,276,587,6016
1644177653.077625,-0.009766,0.008606,-0.990906,0.08345,0.294962,-0.024122,51,281,590,5952
1644177653.125659,-0.009644,0.009827,-0.990051,0.037649,0.310229,-0.130992,54,275,575,5904
1644177653.174059,-0.009277,0.008789,-0.98999,0.068183,0.462901,-0.054656,42,273,584,5952
1644177653.222455,-0.008179,0.00946,-0.991577,0.297191,0.310229,-0.237863,45,273,582,5952
1644177653.270819,-0.011047,0.00946,-0.988525,0.281924,0.401832,-0.008855,46,276,578,5872
1644177653.319233,-0.012573,0.008057,-0.990723,0.236122,0.371298,-0.115725,60,281,590,5952
1644177653.367622,-0.007507,0.011963,-0.992859,0.144519,0.356031,0.021679,48,279,594,5936
1644177653.41602,-0.010315,0.007507,-0.991516,0.113985,0.401832,-0.100458,51,281,592,5984
1644177653.464409,-0.010193,0.009766,-0.990051,0.281924,0.447634,-0.130992,45,275,589,5888
1644177653.512793,-0.008118,0.008728,-0.993103,0.159786,0.325496,-0.039389,42,277,584,5952
1644177653.56118,-0.008545,0.009949,-0.989746,0.281924,0.325496,-0.161527,49,277,577,5936
1644177653.609601,-0.009521,0.012268,-0.989502,0.190321,0.264427,-0.100458,47,273,582,5952
1644177653.657971,-0.01123,0.011658,-0.98999,0.220855,0.356031,-0.283664,49,275,572,5904
1644177653.706379,-0.009155,0.009094,-0.989258,0.251389,0.371298,-0.100458,47,282,591,5872
1644177653.754734,-0.010925,0.013733,-0.991394,0.144519,0.356031,-0.329466,49,285,589,5952
1644177653.803188,-0.00946,0.011108,-0.992188,0.388794,0.401832,-0.314198,42,273,584,5936
1644177653.851571,-0.007324,0.012451,-0.989868,0.434595,0.462901,-0.008855,49,273,586,5888
1644177653.899958,-0.010925,0.008972,-0.991211,0.281924,0.325496,-0.024122,54,275,579,5984
1644177653.949838,-0.007202,0.010132,-0.992371,0.220855,0.417099,-0.14626,45,275,591,5936
1644177653.999983,-0.009155,0.011047,-0.994202,0.281924,0.325496,-0.054656,48,276,592,5952
1644177654.093793,-0.007141,0.010803,-0.992432,0.342992,0.401832,0.052214,55,269,585,5936
1644177654.141854,-0.00708,0.009644,-0.993408,0.312458,0.356031,-0.207328,49,268,589,5936
1644177654.190276,-0.010803,0.011719,-0.990356,0.342992,0.447634,-0.069924,58,281,585,5952
1644177654.238674,-0.007019,0.009521,-0.992798,0.175053,0.386565,-0.176794,49,275,589,5904
1644177654.287035,-0.010864,0.008789,-0.993225,0.175053,0.478168,-0.161527,49,287,579,5936
1644177654.335438,-0.010254,0.010193,-0.99231,0.159786,0.401832,-0.100458,49,273,577,5904
1644177654.383849,-0.009644,0.010254,-0.989319,0.175053,0.401832,0.098015,40,275,584,5952
1644177654.43226,-0.010193,0.010315,-0.991943,0.266656,0.325496,-0.085191,54,270,586,5904
1644177654.480625,-0.008789,0.01239,-0.992188,0.297191,0.478168,-0.085191,49,277,579,5872
1644177654.529029,-0.01001,0.009399,-0.992798,0.342992,0.325496,-0.100458,54,282,589,5888
1644177654.577436,-0.008301,0.011902,-0.990479,0.297191,0.401832,-0.176794,47,270,584,5904
1644177654.625811,-0.008423,0.009827,-0.991882,0.327725,0.432366,-0.115725,52,270,589,5936
1644177654.674215,-0.007324,0.010498,-0.993103,0.113985,0.432366,-0.161527,34,264,576,5984
1644177654.722585,-0.009033,0.010559,-0.993958,0.342992,0.325496,-0.161527,59,268,577,5936
1644177654.770941,-0.009094,0.010376,-0.989807,0.251389,0.371298,-0.14626,46,274,585,5888
1644177654.819405,-0.008362,0.011963,-0.992126,0.236122,0.462901,-0.024122,45,275,584,5984
1644177654.867809,-0.006714,0.007996,-0.992249,0.251389,0.493435,-0.085191,51,281,585,5952
1644177654.916535,-0.00647,0.01178,-0.991455,0.220855,0.264427,-0.100458,45,277,589,5936
1644177654.964924,-0.006531,0.011963,-0.990967,0.205588,0.325496,-0.192061,42,280,582,5984
1644177655.014766,-0.008301,0.007874,-0.992798,0.297191,0.523969,-0.039389,47,277,586,5952
1644177655.109676,-0.008606,0.008057,-0.991394,0.297191,0.356031,-0.344733,48,276,580,5952
1644177655.158089,-0.00708,0.010071,-0.990906,0.297191,0.478168,-0.054656,45,277,579,5904
1644177655.206476,-0.00708,0.012512,-0.991882,0.236122,0.569771,-0.130992,48,269,583,5952
1644177655.254891,-0.007263,0.010498,-0.989502,0.281924,0.310229,-0.085191,46,276,587,5872
1644177655.303295,-0.00708,0.013,-0.98999,0.419328,0.462901,-0.222595,54,263,586,5936
1644177655.351681,-0.008301,0.007935,-0.990723,0.144519,0.447634,0.006412,54,273,577,5872
1644177655.40007,-0.006287,0.011353,-0.990601,0.251389,0.386565,0.052214,52,270,584,5904
1644177655.448488,-0.006104,0.010437,-0.99292,0.327725,0.386565,-0.085191,38,270,586,5952
1644177655.496853,-0.006653,0.009338,-0.990662,0.297191,0.401832,-0.161527,42,275,591,5984
1644177655.545295,-0.008423,0.006714,-0.993958,0.35826,0.279695,-0.039389,49,268,582,5952
1644177655.593643,-0.007446,0.009888,-0.988892,0.159786,0.325496,-0.25313,51,271,587,5904
1644177655.642037,-0.008484,0.011353,-0.993164,0.236122,0.356031,-0.115725,43,274,580,5936
1644177655.69042,-0.009766,0.008606,-0.993164,0.342992,0.340763,0.036947,47,280,598,5872
1644177655.738817,-0.006775,0.012878,-0.989685,0.251389,0.462901,-0.054656,45,277,586,5952
1644177655.7872,-0.009949,0.00885,-0.991577,0.281924,0.386565,-0.283664,46,281,583,5904
1644177655.835638,-0.008423,0.011963,-0.99176,0.113985,0.386565,-0.115725,55,279,578,5888
1644177655.884039,-0.006958,0.010559,-0.992188,0.129252,0.478168,-0.085191,47,277,582,5952
1644177655.93244,-0.009277,0.011536,-0.991638,0.205588,0.417099,-0.176794,45,287,584,5904
1644177655.980834,-0.008972,0.009705,-0.989136,0.236122,0.386565,-0.14626,47,282,589,5952
1644177656.029994,-0.010742,0.012451,-0.991821,0.205588,0.294962,-0.054656,51,281,585,5904
1644177656.085356,-0.007568,0.009521,-0.991272,0.281924,0.401832,-0.054656,45,277,596,5888
1644177656.13107,-0.010742,0.01001,-0.992371,0.236122,0.356031,-0.085191,53,279,585,5904
1644177656.174533,-0.00769,0.009888,-0.991455,0.297191,0.432366,-0.14626,52,273,589,5952
1644177656.271112,-0.008667,0.010498,-0.990479,0.266656,0.294962,-0.024122,52,277,586,5936
1644177656.319496,-0.008423,0.010254,-0.991028,0.098718,0.386565,-0.115725,48,276,578,5888
1644177656.367897,-0.01001,0.010071,-0.990845,0.251389,0.386565,-0.192061,46,269,578,5952
1644177656.41629,-0.011108,0.00824,-0.990601,0.068183,0.417099,0.021679,60,286,578,5872
1644177656.464698,-0.010254,0.009827,-0.990234,0.419328,0.294962,-0.115725,46,269,580,5952
1644177656.513099,-0.008118,0.007629,-0.99115,0.220855,0.386565,-0.100458,51,266,576,5888
1644177656.56148,-0.009155,0.011292,-0.991638,0.342992,0.218626,-0.14626,51,271,583,5984
1644177656.609867,-0.010925,0.009399,-0.990906,0.175053,0.478168,0.052214,59,273,584,5952
1644177656.658251,-0.009277,0.008423,-0.990356,0.281924,0.462901,-0.100458,38,280,572,6048
1644177656.706647,-0.007874,0.009644,-0.992188,0.175053,0.356031,-0.069924,43,279,583,5936
1644177656.755218,-0.008057,0.011841,-0.991882,-0.008153,0.279695,-0.130992,52,270,582,5904
1644177656.803415,-0.009521,0.008301,-0.989502,0.281924,0.264427,-0.085191,52,270,591,5952
1644177656.85188,-0.00885,0.008972,-0.992126,0.205588,0.310229,-0.130992,52,275,586,6048
1644177656.900256,-0.009705,0.010132,-0.993774,0.281924,0.340763,-0.14626,45,277,570,5888
1644177656.948644,-0.007019,0.009583,-0.991943,0.190321,0.356031,-0.085191,49,282,596,5984
1644177656.997035,-0.007996,0.007812,-0.98999,0.297191,0.371298,0.082748,51,281,580,5952
1644177657.060059,-0.009644,0.009399,-0.992554,0.281924,0.432366,-0.115725,39,283,587,5904
1644177657.098424,-0.007935,0.006958,-0.993103,0.281924,0.447634,-0.14626,47,270,582,5984
1644177657.142222,-0.006104,0.01416,-0.989807,0.175053,0.356031,-0.100458,46,281,573,5936
1644177657.190655,-0.00708,0.01001,-0.991394,0.098718,0.554504,-0.054656,45,273,591,5952
1644177657.241617,-0.005981,0.011719,-0.992615,0.159786,0.386565,-0.161527,42,285,584,5936
1644177657.291522,-0.011841,0.01062,-0.988647,0.449863,0.386565,-0.207328,57,280,598,5904
1644177657.336566,-0.010193,0.009277,-0.992004,0.297191,0.371298,-0.176794,43,269,578,5840
1644177657.432544,-0.010315,0.008972,-0.992126,0.159786,0.462901,-0.115725,51,276,585,5888
1644177657.480892,-0.010803,0.009644,-0.991821,0.297191,0.356031,-0.298931,41,274,590,5984
1644177657.529313,-0.011536,0.010986,-0.991455,0.419328,0.340763,-0.161527,55,271,583,5904
1644177657.577687,-0.007874,0.013,-0.993774,0.175053,0.554504,-0.100458,55,281,576,5904
1644177657.626084,-0.010925,0.010803,-0.991882,0.297191,0.386565,-0.069924,49,282,591,5984
1644177657.674484,-0.010376,0.008606,-0.989563,0.220855,0.462901,0.067481,45,280,584,5904
1644177657.722878,-0.007446,0.007019,-0.993469,0.297191,0.447634,-0.176794,45,275,579,5952
1644177657.771264,-0.007202,0.008972,-0.990845,0.220855,0.310229,-0.085191,42,282,577,5872
1644177657.819661,-0.007935,0.009705,-0.993469,0.251389,0.447634,-0.008855,40,277,579,5936
1644177657.868095,-0.011108,0.010925,-0.990356,0.236122,0.447634,-0.115725,55,279,592,5984
1644177657.916485,-0.009521,0.012024,-0.991516,0.159786,0.417099,-0.115725,52,275,577,5824
1644177657.96489,-0.007507,0.009033,-0.993103,0.159786,0.371298,-0.085191,41,271,590,5952
1644177658.013258,-0.008667,0.007751,-0.993835,0.159786,0.615573,-0.268397,61,275,596,5904
1644177658.069082,-0.009644,0.011108,-0.991333,0.266656,0.310229,-0.25313,48,281,594,5888
1644177658.110065,-0.007263,0.011108,-0.989685,0.312458,0.478168,-0.100458,48,279,587,5904
1644177658.158402,-0.008484,0.006836,-0.99231,0.373527,0.417099,-0.25313,52,282,586,5984
1644177658.20679,-0.006897,0.010559,-0.991089,0.342992,0.493435,-0.176794,46,279,576,5904
1644177658.255211,-0.009888,0.010681,-0.991699,0.236122,0.386565,-0.130992,47,275,591,5872
1644177658.303575,-0.010559,0.005554,-0.990845,0.297191,0.523969,-0.115725,43,279,590,5904
1644177658.352324,-0.010803,0.008728,-0.990784,0.190321,0.325496,-0.14626,46,276,580,5904
1644177658.402828,-0.008911,0.011353,-0.992004,0.220855,0.417099,-0.115725,45,268,586,5936
1644177658.453195,-0.01123,0.009644,-0.992371,0.175053,0.462901,-0.069924,59,270,577,5984
1644177658.498266,-0.008362,0.008728,-0.992981,0.08345,0.356031,-0.024122,45,280,589,5888
1644177658.593934,-0.007141,0.009338,-0.992188,0.312458,0.356031,-0.054656,43,274,576,5872
1644177658.642404,-0.008484,0.007812,-0.991577,0.190321,0.447634,-0.069924,51,274,587,5904
1644177658.6907,-0.010498,0.007935,-0.991272,0.312458,0.340763,-0.039389,43,281,583,5888
1644177658.739088,-0.009277,0.009949,-0.991333,0.266656,0.462901,-0.085191,48,274,583,5936
1644177658.78748,-0.011536,0.012573,-0.991821,0.037649,0.493435,-0.161527,49,285,589,5904
1644177658.835871,-0.009338,0.011658,-0.992737,0.205588,0.386565,-0.100458,54,280,586,5888
1644177658.884324,-0.009827,0.01123,-0.993347,0.236122,0.508702,-0.054656,55,281,580,5984
1644177658.932734,-0.009521,0.008667,-0.990845,0.266656,0.478168,-0.14626,52,277,586,5872
1644177658.981095,-0.008728,0.010315,-0.991394,0.159786,0.508702,-0.085191,38,275,575,5904
1644177659.02949,-0.011963,0.007141,-0.991882,0.342992,0.478168,-0.008855,49,280,582,5872
1644177659.083795,-0.008667,0.010559,-0.990051,0.159786,0.493435,-0.130992,47,282,577,5872
1644177659.126288,-0.007629,0.011353,-0.991943,0.342992,0.478168,-0.14626,43,281,587,5872
1644177659.174759,-0.006836,0.01239,-0.991699,0.251389,0.478168,-0.069924,53,276,576,5984
1644177659.223027,-0.011108,0.007019,-0.990845,0.220855,0.401832,-0.069924,48,281,597,5904
1644177659.271721,-0.008728,0.009644,-0.991028,0.113985,0.356031,-0.115725,52,277,589,5952
1644177659.322459,-0.010315,0.010925,-0.992798,0.266656,0.24916,-0.054656,38,275,577,5952
1644177659.372699,-0.007324,0.008545,-0.993835,0.297191,0.203359,-0.085191,46,274,587,5872
1644177659.417723,-0.007751,0.010254,-0.991821,0.220855,0.371298,-0.100458,52,287,591,5904
1644177659.513375,-0.009644,0.008972,-0.987976,0.159786,0.493435,-0.024122,45,277,577,5872
1644177659.561788,-0.010254,0.010559,-0.99115,0.129252,0.371298,-0.176794,49,277,584,5984
1644177659.610134,-0.009033,0.008118,-0.99054,0.205588,0.356031,-0.25313,41,276,583,5936
1644177659.658544,-0.007324,0.012451,-0.993469,0.113985,0.478168,-0.130992,47,273,591,5952
1644177659.706922,-0.011108,0.006836,-0.990845,0.312458,0.478168,-0.024122,45,268,591,5904
1644177659.755313,-0.012268,0.01001,-0.989197,0.205588,0.401832,-0.024122,49,273,579,5984
1644177659.803697,-0.007812,0.01001,-0.99176,0.266656,0.401832,-0.100458,53,276,583,5904
1644177659.852163,-0.010498,0.011169,-0.992737,0.129252,0.401832,-0.237863,40,282,579,5872
1644177659.900552,-0.009644,0.010254,-0.994934,0.129252,0.294962,-0.039389,51,283,585,5936
1644177659.948945,-0.008484,0.00592,-0.994568,0.113985,0.478168,-0.100458,51,279,576,5936
1644177659.997336,-0.01001,0.009277,-0.995605,0.144519,0.432366,-0.100458,52,282,582,5984
1644177660.045724,-0.010803,0.008362,-0.990601,0.08345,0.264427,-0.176794,57,277,584,5904
1644177660.095646,-0.009033,0.01123,-0.992004,0.144519,0.356031,-0.192061,54,282,589,5872
1644177660.142509,-0.009338,0.00708,-0.993774,0.327725,0.417099,-0.085191,51,281,578,5888
1644177660.190881,-0.010071,0.011414,-0.992004,0.281924,0.264427,-0.069924,55,274,585,5952
1644177660.239282,-0.009583,0.005859,-0.992065,0.236122,0.523969,-0.024122,53,281,590,5952
1644177660.287673,-0.010376,0.010925,-0.990234,0.281924,0.340763,-0.161527,39,286,583,5888
1644177660.336101,-0.00531,0.009766,-0.991028,0.098718,0.310229,-0.008855,57,277,577,5888
1644177660.384797,-0.008789,0.01062,-0.992798,0.129252,0.356031,0.113282,55,279,583,5952
1644177660.43533,-0.010376,0.009644,-0.99292,0.373527,0.401832,-0.176794,48,276,587,5904
1644177660.485648,-0.009766,0.009949,-0.993164,0.312458,0.508702,-0.130992,49,270,591,5952
1644177660.530242,-0.009949,0.01062,-0.992065,0.35826,0.447634,-0.024122,54,287,589,5888
1644177660.626395,-0.011475,0.01001,-0.990845,0.190321,0.401832,-0.085191,54,287,579,5936
1644177660.674896,-0.012085,0.008911,-0.994019,0.281924,0.356031,-0.192061,55,281,583,5952
1644177660.72326,-0.009399,0.010437,-0.98999,0.159786,0.356031,-0.085191,62,283,578,5872
1644177660.771584,-0.006714,0.009155,-0.994568,0.312458,0.462901,-0.085191,53,291,587,5872
1644177660.819984,-0.010071,0.008911,-0.993103,0.052916,0.325496,-0.115725,47,277,589,5984
1644177660.868375,-0.009888,0.006714,-0.99231,0.342992,0.371298,-0.085191,53,276,578,5984
1644177660.916778,-0.008606,0.009155,-0.990967,0.113985,0.447634,-0.161527,45,275,586,5952
1644177660.965265,-0.011353,0.008972,-0.992371,0.144519,0.371298,-0.25313,43,279,587,5904
1644177661.013539,-0.008118,0.009399,-0.993896,0.220855,0.371298,-0.024122,54,273,575,5904
1644177661.066197,-0.00824,0.007507,-0.991455,0.129252,0.356031,-0.024122,57,282,589,5984
1644177661.11025,-0.010498,0.011658,-0.990356,0.266656,0.386565,-0.054656,55,276,583,5952
1644177661.158693,-0.009949,0.008484,-0.991943,0.236122,0.462901,-0.039389,49,282,579,5952
1644177661.207075,-0.011719,0.009399,-0.994263,0.342992,0.493435,-0.008855,52,285,582,6000
1644177661.25545,-0.008545,0.00946,-0.992859,0.251389,0.432366,-0.298931,49,282,579,5984
1644177661.303857,-0.00824,0.010681,-0.98938,0.220855,0.340763,-0.024122,49,292,575,5936
1644177661.352271,-0.011658,0.00885,-0.990662,0.220855,0.401832,-0.115725,54,270,577,5904
1644177661.400644,-0.010681,0.007874,-0.992676,0.297191,0.462901,-0.085191,55,271,583,5936
1644177661.449033,-0.00946,0.009094,-0.989807,0.236122,0.462901,-0.100458,51,279,597,5952
1644177661.497747,-0.010132,0.007874,-0.99115,0.251389,0.310229,0.067481,42,280,579,5936
1644177661.54589,-0.00824,0.009338,-0.993347,0.266656,0.432366,-0.207328,45,273,591,5952
1644177661.596328,-0.012024,0.010254,-0.994507,0.129252,0.294962,-0.176794,47,270,593,5984
1644177661.646574,-0.012939,0.009888,-0.991089,0.35826,0.371298,0.021679,42,285,582,5952
1644177661.691664,-0.012512,0.006165,-0.990967,0.312458,0.371298,-0.176794,42,273,589,5872
1644177661.78776,-0.010986,0.009888,-0.988586,0.251389,0.386565,-0.237863,45,275,584,5936
1644177661.836187,-0.007935,0.009949,-0.988953,0.08345,0.432366,-0.085191,45,275,579,5872
1644177661.88488,-0.00885,0.008179,-0.991394,0.449863,0.340763,-0.069924,48,269,585,5984
1644177661.932979,-0.01001,0.011353,-0.98822,0.037649,0.203359,0.036947,52,277,591,5936
1644177661.981386,-0.01001,0.009888,-0.991089,0.175053,0.401832,0.006412,55,281,590,5936
1644177662.02978,-0.00946,0.008301,-0.991455,0.220855,0.264427,-0.14626,49,277,579,5888
1644177662.086157,-0.009949,0.010437,-0.992615,0.35826,0.386565,-0.237863,51,281,580,5904
1644177662.126513,-0.013,0.008728,-0.992188,0.129252,0.310229,-0.115725,41,276,590,5952
1644177662.174897,-0.010193,0.009521,-0.98999,0.236122,0.432366,-0.130992,49,285,589,5952
1644177662.223305,-0.009827,0.009705,-0.993286,0.342992,0.401832,-0.024122,52,285,582,5904
1644177662.271663,-0.008911,0.007751,-0.990601,0.495664,0.523969,0.036947,53,274,587,5872
1644177662.320359,-0.010254,0.009705,-0.991821,0.113985,0.585038,-0.115725,45,277,579,5936
1644177662.368514,-0.012817,0.009888,-0.989502,0.205588,0.371298,-0.161527,49,268,582,5840
1644177662.419724,-0.009277,0.010315,-0.991699,0.251389,0.325496,-0.161527,43,279,583,5872
1644177662.469071,-0.007935,0.008362,-0.993042,0.281924,0.478168,-0.024122,47,275,584,5872
1644177662.514026,-0.00824,0.010315,-0.990967,0.220855,0.539237,-0.008855,58,276,585,5936
1644177662.610424,-0.009399,0.008484,-0.990173,0.220855,0.401832,0.036947,47,270,584,5984
1644177662.658802,-0.008484,0.007141,-0.991577,0.220855,0.462901,-0.054656,54,280,579,5984
1644177662.707213,-0.011169,0.008118,-0.990784,0.404061,0.478168,0.036947,48,281,585,5904
1644177662.755581,-0.005493,0.007996,-0.991089,0.175053,0.401832,0.067481,62,274,583,5904
1644177662.804015,-0.009216,0.007263,-0.990112,0.35826,0.401832,0.036947,47,280,584,5936
1644177662.852448,-0.009644,0.010742,-0.993225,0.373527,0.279695,-0.054656,47,270,582,5984
1644177662.900833,-0.00769,0.007996,-0.991272,0.266656,0.417099,0.036947,48,274,592,5984
1644177662.949203,-0.010315,0.008667,-0.991455,0.205588,0.264427,-0.237863,54,275,575,5984
1644177662.997583,-0.008423,0.009033,-0.992859,0.159786,0.478168,-0.115725,55,274,585,5936
1644177663.062653,-0.009521,0.009277,-0.992004,0.236122,0.386565,0.006412,53,283,585,5904
1644177663.099604,-0.010803,0.008972,-0.993225,0.251389,0.493435,-0.024122,53,274,592,5936
1644177663.142774,-0.012146,0.006042,-0.992126,0.159786,0.310229,-0.176794,52,282,586,5888
1644177663.191137,-0.009277,0.009827,-0.99231,0.236122,0.508702,-0.069924,53,276,585,5904
1644177663.239535,-0.011108,0.008057,-0.991211,0.297191,0.462901,-0.039389,46,283,587,5952
1644177663.287923,-0.010498,0.009338,-0.99176,0.129252,0.401832,-0.100458,45,275,582,5888
1644177663.336471,-0.009399,0.009216,-0.992493,0.175053,0.356031,-0.024122,45,277,586,5952
1644177663.385048,-0.008118,0.010498,-0.99292,0.35826,0.615573,-0.085191,55,271,583,5904
1644177663.433871,-0.009155,0.008606,-0.990845,0.190321,0.386565,-0.100458,41,276,585,5904
1644177663.483958,-0.007996,0.007812,-0.992065,0.068183,0.447634,-0.100458,51,274,583,5904
1644177663.534012,-0.010925,0.008484,-0.992065,0.35826,0.508702,-0.100458,51,279,578,5904
1644177663.579172,-0.006287,0.007996,-0.991028,0.236122,0.417099,-0.115725,48,288,566,5904
1644177663.675315,-0.011597,0.009216,-0.992554,0.236122,0.356031,-0.008855,51,271,583,5888
1644177663.723454,-0.009644,0.010864,-0.993347,0.175053,0.417099,-0.237863,58,266,583,5952
1644177663.771836,-0.009766,0.010803,-0.990417,0.205588,0.432366,-0.039389,59,268,584,5984
1644177663.820222,-0.007568,0.008423,-0.989868,0.266656,0.356031,-0.14626,39,271,587,5904
1644177663.868652,-0.008179,0.009949,-0.990295,0.373527,0.447634,-0.130992,51,271,585,5872
1644177663.917046,-0.009766,0.007385,-0.994141,0.373527,0.569771,-0.085191,46,266,583,5984
1644177663.965445,-0.010498,0.010803,-0.991272,0.327725,0.294962,-0.008855,48,276,580,5904
1644177664.013828,-0.011414,0.009155,-0.991577,0.251389,0.539237,-0.054656,40,282,584,5904
1644177664.062369,-0.008728,0.007324,-0.992065,0.205588,0.371298,-0.039389,47,280,586,5872
1644177664.110555,-0.012329,0.009766,-0.991699,0.068183,0.462901,-0.069924,53,276,585,5984
1644177664.158977,-0.009583,0.00946,-0.992432,0.037649,0.325496,-0.039389,40,277,579,5904
1644177664.20734,-0.01001,0.005798,-0.993347,0.220855,0.523969,0.036947,42,277,582,5904
1644177664.255764,-0.009644,0.01062,-0.993896,0.037649,0.386565,-0.085191,39,276,580,5888
1644177664.304154,-0.006531,0.012451,-0.991516,0.266656,0.401832,-0.222595,55,281,583,5904
1644177664.352554,-0.010864,0.009949,-0.992554,0.266656,0.233893,-0.176794,51,276,590,5904
1644177664.400932,-0.006104,0.008789,-0.994324,0.342992,0.340763,-0.176794,52,273,577,5872
1644177664.449297,-0.008362,0.008789,-0.989441,0.327725,0.417099,-0.161527,49,280,582,5952
1644177664.497681,-0.010498,0.008789,-0.993835,0.281924,0.356031,0.021679,45,280,579,5888
1644177664.546103,-0.008118,0.00824,-0.996216,0.434595,0.478168,-0.039389,53,276,587,5952
1644177664.594536,-0.007996,0.010132,-0.989929,0.236122,0.447634,-0.054656,48,271,585,5984
1644177664.644951,-0.008362,0.012268,-0.992432,0.220855,0.264427,-0.161527,47,273,589,5952
1644177664.69534,-0.00647,0.008667,-0.991638,0.297191,0.508702,-0.069924,47,275,584,5984
1644177664.740284,-0.008728,0.009888,-0.990295,0.175053,0.356031,-0.161527,48,276,578,5904
1644177664.836445,-0.01001,0.011536,-0.992859,0.220855,0.417099,-0.161527,45,282,584,5936
1644177664.884904,-0.009705,0.008423,-0.993225,0.266656,0.325496,-0.024122,48,274,587,5984
1644177664.933287,-0.009644,0.010498,-0.991455,0.236122,0.325496,-0.161527,47,273,586,6000
1644177664.981664,-0.008972,0.009644,-0.991821,0.144519,0.493435,-0.024122,49,282,575,5936
1644177665.030039,-0.010498,0.009155,-0.991455,0.281924,0.447634,-0.054656,46,276,576,5872
1644177665.078576,-0.007568,0.012085,-0.988342,0.205588,0.432366,-0.085191,47,275,600,5952
1644177665.12684,-0.008972,0.007385,-0.991272,0.220855,0.356031,-0.100458,47,270,579,5904
1644177665.175195,-0.008728,0.008972,-0.992371,0.220855,0.371298,-0.069924,59,265,577,5904
1644177665.223587,-0.009094,0.009766,-0.992188,0.251389,0.401832,-0.115725,54,282,589,5888
1644177665.271948,-0.010803,0.010071,-0.989075,0.404061,0.356031,-0.100458,53,281,580,5904
1644177665.320371,-0.008118,0.009155,-0.993103,0.113985,0.294962,-0.008855,47,273,584,5936
1644177665.368761,-0.009521,0.01123,-0.98999,0.08345,0.356031,-0.085191,38,273,582,5952
1644177665.41716,-0.009521,0.007935,-0.98938,0.220855,0.386565,-0.008855,43,276,587,5936
1644177665.465527,-0.006104,0.011169,-0.991577,0.297191,0.447634,-0.008855,49,280,593,5904
1644177665.513919,-0.010071,0.010437,-0.99231,0.220855,0.310229,-0.085191,53,279,583,5952
1644177665.562336,-0.008789,0.01001,-0.993774,0.327725,0.539237,-0.207328,55,283,592,5984
1644177665.610722,-0.008484,0.010376,-0.993347,0.281924,0.310229,-0.207328,51,279,578,5952
1644177665.659114,-0.008972,0.010254,-0.990417,0.220855,0.279695,0.006412,54,277,586,5936
1644177665.707499,-0.009888,0.010132,-0.990234,0.404061,0.371298,-0.207328,53,281,583,5888
1644177665.755921,-0.007874,0.012695,-0.992126,0.113985,0.462901,-0.176794,45,280,593,5904
1644177665.806619,-0.005493,0.00769,-0.992249,0.327725,0.462901,0.036947,47,277,593,6016
1644177665.856812,-0.010986,0.009644,-0.990662,0.129252,0.478168,-0.192061,55,279,590,5904
1644177665.902009,-0.008423,0.007935,-0.993103,0.312458,0.585038,0.006412,55,271,573,5936
1644177665.99789,-0.013306,0.009277,-0.994141,0.373527,0.340763,-0.14626,57,282,579,5888
1644177666.056124,-0.010376,0.011963,-0.993896,0.144519,0.386565,-0.130992,54,275,577,5888
1644177666.097406,-0.009033,0.009705,-0.990479,0.281924,0.523969,-0.130992,54,280,572,5984
1644177666.143104,-0.010376,0.00946,-0.992981,0.144519,0.325496,-0.207328,49,282,591,5904
1644177666.191439,-0.00946,0.008423,-0.990845,0.205588,0.432366,-0.161527,51,276,583,5904
1644177666.239819,-0.009521,0.009521,-0.993774,0.220855,0.371298,-0.069924,42,275,577,5936
1644177666.288207,-0.011475,0.007996,-0.992859,0.236122,0.356031,-0.039389,46,276,590,5952
1644177666.336601,-0.011597,0.009216,-0.99115,0.129252,0.432366,-0.237863,39,271,583,5872
1644177666.385036,-0.008667,0.010132,-0.987976,0.342992,0.432366,-0.100458,55,279,587,5952
1644177666.433383,-0.011047,0.00769,-0.992126,0.220855,0.447634,-0.176794,46,264,594,5936
1644177666.48177,-0.009216,0.009827,-0.99353,0.190321,0.294962,-0.176794,46,271,587,6000
1644177666.530168,-0.009949,0.009216,-0.991699,0.251389,0.417099,-0.176794,48,269,587,5904
1644177666.578701,-0.008606,0.010803,-0.993225,0.297191,0.447634,-0.024122,58,280,582,5888
1644177666.629206,-0.009766,0.008118,-0.993103,0.037649,0.600305,-0.100458,46,269,590,5952
1644177666.679721,-0.009521,0.010071,-0.991943,0.220855,0.356031,-0.008855,46,276,583,5952
1644177666.724358,-0.011597,0.007935,-0.991882,0.175053,0.340763,-0.192061,47,273,577,5936
1644177666.820521,-0.010193,0.010437,-0.990112,0.251389,0.493435,0.021679,48,283,585,5952
1644177666.868887,-0.009399,0.010315,-0.991821,0.327725,0.417099,-0.115725,51,283,583,5936
1644177666.917336,-0.012512,0.009338,-0.990967,0.327725,0.478168,-0.130992,51,266,580,6000
1644177666.965714,-0.012573,0.011536,-0.993408,0.297191,0.340763,-0.115725,51,269,587,5936
1644177667.01413,-0.006714,0.009949,-0.991577,0.175053,0.340763,0.006412,42,273,586,5936
1644177667.068369,-0.013428,0.010559,-0.992249,0.327725,0.417099,-0.085191,55,271,583,5936
1644177667.110879,-0.011658,0.011108,-0.993652,0.190321,0.401832,-0.14626,45,282,582,5888
1644177667.159261,-0.00824,0.008667,-0.992432,0.46513,0.462901,-0.054656,43,269,583,5936
1644177667.207697,-0.009888,0.010559,-0.99054,0.266656,0.401832,-0.176794,47,275,591,5952
1644177667.256079,-0.010376,0.010864,-0.992126,0.205588,0.340763,-0.100458,42,285,584,5872
