epoch,acc_x,acc_y,acc_z,rot_x,rot_y,rot_z,mag_x,mag_y,mag_z,temp
1644172800.055298,-0.010742,0.009338,-0.98999,0.098718,0.523969,0.006412,49,282,572,5696
1644172800.094976,-0.012268,0.008545,-0.991577,0.220855,0.417099,0.036947,58,279,590,5728
1644172800.139569,-0.009338,0.007935,-0.992065,0.388794,0.356031,-0.14626,43,279,573,5664
1644172800.187955,-0.009521,0.008301,-0.990845,0.312458,0.615573,-0.069924,49,273,572,5728
1644172800.236348,-0.008545,0.010254,-0.99054,0.129252,0.310229,-0.024122,58,266,583,5760
1644172800.284716,-0.01001,0.011108,-0.991577,0.266656,0.356031,-0.192061,42,277,572,5696
1644172800.333147,-0.009216,0.011108,-0.991516,0.312458,0.493435,-0.161527,48,271,573,5696
1644172800.381519,-0.011414,0.00824,-0.991211,0.098718,0.279695,0.006412,54,265,575,5712
1644172800.429923,-0.009949,0.009033,-0.99115,0.236122,0.432366,-0.054656,52,265,577,5808
1644172800.478267,-0.012573,0.009766,-0.992981,0.113985,0.508702,-0.008855,47,280,575,5696
1644172800.526691,-0.008179,0.010193,-0.99176,0.281924,0.493435,-0.115725,60,276,583,5712
1644172800.57512,-0.01123,0.011841,-0.991028,0.205588,0.462901,-0.024122,47,280,568,5696
1644172800.623807,-0.008972,0.01239,-0.991577,0.342992,0.401832,-0.100458,45,275,577,5808
1644172800.672469,-0.011475,0.011414,-0.988708,0.144519,0.462901,-0.069924,43,276,580,5696
1644172800.723003,-0.013123,0.00946,-0.990845,0.113985,0.600305,-0.130992,55,269,578,5664
1644172800.773209,-0.01062,0.010132,-0.992676,0.297191,0.279695,0.098015,52,263,579,5776
1644172800.81914,-0.00885,0.008057,-0.992004,0.327725,0.401832,-0.14626,48,274,578,5728
1644172800.913867,-0.008362,0.01062,-0.991211,0.236122,0.447634,-0.115725,58,283,590,5696
1644172800.962426,-0.009155,0.009399,-0.993591,0.281924,0.386565,-0.222595,49,270,589,5696
1644172801.010623,-0.011108,0.010681,-0.992493,0.205588,0.508702,-0.176794,61,277,577,5664
1644172801.063244,-0.008545,0.007629,-0.991821,0.190321,0.371298,-0.130992,45,270,584,5728
1644172801.107385,-0.010681,0.008301,-0.992615,0.175053,0.432366,-0.130992,54,265,577,5712
1644172801.155775,-0.012878,0.009705,-0.992676,0.251389,0.447634,-0.14626,57,277,575,5664
1644172801.204173,-0.010071,0.008423,-0.990356,0.159786,0.188092,-0.085191,59,277,579,5696
1644172801.252625,-0.010071,0.011414,-0.989685,0.144519,0.447634,-0.192061,53,264,576,5696
1644172801.300944,-0.010132,0.007812,-0.99054,0.175053,0.401832,0.052214,42,282,572,5696
1644172801.349338,-0.009094,0.008606,-0.993591,0.312458,0.447634,-0.176794,41,274,587,5760
1644172801.397738,-0.010498,0.011841,-0.989441,0.266656,0.417099,-0.039389,55,274,585,5696
1644172801.446125,-0.008667,0.012207,-0.993896,0.159786,0.462901,-0.130992,52,268,579,5600
1644172801.494528,-0.008911,0.011414,-0.992615,0.35826,0.569771,0.006412,47,282,570,5696
1644172801.542916,-0.009155,0.010803,-0.991577,0.113985,0.432366,0.006412,53,276,580,5712
1644172801.591284,-0.009888,0.010925,-0.991943,0.113985,0.493435,-0.054656,51,271,573,5760
1644172801.639669,-0.011047,0.005981,-0.993713,0.373527,0.417099,-0.069924,48,269,580,5664
1644172801.688282,-0.013733,0.009705,-0.990173,0.251389,0.523969,0.036947,54,280,575,5728
1644172801.738866,-0.011414,0.010193,-0.991516,0.266656,0.523969,-0.069924,49,277,570,5728
1644172801.788978,-0.010193,0.007874,-0.99115,0.220855,0.401832,-0.039389,52,265,579,5664
1644172801.834031,-0.011047,0.008606,-0.992371,0.297191,0.478168,-0.176794,55,281,569,5696
1644172801.930063,-0.01062,0.011658,-0.99115,0.220855,0.493435,-0.100458,48,274,571,5712
1644172801.978457,-0.008179,0.008667,-0.990601,0.220855,0.417099,-0.069924,49,285,577,5728
1644172802.026859,-0.011902,0.008911,-0.990234,0.175053,0.417099,-0.085191,46,276,573,5696
1644172802.07539,-0.010559,0.01178,-0.990356,0.129252,0.508702,-0.161527,52,275,579,5696
1644172802.123644,-0.009338,0.011292,-0.990051,0.190321,0.462901,-0.176794,48,281,580,5808
1644172802.171986,-0.012512,0.009766,-0.991516,0.220855,0.417099,-0.115725,45,265,577,5648
1644172802.220371,-0.008606,0.010376,-0.992371,0.236122,0.478168,-0.039389,49,265,577,5648
1644172802.268736,-0.011353,0.01062,-0.992126,0.266656,0.371298,0.082748,52,268,577,5696
1644172802.317153,-0.01001,0.009583,-0.990723,0.022382,0.493435,-0.039389,43,279,578,5648
1644172802.365551,-0.010376,0.010559,-0.992615,0.113985,0.462901,-0.115725,45,275,575,5664
1644172802.413948,-0.011108,0.008667,-0.992004,0.068183,0.325496,-0.161527,36,274,571,5728
1644172802.462356,-0.01062,0.009216,-0.991516,0.266656,0.356031,-0.192061,55,274,573,5664
1644172802.510694,-0.009888,0.01062,-0.992615,0.35826,0.432366,-0.176794,47,275,577,5696
1644172802.559082,-0.007141,0.011658,-0.992554,0.098718,0.447634,0.036947,51,276,566,5728
1644172802.607503,-0.008118,0.009155,-0.98877,0.190321,0.371298,-0.237863,49,277,591,5696
1644172802.655852,-0.01001,0.006836,-0.993774,0.526198,0.478168,0.082748,59,275,579,5712
1644172802.704269,-0.008911,0.008972,-0.994019,0.190321,0.523969,-0.024122,53,281,585,5712
1644172802.75265,-0.010315,0.009949,-0.990601,0.175053,0.417099,-0.085191,52,277,577,5696
1644172802.801073,-0.008789,0.009216,-0.99292,0.312458,0.508702,-0.130992,53,274,580,5760
1644172802.850287,-0.009277,0.010803,-0.991821,0.190321,0.356031,-0.192061,57,273,577,5696
1644172802.90107,-0.012146,0.009888,-0.990906,0.266656,0.401832,-0.024122,49,273,584,5648
1644172802.951417,-0.008789,0.008972,-0.991272,0.190321,0.462901,-0.176794,62,269,583,5664
1644172802.99593,-0.013245,0.011108,-0.991882,0.281924,0.417099,-0.207328,49,275,572,5696
1644172803.092924,-0.007202,0.008484,-0.991638,0.190321,0.493435,-0.085191,52,270,579,5696
1644172803.139832,-0.010437,0.007385,-0.990173,0.175053,0.356031,-0.039389,59,258,568,5728
1644172803.188184,-0.009766,0.00824,-0.990295,0.35826,0.356031,-0.069924,45,273,582,5696
1644172803.236569,-0.01001,0.010803,-0.992493,0.266656,0.310229,-0.069924,55,279,580,5808
1644172803.285008,-0.010071,0.011536,-0.991089,0.373527,0.508702,-0.024122,53,281,571,5712
1644172803.333357,-0.009583,0.007874,-0.993225,0.175053,0.310229,-0.085191,53,276,576,5760
1644172803.38175,-0.013428,0.009033,-0.993286,0.129252,0.417099,-0.100458,46,281,583,5760
1644172803.430145,-0.008606,0.010254,-0.994141,0.251389,0.356031,-0.069924,48,281,580,5712
1644172803.47854,-0.012268,0.007385,-0.992249,0.144519,0.356031,0.021679,55,279,564,5776
1644172803.526901,-0.011536,0.00769,-0.992371,0.190321,0.401832,-0.008855,47,273,577,5760
1644172803.575314,-0.011047,0.009705,-0.991272,0.327725,0.24916,-0.14626,52,273,570,5664
1644172803.623709,-0.01062,0.009277,-0.992065,0.266656,0.371298,-0.085191,48,274,578,5728
1644172803.672235,-0.010559,0.008179,-0.992371,0.297191,0.432366,-0.130992,45,273,584,5776
1644172803.720487,-0.008301,0.011353,-0.993408,0.205588,0.325496,-0.115725,41,266,580,5776
1644172803.768884,-0.008728,0.008911,-0.990601,0.144519,0.340763,-0.054656,53,276,594,5648
1644172803.817266,-0.009583,0.010803,-0.990417,0.342992,0.386565,0.052214,57,263,579,5696
1644172803.865673,-0.010315,0.008118,-0.997192,0.068183,0.371298,-0.054656,53,276,569,5664
1644172803.914097,-0.009399,0.008545,-0.994446,0.220855,0.478168,-0.039389,48,269,578,5696
1644172803.962967,-0.009155,0.008667,-0.990479,0.08345,0.264427,-0.115725,46,274,580,5760
1644172804.065172,-0.00531,0.012085,-0.992065,0.190321,0.356031,-0.085191,61,287,577,5760
1644172804.107623,-0.009399,0.00824,-0.991211,0.236122,0.462901,-0.085191,51,269,585,5696
1644172804.155994,-0.007629,0.009644,-0.989441,0.251389,0.539237,-0.14626,43,286,578,5664
1644172804.204402,-0.010986,0.01001,-0.992859,0.281924,0.294962,-0.161527,58,271,573,5664
1644172804.252763,-0.008911,0.00946,-0.990601,0.068183,0.554504,0.067481,46,281,571,5712
1644172804.301172,-0.009888,0.007996,-0.992249,0.220855,0.340763,-0.100458,48,271,580,5712
1644172804.349563,-0.010681,0.009644,-0.991089,0.159786,0.523969,-0.039389,47,270,577,5648
1644172804.39799,-0.010925,0.010193,-0.989807,0.251389,0.432366,0.021679,55,276,580,5824
1644172804.446341,-0.009583,0.008789,-0.991882,0.35826,0.340763,0.036947,48,279,578,5776
1644172804.494718,-0.011047,0.008911,-0.993591,0.175053,0.401832,-0.085191,48,269,578,5712
1644172804.543144,-0.00946,0.009216,-0.992798,0.190321,0.279695,0.036947,54,277,568,5696
1644172804.591479,-0.01178,0.011475,-0.989868,0.08345,0.600305,-0.054656,48,279,583,5728
1644172804.639867,-0.01001,0.010864,-0.992554,0.251389,0.417099,0.052214,45,270,575,5696
1644172804.688292,-0.011902,0.007935,-0.991943,0.205588,0.310229,-0.14626,46,274,576,5664
1644172804.736689,-0.010315,0.008179,-0.991333,0.373527,0.447634,-0.176794,55,264,583,5696
1644172804.785124,-0.01062,0.010803,-0.992126,0.251389,0.447634,-0.054656,62,283,569,5648
1644172804.833558,-0.009277,0.013123,-0.991455,0.175053,0.462901,-0.024122,51,271,562,5696
1644172804.88531,-0.010315,0.009766,-0.990173,0.205588,0.264427,-0.115725,41,279,573,5696
1644172804.934855,-0.007324,0.008301,-0.991028,0.159786,0.462901,0.098015,54,285,579,5712
1644172804.979555,-0.01062,0.009155,-0.993164,0.159786,0.462901,0.006412,58,271,573,5728
1644172805.075541,-0.008606,0.010803,-0.994995,0.220855,0.417099,-0.100458,52,268,582,5664
1644172805.123801,-0.010559,0.009033,-0.992249,0.327725,0.401832,0.036947,48,279,576,5728
1644172805.17238,-0.012207,0.008301,-0.993164,0.205588,0.371298,0.12855,40,270,575,5696
1644172805.220596,-0.010681,0.009399,-0.987915,0.236122,0.264427,0.006412,52,287,572,5696
1644172805.268982,-0.011292,0.010498,-0.990784,0.205588,0.325496,0.113282,57,273,579,5648
1644172805.317376,-0.007629,0.01123,-0.993591,0.159786,0.493435,-0.115725,49,280,577,5648
1644172805.365771,-0.007629,0.010864,-0.991943,0.327725,0.371298,-0.085191,41,269,569,5696
1644172805.41416,-0.00885,0.010315,-0.990845,0.388794,0.462901,0.036947,58,274,564,5696
1644172805.462573,-0.009338,0.008606,-0.989624,0.327725,0.478168,-0.100458,48,283,580,5712
1644172805.51095,-0.008667,0.006958,-0.99176,0.327725,0.493435,-0.054656,47,280,579,5696
1644172805.559328,-0.011108,0.010925,-0.992615,0.251389,0.493435,-0.039389,43,266,571,5696
1644172805.607723,-0.013855,0.012878,-0.992676,0.266656,0.386565,-0.222595,48,279,590,5664
1644172805.656116,-0.01001,0.009094,-0.990051,0.251389,0.493435,-0.054656,45,270,572,5648
1644172805.70451,-0.009583,0.010071,-0.992981,0.342992,0.447634,-0.069924,58,274,580,5712
1644172805.752913,-0.008606,0.009277,-0.989929,0.220855,0.233893,-0.069924,52,275,577,5664
1644172805.801324,-0.012695,0.010681,-0.991699,0.159786,0.401832,-0.100458,52,270,579,5696
1644172805.849712,-0.009644,0.009583,-0.98999,0.098718,0.401832,-0.207328,64,275,579,5728
1644172805.898098,-0.008606,0.009766,-0.990784,0.35826,0.340763,-0.100458,41,279,571,5664
1644172805.946512,-0.008118,0.010559,-0.991943,0.404061,0.371298,-0.130992,46,271,576,5648
1644172805.996876,-0.007202,0.008423,-0.989441,0.190321,0.478168,-0.069924,51,276,571,5760
1644172806.064329,-0.011414,0.01062,-0.991577,0.144519,0.325496,-0.161527,47,282,577,5696
1644172806.103811,-0.009583,0.00824,-0.991089,0.159786,0.371298,-0.069924,52,285,579,5712
1644172806.141199,-0.009888,0.008545,-0.992004,0.327725,0.371298,-0.024122,51,276,578,5696
1644172806.236781,-0.008911,0.011292,-0.993652,0.342992,0.478168,-0.161527,48,286,573,5728
1644172806.285374,-0.008118,0.009338,-0.991455,0.404061,0.310229,-0.085191,61,273,572,5760
1644172806.333572,-0.010681,0.009766,-0.99231,0.236122,0.523969,-0.008855,38,273,577,5696
1644172806.38197,-0.011719,0.009399,-0.99054,0.236122,0.447634,0.021679,52,270,577,5712
1644172806.430364,-0.007935,0.012024,-0.992432,0.175053,0.371298,-0.115725,48,283,587,5664
1644172806.478733,-0.011536,0.009277,-0.991394,0.266656,0.386565,-0.039389,47,263,572,5648
1644172806.527135,-0.008667,0.011414,-0.990662,0.220855,0.447634,-0.115725,51,266,580,5808
1644172806.57552,-0.012207,0.011047,-0.993347,-0.069221,0.294962,0.006412,52,280,582,5696
1644172806.623928,-0.009949,0.010376,-0.98999,0.236122,0.325496,-0.100458,53,281,571,5648
1644172806.672337,-0.009521,0.010254,-0.992798,0.159786,0.523969,-0.008855,48,276,583,5760
1644172806.720703,-0.011169,0.008667,-0.992554,0.281924,0.417099,-0.25313,45,282,572,5712
1644172806.769104,-0.013367,0.011414,-0.993408,0.236122,0.371298,-0.14626,49,277,572,5712
1644172806.817528,-0.009521,0.009521,-0.991394,0.251389,0.554504,-0.14626,47,282,582,5696
1644172806.865921,-0.010132,0.009216,-0.993286,0.251389,0.417099,-0.115725,49,285,579,5776
1644172806.914313,-0.011414,0.005615,-0.991272,0.129252,0.356031,-0.008855,47,265,572,5696
1644172806.963206,-0.010559,0.009216,-0.990601,0.35826,0.508702,-0.024122,54,280,572,5760
1644172807.011094,-0.010986,0.008301,-0.993713,0.251389,0.462901,-0.054656,40,270,572,5696
1644172807.077766,-0.011292,0.009399,-0.992126,0.175053,0.401832,0.159084,49,273,586,5648
1644172807.109601,-0.012268,0.008118,-0.993103,0.205588,0.386565,-0.085191,43,279,571,5696
1644172807.204845,-0.011719,0.008789,-0.992126,0.327725,0.508702,0.098015,52,287,575,5696
1644172807.253004,-0.010193,0.010376,-0.991089,0.266656,0.371298,-0.115725,47,277,575,5696
1644172807.301403,-0.013428,0.007996,-0.990845,0.190321,0.356031,-0.100458,51,269,583,5712
1644172807.349768,-0.008972,0.008179,-0.99115,0.281924,0.417099,-0.100458,47,265,577,5696
1644172807.398178,-0.008423,0.010254,-0.991882,0.266656,0.462901,-0.054656,51,276,573,5696
1644172807.446563,-0.011658,0.010925,-0.992004,0.220855,0.447634,0.006412,54,273,579,5712
1644172807.495008,-0.008972,0.010071,-0.990906,0.08345,0.432366,-0.14626,47,282,570,5696
1644172807.543348,-0.010986,0.007446,-0.993835,0.190321,0.371298,0.113282,52,287,579,5664
1644172807.591738,-0.011108,0.007019,-0.991455,0.144519,0.417099,-0.192061,49,268,577,5696
1644172807.640136,-0.010071,0.008728,-0.992432,0.220855,0.340763,-0.085191,48,279,585,5712
1644172807.688524,-0.012146,0.008545,-0.994324,0.342992,0.447634,-0.100458,47,273,572,5712
1644172807.736918,-0.007935,0.011597,-0.991882,0.175053,0.356031,-0.14626,46,274,573,5728
1644172807.785316,-0.008667,0.006836,-0.991455,0.251389,0.356031,-0.069924,55,283,585,5664
1644172807.833742,-0.009094,0.00769,-0.993164,0.281924,0.356031,-0.222595,58,271,583,5664
1644172807.882171,-0.008789,0.006958,-0.992676,0.251389,0.478168,-0.115725,39,269,585,5776
1644172807.930514,-0.010376,0.01001,-0.991943,0.281924,0.310229,-0.130992,51,274,583,5728
1644172807.978915,-0.010437,0.007446,-0.992859,0.342992,0.386565,-0.14626,49,275,575,5696
1644172808.028035,-0.008911,0.008423,-0.992981,0.144519,0.508702,-0.176794,47,273,582,5760
1644172808.082498,-0.011475,0.007751,-0.99176,0.205588,0.356031,-0.024122,55,266,583,5696
1644172808.125476,-0.009338,0.009888,-0.99408,0.08345,0.432366,0.036947,60,274,578,5712
1644172808.174531,-0.010681,0.008484,-0.991455,0.312458,0.356031,-0.115725,45,268,589,5696
1644172808.225,-0.010559,0.008179,-0.99115,0.327725,0.386565,-0.298931,55,269,578,5728
1644172808.269864,-0.008972,0.008972,-0.994446,0.404061,0.386565,-0.14626,52,273,582,5696
1644172808.365973,-0.01123,0.00769,-0.99176,0.266656,0.264427,-0.085191,47,275,575,5664
1644172808.414374,-0.011414,0.009155,-0.99408,0.281924,0.417099,-0.069924,53,262,576,5664
1644172808.462774,-0.011108,0.009399,-0.99292,0.159786,0.356031,-0.207328,47,273,577,5712
1644172808.511147,-0.009216,0.010254,-0.991882,0.098718,0.294962,-0.054656,52,273,582,5728
1644172808.559547,-0.011169,0.009766,-0.993103,0.327725,0.401832,-0.100458,47,273,572,5664
1644172808.607951,-0.009155,0.011047,-0.99231,0.205588,0.493435,-0.008855,36,283,583,5760
1644172808.656328,-0.008118,0.010193,-0.992188,0.037649,0.417099,-0.14626,58,274,580,5664
1644172808.704743,-0.008606,0.007324,-0.992554,0.297191,0.447634,-0.039389,43,279,585,5712
1644172808.753104,-0.01062,0.007874,-0.993042,0.098718,0.493435,-0.25313,54,268,577,5760
1644172808.801548,-0.010498,0.010071,-0.992798,0.236122,0.432366,-0.14626,47,268,577,5664
1644172808.849958,-0.012207,0.009705,-0.991882,0.312458,0.356031,-0.222595,58,271,587,5760
1644172808.898324,-0.008484,0.00531,-0.991333,0.373527,0.356031,-0.100458,47,280,575,5728
1644172808.946718,-0.012634,0.010681,-0.991638,0.190321,0.63084,-0.039389,54,277,572,5712
1644172808.995237,-0.010376,0.009094,-0.992554,0.220855,0.356031,-0.130992,46,276,590,5696
1644172809.054292,-0.012451,0.011108,-0.989624,0.251389,0.279695,-0.192061,49,277,582,5712
1644172809.094645,-0.009705,0.008484,-0.991943,0.236122,0.508702,-0.130992,47,282,584,5664
1644172809.140213,-0.010986,0.01001,-0.99231,0.129252,0.356031,-0.237863,45,265,579,5760
1644172809.188644,-0.012878,0.008545,-0.991516,0.327725,0.432366,-0.100458,54,268,579,5728
1644172809.237029,-0.009338,0.011353,-0.989136,0.312458,0.279695,-0.039389,43,257,569,5696
1644172809.285764,-0.01062,0.009521,-0.991516,0.220855,0.539237,-0.100458,52,273,568,5696
1644172809.336271,-0.011841,0.009949,-0.991394,0.098718,0.371298,0.036947,51,276,580,5760
1644172809.386448,-0.010132,0.009644,-0.988281,0.419328,0.462901,-0.054656,46,271,576,5760
1644172809.431419,-0.008484,0.009583,-0.992859,0.175053,0.401832,0.006412,55,274,573,5696
1644172809.527345,-0.008911,0.00885,-0.990906,0.251389,0.310229,0.052214,45,270,582,5760
1644172809.575749,-0.009155,0.008728,-0.99408,0.297191,0.356031,-0.069924,54,270,575,5712
1644172809.624169,-0.009583,0.009583,-0.995178,0.35826,0.447634,-0.008855,46,286,580,5760
1644172809.672553,-0.010742,0.009644,-0.990967,0.236122,0.417099,-0.054656,53,274,564,5760
1644172809.720942,-0.009399,0.009705,-0.991028,0.312458,0.356031,-0.008855,46,262,576,5664
1644172809.769322,-0.008911,0.01062,-0.991272,0.220855,0.401832,-0.161527,47,282,584,5664
1644172809.817717,-0.010315,0.010925,-0.991272,0.327725,0.539237,-0.039389,43,271,573,5776
1644172809.866153,-0.008911,0.010132,-0.990784,0.266656,0.356031,-0.085191,55,276,576,5728
1644172809.914618,-0.011963,0.01001,-0.992798,0.129252,0.417099,-0.069924,45,277,575,5696
1644172809.962938,-0.007202,0.008911,-0.99231,0.144519,0.462901,-0.130992,46,281,583,5728
1644172810.011298,-0.008179,0.009827,-0.989746,0.281924,0.432366,0.113282,48,276,590,5648
1644172810.061536,-0.01123,0.008545,-0.991699,0.236122,0.462901,0.036947,61,277,582,5776
1644172810.108048,-0.013672,0.010437,-0.99408,0.113985,0.417099,-0.054656,46,283,583,5696
1644172810.156458,-0.010742,0.011108,-0.992432,0.388794,0.523969,-0.130992,54,277,579,5760
1644172810.204851,-0.009277,0.007751,-0.994812,0.327725,0.401832,-0.085191,58,264,587,5664
1644172810.253218,-0.010437,0.009033,-0.991028,0.251389,0.386565,-0.039389,48,274,585,5696
1644172810.301589,-0.010986,0.008179,-0.993347,0.175053,0.462901,0.006412,46,276,587,5584
1644172810.350017,-0.010193,0.009094,-0.992371,0.312458,0.493435,-0.115725,54,268,582,5728
1644172810.398396,-0.008728,0.014771,-0.991089,0.220855,0.356031,-0.024122,57,275,577,5728
1644172810.446821,-0.00885,0.011047,-0.992859,0.220855,0.371298,-0.024122,47,285,572,5728
1644172810.497838,-0.01123,0.013855,-0.991699,0.266656,0.218626,-0.115725,54,270,572,5712
1644172810.547767,-0.009644,0.008789,-0.993408,0.068183,0.401832,-0.161527,46,269,587,5728
1644172810.592553,-0.008606,0.00885,-0.991638,0.205588,0.417099,-0.14626,48,274,583,5760
1644172810.688727,-0.011902,0.010132,-0.992798,0.281924,0.401832,-0.115725,49,270,579,5712
1644172810.737125,-0.012512,0.007263,-0.992188,0.159786,0.493435,-0.085191,51,269,576,5696
1644172810.785509,-0.007141,0.008301,-0.991516,0.113985,0.478168,-0.024122,59,277,577,5728
1644172810.833939,-0.008362,0.010315,-0.993042,0.281924,0.386565,0.006412,45,268,577,5712
1644172810.882345,-0.010193,0.00769,-0.991089,0.266656,0.371298,0.082748,59,270,575,5664
1644172810.930737,-0.010986,0.007935,-0.994019,0.220855,0.386565,-0.054656,54,277,577,5712
1644172810.97914,-0.010132,0.012634,-0.991455,0.037649,0.493435,-0.176794,41,283,585,5696
1644172811.027525,-0.009827,0.007812,-0.989868,0.144519,0.447634,0.067481,55,276,571,5696
1644172811.084837,-0.007141,0.011719,-0.989441,0.236122,0.386565,-0.054656,43,279,576,5712
1644172811.124339,-0.010132,0.010254,-0.990967,0.373527,0.447634,-0.069924,53,269,566,5664
1644172811.172677,-0.006653,0.007507,-0.993591,0.144519,0.401832,-0.161527,55,279,580,5664
1644172811.221058,-0.009033,0.009521,-0.994629,0.205588,0.340763,-0.14626,53,279,580,5648
1644172811.269441,-0.007263,0.008179,-0.991638,0.205588,0.462901,-0.100458,43,269,566,5776
1644172811.317811,-0.011536,0.00946,-0.992004,0.205588,0.432366,-0.100458,52,277,586,5712
1644172811.366215,-0.007263,0.00885,-0.992188,0.266656,0.432366,-0.024122,45,275,582,5728
1644172811.414662,-0.010742,0.008362,-0.990845,0.35826,0.294962,-0.054656,53,274,580,5776
1644172811.46301,-0.010864,0.009277,-0.992798,0.312458,0.401832,-0.039389,47,268,593,5696
1644172811.511405,-0.012146,0.01178,-0.991821,0.312458,0.294962,-0.14626,48,271,580,5760
1644172811.562228,-0.013,0.00946,-0.99353,0.342992,0.279695,-0.115725,54,268,584,5760
1644172811.612281,-0.010986,0.008606,-0.993225,0.281924,0.432366,-0.069924,47,270,579,5728
1644172811.657136,-0.006714,0.009521,-0.994446,0.129252,0.478168,-0.069924,53,279,576,5728
1644172811.753362,-0.009338,0.010925,-0.993469,0.129252,0.310229,-0.14626,49,270,575,5664
1644172811.801729,-0.008911,0.009644,-0.991882,0.205588,0.401832,0.006412,46,283,569,5760
1644172811.850126,-0.008972,0.010864,-0.992554,0.236122,0.386565,-0.14626,52,275,577,5696
1644172811.898541,-0.011353,0.00708,-0.994446,0.205588,0.356031,-0.100458,51,266,585,5712
1644172811.946934,-0.010681,0.011658,-0.994019,0.281924,0.294962,0.006412,43,271,569,5760
1644172811.995333,-0.009521,0.008423,-0.99231,0.281924,0.386565,-0.192061,46,266,583,5696
1644172812.056978,-0.010315,0.010254,-0.992371,0.220855,0.264427,-0.115725,45,280,582,5648
1644172812.09567,-0.011475,0.006958,-0.992188,0.220855,0.401832,-0.207328,54,285,572,5696
1644172812.14049,-0.010803,0.00769,-0.993835,0.08345,0.523969,-0.100458,43,276,583,5696
1644172812.188868,-0.007996,0.01178,-0.990967,0.205588,0.340763,-0.069924,46,266,576,5808
1644172812.237262,-0.011719,0.00946,-0.993164,0.281924,0.371298,-0.192061,59,282,584,5648
1644172812.285648,-0.008423,0.012939,-0.993164,0.449863,0.432366,-0.069924,49,280,577,5776
1644172812.334054,-0.010437,0.008972,-0.992249,0.190321,0.325496,-0.069924,48,274,566,5664
1644172812.382442,-0.00946,0.01123,-0.991943,0.327725,0.371298,-0.008855,49,282,582,5712
1644172812.430817,-0.012756,0.009216,-0.990051,0.175053,0.325496,-0.039389,57,275,589,5760
1644172812.47917,-0.011963,0.009949,-0.991638,0.220855,0.447634,-0.130992,54,282,589,5664
1644172812.527598,-0.008362,0.010437,-0.992493,0.113985,0.432366,-0.100458,55,276,583,5712
1644172812.575993,-0.008179,0.009827,-0.991394,0.236122,0.325496,-0.054656,49,270,582,5664
1644172812.624742,-0.01123,0.011108,-0.99292,0.220855,0.401832,-0.176794,42,280,577,5696
1644172812.674042,-0.010803,0.008728,-0.993958,0.205588,0.340763,0.098015,55,269,578,5696
1644172812.724378,-0.010864,0.009644,-0.990112,0.159786,0.569771,-0.024122,47,265,577,5728
1644172812.774567,-0.008667,0.009705,-0.992554,0.312458,0.432366,-0.085191,47,277,579,5696
1644172812.866311,-0.007019,0.01001,-0.993408,0.159786,0.310229,-0.192061,51,276,585,5648
1644172812.914901,-0.008667,0.01001,-0.990906,0.205588,0.340763,-0.008855,48,269,576,5664
1644172812.963133,-0.010559,0.007568,-0.991882,0.266656,0.279695,-0.024122,51,269,580,5728
1644172813.011526,-0.009766,0.008667,-0.991028,0.297191,0.340763,-0.085191,57,285,575,5712
1644172813.063055,-0.011658,0.009583,-0.990295,0.144519,0.539237,-0.054656,48,281,585,5696
1644172813.10828,-0.009277,0.007263,-0.994324,0.266656,0.325496,-0.314198,38,277,579,5664
1644172813.156675,-0.01532,0.009583,-0.992981,0.281924,0.325496,-0.100458,46,266,576,5728
1644172813.205091,-0.006348,0.008362,-0.992981,0.236122,0.523969,0.006412,41,271,573,5712
1644172813.253448,-0.010864,0.007751,-0.993835,0.297191,0.478168,-0.161527,53,281,576,5712
1644172813.301828,-0.008911,0.011292,-0.992737,0.327725,0.523969,-0.085191,40,287,589,5632
1644172813.35024,-0.013245,0.009338,-0.994568,0.175053,0.294962,-0.100458,47,263,582,5728
1644172813.398625,-0.007751,0.007629,-0.990601,0.113985,0.325496,-0.054656,48,266,587,5728
1644172813.447023,-0.009705,0.010254,-0.991638,0.129252,0.371298,-0.085191,47,270,584,5728
1644172813.495416,-0.010986,0.009033,-0.989624,0.144519,0.493435,-0.008855,55,266,573,5712
1644172813.543817,-0.01239,0.012207,-0.994385,0.129252,0.478168,-0.14626,52,277,575,5664
1644172813.592208,-0.00946,0.005737,-0.99292,0.220855,0.523969,-0.237863,52,268,584,5664
1644172813.640585,-0.010803,0.01178,-0.989014,0.236122,0.356031,-0.069924,58,281,564,5728
1644172813.688969,-0.010315,0.011902,-0.990967,0.129252,0.569771,-0.130992,51,279,590,5728
1644172813.737376,-0.010132,0.011169,-0.992859,0.297191,0.340763,-0.054656,42,275,584,5696
1644172813.786898,-0.011719,0.008728,-0.992371,0.251389,0.447634,-0.024122,47,275,582,5712
1644172813.837149,-0.008301,0.011963,-0.991638,0.266656,0.401832,-0.176794,52,273,572,5696
1644172813.887496,-0.01123,0.00647,-0.990417,0.297191,0.356031,-0.039389,53,266,583,5776
1644172813.932148,-0.009399,0.010742,-0.99176,0.205588,0.432366,-0.069924,40,275,575,5712
1644172814.027741,-0.008545,0.009399,-0.990356,0.373527,0.325496,-0.176794,51,281,578,5728
1644172814.080545,-0.009094,0.010925,-0.991028,0.312458,0.340763,-0.14626,47,275,579,5696
1644172814.124491,-0.007507,0.009705,-0.992859,0.144519,0.493435,-0.039389,53,274,578,5664
1644172814.172902,-0.008301,0.006958,-0.994141,0.35826,0.325496,0.006412,45,280,579,5728
1644172814.221272,-0.009277,0.010498,-0.991516,0.236122,0.356031,-0.024122,46,274,573,5760
1644172814.269633,-0.009644,0.008545,-0.990906,0.098718,0.417099,-0.115725,42,273,582,5728
1644172814.318051,-0.009399,0.012024,-0.990417,0.281924,0.233893,-0.115725,55,271,571,5712
1644172814.366443,-0.010071,0.008728,-0.993286,0.281924,0.356031,-0.115725,59,287,575,5696
1644172814.414859,-0.006897,0.009338,-0.992615,0.388794,0.340763,-0.100458,51,266,576,5728
1644172814.463223,-0.007812,0.010559,-0.994934,0.159786,0.371298,-0.039389,49,277,575,5712
1644172814.511594,-0.01001,0.007202,-0.992798,0.266656,0.478168,-0.176794,49,270,577,5696
1644172814.559976,-0.011475,0.007629,-0.991272,0.144519,0.523969,-0.054656,54,282,572,5696
1644172814.608397,-0.011963,0.010864,-0.992859,0.129252,0.356031,-0.085191,39,271,576,5760
1644172814.656792,-0.012085,0.011475,-0.990479,0.08345,0.447634,-0.115725,51,276,583,5696
1644172814.70518,-0.011169,0.012756,-0.993225,0.159786,0.585038,-0.237863,57,275,582,5760
1644172814.753549,-0.009033,0.011108,-0.991638,0.190321,0.264427,-0.161527,51,271,576,5760
1644172814.801998,-0.008911,0.009644,-0.991577,0.159786,0.310229,0.006412,39,269,573,5696
1644172814.85041,-0.010437,0.006958,-0.993103,0.098718,0.417099,0.12855,54,277,582,5728
1644172814.900417,-0.012268,0.007446,-0.994019,0.159786,0.340763,-0.039389,47,273,579,5696
1644172814.951363,-0.011169,0.010376,-0.990906,0.266656,0.310229,-0.283664,47,270,589,5648
1644172815.001041,-0.010681,0.009583,-0.990967,0.388794,0.508702,-0.039389,55,266,578,5696
1644172815.064208,-0.011597,0.009155,-0.990356,0.159786,0.325496,-0.039389,53,276,580,5728
1644172815.140685,-0.010742,0.009094,-0.989868,0.220855,0.508702,-0.115725,48,276,569,5696
1644172815.189081,-0.01123,0.010193,-0.994507,0.220855,0.386565,-0.115725,62,279,576,5712
1644172815.237477,-0.010498,0.01178,-0.996887,0.251389,0.356031,-0.069924,57,280,577,5728
1644172815.285861,-0.008057,0.008667,-0.994873,0.236122,0.508702,-0.024122,52,275,586,5728
1644172815.334266,-0.010254,0.010315,-0.991882,0.068183,0.554504,0.021679,46,274,585,5760
1644172815.382658,-0.007568,0.007996,-0.992493,0.404061,0.508702,-0.344733,51,271,580,5712
1644172815.431042,-0.010132,0.009277,-0.990784,0.175053,0.188092,-0.085191,49,263,586,5696
1644172815.479434,-0.013245,0.007446,-0.992859,0.220855,0.325496,-0.176794,48,283,578,5760
1644172815.527825,-0.012939,0.008606,-0.990906,0.297191,0.432366,-0.008855,41,274,578,5648
1644172815.576216,-0.012146,0.007385,-0.991699,0.175053,0.508702,-0.054656,51,269,576,5760
1644172815.624693,-0.012878,0.009033,-0.991394,0.129252,0.478168,-0.085191,52,270,579,5728
1644172815.673012,-0.00946,0.01001,-0.993042,0.281924,0.569771,-0.024122,54,275,579,5760
1644172815.721361,-0.008484,0.009827,-0.991516,0.266656,0.401832,0.067481,49,282,584,5712
1644172815.76977,-0.010986,0.010071,-0.991028,0.236122,0.401832,-0.130992,52,277,577,5760
1644172815.818204,-0.008362,0.008362,-0.990967,0.251389,0.539237,0.067481,65,283,578,5664
1644172815.866583,-0.009949,0.007996,-0.992859,0.312458,0.554504,-0.14626,48,281,580,5664
1644172815.915142,-0.012878,0.011353,-0.990234,0.35826,0.356031,-0.115725,46,271,566,5760
1644172815.963389,-0.007874,0.009338,-0.992798,0.190321,0.432366,-0.054656,53,283,573,5696
1644172816.066312,-0.008423,0.009705,-0.99115,0.205588,0.432366,0.098015,48,276,569,5728
1644172816.108462,-0.011536,0.011658,-0.994324,0.113985,0.294962,0.021679,52,273,577,5664
1644172816.156881,-0.012268,0.009033,-0.995056,0.236122,0.340763,-0.024122,58,279,585,5760
1644172816.205292,-0.009338,0.009094,-0.993347,0.266656,0.371298,-0.024122,51,286,576,5664
1644172816.253666,-0.009521,0.006714,-0.99115,0.297191,0.447634,-0.054656,48,274,571,5696
1644172816.302067,-0.010925,0.010742,-0.992981,0.342992,0.493435,-0.039389,42,282,582,5664
1644172816.35046,-0.011414,0.008911,-0.99115,0.159786,0.386565,-0.069924,60,271,573,5728
1644172816.398859,-0.010193,0.005676,-0.992126,0.175053,0.401832,-0.207328,53,271,578,5712
1644172816.447246,-0.009583,0.007996,-0.991211,0.251389,0.447634,-0.100458,48,269,580,5696
1644172816.495614,-0.011169,0.009216,-0.993225,0.205588,0.279695,-0.237863,48,276,578,5712
1644172816.544027,-0.009766,0.009216,-0.993347,0.175053,0.386565,-0.207328,47,294,586,5664
1644172816.592436,-0.010864,0.010803,-0.991821,0.205588,0.554504,-0.100458,48,276,580,5728
1644172816.640775,-0.010925,0.011047,-0.989014,0.404061,0.493435,-0.161527,55,276,571,5696
1644172816.689199,-0.011963,0.010864,-0.992249,0.342992,0.447634,-0.024122,52,277,579,5712
1644172816.737572,-0.010193,0.008179,-0.992126,0.205588,0.478168,0.052214,47,275,579,5696
1644172816.785971,-0.009888,0.008118,-0.991699,0.342992,0.386565,-0.161527,51,274,583,5712
1644172816.835662,-0.009216,0.008667,-0.994324,0.297191,0.371298,-0.14626,48,269,573,5664
1644172816.88579,-0.01062,0.008789,-0.991516,0.297191,0.462901,-0.069924,54,270,568,5696
1644172816.936365,-0.01123,0.011292,-0.988892,0.129252,0.325496,-0.14626,47,265,582,5760
1644172816.980647,-0.010437,0.007935,-0.992615,0.251389,0.462901,0.021679,52,277,575,5696
1644172817.076444,-0.007874,0.006348,-0.993225,0.175053,0.401832,-0.039389,51,274,576,5712
1644172817.124884,-0.008179,0.008789,-0.989929,0.144519,0.478168,-0.14626,52,280,579,5664
1644172817.173117,-0.011597,0.009521,-0.990906,0.297191,0.508702,-0.222595,57,273,575,5712
1644172817.221483,-0.011047,0.010071,-0.993164,0.098718,0.462901,-0.054656,46,271,587,5728
1644172817.269889,-0.01062,0.007812,-0.994507,0.175053,0.310229,-0.024122,47,277,572,5664
1644172817.318255,-0.011841,0.008484,-0.992798,0.281924,0.386565,-0.192061,46,279,578,5696
1644172817.366676,-0.010986,0.011353,-0.992859,0.266656,0.401832,-0.039389,46,271,576,5696
1644172817.415174,-0.008362,0.011047,-0.992432,0.327725,0.447634,-0.298931,48,276,576,5648
1644172817.463463,-0.014587,0.007812,-0.993164,0.388794,0.462901,-0.054656,57,273,582,5728
1644172817.511852,-0.010864,0.008728,-0.994446,0.35826,0.417099,-0.14626,48,269,573,5776
1644172817.560245,-0.011841,0.009399,-0.990417,0.327725,0.401832,-0.130992,53,269,580,5696
1644172817.608617,-0.012634,0.010315,-0.990723,0.190321,0.554504,-0.268397,53,283,583,5808
1644172817.657018,-0.006958,0.007263,-0.993164,0.251389,0.340763,-0.130992,58,279,583,5712
1644172817.705403,-0.012024,0.012451,-0.992981,0.281924,0.371298,-0.039389,55,276,583,5696
1644172817.753773,-0.01123,0.008423,-0.992126,0.327725,0.386565,-0.024122,46,276,585,5696
1644172817.802191,-0.009583,0.009827,-0.992615,0.190321,0.417099,-0.039389,54,273,577,5696
1644172817.850623,-0.011902,0.00824,-0.992249,0.297191,0.356031,-0.115725,54,280,579,5776
1644172817.899234,-0.009827,0.008911,-0.993042,0.205588,0.417099,-0.085191,51,279,576,5712
1644172817.947397,-0.009338,0.008728,-0.992065,0.327725,0.371298,0.006412,51,279,578,5696
1644172817.996702,-0.010559,0.008667,-0.994202,0.190321,0.554504,-0.115725,57,273,579,5664
1644172818.095185,-0.012878,0.008362,-0.991577,0.190321,0.493435,-0.14626,47,277,575,5664
1644172818.140953,-0.010803,0.006165,-0.993225,0.220855,0.478168,-0.008855,47,270,570,5664
1644172818.189312,-0.011292,0.006836,-0.990967,0.236122,0.478168,-0.115725,51,274,573,5712
1644172818.237669,-0.007568,0.00885,-0.994629,0.281924,0.356031,-0.207328,45,277,584,5664
1644172818.286085,-0.013306,0.010193,-0.993958,0.297191,0.386565,-0.161527,49,280,568,5712
1644172818.334481,-0.012085,0.006531,-0.992493,0.266656,0.325496,-0.054656,46,279,573,5696
1644172818.382892,-0.010315,0.008362,-0.994385,0.297191,0.294962,-0.161527,51,274,571,5712
1644172818.431273,-0.013367,0.008545,-0.991821,0.297191,0.493435,-0.085191,55,274,580,5648
1644172818.479652,-0.013794,0.009155,-0.993469,0.129252,0.401832,-0.130992,53,276,569,5648
1644172818.528056,-0.011108,0.010193,-0.990967,0.220855,0.310229,-0.100458,47,275,572,5712
1644172818.576443,-0.010376,0.007874,-0.992126,0.495664,0.554504,-0.039389,52,280,572,5696
1644172818.624853,-0.009827,0.008362,-0.989197,0.312458,0.493435,-0.115725,57,277,570,5664
1644172818.673239,-0.008057,0.010742,-0.990234,0.113985,0.417099,-0.14626,48,274,580,5696
1644172818.721573,-0.009949,0.010803,-0.996277,0.190321,0.539237,-0.115725,48,276,576,5664
1644172818.770009,-0.011963,0.00946,-0.992737,-0.008153,0.371298,-0.085191,42,273,572,5664
1644172818.818395,-0.008789,0.00946,-0.99176,0.251389,0.417099,-0.161527,39,274,578,5712
1644172818.866823,-0.012085,0.008118,-0.991272,0.205588,0.493435,-0.115725,47,270,591,5664
1644172818.915571,-0.00946,0.011169,-0.991638,0.281924,0.508702,-0.222595,46,279,571,5760
1644172818.966142,-0.009583,0.007446,-0.991943,0.190321,0.386565,-0.100458,48,283,571,5712
1644172819.065655,-0.012024,0.009766,-0.992249,0.251389,0.279695,-0.069924,52,285,577,5728
1644172819.108766,-0.008667,0.009827,-0.992371,0.236122,0.447634,-0.054656,55,281,594,5728
1644172819.157157,-0.01001,0.011169,-0.993164,0.205588,0.523969,-0.161527,58,264,578,5696
1644172819.205547,-0.011536,0.005432,-0.991699,0.342992,0.371298,-0.024122,48,271,576,5712
1644172819.253924,-0.007507,0.009521,-0.990356,0.35826,0.600305,-0.100458,51,276,578,5696
1644172819.302382,-0.007568,0.010437,-0.991943,0.297191,0.172824,0.036947,52,273,579,5760
1644172819.350723,-0.011658,0.008606,-0.993286,0.159786,0.325496,-0.054656,49,280,572,5696
1644172819.399125,-0.008911,0.009338,-0.99292,0.266656,0.401832,0.021679,47,287,570,5760
1644172819.447504,-0.011597,0.011047,-0.993835,0.419328,0.371298,-0.069924,41,281,571,5760
1644172819.495869,-0.009583,0.011169,-0.993774,0.297191,0.539237,-0.100458,60,279,578,5712
1644172819.544304,-0.010132,0.007751,-0.991089,0.113985,0.325496,-0.115725,57,260,586,5808
1644172819.592698,-0.007996,0.008545,-0.992493,0.327725,0.356031,-0.161527,51,276,585,5712
1644172819.641071,-0.010193,0.010315,-0.990784,0.312458,0.371298,-0.161527,53,281,587,5776
1644172819.689456,-0.009827,0.008423,-0.990845,0.266656,0.340763,-0.085191,49,268,589,5728
1644172819.737849,-0.00946,0.010437,-0.991455,0.251389,0.478168,-0.192061,49,270,584,5664
1644172819.786255,-0.013184,0.009399,-0.993225,0.373527,0.386565,0.021679,57,282,579,5696
1644172819.83595,-0.008789,0.009216,-0.991699,0.327725,0.417099,-0.039389,47,273,582,5664
1644172819.88641,-0.011475,0.01001,-0.992188,0.327725,0.371298,0.021679,49,270,579,5696
1644172819.936479,-0.011414,0.007568,-0.991821,0.297191,0.340763,-0.14626,52,273,589,5728
1644172819.981037,-0.008972,0.006653,-0.992126,0.190321,0.386565,-0.039389,49,263,577,5760
1644172820.076657,-0.010498,0.009583,-0.992493,0.342992,0.340763,-0.100458,48,276,585,5760
1644172820.124902,-0.009033,0.00885,-0.991394,0.190321,0.478168,-0.237863,53,274,576,5728
1644172820.173334,-0.010681,0.009827,-0.991882,0.220855,0.447634,-0.008855,45,273,584,5760
1644172820.221706,-0.01123,0.009216,-0.991272,0.35826,0.356031,-0.085191,49,273,575,5664
1644172820.270105,-0.011597,0.010254,-0.991882,0.251389,0.462901,0.021679,43,279,585,5696
1644172820.318481,-0.010864,0.009644,-0.991699,0.175053,0.279695,-0.176794,57,275,584,5648
1644172820.366887,-0.009094,0.008667,-0.99353,0.220855,0.554504,-0.039389,43,271,578,5664
1644172820.41528,-0.01123,0.010498,-0.992188,0.190321,0.401832,-0.100458,46,274,576,5760
1644172820.463682,-0.008789,0.01123,-0.990173,0.266656,0.325496,-0.161527,42,277,591,5712
1644172820.512073,-0.013062,0.00647,-0.992981,0.08345,0.340763,-0.161527,47,273,572,5712
1644172820.560458,-0.009094,0.008057,-0.989685,0.144519,0.401832,-0.237863,59,280,575,5712
1644172820.60885,-0.00647,0.010559,-0.991394,0.175053,0.493435,-0.14626,58,279,580,5728
1644172820.657232,-0.009094,0.006409,-0.993774,0.175053,0.386565,-0.100458,54,275,577,5760
1644172820.705632,-0.010742,0.008179,-0.992798,0.297191,0.325496,0.021679,42,277,589,5648
1644172820.753997,-0.009888,0.010925,-0.994324,0.205588,0.371298,0.052214,46,274,576,5664
1644172820.802474,-0.009705,0.009888,-0.99408,0.266656,0.569771,-0.192061,49,273,582,5760
1644172820.850844,-0.012085,0.010864,-0.992126,0.236122,0.386565,-0.054656,53,276,587,5728
1644172820.899366,-0.00946,0.008545,-0.993347,0.312458,0.325496,-0.100458,52,275,586,5712
1644172820.948092,-0.010437,0.009705,-0.992798,0.159786,0.340763,-0.024122,48,279,573,5664
1644172820.997486,-0.010132,0.008545,-0.990356,0.144519,0.508702,-0.085191,55,274,585,5696
1644172821.063848,-0.009644,0.009155,-0.993774,0.190321,0.386565,0.052214,49,277,586,5712
1644172821.141145,-0.010803,0.010803,-0.989319,0.037649,0.233893,-0.085191,49,273,575,5696
1644172821.189532,-0.011841,0.006958,-0.991272,0.312458,0.356031,-0.100458,53,269,585,5664
1644172821.237919,-0.009827,0.00885,-0.993103,0.342992,0.447634,-0.237863,53,271,583,5728
1644172821.286297,-0.010254,0.01239,-0.991882,0.129252,0.478168,-0.008855,57,265,586,5712
1644172821.334717,-0.012268,0.008484,-0.99408,0.159786,0.386565,0.113282,49,277,577,5728
1644172821.383084,-0.011719,0.009766,-0.99353,0.251389,0.478168,-0.100458,52,265,579,5728
1644172821.431496,-0.008789,0.011658,-0.993652,0.312458,0.356031,-0.024122,46,269,576,5664
1644172821.479885,-0.012634,0.007629,-0.991638,0.419328,0.401832,0.006412,47,275,579,5696
1644172821.528284,-0.009888,0.007812,-0.990173,0.297191,0.478168,-0.008855,46,271,590,5728
1644172821.576672,-0.011658,0.007263,-0.990662,0.297191,0.401832,-0.130992,53,269,576,5664
1644172821.625175,-0.011292,0.008118,-0.990723,0.35826,0.447634,-0.024122,54,265,575,5648
1644172821.673457,-0.009338,0.005981,-0.991394,0.159786,0.432366,-0.024122,48,274,590,5728
1644172821.721837,-0.013123,0.010193,-0.992798,0.327725,0.340763,-0.192061,47,277,572,5712
1644172821.770224,-0.009705,0.008484,-0.992615,0.144519,0.356031,-0.008855,54,265,589,5648
1644172821.818668,-0.012573,0.009949,-0.992493,0.022382,0.401832,-0.054656,62,279,578,5664
1644172821.867052,-0.010376,0.008301,-0.991638,0.281924,0.554504,-0.100458,48,269,590,5696
1644172821.915442,-0.011108,0.010498,-0.990906,0.312458,0.172824,0.052214,49,273,586,5696
1644172821.963837,-0.010376,0.008667,-0.991943,0.205588,0.585038,-0.069924,59,270,572,5728
1644172822.066219,-0.009216,0.011902,-0.991211,0.159786,0.447634,-0.130992,60,283,578,5696
1644172822.109144,-0.010803,0.010925,-0.991028,0.281924,0.294962,-0.024122,46,279,578,5696
1644172822.157335,-0.008911,0.009094,-0.991638,0.175053,0.493435,-0.024122,59,275,575,5696
1644172822.205733,-0.009949,0.01001,-0.993103,0.236122,0.371298,-0.100458,58,269,571,5664
1644172822.254115,-0.006592,0.010376,-0.992737,0.175053,0.432366,-0.115725,45,275,579,5712
1644172822.302542,-0.010132,0.007996,-0.991272,0.312458,0.386565,-0.115725,47,270,577,5760
1644172822.350918,-0.008301,0.007935,-0.992004,0.266656,0.325496,-0.161527,54,282,572,5696
1644172822.39933,-0.011536,0.006775,-0.994629,0.266656,0.447634,-0.115725,40,273,577,5664
1644172822.447685,-0.01062,0.009888,-0.993042,0.312458,0.310229,-0.130992,48,264,585,5712
1644172822.496071,-0.007385,0.009949,-0.993469,0.08345,0.478168,0.021679,57,273,579,5712
1644172822.544496,-0.010681,0.011169,-0.991943,0.266656,0.417099,-0.14626,42,275,579,5712
1644172822.592885,-0.010742,0.010437,-0.991516,0.159786,0.554504,-0.039389,54,275,570,5696
1644172822.641224,-0.009277,0.010803,-0.99353,0.281924,0.401832,-0.176794,57,277,589,5648
1644172822.689641,-0.010559,0.012207,-0.992798,0.205588,0.569771,-0.115725,43,274,590,5760
1644172822.738038,-0.010742,0.008789,-0.992615,0.205588,0.432366,-0.115725,49,273,568,5728
1644172822.786428,-0.01062,0.009827,-0.990479,0.190321,0.432366,-0.115725,51,279,578,5696
1644172822.835732,-0.010071,0.009827,-0.99176,0.266656,0.432366,-0.176794,51,269,583,5696
1644172822.886371,-0.012146,0.009216,-0.992126,0.266656,0.386565,-0.192061,49,280,572,5696
1644172822.93652,-0.008484,0.007751,-0.992493,0.266656,0.371298,-0.024122,54,280,582,5696
1644172822.980931,-0.011292,0.009338,-0.992371,0.281924,0.386565,-0.024122,55,274,585,5696
1644172823.076874,-0.012329,0.008057,-0.991943,0.175053,0.478168,-0.039389,53,279,578,5760
1644172823.1252,-0.011841,0.009521,-0.993042,0.35826,0.462901,-0.039389,47,275,570,5712
1644172823.173556,-0.011658,0.013184,-0.993774,0.220855,0.462901,-0.100458,45,273,577,5760
1644172823.221949,-0.008057,0.009949,-0.990234,0.373527,0.386565,0.082748,51,269,587,5760
1644172823.270348,-0.006653,0.007874,-0.991882,0.327725,0.432366,-0.069924,40,282,575,5712
1644172823.318712,-0.009888,0.010254,-0.992126,0.007115,0.310229,0.036947,46,274,573,5728
1644172823.367114,-0.010803,0.011658,-0.991882,0.251389,0.386565,-0.100458,47,268,579,5664
1644172823.415519,-0.009399,0.008301,-0.991821,0.327725,0.172824,-0.024122,58,271,578,5696
1644172823.463912,-0.009827,0.012329,-0.993103,0.144519,0.356031,-0.283664,51,276,587,5648
1644172823.512311,-0.007935,0.009399,-0.99115,0.205588,0.447634,-0.024122,54,275,575,5712
1644172823.560665,-0.009155,0.008728,-0.991211,0.113985,0.478168,-0.054656,57,282,577,5696
1644172823.609069,-0.01062,0.010254,-0.992737,0.220855,0.386565,-0.039389,42,273,584,5728
1644172823.657439,-0.010437,0.006836,-0.990784,0.205588,0.340763,-0.054656,49,277,579,5696
1644172823.705854,-0.010437,0.014893,-0.991638,0.281924,0.493435,-0.161527,53,281,585,5648
1644172823.754226,-0.009766,0.010864,-0.992859,0.068183,0.508702,-0.115725,57,277,584,5712
1644172823.802663,-0.009521,0.008484,-0.993591,0.35826,0.432366,-0.115725,52,297,575,5664
1644172823.85107,-0.011169,0.010376,-0.993408,0.35826,0.356031,-0.14626,60,283,576,5728
1644172823.899427,-0.008484,0.008728,-0.992981,0.220855,0.523969,-0.115725,48,279,583,5728
1644172823.947862,-0.009521,0.009155,-0.989807,0.159786,0.478168,-0.008855,47,280,584,5664
1644172823.997025,-0.011108,0.009033,-0.993469,0.052916,0.432366,-0.100458,47,285,582,5696
1644172824.068045,-0.010864,0.010376,-0.990723,0.159786,0.356031,-0.085191,59,282,593,5712
1644172824.103633,-0.009399,0.008118,-0.993225,0.281924,0.447634,-0.024122,49,280,579,5696
1644172824.142747,-0.010437,0.01178,-0.994446,0.297191,0.447634,-0.207328,49,273,572,5696
1644172824.238144,-0.009583,0.00824,-0.992554,0.144519,0.325496,-0.054656,48,286,573,5728
1644172824.28653,-0.010498,0.011353,-0.993408,0.175053,0.417099,-0.115725,48,276,585,5760
1644172824.334914,-0.008118,0.011292,-0.992249,0.175053,0.523969,-0.161527,68,277,577,5696
1644172824.383325,-0.009094,0.011047,-0.993958,0.236122,0.554504,-0.268397,45,268,579,5696
1644172824.431726,-0.012329,0.007141,-0.992249,0.190321,0.233893,0.021679,51,276,576,5648
1644172824.480104,-0.011169,0.010132,-0.99231,0.251389,0.340763,-0.069924,57,285,577,5664
1644172824.528489,-0.011414,0.009399,-0.993286,0.327725,0.493435,-0.161527,52,285,568,5648
1644172824.576855,-0.013428,0.009399,-0.992493,0.266656,0.401832,-0.039389,49,287,568,5712
1644172824.625272,-0.011475,0.010559,-0.99231,0.312458,0.493435,-0.039389,52,287,565,5760
1644172824.673682,-0.012878,0.008362,-0.990784,0.373527,0.325496,-0.069924,57,280,577,5664
1644172824.722068,-0.008911,0.009338,-0.99231,0.022382,0.401832,-0.100458,48,283,573,5712
1644172824.770455,-0.011169,0.009644,-0.991333,0.190321,0.386565,-0.024122,59,275,586,5712
1644172824.81885,-0.011108,0.007751,-0.992737,0.251389,0.325496,-0.115725,46,264,576,5664
1644172824.867275,-0.012146,0.008911,-0.995117,0.342992,0.401832,-0.192061,46,271,569,5712
1644172824.915672,-0.007568,0.007324,-0.991394,0.190321,0.447634,-0.054656,52,270,577,5696
1644172824.964062,-0.009216,0.008179,-0.994019,0.327725,0.371298,0.098015,52,277,586,5696
1644172825.062365,-0.007324,0.01062,-0.990967,0.220855,0.371298,-0.039389,52,282,589,5760
1644172825.109202,-0.009399,0.01062,-0.991028,0.190321,0.386565,-0.039389,40,282,575,5712
1644172825.157606,-0.008972,0.010742,-0.992554,0.220855,0.478168,0.006412,45,275,570,5808
1644172825.205967,-0.008789,0.006958,-0.989807,0.388794,0.356031,0.021679,48,274,569,5760
1644172825.254341,-0.007812,0.007507,-0.99176,0.113985,0.401832,-0.192061,58,276,571,5696
1644172825.302768,-0.009766,0.013489,-0.991455,0.297191,0.371298,-0.024122,49,268,577,5696
1644172825.351145,-0.012329,0.01239,-0.992126,0.220855,0.508702,-0.222595,42,275,579,5664
1644172825.399537,-0.008423,0.01001,-0.990784,0.236122,0.508702,-0.085191,60,276,571,5648
1644172825.447923,-0.009644,0.009521,-0.991394,0.190321,0.401832,-0.024122,46,274,571,5728
1644172825.496293,-0.010803,0.008179,-0.991699,0.434595,0.356031,-0.054656,51,274,583,5728
1644172825.544722,-0.012268,0.009094,-0.990906,0.312458,0.447634,-0.14626,49,277,572,5712
1644172825.593062,-0.00946,0.009827,-0.991516,0.236122,0.371298,-0.100458,58,283,566,5760
1644172825.641486,-0.007446,0.010559,-0.991943,0.449863,0.462901,-0.085191,49,275,579,5712
1644172825.689871,-0.009216,0.011597,-0.990967,0.266656,0.356031,-0.069924,51,281,580,5664
1644172825.738269,-0.008789,0.01062,-0.990295,0.251389,0.371298,-0.024122,43,276,571,5696
1644172825.786654,-0.008667,0.008362,-0.991394,0.236122,0.371298,-0.039389,46,274,578,5712
1644172825.835086,-0.009155,0.007935,-0.992004,0.113985,0.539237,0.052214,52,275,579,5696
1644172825.883489,-0.007874,0.009766,-0.991333,0.220855,0.386565,-0.14626,55,279,576,5664
1644172825.932203,-0.008606,0.011963,-0.98999,0.220855,0.401832,-0.161527,54,268,572,5712
1644172825.982682,-0.007385,0.012817,-0.991577,0.236122,0.386565,-0.130992,48,276,573,5696
1644172826.033716,-0.010742,0.009521,-0.994324,0.327725,0.447634,0.052214,53,274,576,5696
1644172826.079266,-0.011292,0.009583,-0.991516,0.144519,0.371298,-0.176794,58,276,583,5728
1644172826.17379,-0.013733,0.00946,-0.992004,0.281924,0.371298,-0.024122,45,273,565,5696
1644172826.222397,-0.007751,0.008606,-0.991943,0.022382,0.478168,0.052214,55,281,587,5728
1644172826.270554,-0.012207,0.010864,-0.989746,0.297191,0.386565,-0.039389,52,280,577,5696
1644172826.318955,-0.009155,0.009094,-0.994141,0.175053,0.447634,-0.176794,61,275,577,5664
1644172826.367339,-0.009644,0.010254,-0.991577,0.08345,0.447634,-0.161527,47,270,572,5712
1644172826.415735,-0.009521,0.009644,-0.990051,0.266656,0.401832,-0.069924,43,271,573,5696
1644172826.464133,-0.007874,0.01123,-0.992981,0.205588,0.310229,-0.14626,51,279,578,5728
1644172826.512531,-0.008484,0.007019,-0.990845,0.220855,0.310229,0.082748,41,274,571,5664
1644172826.560899,-0.010071,0.011841,-0.98877,0.281924,0.462901,-0.115725,49,280,575,5696
1644172826.609307,-0.008789,0.008972,-0.99054,0.251389,0.233893,-0.054656,47,273,575,5712
1644172826.657693,-0.007996,0.00769,-0.992249,0.190321,0.447634,0.052214,48,281,569,5664
1644172826.706082,-0.009399,0.008667,-0.993164,0.129252,0.447634,-0.130992,49,277,575,5664
1644172826.754484,-0.008606,0.012939,-0.990784,0.220855,0.493435,-0.161527,49,275,582,5760
1644172826.802922,-0.010864,0.011841,-0.991699,0.08345,0.325496,-0.207328,48,276,580,5696
1644172826.851267,-0.007568,0.00946,-0.994019,0.281924,0.371298,-0.008855,55,274,583,5648
1644172826.900182,-0.00824,0.010315,-0.991638,0.312458,0.264427,0.052214,52,275,584,5760
1644172826.948076,-0.007629,0.009888,-0.989502,0.068183,0.401832,0.052214,57,265,589,5728
1644172826.996676,-0.010559,0.009521,-0.991455,0.281924,0.371298,-0.100458,52,265,577,5648
1644172827.056703,-0.009949,0.008911,-0.992188,0.388794,0.401832,0.036947,52,270,577,5648
1644172827.100009,-0.009277,0.011047,-0.991699,0.159786,0.264427,-0.192061,51,274,571,5696
1644172827.143962,-0.01062,0.012146,-0.994202,0.205588,0.401832,-0.161527,53,279,580,5696
1644172827.193952,-0.009094,0.009399,-0.990295,0.175053,0.447634,-0.100458,47,270,575,5664
1644172827.239271,-0.010132,0.008301,-0.991089,0.281924,0.371298,-0.192061,52,285,568,5728
1644172827.33537,-0.011353,0.009949,-0.991272,0.144519,0.554504,-0.115725,49,268,582,5760
1644172827.383562,-0.009583,0.009155,-0.992432,0.281924,0.722443,0.021679,57,277,579,5696
1644172827.431952,-0.007446,0.007874,-0.992432,0.342992,0.493435,-0.14626,46,271,571,5696
1644172827.48029,-0.013306,0.009705,-0.990479,0.297191,0.600305,-0.115725,53,269,578,5728
1644172827.528723,-0.008911,0.010803,-0.99292,0.129252,0.432366,-0.14626,55,274,571,5696
1644172827.577106,-0.010742,0.01001,-0.992188,0.297191,0.401832,-0.069924,47,273,577,5712
1644172827.625504,-0.010132,0.007019,-0.993713,0.297191,0.386565,0.021679,58,274,576,5648
1644172827.673895,-0.009033,0.007874,-0.993469,0.175053,0.417099,0.006412,49,275,582,5760
1644172827.722306,-0.012024,0.008057,-0.993103,0.236122,0.386565,0.067481,48,269,569,5648
1644172827.770681,-0.011963,0.008179,-0.994019,0.327725,0.417099,-0.054656,47,273,568,5712
1644172827.819108,-0.011841,0.010193,-0.992371,0.266656,0.539237,-0.176794,52,270,568,5696
1644172827.867497,-0.009094,0.007935,-0.992493,0.175053,0.356031,-0.176794,54,277,589,5760
1644172827.915887,-0.011963,0.009155,-0.991211,0.46513,0.294962,-0.222595,54,270,563,5712
1644172827.964273,-0.007996,0.007385,-0.993835,0.251389,0.264427,0.082748,48,276,576,5712
1644172828.012683,-0.006958,0.008911,-0.992188,0.297191,0.523969,0.006412,52,268,584,5712
1644172828.073158,-0.007385,0.010925,-0.99115,0.190321,0.447634,-0.130992,51,269,590,5728
1644172828.110798,-0.010681,0.008789,-0.992554,0.037649,0.417099,-0.085191,52,277,575,5664
1644172828.157803,-0.009338,0.01062,-0.991577,0.144519,0.371298,-0.100458,52,265,582,5712
1644172828.206195,-0.007629,0.009277,-0.992676,0.373527,0.554504,-0.176794,45,275,584,5664
1644172828.255016,-0.008362,0.01001,-0.992126,0.312458,0.462901,-0.008855,51,274,578,5696
1644172828.305283,-0.010742,0.009216,-0.993103,0.266656,0.478168,-0.100458,51,269,583,5664
1644172828.35557,-0.014099,0.009705,-0.991821,0.266656,0.386565,-0.024122,53,271,576,5712
1644172828.40059,-0.005859,0.010742,-0.989136,0.251389,0.264427,-0.100458,49,275,575,5760
1644172828.496515,-0.009277,0.01001,-0.98999,0.297191,0.371298,-0.008855,38,273,575,5696
1644172828.545021,-0.009705,0.008545,-0.992371,0.312458,0.478168,-0.069924,49,285,579,5728
1644172828.593324,-0.009521,0.011536,-0.991943,0.205588,0.340763,-0.100458,55,274,587,5648
1644172828.641725,-0.009583,0.010803,-0.993835,0.327725,0.600305,-0.039389,54,270,572,5760
1644172828.690099,-0.010315,0.012329,-0.993408,0.220855,0.386565,0.067481,52,270,584,5776
1644172828.738468,-0.009705,0.007385,-0.989685,0.312458,0.264427,-0.161527,52,277,572,5696
1644172828.786883,-0.008911,0.010498,-0.990356,0.175053,0.401832,0.067481,54,282,577,5712
1644172828.83534,-0.009094,0.00885,-0.99176,0.281924,0.462901,0.052214,43,274,566,5696
1644172828.883716,-0.01123,0.010254,-0.992371,0.251389,0.401832,-0.069924,51,271,580,5712
1644172828.932083,-0.009949,0.010254,-0.991455,0.205588,0.371298,-0.237863,54,275,584,5760
1644172828.980471,-0.01062,0.012207,-0.992065,0.175053,0.371298,-0.222595,49,280,575,5664
1644172829.028868,-0.006104,0.010986,-0.993103,0.236122,0.447634,-0.054656,52,273,582,5696
1644172829.079687,-0.010437,0.009583,-0.990723,0.129252,0.386565,-0.161527,54,273,577,5760
1644172829.125627,-0.009399,0.007324,-0.992615,0.266656,0.447634,-0.161527,45,270,589,5728
1644172829.173986,-0.011414,0.007935,-0.994324,0.312458,0.310229,-0.085191,52,275,584,5696
1644172829.222698,-0.010315,0.009155,-0.99054,0.35826,0.340763,-0.207328,58,279,583,5776
1644172829.272033,-0.00885,0.008606,-0.991455,0.08345,0.417099,-0.237863,48,281,578,5808
1644172829.322397,-0.010864,0.008789,-0.98999,0.281924,0.447634,-0.192061,52,263,577,5760
1644172829.372781,-0.012573,0.008301,-0.993469,0.190321,0.340763,-0.069924,49,277,584,5728
1644172829.464358,-0.009583,0.011658,-0.991882,0.404061,0.203359,-0.207328,47,268,577,5664
1644172829.512748,-0.008301,0.010254,-0.991028,0.342992,0.462901,-0.069924,53,266,571,5696
1644172829.561139,-0.010986,0.011841,-0.990295,0.236122,0.432366,0.006412,48,269,576,5664
1644172829.609516,-0.008179,0.011719,-0.992981,0.312458,0.432366,-0.237863,47,275,575,5728
1644172829.657915,-0.012268,0.010193,-0.992004,0.312458,0.401832,-0.054656,54,273,577,5696
1644172829.706299,-0.010925,0.009399,-0.994324,0.266656,0.401832,-0.207328,54,270,586,5808
1644172829.75469,-0.010437,0.010925,-0.989685,0.190321,0.386565,-0.069924,46,276,573,5648
1644172829.803104,-0.010864,0.009521,-0.992981,0.144519,0.569771,0.036947,46,276,580,5696
1644172829.851532,-0.009216,0.01062,-0.992188,0.281924,0.401832,-0.054656,52,275,579,5808
1644172829.899904,-0.010864,0.009888,-0.989746,0.312458,0.462901,-0.008855,36,274,573,5664
1644172829.948305,-0.010071,0.007935,-0.991089,0.037649,0.462901,-0.085191,48,276,573,5664
1644172829.996657,-0.008728,0.006897,-0.992493,0.220855,0.356031,0.036947,52,268,572,5728
1644172830.054248,-0.01001,0.006836,-0.992798,0.144519,0.401832,-0.130992,43,286,580,5664
1644172830.095565,-0.009949,0.009949,-0.992065,0.236122,0.493435,-0.069924,53,281,573,5728
1644172830.141832,-0.009583,0.009338,-0.990601,0.190321,0.356031,-0.14626,51,274,576,5664
1644172830.190214,-0.009216,0.007446,-0.992859,0.297191,0.417099,0.006412,58,279,583,5648
1644172830.238601,-0.011169,0.009399,-0.98999,0.236122,0.340763,-0.085191,52,270,584,5696
1644172830.286992,-0.010193,0.009521,-0.992615,0.327725,0.356031,-0.008855,59,277,582,5696
1644172830.335392,-0.009888,0.009338,-0.993652,0.297191,0.386565,-0.130992,41,264,569,5648
1644172830.384289,-0.00946,0.010254,-0.993713,0.205588,0.508702,-0.069924,57,270,586,5664
1644172830.434419,-0.011414,0.008789,-0.991943,0.419328,0.493435,-0.115725,55,283,590,5696
1644172830.484634,-0.010437,0.009094,-0.990234,0.266656,0.386565,-0.192061,49,273,570,5632
1644172830.529757,-0.011597,0.010498,-0.990723,0.266656,0.432366,-0.115725,42,273,570,5664
1644172830.625709,-0.007996,0.011047,-0.991516,0.419328,0.554504,-0.008855,57,273,579,5760
1644172830.674135,-0.008423,0.010742,-0.992676,0.175053,0.600305,-0.130992,42,260,570,5712
1644172830.72253,-0.008911,0.009705,-0.990662,0.159786,0.432366,0.052214,45,277,582,5696
1644172830.770898,-0.009521,0.012512,-0.994141,0.342992,0.417099,-0.176794,52,275,572,5664
1644172830.819298,-0.009216,0.006653,-0.991943,0.190321,0.325496,-0.024122,42,258,584,5712
1644172830.867727,-0.012878,0.007751,-0.992004,0.175053,0.401832,-0.024122,41,281,569,5728
1644172830.916101,-0.008728,0.008484,-0.992432,0.205588,0.401832,0.036947,46,276,580,5632
1644172830.964521,-0.011292,0.008606,-0.991394,0.159786,0.371298,-0.069924,55,266,578,5696
1644172831.012912,-0.012573,0.008484,-0.992188,0.205588,0.523969,-0.085191,58,269,573,5664
1644172831.065593,-0.012329,0.01001,-0.992981,0.327725,0.447634,-0.069924,46,269,580,5648
1644172831.10963,-0.012329,0.009949,-0.993408,0.205588,0.371298,-0.054656,54,280,584,5760
1644172831.158035,-0.012512,0.008667,-0.992798,0.175053,0.493435,-0.100458,53,274,576,5712
1644172831.206402,-0.011902,0.007263,-0.991821,0.190321,0.432366,-0.176794,41,276,587,5696
1644172831.254842,-0.012634,0.006409,-0.991516,0.205588,0.539237,-0.039389,51,271,576,5760
1644172831.30321,-0.01062,0.009705,-0.992981,0.297191,0.478168,-0.008855,45,277,582,5664
1644172831.351567,-0.009155,0.009277,-0.991943,0.205588,0.539237,-0.115725,51,269,576,5584
1644172831.399976,-0.008728,0.010193,-0.98999,0.327725,0.294962,0.067481,41,276,576,5728
1644172831.448369,-0.008789,0.009277,-0.990723,0.220855,0.310229,-0.008855,59,268,586,5696
1644172831.496753,-0.009216,0.006775,-0.993408,0.190321,0.478168,-0.115725,51,281,573,5728
1644172831.545524,-0.00946,0.01416,-0.989075,0.190321,0.478168,0.021679,41,279,585,5712
1644172831.596292,-0.009338,0.011047,-0.991516,0.236122,0.401832,-0.176794,54,268,584,5728
1644172831.646289,-0.011658,0.008789,-0.99292,0.281924,0.386565,-0.115725,51,264,576,5728
1644172831.691256,-0.010864,0.008057,-0.992859,0.236122,0.340763,-0.130992,51,283,571,5648
1644172831.787095,-0.009827,0.008972,-0.990906,0.190321,0.432366,-0.100458,45,277,577,5664
1644172831.835478,-0.011475,0.009827,-0.993896,0.342992,0.478168,0.021679,46,279,576,5776
1644172831.88394,-0.011353,0.009399,-0.993469,0.205588,0.417099,-0.039389,55,269,576,5728
1644172831.932405,-0.009399,0.009033,-0.992432,0.052916,0.340763,-0.069924,42,280,577,5712
1644172831.98072,-0.012756,0.008972,-0.990112,0.327725,0.325496,-0.100458,45,273,577,5664
1644172832.029115,-0.009155,0.009766,-0.989136,0.113985,0.417099,-0.039389,49,277,570,5664
1644172832.079021,-0.012878,0.010071,-0.990601,0.297191,0.523969,-0.069924,42,268,577,5664
1644172832.125846,-0.00946,0.008423,-0.989197,0.266656,0.356031,-0.085191,46,276,573,5712
1644172832.174262,-0.011902,0.009155,-0.990723,0.144519,0.432366,-0.085191,48,276,583,5696
1644172832.222639,-0.012146,0.009521,-0.989624,0.251389,0.417099,-0.069924,48,266,580,5712
1644172832.271031,-0.008057,0.011902,-0.992249,0.266656,0.539237,-0.008855,43,274,578,5664
1644172832.319376,-0.010254,0.010925,-0.992004,0.236122,0.203359,-0.14626,53,274,580,5712
1644172832.367799,-0.010498,0.009033,-0.992554,0.342992,0.493435,-0.222595,42,268,568,5648
1644172832.416189,-0.012756,0.007446,-0.992615,0.190321,0.493435,-0.130992,47,280,575,5696
1644172832.464632,-0.007874,0.010437,-0.992188,0.190321,0.401832,-0.024122,53,269,580,5648
1644172832.512949,-0.010437,0.008606,-0.993347,0.144519,0.401832,-0.14626,40,275,575,5648
1644172832.561362,-0.009399,0.007874,-0.990845,0.220855,0.447634,-0.054656,53,276,580,5664
1644172832.609751,-0.00769,0.012695,-0.990601,0.159786,0.417099,0.082748,46,266,576,5696
1644172832.658148,-0.011536,0.010376,-0.990723,0.220855,0.279695,0.021679,43,276,578,5664
1644172832.706559,-0.010315,0.009094,-0.990845,0.342992,0.508702,-0.054656,43,264,578,5728
1644172832.756838,-0.010254,0.00769,-0.991699,0.327725,0.356031,-0.14626,55,274,576,5696
1644172832.807285,-0.010315,0.007812,-0.98999,0.175053,0.523969,-0.100458,46,279,580,5696
1644172832.852473,-0.010193,0.010315,-0.991699,0.266656,0.310229,0.021679,58,269,576,5712
1644172832.948506,-0.009644,0.009521,-0.992004,0.449863,0.478168,-0.130992,48,262,585,5664
1644172832.996917,-0.011597,0.00824,-0.994629,0.190321,0.432366,0.036947,52,268,582,5696
1644172833.054549,-0.009888,0.009766,-0.994629,0.220855,0.401832,-0.054656,53,276,576,5760
1644172833.09685,-0.012207,0.010315,-0.990662,0.175053,0.401832,0.082748,51,279,571,5664
1644172833.142063,-0.011963,0.009521,-0.990662,0.190321,0.539237,-0.100458,46,276,571,5712
1644172833.190437,-0.012329,0.009094,-0.992615,0.297191,0.371298,-0.024122,52,273,579,5712
1644172833.238824,-0.010559,0.009277,-0.990662,0.251389,0.447634,-0.024122,47,275,572,5664
1644172833.287195,-0.011475,0.007507,-0.990356,0.175053,0.340763,-0.024122,42,268,582,5696
1644172833.335607,-0.012573,0.008362,-0.995117,0.113985,0.401832,-0.069924,65,274,592,5728
1644172833.384001,-0.011353,0.009888,-0.989929,0.342992,0.294962,-0.085191,41,276,578,5696
1644172833.432409,-0.008972,0.007446,-0.991272,0.113985,0.432366,-0.161527,46,279,576,5664
1644172833.480775,-0.009094,0.011292,-0.990784,0.297191,0.386565,-0.130992,51,281,580,5712
1644172833.529176,-0.009583,0.008301,-0.993591,0.297191,0.310229,-0.024122,36,269,569,5696
1644172833.577715,-0.00885,0.010803,-0.991333,0.236122,0.386565,-0.069924,41,269,571,5760
1644172833.62816,-0.011658,0.009338,-0.993347,0.327725,0.294962,-0.14626,58,271,571,5728
1644172833.678307,-0.010986,0.010925,-0.989929,0.190321,0.523969,0.067481,46,266,583,5648
1644172833.723342,-0.007019,0.011353,-0.991394,0.251389,0.325496,0.036947,53,269,580,5760
1644172833.819498,-0.00769,0.009644,-0.993713,0.220855,0.447634,0.036947,45,282,584,5696
1644172833.867877,-0.008301,0.009033,-0.991577,0.297191,0.478168,-0.008855,45,260,579,5712
1644172833.916339,-0.009521,0.011963,-0.991089,0.327725,0.462901,-0.176794,52,294,579,5696
1644172833.964741,-0.00885,0.013245,-0.991821,0.190321,0.340763,-0.069924,41,269,571,5760
1644172834.013141,-0.009155,0.007507,-0.993469,0.205588,0.432366,-0.054656,54,275,568,5760
1644172834.062574,-0.009338,0.010132,-0.98999,0.236122,0.462901,-0.192061,47,270,579,5712
1644172834.109853,-0.007629,0.010559,-0.993042,0.342992,0.523969,-0.222595,45,277,582,5696
1644172834.158252,-0.01062,0.009888,-0.992737,0.052916,0.432366,-0.176794,51,279,573,5712
1644172834.206643,-0.006226,0.009155,-0.993774,0.266656,0.310229,-0.207328,52,268,570,5760
1644172834.255167,-0.009094,0.00946,-0.990417,0.342992,0.508702,-0.054656,58,276,578,5664
1644172834.303427,-0.008606,0.008789,-0.991455,0.236122,0.310229,-0.069924,58,274,576,5728
1644172834.351809,-0.011963,0.008118,-0.99353,0.144519,0.401832,-0.14626,47,275,584,5760
1644172834.400207,-0.008606,0.009033,-0.989624,0.175053,0.539237,-0.008855,40,270,577,5696
1644172834.448598,-0.010803,0.010925,-0.993103,0.144519,0.569771,-0.085191,42,277,577,5696
1644172834.496997,-0.011475,0.009827,-0.99176,0.312458,0.554504,-0.268397,49,282,577,5696
1644172834.545378,-0.01178,0.01123,-0.992432,0.175053,0.417099,-0.130992,59,270,584,5696
1644172834.593768,-0.011292,0.007019,-0.993225,0.297191,0.478168,-0.100458,52,273,579,5696
1644172834.642176,-0.012085,0.007507,-0.991699,0.129252,0.340763,-0.054656,48,279,580,5760
1644172834.690546,-0.011658,0.009277,-0.99408,0.388794,0.417099,-0.207328,52,265,570,5712
1644172834.73899,-0.00885,0.010925,-0.992432,0.281924,0.340763,-0.085191,48,271,585,5760
1644172834.789855,-0.010986,0.007812,-0.994263,0.404061,0.356031,-0.054656,51,269,564,5760
1644172834.840675,-0.009827,0.009338,-0.990784,0.388794,0.386565,-0.039389,46,274,583,5664
1644172834.885321,-0.010254,0.009033,-0.991943,0.236122,0.340763,-0.130992,51,269,573,5696
1644172834.980941,-0.009705,0.008972,-0.993225,0.144519,0.432366,-0.085191,46,266,585,5728
1644172835.029323,-0.008301,0.011292,-0.989746,0.236122,0.478168,-0.054656,47,275,570,5728
1644172835.07778,-0.007935,0.009827,-0.990906,0.404061,0.386565,-0.14626,58,276,580,5776
1644172835.126072,-0.013123,0.007874,-0.992065,0.236122,0.539237,-0.237863,41,283,576,5696
1644172835.174482,-0.01062,0.009521,-0.98999,0.190321,0.417099,0.006412,51,281,571,5824
1644172835.222869,-0.010315,0.011475,-0.992981,0.327725,0.478168,-0.115725,48,269,576,5760
1644172835.271237,-0.010498,0.008362,-0.992981,0.35826,0.447634,-0.115725,58,283,571,5712
1644172835.319631,-0.011108,0.012207,-0.992859,0.312458,0.386565,0.006412,49,265,568,5696
1644172835.368024,-0.009949,0.007751,-0.994324,0.281924,0.508702,0.067481,57,275,586,5808
1644172835.416419,-0.011414,0.009949,-0.99292,0.190321,0.493435,-0.024122,59,270,577,5664
1644172835.464793,-0.012207,0.011475,-0.993042,0.220855,0.417099,-0.130992,47,270,565,5728
1644172835.513191,-0.011353,0.010254,-0.993103,0.342992,0.462901,-0.039389,43,276,580,5728
1644172835.561575,-0.008972,0.011475,-0.991516,0.266656,0.417099,-0.024122,49,280,586,5696
1644172835.609979,-0.011047,0.008789,-0.993835,0.419328,0.356031,-0.115725,52,273,575,5696
1644172835.658366,-0.00946,0.005981,-0.991516,0.205588,0.432366,-0.054656,51,274,585,5648
1644172835.70676,-0.009644,0.009583,-0.991455,0.327725,0.371298,-0.100458,53,271,576,5696
1644172835.755197,-0.007446,0.010925,-0.99353,0.266656,0.447634,-0.100458,57,270,584,5696
1644172835.803578,-0.008362,0.008545,-0.991943,0.312458,0.310229,-0.008855,47,275,582,5696
1644172835.853267,-0.009033,0.009399,-0.990662,0.220855,0.432366,0.006412,46,271,583,5664
1644172835.904021,-0.006775,0.011597,-0.99115,0.35826,0.462901,-0.100458,41,266,578,5696
1644172835.953604,-0.010803,0.011902,-0.990906,0.297191,0.478168,-0.054656,46,269,578,5664
1644172835.998311,-0.008301,0.013306,-0.991333,0.297191,0.447634,-0.100458,46,276,583,5728
1644172836.09516,-0.01062,0.011169,-0.994812,0.236122,0.523969,-0.237863,48,276,576,5728
1644172836.142259,-0.010803,0.009521,-0.989807,0.098718,0.447634,-0.14626,53,274,576,5696
1644172836.19067,-0.011658,0.010376,-0.992554,0.098718,0.432366,-0.008855,40,273,575,5728
1644172836.23904,-0.009216,0.009338,-0.995605,0.159786,0.478168,-0.100458,55,269,580,5664
1644172836.287443,-0.009766,0.009888,-0.994019,0.281924,0.447634,-0.054656,49,277,579,5664
1644172836.33584,-0.008667,0.010315,-0.990234,0.175053,0.401832,-0.161527,52,277,570,5712
1644172836.384235,-0.010254,0.011292,-0.990479,0.236122,0.386565,0.021679,52,273,575,5728
1644172836.432637,-0.007812,0.009399,-0.990356,0.236122,0.386565,-0.008855,40,277,572,5712
1644172836.481009,-0.011108,0.008545,-0.990173,0.251389,0.462901,-0.176794,55,276,571,5696
1644172836.529406,-0.010254,0.009399,-0.989746,0.251389,0.417099,0.006412,51,276,573,5696
1644172836.577797,-0.010803,0.010742,-0.99292,0.175053,0.447634,0.098015,54,275,568,5712
1644172836.626185,-0.009216,0.010315,-0.993652,0.297191,0.386565,-0.039389,51,274,576,5664
1644172836.674689,-0.007629,0.011108,-0.989441,0.190321,0.386565,-0.176794,47,268,577,5760
1644172836.722941,-0.006348,0.008667,-0.990784,0.297191,0.432366,-0.054656,60,271,573,5648
1644172836.771348,-0.008484,0.010315,-0.991577,0.205588,0.447634,-0.115725,51,269,583,5696
1644172836.819757,-0.011597,0.007141,-0.99292,0.281924,0.478168,0.067481,51,274,573,5760
1644172836.868148,-0.010071,0.01062,-0.991699,0.190321,0.493435,-0.085191,48,274,578,5664
1644172836.916582,-0.008423,0.010559,-0.99469,0.312458,0.340763,0.036947,55,286,580,5664
1644172836.965118,-0.011108,0.009888,-0.990723,0.266656,0.401832,-0.192061,45,273,579,5664
1644172837.015413,-0.011597,0.01123,-0.993225,0.236122,0.523969,-0.130992,47,277,584,5696
1644172837.078743,-0.010925,0.012268,-0.991333,0.236122,0.386565,-0.161527,53,281,578,5728
1644172837.158454,-0.010742,0.008179,-0.99176,0.327725,0.294962,0.052214,47,268,561,5760
1644172837.206863,-0.012024,0.011475,-0.993774,0.220855,0.569771,-0.283664,43,271,576,5664
1644172837.25538,-0.007874,0.008667,-0.992676,0.205588,0.432366,0.036947,47,275,577,5664
1644172837.303663,-0.010864,0.008484,-0.992188,0.297191,0.462901,-0.039389,48,266,585,5728
1644172837.352018,-0.011536,0.010742,-0.991821,0.068183,0.447634,-0.176794,60,271,580,5664
1644172837.40044,-0.008667,0.008911,-0.991394,0.266656,0.233893,-0.14626,53,269,576,5728
1644172837.448815,-0.012695,0.010742,-0.992126,0.281924,0.356031,0.021679,48,283,573,5712
1644172837.497226,-0.009766,0.010559,-0.990723,0.342992,0.401832,-0.161527,52,280,575,5728
1644172837.545601,-0.011108,0.007263,-0.991943,0.327725,0.417099,0.098015,53,281,573,5696
1644172837.594006,-0.008667,0.010498,-0.990479,0.159786,0.417099,-0.054656,46,283,573,5696
1644172837.642394,-0.009583,0.008423,-0.993408,0.297191,0.523969,-0.100458,45,273,563,5648
1644172837.69077,-0.010071,0.009583,-0.990295,0.35826,0.432366,0.036947,43,279,573,5712
1644172837.739164,-0.00946,0.008423,-0.992249,0.236122,0.386565,-0.024122,58,274,569,5664
1644172837.787555,-0.010742,0.008606,-0.989746,0.373527,0.386565,-0.085191,46,276,580,5696
1644172837.835999,-0.010376,0.009766,-0.993591,0.068183,0.401832,-0.054656,48,264,571,5696
1644172837.884376,-0.010376,0.012451,-0.990723,0.220855,0.325496,-0.100458,54,273,577,5712
1644172837.93279,-0.011841,0.009094,-0.991089,0.205588,0.371298,-0.024122,54,275,570,5664
1644172837.981225,-0.01001,0.011536,-0.991821,0.205588,0.493435,-0.161527,59,263,584,5712
1644172838.02958,-0.007507,0.008179,-0.99176,0.404061,0.462901,-0.115725,48,279,569,5760
1644172838.095039,-0.009155,0.009155,-0.989502,0.175053,0.417099,-0.25313,47,275,577,5664
1644172838.130231,-0.008667,0.011597,-0.992249,0.159786,0.417099,-0.024122,53,271,573,5648
1644172838.17893,-0.010132,0.007446,-0.993286,0.312458,0.371298,-0.024122,57,273,577,5664
1644172838.224062,-0.011169,0.010132,-0.989685,0.144519,0.493435,0.067481,55,269,576,5600
1644172838.319845,-0.010254,0.008911,-0.993835,0.373527,0.294962,-0.008855,55,271,576,5664
1644172838.368235,-0.012207,0.009583,-0.992554,0.266656,0.539237,-0.237863,46,283,571,5696
1644172838.416629,-0.01178,0.011414,-0.991394,0.205588,0.447634,0.006412,41,279,578,5808
1644172838.465264,-0.008545,0.009399,-0.991638,0.175053,0.356031,-0.14626,53,266,576,5664
1644172838.513427,-0.009521,0.01123,-0.990295,0.281924,0.325496,-0.161527,38,280,572,5696
1644172838.561821,-0.009827,0.008484,-0.991089,0.220855,0.310229,-0.115725,49,275,579,5664
1644172838.6102,-0.007263,0.010742,-0.992126,0.220855,0.447634,-0.024122,47,275,568,5728
1644172838.658592,-0.007446,0.01239,-0.990479,0.297191,0.294962,-0.054656,45,273,570,5664
1644172838.706987,-0.010559,0.008972,-0.990723,0.297191,0.386565,0.143817,53,276,573,5776
1644172838.755383,-0.010437,0.010986,-0.990662,0.236122,0.478168,-0.054656,45,282,570,5664
1644172838.803778,-0.009399,0.010376,-0.989746,0.297191,0.523969,-0.161527,41,279,583,5648
1644172838.852255,-0.011963,0.008789,-0.989807,0.251389,0.401832,-0.130992,47,268,584,5760
1644172838.900588,-0.009399,0.006531,-0.99176,0.220855,0.447634,-0.008855,52,277,579,5664
1644172838.948977,-0.010132,0.010925,-0.992676,0.312458,0.478168,-0.054656,42,273,589,5664
1644172838.997374,-0.007874,0.00946,-0.991211,0.175053,0.386565,-0.14626,52,282,577,5696
1644172839.055421,-0.010254,0.008423,-0.991943,0.266656,0.478168,-0.100458,52,268,577,5712
1644172839.094176,-0.011108,0.009949,-0.990479,0.434595,0.417099,0.006412,57,263,584,5648
1644172839.142754,-0.006958,0.009766,-0.98938,0.190321,0.233893,-0.176794,52,273,589,5696
1644172839.191133,-0.011108,0.011841,-0.991211,0.220855,0.523969,-0.130992,55,269,579,5728
1644172839.241878,-0.012451,0.008728,-0.990662,0.236122,0.279695,-0.130992,47,277,575,5712
1644172839.291671,-0.008667,0.010681,-0.991272,0.327725,0.310229,-0.115725,55,271,583,5760
1644172839.336948,-0.012207,0.009583,-0.992737,0.205588,0.432366,-0.008855,48,276,566,5712
1644172839.432856,-0.00946,0.011414,-0.991516,0.266656,0.447634,-0.283664,53,276,580,5712
1644172839.481211,-0.009277,0.01123,-0.989807,0.35826,0.294962,0.006412,41,281,578,5696
1644172839.529629,-0.011292,0.007996,-0.990173,0.236122,0.356031,-0.069924,60,276,573,5664
1644172839.57802,-0.009216,0.012207,-0.991211,0.342992,0.447634,-0.298931,48,279,571,5648
1644172839.6264,-0.008667,0.011597,-0.992371,0.251389,0.401832,-0.024122,52,270,579,5664
1644172839.6748,-0.011353,0.010071,-0.991028,0.129252,0.478168,-0.069924,49,280,572,5632
1644172839.723201,-0.012634,0.008545,-0.992004,0.220855,0.386565,-0.161527,53,264,576,5696
1644172839.77159,-0.007507,0.009155,-0.992249,0.297191,0.523969,0.021679,60,286,571,5664
1644172839.819979,-0.006165,0.010315,-0.992004,0.281924,0.417099,0.021679,57,273,568,5760
1644172839.868402,-0.01239,0.008545,-0.993042,0.220855,0.417099,-0.069924,52,275,575,5712
1644172839.916812,-0.008728,0.008545,-0.990601,0.129252,0.233893,-0.054656,53,269,573,5696
1644172839.965309,-0.010376,0.010376,-0.991028,0.175053,0.432366,0.159084,49,263,577,5664
1644172840.013568,-0.010986,0.011169,-0.988708,0.159786,0.356031,-0.161527,46,276,580,5760
1644172840.073369,-0.008606,0.008362,-0.991028,0.281924,0.310229,-0.024122,47,270,584,5712
1644172840.110374,-0.01062,0.010071,-0.990479,0.281924,0.340763,-0.14626,57,277,577,5696
1644172840.158675,-0.006592,0.00885,-0.99054,0.342992,0.523969,-0.069924,49,277,584,5760
1644172840.207097,-0.010376,0.01178,-0.990784,0.236122,0.294962,-0.069924,58,279,590,5664
1644172840.255466,-0.010315,0.010376,-0.991699,0.236122,0.371298,-0.207328,45,282,589,5664
1644172840.303877,-0.009888,0.008789,-0.993225,0.312458,0.447634,-0.130992,43,276,585,5712
1644172840.352308,-0.00946,0.00885,-0.990173,0.312458,0.432366,0.113282,51,274,569,5696
1644172840.40316,-0.011475,0.009888,-0.991089,0.159786,0.386565,-0.100458,52,275,579,5712
1644172840.454012,-0.012146,0.006348,-0.990234,0.327725,0.447634,-0.054656,55,283,580,5712
1644172840.498508,-0.01123,0.010681,-0.991211,0.266656,0.447634,-0.054656,38,275,570,5664
1644172840.594223,-0.010071,0.011108,-0.991333,0.098718,0.508702,-0.176794,60,283,571,5712
1644172840.642626,-0.011536,0.009521,-0.989868,0.266656,0.401832,-0.14626,46,264,573,5664
1644172840.690996,-0.010803,0.010498,-0.995178,0.281924,0.325496,-0.054656,57,275,582,5664
1644172840.739391,-0.014221,0.00647,-0.993469,0.220855,0.325496,-0.115725,58,271,573,5696
1644172840.787777,-0.011536,0.006104,-0.993896,0.266656,0.401832,-0.25313,47,275,565,5696
1644172840.836178,-0.01001,0.006226,-0.99115,0.281924,0.340763,0.067481,47,277,575,5664
1644172840.884658,-0.01062,0.01123,-0.990662,0.190321,0.432366,-0.039389,49,270,577,5664
1644172840.933071,-0.008118,0.010498,-0.991516,0.297191,0.508702,-0.14626,61,270,586,5664
1644172840.98139,-0.008362,0.010803,-0.992554,0.175053,0.310229,-0.039389,59,275,586,5696
1644172841.02976,-0.010559,0.010254,-0.991821,0.190321,0.401832,-0.222595,61,275,579,5664
1644172841.084186,-0.013062,0.01001,-0.990479,0.35826,0.478168,-0.115725,55,264,599,5664
1644172841.126506,-0.010071,0.009827,-0.98999,0.129252,0.447634,0.036947,55,276,580,5696
1644172841.174886,-0.011108,0.011658,-0.993408,0.220855,0.447634,-0.192061,47,268,584,5728
1644172841.2233,-0.010315,0.004517,-0.993347,0.281924,0.493435,-0.192061,39,283,578,5760
1644172841.271742,-0.007629,0.009888,-0.992432,0.342992,0.356031,-0.130992,51,279,573,5648
1644172841.321591,-0.009216,0.009888,-0.98999,0.098718,0.447634,0.052214,51,266,580,5664
1644172841.371963,-0.010559,0.008972,-0.99115,0.266656,0.569771,-0.039389,52,277,584,5728
1644172841.421832,-0.009155,0.004761,-0.993347,0.297191,0.600305,-0.069924,45,280,579,5728
1644172841.513671,-0.01239,0.00946,-0.990417,0.190321,0.417099,-0.039389,57,275,577,5696
1644172841.562025,-0.012268,0.007935,-0.991211,0.251389,0.386565,-0.115725,49,277,572,5696
1644172841.610415,-0.009155,0.011841,-0.991638,0.297191,0.401832,-0.008855,57,270,577,5696
1644172841.658799,-0.011963,0.011047,-0.991882,0.236122,0.554504,-0.100458,52,268,572,5696
1644172841.707206,-0.010437,0.009033,-0.989868,0.190321,0.371298,-0.024122,54,273,568,5712
1644172841.75557,-0.007324,0.008667,-0.99176,0.236122,0.325496,0.082748,43,269,571,5664
1644172841.80399,-0.011841,0.00946,-0.993774,0.190321,0.523969,-0.085191,57,282,572,5664
1644172841.8524,-0.00946,0.01001,-0.992188,0.175053,0.432366,0.052214,45,275,572,5760
1644172841.90081,-0.006165,0.006836,-0.991638,0.144519,0.493435,-0.039389,49,280,575,5728
1644172841.949205,-0.010437,0.012573,-0.992859,0.175053,0.417099,-0.100458,52,282,579,5760
1644172841.997571,-0.007446,0.00769,-0.992371,0.236122,0.447634,-0.222595,45,287,584,5696
1644172842.063197,-0.008606,0.008545,-0.992981,0.281924,0.310229,0.006412,53,279,571,5776
1644172842.097329,-0.011047,0.010498,-0.989807,0.190321,0.462901,-0.069924,58,274,571,5696
1644172842.142788,-0.00769,0.010498,-0.992615,0.159786,0.386565,-0.115725,40,275,575,5664
1644172842.191134,-0.010376,0.010193,-0.989441,0.388794,0.371298,-0.14626,47,268,579,5648
1644172842.239555,-0.010498,0.012329,-0.990295,0.205588,0.294962,0.036947,53,271,576,5696
1644172842.287939,-0.010986,0.010315,-0.991577,0.312458,0.401832,-0.161527,49,263,584,5696
1644172842.336523,-0.006348,0.010193,-0.99176,0.251389,0.310229,-0.100458,57,277,565,5712
1644172842.384817,-0.009583,0.009033,-0.991394,0.144519,0.523969,-0.024122,52,263,575,5696
1644172842.434562,-0.010498,0.008606,-0.990662,0.373527,0.294962,-0.008855,53,276,580,5664
1644172842.484769,-0.008728,0.011108,-0.991699,0.251389,0.600305,-0.176794,53,264,576,5696
1644172842.534937,-0.008667,0.007629,-0.991699,0.190321,0.325496,-0.024122,61,277,591,5728
1644172842.579413,-0.013428,0.007446,-0.991638,0.266656,0.417099,0.021679,55,274,573,5760
1644172842.675318,-0.00708,0.010437,-0.991455,0.251389,0.462901,-0.069924,48,274,578,5664
1644172842.723462,-0.006897,0.010742,-0.991455,0.281924,0.371298,-0.039389,54,277,575,5728
1644172842.771839,-0.009583,0.007874,-0.993408,0.251389,0.554504,-0.054656,42,277,572,5712
1644172842.820208,-0.010132,0.01178,-0.990967,0.388794,0.386565,-0.085191,48,274,578,5664
1644172842.868623,-0.011108,0.004517,-0.990295,0.098718,0.310229,-0.024122,47,277,570,5760
1644172842.917015,-0.007751,0.010986,-0.993103,0.281924,0.432366,-0.069924,45,285,563,5696
1644172842.965398,-0.011108,0.010498,-0.993347,0.220855,0.325496,-0.054656,53,266,580,5664
1644172843.013783,-0.00824,0.012573,-0.99231,0.312458,0.493435,-0.024122,49,268,575,5712
1644172843.063393,-0.007874,0.009949,-0.994812,0.342992,0.371298,-0.192061,57,275,577,5696
1644172843.110504,-0.007568,0.009888,-0.990662,0.220855,0.508702,-0.054656,43,274,576,5712
1644172843.158931,-0.008362,0.011902,-0.993164,0.251389,0.417099,-0.130992,47,275,568,5712
1644172843.207323,-0.01123,0.008789,-0.992798,0.266656,0.447634,-0.069924,43,274,580,5760
1644172843.255717,-0.011597,0.010742,-0.991638,0.297191,0.386565,-0.024122,42,273,579,5696
1644172843.30411,-0.009155,0.009216,-0.991211,0.236122,0.294962,-0.100458,58,271,576,5712
1644172843.352508,-0.009827,0.010071,-0.993835,0.434595,0.356031,-0.008855,45,275,575,5664
1644172843.40089,-0.010132,0.011108,-0.992554,0.220855,0.432366,-0.069924,46,266,573,5696
1644172843.449253,-0.010803,0.01062,-0.990295,0.190321,0.279695,0.021679,53,283,580,5664
1644172843.49795,-0.009155,0.006714,-0.991028,0.281924,0.478168,-0.008855,51,276,573,5728
1644172843.546356,-0.008545,0.009216,-0.991089,0.312458,0.432366,-0.069924,47,268,579,5664
1644172843.595202,-0.013184,0.009338,-0.991028,0.190321,0.462901,0.082748,43,274,571,5664
1644172843.64588,-0.008362,0.008606,-0.993774,0.113985,0.417099,-0.024122,53,262,578,5760
1644172843.695814,-0.013672,0.009949,-0.99292,0.281924,0.356031,-0.024122,52,275,582,5664
1644172843.740842,-0.008667,0.010559,-0.991699,0.190321,0.294962,0.052214,49,273,577,5664
1644172843.83643,-0.009399,0.010132,-0.991821,0.251389,0.371298,-0.100458,45,277,572,5728
1644172843.884901,-0.011719,0.007996,-0.99231,0.068183,0.478168,-0.192061,57,287,570,5712
1644172843.933239,-0.008728,0.009888,-0.992126,0.251389,0.386565,-0.085191,47,280,584,5776
1644172843.981608,-0.01416,0.01062,-0.990356,0.434595,0.386565,-0.100458,58,283,573,5664
1644172844.029991,-0.007935,0.012268,-0.99292,0.297191,0.493435,0.021679,58,269,580,5728
1644172844.078456,-0.011169,0.010315,-0.99469,0.236122,0.417099,-0.008855,58,271,583,5712
1644172844.126717,-0.010376,0.01178,-0.991943,0.312458,0.386565,-0.069924,38,268,575,5776
1644172844.175157,-0.009521,0.006592,-0.989868,0.144519,0.371298,-0.14626,45,280,575,5760
1644172844.223535,-0.010193,0.010498,-0.993225,0.251389,0.569771,-0.085191,47,282,575,5760
1644172844.271899,-0.012939,0.010132,-0.990967,0.266656,0.462901,-0.14626,66,268,570,5760
1644172844.320282,-0.009033,0.01178,-0.993042,0.281924,0.356031,0.098015,39,274,573,5728
1644172844.368702,-0.013489,0.011536,-0.992004,0.205588,0.508702,-0.237863,48,283,573,5712
1644172844.417089,-0.010071,0.010498,-0.992615,0.266656,0.401832,0.021679,45,270,582,5728
1644172844.465452,-0.011108,0.008423,-0.992249,0.281924,0.417099,-0.14626,57,273,584,5696
1644172844.513872,-0.010742,0.00824,-0.989075,0.205588,0.447634,0.082748,47,275,575,5712
1644172844.562267,-0.010742,0.008057,-0.990723,0.190321,0.432366,-0.024122,51,271,580,5664
1644172844.610657,-0.007507,0.009827,-0.990601,0.236122,0.310229,0.021679,52,265,579,5664
1644172844.659042,-0.011658,0.009827,-0.990112,0.220855,0.401832,-0.069924,52,285,565,5728
1644172844.70743,-0.010071,0.011536,-0.9953,0.327725,0.401832,-0.100458,46,266,566,5664
1644172844.756301,-0.008728,0.009888,-0.99408,0.251389,0.493435,-0.283664,52,268,575,5712
1644172844.807338,-0.012329,0.00824,-0.990723,0.251389,0.508702,-0.130992,49,273,582,5648
1644172844.858435,-0.009827,0.01062,-0.992981,0.297191,0.417099,-0.207328,47,273,579,5664
1644172844.90248,-0.01123,0.009033,-0.99176,0.297191,0.294962,-0.130992,48,279,571,5696
1644172844.997808,-0.007874,0.009888,-0.993469,0.220855,0.264427,-0.100458,54,270,575,5696
1644172845.064919,-0.006897,0.011292,-0.991699,0.266656,0.432366,-0.222595,53,281,573,5760
1644172845.095843,-0.008118,0.008972,-0.992004,0.220855,0.569771,-0.100458,41,276,580,5712
1644172845.142975,-0.007446,0.008911,-0.992737,0.144519,0.340763,-0.14626,54,275,568,5728
1644172845.191341,-0.010132,0.010193,-0.990417,0.236122,0.478168,0.006412,58,274,583,5760
1644172845.239727,-0.010742,0.00885,-0.990479,0.312458,0.478168,-0.115725,45,277,579,5712
1644172845.28813,-0.006592,0.009155,-0.992249,0.175053,0.356031,-0.14626,45,275,584,5696
1644172845.336517,-0.008301,0.009155,-0.990723,0.129252,0.279695,-0.100458,62,271,580,5728
1644172845.385448,-0.010498,0.01001,-0.991699,0.312458,0.310229,-0.207328,58,279,571,5648
1644172845.43329,-0.00885,0.010437,-0.991333,0.205588,0.356031,-0.069924,57,270,575,5696
1644172845.48207,-0.00824,0.009033,-0.992188,0.129252,0.493435,-0.14626,54,275,572,5728
1644172845.532484,-0.009705,0.010132,-0.992554,0.205588,0.340763,-0.130992,46,276,578,5760
1644172845.582803,-0.010132,0.008301,-0.990051,0.281924,0.508702,-0.100458,42,270,575,5728
1644172845.627836,-0.010254,0.007446,-0.992065,0.236122,0.432366,-0.130992,58,283,571,5696
1644172845.723649,-0.010254,0.013245,-0.992676,0.266656,0.569771,-0.14626,42,285,572,5600
1644172845.772028,-0.011597,0.009644,-0.991943,0.266656,0.432366,0.006412,47,270,572,5760
1644172845.820416,-0.009399,0.00946,-0.991516,0.144519,0.447634,-0.161527,58,281,576,5696
1644172845.868853,-0.011353,0.008789,-0.993347,0.236122,0.447634,-0.085191,45,280,572,5664
1644172845.917234,-0.010803,0.009644,-0.992371,0.236122,0.569771,-0.176794,51,269,590,5712
1644172845.96562,-0.007202,0.008545,-0.992981,0.129252,0.172824,0.021679,57,280,570,5760
1644172846.014031,-0.008667,0.00946,-0.990601,0.312458,0.539237,-0.176794,47,270,582,5648
1644172846.066297,-0.011292,0.008362,-0.992493,0.266656,0.401832,-0.14626,48,279,585,5664
1644172846.110798,-0.010071,0.008362,-0.991638,0.052916,0.386565,0.006412,38,275,582,5712
1644172846.159142,-0.00885,0.010193,-0.993042,0.373527,0.401832,-0.100458,47,275,570,5664
1644172846.207546,-0.008911,0.009888,-0.993103,0.236122,0.417099,0.098015,51,271,585,5664
1644172846.255945,-0.012207,0.010071,-0.990967,0.175053,0.569771,0.006412,46,269,571,5696
1644172846.304339,-0.012085,0.007874,-0.993774,0.526198,0.432366,-0.130992,49,277,565,5696
1644172846.352738,-0.011047,0.006165,-0.993042,0.144519,0.264427,-0.069924,52,285,575,5664
1644172846.40112,-0.011108,0.010132,-0.991272,0.480397,0.569771,-0.14626,49,273,575,5696
1644172846.449496,-0.008789,0.007507,-0.992065,0.404061,0.356031,-0.36,47,263,572,5664
1644172846.497884,-0.012024,0.01062,-0.988953,0.297191,0.24916,0.067481,46,276,587,5696
1644172846.546257,-0.010986,0.008118,-0.993103,0.144519,0.417099,-0.039389,42,277,579,5664
1644172846.594937,-0.009766,0.010559,-0.991638,0.266656,0.340763,-0.130992,55,271,573,5712
1644172846.644237,-0.011414,0.008667,-0.992126,0.144519,0.447634,-0.085191,55,274,576,5664
1644172846.694741,-0.010864,0.007507,-0.991577,0.236122,0.294962,0.006412,53,274,573,5664
1644172846.744878,-0.008911,0.010864,-0.991089,0.281924,0.264427,0.082748,40,268,577,5648
1644172846.83661,-0.012573,0.009521,-0.99231,0.35826,0.462901,0.006412,45,270,572,5664
1644172846.885318,-0.009705,0.008606,-0.991455,0.266656,0.401832,-0.25313,49,277,572,5696
1644172846.933451,-0.012207,0.008911,-0.994812,0.220855,0.401832,-0.100458,58,271,580,5648
1644172846.981838,-0.009277,0.012634,-0.989929,0.129252,0.356031,-0.039389,53,279,580,5664
1644172847.030204,-0.012512,0.011475,-0.991699,0.190321,0.447634,-0.14626,45,268,565,5696
1644172847.079033,-0.009399,0.012146,-0.991638,0.220855,0.432366,-0.069924,51,271,580,5728
1644172847.126976,-0.009705,0.007568,-0.990051,0.251389,0.356031,0.098015,45,285,568,5712
1644172847.175361,-0.010864,0.009644,-0.991394,0.373527,0.371298,0.006412,47,270,572,5728
1644172847.223754,-0.010681,0.006714,-0.992249,0.190321,0.585038,-0.024122,49,270,582,5664
1644172847.273043,-0.011047,0.009521,-0.992432,0.342992,0.462901,-0.039389,52,275,575,5712
1644172847.320512,-0.010376,0.010559,-0.990051,0.220855,0.340763,0.021679,55,279,571,5760
1644172847.368938,-0.008179,0.011658,-0.993103,0.312458,0.356031,-0.130992,59,275,577,5696
1644172847.417315,-0.009705,0.008606,-0.991211,0.251389,0.340763,0.006412,42,268,579,5696
1644172847.465708,-0.012817,0.007996,-0.991333,0.297191,0.554504,-0.115725,57,268,570,5664
1644172847.514097,-0.010803,0.008545,-0.992981,0.113985,0.432366,-0.100458,57,277,565,5760
1644172847.562514,-0.007263,0.008667,-0.993164,0.220855,0.279695,-0.222595,40,275,582,5760
1644172847.610883,-0.01062,0.009338,-0.99292,0.266656,0.447634,-0.14626,54,265,591,5648
1644172847.659266,-0.011108,0.010925,-0.992676,0.327725,0.401832,0.098015,47,277,570,5728
1644172847.707656,-0.009338,0.009583,-0.99115,0.266656,0.508702,-0.069924,45,275,577,5696
1644172847.756206,-0.010742,0.01062,-0.992798,0.175053,0.401832,-0.130992,52,268,577,5760
1644172847.806604,-0.012878,0.010559,-0.99115,0.129252,0.722443,-0.207328,46,269,573,5696
1644172847.857905,-0.010254,0.009705,-0.992859,0.175053,0.569771,0.082748,58,274,576,5696
1644172847.902318,-0.008728,0.010559,-0.990906,0.297191,0.508702,-0.192061,48,266,576,5728
1644172847.998039,-0.013489,0.01001,-0.994324,0.236122,0.356031,-0.008855,47,282,577,5712
1644172848.058867,-0.010925,0.009705,-0.992798,0.327725,0.462901,-0.069924,53,279,580,5760
1644172848.099293,-0.008972,0.010254,-0.993774,0.297191,0.356031,-0.14626,51,269,590,5664
1644172848.143198,-0.011108,0.009277,-0.991821,0.251389,0.325496,-0.085191,49,277,572,5760
1644172848.191566,-0.007874,0.009644,-0.991333,0.419328,0.340763,-0.207328,49,265,575,5696
1644172848.239966,-0.010315,0.008118,-0.990601,0.281924,0.24916,-0.192061,47,270,575,5712
1644172848.288328,-0.008118,0.008789,-0.990784,0.190321,0.371298,0.006412,54,263,584,5696
1644172848.336741,-0.009277,0.009644,-0.991089,0.251389,0.447634,-0.039389,46,271,573,5648
1644172848.385157,-0.011047,0.011414,-0.991943,0.327725,0.478168,-0.024122,45,282,570,5664
1644172848.433517,-0.007629,0.008789,-0.995789,0.342992,0.462901,-0.14626,53,274,571,5760
1644172848.481918,-0.009033,0.006897,-0.994019,0.266656,0.539237,-0.161527,58,271,580,5664
1644172848.530297,-0.008728,0.008484,-0.991882,0.281924,0.432366,-0.024122,58,276,578,5728
1644172848.578693,-0.008606,0.010437,-0.993347,0.373527,0.478168,-0.024122,61,273,577,5712
1644172848.627345,-0.008911,0.009338,-0.99231,0.236122,0.539237,0.006412,39,276,587,5712
1644172848.677998,-0.012268,0.009338,-0.991516,0.098718,0.523969,0.006412,53,274,573,5760
1644172848.728213,-0.011658,0.011292,-0.991821,0.297191,0.401832,-0.14626,60,264,576,5760
1644172848.773102,-0.010681,0.00885,-0.990845,0.175053,0.493435,-0.115725,53,281,576,5712
1644172848.869054,-0.010132,0.009399,-0.990967,0.297191,0.386565,-0.115725,55,276,573,5664
1644172848.917449,-0.011841,0.006897,-0.990662,0.327725,0.554504,-0.069924,39,279,585,5696
1644172848.965841,-0.008728,0.00824,-0.992554,0.373527,0.432366,-0.100458,54,277,579,5696
1644172849.014251,-0.011475,0.008911,-0.991394,0.388794,0.386565,-0.054656,46,264,580,5696
1644172849.065109,-0.00946,0.009399,-0.99176,0.342992,0.508702,-0.14626,57,270,575,5776
1644172849.110937,-0.008301,0.007507,-0.99231,0.342992,0.371298,0.021679,51,266,571,5776
1644172849.159367,-0.011108,0.008911,-0.994202,0.46513,0.340763,-0.054656,55,281,578,5712
1644172849.207778,-0.00946,0.00824,-0.994446,0.312458,0.386565,-0.115725,43,281,576,5712
1644172849.256167,-0.008789,0.011292,-0.991882,0.175053,0.279695,-0.176794,52,268,579,5712
1644172849.304662,-0.012085,0.00946,-0.99408,0.129252,0.386565,-0.085191,49,270,577,5696
1644172849.352967,-0.010376,0.009277,-0.990906,0.266656,0.447634,0.036947,49,268,582,5664
1644172849.401339,-0.009705,0.008179,-0.993958,0.373527,0.401832,-0.100458,52,270,568,5728
1644172849.449721,-0.01062,0.010925,-0.98999,0.281924,0.432366,-0.039389,55,274,578,5760
1644172849.498119,-0.006409,0.008362,-0.991821,0.144519,0.310229,-0.100458,43,274,587,5696
1644172849.546513,-0.011353,0.011108,-0.995422,0.312458,0.432366,0.067481,52,275,582,5664
1644172849.594887,-0.010498,0.010254,-0.993347,0.327725,0.478168,-0.024122,43,281,576,5712
1644172849.643291,-0.008972,0.01001,-0.992065,0.220855,0.462901,-0.039389,49,270,582,5648
1644172849.691684,-0.012329,0.008423,-0.990601,0.220855,0.294962,-0.192061,47,265,582,5760
1644172849.74008,-0.01001,0.012512,-0.989868,0.312458,0.447634,-0.069924,59,275,584,5696
1644172849.78909,-0.010864,0.008667,-0.992493,0.098718,0.401832,-0.008855,53,264,583,5664
1644172849.839546,-0.009338,0.01062,-0.990051,0.251389,0.523969,-0.085191,47,275,568,5808
1644172849.889962,-0.010132,0.009338,-0.991699,0.266656,0.447634,-0.054656,51,283,576,5712
1644172849.934449,-0.009644,0.010071,-0.991882,0.327725,0.462901,-0.14626,53,276,571,5728
1644172850.030452,-0.009216,0.007812,-0.991943,0.205588,0.310229,-0.085191,52,275,572,5728
1644172850.081951,-0.009705,0.011963,-0.993042,0.220855,0.523969,-0.14626,59,270,579,5696
1644172850.127184,-0.010498,0.009094,-0.994446,0.35826,0.401832,-0.161527,47,270,575,5664
1644172850.175573,-0.010071,0.00885,-0.992615,0.205588,0.371298,-0.130992,45,282,572,5728
1644172850.223983,-0.009949,0.011963,-0.991821,0.113985,0.462901,0.036947,55,281,569,5728
1644172850.272354,-0.00885,0.008545,-0.992249,0.312458,0.417099,-0.207328,45,285,572,5696
1644172850.32076,-0.010315,0.012024,-0.992737,0.327725,0.340763,-0.008855,46,279,569,5664
1644172850.369137,-0.01062,0.007812,-0.994202,0.266656,0.279695,0.021679,58,276,583,5712
1644172850.417541,-0.012634,0.009766,-0.993225,0.159786,0.356031,-0.14626,49,273,584,5760
1644172850.465933,-0.011169,0.010071,-0.989746,0.220855,0.417099,-0.176794,52,273,577,5712
1644172850.514318,-0.011902,0.010376,-0.991455,0.342992,0.462901,0.098015,48,279,580,5712
1644172850.56272,-0.009949,0.009583,-0.99176,0.175053,0.539237,-0.054656,41,269,580,5712
1644172850.611108,-0.009277,0.009338,-0.990784,0.281924,0.417099,-0.054656,40,280,582,5696
1644172850.659546,-0.008728,0.012695,-0.990417,0.144519,0.325496,-0.100458,43,274,580,5712
1644172850.707891,-0.01178,0.008667,-0.991638,0.236122,0.340763,-0.14626,42,282,577,5776
1644172850.756252,-0.009644,0.014404,-0.992004,0.220855,0.356031,0.006412,49,273,589,5664
1644172850.80479,-0.009644,0.007935,-0.992798,0.35826,0.417099,-0.130992,48,274,569,5696
1644172850.855273,-0.007996,0.010803,-0.992432,0.236122,0.294962,-0.176794,55,276,578,5664
1644172850.904872,-0.009521,0.012146,-0.990417,0.342992,0.539237,-0.176794,39,271,576,5696
1644172850.955156,-0.009216,0.010803,-0.991394,0.098718,0.432366,-0.192061,60,269,580,5696
1644172850.999904,-0.011047,0.006958,-0.992554,0.373527,0.371298,-0.130992,49,273,575,5696
1644172851.100396,-0.009705,0.007507,-0.993164,0.35826,0.432366,0.021679,47,280,570,5760
1644172851.143425,-0.010254,0.007446,-0.992371,0.297191,0.279695,-0.14626,49,270,575,5696
1644172851.191803,-0.008118,0.010071,-0.990906,0.281924,0.523969,0.006412,59,280,582,5760
1644172851.240184,-0.010498,0.007568,-0.994263,0.068183,0.264427,-0.069924,54,268,570,5696
1644172851.288581,-0.010254,0.010437,-0.991516,0.434595,0.386565,-0.069924,47,280,577,5712
1644172851.336958,-0.010498,0.008423,-0.990173,0.159786,0.508702,-0.14626,54,265,570,5776
1644172851.385324,-0.009705,0.010315,-0.992737,0.175053,0.356031,-0.207328,48,266,580,5760
1644172851.43372,-0.008545,0.008728,-0.993042,0.281924,0.447634,-0.268397,51,279,585,5760
1644172851.482216,-0.010376,0.008484,-0.991394,0.144519,0.478168,-0.115725,55,271,587,5664
1644172851.532725,-0.009644,0.009705,-0.991211,0.068183,0.386565,-0.100458,51,271,578,5696
1644172851.583058,-0.011414,0.00885,-0.990723,0.159786,0.340763,-0.130992,40,275,582,5696
1644172851.62827,-0.011047,0.011902,-0.993286,0.46513,0.218626,-0.237863,47,277,568,5760
1644172851.724102,-0.010498,0.009216,-0.990662,0.266656,0.417099,-0.085191,51,276,578,5728
1644172851.772499,-0.01001,0.01001,-0.990845,0.220855,0.264427,-0.130992,58,279,580,5728
1644172851.820884,-0.010254,0.009338,-0.99054,0.220855,0.462901,-0.207328,47,273,575,5696
1644172851.869294,-0.008789,0.01123,-0.991882,0.113985,0.447634,-0.008855,43,271,578,5760
1644172851.917661,-0.009644,0.008484,-0.990601,0.342992,0.417099,-0.130992,51,276,573,5696
1644172851.966081,-0.009888,0.008545,-0.996094,0.236122,0.417099,-0.100458,39,276,576,5664
1644172852.014462,-0.010193,0.009949,-0.991455,0.220855,0.417099,-0.237863,48,274,578,5696
1644172852.06344,-0.010376,0.009827,-0.993164,0.297191,0.554504,-0.176794,53,276,578,5712
1644172852.111291,-0.011169,0.009155,-0.992371,0.144519,0.401832,-0.085191,45,275,575,5712
1644172852.15961,-0.012451,0.008606,-0.992737,0.419328,0.371298,0.052214,46,271,578,5712
1644172852.208009,-0.013062,0.008362,-0.994568,0.266656,0.310229,-0.039389,46,279,580,5728
1644172852.256382,-0.006897,0.006958,-0.993042,0.129252,0.386565,-0.085191,57,268,582,5728
1644172852.304784,-0.007935,0.01001,-0.990723,0.327725,0.432366,-0.192061,49,275,572,5664
1644172852.353177,-0.009399,0.008423,-0.995178,0.236122,0.478168,-0.176794,58,269,580,5696
1644172852.40157,-0.009888,0.007996,-0.993835,0.129252,0.462901,-0.008855,47,275,593,5664
1644172852.450005,-0.012329,0.010681,-0.991699,0.159786,0.264427,-0.100458,32,283,576,5664
1644172852.498349,-0.010437,0.009338,-0.991821,0.129252,0.24916,-0.024122,57,270,584,5696
1644172852.546705,-0.008728,0.011658,-0.992249,0.113985,0.417099,-0.085191,46,271,573,5664
1644172852.595479,-0.009888,0.009583,-0.993591,0.175053,0.340763,-0.039389,55,271,576,5760
1644172852.644353,-0.010498,0.010132,-0.992737,0.236122,0.294962,-0.085191,46,266,576,5760
1644172852.694988,-0.010376,0.009033,-0.990662,0.205588,0.371298,-0.085191,54,275,568,5664
1644172852.745089,-0.009155,0.008118,-0.994019,0.236122,0.508702,-0.115725,48,279,576,5712
1644172852.83711,-0.009338,0.007324,-0.991882,0.098718,0.401832,-0.161527,48,281,576,5696
1644172852.88551,-0.007568,0.009644,-0.990662,0.266656,0.478168,-0.024122,58,281,573,5648
1644172852.933905,-0.009644,0.010925,-0.992737,0.098718,0.417099,-0.085191,46,276,573,5728
1644172852.982407,-0.009949,0.008606,-0.991638,0.159786,0.401832,-0.069924,53,288,583,5728
1644172853.030675,-0.00708,0.010864,-0.989258,0.236122,0.478168,0.036947,47,277,570,5664
1644172853.079202,-0.012024,0.011292,-0.991028,0.327725,0.371298,-0.054656,55,269,576,5648
1644172853.127426,-0.010742,0.009827,-0.992798,0.281924,0.493435,-0.14626,52,280,577,5696
1644172853.175814,-0.010864,0.009033,-0.992004,0.251389,0.417099,0.052214,48,266,569,5696
1644172853.224216,-0.009216,0.012939,-0.991577,0.190321,0.585038,0.006412,53,276,576,5696
1644172853.272605,-0.011047,0.00946,-0.99176,0.175053,0.417099,0.021679,47,277,572,5712
1644172853.320954,-0.010742,0.008789,-0.991394,0.236122,0.264427,-0.054656,46,264,576,5728
1644172853.369369,-0.005249,0.011597,-0.991333,0.297191,0.340763,0.006412,52,277,584,5712
1644172853.417765,-0.013245,0.010742,-0.994385,0.297191,0.310229,0.021679,53,274,569,5696
1644172853.466151,-0.010681,0.011658,-0.994019,0.144519,0.340763,-0.054656,51,279,590,5696
1644172853.514535,-0.009216,0.012573,-0.993286,0.144519,0.432366,-0.085191,47,277,572,5728
1644172853.562961,-0.010986,0.011597,-0.992676,0.373527,0.600305,-0.069924,54,273,589,5648
1644172853.611326,-0.011169,0.007874,-0.991516,0.312458,0.417099,-0.008855,47,265,577,5696
1644172853.659717,-0.009949,0.008301,-0.991699,0.220855,0.340763,-0.008855,51,274,578,5696
1644172853.708108,-0.012207,0.008728,-0.993958,0.434595,0.462901,-0.039389,45,270,575,5664
1644172853.756515,-0.012085,0.009583,-0.992676,0.190321,0.401832,-0.115725,57,277,579,5664
1644172853.80669,-0.011108,0.011475,-0.990356,0.175053,0.371298,-0.130992,40,275,577,5648
1644172853.858203,-0.010315,0.006104,-0.990845,0.190321,0.294962,-0.161527,61,268,572,5712
1644172853.90255,-0.010254,0.008484,-0.99408,0.129252,0.447634,-0.222595,55,269,569,5664
1644172853.998497,-0.010925,0.008301,-0.989807,0.251389,0.325496,-0.130992,59,273,579,5696
1644172854.062472,-0.012146,0.008667,-0.990662,0.205588,0.356031,0.006412,49,280,575,5696
1644172854.095433,-0.009583,0.009033,-0.990417,0.175053,0.493435,-0.25313,52,275,577,5760
1644172854.143657,-0.010864,0.009949,-0.992981,0.113985,0.462901,-0.054656,46,274,576,5664
1644172854.192019,-0.009216,0.009277,-0.989746,0.175053,0.508702,-0.054656,45,277,579,5728
1644172854.240406,-0.008789,0.008606,-0.991516,0.220855,0.493435,-0.130992,52,280,572,5696
1644172854.2888,-0.01178,0.011108,-0.991638,0.297191,0.523969,-0.130992,49,285,570,5712
1644172854.337186,-0.009094,0.007874,-0.992615,0.266656,0.340763,-0.100458,42,285,570,5776
1644172854.385588,-0.012268,0.011658,-0.992004,0.327725,0.401832,-0.039389,46,283,585,5664
1644172854.433973,-0.01062,0.006897,-0.990479,0.404061,0.462901,-0.085191,62,279,576,5760
1644172854.482375,-0.010498,0.009155,-0.991638,0.266656,0.417099,-0.069924,52,268,577,5712
1644172854.530752,-0.011108,0.008545,-0.990967,0.220855,0.478168,-0.222595,45,275,575,5664
1644172854.579491,-0.007446,0.008728,-0.990234,0.342992,0.417099,-0.161527,51,266,578,5648
1644172854.629698,-0.010193,0.011841,-0.991882,0.404061,0.447634,-0.176794,55,279,571,5712
1644172854.679937,-0.010986,0.007996,-0.990967,0.144519,0.386565,-0.008855,52,280,579,5712
1644172854.724833,-0.008911,0.010376,-0.990234,0.251389,0.294962,-0.085191,46,262,576,5760
1644172854.821099,-0.010376,0.009094,-0.992371,0.159786,0.462901,-0.100458,55,279,580,5696
1644172854.869482,-0.008423,0.011047,-0.991394,0.159786,0.356031,-0.054656,52,275,579,5712
1644172854.91792,-0.008118,0.011719,-0.991943,0.205588,0.432366,-0.100458,54,282,570,5760
1644172854.966302,-0.009766,0.008972,-0.990417,0.312458,0.401832,-0.054656,52,280,582,5664
1644172855.014721,-0.009094,0.010132,-0.991638,0.297191,0.523969,-0.054656,48,271,578,5696
1644172855.067909,-0.010437,0.009827,-0.992371,0.35826,0.401832,-0.069924,43,274,569,5696
1644172855.111439,-0.007812,0.012024,-0.990723,0.281924,0.401832,-0.039389,45,280,589,5696
1644172855.159833,-0.008789,0.012878,-0.989624,0.236122,0.493435,-0.039389,47,275,572,5728
1644172855.208207,-0.008728,0.009827,-0.993958,0.35826,0.523969,-0.069924,51,269,576,5728
1644172855.256611,-0.008484,0.005737,-0.990112,0.281924,0.493435,-0.161527,48,269,573,5696
1644172855.305119,-0.009033,0.010559,-0.989197,0.312458,0.356031,-0.192061,45,268,568,5696
1644172855.353409,-0.011414,0.008301,-0.99054,0.220855,0.417099,-0.222595,49,277,575,5696
1644172855.401784,-0.008118,0.010864,-0.989075,0.281924,0.356031,-0.039389,49,270,572,5664
1644172855.450181,-0.009094,0.008057,-0.992004,0.220855,0.401832,-0.161527,54,277,582,5664
1644172855.498579,-0.010864,0.006714,-0.992493,0.236122,0.447634,-0.192061,49,277,575,5696
1644172855.546958,-0.013062,0.008179,-0.99353,0.113985,0.371298,-0.054656,49,273,586,5712
1644172855.595389,-0.015076,0.009155,-0.992371,0.281924,0.294962,0.052214,54,270,579,5696
1644172855.643746,-0.008728,0.010742,-0.994629,0.175053,0.493435,-0.069924,53,269,583,5712
1644172855.692214,-0.009216,0.01001,-0.991699,0.129252,0.447634,0.067481,57,265,572,5760
1644172855.740546,-0.013489,0.009277,-0.991028,0.419328,0.447634,-0.039389,51,269,569,5664
1644172855.792227,-0.010193,0.007507,-0.994629,0.190321,0.401832,-0.237863,49,265,579,5760
1644172855.842293,-0.011475,0.010376,-0.990906,0.251389,0.325496,-0.054656,39,279,583,5664
1644172855.886942,-0.012573,0.011963,-0.992004,0.098718,0.508702,-0.115725,54,270,570,5648
1644172855.98253,-0.008423,0.009155,-0.993896,0.236122,0.401832,-0.130992,53,276,573,5648
1644172856.030912,-0.010437,0.008362,-0.990295,0.08345,0.508702,-0.130992,55,274,585,5696
1644172856.079365,-0.010986,0.009949,-0.99054,0.297191,0.310229,-0.008855,59,280,582,5664
1644172856.127637,-0.010742,0.008911,-0.991821,0.144519,0.356031,-0.069924,51,281,571,5712
1644172856.176024,-0.009583,0.006226,-0.99231,0.08345,0.279695,-0.100458,52,275,568,5696
1644172856.224445,-0.009644,0.008606,-0.990173,0.129252,0.294962,-0.054656,57,282,575,5712
1644172856.272804,-0.011108,0.010315,-0.991821,0.236122,0.447634,-0.192061,51,269,573,5728
1644172856.321217,-0.011841,0.009644,-0.990112,0.159786,0.401832,0.006412,52,280,582,5664
1644172856.369605,-0.010376,0.009277,-0.992004,0.190321,0.432366,0.006412,43,274,576,5696
1644172856.418592,-0.010986,0.010193,-0.991577,0.251389,0.523969,-0.25313,46,291,571,5664
1644172856.466378,-0.012512,0.010742,-0.990356,0.297191,0.294962,-0.008855,57,275,577,5696
1644172856.514775,-0.011169,0.006348,-0.992432,0.388794,0.325496,0.098015,57,277,568,5664
1644172856.563167,-0.010803,0.006592,-0.991516,0.251389,0.539237,-0.115725,60,269,578,5728
1644172856.611554,-0.011719,0.010132,-0.991089,0.236122,0.493435,-0.100458,42,270,577,5696
1644172856.659946,-0.013611,0.007202,-0.99176,0.251389,0.417099,-0.100458,51,276,585,5760
1644172856.708328,-0.010925,0.005066,-0.992004,0.220855,0.356031,-0.069924,52,280,584,5712
1644172856.756704,-0.009155,0.008606,-0.993286,0.236122,0.371298,-0.085191,48,269,580,5696
1644172856.805219,-0.009949,0.010864,-0.994263,0.251389,0.447634,-0.176794,43,274,571,5712
1644172856.854636,-0.011841,0.007141,-0.994324,0.205588,0.340763,-0.039389,52,273,575,5664
1644172856.904253,-0.009888,0.008972,-0.991455,0.327725,0.523969,-0.161527,59,263,568,5760
1644172856.954669,-0.011108,0.006836,-0.993347,0.205588,0.371298,-0.085191,47,270,582,5712
1644172857.065698,-0.010376,0.009521,-0.99231,0.251389,0.462901,-0.085191,45,275,570,5664
1644172857.096826,-0.012512,0.01062,-0.989075,0.342992,0.478168,-0.192061,55,271,585,5696
1644172857.143883,-0.010254,0.006714,-0.991821,0.175053,0.340763,0.006412,51,266,566,5712
1644172857.192248,-0.008545,0.008728,-0.992004,0.190321,0.386565,-0.130992,49,270,577,5696
1644172857.240632,-0.009521,0.010071,-0.992371,0.266656,0.294962,-0.14626,49,268,575,5712
1644172857.289029,-0.011475,0.010315,-0.99176,0.419328,0.478168,-0.085191,53,269,580,5664
1644172857.33742,-0.013733,0.007996,-0.992432,0.342992,0.569771,-0.237863,58,283,583,5696
1644172857.38604,-0.010864,0.009521,-0.989441,0.404061,0.340763,0.082748,51,281,573,5712
1644172857.4342,-0.009216,0.010315,-0.99176,0.159786,0.310229,-0.268397,48,271,576,5728
1644172857.48294,-0.012939,0.012756,-0.99054,0.388794,0.386565,-0.130992,46,276,573,5776
1644172857.531945,-0.010071,0.010742,-0.991333,0.175053,0.493435,-0.039389,46,276,583,5696
1644172857.582496,-0.008606,0.009888,-0.992554,0.190321,0.432366,-0.100458,52,277,577,5664
1644172857.633188,-0.009705,0.007385,-0.991211,0.251389,0.371298,-0.085191,47,275,575,5696
1644172857.724532,-0.007446,0.008118,-0.990723,0.281924,0.539237,-0.085191,54,285,563,5664
1644172857.772953,-0.008118,0.013123,-0.990723,0.526198,0.310229,0.052214,42,270,577,5728
1644172857.821338,-0.011963,0.010071,-0.991211,0.236122,0.340763,-0.207328,55,279,576,5696
1644172857.869749,-0.009949,0.008484,-0.99231,0.297191,0.417099,-0.130992,47,277,577,5760
1644172857.918115,-0.007874,0.008911,-0.991943,0.159786,0.493435,-0.115725,52,277,577,5696
1644172857.966534,-0.011047,0.011108,-0.991699,0.052916,0.371298,0.052214,51,276,585,5728
1644172858.014906,-0.009888,0.01123,-0.988953,0.266656,0.447634,-0.115725,53,269,578,5760
1644172858.067676,-0.012024,0.009521,-0.992065,0.281924,0.386565,-0.039389,54,277,579,5696
1644172858.111717,-0.008301,0.009155,-0.991638,0.236122,0.325496,-0.100458,51,276,580,5712
1644172858.160053,-0.011047,0.010742,-0.990051,0.342992,0.401832,-0.14626,43,276,566,5696
1644172858.208451,-0.007874,0.009949,-0.993042,0.220855,0.447634,0.036947,46,269,583,5728
1644172858.256851,-0.008667,0.010071,-0.993469,0.266656,0.371298,-0.069924,58,276,578,5760
1644172858.305274,-0.007263,0.010925,-0.990356,0.190321,0.539237,0.067481,62,281,569,5728
1644172858.353603,-0.009888,0.010681,-0.990173,0.190321,0.356031,-0.054656,51,264,592,5760
1644172858.402021,-0.009094,0.008362,-0.990967,0.297191,0.447634,0.021679,51,274,578,5696
1644172858.450404,-0.011719,0.010376,-0.992004,0.236122,0.417099,-0.039389,41,271,580,5728
1644172858.498813,-0.010986,0.00769,-0.988831,0.144519,0.325496,0.021679,55,276,583,5728
1644172858.547184,-0.01123,0.01178,-0.990967,0.327725,0.24916,-0.192061,40,273,586,5712
1644172858.59558,-0.010193,0.010071,-0.992493,0.266656,0.478168,-0.054656,55,264,587,5728
1644172858.644221,-0.009827,0.010315,-0.993042,0.251389,0.447634,-0.130992,46,279,578,5696
1644172858.694795,-0.012329,0.008545,-0.992676,0.205588,0.325496,-0.069924,55,274,583,5664
1644172858.744866,-0.011536,0.009277,-0.991211,0.251389,0.325496,-0.115725,45,273,575,5696
1644172858.789989,-0.010559,0.012512,-0.991943,0.35826,0.569771,-0.024122,55,264,578,5728
1644172858.885943,-0.010315,0.009583,-0.990723,0.297191,0.264427,-0.039389,43,281,578,5664
1644172858.934355,-0.007751,0.008484,-0.991394,0.175053,0.294962,0.021679,47,273,577,5696
1644172858.982729,-0.009827,0.009766,-0.991882,0.159786,0.356031,-0.069924,53,269,571,5760
1644172859.031124,-0.009033,0.012085,-0.991943,0.251389,0.340763,-0.176794,47,277,584,5712
1644172859.07958,-0.009583,0.010986,-0.992737,0.327725,0.523969,-0.054656,54,270,575,5696
1644172859.12792,-0.010498,0.012146,-0.991211,0.312458,0.371298,-0.039389,54,270,577,5712
1644172859.176247,-0.00708,0.010986,-0.991089,0.144519,0.386565,-0.008855,40,273,570,5696
1644172859.224663,-0.010498,0.01123,-0.993042,0.220855,0.401832,0.006412,49,270,577,5696
1644172859.27306,-0.008484,0.008179,-0.991089,0.236122,0.508702,-0.039389,51,279,571,5664
1644172859.321417,-0.013,0.01001,-0.992798,0.312458,0.462901,0.052214,51,279,571,5712
1644172859.369833,-0.010315,0.007141,-0.989441,0.205588,0.539237,-0.008855,51,269,573,5600
1644172859.41822,-0.00769,0.01001,-0.991272,0.281924,0.417099,-0.069924,60,266,578,5712
1644172859.46661,-0.012756,0.006592,-0.98999,0.327725,0.356031,-0.069924,43,276,578,5696
1644172859.515111,-0.010315,0.009338,-0.991882,0.220855,0.340763,-0.115725,60,274,573,5696
1644172859.563398,-0.008728,0.009338,-0.993896,0.266656,0.432366,-0.100458,48,274,590,5712
1644172859.611774,-0.011353,0.007019,-0.992432,0.404061,0.356031,-0.008855,59,270,577,5728
1644172859.660169,-0.011902,0.010864,-0.995361,0.022382,0.447634,-0.176794,48,274,583,5648
1644172859.708565,-0.011169,0.006775,-0.9953,0.159786,0.340763,-0.130992,53,271,573,5696
1644172859.757261,-0.01001,0.009338,-0.991821,0.297191,0.24916,-0.039389,52,273,577,5712
1644172859.806019,-0.011475,0.007812,-0.990845,0.190321,0.493435,-0.008855,52,273,577,5728
1644172859.857902,-0.012695,0.007812,-0.991577,0.205588,0.371298,-0.14626,48,286,578,5696
1644172859.907519,-0.013489,0.008423,-0.993408,0.312458,0.386565,-0.024122,46,274,583,5808
1644172859.952253,-0.012695,0.007263,-0.991516,0.175053,0.569771,-0.039389,47,270,575,5664
1644172860.058987,-0.011475,0.01001,-0.990479,0.251389,0.340763,-0.039389,51,269,587,5696
1644172860.096368,-0.00885,0.006958,-0.992004,0.373527,0.264427,-0.085191,52,273,579,5760
1644172860.144114,-0.008545,0.010498,-0.989197,0.404061,0.447634,-0.176794,60,276,578,5648
1644172860.192486,-0.010071,0.008789,-0.991028,0.220855,0.462901,-0.130992,48,281,580,5712
1644172860.24086,-0.013062,0.009277,-0.992004,0.08345,0.462901,-0.054656,41,262,578,5696
1644172860.289255,-0.010376,0.009216,-0.992126,0.205588,0.356031,-0.024122,54,277,579,5760
1644172860.337637,-0.006287,0.009827,-0.993469,0.251389,0.264427,-0.115725,59,282,575,5664
1644172860.386021,-0.009766,0.009644,-0.991455,0.251389,0.432366,-0.25313,41,276,580,5728
1644172860.434441,-0.012024,0.010742,-0.994568,0.175053,0.401832,0.082748,55,279,569,5760
1644172860.482834,-0.007568,0.011047,-0.993042,0.266656,0.447634,0.052214,49,277,575,5728
1644172860.531205,-0.007935,0.010498,-0.992798,0.129252,0.279695,0.113282,46,271,573,5712
1644172860.579588,-0.009277,0.009705,-0.992371,0.251389,0.432366,-0.039389,57,260,575,5712
1644172860.62798,-0.010376,0.009155,-0.989868,0.281924,0.478168,-0.161527,42,277,579,5728
1644172860.676705,-0.007019,0.010193,-0.990723,0.159786,0.310229,-0.008855,43,276,580,5664
1644172860.727267,-0.011414,0.009521,-0.990967,0.236122,0.462901,-0.161527,47,275,577,5664
1644172860.777543,-0.009766,0.010071,-0.992188,0.190321,0.417099,-0.054656,49,275,582,5664
1644172860.822436,-0.011719,0.008484,-0.991638,0.251389,0.493435,-0.207328,52,275,572,5696
1644172860.918373,-0.008728,0.008362,-0.992432,0.266656,0.310229,-0.085191,43,276,569,5728
1644172860.966763,-0.008057,0.008362,-0.991089,0.113985,0.417099,-0.069924,64,280,577,5760
1644172861.015181,-0.006897,0.010742,-0.992065,0.022382,0.417099,-0.192061,53,269,576,5648
1644172861.067664,-0.010864,0.010254,-0.99353,0.144519,0.294962,-0.039389,55,276,576,5664
1644172861.111872,-0.010742,0.008484,-0.991516,0.342992,0.371298,-0.039389,53,274,576,5664
1644172861.160325,-0.009644,0.010559,-0.991028,0.266656,0.386565,-0.054656,52,282,582,5648
1644172861.208723,-0.010803,0.010681,-0.991638,0.190321,0.356031,-0.039389,55,274,566,5696
1644172861.257118,-0.009399,0.010071,-0.993958,0.144519,0.340763,-0.115725,48,288,576,5712
1644172861.305498,-0.011475,0.010437,-0.989075,0.327725,0.386565,-0.069924,51,274,566,5648
1644172861.353907,-0.01239,0.010254,-0.992676,0.205588,0.447634,-0.069924,52,273,577,5664
1644172861.4023,-0.010864,0.010132,-0.993713,0.327725,0.340763,-0.039389,38,282,586,5664
1644172861.450676,-0.01062,0.010071,-0.994934,0.220855,0.432366,-0.069924,52,277,572,5664
1644172861.499029,-0.009399,0.007324,-0.993225,0.220855,0.478168,-0.100458,54,282,589,5712
1644172861.547449,-0.011658,0.011414,-0.990662,0.373527,0.569771,0.113282,54,275,584,5728
1644172861.595838,-0.011475,0.010315,-0.992615,0.236122,0.478168,-0.039389,49,287,575,5696
1644172861.644237,-0.007385,0.012146,-0.990173,0.251389,0.294962,-0.039389,49,268,582,5712
1644172861.69264,-0.009277,0.013794,-0.993164,0.312458,0.340763,-0.130992,59,277,572,5712
1644172861.741094,-0.010742,0.009094,-0.992676,0.373527,0.401832,-0.283664,43,276,576,5712
1644172861.78978,-0.009155,0.010437,-0.990479,0.052916,0.462901,-0.176794,47,280,577,5696
1644172861.840294,-0.010925,0.009338,-0.992004,0.266656,0.294962,-0.207328,49,282,572,5728
1644172861.890597,-0.009644,0.009277,-0.991577,0.342992,0.188092,-0.115725,49,275,579,5728
1644172861.934904,-0.008667,0.009277,-0.99353,0.220855,0.478168,0.021679,43,271,578,5696
1644172862.031375,-0.010498,0.006653,-0.991577,0.281924,0.325496,-0.192061,49,280,570,5696
1644172862.07978,-0.009644,0.009033,-0.995483,0.144519,0.218626,-0.085191,53,286,578,5712
1644172862.128072,-0.011414,0.008789,-0.993713,0.236122,0.493435,-0.039389,52,268,568,5728
1644172862.176484,-0.006897,0.009277,-0.993835,0.342992,0.340763,0.036947,46,274,578,5760
1644172862.224889,-0.009705,0.009277,-0.992432,0.129252,0.356031,-0.100458,39,264,583,5760
1644172862.273281,-0.010132,0.008362,-0.990845,0.144519,0.401832,-0.14626,48,274,578,5696
1644172862.321645,-0.006653,0.008179,-0.99176,0.205588,0.310229,-0.100458,48,279,576,5712
1644172862.370065,-0.012878,0.010864,-0.991821,0.236122,0.523969,-0.100458,45,270,577,5728
1644172862.418425,-0.008057,0.007263,-0.994019,0.251389,0.401832,0.113282,48,276,571,5728
1644172862.466835,-0.010498,0.006104,-0.992737,0.175053,0.371298,-0.085191,52,282,572,5664
1644172862.515251,-0.00647,0.010864,-0.991943,0.404061,0.386565,-0.024122,59,277,584,5728
1644172862.563631,-0.010437,0.009766,-0.993103,0.190321,0.417099,-0.192061,51,283,571,5648
1644172862.612009,-0.010803,0.00885,-0.992493,0.297191,0.386565,-0.115725,53,276,573,5664
1644172862.660396,-0.012573,0.007446,-0.991943,0.190321,0.523969,-0.115725,47,280,579,5712
1644172862.708791,-0.008118,0.007812,-0.98938,0.236122,0.264427,0.036947,47,268,584,5648
1644172862.757138,-0.009521,0.007507,-0.992432,0.312458,0.508702,-0.115725,47,275,584,5600
1644172862.805575,-0.00885,0.00946,-0.993347,0.342992,0.294962,-0.130992,41,274,580,5712
1644172862.854069,-0.011353,0.00647,-0.98938,0.327725,0.447634,-0.130992,52,270,584,5600
1644172862.903328,-0.008545,0.009338,-0.989563,0.129252,0.508702,-0.161527,45,273,577,5696
1644172862.95352,-0.007385,0.009827,-0.991577,0.297191,0.478168,-0.085191,54,285,572,5712
1644172863.003729,-0.008728,0.010376,-0.991272,0.08345,0.325496,-0.176794,42,270,575,5712
1644172863.074842,-0.010132,0.009216,-0.990051,0.266656,0.523969,0.006412,47,275,586,5760
1644172863.144305,-0.011169,0.010681,-0.990845,0.297191,0.432366,0.082748,54,277,579,5712
1644172863.19271,-0.011536,0.009949,-0.993225,0.236122,0.585038,-0.130992,51,274,578,5664
1644172863.241082,-0.011597,0.008606,-0.991638,0.236122,0.569771,-0.069924,51,271,573,5712
1644172863.289473,-0.013306,0.007935,-0.993591,0.236122,0.523969,0.021679,55,276,573,5696
1644172863.337874,-0.009338,0.007874,-0.991211,0.251389,0.478168,-0.069924,45,277,570,5664
1644172863.386228,-0.009155,0.009521,-0.98999,0.327725,0.356031,0.052214,52,273,577,5712
1644172863.43466,-0.008789,0.010437,-0.991089,0.373527,0.340763,-0.130992,54,265,579,5696
1644172863.483052,-0.009766,0.011169,-0.992737,0.175053,0.417099,0.006412,54,273,572,5712
1644172863.531427,-0.01062,0.010315,-0.989929,0.266656,0.401832,-0.176794,57,275,586,5648
1644172863.579832,-0.008484,0.011108,-0.99054,0.205588,0.417099,-0.100458,49,282,575,5696
1644172863.628212,-0.008728,0.010925,-0.991272,0.175053,0.310229,-0.085191,49,275,577,5728
1644172863.67661,-0.008362,0.008606,-0.993713,0.266656,0.340763,-0.069924,42,277,570,5760
1644172863.725124,-0.009705,0.008301,-0.990112,0.220855,0.417099,-0.237863,54,280,577,5696
1644172863.773411,-0.009033,0.011597,-0.992249,0.327725,0.569771,-0.085191,49,273,572,5760
1644172863.82182,-0.008118,0.010986,-0.993408,0.342992,0.294962,0.006412,42,285,584,5696
1644172863.870217,-0.012085,0.009033,-0.992493,0.266656,0.432366,-0.069924,52,287,572,5664
1644172863.918592,-0.009827,0.010742,-0.989624,0.190321,0.386565,0.021679,40,270,584,5808
1644172863.966979,-0.006226,0.010376,-0.993347,0.388794,0.340763,-0.192061,43,271,587,5808
1644172864.015387,-0.01001,0.008789,-0.992249,0.098718,0.371298,-0.054656,49,290,584,5728
1644172864.093281,-0.006531,0.008301,-0.991028,0.144519,0.493435,0.006412,58,276,578,5760
1644172864.11816,-0.012146,0.007935,-0.989502,0.144519,0.401832,-0.192061,45,273,577,5696
1644172864.161471,-0.008789,0.010132,-0.994812,0.205588,0.279695,-0.207328,52,265,584,5712
1644172864.257276,-0.009888,0.010193,-0.99176,0.068183,0.432366,0.021679,54,282,577,5664
1644172864.305676,-0.01001,0.008606,-0.99231,0.251389,0.401832,-0.085191,59,270,586,5776
1644172864.354083,-0.012451,0.008911,-0.990967,0.190321,0.371298,-0.115725,59,282,577,5776
1644172864.402481,-0.010437,0.00769,-0.989197,0.342992,0.417099,-0.25313,49,273,575,5760
1644172864.450835,-0.009216,0.011108,-0.988953,0.190321,0.294962,-0.207328,46,269,576,5712
1644172864.499244,-0.010681,0.007996,-0.991821,0.098718,0.493435,-0.039389,43,266,576,5696
1644172864.547627,-0.012878,0.008972,-0.993225,0.342992,0.462901,-0.085191,48,274,580,5728
1644172864.596023,-0.00708,0.009338,-0.992126,0.251389,0.478168,-0.069924,52,270,565,5696
1644172864.644397,-0.008667,0.00885,-0.99353,0.236122,0.493435,-0.14626,40,273,582,5696
1644172864.69283,-0.007507,0.011597,-0.992737,0.281924,0.340763,-0.039389,52,277,579,5664
1644172864.741207,-0.008667,0.01062,-0.993835,0.404061,0.417099,-0.054656,48,276,576,5648
1644172864.789603,-0.011292,0.009827,-0.991333,0.373527,0.523969,0.113282,54,282,584,5696
1644172864.83803,-0.009338,0.007812,-0.993408,0.327725,0.294962,-0.008855,41,259,580,5776
1644172864.886423,-0.011963,0.010498,-0.991333,0.205588,0.356031,0.052214,39,276,571,5696
1644172864.934812,-0.007812,0.01239,-0.988525,0.297191,0.432366,-0.161527,53,276,576,5664
1644172864.983197,-0.010071,0.010315,-0.990295,0.175053,0.401832,-0.024122,51,274,585,5712
1644172865.031579,-0.008057,0.008911,-0.990112,0.205588,0.417099,-0.192061,53,279,578,5728
1644172865.085468,-0.011108,0.009338,-0.992554,0.373527,0.478168,-0.161527,59,275,568,5728
1644172865.129508,-0.010742,0.007568,-0.991821,0.281924,0.386565,-0.039389,47,273,582,5760
1644172865.178002,-0.008118,0.009216,-0.994141,0.404061,0.401832,-0.069924,53,266,569,5696
1644172865.228295,-0.01239,0.008301,-0.992981,0.190321,0.371298,-0.130992,57,273,579,5728
1644172865.278705,-0.010559,0.010132,-0.994385,0.327725,0.401832,-0.161527,46,274,583,5712
1644172865.370265,-0.006958,0.009644,-0.99176,0.251389,0.585038,-0.069924,48,266,578,5696
1644172865.418656,-0.012634,0.007568,-0.992004,0.098718,0.294962,-0.085191,52,270,577,5776
1644172865.467043,-0.009521,0.008362,-0.995605,0.297191,0.432366,-0.176794,53,274,585,5696
1644172865.515445,-0.009644,0.007751,-0.990295,0.312458,0.371298,-0.100458,45,273,572,5696
1644172865.563847,-0.01062,0.012817,-0.98999,0.190321,0.585038,-0.161527,51,257,580,5648
1644172865.612254,-0.01178,0.010254,-0.993774,0.266656,0.294962,-0.115725,45,270,577,5696
1644172865.660629,-0.010742,0.010193,-0.99408,0.220855,0.493435,-0.100458,41,279,569,5760
1644172865.709013,-0.008667,0.010986,-0.98999,0.098718,0.432366,0.082748,54,282,572,5696
1644172865.75741,-0.013489,0.011719,-0.993896,0.236122,0.310229,-0.130992,55,259,576,5696
1644172865.805806,-0.01239,0.011475,-0.995911,0.297191,0.432366,-0.024122,54,280,584,5664
1644172865.854241,-0.010132,0.01001,-0.989197,0.281924,0.325496,-0.161527,46,269,566,5712
1644172865.902618,-0.008545,0.010132,-0.993103,0.327725,0.371298,0.006412,52,273,579,5696
1644172865.951006,-0.010437,0.009399,-0.990906,0.205588,0.294962,-0.14626,57,277,586,5696
1644172865.999359,-0.011108,0.010132,-0.992798,0.327725,0.462901,0.113282,47,280,568,5712
1644172866.064207,-0.009521,0.009399,-0.993103,0.236122,0.432366,-0.100458,51,269,576,5664
1644172866.098712,-0.009644,0.008728,-0.994568,0.281924,0.417099,-0.130992,57,275,584,5728
1644172866.144527,-0.01062,0.00769,-0.990845,0.220855,0.417099,-0.100458,48,269,578,5696
1644172866.192941,-0.011047,0.009155,-0.995178,0.266656,0.432366,-0.100458,54,268,575,5632
1644172866.241326,-0.011658,0.010254,-0.992737,0.159786,0.279695,0.067481,51,276,585,5696
1644172866.289799,-0.008789,0.008789,-0.991394,0.251389,0.264427,-0.024122,54,275,582,5760
1644172866.340039,-0.010986,0.009827,-0.99176,0.297191,0.340763,-0.14626,52,273,575,5696
1644172866.390324,-0.010742,0.00946,-0.991028,0.266656,0.417099,-0.085191,51,264,569,5696
1644172866.4357,-0.010315,0.009277,-0.992493,0.129252,0.462901,-0.237863,42,273,575,5760
1644172866.531646,-0.010498,0.009583,-0.990601,0.190321,0.401832,-0.207328,49,268,568,5728
1644172866.580039,-0.011475,0.012146,-0.994629,0.113985,0.310229,-0.207328,45,273,579,5760
1644172866.628433,-0.011902,0.009277,-0.99353,0.175053,0.279695,0.006412,43,281,580,5648
1644172866.676827,-0.007751,0.010559,-0.993042,0.251389,0.508702,-0.115725,64,275,586,5776
1644172866.725218,-0.009766,0.010376,-0.992798,0.35826,0.462901,-0.008855,46,271,573,5696
1644172866.773614,-0.011292,0.009827,-0.990173,0.266656,0.264427,-0.054656,41,271,583,5712
1644172866.822006,-0.011902,0.008179,-0.992188,0.159786,0.371298,-0.115725,47,282,572,5664
1644172866.870437,-0.01062,0.007629,-0.991882,0.327725,0.417099,-0.039389,46,276,571,5696
1644172866.918811,-0.011414,0.008789,-0.992737,0.297191,0.417099,-0.192061,53,276,576,5696
1644172866.967191,-0.008728,0.009766,-0.993652,0.113985,0.462901,-0.130992,49,280,577,5712
1644172867.015607,-0.010986,0.009644,-0.989075,0.220855,0.417099,-0.115725,52,277,582,5712
1644172867.068278,-0.011414,0.008789,-0.99231,0.052916,0.523969,-0.192061,48,274,590,5712
1644172867.112374,-0.011536,0.007141,-0.992615,0.205588,0.401832,-0.085191,48,264,587,5696
1644172867.160745,-0.008118,0.010315,-0.992859,0.144519,0.310229,-0.207328,59,268,565,5728
1644172867.209126,-0.009949,0.008972,-0.990295,0.220855,0.233893,-0.207328,48,269,569,5600
1644172867.257494,-0.009644,0.01123,-0.989563,0.022382,0.554504,-0.14626,51,271,578,5712
1644172867.305911,-0.009094,0.009094,-0.991943,0.236122,0.340763,-0.039389,46,274,583,5664
