epoch,acc_x,acc_y,acc_z,rot_x,rot_y,rot_z,mag_x,mag_y,mag_z,temp
1644158100.029438,-0.010437,0.00824,-0.992554,0.052916,0.63084,-0.054656,57,280,575,5232
1644158100.077993,-0.011597,0.009277,-0.991089,0.220855,0.447634,-0.130992,53,279,573,5232
1644158100.126203,-0.010498,0.006775,-0.995972,0.159786,0.447634,-0.130992,54,277,565,5296
1644158100.174617,-0.012085,0.01001,-0.993286,0.175053,0.508702,-0.192061,51,274,578,5296
1644158100.222983,-0.010742,0.008972,-0.992676,0.236122,0.447634,-0.115725,45,275,570,5184
1644158100.271342,-0.00769,0.007446,-0.989868,0.251389,0.508702,0.036947,43,274,571,5344
1644158100.319704,-0.014099,0.011536,-0.991821,0.190321,0.523969,-0.039389,43,269,576,5248
1644158100.36812,-0.010681,0.008118,-0.99176,0.175053,0.569771,-0.039389,59,275,577,5296
1644158100.416517,-0.007751,0.01001,-0.990295,0.312458,0.401832,-0.115725,58,269,573,5280
1644158100.464926,-0.007874,0.009644,-0.99054,0.175053,0.432366,-0.161527,43,279,580,5280
1644158100.513278,-0.009705,0.008911,-0.991028,0.175053,0.233893,-0.283664,48,274,571,5232
1644158100.56168,-0.007629,0.01123,-0.990662,0.35826,0.585038,-0.085191,59,268,579,5280
1644158100.61006,-0.009155,0.007812,-0.990112,0.434595,0.447634,0.021679,48,271,578,5280
1644158100.65846,-0.008301,0.011963,-0.996704,0.220855,0.646107,-0.024122,54,268,570,5280
1644158100.70685,-0.010803,0.009277,-0.992676,0.236122,0.294962,0.021679,51,269,573,5280
1644158100.755237,-0.013916,0.007935,-0.992859,0.297191,0.371298,0.021679,52,277,577,5232
1644158100.803681,-0.010071,0.009583,-0.993042,0.236122,0.401832,-0.25313,52,268,575,5280
1644158100.854143,-0.012268,0.008667,-0.99176,0.35826,0.279695,-0.054656,47,277,582,5248
1644158100.905394,-0.008057,0.011108,-0.993408,0.327725,0.462901,-0.054656,48,269,578,5344
1644158100.949944,-0.009583,0.008118,-0.989929,0.297191,0.371298,-0.039389,45,273,568,5248
1644158101.063045,-0.009277,0.006653,-0.992615,0.251389,0.325496,-0.283664,53,276,578,5248
1644158101.09495,-0.012024,0.011047,-0.991577,0.281924,0.432366,-0.100458,48,271,583,5296
1644158101.142413,-0.011902,0.011475,-0.99231,0.220855,0.447634,-0.222595,51,276,580,5280
1644158101.190745,-0.011902,0.009216,-0.993958,0.175053,0.478168,-0.100458,55,274,578,5280
1644158101.239118,-0.009583,0.011047,-0.990417,0.312458,0.508702,-0.130992,46,283,587,5280
1644158101.287509,-0.011841,0.008484,-0.991272,0.373527,0.386565,-0.008855,51,281,578,5296
1644158101.335891,-0.00769,0.01178,-0.993225,0.068183,0.386565,0.006412,53,269,571,5280
1644158101.384297,-0.012817,0.009216,-0.992737,0.373527,0.340763,-0.069924,42,280,572,5248
1644158101.432695,-0.012146,0.013794,-0.991943,0.159786,0.386565,-0.237863,41,271,578,5248
1644158101.48106,-0.010803,0.011475,-0.991699,0.129252,0.462901,0.113282,54,273,577,5280
1644158101.529703,-0.008972,0.008179,-0.993408,0.449863,0.447634,-0.024122,47,273,582,5232
1644158101.58008,-0.014771,0.010315,-0.990906,0.052916,0.401832,-0.161527,52,265,575,5280
1644158101.630505,-0.00824,0.008728,-0.991272,0.342992,0.478168,0.036947,51,279,573,5280
1644158101.67564,-0.008911,0.008972,-0.990417,0.297191,0.554504,-0.207328,52,280,582,5280
1644158101.771391,-0.012817,0.011414,-0.994141,0.327725,0.478168,-0.039389,53,276,566,5232
1644158101.819774,-0.009949,0.010193,-0.992737,0.175053,0.478168,-0.085191,42,275,568,5280
1644158101.868183,-0.009705,0.01178,-0.989136,0.281924,0.539237,0.006412,53,266,583,5248
1644158101.916603,-0.010315,0.006348,-0.992249,0.266656,0.310229,-0.085191,55,269,583,5232
1644158101.965097,-0.012207,0.008545,-0.991272,0.312458,0.508702,-0.237863,57,275,572,5232
1644158102.013395,-0.010742,0.009827,-0.992188,0.007115,0.325496,0.021679,45,273,563,5248
1644158102.063875,-0.008728,0.010193,-0.992065,0.388794,0.386565,-0.14626,53,279,573,5248
1644158102.110181,-0.010559,0.01123,-0.993103,0.236122,0.417099,0.036947,60,262,585,5296
1644158102.158526,-0.008484,0.010864,-0.994385,0.236122,0.325496,-0.039389,55,276,569,5248
1644158102.206923,-0.010193,0.006653,-0.993164,0.327725,0.386565,-0.008855,45,275,572,5248
1644158102.255327,-0.011536,0.011414,-0.993958,0.159786,0.676641,-0.100458,46,283,576,5296
1644158102.303713,-0.011047,0.007019,-0.993225,0.404061,0.417099,-0.207328,42,273,568,5248
1644158102.352216,-0.010864,0.010193,-0.991882,0.251389,0.371298,-0.085191,51,283,573,5280
1644158102.40047,-0.010498,0.009766,-0.992676,0.159786,0.401832,-0.222595,58,276,585,5280
1644158102.448881,-0.010803,0.009338,-0.99585,0.404061,0.294962,-0.039389,54,270,579,5296
1644158102.497272,-0.00946,0.008972,-0.991333,0.129252,0.493435,-0.008855,54,285,572,5280
1644158102.545661,-0.008301,0.009888,-0.991882,0.297191,0.386565,-0.222595,53,274,569,5200
1644158102.594822,-0.007812,0.00885,-0.994446,0.098718,0.432366,0.052214,45,265,565,5232
1644158102.642479,-0.012512,0.007874,-0.988281,0.236122,0.493435,-0.085191,41,274,576,5248
1644158102.692736,-0.010254,0.008118,-0.994629,0.08345,0.478168,-0.130992,57,265,589,5280
1644158102.743146,-0.010864,0.010681,-0.992798,0.220855,0.447634,-0.039389,39,271,573,5280
1644158102.793448,-0.009949,0.009888,-0.991394,0.236122,0.340763,-0.008855,54,285,579,5200
1644158102.884414,-0.010071,0.009766,-0.992676,0.175053,0.356031,-0.14626,46,286,576,5280
1644158102.932792,-0.010193,0.007874,-0.990906,0.190321,0.371298,-0.207328,54,280,577,5280
1644158102.981146,-0.008484,0.008118,-0.99115,0.144519,0.508702,-0.130992,52,268,579,5200
1644158103.029541,-0.010437,0.012817,-0.99408,0.205588,0.401832,-0.054656,55,271,576,5280
1644158103.081439,-0.007507,0.01001,-0.989502,0.297191,0.585038,-0.069924,48,279,580,5312
1644158103.126274,-0.008423,0.00946,-0.990295,0.205588,0.340763,-0.085191,59,282,572,5280
1644158103.174686,-0.011047,0.011963,-0.991455,0.205588,0.371298,-0.130992,52,280,572,5232
1644158103.223072,-0.011963,0.009644,-0.993713,0.342992,0.447634,0.006412,47,270,572,5232
1644158103.27141,-0.009216,0.009155,-0.990845,0.266656,0.523969,0.021679,49,275,570,5248
1644158103.319838,-0.009583,0.010559,-0.990784,0.251389,0.523969,-0.161527,46,266,573,5168
1644158103.368221,-0.008179,0.009155,-0.99231,0.129252,0.371298,-0.069924,45,275,575,5296
1644158103.416622,-0.011108,0.011475,-0.98938,0.159786,0.447634,-0.207328,49,273,577,5344
1644158103.465114,-0.010559,0.009155,-0.991516,0.159786,0.508702,-0.054656,49,273,579,5296
1644158103.513411,-0.00885,0.009033,-0.989929,0.373527,0.554504,-0.069924,53,274,576,5200
1644158103.561795,-0.012085,0.009888,-0.991943,0.297191,0.539237,-0.130992,60,276,580,5280
1644158103.610171,-0.011414,0.009521,-0.99408,0.220855,0.340763,-0.14626,42,270,570,5280
1644158103.658571,-0.009033,0.008545,-0.992249,0.297191,0.508702,-0.222595,45,260,575,5280
1644158103.706948,-0.008728,0.012207,-0.99292,0.35826,0.493435,-0.161527,53,279,578,5280
1644158103.755306,-0.010681,0.009338,-0.991089,0.144519,0.325496,-0.283664,57,273,575,5296
1644158103.804018,-0.009033,0.011475,-0.991028,0.297191,0.386565,-0.085191,48,276,576,5232
1644158103.855254,-0.011658,0.010071,-0.994019,0.312458,0.539237,0.006412,47,265,568,5280
1644158103.905684,-0.012146,0.01416,-0.989807,0.281924,0.356031,-0.100458,42,270,577,5296
1644158103.950297,-0.01123,0.009888,-0.989441,0.281924,0.371298,0.021679,52,273,572,5232
1644158104.062988,-0.007263,0.012573,-0.989929,0.144519,0.417099,-0.024122,62,271,580,5232
1644158104.097997,-0.008728,0.009766,-0.992798,0.312458,0.554504,-0.100458,48,281,576,5280
1644158104.142461,-0.009399,0.009338,-0.990601,0.144519,0.523969,0.021679,53,266,569,5296
1644158104.190846,-0.008667,0.011536,-0.994385,0.159786,0.325496,-0.130992,51,274,571,5200
1644158104.239219,-0.008667,0.01001,-0.991272,0.220855,0.539237,-0.14626,53,274,580,5248
1644158104.287614,-0.010193,0.009583,-0.990662,0.327725,0.386565,-0.100458,51,271,573,5248
1644158104.335999,-0.011169,0.010254,-0.994751,0.220855,0.371298,-0.008855,57,275,584,5280
1644158104.384391,-0.011902,0.008423,-0.992615,0.495664,0.539237,-0.100458,55,279,578,5296
1644158104.432755,-0.009521,0.009583,-0.992004,0.251389,0.508702,-0.130992,45,273,577,5280
1644158104.481157,-0.011658,0.010376,-0.993652,0.327725,0.539237,-0.069924,48,276,585,5248
1644158104.529704,-0.011108,0.009705,-0.990906,0.327725,0.386565,-0.054656,42,273,582,5184
1644158104.580161,-0.011108,0.008179,-0.990295,0.266656,0.294962,-0.069924,49,273,582,5248
1644158104.630181,-0.00946,0.005859,-0.991028,0.190321,0.493435,-0.069924,40,282,577,5296
1644158104.675277,-0.007935,0.010986,-0.994629,0.144519,0.294962,-0.069924,54,268,577,5248
1644158104.771487,-0.010376,0.006348,-0.991333,0.297191,0.401832,0.036947,49,275,577,5200
1644158104.819906,-0.012329,0.008972,-0.992859,0.129252,0.264427,-0.161527,48,274,571,5280
1644158104.868304,-0.009094,0.009277,-0.990601,0.297191,0.432366,0.036947,48,274,578,5280
1644158104.91667,-0.007996,0.009888,-0.990234,0.480397,0.432366,-0.085191,47,277,577,5248
1644158104.965138,-0.009521,0.012634,-0.992249,0.281924,0.310229,0.036947,54,280,572,5280
1644158105.013468,-0.010925,0.010986,-0.992493,0.480397,0.447634,0.052214,48,276,576,5248
1644158105.066777,-0.009216,0.010254,-0.993469,0.129252,0.539237,-0.222595,57,280,586,5280
1644158105.110247,-0.010925,0.011719,-0.988708,0.190321,0.310229,0.021679,38,273,575,5200
1644158105.158599,-0.008301,0.010376,-0.989868,0.251389,0.447634,-0.054656,53,271,578,5296
1644158105.207004,-0.008118,0.011108,-0.989563,0.022382,0.371298,-0.130992,53,274,578,5280
1644158105.255393,-0.010315,0.012512,-0.991638,0.037649,0.432366,-0.192061,45,275,582,5280
1644158105.303783,-0.009888,0.006592,-0.988892,-0.069221,0.417099,-0.130992,42,270,577,5280
1644158105.352233,-0.012146,0.009521,-0.987854,0.251389,0.432366,0.052214,55,271,569,5248
1644158105.400552,-0.008057,0.012695,-0.990051,0.434595,0.401832,-0.100458,45,270,577,5184
1644158105.448941,-0.011902,0.010498,-0.991699,0.236122,0.401832,-0.176794,47,268,572,5280
1644158105.497335,-0.01178,0.010071,-0.993408,0.190321,0.447634,-0.069924,36,276,585,5280
1644158105.545693,-0.008423,0.007935,-0.988831,0.159786,0.508702,-0.192061,51,279,587,5296
1644158105.594115,-0.007019,0.008301,-0.989807,0.236122,0.447634,-0.222595,49,275,575,5248
1644158105.642505,-0.010498,0.012451,-0.990356,0.113985,0.432366,-0.024122,49,273,577,5280
1644158105.691138,-0.012268,0.01178,-0.989929,0.266656,0.417099,-0.069924,43,279,576,5296
1644158105.741716,-0.011536,0.009705,-0.993713,0.388794,0.447634,-0.130992,48,274,578,5248
1644158105.79194,-0.009827,0.009583,-0.990784,0.266656,0.401832,0.067481,55,269,580,5344
1644158105.83771,-0.011536,0.00885,-0.99115,0.434595,0.523969,0.021679,48,274,571,5184
1644158105.932888,-0.011536,0.008972,-0.991333,0.281924,0.386565,-0.069924,48,276,580,5312
1644158105.981253,-0.011597,0.009705,-0.991516,0.388794,0.417099,0.021679,54,275,572,5344
1644158106.029649,-0.01239,0.007568,-0.990417,0.281924,0.447634,-0.069924,48,279,557,5312
1644158106.078129,-0.010498,0.00824,-0.991699,0.297191,0.264427,-0.14626,46,269,578,5232
1644158106.12642,-0.00885,0.011963,-0.989502,0.236122,0.478168,-0.14626,51,264,573,5248
1644158106.174773,-0.009033,0.00885,-0.991455,0.190321,0.462901,-0.100458,43,266,573,5248
1644158106.223175,-0.01062,0.010986,-0.989441,0.129252,0.417099,-0.207328,53,266,578,5280
1644158106.27153,-0.011902,0.007751,-0.991333,0.266656,0.462901,-0.329466,47,265,570,5232
1644158106.319951,-0.009949,0.010681,-0.992249,0.205588,0.417099,0.021679,51,274,571,5248
1644158106.368343,-0.009521,0.011047,-0.993042,0.220855,0.386565,-0.039389,49,280,570,5280
1644158106.416718,-0.008972,0.010925,-0.989197,0.159786,0.386565,0.098015,51,269,578,5280
1644158106.465204,-0.007874,0.012024,-0.990051,0.190321,0.432366,-0.039389,51,279,578,5344
1644158106.51348,-0.008545,0.009033,-0.989319,0.327725,0.462901,-0.069924,53,276,576,5280
1644158106.561884,-0.01239,0.012268,-0.994507,0.236122,0.371298,-0.115725,51,271,573,5232
1644158106.610262,-0.011841,0.009155,-0.991455,0.266656,0.462901,-0.024122,59,287,572,5248
1644158106.658648,-0.011047,0.009705,-0.992859,0.159786,0.539237,-0.100458,60,281,569,5280
1644158106.707047,-0.009888,0.011475,-0.992981,0.205588,0.432366,-0.085191,47,265,570,5200
1644158106.755413,-0.011658,0.012451,-0.992065,0.220855,0.493435,-0.207328,43,262,585,5296
1644158106.803861,-0.009705,0.00946,-0.990967,0.297191,0.523969,-0.024122,52,268,572,5344
1644158106.854144,-0.012939,0.008789,-0.991577,0.404061,0.508702,0.006412,53,271,576,5280
1644158106.905555,-0.009949,0.010132,-0.990845,0.251389,0.417099,-0.039389,54,265,582,5296
1644158106.950121,-0.009949,0.008362,-0.991333,0.159786,0.401832,-0.237863,55,266,571,5280
1644158107.062855,-0.008484,0.010681,-0.990234,0.297191,0.523969,-0.085191,52,273,579,5280
1644158107.096518,-0.010193,0.010864,-0.993774,0.419328,0.539237,0.036947,52,280,584,5296
1644158107.142603,-0.008911,0.007202,-0.99054,0.113985,0.294962,-0.054656,48,274,571,5280
1644158107.190942,-0.010803,0.008423,-0.992676,0.281924,0.371298,-0.192061,52,277,575,5296
1644158107.239322,-0.011658,0.011108,-0.992126,0.190321,0.325496,-0.085191,55,264,576,5280
1644158107.287708,-0.010864,0.006836,-0.99176,0.35826,0.417099,-0.100458,48,274,573,5232
1644158107.336097,-0.013062,0.008423,-0.992249,0.419328,0.371298,-0.115725,47,277,575,5296
1644158107.384495,-0.009949,0.005859,-0.991821,0.190321,0.508702,-0.008855,43,266,576,5344
1644158107.432901,-0.010132,0.01001,-0.991638,0.159786,0.432366,-0.207328,52,282,575,5232
1644158107.481264,-0.010437,0.013,-0.990906,0.251389,0.371298,-0.115725,52,275,570,5280
1644158107.529975,-0.011475,0.007019,-0.991943,0.266656,0.478168,-0.054656,47,260,572,5248
1644158107.579573,-0.010315,0.007324,-0.990417,0.236122,0.325496,-0.008855,55,266,576,5280
1644158107.629718,-0.008484,0.00946,-0.990112,0.281924,0.447634,-0.237863,58,279,573,5248
1644158107.679771,-0.010437,0.007935,-0.99292,0.281924,0.447634,-0.115725,48,276,569,5344
1644158107.7716,-0.009888,0.010132,-0.989502,0.220855,0.310229,-0.14626,55,269,571,5296
1644158107.819981,-0.010132,0.010559,-0.993469,0.220855,0.447634,0.006412,53,279,569,5248
1644158107.868395,-0.009521,0.010376,-0.992004,0.220855,0.356031,-0.100458,54,268,575,5232
1644158107.916811,-0.012268,0.008545,-0.989807,0.648336,0.447634,-0.268397,41,269,562,5280
1644158107.965236,-0.011047,0.010864,-0.991882,0.327725,0.310229,0.021679,60,281,583,5280
1644158108.01359,-0.008972,0.008606,-0.993652,0.312458,0.447634,-0.268397,51,271,566,5280
1644158108.064846,-0.010803,0.010376,-0.989868,0.159786,0.493435,-0.14626,55,274,585,5232
1644158108.110384,-0.009277,0.010498,-0.991577,0.312458,0.539237,-0.115725,48,271,576,5248
1644158108.158729,-0.009399,0.010803,-0.99115,0.220855,0.447634,-0.14626,52,273,577,5248
1644158108.207145,-0.008545,0.010376,-0.992065,0.251389,0.386565,-0.100458,53,276,571,5248
1644158108.255508,-0.008057,0.009338,-0.987854,0.205588,0.386565,-0.085191,45,280,570,5280
1644158108.303943,-0.010376,0.006836,-0.991943,0.266656,0.401832,-0.054656,47,277,579,5248
1644158108.35232,-0.011841,0.009827,-0.990845,0.08345,0.325496,-0.024122,54,275,572,5248
1644158108.40069,-0.011902,0.017029,-0.989746,0.022382,0.417099,-0.100458,58,283,576,5296
1644158108.449087,-0.012024,0.007812,-0.992188,0.236122,0.417099,-0.14626,42,282,577,5248
1644158108.497472,-0.00769,0.00354,-0.993347,0.281924,0.493435,-0.054656,61,277,582,5248
1644158108.545856,-0.013184,0.01123,-0.993042,0.251389,0.417099,-0.176794,55,271,566,5248
1644158108.594423,-0.01178,0.012878,-0.991821,0.190321,0.356031,-0.115725,51,271,568,5280
1644158108.642852,-0.013,0.008911,-0.99408,0.205588,0.294962,-0.192061,41,269,573,5280
1644158108.693206,-0.011292,0.012817,-0.991333,0.312458,0.508702,-0.054656,46,279,569,5280
1644158108.743623,-0.012512,0.009888,-0.991211,0.404061,0.554504,-0.161527,43,279,585,5296
1644158108.788297,-0.011719,0.008057,-0.990601,0.281924,0.432366,-0.161527,49,280,568,5296
1644158108.884939,-0.008728,0.008301,-0.991028,0.434595,0.508702,-0.207328,47,273,575,5232
1644158108.932996,-0.011658,0.007324,-0.991455,0.281924,0.539237,-0.207328,54,270,568,5248
1644158108.981354,-0.012939,0.00769,-0.991272,0.281924,0.432366,-0.161527,43,271,571,5344
1644158109.029713,-0.009033,0.008728,-0.990784,0.190321,0.356031,0.036947,51,281,573,5280
1644158109.07819,-0.009827,0.007141,-0.991943,0.251389,0.401832,-0.100458,45,273,575,5200
1644158109.126471,-0.010132,0.007751,-0.991333,0.236122,0.264427,-0.100458,49,275,570,5184
1644158109.17488,-0.008362,0.01178,-0.992004,0.342992,0.310229,-0.069924,39,266,573,5280
1644158109.223266,-0.009277,0.009644,-0.988525,0.236122,0.478168,-0.024122,54,268,577,5312
1644158109.27163,-0.009216,0.006958,-0.992676,0.312458,0.325496,-0.069924,52,277,565,5280
1644158109.320046,-0.011169,0.01178,-0.995056,0.281924,0.508702,-0.054656,60,274,566,5248
1644158109.368425,-0.011475,0.009033,-0.992371,0.297191,0.447634,0.052214,48,274,566,5280
1644158109.416824,-0.012878,0.009705,-0.992188,0.266656,0.386565,-0.14626,51,279,566,5296
1644158109.465287,-0.00885,0.008667,-0.990112,0.205588,0.462901,-0.100458,58,269,566,5248
1644158109.513583,-0.008789,0.007507,-0.992065,0.327725,0.462901,-0.176794,59,273,568,5280
1644158109.561984,-0.008179,0.008362,-0.993286,0.373527,0.493435,-0.100458,49,275,563,5248
1644158109.610347,-0.009827,0.007263,-0.992432,0.220855,0.508702,-0.085191,53,269,571,5280
1644158109.658755,-0.012878,0.00769,-0.992432,0.327725,0.310229,-0.039389,57,270,570,5248
1644158109.707152,-0.009094,0.008667,-0.991882,0.220855,0.417099,0.067481,53,264,583,5280
1644158109.755546,-0.009216,0.009827,-0.99115,0.236122,0.447634,-0.130992,53,271,580,5200
1644158109.805267,-0.011902,0.009277,-0.990601,0.342992,0.478168,-0.161527,49,268,584,5248
1644158109.856478,-0.011902,0.010132,-0.992859,0.281924,0.493435,-0.100458,46,279,573,5248
1644158109.90688,-0.011047,0.009583,-0.993042,0.35826,0.447634,-0.130992,48,271,573,5280
1644158109.997493,-0.011292,0.009033,-0.992249,0.342992,0.386565,-0.222595,48,279,573,5280
1644158110.061508,-0.008057,0.00946,-0.992493,0.419328,0.462901,-0.222595,57,277,572,5232
1644158110.094287,-0.012634,0.009033,-0.991577,0.434595,0.493435,-0.039389,49,263,584,5296
1644158110.142672,-0.010315,0.007141,-0.990784,0.251389,0.493435,-0.085191,43,271,564,5344
1644158110.191038,-0.010193,0.008484,-0.99176,0.281924,0.523969,-0.192061,46,279,583,5280
1644158110.239427,-0.009094,0.011108,-0.990479,0.251389,0.478168,-0.024122,45,270,575,5280
1644158110.287815,-0.009338,0.007996,-0.993408,0.190321,0.462901,-0.039389,55,286,576,5296
1644158110.336213,-0.009888,0.007446,-0.991455,0.404061,0.371298,0.036947,57,280,575,5296
1644158110.384634,-0.007996,0.00708,-0.994629,0.281924,0.340763,-0.069924,49,268,568,5248
1644158110.432998,-0.013672,0.007935,-0.99408,0.251389,0.523969,-0.176794,53,279,576,5280
1644158110.481363,-0.007996,0.010376,-0.993286,0.342992,0.386565,-0.161527,52,280,579,5248
1644158110.529746,-0.010437,0.008667,-0.991516,0.327725,0.24916,0.036947,48,271,578,5296
1644158110.578219,-0.012817,0.008667,-0.990601,0.434595,0.325496,-0.085191,49,270,572,5280
1644158110.628623,-0.008667,0.007568,-0.992737,0.175053,0.447634,-0.161527,48,269,573,5232
1644158110.678792,-0.011597,0.011841,-0.99231,0.281924,0.432366,-0.207328,42,273,565,5296
1644158110.72386,-0.013245,0.008545,-0.989441,0.08345,0.401832,-0.115725,45,270,575,5200
1644158110.820074,-0.012329,0.011169,-0.990295,0.297191,0.478168,-0.008855,51,276,571,5296
1644158110.86852,-0.010254,0.009644,-0.993103,0.144519,0.478168,-0.192061,60,269,564,5200
1644158110.916916,-0.013245,0.008911,-0.99707,0.266656,0.447634,-0.14626,52,275,572,5248
1644158110.965286,-0.011475,0.009155,-0.991516,0.281924,0.371298,-0.054656,47,275,577,5312
1644158111.01368,-0.010071,0.007812,-0.993469,0.190321,0.401832,-0.054656,53,281,580,5248
1644158111.064937,-0.012512,0.013062,-0.988342,0.327725,0.417099,-0.115725,48,269,573,5248
1644158111.110484,-0.009949,0.010986,-0.993835,0.327725,0.462901,0.006412,49,282,568,5280
1644158111.158819,-0.01178,0.010254,-0.990295,0.220855,0.478168,-0.100458,58,271,573,5344
1644158111.207204,-0.010315,0.010315,-0.99408,0.327725,0.386565,-0.14626,48,274,573,5296
1644158111.255596,-0.008423,0.00946,-0.990479,0.251389,0.432366,0.006412,51,269,578,5280
1644158111.303991,-0.010315,0.010803,-0.991028,0.342992,0.508702,-0.14626,52,268,568,5296
1644158111.3524,-0.006958,0.009521,-0.990234,0.129252,0.340763,-0.100458,54,285,579,5280
1644158111.400759,-0.010803,0.011963,-0.991394,0.113985,0.447634,-0.115725,53,266,578,5280
1644158111.44914,-0.01239,0.011108,-0.990784,0.159786,0.432366,-0.115725,54,282,565,5296
1644158111.497524,-0.012146,0.010071,-0.991028,0.281924,0.493435,0.021679,55,276,580,5280
1644158111.545909,-0.010498,0.012573,-0.992615,0.297191,0.432366,0.021679,54,268,572,5232
1644158111.594306,-0.00769,0.008911,-0.990967,0.297191,0.356031,-0.069924,52,263,572,5312
1644158111.642722,-0.01062,0.007629,-0.992737,0.159786,0.401832,-0.14626,54,280,565,5248
1644158111.691101,-0.010925,0.007874,-0.993347,0.144519,0.386565,-0.054656,53,276,576,5232
1644158111.739775,-0.00946,0.007935,-0.992371,0.190321,0.462901,-0.237863,41,276,571,5280
1644158111.790064,-0.008789,0.011719,-0.990845,0.281924,0.447634,-0.176794,49,277,586,5248
1644158111.840953,-0.009277,0.010498,-0.991943,0.144519,0.447634,0.067481,42,270,579,5280
1644158111.885957,-0.010681,0.008118,-0.991089,0.281924,0.432366,-0.192061,46,274,566,5280
1644158111.981446,-0.009583,0.008484,-0.990051,0.236122,0.340763,-0.130992,45,275,577,5248
1644158112.029832,-0.010986,0.011841,-0.993713,0.144519,0.493435,0.021679,41,271,580,5248
1644158112.078276,-0.009338,0.008118,-0.991394,0.205588,0.356031,-0.176794,42,275,577,5232
1644158112.126622,-0.011475,0.007935,-0.99115,0.251389,0.493435,-0.130992,52,275,579,5344
1644158112.175035,-0.010437,0.007751,-0.990417,0.098718,0.539237,-0.130992,49,270,584,5280
1644158112.223366,-0.011719,0.009949,-0.992676,0.220855,0.356031,-0.069924,47,277,572,5280
1644158112.271739,-0.013062,0.007874,-0.990723,0.022382,0.417099,-0.176794,55,264,576,5232
1644158112.320146,-0.011902,0.007935,-0.99115,0.419328,0.356031,-0.100458,46,274,569,5296
1644158112.368534,-0.010132,0.008667,-0.992554,0.251389,0.325496,-0.14626,45,270,563,5280
1644158112.416921,-0.012024,0.009094,-0.992615,0.220855,0.356031,-0.192061,52,275,582,5200
1644158112.465299,-0.010803,0.00885,-0.993347,0.312458,0.325496,0.006412,53,271,578,5280
1644158112.51368,-0.012939,0.007935,-0.99292,0.327725,0.356031,-0.008855,53,269,571,5184
1644158112.562196,-0.010559,0.008118,-0.995117,0.159786,0.401832,-0.192061,47,277,565,5296
1644158112.610479,-0.01062,0.010803,-0.99292,0.46513,0.371298,-0.161527,57,270,572,5280
1644158112.658869,-0.012939,0.008789,-0.991516,0.342992,0.356031,-0.054656,52,282,577,5280
1644158112.707247,-0.009033,0.009644,-0.99176,0.205588,0.386565,-0.14626,55,262,569,5280
1644158112.755621,-0.010315,0.010559,-0.992615,0.281924,0.569771,-0.008855,45,277,584,5248
1644158112.804026,-0.012451,0.007996,-0.993042,0.113985,0.310229,-0.115725,46,271,583,5136
1644158112.852781,-0.010315,0.007385,-0.993164,0.098718,0.508702,-0.085191,59,277,563,5248
1644158112.902707,-0.010925,0.009766,-0.990356,0.205588,0.432366,-0.085191,41,269,566,5280
1644158112.953262,-0.012939,0.011414,-0.991333,0.205588,0.356031,-0.100458,57,275,579,5200
1644158113.064331,-0.01178,0.007996,-0.991821,0.251389,0.356031,-0.024122,53,281,573,5248
1644158113.097733,-0.008667,0.011169,-0.991394,0.159786,0.462901,-0.14626,43,276,585,5232
1644158113.142761,-0.007507,0.008423,-0.993347,0.281924,0.371298,-0.161527,42,275,568,5296
1644158113.191141,-0.01123,0.01001,-0.994324,0.312458,0.310229,-0.14626,48,283,578,5248
1644158113.239534,-0.010803,0.010681,-0.990906,0.266656,0.294962,-0.161527,47,265,563,5232
1644158113.287914,-0.012756,0.009583,-0.990662,0.175053,0.371298,0.113282,45,275,577,5280
1644158113.336305,-0.012451,0.007263,-0.991089,0.190321,0.279695,0.021679,47,280,577,5296
1644158113.384699,-0.009949,0.01178,-0.991089,0.404061,0.432366,-0.100458,52,282,577,5248
1644158113.433092,-0.010803,0.010071,-0.993164,0.251389,0.523969,-0.054656,57,270,575,5296
1644158113.481773,-0.010742,0.012634,-0.994324,0.129252,0.386565,-0.008855,49,268,572,5344
1644158113.530597,-0.010315,0.008057,-0.989685,0.251389,0.401832,-0.039389,46,281,569,5232
1644158113.58129,-0.010132,0.008728,-0.991882,0.144519,0.417099,-0.085191,53,281,573,5232
1644158113.631343,-0.010376,0.009583,-0.993835,0.220855,0.356031,0.098015,54,273,568,5280
1644158113.67641,-0.008179,0.007874,-0.992554,0.327725,0.432366,-0.085191,53,274,576,5232
1644158113.771789,-0.010132,0.010803,-0.98999,0.327725,0.523969,-0.085191,55,281,564,5296
1644158113.820193,-0.011597,0.006897,-0.991699,0.312458,0.432366,-0.237863,55,269,573,5280
1644158113.868602,-0.007019,0.006348,-0.991882,0.449863,0.386565,-0.192061,47,277,577,5280
1644158113.917035,-0.012634,0.008606,-0.99115,0.266656,0.478168,-0.039389,53,269,571,5296
1644158113.965357,-0.010437,0.007385,-0.993408,0.098718,0.447634,-0.100458,55,276,569,5296
1644158114.013795,-0.011475,0.00824,-0.99292,0.266656,0.508702,-0.192061,52,270,572,5296
1644158114.066795,-0.008972,0.009644,-0.99231,0.266656,0.447634,0.006412,53,269,571,5248
1644158114.110571,-0.011169,0.009949,-0.991028,0.175053,0.371298,0.006412,52,270,570,5296
1644158114.158927,-0.012634,0.007568,-0.990479,0.327725,0.508702,-0.024122,48,279,571,5296
1644158114.207322,-0.012695,0.007202,-0.989929,0.449863,0.432366,-0.36,54,280,572,5200
1644158114.255707,-0.010376,0.011658,-0.98877,0.35826,0.386565,-0.100458,54,282,577,5280
1644158114.304113,-0.010803,0.008911,-0.991638,0.037649,0.386565,-0.268397,52,275,575,5280
1644158114.352527,-0.011108,0.008545,-0.990356,0.373527,0.493435,-0.024122,51,274,576,5280
1644158114.40086,-0.010681,0.011108,-0.990601,0.281924,0.462901,-0.100458,49,275,575,5184
1644158114.449278,-0.012146,0.007935,-0.994019,0.205588,0.554504,-0.115725,54,265,572,5280
1644158114.497684,-0.010986,0.007446,-0.993286,0.175053,0.340763,-0.069924,49,277,584,5312
1644158114.546062,-0.009399,0.011841,-0.99115,0.266656,0.447634,-0.024122,52,275,584,5280
1644158114.595309,-0.011658,0.011169,-0.992188,0.251389,0.279695,-0.161527,57,268,568,5248
1644158114.643137,-0.00824,0.009766,-0.990906,0.281924,0.279695,-0.161527,52,270,577,5280
1644158114.6938,-0.011047,0.010254,-0.991638,0.312458,0.554504,0.021679,42,277,575,5280
1644158114.74385,-0.00769,0.008911,-0.991211,0.327725,0.340763,-0.192061,48,279,578,5296
1644158114.788257,-0.010681,0.007324,-0.991211,0.236122,0.325496,0.006412,49,275,572,5248
1644158114.884954,-0.008667,0.007629,-0.994446,0.175053,0.386565,-0.14626,45,273,568,5296
1644158114.933173,-0.009766,0.010986,-0.992493,0.281924,0.493435,-0.192061,49,280,579,5248
1644158114.981538,-0.010498,0.010254,-0.988403,0.281924,0.478168,-0.25313,52,270,575,5296
1644158115.029914,-0.01001,0.008423,-0.993652,0.220855,0.325496,-0.268397,55,279,569,5280
1644158115.078409,-0.009705,0.009888,-0.991333,0.236122,0.417099,0.113282,48,262,578,5232
1644158115.126676,-0.011658,0.009766,-0.991821,0.113985,0.417099,-0.130992,45,275,570,5280
1644158115.175112,-0.010681,0.009094,-0.990173,0.266656,0.386565,-0.14626,49,275,570,5296
1644158115.223472,-0.007324,0.009521,-0.99353,0.373527,0.417099,-0.024122,47,275,572,5200
1644158115.271837,-0.00769,0.009644,-0.992615,0.190321,0.508702,-0.054656,45,275,570,5280
1644158115.320249,-0.008667,0.008606,-0.990479,0.312458,0.661374,-0.039389,42,273,563,5200
1644158115.368639,-0.007935,0.008728,-0.991394,0.327725,0.462901,-0.100458,42,280,584,5248
1644158115.417016,-0.009155,0.007935,-0.990723,0.190321,0.493435,-0.130992,46,274,580,5200
1644158115.465414,-0.007935,0.010315,-0.99292,0.251389,0.462901,-0.054656,47,270,575,5200
1644158115.513785,-0.011658,0.013367,-0.989868,0.35826,0.432366,-0.130992,49,280,575,5232
1644158115.562234,-0.011597,0.007324,-0.991455,0.190321,0.371298,-0.069924,52,273,575,5296
1644158115.610573,-0.010315,0.009338,-0.992493,0.266656,0.386565,-0.14626,46,279,576,5280
1644158115.658931,-0.011108,0.010559,-0.991882,0.312458,0.371298,0.082748,57,273,582,5248
1644158115.707363,-0.011108,0.007507,-0.99231,0.205588,0.447634,-0.054656,59,268,577,5232
1644158115.755721,-0.009827,0.010803,-0.990234,0.342992,0.508702,-0.130992,38,280,572,5280
1644158115.804543,-0.010986,0.012329,-0.991699,0.236122,0.523969,-0.069924,39,281,576,5248
1644158115.855763,-0.009644,0.010132,-0.992615,0.251389,0.401832,-0.161527,51,279,580,5296
1644158115.906506,-0.006287,0.007812,-0.992432,0.266656,0.371298,-0.054656,55,276,571,5200
1644158115.950715,-0.012634,0.01178,-0.990784,0.35826,0.417099,-0.115725,59,275,570,5248
1644158116.062914,-0.01062,0.008606,-0.99353,0.388794,0.478168,-0.192061,52,277,570,5312
1644158116.095652,-0.013123,0.012756,-0.992615,0.373527,0.447634,-0.176794,45,273,579,5280
1644158116.142871,-0.010254,0.008362,-0.992065,0.449863,0.478168,0.036947,55,281,564,5280
1644158116.191254,-0.00946,0.00592,-0.990845,0.327725,0.539237,0.067481,45,273,577,5248
1644158116.239635,-0.012085,0.009521,-0.989807,0.190321,0.493435,-0.008855,48,286,573,5280
1644158116.287999,-0.014343,0.007202,-0.990967,0.205588,0.523969,-0.237863,49,273,579,5280
1644158116.336402,-0.011475,0.008667,-0.990295,0.236122,0.386565,0.036947,61,268,577,5232
1644158116.384805,-0.010864,0.008728,-0.99292,0.205588,0.447634,-0.130992,51,281,578,5248
1644158116.433185,-0.01239,0.008118,-0.993408,0.251389,0.371298,0.098015,57,285,572,5248
1644158116.481573,-0.012512,0.010742,-0.990662,0.205588,0.539237,-0.176794,54,280,575,5280
1644158116.530119,-0.007751,0.009521,-0.991455,0.404061,0.432366,-0.100458,48,274,573,5296
1644158116.579749,-0.012512,0.009583,-0.991577,0.297191,0.386565,-0.192061,46,269,566,5200
1644158116.629896,-0.012268,0.010376,-0.992004,0.297191,0.386565,-0.14626,47,277,575,5296
1644158116.680233,-0.012939,0.007446,-0.993469,0.236122,0.371298,-0.237863,54,282,579,5280
1644158116.771922,-0.009827,0.011414,-0.992737,0.404061,0.447634,-0.085191,51,266,566,5280
1644158116.820306,-0.012207,0.011536,-0.991272,0.037649,0.310229,-0.161527,43,283,583,5280
1644158116.868711,-0.01123,0.009949,-0.990051,0.159786,0.325496,-0.161527,55,271,583,5200
1644158116.917084,-0.009827,0.009155,-0.991699,0.205588,0.371298,-0.176794,58,276,583,5248
1644158116.965492,-0.011963,0.011292,-0.989746,0.144519,0.386565,-0.085191,57,273,572,5200
1644158117.013876,-0.011414,0.007874,-0.989868,0.205588,0.462901,-0.069924,48,269,576,5280
1644158117.063357,-0.00946,0.012756,-0.991821,0.404061,0.401832,-0.069924,51,271,578,5248
1644158117.110699,-0.009521,0.010803,-0.990784,0.159786,0.447634,-0.268397,42,275,575,5296
1644158117.159023,-0.015442,0.009583,-0.991577,0.129252,0.188092,-0.054656,43,274,569,5280
1644158117.20741,-0.009705,0.007202,-0.99231,0.205588,0.432366,-0.130992,53,274,576,5232
1644158117.255798,-0.009705,0.010437,-0.991821,0.297191,0.447634,-0.008855,52,287,577,5296
1644158117.304204,-0.009583,0.010376,-0.991028,0.251389,0.447634,-0.024122,43,269,571,5280
1644158117.352582,-0.009888,0.008179,-0.992554,0.175053,0.478168,0.12855,51,274,580,5248
1644158117.400958,-0.013672,0.010315,-0.990173,0.342992,0.478168,-0.161527,49,263,577,5248
1644158117.44934,-0.00885,0.009888,-0.992676,0.312458,0.523969,-0.085191,59,277,577,5232
1644158117.497751,-0.012146,0.010498,-0.991455,0.220855,0.493435,-0.115725,46,269,569,5280
1644158117.54609,-0.009521,0.006409,-0.991516,0.251389,0.523969,-0.115725,47,260,577,5232
1644158117.59452,-0.011169,0.008789,-0.993042,0.297191,0.493435,-0.268397,57,273,582,5184
1644158117.642927,-0.010742,0.011536,-0.992981,0.266656,0.462901,-0.100458,47,268,582,5296
1644158117.692412,-0.007446,0.008362,-0.991394,0.220855,0.447634,-0.130992,46,271,566,5280
1644158117.742174,-0.010254,0.007751,-0.991821,0.312458,0.462901,-0.039389,43,279,583,5200
1644158117.792215,-0.009033,0.009399,-0.991516,0.342992,0.478168,-0.130992,55,274,585,5232
1644158117.838089,-0.012451,0.011719,-0.992676,0.266656,0.493435,-0.039389,35,275,572,5296
1644158117.933272,-0.009521,0.011902,-0.991638,0.144519,0.554504,-0.100458,47,275,565,5248
1644158117.981652,-0.014465,0.010925,-0.995117,0.342992,0.432366,-0.008855,53,279,576,5344
1644158118.030056,-0.01178,0.008972,-0.993408,0.281924,0.401832,0.006412,43,276,571,5248
1644158118.078531,-0.011108,0.009644,-0.992798,0.236122,0.371298,0.006412,53,279,580,5296
1644158118.126829,-0.011536,0.009277,-0.992615,0.342992,0.432366,-0.130992,47,268,568,5280
1644158118.175247,-0.010803,0.00885,-0.99115,0.35826,0.478168,-0.039389,46,281,562,5248
1644158118.223574,-0.00946,0.009277,-0.992371,0.281924,0.356031,-0.176794,60,274,569,5248
1644158118.271929,-0.009644,0.01239,-0.991943,0.251389,0.340763,-0.115725,42,270,570,5280
1644158118.320342,-0.01001,0.00824,-0.992126,0.327725,0.585038,-0.069924,57,282,575,5200
1644158118.36873,-0.009277,0.012024,-0.992981,0.327725,0.432366,-0.024122,43,279,578,5280
1644158118.417123,-0.010925,0.009094,-0.990906,0.297191,0.386565,-0.008855,52,280,561,5280
1644158118.465515,-0.008545,0.01123,-0.993164,0.281924,0.447634,-0.100458,49,285,570,5280
1644158118.513896,-0.009521,0.007751,-0.993958,0.266656,0.432366,-0.054656,47,273,575,5248
1644158118.56231,-0.011108,0.010315,-0.989319,0.312458,0.356031,-0.085191,48,271,585,5248
1644158118.610677,-0.00885,0.012756,-0.993408,0.205588,0.310229,-0.054656,55,281,569,5280
1644158118.659067,-0.009216,0.009705,-0.993835,0.205588,0.356031,-0.115725,51,271,576,5296
1644158118.707461,-0.007629,0.010986,-0.993896,0.342992,0.462901,-0.115725,49,270,575,5248
1644158118.755819,-0.011658,0.009277,-0.990845,0.236122,0.310229,-0.115725,51,271,573,5312
1644158118.804451,-0.011658,0.008789,-0.991577,0.35826,0.478168,-0.085191,51,279,571,5280
1644158118.854768,-0.012024,0.010559,-0.991943,0.236122,0.447634,-0.085191,45,277,579,5248
1644158118.904866,-0.009033,0.008545,-0.99231,0.297191,0.417099,-0.14626,42,268,579,5280
1644158118.954967,-0.011414,0.009766,-0.99231,0.297191,0.325496,-0.039389,41,271,566,5296
1644158118.999543,-0.008362,0.010315,-0.989075,0.35826,0.493435,-0.100458,53,274,573,5248
1644158119.098286,-0.00946,0.008606,-0.991272,0.098718,0.462901,-0.268397,58,271,576,5280
1644158119.143015,-0.010742,0.00824,-0.99292,0.236122,0.356031,0.052214,55,283,576,5280
1644158119.191343,-0.009338,0.00946,-0.990845,0.205588,0.493435,-0.192061,53,269,580,5232
1644158119.239718,-0.011292,0.010559,-0.992554,0.388794,0.569771,0.021679,45,280,565,5248
1644158119.288111,-0.012268,0.011719,-0.994507,-0.008153,0.356031,-0.100458,48,281,576,5296
1644158119.3365,-0.009216,0.01001,-0.992737,0.327725,0.325496,-0.161527,53,281,573,5280
1644158119.384882,-0.009216,0.008789,-0.992188,0.281924,0.554504,-0.008855,54,273,577,5248
1644158119.433268,-0.011047,0.011353,-0.988953,0.251389,0.539237,-0.176794,55,271,578,5248
1644158119.481671,-0.010254,0.010132,-0.993652,0.113985,0.478168,-0.008855,54,277,572,5248
1644158119.530061,-0.012146,0.010132,-0.991211,0.266656,0.554504,-0.222595,48,274,592,5296
1644158119.578447,-0.012024,0.010498,-0.99408,0.190321,0.462901,-0.130992,54,275,575,5248
1644158119.62711,-0.009644,0.008606,-0.993408,0.236122,0.417099,-0.100458,54,277,570,5200
1644158119.676623,-0.012817,0.008728,-0.992249,0.297191,0.478168,-0.298931,52,277,572,5280
1644158119.7268,-0.013977,0.011108,-0.991516,0.129252,0.356031,0.006412,46,271,578,5280
1644158119.776918,-0.011414,0.008545,-0.991943,0.266656,0.432366,-0.161527,47,277,577,5248
1644158119.868801,-0.012146,0.009399,-0.991577,0.220855,0.462901,-0.130992,43,269,583,5296
1644158119.917225,-0.010437,0.009033,-0.993042,0.327725,0.371298,-0.161527,52,270,572,5232
1644158119.965569,-0.010864,0.009094,-0.992554,0.251389,0.432366,-0.14626,48,271,578,5296
1644158120.013993,-0.012085,0.007874,-0.991882,0.205588,0.508702,0.036947,42,265,577,5248
1644158120.065376,-0.013184,0.007751,-0.992371,0.068183,0.585038,0.036947,49,275,575,5296
1644158120.110785,-0.010193,0.007507,-0.992798,0.08345,0.356031,-0.039389,52,268,579,5280
1644158120.159134,-0.010925,0.007629,-0.992065,0.190321,0.432366,-0.115725,49,275,577,5248
1644158120.207554,-0.014099,0.009277,-0.992676,0.190321,0.401832,-0.024122,54,270,570,5296
1644158120.255916,-0.011047,0.009277,-0.993713,0.205588,0.356031,-0.008855,47,273,582,5296
1644158120.304329,-0.012146,0.010925,-0.992126,0.404061,0.371298,-0.176794,51,274,571,5312
1644158120.352728,-0.012878,0.007812,-0.992004,0.236122,0.340763,-0.115725,53,281,562,5232
1644158120.401069,-0.010071,0.011475,-0.993347,0.175053,0.508702,-0.14626,51,262,571,5232
1644158120.449478,-0.011597,0.007202,-0.993774,0.342992,0.417099,0.036947,52,268,570,5296
1644158120.497889,-0.011658,0.007507,-0.992615,0.342992,0.478168,-0.008855,46,279,571,5248
1644158120.546274,-0.01123,0.011902,-0.993591,0.022382,0.508702,-0.069924,55,264,583,5312
1644158120.594671,-0.01178,0.010254,-0.994629,0.434595,0.401832,-0.039389,59,265,579,5296
1644158120.643068,-0.012756,0.011841,-0.992737,0.205588,0.340763,-0.024122,59,285,570,5248
1644158120.69147,-0.011353,0.010803,-0.991455,0.236122,0.401832,-0.130992,60,266,576,5280
1644158120.740005,-0.010193,0.006165,-0.989868,0.220855,0.310229,-0.085191,43,271,573,5280
1644158120.790457,-0.00885,0.008789,-0.99054,0.251389,0.447634,-0.14626,51,279,566,5312
1644158120.841116,-0.011597,0.009705,-0.991028,0.251389,0.447634,-0.130992,58,271,576,5248
1644158120.885407,-0.010132,0.010986,-0.995605,0.281924,0.508702,-0.100458,60,271,576,5296
1644158120.981787,-0.010559,0.009888,-0.988831,0.251389,0.447634,0.006412,49,263,577,5248
1644158121.030157,-0.011902,0.011963,-0.993164,0.068183,0.462901,-0.115725,51,266,583,5296
1644158121.078609,-0.010315,0.008118,-0.993958,0.281924,0.417099,-0.039389,51,276,580,5280
1644158121.126885,-0.008179,0.009888,-0.991577,0.312458,0.401832,0.067481,54,270,570,5248
1644158121.175268,-0.010681,0.009949,-0.989258,0.404061,0.386565,-0.176794,61,270,565,5280
1644158121.223685,-0.012817,0.009033,-0.992493,0.327725,0.493435,-0.054656,48,274,576,5280
1644158121.272038,-0.009766,0.006714,-0.99115,0.297191,0.432366,-0.115725,51,286,580,5232
1644158121.320426,-0.010132,0.008423,-0.990723,0.205588,0.462901,-0.115725,48,269,583,5344
1644158121.368832,-0.011658,0.009399,-0.991516,0.220855,0.340763,0.021679,48,274,566,5248
1644158121.417232,-0.008728,0.010742,-0.991089,0.159786,0.325496,-0.14626,49,270,570,5248
1644158121.465621,-0.013062,0.01062,-0.991272,0.312458,0.340763,-0.130992,43,274,578,5296
1644158121.513994,-0.008545,0.008667,-0.991699,0.342992,0.462901,-0.130992,48,271,578,5296
1644158121.562408,-0.010681,0.010742,-0.99115,0.281924,0.386565,-0.115725,53,271,576,5280
1644158121.610777,-0.013,0.005737,-0.992249,0.205588,0.417099,-0.069924,59,273,570,5280
1644158121.659165,-0.014099,0.012268,-0.991516,0.266656,0.386565,-0.054656,51,288,580,5232
1644158121.707553,-0.011414,0.009949,-0.991516,0.327725,0.279695,-0.130992,42,265,572,5296
1644158121.755917,-0.011292,0.010498,-0.994324,0.175053,0.417099,-0.130992,47,285,582,5296
1644158121.804396,-0.010986,0.007385,-0.991699,0.129252,0.417099,-0.024122,48,281,576,5280
1644158121.852998,-0.009521,0.008057,-0.991516,0.220855,0.523969,-0.085191,55,274,580,5296
1644158121.903827,-0.012573,0.009094,-0.991821,0.144519,0.417099,-0.14626,55,274,578,5296
1644158121.953638,-0.013733,0.008911,-0.991028,0.220855,0.371298,-0.237863,54,265,565,5248
1644158121.998105,-0.010559,0.010132,-0.992859,0.144519,0.340763,-0.314198,57,273,572,5248
1644158122.097285,-0.008423,0.009155,-0.989868,0.144519,0.523969,0.006412,45,273,579,5248
1644158122.143059,-0.013184,0.010559,-0.990967,0.251389,0.523969,-0.039389,53,274,576,5248
1644158122.191425,-0.009644,0.010498,-0.990295,0.251389,0.508702,-0.054656,58,269,571,5296
1644158122.239826,-0.010071,0.009033,-0.99054,0.297191,0.386565,-0.085191,51,274,578,5232
1644158122.288204,-0.012817,0.009888,-0.992065,0.327725,0.539237,-0.100458,58,279,578,5280
1644158122.336617,-0.012146,0.010681,-0.992004,0.205588,0.447634,-0.14626,54,265,572,5248
1644158122.385033,-0.011963,0.009155,-0.989746,0.266656,0.447634,-0.039389,57,268,565,5248
1644158122.433398,-0.011353,0.006165,-0.991333,0.342992,0.478168,-0.039389,49,277,575,5280
1644158122.481781,-0.011475,0.01062,-0.992432,0.220855,0.371298,0.006412,52,277,570,5248
1644158122.530177,-0.009644,0.009338,-0.990173,0.480397,0.508702,-0.130992,47,275,579,5232
1644158122.578525,-0.009766,0.008911,-0.991516,0.251389,0.462901,-0.14626,48,269,578,5200
1644158122.626955,-0.012268,0.007263,-0.989868,0.281924,0.478168,-0.008855,48,269,573,5280
1644158122.675332,-0.012634,0.008972,-0.991211,0.190321,0.386565,-0.039389,52,270,570,5232
1644158122.723726,-0.008301,0.01001,-0.992493,0.312458,0.447634,-0.039389,52,277,570,5280
1644158122.772157,-0.013489,0.01062,-0.989929,0.388794,0.478168,-0.176794,51,279,576,5296
1644158122.820506,-0.009583,0.010925,-0.993347,0.190321,0.340763,-0.069924,49,263,575,5248
1644158122.868934,-0.008667,0.009949,-0.994873,0.281924,0.508702,-0.069924,45,265,572,5248
1644158122.917508,-0.011353,0.00824,-0.990906,0.251389,0.600305,0.082748,49,270,577,5280
1644158122.967683,-0.009033,0.009216,-0.993713,0.373527,0.432366,-0.039389,42,270,568,5232
1644158123.018169,-0.01062,0.008545,-0.991577,0.175053,0.554504,-0.054656,43,279,580,5296
1644158123.075592,-0.012573,0.007874,-0.993225,0.35826,0.356031,-0.054656,51,276,583,5344
1644158123.159198,-0.011719,0.006531,-0.994263,0.251389,0.569771,0.006412,49,268,579,5200
1644158123.207578,-0.013489,0.008606,-0.991577,0.098718,0.371298,-0.008855,40,275,572,5296
1644158123.25598,-0.01123,0.008301,-0.991028,0.220855,0.24916,-0.207328,40,282,575,5296
1644158123.304394,-0.010437,0.007751,-0.994934,0.205588,0.432366,-0.085191,53,266,566,5248
1644158123.35279,-0.008911,0.007629,-0.990479,0.327725,0.432366,-0.161527,54,275,579,5296
1644158123.401165,-0.009521,0.009094,-0.99176,0.312458,0.462901,-0.100458,54,270,568,5280
1644158123.449557,-0.013367,0.008362,-0.989319,0.113985,0.371298,-0.085191,52,282,584,5312
1644158123.497919,-0.012268,0.009705,-0.991821,0.327725,0.432366,-0.085191,43,266,580,5280
1644158123.546348,-0.009094,0.009766,-0.992126,0.281924,0.371298,0.113282,52,275,570,5248
1644158123.594744,-0.008972,0.009338,-0.99054,0.098718,0.340763,-0.161527,46,281,573,5248
1644158123.643094,-0.008911,0.00708,-0.992004,0.251389,0.493435,-0.069924,51,286,576,5232
1644158123.691489,-0.01001,0.008972,-0.991455,0.327725,0.462901,-0.085191,55,283,576,5248
1644158123.73989,-0.008179,0.009094,-0.993103,0.312458,0.386565,-0.130992,55,276,580,5344
1644158123.788277,-0.010742,0.008301,-0.989624,0.312458,0.432366,-0.192061,54,270,577,5280
1644158123.836726,-0.011963,0.012085,-0.99231,0.251389,0.401832,-0.237863,43,276,571,5200
1644158123.885133,-0.010742,0.008728,-0.991516,0.373527,0.493435,-0.039389,52,273,577,5248
1644158123.933487,-0.011658,0.01001,-0.988953,0.113985,0.539237,0.052214,59,277,572,5232
1644158123.98224,-0.013245,0.009277,-0.992432,0.251389,0.401832,-0.100458,66,275,572,5200
1644158124.030302,-0.009827,0.00824,-0.990723,0.266656,0.417099,-0.069924,52,275,589,5280
1644158124.085231,-0.009888,0.008179,-0.992249,0.113985,0.600305,-0.115725,58,274,583,5200
1644158124.130853,-0.011108,0.009155,-0.992737,0.220855,0.462901,-0.115725,58,279,578,5248
1644158124.179611,-0.010742,0.008301,-0.99115,0.297191,0.432366,0.006412,45,268,565,5344
1644158124.224689,-0.00769,0.015198,-0.992737,0.098718,0.218626,-0.222595,51,276,573,5280
1644158124.320556,-0.00769,0.008911,-0.99054,0.327725,0.294962,-0.115725,47,275,577,5232
1644158124.368919,-0.009888,0.013062,-0.992798,0.266656,0.523969,-0.054656,47,270,572,5280
1644158124.41731,-0.011169,0.009338,-0.992065,0.327725,0.325496,0.021679,51,269,569,5248
1644158124.465719,-0.011902,0.011353,-0.992615,0.342992,0.417099,0.021679,58,279,578,5232
1644158124.514112,-0.009521,0.006348,-0.991394,0.144519,0.356031,-0.054656,46,266,571,5344
1644158124.562516,-0.010681,0.010986,-0.992065,0.281924,0.462901,-0.039389,47,285,579,5232
1644158124.610875,-0.012817,0.013123,-0.992737,0.236122,0.401832,-0.085191,48,276,583,5280
1644158124.659271,-0.012634,0.011597,-0.99408,0.327725,0.417099,-0.130992,43,283,573,5232
1644158124.707634,-0.011658,0.009155,-0.990051,0.266656,0.539237,-0.161527,48,279,573,5296
1644158124.756052,-0.012024,0.009705,-0.991028,0.236122,0.523969,-0.115725,45,273,575,5280
1644158124.804442,-0.011536,0.009644,-0.990723,0.404061,0.447634,-0.130992,46,276,569,5296
1644158124.852899,-0.009399,0.007324,-0.991577,0.205588,0.523969,0.098015,48,286,576,5280
1644158124.901219,-0.010925,0.008362,-0.993469,0.175053,0.432366,-0.008855,48,264,573,5280
1644158124.949659,-0.010437,0.009705,-0.991394,0.297191,0.401832,-0.115725,54,275,577,5296
1644158124.998036,-0.007568,0.008728,-0.99469,0.388794,0.432366,-0.054656,49,280,582,5248
1644158125.062922,-0.01001,0.01239,-0.992737,0.220855,0.294962,-0.085191,54,273,572,5280
1644158125.095067,-0.012573,0.007263,-0.993896,0.113985,0.447634,-0.192061,45,275,579,5296
1644158125.143514,-0.010193,0.008118,-0.994751,0.190321,0.478168,-0.100458,54,270,577,5280
1644158125.191571,-0.009033,0.009094,-0.99054,0.327725,0.554504,-0.069924,51,266,564,5200
1644158125.241752,-0.011292,0.011414,-0.990234,0.297191,0.478168,-0.069924,46,281,578,5296
1644158125.292175,-0.00824,0.009766,-0.991394,0.175053,0.493435,-0.25313,57,270,579,5248
1644158125.337242,-0.012329,0.010437,-0.98999,0.098718,0.478168,-0.085191,48,283,569,5296
1644158125.433502,-0.009827,0.00824,-0.992676,0.297191,0.462901,0.006412,55,269,571,5296
1644158125.481872,-0.011414,0.009583,-0.991638,0.281924,0.523969,-0.268397,43,279,580,5232
1644158125.530235,-0.010864,0.01239,-0.992493,0.190321,0.417099,-0.039389,53,276,573,5296
1644158125.578645,-0.009583,0.008362,-0.990112,0.236122,0.371298,-0.054656,47,287,582,5280
1644158125.627028,-0.011108,0.010437,-0.992065,0.205588,0.401832,0.052214,62,271,580,5232
1644158125.675423,-0.009521,0.010132,-0.992554,0.312458,0.417099,-0.115725,46,264,576,5280
1644158125.72382,-0.01001,0.011292,-0.995117,0.266656,0.356031,-0.100458,59,275,575,5280
1644158125.772245,-0.012085,0.009094,-0.991028,0.159786,0.356031,-0.054656,55,271,587,5248
1644158125.820661,-0.009766,0.008728,-0.991516,0.266656,0.432366,-0.069924,49,280,579,5344
1644158125.86904,-0.008423,0.010681,-0.990356,0.190321,0.478168,-0.115725,60,281,580,5184
1644158125.917425,-0.008606,0.010437,-0.993042,0.327725,0.371298,-0.069924,57,277,582,5280
1644158125.965813,-0.011414,0.009338,-0.989075,0.35826,0.523969,-0.008855,47,275,577,5296
1644158126.014192,-0.011353,0.008911,-0.991882,0.251389,0.356031,-0.024122,49,282,584,5280
1644158126.077659,-0.014771,0.008972,-0.993591,0.297191,0.340763,-0.085191,43,271,585,5248
1644158126.110952,-0.008667,0.007996,-0.990112,0.342992,0.371298,-0.115725,58,283,569,5232
1644158126.159323,-0.008728,0.00647,-0.989075,0.236122,0.539237,-0.115725,52,273,570,5280
1644158126.207712,-0.006836,0.010315,-0.991333,0.236122,0.401832,-0.085191,54,277,589,5280
1644158126.256084,-0.009338,0.010376,-0.990845,0.190321,0.478168,0.006412,42,270,577,5248
1644158126.304949,-0.009521,0.009033,-0.991394,0.327725,0.294962,-0.100458,55,266,578,5280
1644158126.35506,-0.007812,0.009583,-0.988953,0.266656,0.432366,0.021679,45,282,570,5296
1644158126.405297,-0.012085,0.009583,-0.992249,0.159786,0.371298,-0.054656,40,270,575,5280
1644158126.450369,-0.011108,0.00769,-0.991577,0.312458,0.294962,-0.008855,57,265,577,5184
1644158126.546408,-0.009766,0.010742,-0.989197,0.190321,0.325496,0.067481,42,268,568,5200
1644158126.594858,-0.010376,0.009338,-0.992554,0.251389,0.585038,-0.085191,47,265,565,5232
1644158126.643213,-0.011963,0.006531,-0.991089,0.220855,0.386565,-0.024122,49,268,575,5248
1644158126.691594,-0.010986,0.012024,-0.991577,0.312458,0.417099,-0.207328,42,265,570,5232
1644158126.73998,-0.011047,0.011841,-0.990356,0.205588,0.432366,-0.130992,48,274,573,5232
1644158126.788344,-0.010132,0.012268,-0.991272,0.175053,0.539237,-0.130992,49,273,584,5296
1644158126.836759,-0.011292,0.010193,-0.989868,0.129252,0.447634,-0.085191,47,270,570,5296
1644158126.885217,-0.013184,0.010986,-0.990906,0.236122,0.417099,-0.054656,48,274,573,5232
1644158126.933596,-0.012939,0.009033,-0.99054,0.236122,0.447634,-0.008855,54,270,572,5296
1644158126.981971,-0.011658,0.012085,-0.991333,0.220855,0.447634,-0.024122,55,281,580,5296
1644158127.030347,-0.011536,0.007629,-0.993347,0.159786,0.478168,-0.069924,54,273,572,5280
1644158127.085541,-0.009155,0.009766,-0.99231,0.129252,0.462901,0.006412,45,265,577,5280
1644158127.127153,-0.010437,0.009827,-0.992004,0.266656,0.539237,-0.039389,48,274,576,5280
1644158127.175644,-0.010498,0.012451,-0.992615,0.190321,0.371298,-0.054656,55,264,576,5248
1644158127.224226,-0.009521,0.008301,-0.992065,0.297191,0.325496,-0.115725,46,262,587,5280
1644158127.273981,-0.01001,0.007996,-0.991821,0.205588,0.401832,-0.069924,48,264,571,5280
1644158127.324286,-0.012085,0.012878,-0.991638,0.251389,0.279695,-0.100458,43,271,571,5280
1644158127.369428,-0.013184,0.009033,-0.992554,0.312458,0.447634,-0.100458,52,273,582,5280
1644158127.465802,-0.010925,0.012085,-0.990173,0.266656,0.432366,-0.008855,48,281,580,5344
1644158127.514202,-0.01062,0.010315,-0.989441,0.281924,0.447634,-0.085191,46,281,571,5232
1644158127.562613,-0.009155,0.011108,-0.99176,0.251389,0.325496,-0.039389,49,273,577,5200
1644158127.610985,-0.011475,0.008606,-0.995728,0.327725,0.417099,-0.268397,51,276,573,5232
1644158127.659369,-0.008667,0.010071,-0.989929,0.190321,0.523969,-0.069924,42,270,584,5296
1644158127.707753,-0.01178,0.008057,-0.991394,0.312458,0.447634,-0.054656,55,264,566,5296
1644158127.756131,-0.010803,0.007507,-0.992554,0.220855,0.386565,-0.085191,52,273,575,5248
1644158127.804533,-0.010193,0.010376,-0.99176,0.175053,0.417099,-0.085191,52,270,586,5200
1644158127.852932,-0.01001,0.012024,-0.990845,0.236122,0.371298,-0.085191,40,275,568,5184
1644158127.901334,-0.009033,0.004944,-0.991272,0.175053,0.447634,0.036947,47,277,584,5232
1644158127.94974,-0.012329,0.009521,-0.991577,0.205588,0.294962,-0.054656,60,279,569,5248
1644158127.998117,-0.010193,0.009888,-0.992126,0.281924,0.371298,-0.115725,52,273,568,5280
1644158128.065966,-0.00885,0.008606,-0.989929,0.236122,0.462901,-0.207328,46,276,585,5296
1644158128.097609,-0.008606,0.010193,-0.993286,0.205588,0.554504,-0.130992,57,275,568,5248
1644158128.143286,-0.010559,0.006287,-0.990662,0.190321,0.386565,-0.14626,49,273,570,5248
1644158128.191629,-0.009644,0.010681,-0.990906,0.190321,0.371298,-0.054656,49,270,579,5248
1644158128.240039,-0.009155,0.010742,-0.991638,0.144519,0.478168,-0.176794,52,275,579,5280
1644158128.288427,-0.006958,0.01001,-0.992615,0.08345,0.432366,-0.176794,49,275,568,5296
1644158128.33681,-0.014954,0.010193,-0.991943,0.159786,0.508702,-0.039389,45,280,572,5280
1644158128.385599,-0.01062,0.010803,-0.991028,0.08345,0.371298,0.052214,47,268,572,5312
1644158128.43611,-0.009521,0.008484,-0.988708,0.373527,0.462901,-0.14626,57,275,575,5232
1644158128.486158,-0.011414,0.008789,-0.990417,0.281924,0.432366,-0.085191,54,263,584,5296
1644158128.531287,-0.011475,0.010681,-0.995544,0.236122,0.310229,-0.115725,52,263,563,5280
1644158128.627131,-0.011963,0.009521,-0.993164,0.266656,0.371298,0.082748,45,270,579,5280
1644158128.675517,-0.010925,0.012512,-0.99408,0.098718,0.279695,-0.024122,52,270,575,5296
1644158128.723923,-0.012146,0.012634,-0.990845,0.251389,0.325496,-0.25313,43,271,578,5248
1644158128.772397,-0.010071,0.012634,-0.99054,0.373527,0.478168,-0.115725,46,274,576,5248
1644158128.82075,-0.009521,0.007996,-0.989075,0.251389,0.24916,0.143817,51,266,571,5280
1644158128.86914,-0.008301,0.009827,-0.99115,0.251389,0.447634,-0.100458,51,269,566,5200
1644158128.917529,-0.009033,0.007507,-0.99115,0.342992,0.508702,-0.085191,49,273,577,5280
1644158128.965903,-0.011108,0.00885,-0.991211,0.098718,0.325496,-0.069924,58,274,571,5248
1644158129.014277,-0.011841,0.010376,-0.991516,0.281924,0.432366,-0.085191,55,271,576,5296
1644158129.067599,-0.011169,0.009705,-0.991882,0.297191,0.356031,-0.222595,47,273,582,5312
1644158129.111029,-0.00885,0.00946,-0.99408,0.159786,0.462901,0.067481,40,280,570,5232
1644158129.159425,-0.011597,0.01062,-0.989441,0.129252,0.508702,0.006412,49,275,575,5248
1644158129.207803,-0.011108,0.010742,-0.992859,0.388794,0.401832,-0.085191,57,270,582,5248
1644158129.256184,-0.013245,0.009094,-0.991028,0.251389,0.462901,-0.100458,57,282,577,5312
1644158129.304723,-0.008972,0.008606,-0.992188,0.08345,0.539237,0.036947,49,273,568,5248
1644158129.352972,-0.010132,0.008728,-0.990051,0.388794,0.493435,-0.069924,55,274,580,5200
1644158129.401364,-0.014221,0.010376,-0.991272,0.220855,0.523969,-0.069924,53,269,569,5280
1644158129.449748,-0.010925,0.009338,-0.990723,0.327725,0.401832,-0.161527,47,277,577,5344
1644158129.498128,-0.010559,0.010376,-0.992676,0.220855,0.462901,-0.039389,42,273,582,5248
1644158129.546573,-0.01123,0.01178,-0.993408,0.35826,0.310229,-0.085191,53,271,571,5296
1644158129.596847,-0.008179,0.00769,-0.992249,0.175053,0.218626,-0.069924,39,279,571,5280
1644158129.647288,-0.009705,0.006897,-0.990234,0.266656,0.386565,-0.176794,53,271,573,5296
1644158129.692265,-0.014099,0.011719,-0.989319,0.251389,0.478168,-0.039389,48,271,573,5280
1644158129.788473,-0.008911,0.009827,-0.992676,0.312458,0.417099,0.067481,52,282,561,5248
1644158129.83691,-0.007446,0.01178,-0.990662,0.297191,0.523969,-0.115725,39,276,569,5200
1644158129.885477,-0.010132,0.011353,-0.993713,0.205588,0.523969,0.052214,58,266,578,5312
1644158129.933678,-0.009705,0.008972,-0.991394,0.113985,0.447634,-0.024122,61,275,561,5248
1644158129.982071,-0.013306,0.012756,-0.992859,0.327725,0.523969,-0.039389,49,273,570,5232
1644158130.030464,-0.011536,0.012085,-0.992371,0.251389,0.523969,-0.008855,59,268,572,5296
1644158130.083062,-0.009949,0.010315,-0.991272,0.251389,0.493435,-0.161527,48,279,583,5296
1644158130.12721,-0.008057,0.010376,-0.992249,0.266656,0.585038,-0.008855,53,266,566,5296
1644158130.175599,-0.011902,0.007812,-0.99054,0.297191,0.401832,-0.375267,53,279,578,5280
1644158130.223983,-0.009216,0.009338,-0.993042,0.205588,0.325496,-0.100458,49,280,577,5312
1644158130.272348,-0.008057,0.007874,-0.992432,0.08345,0.294962,-0.054656,52,265,584,5200
1644158130.320751,-0.010742,0.010986,-0.99176,0.312458,0.371298,-0.085191,57,282,575,5200
1644158130.369427,-0.01001,0.009399,-0.992676,0.236122,0.493435,-0.192061,59,263,582,5280
1644158130.42024,-0.012085,0.009705,-0.991333,0.159786,0.386565,-0.085191,51,276,569,5232
1644158130.470185,-0.011475,0.011292,-0.992737,0.327725,0.508702,0.021679,57,265,568,5344
1644158130.515317,-0.011658,0.010254,-0.990723,0.297191,0.417099,-0.268397,48,271,573,5248
1644158130.611087,-0.010559,0.009888,-0.989624,0.190321,0.356031,-0.085191,54,273,579,5248
1644158130.65947,-0.009827,0.009155,-0.989258,0.236122,0.539237,-0.024122,48,264,569,5280
1644158130.707868,-0.010193,0.009399,-0.990845,0.159786,0.233893,-0.14626,41,264,571,5296
1644158130.756232,-0.010681,0.010986,-0.991028,0.220855,0.417099,-0.237863,48,283,580,5312
1644158130.804943,-0.011414,0.010315,-0.99408,0.144519,0.493435,-0.054656,42,273,563,5200
1644158130.85307,-0.011658,0.012329,-0.992004,0.251389,0.478168,-0.161527,47,277,570,5280
1644158130.90145,-0.011902,0.009155,-0.992798,0.159786,0.462901,-0.085191,51,269,571,5280
1644158130.949819,-0.009705,0.010315,-0.99054,0.205588,0.478168,-0.130992,54,270,577,5344
1644158130.998211,-0.012085,0.01062,-0.991455,0.312458,0.386565,-0.054656,55,269,580,5312
1644158131.062724,-0.011475,0.008545,-0.989136,0.388794,0.585038,-0.14626,46,283,576,5296
1644158131.095131,-0.012939,0.010864,-0.994019,0.312458,0.523969,-0.222595,51,266,583,5280
1644158131.143377,-0.010254,0.009094,-0.990173,0.251389,0.401832,-0.054656,36,271,569,5360
1644158131.191761,-0.012207,0.010254,-0.991577,0.220855,0.462901,-0.039389,46,274,576,5280
1644158131.240145,-0.009399,0.009094,-0.994202,0.175053,0.371298,-0.14626,52,268,579,5184
1644158131.288543,-0.009583,0.008667,-0.993042,0.251389,0.401832,-0.176794,48,276,569,5248
1644158131.336922,-0.012085,0.009766,-0.992798,0.190321,0.386565,-0.039389,54,277,575,5280
1644158131.385312,-0.01239,0.011047,-0.993958,0.175053,0.447634,-0.130992,45,280,589,5232
1644158131.433669,-0.012329,0.007446,-0.992859,0.159786,0.401832,-0.085191,49,270,570,5232
1644158131.48228,-0.009216,0.008179,-0.991455,0.35826,0.462901,0.021679,53,274,564,5296
1644158131.531049,-0.01123,0.01178,-0.992737,0.404061,0.462901,-0.054656,51,276,564,5280
1644158131.581714,-0.012085,0.010559,-0.991455,0.404061,0.615573,0.036947,43,264,576,5280
1644158131.631763,-0.009216,0.008057,-0.991821,0.144519,0.386565,0.006412,54,280,570,5296
1644158131.676794,-0.009766,0.007629,-0.990417,0.220855,0.432366,-0.130992,49,280,575,5248
1644158131.77242,-0.010559,0.009033,-0.992065,0.129252,0.447634,-0.039389,49,273,570,5296
1644158131.820804,-0.012024,0.009094,-0.993225,0.342992,0.478168,-0.008855,48,276,573,5312
1644158131.869221,-0.013489,0.010925,-0.992432,0.373527,0.325496,-0.054656,47,277,572,5280
1644158131.917603,-0.01123,0.009155,-0.992859,0.373527,0.462901,-0.054656,57,265,579,5296
1644158131.965994,-0.010376,0.00769,-0.993225,0.327725,0.340763,-0.008855,55,276,578,5296
1644158132.014407,-0.00885,0.009705,-0.991333,0.266656,0.386565,-0.008855,49,277,575,5248
1644158132.063208,-0.010925,0.010254,-0.990967,0.205588,0.371298,0.006412,57,277,572,5296
1644158132.111192,-0.010742,0.011963,-0.990784,0.129252,0.371298,-0.192061,58,276,576,5344
1644158132.159539,-0.010071,0.009949,-0.988647,0.175053,0.401832,-0.130992,47,277,572,5280
1644158132.207923,-0.009338,0.010681,-0.992004,0.342992,0.462901,-0.130992,53,276,571,5280
1644158132.256306,-0.013489,0.010315,-0.991333,0.281924,0.340763,-0.115725,60,276,571,5200
1644158132.304727,-0.011292,0.008301,-0.993591,0.388794,0.356031,-0.222595,51,274,573,5296
1644158132.353083,-0.009216,0.011169,-0.991577,0.159786,0.462901,-0.024122,51,271,585,5296
1644158132.401469,-0.012024,0.008362,-0.991455,0.205588,0.493435,-0.222595,54,273,579,5280
1644158132.449854,-0.010071,0.008728,-0.992737,0.281924,0.447634,-0.069924,52,270,572,5248
1644158132.498276,-0.008057,0.010864,-0.991272,0.312458,0.493435,-0.100458,57,268,575,5248
1644158132.546646,-0.014526,0.010498,-0.988403,0.205588,0.24916,-0.161527,57,282,572,5232
1644158132.595068,-0.01062,0.010437,-0.992126,0.236122,0.371298,-0.237863,47,277,579,5248
1644158132.64342,-0.011108,0.008972,-0.991577,0.297191,0.325496,0.006412,41,281,564,5296
1644158132.692201,-0.011536,0.013306,-0.993652,0.220855,0.432366,-0.115725,48,279,578,5296
1644158132.742833,-0.011658,0.010803,-0.992859,0.052916,0.417099,-0.054656,53,274,566,5312
1644158132.792977,-0.011047,0.009888,-0.989502,0.220855,0.600305,-0.069924,53,271,583,5312
1644158132.838947,-0.010986,0.009155,-0.993225,0.159786,0.539237,0.052214,39,271,578,5248
1644158132.933793,-0.011353,0.010071,-0.990051,0.312458,0.371298,-0.024122,53,283,571,5280
1644158132.982398,-0.011047,0.008728,-0.99176,0.251389,0.401832,-0.161527,52,275,575,5280
1644158133.03056,-0.011292,0.008667,-0.990967,0.281924,0.447634,-0.039389,57,273,570,5296
1644158133.079033,-0.012207,0.008728,-0.991882,0.297191,0.401832,-0.192061,58,276,580,5296
1644158133.12733,-0.011414,0.009521,-0.990479,0.373527,0.447634,0.006412,49,282,577,5280
1644158133.175689,-0.010254,0.007874,-0.992188,0.35826,0.508702,-0.069924,52,263,572,5280
1644158133.224098,-0.009888,0.009583,-0.990906,0.297191,0.340763,-0.069924,40,275,570,5248
1644158133.272454,-0.009399,0.008545,-0.992126,0.266656,0.294962,-0.069924,58,274,578,5280
1644158133.320848,-0.011169,0.007874,-0.993713,0.297191,0.569771,-0.085191,46,274,578,5296
1644158133.36924,-0.008911,0.007751,-0.99469,0.068183,0.432366,-0.176794,54,282,575,5248
1644158133.417631,-0.01239,0.012207,-0.993713,0.266656,0.462901,-0.176794,42,270,582,5232
1644158133.466022,-0.011475,0.011414,-0.991943,0.35826,0.462901,0.052214,54,273,575,5200
1644158133.514406,-0.007202,0.011719,-0.992798,0.159786,0.417099,0.021679,55,274,583,5280
1644158133.562812,-0.010559,0.009705,-0.990784,0.144519,0.478168,-0.176794,43,271,580,5280
1644158133.611187,-0.012024,0.010071,-0.990234,0.175053,0.432366,-0.085191,53,281,587,5280
1644158133.659577,-0.009949,0.012024,-0.990906,0.312458,0.539237,-0.069924,42,277,572,5232
1644158133.70796,-0.010681,0.011963,-0.991333,0.159786,0.462901,-0.054656,40,273,584,5296
1644158133.756344,-0.009827,0.010498,-0.991516,0.281924,0.585038,-0.039389,45,275,572,5280
1644158133.804745,-0.010864,0.007385,-0.992188,0.281924,0.508702,0.021679,49,273,570,5248
1644158133.854946,-0.012878,0.008179,-0.992065,0.129252,0.371298,-0.069924,48,283,578,5200
1644158133.904807,-0.01239,0.006409,-0.989441,0.35826,0.462901,-0.024122,46,276,576,5248
1644158133.955255,-0.009888,0.011353,-0.992493,0.190321,0.432366,-0.008855,47,270,575,5232
1644158134.062429,-0.009521,0.010193,-0.993042,0.419328,0.432366,-0.161527,49,270,565,5280
1644158134.095201,-0.009949,0.007202,-0.992004,0.281924,0.356031,-0.14626,57,277,565,5296
1644158134.143484,-0.01062,0.010315,-0.992859,0.175053,0.432366,-0.207328,61,275,568,5280
1644158134.191854,-0.012146,0.00708,-0.992004,0.205588,0.523969,-0.14626,49,275,575,5296
1644158134.240245,-0.009888,0.007996,-0.992493,0.220855,0.523969,0.052214,47,273,572,5296
1644158134.288633,-0.009949,0.009949,-0.994385,0.312458,0.462901,-0.069924,42,275,572,5312
1644158134.33701,-0.009094,0.009094,-0.991516,0.281924,0.386565,-0.207328,55,279,571,5248
1644158134.385398,-0.012207,0.010437,-0.993835,0.205588,0.432366,-0.161527,67,262,576,5248
1644158134.433796,-0.007324,0.008728,-0.99292,0.373527,0.417099,-0.115725,48,271,571,5248
1644158134.482196,-0.008179,0.007629,-0.992432,0.297191,0.447634,0.098015,57,273,577,5296
1644158134.530738,-0.009338,0.007202,-0.993225,0.251389,0.340763,-0.192061,55,274,578,5280
1644158134.579003,-0.010742,0.008301,-0.993774,0.281924,0.508702,-0.008855,54,275,579,5248
1644158134.62939,-0.009033,0.008179,-0.992615,0.220855,0.371298,-0.222595,46,271,578,5280
1644158134.679633,-0.009827,0.009644,-0.990723,0.281924,0.386565,-0.314198,49,282,563,5296
1644158134.724698,-0.012512,0.009583,-0.988464,0.281924,0.493435,-0.192061,46,276,576,5280
1644158134.820907,-0.007996,0.010437,-0.991577,0.388794,0.417099,-0.192061,55,269,571,5280
1644158134.869302,-0.007263,0.009583,-0.992676,0.175053,0.478168,-0.100458,47,275,575,5280
1644158134.917736,-0.013123,0.011169,-0.993408,0.35826,0.523969,-0.024122,55,271,578,5296
1644158134.966075,-0.011597,0.009644,-0.993347,0.404061,0.569771,-0.14626,45,270,565,5312
1644158135.014522,-0.012329,0.013733,-0.990112,0.312458,0.340763,-0.008855,51,274,571,5232
1644158135.063051,-0.013306,0.010315,-0.989319,0.220855,0.523969,0.098015,51,269,580,5312
1644158135.111272,-0.00946,0.009521,-0.992188,0.113985,0.310229,-0.100458,55,283,578,5280
1644158135.159647,-0.01062,0.010742,-0.991028,0.007115,0.386565,-0.115725,52,275,572,5280
1644158135.208064,-0.009338,0.008484,-0.991882,0.190321,0.401832,-0.024122,47,275,570,5280
1644158135.25643,-0.011353,0.006836,-0.992249,0.327725,0.508702,-0.161527,62,269,576,5248
1644158135.304849,-0.014343,0.008301,-0.993103,0.266656,0.585038,0.036947,55,276,569,5248
1644158135.353229,-0.010193,0.009155,-0.991272,0.373527,0.508702,-0.130992,58,276,580,5280
1644158135.401576,-0.008972,0.009644,-0.993103,0.190321,0.417099,-0.130992,46,271,580,5296
1644158135.450003,-0.00885,0.008972,-0.99115,0.251389,0.462901,-0.039389,48,269,566,5344
1644158135.498399,-0.013916,0.008972,-0.992615,0.190321,0.340763,-0.069924,53,274,578,5296
1644158135.546757,-0.011719,0.012939,-0.992065,0.297191,0.386565,-0.192061,58,276,580,5312
1644158135.595374,-0.009155,0.010376,-0.992004,0.327725,0.371298,-0.054656,61,280,570,5248
1644158135.643893,-0.012146,0.009399,-0.989868,0.175053,0.386565,-0.100458,48,276,578,5296
1644158135.691962,-0.010986,0.012695,-0.991211,0.175053,0.325496,0.082748,52,275,577,5248
1644158135.742002,-0.01062,0.011292,-0.992188,0.236122,0.432366,-0.085191,59,280,577,5232
1644158135.792258,-0.008179,0.010498,-0.989868,0.251389,0.508702,-0.085191,49,273,579,5296
1644158135.842416,-0.011719,0.012573,-0.993408,0.327725,0.447634,-0.069924,52,275,575,5232
1644158135.887125,-0.007385,0.011536,-0.992737,0.297191,0.462901,-0.085191,51,276,580,5280
1644158135.982475,-0.010132,0.007751,-0.987793,0.297191,0.478168,-0.069924,53,279,578,5248
1644158136.030643,-0.010864,0.010071,-0.990906,0.266656,0.371298,-0.024122,42,265,575,5200
1644158136.079714,-0.008423,0.008606,-0.989807,0.144519,0.310229,-0.14626,51,281,573,5280
1644158136.127402,-0.013123,0.010864,-0.993164,0.327725,0.417099,0.036947,55,271,576,5200
1644158136.175782,-0.013367,0.010803,-0.98999,0.220855,0.432366,-0.024122,55,271,573,5344
1644158136.224195,-0.010315,0.009094,-0.990051,0.312458,0.417099,-0.192061,51,276,576,5280
1644158136.272549,-0.013184,0.008362,-0.991272,0.236122,0.432366,-0.176794,46,264,580,5312
1644158136.320967,-0.009705,0.007507,-0.990845,0.220855,0.432366,-0.222595,55,269,566,5232
1644158136.369353,-0.007507,0.007812,-0.988892,0.327725,0.523969,-0.222595,55,274,580,5280
1644158136.417744,-0.007874,0.007935,-0.99231,0.251389,0.417099,-0.054656,55,279,580,5248
1644158136.466127,-0.010376,0.011108,-0.990234,0.266656,0.432366,-0.024122,48,269,583,5248
1644158136.514511,-0.010498,0.009766,-0.98999,0.129252,0.447634,-0.039389,58,266,578,5248
1644158136.562921,-0.010071,0.007874,-0.988403,0.251389,0.371298,-0.130992,54,275,575,5280
1644158136.611291,-0.009644,0.009033,-0.994202,0.251389,0.508702,-0.130992,49,285,577,5280
1644158136.659658,-0.011169,0.010437,-0.989929,0.35826,0.417099,-0.115725,52,270,584,5280
1644158136.70807,-0.011658,0.010925,-0.991943,0.327725,0.447634,-0.130992,45,273,582,5280
1644158136.756432,-0.014038,0.00769,-0.991638,0.159786,0.447634,-0.192061,51,262,573,5280
1644158136.804902,-0.010132,0.010559,-0.990845,0.251389,0.569771,0.067481,41,276,583,5248
1644158136.853285,-0.010925,0.01001,-0.991211,0.220855,0.447634,-0.176794,48,279,569,5248
1644158136.903426,-0.008545,0.009705,-0.98999,0.312458,0.539237,-0.207328,55,274,576,5280
1644158136.953637,-0.010498,0.009949,-0.992371,0.297191,0.401832,-0.085191,54,275,570,5248
1644158137.062064,-0.009949,0.010437,-0.991577,0.236122,0.325496,0.006412,47,282,572,5296
1644158137.095207,-0.010986,0.011536,-0.992981,0.205588,0.371298,-0.085191,52,277,579,5232
1644158137.14358,-0.012085,0.012207,-0.989624,0.08345,0.523969,-0.161527,52,270,572,5280
1644158137.191959,-0.010498,0.007324,-0.991333,0.144519,0.432366,-0.14626,45,280,575,5248
1644158137.24034,-0.010681,0.008362,-0.990723,0.236122,0.371298,-0.268397,54,282,570,5296
1644158137.288697,-0.011169,0.008118,-0.992004,0.236122,0.523969,-0.100458,59,275,575,5232
1644158137.337124,-0.010925,0.009277,-0.992065,0.236122,0.264427,-0.115725,43,269,569,5344
1644158137.385515,-0.011658,0.007874,-0.991577,0.144519,0.462901,-0.130992,52,268,568,5280
1644158137.433908,-0.013611,0.009705,-0.991455,0.236122,0.508702,-0.130992,54,273,582,5248
1644158137.4823,-0.010803,0.010193,-0.991943,0.236122,0.493435,-0.176794,51,271,573,5232
1644158137.530671,-0.009888,0.00769,-0.991638,0.35826,0.569771,-0.039389,49,277,570,5280
1644158137.579061,-0.009949,0.009094,-0.992249,0.281924,0.401832,-0.298931,45,263,568,5280
1644158137.628912,-0.011108,0.011047,-0.99231,0.205588,0.24916,-0.115725,45,280,572,5184
1644158137.679529,-0.011108,0.010071,-0.993958,0.266656,0.401832,-0.115725,46,269,578,5280
1644158137.729541,-0.009277,0.00946,-0.991516,0.052916,0.447634,-0.176794,49,263,575,5296
1644158137.821064,-0.012756,0.01062,-0.993896,0.236122,0.356031,-0.161527,47,273,570,5232
1644158137.869442,-0.007874,0.012146,-0.991394,0.205588,0.233893,-0.100458,51,269,573,5200
1644158137.921729,-0.011719,0.010254,-0.990784,0.220855,0.462901,-0.207328,47,268,575,5296
1644158137.966205,-0.009216,0.009277,-0.993469,0.098718,0.539237,-0.207328,57,273,570,5312
1644158138.014699,-0.008423,0.01123,-0.993286,0.342992,0.325496,-0.161527,45,280,565,5280
1644158138.063163,-0.011169,0.008362,-0.993225,0.159786,0.386565,-0.161527,48,274,578,5200
1644158138.111385,-0.010498,0.007568,-0.992188,0.190321,0.508702,-0.344733,46,279,569,5296
1644158138.159734,-0.013733,0.010437,-0.989563,0.190321,0.539237,-0.222595,46,283,576,5280
1644158138.208116,-0.010254,0.011169,-0.990295,0.175053,0.493435,-0.008855,57,270,582,5280
1644158138.256491,-0.01062,0.012756,-0.989868,0.251389,0.554504,-0.176794,49,277,563,5280
1644158138.304916,-0.014038,0.007874,-0.994141,0.205588,0.462901,0.006412,43,279,578,5280
1644158138.353297,-0.008972,0.010559,-0.990784,0.037649,0.523969,-0.024122,43,269,573,5248
1644158138.401677,-0.009399,0.011292,-0.992432,0.266656,0.493435,-0.237863,55,281,566,5296
1644158138.450069,-0.012329,0.009033,-0.990662,0.266656,0.447634,-0.039389,48,276,573,5200
1644158138.498458,-0.009338,0.010925,-0.990234,0.297191,0.157557,-0.100458,58,274,571,5280
1644158138.546812,-0.008362,0.010193,-0.991089,0.113985,0.401832,-0.085191,47,273,579,5296
1644158138.595226,-0.007935,0.014099,-0.993225,0.159786,0.478168,-0.161527,53,276,576,5280
1644158138.64362,-0.011719,0.007874,-0.992249,0.388794,0.371298,-0.161527,48,266,578,5280
1644158138.691991,-0.011108,0.009705,-0.991821,0.098718,0.447634,-0.115725,41,271,573,5296
1644158138.741805,-0.009155,0.007874,-0.991272,0.190321,0.493435,0.021679,51,276,578,5312
1644158138.792156,-0.013428,0.008606,-0.992065,0.159786,0.432366,-0.176794,54,275,568,5248
1644158138.837907,-0.010193,0.00946,-0.99231,0.342992,0.63084,-0.069924,52,268,572,5296
1644158138.933999,-0.00885,0.012146,-0.99115,0.281924,0.264427,-0.085191,51,281,569,5280
1644158138.982427,-0.009338,0.012146,-0.992554,0.373527,0.432366,-0.085191,51,281,576,5200
1644158139.030766,-0.013306,0.009827,-0.99292,0.159786,0.356031,0.021679,53,274,576,5200
1644158139.079213,-0.008179,0.012573,-0.988953,0.281924,0.478168,-0.039389,46,266,587,5296
1644158139.127542,-0.011841,0.009399,-0.991577,0.297191,0.325496,-0.192061,49,275,577,5296
1644158139.175856,-0.007141,0.007141,-0.991455,0.342992,0.294962,-0.100458,48,276,571,5280
1644158139.224282,-0.010071,0.007629,-0.993408,0.281924,0.478168,-0.115725,52,275,570,5200
1644158139.27266,-0.012268,0.009766,-0.995483,0.297191,0.401832,-0.14626,53,269,571,5296
1644158139.321064,-0.013916,0.009583,-0.99292,0.175053,0.462901,-0.100458,47,270,575,5248
1644158139.36945,-0.010376,0.009644,-0.993103,0.190321,0.294962,-0.115725,49,292,579,5280
1644158139.417842,-0.008423,0.007019,-0.991821,0.205588,0.294962,-0.161527,47,268,589,5248
1644158139.466228,-0.008118,0.007263,-0.98999,0.373527,0.325496,-0.039389,57,275,584,5280
1644158139.514729,-0.011169,0.00824,-0.98999,0.251389,0.493435,-0.192061,51,271,564,5280
1644158139.563021,-0.011841,0.010315,-0.993713,0.190321,0.340763,-0.054656,53,271,569,5280
1644158139.611396,-0.012878,0.009216,-0.992493,0.052916,0.325496,0.052214,55,283,569,5200
1644158139.659779,-0.011902,0.010193,-0.991333,0.312458,0.508702,-0.161527,48,269,573,5280
1644158139.708141,-0.01062,0.011597,-0.989624,0.35826,0.356031,-0.176794,54,277,582,5280
1644158139.756727,-0.014465,0.009644,-0.988953,0.113985,0.539237,-0.069924,59,282,575,5232
1644158139.805751,-0.009216,0.007629,-0.991638,0.251389,0.508702,-0.115725,61,268,575,5312
1644158139.856726,-0.00946,0.008057,-0.99231,0.266656,0.447634,-0.069924,45,275,572,5248
1644158139.907394,-0.011292,0.008057,-0.993469,0.297191,0.569771,-0.115725,51,276,573,5280
1644158139.951744,-0.010254,0.007324,-0.991089,0.35826,0.417099,-0.222595,52,273,577,5232
1644158140.063876,-0.011169,0.009705,-0.994385,0.236122,0.493435,-0.115725,59,280,575,5248
1644158140.09692,-0.011047,0.007629,-0.990784,-0.008153,0.294962,-0.054656,45,273,579,5248
1644158140.143685,-0.011108,0.012329,-0.991943,0.312458,0.325496,-0.054656,48,276,578,5280
1644158140.192055,-0.011475,0.010254,-0.992493,0.175053,0.432366,-0.085191,57,277,568,5296
1644158140.240446,-0.011841,0.006653,-0.991455,0.129252,0.432366,-0.176794,47,275,579,5248
1644158140.288823,-0.012695,0.006775,-0.991699,0.098718,0.294962,0.113282,48,271,583,5200
1644158140.337228,-0.010803,0.007446,-0.988831,0.236122,0.600305,-0.130992,47,273,582,5248
1644158140.385616,-0.012207,0.007446,-0.992188,0.052916,0.386565,-0.130992,49,277,577,5280
1644158140.433974,-0.011536,0.007935,-0.988708,0.266656,0.600305,-0.085191,48,269,576,5232
1644158140.48271,-0.009888,0.010254,-0.991943,0.342992,0.569771,-0.130992,51,281,573,5248
1644158140.531017,-0.011597,0.005676,-0.99231,0.236122,0.493435,-0.100458,42,273,579,5312
1644158140.580379,-0.011536,0.010071,-0.991516,0.068183,0.371298,-0.176794,43,279,585,5280
1644158140.630704,-0.00946,0.007812,-0.991943,0.236122,0.401832,-0.192061,52,273,575,5296
1644158140.680797,-0.007446,0.01001,-0.993469,0.297191,0.554504,-0.237863,47,270,575,5280
1644158140.77271,-0.011047,0.009888,-0.991333,0.159786,0.340763,-0.039389,48,269,571,5280
1644158140.821085,-0.010803,0.008972,-0.993164,0.327725,0.447634,-0.192061,45,275,584,5280
1644158140.869516,-0.011475,0.01001,-0.99176,0.190321,0.401832,0.052214,52,270,565,5296
1644158140.917924,-0.009033,0.01001,-0.991943,0.205588,0.417099,-0.085191,46,271,573,5248
1644158140.966289,-0.010681,0.009766,-0.991272,0.281924,0.325496,-0.176794,61,265,577,5200
1644158141.014733,-0.010681,0.011902,-0.994873,0.404061,0.432366,-0.054656,49,277,570,5248
1644158141.066617,-0.009827,0.010193,-0.992065,0.236122,0.478168,-0.024122,48,269,576,5280
1644158141.111478,-0.014099,0.007629,-0.994324,0.327725,0.508702,-0.161527,52,273,579,5344
1644158141.159844,-0.011292,0.00885,-0.991455,0.144519,0.462901,-0.100458,53,269,576,5280
1644158141.208259,-0.011475,0.009827,-0.993896,0.068183,0.371298,-0.161527,51,281,578,5248
1644158141.256643,-0.009888,0.007385,-0.99292,0.251389,0.386565,0.036947,51,274,576,5248
1644158141.305186,-0.008301,0.007263,-0.992432,0.159786,0.478168,-0.085191,48,269,576,5280
1644158141.353461,-0.009766,0.011902,-0.989502,0.297191,0.325496,-0.14626,59,275,582,5280
1644158141.401819,-0.011108,0.011475,-0.990906,0.175053,0.432366,-0.024122,54,277,575,5248
1644158141.45021,-0.011902,0.011475,-0.992249,0.312458,0.417099,-0.054656,53,264,578,5280
1644158141.498593,-0.011902,0.008728,-0.993042,0.281924,0.356031,-0.207328,49,280,577,5200
1644158141.546987,-0.010437,0.007751,-0.991699,0.052916,0.401832,-0.069924,47,275,575,5200
1644158141.595595,-0.009277,0.00824,-0.990723,0.297191,0.401832,-0.161527,54,265,570,5248
1644158141.643775,-0.010315,0.007507,-0.993774,0.190321,0.356031,-0.054656,55,269,566,5280
1644158141.693992,-0.011841,0.009216,-0.992371,0.159786,0.417099,-0.069924,42,270,579,5200
1644158141.743916,-0.009277,0.007996,-0.992371,0.35826,0.478168,-0.115725,59,270,579,5232
1644158141.794216,-0.010681,0.010803,-0.993408,0.251389,0.432366,-0.222595,57,268,575,5296
1644158141.838979,-0.007935,0.010803,-0.990784,0.068183,0.417099,-0.130992,51,274,571,5248
1644158141.934085,-0.01239,0.010071,-0.990723,0.251389,0.508702,0.052214,49,268,579,5296
1644158141.982493,-0.011169,0.009766,-0.990906,0.342992,0.340763,-0.085191,43,276,576,5296
1644158142.030864,-0.009399,0.011536,-0.991394,0.113985,0.386565,-0.115725,47,277,577,5248
1644158142.079321,-0.011658,0.008179,-0.991943,0.068183,0.508702,-0.14626,57,268,575,5296
1644158142.127581,-0.009521,0.010925,-0.990967,0.297191,0.371298,0.036947,53,274,566,5280
1644158142.175975,-0.010925,0.008362,-0.990967,0.205588,0.340763,-0.039389,45,263,577,5184
1644158142.224392,-0.013733,0.006531,-0.990479,0.312458,0.417099,-0.207328,52,270,575,5296
1644158142.272765,-0.01123,0.006165,-0.992554,0.113985,0.401832,-0.130992,49,277,584,5200
1644158142.32114,-0.010742,0.011841,-0.992859,0.297191,0.310229,0.082748,53,271,580,5280
1644158142.369566,-0.007324,0.011353,-0.991089,0.342992,0.432366,-0.069924,52,275,572,5280
1644158142.417939,-0.011841,0.008545,-0.992065,0.312458,0.356031,-0.100458,55,274,573,5280
1644158142.466343,-0.009949,0.009766,-0.990845,0.266656,0.386565,-0.039389,42,265,577,5296
1644158142.514733,-0.011414,0.01001,-0.991943,0.342992,0.508702,-0.14626,54,277,577,5280
1644158142.56313,-0.009949,0.01062,-0.992065,0.281924,0.432366,0.082748,41,271,573,5248
1644158142.611492,-0.007874,0.009277,-0.993896,0.159786,0.478168,-0.054656,54,268,577,5280
1644158142.659857,-0.010742,0.010193,-0.991882,0.007115,0.539237,-0.130992,51,283,578,5248
1644158142.708272,-0.009277,0.013611,-0.993042,0.266656,0.401832,-0.161527,58,281,576,5232
1644158142.756665,-0.011536,0.008728,-0.98938,0.388794,0.432366,-0.161527,52,282,575,5280
1644158142.805687,-0.010559,0.012146,-0.991211,0.175053,0.447634,-0.222595,53,276,569,5296
1644158142.856308,-0.008057,0.010559,-0.989136,0.190321,0.539237,0.006412,47,277,579,5200
1644158142.906524,-0.010925,0.007874,-0.99231,0.251389,0.554504,-0.085191,47,270,575,5280
1644158142.950771,-0.007568,0.010376,-0.992371,0.297191,0.386565,-0.100458,52,270,577,5232
1644158143.062998,-0.010437,0.011902,-0.990906,0.312458,0.569771,0.006412,49,282,589,5232
1644158143.097427,-0.008301,0.010498,-0.993958,0.098718,0.417099,-0.176794,52,263,582,5280
1644158143.143766,-0.00946,0.007568,-0.988953,0.205588,0.447634,-0.115725,52,277,577,5248
1644158143.192272,-0.011414,0.006714,-0.994324,0.281924,0.432366,-0.085191,49,273,572,5232
1644158143.24055,-0.010864,0.009888,-0.993225,0.266656,0.386565,-0.130992,47,273,579,5280
1644158143.288909,-0.008911,0.009888,-0.990173,0.144519,0.401832,-0.115725,55,274,578,5248
1644158143.337326,-0.009705,0.009583,-0.990662,0.220855,0.447634,-0.130992,55,276,585,5296
1644158143.385714,-0.015442,0.007019,-0.990784,0.236122,0.554504,-0.329466,41,279,576,5280
1644158143.434111,-0.007996,0.008484,-0.992859,0.297191,0.523969,-0.039389,45,273,575,5200
1644158143.482543,-0.007507,0.011353,-0.992004,0.327725,0.371298,0.021679,57,277,584,5248
1644158143.530887,-0.009338,0.009521,-0.991394,0.327725,0.447634,-0.054656,45,285,568,5232
1644158143.580023,-0.011597,0.005798,-0.99115,0.129252,0.508702,-0.039389,54,273,577,5248
1644158143.630178,-0.008728,0.012024,-0.990723,0.281924,0.447634,-0.222595,49,280,577,5280
1644158143.680554,-0.010986,0.010559,-0.990417,0.312458,0.508702,-0.130992,45,280,584,5248
1644158143.72573,-0.011047,0.01123,-0.99115,0.175053,0.24916,-0.024122,47,270,575,5296
1644158143.821234,-0.011169,0.009399,-0.990906,0.190321,0.401832,-0.130992,46,269,578,5296
1644158143.869672,-0.010803,0.008728,-0.993225,0.281924,0.294962,-0.039389,46,266,573,5232
1644158143.918008,-0.010986,0.013,-0.994202,0.251389,0.371298,0.067481,47,282,568,5344
1644158143.96642,-0.011597,0.012878,-0.988464,0.190321,0.401832,-0.130992,40,270,575,5280
1644158144.014783,-0.00824,0.010254,-0.992859,0.281924,0.447634,-0.024122,42,277,572,5200
1644158144.064584,-0.012817,0.01062,-0.992493,0.266656,0.417099,-0.115725,53,264,573,5248
1644158144.111553,-0.010132,0.011841,-0.989746,0.098718,0.569771,-0.14626,53,276,566,5200
1644158144.159937,-0.010071,0.009705,-0.990723,0.220855,0.386565,-0.176794,46,279,571,5184
1644158144.2083,-0.011414,0.010071,-0.992126,0.190321,0.447634,-0.039389,49,273,584,5344
1644158144.256712,-0.010193,0.009644,-0.991211,0.35826,0.432366,-0.130992,51,281,576,5280
1644158144.305218,-0.009888,0.011902,-0.990723,0.205588,0.371298,-0.14626,51,274,578,5248
1644158144.353511,-0.011292,0.009583,-0.990784,0.205588,0.493435,-0.176794,47,275,579,5280
1644158144.401885,-0.010193,0.009216,-0.988953,0.220855,0.432366,-0.176794,35,275,577,5232
1644158144.450273,-0.012268,0.011841,-0.992676,0.281924,0.554504,-0.008855,55,274,571,5280
1644158144.498658,-0.012329,0.01062,-0.992249,0.281924,0.325496,-0.176794,47,277,575,5200
1644158144.547048,-0.010681,0.011169,-0.994141,0.251389,0.432366,-0.115725,45,277,579,5296
1644158144.595426,-0.01355,0.009399,-0.993652,0.113985,0.432366,0.052214,55,276,576,5296
1644158144.643827,-0.009155,0.00824,-0.991455,0.266656,0.478168,-0.115725,43,266,580,5280
1644158144.692449,-0.010742,0.009521,-0.993835,0.129252,0.493435,-0.100458,55,281,576,5248
1644158144.741222,-0.012634,0.006531,-0.992798,0.236122,0.340763,-0.207328,46,266,566,5248
1644158144.791815,-0.012512,0.00769,-0.993652,0.190321,0.447634,-0.115725,57,268,577,5248
1644158144.842922,-0.007874,0.008728,-0.994629,0.159786,0.340763,-0.192061,59,275,568,5296
1644158144.887569,-0.010925,0.009277,-0.991882,0.297191,0.371298,-0.176794,48,276,573,5280
1644158144.982625,-0.011108,0.008301,-0.990173,0.190321,0.462901,-0.008855,46,264,571,5248
1644158145.030965,-0.009277,0.009521,-0.989868,0.297191,0.462901,-0.192061,55,262,566,5248
1644158145.079487,-0.010254,0.009766,-0.992554,0.327725,0.371298,-0.161527,53,271,569,5248
1644158145.127746,-0.007874,0.009094,-0.993591,0.098718,0.340763,-0.085191,46,276,571,5280
1644158145.1761,-0.009338,0.01001,-0.991089,0.342992,0.432366,-0.024122,43,276,569,5280
1644158145.224498,-0.009827,0.008545,-0.990173,0.113985,0.508702,-0.085191,53,274,569,5248
1644158145.272894,-0.010437,0.009827,-0.989136,0.266656,0.371298,-0.176794,55,266,573,5296
1644158145.321241,-0.011108,0.008789,-0.993225,0.205588,0.279695,-0.14626,47,273,565,5296
1644158145.369663,-0.010132,0.010559,-0.991943,0.373527,0.340763,-0.176794,49,277,572,5280
1644158145.41805,-0.012146,0.009338,-0.990173,0.266656,0.462901,-0.008855,64,270,570,5312
1644158145.466417,-0.009827,0.012207,-0.993652,0.159786,0.523969,-0.024122,51,274,571,5280
1644158145.514809,-0.011841,0.008118,-0.993347,0.388794,0.417099,0.113282,46,266,571,5248
1644158145.563226,-0.008667,0.007874,-0.995483,0.220855,0.462901,-0.176794,59,275,572,5280
1644158145.611594,-0.013245,0.00708,-0.994751,0.251389,0.478168,-0.115725,52,275,582,5248
1644158145.660041,-0.01355,0.005371,-0.993164,0.220855,0.447634,-0.192061,57,273,579,5296
1644158145.708378,-0.008789,0.007141,-0.99353,0.144519,0.386565,-0.207328,58,271,580,5232
1644158145.75674,-0.010437,0.009949,-0.989746,0.037649,0.447634,-0.039389,51,271,578,5248
1644158145.805182,-0.012939,0.009583,-0.990356,0.144519,0.417099,-0.176794,57,280,579,5248
1644158145.855209,-0.011902,0.010193,-0.991211,0.266656,0.447634,-0.085191,60,276,569,5280
1644158145.905109,-0.008972,0.010254,-0.992798,0.266656,0.447634,-0.085191,51,274,580,5248
1644158145.955439,-0.011414,0.011108,-0.990784,0.190321,0.356031,-0.069924,48,276,571,5200
1644158146.06373,-0.010681,0.007141,-0.993591,0.190321,0.325496,-0.054656,54,268,577,5232
1644158146.095503,-0.012451,0.008545,-0.990845,0.220855,0.462901,-0.100458,54,273,570,5248
1644158146.143941,-0.013489,0.009766,-0.992126,0.327725,0.447634,-0.039389,49,265,568,5280
1644158146.19229,-0.008972,0.007629,-0.991516,0.175053,0.356031,-0.192061,49,275,570,5232
1644158146.240653,-0.012451,0.009521,-0.991516,0.281924,0.493435,0.036947,45,273,568,5248
1644158146.289049,-0.00946,0.008667,-0.989197,0.251389,0.279695,-0.207328,48,271,573,5200
1644158146.33744,-0.012207,0.012573,-0.990356,0.205588,0.478168,-0.115725,48,266,573,5344
1644158146.385835,-0.007935,0.011169,-0.991577,0.373527,0.447634,-0.207328,54,268,579,5200
1644158146.434209,-0.009766,0.010559,-0.991943,0.144519,0.493435,-0.161527,51,279,576,5248
1644158146.482788,-0.008179,0.01123,-0.992493,0.281924,0.462901,0.052214,46,276,587,5248
1644158146.530996,-0.009399,0.010315,-0.990662,0.144519,0.539237,-0.237863,54,273,582,5280
1644158146.580421,-0.009888,0.008972,-0.993286,0.175053,0.401832,-0.054656,57,260,591,5184
1644158146.630749,-0.009399,0.009277,-0.994019,0.251389,0.356031,-0.14626,47,275,572,5232
1644158146.681027,-0.013855,0.009705,-0.990601,0.129252,0.386565,0.021679,43,286,583,5296
1644158146.772966,-0.008423,0.009644,-0.990479,0.220855,0.325496,-0.039389,46,274,573,5280
1644158146.821326,-0.011414,0.010315,-0.992432,0.342992,0.478168,-0.085191,52,277,584,5280
1644158146.869682,-0.009888,0.009094,-0.991394,0.220855,0.523969,0.036947,48,266,573,5200
1644158146.918136,-0.011536,0.010254,-0.988892,0.205588,0.447634,-0.054656,52,275,579,5280
1644158146.966511,-0.00824,0.011353,-0.990173,0.113985,0.523969,-0.130992,47,287,570,5248
1644158147.014905,-0.011475,0.007324,-0.991882,0.098718,0.478168,-0.085191,40,275,570,5296
1644158147.063447,-0.008118,0.007874,-0.99054,0.144519,0.523969,-0.192061,46,276,576,5296
1644158147.111668,-0.010498,0.011475,-0.990295,0.08345,0.569771,-0.130992,51,283,580,5296
1644158147.160031,-0.011597,0.012939,-0.990967,0.312458,0.340763,-0.054656,42,270,572,5280
1644158147.208441,-0.008667,0.009216,-0.990845,0.205588,0.356031,0.036947,52,263,579,5296
1644158147.256793,-0.009949,0.008606,-0.992737,0.342992,0.462901,-0.039389,52,285,570,5248
1644158147.305302,-0.008911,0.008789,-0.992065,0.220855,0.600305,-0.100458,45,265,575,5200
1644158147.3536,-0.014099,0.01123,-0.989868,0.327725,0.462901,-0.192061,52,280,582,5280
1644158147.401995,-0.013611,0.010498,-0.992676,0.251389,0.417099,-0.237863,51,276,580,5248
1644158147.450371,-0.01123,0.010193,-0.991943,0.190321,0.371298,-0.14626,48,269,585,5296
1644158147.49877,-0.009094,0.01239,-0.99231,0.266656,0.401832,-0.054656,39,279,583,5296
1644158147.547152,-0.012268,0.010071,-0.99231,0.281924,0.294962,-0.085191,48,276,573,5280
1644158147.595548,-0.011047,0.008423,-0.992859,0.297191,0.462901,-0.024122,52,275,568,5280
1644158147.643931,-0.007996,0.007629,-0.990662,0.175053,0.432366,-0.130992,48,283,569,5280
1644158147.69274,-0.009521,0.011108,-0.990906,0.236122,0.432366,-0.024122,45,263,572,5296
1644158147.743554,-0.012024,0.010864,-0.99292,0.052916,0.401832,-0.298931,40,273,570,5280
1644158147.795168,-0.010071,0.009033,-0.989319,0.281924,0.340763,-0.176794,52,277,565,5232
1644158147.838957,-0.013184,0.013,-0.990845,0.266656,0.401832,-0.039389,48,279,573,5280
1644158147.934282,-0.009705,0.007996,-0.992737,0.312458,0.279695,-0.039389,51,271,576,5280
1644158147.982687,-0.010193,0.009338,-0.991821,0.281924,0.386565,-0.130992,54,268,577,5408
1644158148.031069,-0.011597,0.010254,-0.989868,0.175053,0.401832,-0.14626,48,274,573,5280
1644158148.079533,-0.008728,0.008545,-0.991821,0.159786,0.386565,-0.054656,53,279,590,5344
1644158148.127807,-0.008972,0.007019,-0.992676,0.312458,0.447634,-0.039389,47,273,575,5232
1644158148.176196,-0.011414,0.006897,-0.990784,0.159786,0.432366,-0.115725,55,269,571,5296
1644158148.22463,-0.010071,0.006592,-0.990906,0.342992,0.523969,-0.115725,54,275,570,5248
1644158148.272963,-0.010925,0.008179,-0.991028,0.251389,0.203359,-0.054656,48,276,578,5280
1644158148.32137,-0.009155,0.011902,-0.990967,0.251389,0.493435,-0.054656,42,277,582,5248
1644158148.36976,-0.013062,0.014099,-0.99115,0.190321,0.294962,-0.024122,48,281,564,5280
1644158148.418134,-0.009155,0.00946,-0.990051,0.08345,0.371298,-0.14626,48,276,576,5280
1644158148.46651,-0.009766,0.010864,-0.987793,0.373527,0.371298,-0.115725,49,282,570,5248
1644158148.514921,-0.006714,0.01062,-0.993774,0.251389,0.478168,-0.069924,49,280,577,5248
1644158148.563326,-0.010559,0.009644,-0.991455,0.281924,0.447634,-0.024122,53,269,571,5280
1644158148.611694,-0.013794,0.007385,-0.993408,0.159786,0.615573,-0.344733,58,279,569,5344
1644158148.660072,-0.011536,0.00647,-0.993958,0.175053,0.356031,-0.268397,55,276,578,5248
1644158148.708477,-0.009583,0.008057,-0.992737,0.266656,0.462901,-0.161527,52,270,579,5312
1644158148.756866,-0.010071,0.010742,-0.991089,0.098718,0.523969,-0.054656,48,264,578,5248
1644158148.805885,-0.009705,0.008789,-0.989502,0.449863,0.462901,-0.008855,53,281,580,5280
1644158148.856977,-0.010315,0.008972,-0.990784,0.098718,0.447634,-0.069924,45,275,572,5280
1644158148.906713,-0.010498,0.009766,-0.991455,0.159786,0.432366,-0.054656,46,281,578,5280
1644158148.950959,-0.010742,0.009216,-0.994568,0.159786,0.447634,-0.115725,47,280,575,5232
1644158149.060946,-0.01239,0.008118,-0.991333,0.281924,0.432366,0.006412,41,271,580,5280
1644158149.095614,-0.014404,0.007935,-0.991638,0.190321,0.294962,-0.207328,55,269,569,5280
1644158149.143984,-0.013733,0.008972,-0.991394,0.068183,0.447634,-0.054656,47,268,579,5232
1644158149.192379,-0.012756,0.010742,-0.992249,0.236122,0.340763,-0.14626,55,269,580,5232
1644158149.240751,-0.013916,0.003418,-0.993103,0.281924,0.310229,-0.115725,57,282,579,5296
1644158149.289153,-0.009521,0.008606,-0.990662,0.236122,0.432366,-0.14626,45,282,572,5248
1644158149.337529,-0.009216,0.007629,-0.989624,0.190321,0.356031,-0.100458,47,265,572,5280
1644158149.385916,-0.012695,0.009277,-0.993164,0.205588,0.356031,0.052214,53,269,569,5296
1644158149.434307,-0.010803,0.009094,-0.992371,0.266656,0.508702,-0.054656,53,271,573,5248
1644158149.482717,-0.012878,0.010559,-0.989868,0.419328,0.523969,-0.054656,55,266,576,5312
1644158149.53108,-0.01239,0.009216,-0.993042,0.266656,0.523969,-0.115725,48,271,576,5248
1644158149.579478,-0.010498,0.006592,-0.993896,0.266656,0.401832,-0.069924,51,269,573,5248
1644158149.628025,-0.011475,0.013306,-0.990417,0.159786,0.294962,-0.115725,49,280,582,5280
1644158149.678612,-0.011719,0.010986,-0.991394,0.113985,0.432366,-0.176794,42,273,584,5280
1644158149.728574,-0.009888,0.007019,-0.994385,0.098718,0.417099,-0.176794,42,265,570,5232
1644158149.773677,-0.012329,0.007935,-0.991333,0.236122,0.447634,-0.14626,49,273,577,5248
1644158149.869836,-0.011841,0.010071,-0.991272,0.159786,0.447634,-0.085191,46,276,576,5248
1644158149.918217,-0.010864,0.009705,-0.991455,0.266656,0.340763,-0.161527,51,274,573,5232
1644158149.966617,-0.011047,0.01123,-0.990723,0.205588,0.386565,-0.085191,47,280,572,5280
1644158150.015066,-0.009827,0.011108,-0.993042,0.098718,0.462901,0.021679,46,274,583,5296
1644158150.063576,-0.010986,0.009155,-0.992676,0.236122,0.478168,-0.054656,49,282,572,5312
1644158150.111827,-0.008423,0.009521,-0.992432,0.175053,0.493435,-0.283664,43,269,576,5296
1644158150.160144,-0.010498,0.009399,-0.989014,0.342992,0.401832,-0.14626,57,282,568,5248
1644158150.208541,-0.009827,0.010925,-0.99176,0.113985,0.371298,-0.100458,52,275,572,5280
1644158150.256926,-0.012268,0.009644,-0.994019,0.175053,0.401832,-0.100458,46,279,569,5232
1644158150.305358,-0.009705,0.010681,-0.988831,0.205588,0.371298,-0.085191,51,276,573,5344
1644158150.353707,-0.011475,0.011108,-0.994385,0.068183,0.386565,0.082748,55,264,587,5280
1644158150.402074,-0.012512,0.007629,-0.994263,0.129252,0.24916,-0.176794,48,266,576,5280
1644158150.450467,-0.009399,0.008545,-0.993774,0.327725,0.478168,-0.14626,46,281,585,5280
1644158150.498869,-0.009399,0.008484,-0.992737,0.068183,0.554504,0.036947,51,279,580,5248
1644158150.547255,-0.013794,0.008423,-0.991943,0.373527,0.371298,-0.192061,43,271,571,5296
1644158150.595642,-0.011475,0.00769,-0.99054,0.251389,0.401832,0.098015,41,269,585,5232
1644158150.644994,-0.008911,0.008484,-0.989868,0.266656,0.569771,-0.039389,52,275,577,5248
1644158150.693011,-0.01062,0.010193,-0.98999,0.251389,0.447634,-0.130992,55,276,576,5200
1644158150.743732,-0.009827,0.009949,-0.992188,0.342992,0.585038,-0.130992,45,273,577,5296
1644158150.793692,-0.01123,0.008179,-0.991211,0.297191,0.447634,-0.115725,64,273,577,5312
1644158150.838688,-0.011658,0.006348,-0.993225,0.220855,0.386565,-0.069924,51,283,578,5296
1644158150.93443,-0.009766,0.010376,-0.992249,0.098718,0.554504,-0.069924,49,273,575,5248
1644158150.982817,-0.007751,0.008728,-0.990723,0.419328,0.386565,-0.192061,51,274,571,5232
1644158151.031174,-0.012451,0.007019,-0.992554,0.220855,0.523969,-0.222595,51,276,571,5280
1644158151.079669,-0.012756,0.006775,-0.992615,0.175053,0.432366,-0.100458,41,274,571,5232
1644158151.127957,-0.009644,0.006714,-0.991699,0.236122,0.417099,-0.069924,45,270,582,5248
1644158151.176306,-0.012817,0.010864,-0.989929,0.175053,0.447634,0.082748,48,266,578,5280
1644158151.224708,-0.009827,0.009705,-0.995117,0.281924,0.447634,-0.176794,53,274,571,5248
1644158151.273067,-0.012024,0.01062,-0.992493,0.205588,0.600305,-0.222595,42,277,579,5232
1644158151.321473,-0.00946,0.010071,-0.991943,0.220855,0.218626,-0.069924,47,277,575,5280
1644158151.369854,-0.011475,0.011353,-0.991821,0.327725,0.401832,0.036947,39,274,573,5296
1644158151.418265,-0.013184,0.008057,-0.991455,0.190321,0.371298,-0.192061,49,273,577,5248
1644158151.466638,-0.010071,0.01178,-0.992188,0.113985,0.340763,-0.054656,45,280,579,5248
1644158151.515138,-0.011414,0.010193,-0.990479,0.159786,0.478168,-0.069924,47,273,570,5200
1644158151.563435,-0.007874,0.009277,-0.99231,0.236122,0.279695,0.006412,49,273,572,5296
1644158151.611803,-0.011108,0.005981,-0.990112,0.281924,0.523969,-0.100458,47,285,572,5296
1644158151.660199,-0.012085,0.007263,-0.991394,0.388794,0.600305,-0.237863,53,276,576,5248
1644158151.708582,-0.009949,0.011719,-0.989441,0.236122,0.554504,-0.268397,38,282,570,5344
1644158151.756943,-0.011414,0.006287,-0.995361,0.144519,0.386565,-0.024122,43,271,573,5280
1644158151.805369,-0.008362,0.006592,-0.990723,0.266656,0.401832,-0.283664,43,274,576,5232
1644158151.853879,-0.010681,0.00824,-0.993286,0.190321,0.218626,0.067481,48,276,580,5280
1644158151.905343,-0.009521,0.010132,-0.990662,0.342992,0.371298,-0.085191,53,269,592,5232
1644158151.955645,-0.012512,0.010376,-0.99231,0.129252,0.310229,-0.100458,54,273,577,5280
1644158152.063098,-0.006653,0.012268,-0.992554,0.297191,0.401832,0.006412,47,273,570,5312
1644158152.095713,-0.008789,0.008728,-0.991272,0.297191,0.401832,-0.069924,46,271,576,5248
1644158152.144151,-0.01062,0.008545,-0.991089,0.342992,0.371298,-0.192061,48,281,578,5248
1644158152.192525,-0.009644,0.011963,-0.992432,0.251389,0.401832,-0.14626,48,281,578,5280
1644158152.240869,-0.010498,0.009277,-0.989685,0.342992,0.447634,-0.039389,47,277,568,5248
1644158152.289283,-0.011658,0.011414,-0.993469,0.159786,0.417099,-0.100458,43,276,578,5280
1644158152.337665,-0.012085,0.009216,-0.991028,0.342992,0.462901,-0.161527,41,276,580,5248
1644158152.386059,-0.011475,0.010559,-0.99115,0.08345,0.401832,-0.039389,55,271,580,5248
1644158152.434463,-0.011902,0.010132,-0.992859,0.281924,0.462901,-0.222595,51,274,578,5232
1644158152.482867,-0.009827,0.010864,-0.992737,0.266656,0.279695,0.006412,53,276,576,5296
1644158152.531256,-0.00824,0.008057,-0.993042,0.342992,0.447634,-0.069924,48,266,585,5200
1644158152.581825,-0.007751,0.011719,-0.990112,0.236122,0.554504,-0.069924,51,276,573,5312
1644158152.631242,-0.013672,0.009277,-0.99176,0.205588,0.523969,-0.222595,39,269,576,5248
1644158152.68157,-0.011108,0.00885,-0.99176,0.342992,0.310229,-0.161527,53,269,578,5248
1644158152.726169,-0.008606,0.009583,-0.992859,0.342992,0.371298,-0.130992,49,282,570,5344
1644158152.82155,-0.008911,0.011353,-0.991272,0.327725,0.462901,0.067481,43,271,580,5232
1644158152.869926,-0.012268,0.010193,-0.990723,0.266656,0.371298,-0.115725,43,276,571,5280
1644158152.918337,-0.008118,0.008423,-0.990112,0.35826,0.294962,-0.100458,48,281,578,5296
1644158152.966725,-0.010742,0.007935,-0.990784,0.281924,0.401832,-0.14626,51,279,564,5296
1644158153.015149,-0.010376,0.007996,-0.992249,0.251389,0.478168,-0.100458,43,269,576,5280
1644158153.063679,-0.007141,0.008484,-0.990112,0.281924,0.432366,-0.115725,42,270,579,5232
1644158153.111889,-0.009949,0.00708,-0.993103,0.281924,0.432366,-0.207328,51,269,573,5312
1644158153.160248,-0.013977,0.006897,-0.99115,0.190321,0.279695,-0.161527,47,277,579,5280
1644158153.208635,-0.011841,0.008667,-0.991028,0.052916,0.340763,-0.100458,60,286,576,5280
1644158153.25699,-0.013977,0.005859,-0.993713,0.236122,0.585038,-0.085191,43,274,571,5296
1644158153.305412,-0.012451,0.010864,-0.993225,0.35826,0.386565,-0.054656,46,279,573,5232
1644158153.353814,-0.01123,0.009033,-0.992371,0.404061,0.523969,-0.085191,52,277,582,5248
1644158153.402236,-0.01178,0.011902,-0.993164,0.297191,0.523969,-0.085191,45,270,579,5280
1644158153.450581,-0.011414,0.007751,-0.989685,0.236122,0.539237,-0.25313,46,271,564,5280
1644158153.498972,-0.011047,0.008606,-0.992188,0.190321,0.340763,-0.130992,46,276,573,5344
1644158153.547355,-0.008362,0.010498,-0.992981,0.281924,0.432366,-0.161527,57,277,561,5296
1644158153.595752,-0.011536,0.010437,-0.991272,0.434595,0.325496,-0.161527,52,275,575,5200
1644158153.644142,-0.011414,0.01239,-0.991028,0.144519,0.508702,-0.069924,55,279,566,5312
1644158153.692596,-0.009705,0.00769,-0.992737,0.220855,0.432366,-0.085191,49,260,584,5280
1644158153.741341,-0.012939,0.008789,-0.992554,0.113985,0.325496,-0.161527,46,276,580,5280
1644158153.792903,-0.006775,0.009094,-0.992615,0.068183,0.569771,-0.024122,55,281,573,5280
1644158153.843159,-0.010315,0.009949,-0.994629,0.297191,0.325496,-0.085191,49,275,572,5296
1644158153.887717,-0.010986,0.010132,-0.991211,0.159786,0.432366,-0.054656,58,271,569,5248
1644158153.982908,-0.010254,0.008057,-0.993713,0.342992,0.401832,-0.130992,42,273,577,5296
1644158154.031276,-0.008179,0.01001,-0.990662,0.236122,0.432366,-0.130992,42,275,565,5232
1644158154.080353,-0.010376,0.007385,-0.992798,0.404061,0.417099,-0.130992,48,283,576,5248
1644158154.128022,-0.014282,0.008972,-0.993713,0.190321,0.417099,-0.14626,54,280,570,5248
1644158154.176404,-0.012817,0.010193,-0.993103,0.251389,0.356031,-0.14626,49,270,577,5248
1644158154.224799,-0.009888,0.009949,-0.992493,0.144519,0.462901,-0.207328,46,276,583,5232
1644158154.273159,-0.009399,0.010986,-0.991516,0.342992,0.493435,-0.085191,60,271,573,5296
1644158154.321563,-0.011108,0.011169,-0.991394,0.220855,0.447634,-0.130992,54,270,570,5248
1644158154.369972,-0.01062,0.005798,-0.989624,0.342992,0.462901,-0.100458,53,274,562,5280
1644158154.418357,-0.009583,0.008667,-0.992676,0.312458,0.447634,-0.069924,40,275,584,5248
1644158154.46674,-0.008423,0.010925,-0.990234,0.297191,0.371298,-0.161527,49,273,579,5280
1644158154.515213,-0.011719,0.010559,-0.992554,0.159786,0.417099,-0.039389,48,274,573,5248
1644158154.563532,-0.010559,0.010864,-0.990784,0.312458,0.417099,-0.008855,41,266,583,5280
1644158154.611908,-0.008179,0.009399,-0.98999,0.129252,0.371298,-0.161527,52,275,582,5280
1644158154.660307,-0.008362,0.009949,-0.988342,0.113985,0.508702,-0.100458,38,255,568,5248
1644158154.708684,-0.010193,0.012085,-0.990906,0.220855,0.401832,0.098015,51,279,569,5344
1644158154.757046,-0.009766,0.005249,-0.991211,0.281924,0.325496,-0.176794,53,271,576,5232
1644158154.80551,-0.007812,0.010376,-0.990967,0.220855,0.508702,-0.207328,46,266,580,5248
1644158154.853918,-0.011292,0.008972,-0.991821,0.327725,0.462901,-0.100458,55,274,571,5248
1644158154.903788,-0.013245,0.00769,-0.99176,0.190321,0.371298,-0.069924,55,274,566,5280
1644158154.953873,-0.009094,0.011841,-0.988464,0.129252,0.386565,-0.024122,60,262,576,5280
1644158155.063164,-0.010315,0.010559,-0.99115,0.312458,0.493435,-0.039389,43,266,576,5280
1644158155.097919,-0.010559,0.011597,-0.991577,0.251389,0.432366,-0.115725,46,283,583,5296
1644158155.144194,-0.012329,0.010315,-0.994446,0.342992,0.508702,-0.085191,43,276,578,5344
1644158155.192592,-0.011719,0.009033,-0.991882,0.113985,0.462901,-0.130992,39,266,571,5280
1644158155.240955,-0.010254,0.009399,-0.99231,0.159786,0.371298,-0.161527,40,275,582,5232
1644158155.289342,-0.009094,0.009705,-0.98999,0.342992,0.417099,-0.100458,54,273,577,5296
1644158155.337738,-0.010681,0.008545,-0.991577,0.129252,0.386565,-0.130992,51,276,583,5296
1644158155.386135,-0.00824,0.013428,-0.989685,0.251389,0.356031,-0.222595,52,273,586,5296
1644158155.434494,-0.006348,0.008179,-0.991211,0.281924,0.508702,-0.283664,47,285,577,5280
1644158155.482918,-0.00946,0.008667,-0.992432,0.297191,0.401832,-0.130992,45,285,570,5248
1644158155.531304,-0.007935,0.012634,-0.990784,0.373527,0.401832,-0.039389,48,264,580,5296
1644158155.57972,-0.008667,0.008179,-0.992493,0.327725,0.340763,-0.085191,52,273,568,5280
1644158155.629998,-0.012329,0.009094,-0.992004,0.312458,0.523969,-0.069924,57,268,577,5312
1644158155.680329,-0.00824,0.009277,-0.992615,0.236122,0.462901,-0.161527,51,264,580,5248
1644158155.725342,-0.013428,0.009644,-0.994019,0.342992,0.401832,-0.130992,54,268,570,5296
1644158155.821651,-0.011169,0.007996,-0.99231,0.388794,0.371298,-0.100458,46,281,573,5200
1644158155.870049,-0.009644,0.009644,-0.99054,0.190321,0.508702,-0.054656,49,275,577,5312
1644158155.918409,-0.010498,0.008789,-0.993042,0.327725,0.523969,-0.14626,52,273,572,5248
1644158155.966841,-0.013123,0.008789,-0.990234,0.144519,0.401832,-0.130992,51,274,569,5296
1644158156.01525,-0.012329,0.009277,-0.994141,0.236122,0.356031,-0.008855,52,263,570,5232
1644158156.064433,-0.011169,0.009888,-0.993469,0.205588,0.493435,-0.161527,52,273,579,5248
1644158156.111987,-0.010254,0.007202,-0.990601,0.236122,0.417099,-0.100458,54,280,568,5296
1644158156.160362,-0.010681,0.009155,-0.99176,0.220855,0.279695,-0.115725,51,281,571,5344
1644158156.208727,-0.011902,0.010254,-0.99292,0.327725,0.417099,0.082748,43,274,564,5280
1644158156.257126,-0.010376,0.008179,-0.992065,0.205588,0.417099,-0.115725,41,274,576,5296
1644158156.305526,-0.010559,0.010315,-0.993713,0.251389,0.447634,-0.268397,62,279,576,5296
1644158156.353926,-0.009094,0.010254,-0.991333,0.266656,0.371298,0.021679,55,279,571,5248
1644158156.402291,-0.012207,0.012512,-0.99054,0.281924,0.386565,-0.207328,47,277,579,5248
1644158156.450682,-0.010193,0.012817,-0.991577,0.205588,0.401832,-0.039389,55,276,573,5296
1644158156.499073,-0.011047,0.005493,-0.992065,0.342992,0.478168,-0.130992,46,266,576,5248
1644158156.547437,-0.013672,0.011414,-0.992798,0.587267,0.371298,-0.054656,42,273,584,5296
1644158156.595855,-0.008545,0.009583,-0.994202,0.281924,0.523969,-0.207328,51,274,580,5296
1644158156.644243,-0.009949,0.009705,-0.993469,0.342992,0.462901,-0.085191,47,270,577,5248
1644158156.692704,-0.010925,0.009888,-0.991211,0.312458,0.539237,-0.161527,51,276,573,5248
1644158156.74149,-0.007935,0.007935,-0.991394,0.46513,0.447634,-0.130992,46,281,569,5200
1644158156.792013,-0.012939,0.008606,-0.992493,0.388794,0.432366,-0.069924,52,275,572,5200
1644158156.843733,-0.012146,0.010498,-0.991577,0.175053,0.401832,-0.115725,51,274,569,5248
1644158156.887924,-0.010437,0.011108,-0.99231,0.205588,0.386565,-0.039389,43,281,578,5248
1644158156.983023,-0.011597,0.010864,-0.994141,0.35826,0.493435,-0.085191,49,263,570,5200
1644158157.031356,-0.010925,0.007629,-0.991821,0.327725,0.462901,-0.054656,55,269,562,5248
1644158157.079861,-0.007874,0.007507,-0.993958,0.266656,0.569771,0.006412,54,270,582,5200
1644158157.128097,-0.011536,0.009033,-0.991638,0.220855,0.447634,-0.192061,49,285,575,5296
1644158157.176502,-0.01001,0.012024,-0.99054,0.373527,0.493435,-0.207328,52,285,572,5296
1644158157.224886,-0.010315,0.00824,-0.990784,0.220855,0.386565,-0.25313,48,281,576,5248
1644158157.273277,-0.013977,0.007446,-0.99115,0.266656,0.554504,-0.222595,57,277,568,5280
1644158157.321683,-0.009583,0.008118,-0.99231,0.251389,0.523969,0.052214,45,275,570,5280
1644158157.370079,-0.01123,0.007751,-0.995544,0.281924,0.371298,-0.085191,48,276,576,5232
1644158157.418461,-0.012207,0.007385,-0.988342,0.236122,0.325496,-0.115725,46,279,576,5280
1644158157.466828,-0.010376,0.007935,-0.993286,0.220855,0.432366,0.052214,46,271,578,5280
1644158157.515275,-0.010803,0.008362,-0.991638,0.373527,0.340763,-0.283664,52,273,572,5312
1644158157.563657,-0.013306,0.006348,-0.991821,0.312458,0.340763,-0.054656,54,273,577,5248
1644158157.612256,-0.012451,0.010254,-0.991333,0.251389,0.493435,-0.085191,42,263,565,5280
1644158157.660366,-0.009766,0.011292,-0.992554,0.236122,0.523969,-0.176794,58,276,578,5296
1644158157.708788,-0.013184,0.009644,-0.991821,0.251389,0.508702,-0.039389,54,277,579,5296
1644158157.757152,-0.008301,0.012939,-0.992981,0.220855,0.508702,-0.161527,51,264,576,5200
1644158157.805561,-0.008728,0.010925,-0.99176,0.159786,0.371298,-0.115725,47,275,584,5232
1644158157.85401,-0.011475,0.00946,-0.992737,0.297191,0.508702,-0.024122,49,275,579,5280
1644158157.903913,-0.007996,0.011658,-0.991516,0.144519,0.478168,-0.207328,61,280,579,5200
1644158157.954329,-0.012634,0.010559,-0.991272,0.205588,0.356031,0.052214,48,269,587,5248
1644158158.064406,-0.009216,0.008789,-0.995178,0.175053,0.371298,-0.024122,46,276,569,5248
1644158158.098267,-0.009583,0.009521,-0.992249,0.373527,0.523969,-0.207328,51,274,585,5312
1644158158.144361,-0.011475,0.009277,-0.990417,0.281924,0.279695,0.006412,52,282,570,5344
1644158158.192676,-0.009521,0.011414,-0.989929,0.236122,0.508702,-0.192061,57,275,584,5280
1644158158.241062,-0.011536,0.010559,-0.990234,0.175053,0.508702,-0.115725,51,281,576,5232
1644158158.289426,-0.009766,0.00946,-0.990112,0.251389,0.417099,-0.054656,46,279,580,5248
1644158158.33785,-0.011719,0.011414,-0.987854,0.205588,0.417099,-0.161527,57,273,563,5280
1644158158.386227,-0.010864,0.006836,-0.993896,0.373527,0.447634,-0.054656,45,275,579,5248
1644158158.434662,-0.010559,0.010376,-0.99176,0.266656,0.401832,-0.008855,47,270,582,5296
1644158158.483025,-0.008728,0.010864,-0.989502,0.541466,0.386565,-0.222595,46,274,580,5248
1644158158.531484,-0.008362,0.008362,-0.992249,0.175053,0.401832,-0.008855,51,271,583,5232
1644158158.580893,-0.01239,0.010498,-0.991089,0.281924,0.386565,-0.14626,64,268,572,5280
1644158158.631251,-0.009827,0.00769,-0.992798,0.281924,0.371298,-0.161527,53,274,571,5280
1644158158.681538,-0.009705,0.009766,-0.992188,0.312458,0.356031,-0.192061,43,266,580,5232
1644158158.773407,-0.009216,0.011292,-0.994385,0.312458,0.325496,0.021679,47,275,575,5248
1644158158.821727,-0.010315,0.010254,-0.992554,0.236122,0.478168,-0.115725,52,275,575,5200
1644158158.870145,-0.010437,0.008545,-0.991455,0.281924,0.508702,-0.176794,43,279,578,5280
1644158158.918518,-0.00885,0.009094,-0.99408,0.266656,0.340763,-0.192061,47,273,570,5344
1644158158.966908,-0.007935,0.01062,-0.991089,0.068183,0.523969,-0.161527,54,270,572,5248
1644158159.015324,-0.012268,0.00824,-0.992554,0.327725,0.386565,-0.207328,53,276,566,5280
1644158159.064285,-0.01062,0.009399,-0.992981,0.297191,0.356031,-0.130992,57,268,572,5280
1644158159.112143,-0.009888,0.008362,-0.990417,0.251389,0.371298,-0.14626,55,271,583,5296
1644158159.160458,-0.010742,0.008179,-0.994019,0.434595,0.371298,-0.054656,46,283,569,5280
1644158159.20888,-0.012756,0.007141,-0.990845,0.205588,0.447634,-0.069924,45,270,582,5232
1644158159.257246,-0.010925,0.009155,-0.992126,0.175053,0.63084,-0.054656,52,273,572,5296
1644158159.305671,-0.012817,0.007751,-0.99353,0.388794,0.493435,-0.100458,46,276,569,5280
1644158159.354061,-0.009888,0.009583,-0.990967,0.46513,0.356031,-0.008855,46,274,576,5296
1644158159.402449,-0.007263,0.010132,-0.992615,0.220855,0.462901,-0.237863,46,276,580,5296
1644158159.450831,-0.012207,0.00708,-0.991272,0.373527,0.569771,-0.085191,53,283,569,5248
1644158159.499184,-0.012634,0.010559,-0.994202,0.220855,0.554504,0.113282,47,275,577,5280
1644158159.547597,-0.012817,0.009216,-0.99115,0.297191,0.447634,-0.14626,53,262,576,5280
1644158159.596002,-0.009766,0.009277,-0.99176,0.129252,0.371298,0.036947,40,275,575,5280
1644158159.644552,-0.008667,0.010559,-0.992126,0.205588,0.386565,0.006412,42,277,570,5296
1644158159.694861,-0.010803,0.008728,-0.992249,0.327725,0.478168,0.052214,46,266,576,5280
1644158159.744967,-0.012695,0.00769,-0.993286,0.190321,0.386565,-0.085191,64,270,582,5280
1644158159.794935,-0.009888,0.009888,-0.990417,0.175053,0.401832,-0.115725,48,276,576,5248
1644158159.88635,-0.009827,0.009155,-0.990356,0.281924,0.417099,-0.069924,49,275,572,5280
1644158159.934886,-0.012207,0.009949,-0.992126,0.220855,0.508702,-0.161527,43,266,571,5280
1644158159.983099,-0.010864,0.008484,-0.995117,0.220855,0.401832,-0.192061,46,276,571,5248
1644158160.031461,-0.008179,0.011414,-0.990906,0.342992,0.569771,-0.069924,47,275,568,5200
1644158160.079982,-0.01178,0.011353,-0.992065,0.144519,0.401832,-0.069924,61,277,575,5248
1644158160.128251,-0.012085,0.010986,-0.99176,0.007115,0.356031,-0.069924,54,268,572,5312
1644158160.176626,-0.010559,0.011047,-0.99292,0.236122,0.386565,0.021679,53,271,573,5280
1644158160.225178,-0.012207,0.010498,-0.993469,0.327725,0.539237,-0.085191,48,279,580,5280
1644158160.273415,-0.013062,0.009277,-0.993958,0.312458,0.371298,-0.130992,49,263,579,5296
1644158160.321822,-0.01123,0.009766,-0.992004,0.175053,0.554504,-0.176794,46,266,573,5248
1644158160.370209,-0.011292,0.007874,-0.990967,0.266656,0.356031,-0.024122,53,269,569,5280
1644158160.418589,-0.011719,0.009644,-0.991516,0.35826,0.523969,-0.054656,46,269,571,5280
1644158160.466976,-0.012817,0.009766,-0.992004,0.312458,0.386565,-0.115725,46,271,580,5280
1644158160.515389,-0.011841,0.010742,-0.994446,0.327725,0.356031,-0.100458,48,274,576,5296
1644158160.563756,-0.012756,0.010498,-0.990784,0.281924,0.371298,-0.161527,53,276,573,5248
1644158160.6122,-0.012085,0.009949,-0.993103,0.144519,0.340763,-0.100458,57,282,570,5280
1644158160.660544,-0.009644,0.009399,-0.990295,0.236122,0.478168,-0.054656,52,275,575,5344
1644158160.709233,-0.010864,0.00885,-0.989197,0.419328,0.371298,-0.024122,54,273,575,5280
1644158160.757705,-0.007507,0.008118,-0.992004,0.220855,0.371298,-0.085191,46,279,576,5296
1644158160.807847,-0.012634,0.010071,-0.992432,0.281924,0.447634,-0.100458,57,287,577,5296
1644158160.858412,-0.011353,0.009338,-0.992371,0.251389,0.356031,-0.115725,55,271,573,5280
1644158160.902521,-0.009827,0.007202,-0.992432,0.480397,0.325496,-0.192061,48,276,578,5248
1644158160.999271,-0.013611,0.006531,-0.991333,0.205588,0.294962,0.098015,53,276,578,5312
1644158160.999271,-0.013611,0.006531,-0.991333,0.205588,0.294962,0.098015,53,276,578,5312
1644158161.097572,-0.010559,0.008667,-0.991699,0.251389,0.310229,-0.100458,55,276,576,5280
1644158161.144391,-0.009705,0.008606,-0.99176,0.266656,0.539237,-0.100458,52,273,582,5280
1644158161.19281,-0.012329,0.007385,-0.992554,0.251389,0.401832,-0.115725,51,271,576,5296
1644158161.241174,-0.010742,0.01239,-0.9953,0.46513,0.386565,-0.14626,51,276,573,5296
1644158161.289568,-0.012512,0.008301,-0.990173,0.236122,0.386565,-0.069924,39,276,573,5280
1644158161.337953,-0.011292,0.008972,-0.99231,0.113985,0.14229,-0.207328,46,276,573,5200
1644158161.386346,-0.010376,0.008789,-0.993042,0.144519,0.523969,-0.115725,55,271,578,5280
1644158161.434766,-0.012451,0.00708,-0.992004,0.175053,0.508702,-0.069924,42,275,575,5280
1644158161.483127,-0.011658,0.007263,-0.99353,0.205588,0.447634,-0.130992,48,271,576,5280
1644158161.5315,-0.010559,0.009338,-0.993774,0.342992,0.386565,-0.039389,48,271,571,5280
1644158161.579881,-0.013611,0.008911,-0.991211,0.190321,0.539237,-0.100458,36,283,587,5280
1644158161.628554,-0.013794,0.008972,-0.991211,0.373527,0.432366,-0.024122,48,266,573,5200
1644158161.679033,-0.013855,0.00769,-0.992737,0.220855,0.462901,-0.085191,51,264,583,5232
1644158161.729147,-0.010376,0.008179,-0.990234,0.220855,0.294962,-0.176794,52,268,584,5280
1644158161.774201,-0.011475,0.009827,-0.992615,0.220855,0.386565,-0.115725,51,271,566,5312
1644158161.870256,-0.011719,0.009827,-0.991882,0.068183,0.462901,-0.100458,61,277,582,5296
1644158161.918654,-0.011414,0.01062,-0.992981,0.236122,0.417099,-0.14626,47,275,575,5248
1644158161.96704,-0.010681,0.009399,-0.992615,0.388794,0.462901,-0.161527,53,274,573,5280
1644158162.015422,-0.007874,0.008423,-0.99054,0.281924,0.462901,-0.085191,53,281,571,5248
1644158162.063892,-0.011169,0.009644,-0.992981,0.236122,0.462901,-0.085191,45,277,575,5280
1644158162.112228,-0.013123,0.00885,-0.99115,0.068183,0.371298,-0.008855,34,276,573,5280
1644158162.160567,-0.009033,0.009094,-0.988831,0.312458,0.432366,-0.115725,42,280,570,5248
1644158162.20895,-0.01123,0.007324,-0.994202,0.159786,0.371298,-0.069924,49,277,568,5280
1644158162.25732,-0.009155,0.00824,-0.99176,0.297191,0.478168,-0.085191,45,280,575,5296
1644158162.305726,-0.011475,0.010132,-0.993347,0.113985,0.447634,0.098015,57,280,591,5280
1644158162.354131,-0.011658,0.00885,-0.991516,0.327725,0.432366,0.006412,51,274,569,5312
1644158162.402525,-0.010071,0.009399,-0.991394,0.373527,0.539237,-0.161527,57,268,570,5280
1644158162.450888,-0.012939,0.008057,-0.990417,0.35826,0.447634,-0.130992,51,269,587,5200
1644158162.499296,-0.012817,0.007202,-0.992188,0.175053,0.447634,0.113282,48,274,571,5248
1644158162.547657,-0.011414,0.008606,-0.990356,0.220855,0.371298,-0.100458,48,274,573,5232
1644158162.596065,-0.008789,0.009827,-0.992859,0.205588,0.432366,0.036947,48,279,571,5344
1644158162.644446,-0.012146,0.009338,-0.994019,0.312458,0.462901,-0.115725,53,269,578,5232
1644158162.692821,-0.014099,0.009033,-0.993286,0.190321,0.340763,-0.054656,55,269,578,5312
1644158162.741235,-0.011658,0.006042,-0.991516,0.281924,0.371298,-0.176794,52,277,565,5200
1644158162.790712,-0.009644,0.009338,-0.993225,0.159786,0.401832,-0.161527,61,273,572,5280
1644158162.841287,-0.008667,0.010498,-0.99176,0.312458,0.294962,-0.024122,48,279,583,5232
1644158162.891648,-0.012878,0.007507,-0.99469,0.251389,0.371298,-0.085191,54,273,577,5248
1644158162.936322,-0.010376,0.010559,-0.993896,0.175053,0.371298,-0.039389,49,275,575,5296
1644158163.031581,-0.012878,0.009949,-0.992493,0.144519,0.386565,-0.268397,49,282,575,5296
1644158163.080028,-0.011536,0.010437,-0.994751,0.220855,0.417099,0.021679,53,276,580,5296
1644158163.128365,-0.012085,0.008667,-0.99292,0.312458,0.539237,-0.161527,55,286,564,5280
1644158163.176706,-0.009644,0.010681,-0.992981,0.297191,0.401832,-0.237863,48,271,585,5280
1644158163.225133,-0.006958,0.005371,-0.992432,0.373527,0.493435,-0.024122,53,274,569,5248
1644158163.273474,-0.009094,0.009644,-0.992065,0.297191,0.417099,0.021679,53,279,571,5296
1644158163.321868,-0.012085,0.00769,-0.992249,0.297191,0.401832,-0.115725,47,265,570,5280
1644158163.370277,-0.01239,0.009949,-0.991089,0.281924,0.478168,0.036947,60,281,571,5280
1644158163.418675,-0.014404,0.008789,-0.99231,0.266656,0.447634,-0.115725,49,268,570,5296
1644158163.46705,-0.010315,0.008545,-0.994263,0.266656,0.554504,-0.069924,58,281,573,5248
1644158163.51544,-0.009644,0.009094,-0.992981,0.327725,0.554504,-0.054656,49,277,582,5296
1644158163.563838,-0.012878,0.009277,-0.992798,0.159786,0.508702,-0.039389,58,271,573,5248
1644158163.612239,-0.01062,0.007507,-0.993896,0.35826,0.447634,-0.115725,43,259,580,5280
1644158163.660614,-0.011475,0.009521,-0.992798,0.297191,0.462901,-0.14626,51,266,576,5312
1644158163.708987,-0.010803,0.009583,-0.990723,0.373527,0.356031,0.036947,53,279,580,5248
1644158163.757364,-0.012329,0.010071,-0.989929,0.129252,0.508702,-0.069924,60,276,566,5312
1644158163.805781,-0.013184,0.010132,-0.99231,0.220855,0.447634,-0.085191,58,274,585,5344
1644158163.855151,-0.01355,0.009094,-0.990723,0.266656,0.294962,-0.115725,54,273,572,5248
1644158163.904864,-0.009644,0.008423,-0.993835,0.373527,0.356031,-0.100458,51,262,573,5280
1644158163.955855,-0.01178,0.01178,-0.997314,0.297191,0.417099,-0.115725,47,277,577,5344
1644158163.999767,-0.010986,0.005127,-0.991455,0.236122,0.462901,0.036947,51,274,573,5232
1644158164.098342,-0.012512,0.012207,-0.993103,0.236122,0.386565,-0.054656,54,277,577,5280
1644158164.144564,-0.011719,0.008301,-0.990906,0.327725,0.493435,-0.085191,54,282,572,5232
1644158164.192902,-0.012634,0.007629,-0.989685,0.144519,0.462901,-0.054656,43,271,573,5280
1644158164.241272,-0.012268,0.011108,-0.991882,0.205588,0.279695,-0.008855,55,276,580,5248
1644158164.289665,-0.012268,0.00885,-0.993896,0.281924,0.447634,-0.130992,54,277,572,5296
1644158164.338054,-0.008423,0.007812,-0.992798,0.35826,0.478168,0.113282,59,273,572,5280
1644158164.386441,-0.011536,0.009949,-0.994507,0.266656,0.310229,-0.008855,57,282,584,5232
1644158164.434831,-0.013245,0.008972,-0.991455,0.220855,0.417099,-0.085191,48,274,566,5232
1644158164.483223,-0.011475,0.009033,-0.991943,0.251389,0.447634,0.036947,53,274,580,5280
1644158164.532019,-0.009949,0.01001,-0.989502,0.190321,0.371298,0.006412,46,279,571,5248
1644158164.582552,-0.008972,0.009644,-0.994202,0.388794,0.432366,0.021679,46,281,569,5280
1644158164.632923,-0.011658,0.00824,-0.991882,0.281924,0.24916,-0.069924,58,271,576,5280
1644158164.677925,-0.009094,0.009277,-0.99054,0.144519,0.310229,-0.085191,42,282,579,5280
1644158164.773552,-0.01178,0.008179,-0.992065,0.205588,0.417099,-0.085191,47,273,577,5296
1644158164.82194,-0.009277,0.008484,-0.992737,0.281924,0.447634,-0.024122,42,277,568,5248
1644158164.870353,-0.00885,0.00946,-0.992676,0.312458,0.478168,0.098015,51,266,566,5280
1644158164.918759,-0.012634,0.007324,-0.991516,0.373527,0.432366,-0.085191,45,280,568,5280
1644158164.967104,-0.010925,0.007996,-0.992188,0.220855,0.447634,0.12855,53,271,566,5280
1644158165.015525,-0.012817,0.01123,-0.992065,0.190321,0.493435,-0.054656,53,264,569,5296
1644158165.065861,-0.012329,0.00885,-0.992065,0.373527,0.417099,-0.100458,52,280,579,5280
1644158165.112373,-0.009827,0.011108,-0.989319,0.327725,0.432366,-0.14626,46,279,571,5280
1644158165.160673,-0.011414,0.008789,-0.992432,0.175053,0.478168,-0.024122,49,270,577,5248
1644158165.209068,-0.007751,0.009705,-0.993835,0.205588,0.371298,-0.207328,52,268,577,5248
1644158165.257457,-0.013855,0.006897,-0.99231,0.220855,0.523969,-0.115725,51,269,571,5344
1644158165.305861,-0.010315,0.008057,-0.991943,0.327725,0.493435,-0.14626,49,277,572,5296
1644158165.354259,-0.009277,0.007324,-0.99176,0.342992,0.310229,-0.085191,42,265,577,5184
1644158165.402664,-0.012268,0.007141,-0.990295,0.373527,0.401832,-0.054656,45,270,568,5248
1644158165.451022,-0.012207,0.011353,-0.992981,0.35826,0.310229,0.067481,52,270,568,5248
1644158165.499389,-0.015259,0.011658,-0.992432,0.297191,0.478168,0.052214,45,270,570,5248
1644158165.547821,-0.011658,0.012451,-0.994202,0.205588,0.417099,-0.008855,51,274,578,5296
1644158165.596209,-0.012512,0.007996,-0.991882,0.251389,0.478168,-0.069924,53,266,571,5248
1644158165.645359,-0.010925,0.010559,-0.99054,0.266656,0.340763,-0.222595,59,268,563,5232
1644158165.695714,-0.01123,0.009644,-0.994995,0.312458,0.294962,-0.008855,54,270,565,5360
1644158165.746147,-0.012817,0.006775,-0.988342,0.144519,0.585038,-0.176794,53,264,569,5280
1644158165.790681,-0.011475,0.009644,-0.990906,0.281924,0.340763,-0.024122,52,273,572,5200
1644158165.886522,-0.009033,0.008301,-0.991211,0.35826,0.478168,-0.008855,47,280,565,5280
1644158165.934916,-0.011597,0.009338,-0.990601,0.388794,0.508702,-0.192061,58,271,583,5296
1644158165.983306,-0.010376,0.009583,-0.991333,0.342992,0.554504,-0.008855,45,277,575,5280
1644158166.031706,-0.01062,0.009705,-0.993408,0.327725,0.401832,-0.207328,47,268,575,5344
1644158166.080152,-0.010254,0.007751,-0.991638,0.327725,0.432366,-0.085191,52,263,568,5280
1644158166.128437,-0.010193,0.01062,-0.990112,0.159786,0.447634,-0.100458,59,280,575,5248
1644158166.176829,-0.008545,0.006958,-0.992371,0.236122,0.371298,-0.130992,49,268,586,5280
1644158166.225284,-0.009705,0.009155,-0.989502,0.220855,0.493435,-0.161527,52,275,572,5280
1644158166.273591,-0.009521,0.008789,-0.991516,0.190321,0.371298,-0.161527,40,268,568,5344
1644158166.321974,-0.009277,0.013245,-0.992188,0.205588,0.462901,-0.008855,52,277,577,5312
1644158166.370378,-0.011108,0.00885,-0.993774,0.297191,0.310229,-0.054656,54,268,577,5200
1644158166.418768,-0.008911,0.007568,-0.993408,0.220855,0.508702,-0.25313,55,279,580,5280
1644158166.467152,-0.012939,0.008667,-0.993469,0.251389,0.386565,-0.298931,47,273,572,5296
1644158166.515548,-0.007568,0.008667,-0.990051,0.159786,0.432366,-0.192061,58,281,571,5248
1644158166.563941,-0.009216,0.010742,-0.992981,0.312458,0.417099,-0.069924,49,270,570,5248
1644158166.612338,-0.013855,0.010742,-0.992065,0.251389,0.523969,0.052214,34,266,566,5232
1644158166.660736,-0.008972,0.008179,-0.990723,0.327725,0.401832,-0.176794,49,277,568,5248
1644158166.709166,-0.009033,0.008728,-0.991882,0.236122,0.432366,-0.024122,43,271,587,5280
1644158166.758531,-0.01355,0.007874,-0.993652,0.205588,0.401832,-0.14626,48,264,566,5280
1644158166.809482,-0.009338,0.009094,-0.99115,0.129252,0.462901,-0.008855,45,277,577,5296
1644158166.859883,-0.010071,0.00946,-0.990112,0.251389,0.386565,-0.024122,40,275,582,5232
1644158166.95107,-0.009338,0.007568,-0.992737,0.312458,0.401832,-0.207328,59,275,575,5280
1644158166.999469,-0.011169,0.011047,-0.992249,0.266656,0.462901,0.098015,38,280,572,5184
1644158167.063317,-0.012634,0.007019,-0.992188,0.266656,0.432366,-0.130992,52,282,575,5296
1644158167.09752,-0.013123,0.00769,-0.991211,0.251389,0.462901,-0.222595,46,266,578,5200
1644158167.144632,-0.010437,0.009888,-0.991211,0.220855,0.325496,-0.054656,55,266,576,5232
1644158167.193015,-0.009583,0.009338,-0.991577,0.35826,0.478168,-0.039389,54,275,568,5296
1644158167.241377,-0.010315,0.007812,-0.992188,0.388794,0.356031,-0.115725,49,273,579,5200
1644158167.289771,-0.014038,0.005554,-0.991211,0.327725,0.447634,-0.008855,59,277,575,5296
1644158167.338161,-0.012085,0.00824,-0.990234,0.236122,0.493435,-0.008855,51,264,576,5296
1644158167.386539,-0.011475,0.009705,-0.990784,0.113985,0.401832,-0.115725,43,269,576,5296
