epoch,acc_x,acc_y,acc_z,rot_x,rot_y,rot_z,mag_x,mag_y,mag_z,temp
1644157800.019852,-0.007751,0.008972,-0.991272,0.159786,0.310229,-0.054656,53,262,566,5248
1644157800.072904,-0.010498,0.009583,-0.992004,0.251389,0.371298,-0.115725,49,273,584,5232
1644157800.116678,-0.010071,0.006897,-0.990967,0.266656,0.356031,-0.085191,59,275,579,5200
1644157800.165157,-0.00824,0.010437,-0.989685,0.236122,0.478168,-0.039389,59,265,575,5248
1644157800.213403,-0.010925,0.009277,-0.991577,0.35826,0.462901,-0.130992,46,266,580,5200
1644157800.261761,-0.011047,0.01001,-0.993103,0.236122,0.447634,-0.161527,45,275,579,5280
1644157800.310163,-0.011414,0.009094,-0.990784,0.052916,0.569771,-0.100458,58,274,580,5200
1644157800.358554,-0.011292,0.011963,-0.993713,0.205588,0.417099,-0.192061,46,269,573,5280
1644157800.40694,-0.012878,0.009033,-0.992432,0.175053,0.554504,-0.14626,49,268,586,5184
1644157800.455321,-0.008545,0.007812,-0.991699,0.159786,0.310229,-0.115725,54,277,575,5200
1644157800.503695,-0.010071,0.011963,-0.992371,0.342992,0.371298,-0.176794,47,270,572,5200
1644157800.552199,-0.01178,0.009888,-0.98938,0.251389,0.356031,-0.176794,46,274,564,5168
1644157800.603638,-0.011597,0.007385,-0.99408,0.205588,0.493435,-0.085191,54,277,579,5200
1644157800.65266,-0.00946,0.006897,-0.991394,0.236122,0.447634,-0.14626,57,263,575,5248
1644157800.697732,-0.012634,0.007141,-0.992126,0.281924,0.569771,-0.115725,52,280,570,5168
1644157800.794075,-0.010742,0.008606,-0.991943,0.251389,0.523969,-0.207328,52,277,572,5200
1644157800.842452,-0.01178,0.007812,-0.98999,0.220855,0.447634,-0.115725,59,270,575,5200
1644157800.890856,-0.008423,0.009216,-0.990295,0.190321,0.493435,0.021679,52,277,568,5232
1644157800.939248,-0.010315,0.009827,-0.989929,0.144519,0.294962,-0.237863,51,274,583,5200
1644157800.98763,-0.010132,0.008179,-0.994324,0.251389,0.539237,-0.115725,38,285,568,5200
1644157801.036034,-0.006531,0.010498,-0.992676,0.327725,0.554504,0.021679,57,273,586,5184
1644157801.085194,-0.013,0.009338,-0.993164,0.342992,0.432366,-0.085191,48,274,578,5184
1644157801.13284,-0.012024,0.009705,-0.992798,0.205588,0.294962,-0.039389,61,263,572,5248
1644157801.181165,-0.011475,0.009094,-0.991272,0.190321,0.386565,0.006412,48,271,571,5280
1644157801.229552,-0.01062,0.012451,-0.993103,0.205588,0.493435,0.021679,41,281,566,5200
1644157801.277923,-0.013916,0.009521,-0.994751,0.159786,0.417099,-0.192061,42,270,577,5248
1644157801.326325,-0.010315,0.01001,-0.994263,0.220855,0.539237,0.036947,43,269,587,5280
1644157801.374717,-0.007446,0.009277,-0.990295,0.205588,0.722443,-0.176794,52,275,579,5248
1644157801.423111,-0.00885,0.009827,-0.991699,0.236122,0.371298,-0.176794,53,279,571,5232
1644157801.471498,-0.015198,0.010376,-0.991028,0.35826,0.539237,-0.100458,58,262,573,5248
1644157801.519896,-0.01062,0.00824,-0.99115,0.373527,0.294962,-0.069924,52,273,582,5296
1644157801.568823,-0.01062,0.011414,-0.990417,0.373527,0.417099,-0.115725,54,280,586,5184
1644157801.619318,-0.010681,0.010315,-0.992004,0.236122,0.432366,-0.069924,55,279,566,5232
1644157801.669409,-0.011536,0.010132,-0.989502,0.205588,0.447634,-0.207328,49,273,577,5184
1644157801.714402,-0.008301,0.009155,-0.992859,0.388794,0.432366,-0.100458,48,276,573,5200
1644157801.810203,-0.009399,0.008362,-0.994141,0.297191,0.462901,-0.115725,51,269,573,5200
1644157801.858577,-0.008911,0.006409,-0.995056,0.220855,0.432366,-0.161527,46,271,576,5248
1644157801.907018,-0.010437,0.009888,-0.992249,0.342992,0.310229,-0.008855,55,279,571,5248
1644157801.955413,-0.010803,0.010864,-0.99115,0.098718,0.462901,-0.100458,54,273,579,5296
1644157802.003791,-0.010742,0.009399,-0.990906,0.312458,0.539237,0.021679,46,281,571,5168
1644157802.064257,-0.010742,0.011353,-0.98877,0.190321,0.462901,-0.176794,62,266,583,5280
1644157802.100529,-0.012756,0.01178,-0.990662,0.159786,0.462901,-0.115725,57,280,582,5200
1644157802.148973,-0.010254,0.008362,-0.992432,0.022382,0.462901,-0.14626,54,260,591,5280
1644157802.197369,-0.010132,0.01001,-0.991394,0.266656,0.401832,-0.100458,54,268,568,5200
1644157802.245728,-0.008484,0.010681,-0.993347,0.236122,0.417099,-0.161527,57,273,575,5136
1644157802.294149,-0.009827,0.011353,-0.991028,0.175053,0.386565,-0.054656,55,279,576,5200
1644157802.342505,-0.006592,0.008484,-0.993164,0.449863,0.523969,-0.054656,48,281,578,5296
1644157802.390901,-0.008606,0.010986,-0.989624,0.35826,0.432366,-0.115725,61,275,582,5200
1644157802.439307,-0.010925,0.010132,-0.990356,0.190321,0.447634,-0.161527,48,276,583,5232
1644157802.487689,-0.01001,0.010193,-0.992371,0.297191,0.462901,-0.085191,46,279,583,5280
1644157802.536079,-0.009949,0.01062,-0.990967,0.297191,0.493435,-0.161527,51,281,587,5200
1644157802.584525,-0.00946,0.011475,-0.992676,0.388794,0.462901,0.021679,42,277,586,5232
1644157802.632876,-0.010132,0.007751,-0.991821,0.175053,0.340763,-0.161527,52,277,575,5184
1644157802.683208,-0.010986,0.00885,-0.990234,0.266656,0.478168,-0.115725,48,269,576,5280
1644157802.733258,-0.013306,0.005798,-0.992188,0.419328,0.523969,-0.085191,51,269,576,5280
1644157802.783517,-0.010315,0.010132,-0.992432,0.297191,0.386565,-0.192061,48,281,576,5200
1644157802.828274,-0.009766,0.01123,-0.992493,0.098718,0.356031,-0.100458,52,273,577,5200
1644157802.923198,-0.010071,0.007263,-0.990906,0.266656,0.417099,-0.100458,51,279,569,5184
1644157802.971538,-0.008667,0.006836,-0.992371,0.281924,0.462901,-0.085191,41,274,571,5248
1644157803.019958,-0.01178,0.01062,-0.990173,0.113985,0.401832,-0.054656,52,277,577,5248
1644157803.068445,-0.011353,0.007568,-0.992676,0.281924,0.493435,0.006412,48,274,578,5248
1644157803.11669,-0.010803,0.010132,-0.990906,0.266656,0.447634,0.098015,49,273,570,5200
1644157803.16512,-0.010132,0.009338,-0.992798,0.190321,0.523969,-0.25313,53,271,583,5232
1644157803.213482,-0.008789,0.011108,-0.989929,0.281924,0.432366,-0.008855,47,275,577,5248
1644157803.261856,-0.012085,0.008606,-0.991089,0.404061,0.401832,-0.176794,51,266,571,5296
1644157803.310255,-0.007874,0.007996,-0.990906,0.342992,0.432366,-0.268397,55,279,576,5200
1644157803.358638,-0.008118,0.009888,-0.992004,0.236122,0.386565,-0.115725,60,279,571,5280
1644157803.407041,-0.01355,0.009277,-0.989502,0.342992,0.371298,-0.161527,51,283,573,5200
1644157803.455428,-0.013794,0.010559,-0.988281,0.373527,0.646107,-0.100458,51,283,580,5200
1644157803.50383,-0.010742,0.009888,-0.992615,0.220855,0.478168,-0.161527,53,264,573,5200
1644157803.552241,-0.011841,0.009399,-0.991577,0.35826,0.569771,-0.130992,49,268,572,5280
1644157803.600556,-0.012085,0.008179,-0.991028,0.159786,0.340763,-0.039389,43,276,576,5184
1644157803.648974,-0.011353,0.010803,-0.988647,0.251389,0.371298,-0.054656,54,265,579,5248
1644157803.69737,-0.013062,0.00946,-0.993103,0.312458,0.279695,-0.069924,53,269,587,5296
1644157803.745729,-0.010376,0.009766,-0.991272,0.266656,0.447634,-0.222595,52,275,577,5200
1644157803.794191,-0.012878,0.011108,-0.990601,0.175053,0.462901,-0.054656,47,270,575,5296
1644157803.844667,-0.009888,0.009827,-0.991272,0.266656,0.401832,0.006412,52,280,568,5248
1644157803.894293,-0.011536,0.010132,-0.991943,0.297191,0.462901,-0.085191,58,271,576,5248
1644157803.944459,-0.014221,0.010376,-0.994751,0.190321,0.356031,-0.161527,43,271,576,5232
1644157803.989114,-0.011963,0.010315,-0.990967,0.312458,0.508702,-0.069924,58,264,585,5248
1644157804.088784,-0.011047,0.010864,-0.990723,0.220855,0.401832,-0.069924,57,275,579,5200
1644157804.132864,-0.010254,0.008057,-0.992798,0.297191,0.432366,-0.14626,49,277,570,5248
1644157804.181246,-0.010315,0.008545,-0.993347,0.251389,0.24916,-0.161527,51,264,573,5200
1644157804.229614,-0.013367,0.008972,-0.991577,0.312458,0.356031,-0.161527,47,265,572,5232
1644157804.278011,-0.010681,0.007751,-0.991516,0.175053,0.569771,-0.100458,47,273,572,5248
1644157804.326403,-0.010376,0.008301,-0.990845,0.190321,0.371298,-0.085191,48,269,571,5232
1644157804.374808,-0.009644,0.009338,-0.993713,0.312458,0.447634,-0.176794,40,265,565,5248
1644157804.423187,-0.010559,0.009277,-0.991089,0.251389,0.386565,0.006412,32,269,583,5248
1644157804.471579,-0.012268,0.007996,-0.991882,0.35826,0.386565,-0.054656,49,270,575,5184
1644157804.520187,-0.013062,0.013794,-0.990845,0.342992,0.401832,-0.085191,58,271,576,5200
1644157804.568365,-0.008972,0.010742,-0.991516,0.129252,0.462901,-0.237863,48,276,573,5200
1644157804.61675,-0.012573,0.00946,-0.991333,0.251389,0.432366,-0.130992,42,277,577,5184
1644157804.665173,-0.011597,0.009949,-0.989258,0.327725,0.508702,-0.14626,49,270,570,5168
1644157804.713523,-0.007874,0.008667,-0.993774,0.251389,0.356031,-0.100458,57,273,582,5280
1644157804.761905,-0.009094,0.009583,-0.990662,0.297191,0.493435,-0.130992,45,265,582,5184
1644157804.810341,-0.009521,0.010803,-0.992859,0.190321,0.508702,-0.054656,47,275,577,5200
1644157804.858747,-0.009277,0.010498,-0.990112,0.190321,0.493435,-0.039389,52,268,572,5232
1644157804.908424,-0.009766,0.013184,-0.991211,0.205588,0.447634,-0.192061,61,277,579,5200
1644157804.958503,-0.010925,0.008545,-0.992249,0.312458,0.478168,-0.069924,40,275,584,5280
1644157805.064364,-0.011108,0.007324,-0.992249,0.449863,0.508702,-0.14626,59,275,579,5184
1644157805.100627,-0.011414,0.010315,-0.992676,0.205588,0.462901,-0.008855,58,276,573,5248
1644157805.148994,-0.012207,0.012146,-0.993408,0.251389,0.356031,-0.161527,54,273,572,5232
1644157805.197423,-0.012512,0.009094,-0.993835,0.281924,0.325496,-0.14626,52,287,577,5232
1644157805.24577,-0.010681,0.009766,-0.993652,0.312458,0.401832,-0.222595,43,274,571,5184
1644157805.294199,-0.010315,0.008911,-0.990173,0.312458,0.325496,-0.176794,49,258,577,5232
1644157805.342593,-0.013306,0.011841,-0.990601,0.236122,0.340763,-0.161527,47,275,568,5248
1644157805.390965,-0.010193,0.009949,-0.991882,0.175053,0.417099,0.006412,48,274,573,5248
1644157805.439361,-0.012939,0.011963,-0.989807,0.419328,0.340763,-0.130992,54,280,565,5232
1644157805.48771,-0.01123,0.008545,-0.993103,0.220855,0.493435,-0.192061,48,281,578,5200
1644157805.53613,-0.01123,0.009644,-0.993164,0.312458,0.478168,-0.176794,46,281,571,5232
1644157805.58452,-0.010376,0.00885,-0.990112,0.236122,0.417099,-0.008855,48,269,576,5280
1644157805.632922,-0.011963,0.006226,-0.991089,0.327725,0.432366,-0.054656,52,273,579,5184
1644157805.681459,-0.009583,0.010559,-0.991028,0.281924,0.325496,-0.069924,52,275,570,5232
1644157805.731985,-0.012939,0.007446,-0.992371,0.266656,0.386565,0.006412,55,271,573,5200
1644157805.782173,-0.008179,0.009094,-0.989624,0.175053,0.447634,-0.100458,53,262,590,5280
1644157805.828194,-0.009277,0.008789,-0.989136,0.266656,0.508702,0.082748,59,263,577,5200
1644157805.92329,-0.011719,0.009766,-0.991882,0.251389,0.24916,-0.069924,59,270,568,5200
1644157805.97166,-0.009155,0.010742,-0.993164,0.327725,0.508702,-0.192061,47,280,572,5280
1644157806.020057,-0.012146,0.010803,-0.995117,0.373527,0.432366,-0.298931,54,282,579,5248
1644157806.068523,-0.00885,0.009827,-0.991211,0.205588,0.279695,-0.054656,52,277,575,5184
1644157806.116792,-0.010864,0.009155,-0.989136,0.297191,0.417099,-0.039389,45,273,575,5200
1644157806.16518,-0.010681,0.006836,-0.992126,0.205588,0.493435,-0.14626,52,275,572,5232
1644157806.213584,-0.011353,0.009644,-0.992249,0.159786,0.447634,-0.176794,36,266,578,5232
1644157806.261955,-0.011536,0.009827,-0.991882,0.342992,0.371298,-0.176794,45,277,572,5248
1644157806.310355,-0.009033,0.010803,-0.991821,0.266656,0.356031,-0.039389,53,266,576,5280
1644157806.358736,-0.012817,0.012695,-0.987793,0.159786,0.279695,-0.176794,42,263,575,5200
1644157806.407129,-0.010986,0.010193,-0.989197,0.220855,0.294962,-0.130992,46,269,571,5200
1644157806.455516,-0.011108,0.010864,-0.990662,0.113985,0.371298,-0.008855,47,277,572,5248
1644157806.503932,-0.008911,0.011047,-0.988403,0.175053,0.523969,-0.069924,53,269,573,5232
1644157806.55231,-0.011169,0.009888,-0.990234,0.327725,0.493435,-0.024122,53,281,576,5232
1644157806.60066,-0.010071,0.009216,-0.991516,0.35826,0.356031,-0.192061,58,264,571,5200
1644157806.649077,-0.009277,0.009521,-0.993591,0.251389,0.371298,-0.085191,51,274,583,5200
1644157806.697446,-0.008118,0.011414,-0.990417,0.35826,0.279695,-0.222595,48,269,578,5280
1644157806.745803,-0.011047,0.009094,-0.99176,0.281924,0.401832,-0.054656,53,271,576,5280
1644157806.794235,-0.008606,0.011475,-0.991028,0.236122,0.432366,-0.085191,48,279,573,5200
1644157806.844315,-0.01062,0.009277,-0.993103,0.205588,0.401832,-0.222595,49,273,568,5248
1644157806.894266,-0.012146,0.009033,-0.991211,0.35826,0.447634,-0.176794,51,269,580,5248
1644157806.94463,-0.00824,0.009094,-0.990845,0.342992,0.478168,-0.130992,46,266,573,5200
1644157806.989017,-0.010132,0.009888,-0.990662,0.312458,0.386565,-0.024122,48,269,573,5232
1644157807.08723,-0.008545,0.010193,-0.989868,0.266656,0.508702,-0.115725,58,269,578,5184
1644157807.133004,-0.012268,0.01062,-0.994995,0.251389,0.356031,0.021679,42,273,572,5248
1644157807.181326,-0.009888,0.010437,-0.988525,0.220855,0.371298,-0.100458,55,266,571,5200
1644157807.229724,-0.013123,0.009155,-0.989807,0.388794,0.462901,-0.176794,58,269,571,5168
1644157807.278111,-0.009644,0.00769,-0.989807,0.266656,0.432366,-0.024122,49,275,572,5184
1644157807.326502,-0.00885,0.00769,-0.98999,0.129252,0.386565,-0.069924,52,268,584,5184
1644157807.374875,-0.006714,0.007507,-0.992432,0.052916,0.371298,-0.130992,51,276,566,5248
1644157807.423293,-0.010681,0.007141,-0.993469,0.572,0.340763,-0.161527,47,268,582,5184
1644157807.471671,-0.010559,0.009277,-0.988953,0.342992,0.508702,0.021679,47,273,577,5248
1644157807.520072,-0.011169,0.009277,-0.990906,0.266656,0.508702,-0.115725,51,279,578,5184
1644157807.568449,-0.00769,0.008484,-0.989929,0.220855,0.340763,-0.008855,54,268,586,5232
1644157807.61689,-0.007996,0.010254,-0.992615,0.404061,0.432366,-0.008855,48,271,566,5248
1644157807.665219,-0.006897,0.011536,-0.991577,0.312458,0.615573,-0.054656,46,279,576,5184
1644157807.713624,-0.009338,0.006958,-0.990906,0.175053,0.447634,-0.314198,54,265,591,5248
1644157807.762003,-0.010986,0.013855,-0.992249,0.052916,0.447634,-0.25313,48,274,562,5248
1644157807.810399,-0.011169,0.010498,-0.99176,0.205588,0.432366,-0.14626,58,266,576,5280
1644157807.858828,-0.010437,0.010376,-0.991455,0.266656,0.371298,0.006412,47,270,572,5280
1644157807.907211,-0.015076,0.010254,-0.991089,0.281924,0.386565,-0.100458,57,282,577,5248
1644157807.957219,-0.012573,0.008301,-0.991333,0.205588,0.371298,-0.008855,53,276,576,5200
1644157808.061888,-0.010193,0.009644,-0.990845,0.236122,0.462901,-0.054656,58,262,583,5232
1644157808.10075,-0.010315,0.009216,-0.991333,0.113985,0.523969,-0.085191,41,281,566,5232
1644157808.149114,-0.008606,0.00946,-0.99353,0.144519,0.325496,-0.024122,51,271,576,5200
1644157808.197495,-0.012573,0.01123,-0.992126,0.327725,0.371298,0.036947,51,276,569,5232
1644157808.245862,-0.010803,0.007874,-0.991089,0.297191,0.310229,-0.069924,58,269,580,5184
1644157808.294281,-0.010132,0.011963,-0.991882,0.297191,0.569771,-0.176794,54,275,575,5200
1644157808.34268,-0.012695,0.009644,-0.992065,0.342992,0.493435,-0.039389,46,264,573,5248
1644157808.391037,-0.010559,0.00647,-0.990723,0.297191,0.417099,-0.176794,52,285,584,5200
1644157808.439446,-0.00946,0.00885,-0.991516,0.113985,0.401832,-0.115725,54,277,584,5184
1644157808.487828,-0.007568,0.01123,-0.988525,0.144519,0.432366,-0.085191,49,273,570,5200
1644157808.536229,-0.008606,0.012573,-0.992249,0.236122,0.401832,-0.039389,54,287,572,5232
1644157808.585279,-0.01416,0.011475,-0.990479,0.175053,0.386565,-0.100458,68,270,572,5184
1644157808.633298,-0.013977,0.009216,-0.991333,0.190321,0.386565,-0.069924,46,281,578,5200
1644157808.681897,-0.009033,0.011475,-0.993896,0.220855,0.325496,-0.024122,42,277,579,5280
1644157808.7325,-0.00647,0.00946,-0.990967,0.129252,0.371298,-0.024122,52,277,579,5200
1644157808.782798,-0.006897,0.009766,-0.989014,0.220855,0.554504,-0.054656,55,266,583,5200
1644157808.827823,-0.007202,0.007324,-0.993164,0.205588,0.600305,-0.222595,43,281,576,5232
1644157808.923394,-0.010559,0.007874,-0.992981,0.266656,0.401832,-0.176794,51,274,571,5200
1644157808.97172,-0.010742,0.011475,-0.991455,0.205588,0.432366,-0.008855,55,274,576,5232
1644157809.020142,-0.01001,0.010559,-0.99231,0.236122,0.539237,-0.25313,46,274,580,5200
1644157809.06863,-0.009827,0.012695,-0.991333,0.266656,0.371298,-0.192061,46,274,573,5184
1644157809.11691,-0.012451,0.008301,-0.991577,0.281924,0.523969,-0.130992,51,283,571,5200
1644157809.165288,-0.009399,0.007568,-0.991394,0.266656,0.447634,0.006412,43,283,583,5200
1644157809.213694,-0.010803,0.009583,-0.992737,0.205588,0.371298,-0.161527,48,259,576,5200
1644157809.26206,-0.010437,0.007446,-0.988647,0.266656,0.401832,-0.115725,46,276,573,5200
1644157809.310484,-0.010986,0.010498,-0.992188,0.220855,0.417099,-0.024122,38,268,568,5200
1644157809.35885,-0.008423,0.008789,-0.991577,0.052916,0.508702,-0.115725,53,271,580,5200
1644157809.407256,-0.009644,0.009644,-0.989441,0.159786,0.432366,0.006412,48,274,576,5248
1644157809.455641,-0.009216,0.008972,-0.992188,0.266656,0.462901,-0.161527,52,280,572,5248
1644157809.504013,-0.008118,0.010742,-0.989563,0.251389,0.539237,-0.024122,51,271,580,5200
1644157809.552438,-0.007324,0.010925,-0.989441,0.175053,0.478168,-0.192061,58,281,571,5280
1644157809.600804,-0.011597,0.009094,-0.98877,0.236122,0.432366,-0.115725,46,269,585,5248
1644157809.649159,-0.010681,0.012695,-0.989807,0.159786,0.417099,-0.115725,47,263,565,5200
1644157809.697894,-0.009949,0.009277,-0.991516,0.175053,0.356031,-0.222595,58,276,576,5280
1644157809.746121,-0.010742,0.010864,-0.991089,0.373527,0.310229,0.006412,52,273,575,5232
1644157809.79678,-0.008484,0.011658,-0.991028,0.312458,0.417099,-0.054656,53,266,578,5248
1644157809.846783,-0.010132,0.00885,-0.993835,0.159786,0.401832,-0.14626,60,276,576,5184
1644157809.896942,-0.009338,0.006897,-0.989746,0.236122,0.417099,0.098015,65,271,576,5184
1644157809.987897,-0.011658,0.009155,-0.990784,0.281924,0.371298,-0.024122,52,273,572,5232
1644157810.03629,-0.012756,0.008301,-0.991455,0.205588,0.447634,-0.069924,62,271,576,5248
1644157810.084834,-0.011597,0.012268,-0.992554,0.388794,0.462901,-0.024122,43,286,585,5248
1644157810.133048,-0.012878,0.007446,-0.990234,0.08345,0.356031,-0.039389,49,277,563,5168
1644157810.18142,-0.011536,0.009888,-0.98938,0.098718,0.294962,-0.222595,55,274,583,5248
1644157810.229819,-0.009583,0.011475,-0.992493,0.205588,0.585038,-0.024122,49,273,570,5248
1644157810.278184,-0.011963,0.008423,-0.993591,0.281924,0.371298,0.067481,55,259,580,5184
1644157810.326608,-0.013916,0.00769,-0.992615,0.220855,0.508702,-0.039389,45,270,565,5200
1644157810.375108,-0.010254,0.011475,-0.991699,0.144519,0.508702,-0.054656,48,274,569,5280
1644157810.423379,-0.010986,0.009705,-0.989746,0.205588,0.478168,-0.085191,47,277,568,5280
1644157810.471763,-0.00769,0.00946,-0.993469,0.388794,0.432366,-0.115725,62,274,571,5280
1644157810.520149,-0.010437,0.009827,-0.992676,0.205588,0.401832,-0.130992,41,276,576,5248
1644157810.568534,-0.011414,0.009888,-0.993042,0.312458,0.478168,-0.176794,53,271,578,5232
1644157810.616932,-0.011353,0.007385,-0.990173,0.312458,0.386565,-0.054656,48,266,573,5232
1644157810.665299,-0.01178,0.007446,-0.990356,0.190321,0.447634,-0.237863,51,271,580,5200
1644157810.713703,-0.008606,0.008667,-0.991943,0.297191,0.371298,0.006412,48,276,571,5184
1644157810.762064,-0.010559,0.010681,-0.990234,0.144519,0.401832,-0.130992,49,277,579,5296
1644157810.810571,-0.009399,0.010559,-0.99176,0.281924,0.462901,-0.085191,48,271,580,5184
1644157810.858955,-0.012329,0.008606,-0.992493,0.068183,0.493435,-0.283664,43,271,573,5136
1644157810.90926,-0.010254,0.010864,-0.990173,0.281924,0.508702,-0.14626,46,269,578,5200
1644157810.959544,-0.008972,0.011353,-0.990784,-0.008153,0.523969,-0.222595,43,266,578,5232
1644157811.061622,-0.01239,0.008179,-0.993103,0.190321,0.417099,-0.130992,54,270,577,5200
1644157811.100873,-0.012329,0.010925,-0.991211,0.159786,0.401832,-0.008855,55,276,578,5184
1644157811.149193,-0.009033,0.009766,-0.993042,0.342992,0.356031,0.006412,52,277,575,5248
1644157811.197591,-0.010071,0.010681,-0.991455,0.342992,0.462901,-0.161527,54,273,572,5248
1644157811.245962,-0.011047,0.008423,-0.992737,0.175053,0.432366,-0.024122,58,266,564,5248
1644157811.294368,-0.01178,0.010803,-0.992249,0.419328,0.371298,0.006412,35,275,572,5184
1644157811.342786,-0.010498,0.010376,-0.992798,0.266656,0.447634,-0.207328,46,279,573,5200
1644157811.391148,-0.011658,0.007935,-0.992371,0.129252,0.294962,-0.14626,51,274,564,5248
1644157811.439543,-0.009705,0.008057,-0.99231,0.281924,0.508702,-0.039389,38,282,572,5200
1644157811.487928,-0.012939,0.009399,-0.992249,0.327725,0.371298,-0.176794,52,263,582,5248
1644157811.536327,-0.008545,0.012878,-0.991089,0.144519,0.371298,-0.054656,53,269,573,5232
1644157811.584704,-0.012878,0.009338,-0.991821,0.312458,0.310229,-0.069924,58,271,578,5280
1644157811.633097,-0.009033,0.010864,-0.99115,0.281924,0.432366,-0.14626,41,264,573,5248
1644157811.681466,-0.007812,0.009949,-0.99054,0.068183,0.356031,-0.069924,49,275,575,5200
1644157811.730175,-0.010132,0.009583,-0.990967,0.220855,0.401832,-0.115725,57,275,572,5232
1644157811.779836,-0.008057,0.008972,-0.992554,0.327725,0.294962,-0.054656,49,270,575,5184
1644157811.830567,-0.010132,0.010803,-0.99176,0.205588,0.447634,-0.054656,47,268,577,5200
1644157811.875212,-0.01001,0.010071,-0.991821,0.266656,0.340763,-0.100458,60,274,569,5184
1644157811.971841,-0.012573,0.011841,-0.992981,0.205588,0.585038,-0.024122,49,280,577,5296
1644157812.020221,-0.008545,0.01123,-0.991638,0.281924,0.600305,-0.115725,57,268,561,5200
1644157812.068685,-0.009216,0.013855,-0.989319,0.281924,0.523969,-0.115725,48,269,583,5232
1644157812.117004,-0.010681,0.010681,-0.992554,0.251389,0.646107,-0.268397,53,283,573,5296
1644157812.165354,-0.010986,0.008972,-0.990784,0.205588,0.523969,-0.085191,36,281,573,5232
1644157812.213751,-0.007874,0.011902,-0.992676,0.434595,0.508702,-0.039389,53,274,573,5184
1644157812.262186,-0.013245,0.009094,-0.990234,0.190321,0.569771,-0.069924,57,280,575,5248
1644157812.310525,-0.010498,0.009521,-0.993103,0.327725,0.447634,-0.115725,53,264,578,5200
1644157812.358929,-0.008057,0.010437,-0.989441,0.251389,0.325496,0.036947,52,280,579,5248
1644157812.40728,-0.011719,0.009827,-0.992737,0.113985,0.493435,-0.069924,47,277,570,5280
1644157812.455701,-0.013855,0.00946,-0.991394,0.159786,0.539237,-0.161527,46,274,576,5296
1644157812.504106,-0.012024,0.008911,-0.990479,0.281924,0.523969,-0.161527,45,268,577,5200
1644157812.55249,-0.012207,0.010193,-0.99292,0.297191,0.401832,-0.054656,42,273,572,5280
1644157812.60086,-0.012146,0.010193,-0.992981,0.419328,0.417099,-0.115725,51,269,571,5184
1644157812.649255,-0.008667,0.009583,-0.991089,0.373527,0.325496,0.006412,51,281,573,5280
1644157812.697628,-0.009827,0.011536,-0.991516,0.236122,0.493435,-0.085191,54,273,563,5248
1644157812.746035,-0.011169,0.008911,-0.990479,0.281924,0.432366,-0.024122,51,264,566,5248
1644157812.794419,-0.008667,0.009766,-0.990601,0.190321,0.371298,-0.054656,49,268,577,5248
1644157812.842889,-0.007202,0.011963,-0.992493,0.419328,0.340763,-0.130992,46,269,571,5248
1644157812.892564,-0.01123,0.010986,-0.991516,0.220855,0.417099,-0.161527,47,268,584,5280
1644157812.943049,-0.011597,0.009094,-0.992188,0.388794,0.417099,-0.130992,55,271,571,5248
1644157812.993727,-0.011658,0.009949,-0.990784,0.159786,0.401832,-0.039389,48,274,576,5280
1644157813.088324,-0.009766,0.01001,-0.993225,0.327725,0.401832,-0.25313,54,280,579,5184
1644157813.133179,-0.009521,0.011475,-0.992188,0.205588,0.447634,-0.192061,48,274,578,5248
1644157813.181515,-0.010681,0.006348,-0.992676,0.281924,0.432366,-0.039389,54,277,568,5184
1644157813.229887,-0.008362,0.012207,-0.992126,0.251389,0.401832,-0.069924,47,275,572,5200
1644157813.27829,-0.010071,0.011536,-0.992432,0.159786,0.462901,-0.176794,40,273,572,5248
1644157813.326679,-0.010559,0.009705,-0.99054,0.297191,0.386565,-0.14626,52,255,570,5232
1644157813.375117,-0.011902,0.009705,-0.993591,0.297191,0.417099,-0.130992,53,279,580,5200
1644157813.423468,-0.012939,0.007446,-0.993042,0.449863,0.356031,-0.100458,47,270,577,5232
1644157813.471823,-0.00885,0.007751,-0.990112,0.373527,0.554504,-0.237863,60,266,576,5280
1644157813.520231,-0.010315,0.011963,-0.992798,0.205588,0.401832,-0.069924,48,262,578,5200
1644157813.568612,-0.011292,0.008606,-0.992737,0.342992,0.432366,-0.222595,45,282,579,5296
1644157813.617003,-0.010437,0.008362,-0.993286,0.175053,0.447634,-0.039389,60,283,580,5184
1644157813.665397,-0.010437,0.009277,-0.992859,0.159786,0.432366,-0.222595,59,265,577,5248
1644157813.713798,-0.009644,0.010132,-0.993469,0.388794,0.462901,-0.161527,57,273,570,5248
1644157813.762221,-0.009949,0.010559,-0.993469,0.312458,0.24916,-0.298931,47,265,568,5280
1644157813.810573,-0.009521,0.011536,-0.989807,0.266656,0.462901,-0.069924,52,277,577,5232
1644157813.859,-0.01062,0.008301,-0.992371,0.220855,0.478168,-0.14626,57,260,575,5184
1644157813.907702,-0.012817,0.010071,-0.990295,0.205588,0.432366,-0.024122,53,269,573,5248
1644157813.958295,-0.01062,0.009216,-0.993896,0.144519,0.310229,-0.115725,39,274,573,5248
1644157814.062677,-0.014526,0.012024,-0.991699,0.159786,0.523969,0.006412,45,277,577,5184
1644157814.100919,-0.009766,0.010193,-0.993103,0.190321,0.462901,-0.039389,45,275,579,5184
1644157814.149307,-0.010498,0.007935,-0.991699,0.144519,0.356031,-0.069924,54,275,572,5232
1644157814.197725,-0.011475,0.009521,-0.992249,0.281924,0.478168,-0.14626,45,273,577,5200
1644157814.246078,-0.010132,0.010254,-0.989746,0.266656,0.478168,-0.039389,55,274,583,5168
1644157814.294508,-0.010254,0.008728,-0.991516,0.312458,0.447634,-0.161527,51,266,580,5200
1644157814.342874,-0.011353,0.011597,-0.989929,0.297191,0.371298,-0.130992,45,273,575,5232
1644157814.391278,-0.008789,0.008118,-0.992615,0.327725,0.462901,-0.039389,58,274,583,5200
1644157814.439668,-0.008728,0.011536,-0.990723,0.266656,0.386565,-0.130992,49,270,579,5280
1644157814.488043,-0.014099,0.010254,-0.99231,0.175053,0.356031,-0.054656,48,269,580,5200
1644157814.536438,-0.012329,0.007812,-0.994629,0.159786,0.386565,-0.161527,51,269,583,5232
1644157814.584836,-0.011047,0.009277,-0.992554,0.266656,0.371298,-0.054656,52,275,570,5200
1644157814.633235,-0.013062,0.006714,-0.992493,0.220855,0.646107,-0.130992,52,277,572,5232
1644157814.681975,-0.009827,0.010315,-0.988831,0.251389,0.447634,-0.176794,52,277,582,5168
1644157814.733445,-0.008545,0.008545,-0.992676,0.144519,0.432366,-0.115725,45,270,572,5200
1644157814.78293,-0.010071,0.011719,-0.99054,0.175053,0.417099,-0.100458,55,283,576,5200
1644157814.827836,-0.008423,0.013672,-0.992188,0.266656,0.462901,0.021679,49,273,568,5248
1644157814.923561,-0.010498,0.010925,-0.991882,0.251389,0.569771,-0.100458,49,268,565,5232
1644157814.971935,-0.012817,0.00885,-0.990967,0.404061,0.569771,-0.161527,52,268,565,5200
1644157815.020318,-0.008911,0.011108,-0.991943,0.327725,0.356031,0.12855,52,273,582,5200
1644157815.06882,-0.010132,0.008728,-0.992065,0.007115,0.462901,-0.008855,55,279,585,5232
1644157815.11705,-0.009949,0.011047,-0.990479,0.205588,0.386565,-0.14626,47,275,579,5184
1644157815.165459,-0.011414,0.01178,-0.99176,0.236122,0.432366,-0.14626,49,280,572,5200
1644157815.213844,-0.013977,0.010681,-0.990845,0.159786,0.462901,-0.283664,58,274,576,5200
1644157815.262256,-0.010925,0.010193,-0.991882,0.144519,0.63084,-0.192061,57,277,575,5248
1644157815.310622,-0.011414,0.008606,-0.992004,0.175053,0.523969,-0.054656,45,268,577,5232
1644157815.359009,-0.01123,0.007812,-0.992615,0.35826,0.462901,-0.054656,53,279,576,5248
1644157815.407401,-0.008789,0.01062,-0.991699,0.144519,0.340763,-0.115725,55,271,576,5248
1644157815.455778,-0.009583,0.011169,-0.988037,0.144519,0.386565,-0.039389,61,275,575,5248
1644157815.504193,-0.012451,0.008789,-0.992493,0.373527,0.462901,-0.222595,52,260,586,5232
1644157815.552558,-0.01123,0.010742,-0.991821,0.144519,0.493435,-0.100458,55,271,573,5200
1644157815.600949,-0.012573,0.011719,-0.989197,0.220855,0.325496,-0.130992,54,263,577,5248
1644157815.649335,-0.011169,0.009338,-0.995605,0.327725,0.462901,-0.14626,54,270,582,5200
1644157815.697727,-0.010193,0.009399,-0.990051,0.281924,0.356031,-0.176794,58,269,578,5232
1644157815.746117,-0.009888,0.007935,-0.993286,0.236122,0.523969,-0.100458,54,268,570,5200
1644157815.794563,-0.010864,0.011292,-0.992065,0.220855,0.523969,-0.039389,58,266,576,5184
1644157815.844196,-0.011169,0.007568,-0.99115,0.205588,0.478168,-0.130992,41,276,578,5200
1644157815.894636,-0.009766,0.010071,-0.994751,0.129252,0.462901,-0.039389,41,274,578,5200
1644157815.94488,-0.011536,0.010498,-0.992737,0.251389,0.386565,-0.161527,54,268,586,5200
1644157815.989238,-0.008606,0.009888,-0.990662,0.190321,0.401832,0.021679,43,274,573,5232
1644157816.084938,-0.009949,0.008667,-0.993713,0.236122,0.371298,-0.039389,62,274,578,5184
1644157816.133224,-0.011414,0.008667,-0.992798,0.251389,0.432366,-0.008855,45,273,582,5200
1644157816.181608,-0.011902,0.006592,-0.992859,0.281924,0.569771,-0.039389,53,281,573,5200
1644157816.229998,-0.011597,0.011292,-0.993225,0.251389,0.356031,-0.054656,43,264,573,5200
1644157816.27839,-0.012146,0.009216,-0.993835,0.220855,0.554504,-0.161527,54,273,586,5200
1644157816.326769,-0.010071,0.010925,-0.991882,0.281924,0.325496,-0.268397,57,268,577,5280
1644157816.375199,-0.012329,0.010742,-0.990112,0.266656,0.401832,-0.176794,55,279,571,5200
1644157816.423542,-0.010254,0.008179,-0.993713,0.175053,0.478168,-0.054656,51,269,578,5248
1644157816.471944,-0.009888,0.008972,-0.990295,0.205588,0.356031,-0.176794,53,274,573,5248
1644157816.520334,-0.01416,0.009766,-0.990967,0.434595,0.401832,-0.161527,55,281,578,5168
1644157816.568728,-0.010132,0.010315,-0.994568,0.08345,0.371298,-0.024122,59,275,579,5200
1644157816.617104,-0.010071,0.008057,-0.990601,0.220855,0.432366,-0.207328,49,273,572,5232
1644157816.665499,-0.007568,0.010742,-0.992432,0.251389,0.386565,-0.085191,53,283,576,5248
1644157816.713893,-0.010498,0.005127,-0.992676,0.281924,0.386565,0.052214,52,280,579,5200
1644157816.762271,-0.010315,0.008789,-0.991455,0.327725,0.462901,0.006412,42,273,575,5248
1644157816.810698,-0.007324,0.010742,-0.992981,0.373527,0.462901,0.021679,49,270,584,5184
1644157816.859092,-0.010071,0.01062,-0.993652,0.205588,0.508702,-0.115725,49,285,579,5232
1644157816.907784,-0.011108,0.008362,-0.992493,0.266656,0.401832,-0.130992,57,270,577,5248
1644157816.955877,-0.012695,0.010132,-0.994202,0.190321,0.417099,-0.115725,51,274,580,5200
1644157817.005802,-0.010925,0.010071,-0.990845,0.236122,0.447634,-0.115725,57,275,572,5248
1644157817.101061,-0.013062,0.008484,-0.989685,0.388794,0.462901,-0.14626,49,280,572,5280
1644157817.149404,-0.012939,0.009155,-0.993286,0.281924,0.356031,-0.192061,52,263,568,5248
1644157817.197762,-0.010437,0.009399,-0.994446,0.175053,0.508702,-0.069924,52,268,577,5280
1644157817.246135,-0.008362,0.006958,-0.98999,0.327725,0.478168,-0.115725,38,277,579,5136
1644157817.294657,-0.011292,0.009766,-0.991211,0.35826,0.432366,-0.069924,55,276,578,5200
1644157817.342942,-0.010376,0.012512,-0.991211,0.373527,0.569771,-0.008855,41,271,580,5200
1644157817.391294,-0.007202,0.01001,-0.990784,0.266656,0.447634,0.082748,49,275,584,5232
1644157817.439713,-0.011414,0.009033,-0.993835,0.159786,0.417099,-0.207328,55,266,576,5232
1644157817.4881,-0.011536,0.012878,-0.989929,0.052916,0.554504,-0.161527,42,275,575,5184
1644157817.536485,-0.012451,0.007507,-0.990479,0.266656,0.24916,-0.008855,54,273,579,5200
1644157817.584885,-0.012451,0.009888,-0.994446,0.205588,0.615573,-0.085191,52,273,570,5232
1644157817.63327,-0.011658,0.01123,-0.991211,0.236122,0.523969,-0.14626,43,276,576,5200
1644157817.68167,-0.008606,0.011414,-0.990784,0.327725,0.447634,-0.069924,48,279,573,5200
1644157817.730635,-0.007996,0.008667,-0.991394,0.205588,0.478168,-0.024122,55,274,583,5296
1644157817.781222,-0.010132,0.007935,-0.992981,0.159786,0.478168,0.021679,57,268,575,5200
1644157817.832487,-0.012878,0.011475,-0.990356,0.236122,0.447634,-0.100458,43,274,578,5200
1644157817.876997,-0.010986,0.010254,-0.992371,0.388794,0.325496,-0.130992,47,273,575,5184
1644157817.972016,-0.010071,0.007996,-0.992615,0.098718,0.493435,-0.130992,49,270,570,5184
1644157818.02041,-0.012085,0.01001,-0.994568,0.236122,0.569771,-0.176794,53,266,583,5280
1644157818.06893,-0.012878,0.010559,-0.991699,0.342992,0.478168,0.036947,54,265,577,5296
1644157818.117208,-0.011108,0.010071,-0.989746,0.220855,0.432366,-0.207328,48,271,571,5200
1644157818.165535,-0.009338,0.010132,-0.98999,0.35826,0.340763,-0.115725,54,270,582,5232
1644157818.213943,-0.009827,0.009277,-0.988831,0.220855,0.478168,-0.130992,46,271,573,5232
1644157818.262308,-0.010986,0.007324,-0.993835,0.205588,0.401832,-0.054656,53,276,576,5296
1644157818.31071,-0.01178,0.011108,-0.99054,0.190321,0.417099,-0.115725,57,277,577,5280
1644157818.359095,-0.010986,0.009338,-0.990234,0.190321,0.340763,-0.085191,42,265,565,5184
1644157818.407448,-0.013062,0.00946,-0.990662,0.281924,0.279695,0.036947,58,269,573,5200
1644157818.455874,-0.012329,0.008972,-0.993042,0.159786,0.371298,-0.115725,51,269,573,5248
1644157818.504277,-0.008423,0.008301,-0.990906,0.159786,0.356031,-0.130992,59,270,582,5248
1644157818.552677,-0.011597,0.009644,-0.993958,0.236122,0.523969,-0.024122,42,268,586,5280
1644157818.601046,-0.010437,0.013062,-0.992981,0.175053,0.447634,-0.14626,61,275,584,5168
1644157818.649443,-0.012146,0.01062,-0.992798,0.251389,0.493435,-0.054656,51,274,566,5280
1644157818.697822,-0.006897,0.012024,-0.988831,0.190321,0.310229,-0.115725,41,274,573,5184
1644157818.746208,-0.009766,0.007202,-0.990906,0.159786,0.371298,-0.024122,46,271,573,5200
1644157818.79463,-0.010864,0.006775,-0.990662,0.220855,0.462901,0.006412,53,274,573,5232
1644157818.843033,-0.010681,0.012146,-0.992188,0.220855,0.478168,-0.069924,52,270,568,5184
1644157818.89311,-0.011047,0.008362,-0.991943,0.220855,0.386565,-0.085191,49,280,579,5232
1644157818.943269,-0.010315,0.010071,-0.992249,0.251389,0.432366,-0.115725,54,265,577,5296
1644157818.993474,-0.012268,0.010071,-0.993347,0.266656,0.569771,-0.314198,47,268,577,5248
1644157819.086181,-0.013245,0.010071,-0.993164,0.159786,0.325496,-0.069924,54,277,575,5248
1644157819.133361,-0.008728,0.010986,-0.991455,0.159786,0.340763,-0.14626,42,277,577,5200
1644157819.181693,-0.013245,0.009033,-0.992126,0.434595,0.401832,-0.115725,60,262,573,5200
1644157819.230076,-0.01001,0.010254,-0.992065,0.220855,0.462901,-0.14626,53,271,580,5232
1644157819.278477,-0.011169,0.00647,-0.991272,0.144519,0.371298,-0.024122,49,273,577,5184
1644157819.326851,-0.010559,0.008362,-0.993591,0.205588,0.462901,-0.100458,55,264,569,5248
1644157819.375241,-0.011536,0.009155,-0.992371,0.190321,0.462901,-0.039389,46,279,580,5200
1644157819.423643,-0.011658,0.007935,-0.991211,0.190321,0.356031,-0.069924,51,266,580,5280
1644157819.472039,-0.010193,0.010376,-0.99408,0.312458,0.432366,-0.207328,45,260,570,5200
1644157819.520435,-0.011658,0.007874,-0.989868,0.236122,0.325496,-0.115725,55,281,576,5344
1644157819.56881,-0.010742,0.011597,-0.991272,0.205588,0.417099,-0.100458,52,263,565,5280
1644157819.617207,-0.011047,0.009277,-0.988403,0.113985,0.432366,-0.161527,59,275,577,5280
1644157819.665583,-0.011108,0.008606,-0.989563,0.08345,0.478168,-0.130992,53,262,583,5184
1644157819.713964,-0.011719,0.008118,-0.991577,0.175053,0.356031,-0.100458,40,270,582,5232
1644157819.762365,-0.009644,0.012329,-0.991821,0.251389,0.523969,0.006412,53,279,571,5200
1644157819.810739,-0.009705,0.008667,-0.991089,0.129252,0.279695,-0.130992,58,276,573,5248
1644157819.859192,-0.008789,0.010681,-0.989807,0.175053,0.340763,-0.054656,49,265,575,5184
1644157819.907583,-0.009155,0.009583,-0.99353,0.220855,0.417099,-0.024122,46,279,583,5200
1644157819.956095,-0.010193,0.008972,-0.993469,0.251389,0.386565,-0.069924,47,275,572,5280
1644157820.061217,-0.009521,0.006592,-0.989441,0.327725,0.508702,-0.039389,59,268,586,5280
1644157820.101126,-0.011963,0.007812,-0.991821,0.220855,0.462901,-0.161527,53,269,585,5200
1644157820.149488,-0.010925,0.009155,-0.991577,0.098718,0.432366,-0.14626,47,277,570,5248
1644157820.197867,-0.009766,0.01062,-0.990234,0.297191,0.539237,-0.085191,47,268,575,5248
1644157820.246231,-0.010193,0.009644,-0.991455,0.236122,0.356031,-0.100458,49,282,584,5248
1644157820.294728,-0.011292,0.007385,-0.990601,0.266656,0.401832,-0.085191,48,274,585,5232
1644157820.343034,-0.012207,0.00946,-0.99292,0.342992,0.508702,-0.192061,49,275,568,5232
1644157820.391409,-0.011719,0.009949,-0.992859,0.388794,0.356031,-0.161527,57,268,582,5232
1644157820.439803,-0.011902,0.009338,-0.99292,0.205588,0.462901,-0.069924,54,265,565,5296
1644157820.488193,-0.012817,0.007446,-0.991699,0.068183,0.325496,0.006412,54,277,572,5200
1644157820.536585,-0.01001,0.010193,-0.992188,0.190321,0.417099,-0.039389,40,270,586,5248
1644157820.585025,-0.01123,0.010498,-0.990479,0.251389,0.340763,-0.085191,60,274,571,5184
1644157820.633356,-0.011353,0.006836,-0.99176,0.175053,0.401832,0.006412,51,269,580,5200
1644157820.681744,-0.008179,0.011292,-0.992004,0.281924,0.447634,-0.115725,45,270,568,5280
1644157820.730365,-0.010925,0.008484,-0.991821,0.159786,0.493435,-0.283664,45,275,568,5200
1644157820.779185,-0.011841,0.009155,-0.992737,0.327725,0.447634,0.052214,53,283,573,5184
1644157820.829576,-0.014587,0.009827,-0.992737,0.068183,0.462901,0.082748,45,273,572,5184
1644157820.880435,-0.010803,0.005249,-0.992249,0.190321,0.417099,-0.207328,41,274,566,5232
1644157820.925581,-0.010742,0.009033,-0.991821,0.297191,0.417099,-0.130992,38,275,568,5248
1644157821.020521,-0.011047,0.009155,-0.991943,0.175053,0.508702,-0.024122,51,271,576,5200
1644157821.069008,-0.01062,0.009949,-0.991455,-0.008153,0.233893,0.143817,51,269,573,5200
1644157821.117234,-0.009521,0.008789,-0.991089,0.190321,0.325496,-0.054656,49,270,572,5200
1644157821.165611,-0.010864,0.007812,-0.990234,0.236122,0.447634,-0.069924,55,269,569,5200
1644157821.21404,-0.011047,0.010864,-0.99176,0.266656,0.386565,-0.100458,43,259,580,5248
1644157821.262389,-0.013062,0.010803,-0.990723,0.205588,0.508702,-0.100458,47,277,582,5280
1644157821.310808,-0.009888,0.007629,-0.992432,0.220855,0.356031,-0.176794,52,282,572,5184
1644157821.359186,-0.010376,0.011475,-0.993408,0.419328,0.310229,-0.069924,45,280,570,5200
1644157821.407583,-0.010925,0.008667,-0.991638,0.404061,0.478168,-0.024122,54,268,572,5248
1644157821.455963,-0.011169,0.006775,-0.991516,0.205588,0.401832,-0.115725,45,275,575,5248
1644157821.504382,-0.011963,0.009216,-0.994324,0.175053,0.447634,-0.069924,53,276,571,5280
1644157821.552739,-0.01001,0.006775,-0.99054,0.480397,0.356031,-0.161527,47,268,579,5280
1644157821.601141,-0.009521,0.009216,-0.992615,0.312458,0.325496,-0.100458,40,280,575,5296
1644157821.64952,-0.011047,0.008911,-0.991882,0.434595,0.401832,-0.008855,49,280,582,5248
1644157821.697897,-0.011719,0.010193,-0.992188,0.236122,0.447634,-0.115725,43,266,585,5248
1644157821.746284,-0.010376,0.010193,-0.991821,0.205588,0.462901,-0.14626,43,274,578,5248
1644157821.794725,-0.011169,0.011108,-0.990967,0.266656,0.447634,-0.115725,45,273,579,5232
1644157821.843249,-0.012695,0.009155,-0.994751,0.35826,0.569771,-0.130992,49,280,572,5184
1644157821.891494,-0.010742,0.008606,-0.991699,0.419328,0.417099,-0.161527,48,283,576,5184
1644157821.941309,-0.009888,0.011475,-0.990967,0.190321,0.432366,-0.192061,48,279,576,5232
1644157821.991674,-0.007996,0.01123,-0.992493,0.236122,0.310229,-0.039389,59,273,577,5200
1644157822.054267,-0.010071,0.008789,-0.992126,0.220855,0.462901,-0.100458,38,270,577,5200
1644157822.087205,-0.010803,0.01062,-0.991272,0.312458,0.462901,-0.054656,52,270,582,5248
1644157822.181782,-0.010071,0.00946,-0.990906,0.312458,0.447634,-0.161527,48,276,585,5200
1644157822.230177,-0.010803,0.012085,-0.989685,0.251389,0.356031,-0.085191,58,271,578,5248
1644157822.27856,-0.007446,0.010864,-0.991943,0.281924,0.462901,0.021679,55,274,573,5200
1644157822.326951,-0.010132,0.011047,-0.990173,0.342992,0.371298,-0.054656,52,273,577,5200
1644157822.375341,-0.010742,0.007446,-0.991699,0.205588,0.478168,-0.039389,57,277,572,5200
1644157822.423758,-0.012268,0.007385,-0.993774,0.281924,0.493435,-0.161527,39,276,569,5184
1644157822.472179,-0.011292,0.011841,-0.991516,0.236122,0.386565,-0.207328,58,276,583,5280
1644157822.520522,-0.011719,0.012085,-0.990051,0.388794,0.401832,-0.008855,52,263,577,5280
1644157822.5689,-0.010498,0.009033,-0.992554,0.175053,0.386565,-0.130992,57,263,579,5200
1644157822.617294,-0.009338,0.008301,-0.99469,0.08345,0.401832,-0.024122,54,277,572,5248
1644157822.66568,-0.012756,0.008789,-0.994507,0.266656,0.508702,-0.14626,51,274,576,5200
1644157822.71406,-0.011658,0.010559,-0.989319,0.327725,0.340763,-0.069924,58,271,580,5296
1644157822.762445,-0.013428,0.011169,-0.99115,0.129252,0.569771,-0.222595,48,271,576,5200
1644157822.810886,-0.010681,0.011902,-0.989807,0.35826,0.325496,-0.176794,52,268,579,5248
1644157822.859278,-0.008118,0.013245,-0.99231,0.190321,0.310229,-0.130992,54,273,577,5200
1644157822.907668,-0.010925,0.013367,-0.992859,0.129252,0.386565,-0.024122,53,281,571,5184
1644157822.956047,-0.009949,0.010559,-0.991821,0.068183,0.478168,-0.100458,67,274,573,5280
1644157823.004482,-0.008362,0.007935,-0.991394,0.144519,0.462901,-0.024122,45,285,577,5248
1644157823.078169,-0.010803,0.010864,-0.990967,0.175053,0.478168,-0.024122,53,269,583,5200
1644157823.107725,-0.007751,0.010315,-0.988037,0.236122,0.508702,-0.100458,57,275,582,5280
1644157823.150379,-0.006042,0.008972,-0.993286,0.281924,0.401832,-0.14626,46,279,571,5248
1644157823.246317,-0.008789,0.008423,-0.993835,0.373527,0.264427,0.036947,58,276,571,5200
1644157823.294853,-0.00946,0.010803,-0.989014,0.251389,0.294962,0.082748,51,269,569,5232
1644157823.343102,-0.01123,0.010925,-0.994141,0.08345,0.554504,-0.25313,52,265,570,5200
1644157823.3915,-0.009705,0.006836,-0.994629,0.052916,0.371298,-0.161527,49,280,568,5248
1644157823.439901,-0.012207,0.007446,-0.991272,0.35826,0.356031,-0.268397,42,275,572,5184
1644157823.488294,-0.011841,0.00885,-0.992737,0.08345,0.356031,-0.054656,53,269,576,5248
1644157823.536668,-0.015442,0.009277,-0.991394,0.220855,0.294962,-0.069924,47,270,565,5184
1644157823.585086,-0.011169,0.011292,-0.990845,0.342992,0.432366,-0.130992,53,276,573,5168
1644157823.633458,-0.010986,0.011475,-0.991333,0.297191,0.325496,-0.115725,53,271,569,5200
1644157823.681845,-0.013489,0.010498,-0.992737,0.281924,0.325496,-0.222595,57,277,584,5248
1644157823.730235,-0.010681,0.007935,-0.991272,0.281924,0.462901,-0.176794,49,275,593,5232
1644157823.778616,-0.010132,0.010193,-0.99115,0.251389,0.569771,-0.085191,46,264,573,5200
1644157823.827057,-0.011108,0.007812,-0.991882,0.266656,0.356031,-0.100458,54,280,582,5296
1644157823.875429,-0.010681,0.009155,-0.991272,0.220855,0.371298,-0.14626,43,269,576,5280
1644157823.923832,-0.009399,0.009644,-0.994446,0.236122,0.310229,-0.222595,49,270,577,5168
1644157823.972228,-0.011841,0.010986,-0.991943,0.220855,0.493435,-0.100458,54,273,575,5200
1644157824.020577,-0.011719,0.00708,-0.992981,0.220855,0.462901,-0.100458,62,281,578,5200
1644157824.082894,-0.011902,0.009033,-0.991943,0.251389,0.325496,-0.100458,42,285,579,5184
1644157824.118603,-0.009216,0.011292,-0.992676,0.144519,0.600305,-0.161527,52,275,586,5248
1644157824.167324,-0.011169,0.007812,-0.991699,0.266656,0.310229,-0.085191,39,279,580,5200
1644157824.21772,-0.010559,0.010376,-0.990173,0.205588,0.447634,-0.268397,45,268,582,5296
1644157824.262721,-0.010254,0.010498,-0.993286,0.144519,0.447634,-0.115725,55,276,573,5280
1644157824.359258,-0.010254,0.007446,-0.990845,0.205588,0.417099,-0.176794,57,268,572,5232
1644157824.40765,-0.010498,0.009094,-0.991272,0.205588,0.417099,-0.039389,48,274,569,5280
1644157824.456048,-0.009644,0.01001,-0.988892,0.175053,0.523969,-0.008855,51,266,566,5200
1644157824.504457,-0.009827,0.010742,-0.989258,0.236122,0.585038,-0.054656,48,279,576,5184
1644157824.552833,-0.009277,0.009766,-0.993164,0.159786,0.462901,-0.207328,54,275,563,5232
1644157824.60119,-0.008606,0.009705,-0.991516,0.266656,0.539237,-0.069924,51,276,569,5280
1644157824.649613,-0.012085,0.009705,-0.993713,0.312458,0.417099,-0.039389,52,265,570,5248
1644157824.697988,-0.011536,0.010315,-0.993347,0.220855,0.401832,-0.008855,47,268,572,5232
1644157824.746364,-0.010925,0.010498,-0.994812,0.312458,0.356031,-0.176794,60,274,583,5184
1644157824.794773,-0.011047,0.010254,-0.993713,0.144519,0.432366,-0.115725,55,271,576,5280
1644157824.843219,-0.008972,0.012085,-0.992737,0.297191,0.478168,-0.130992,54,277,570,5248
1644157824.891597,-0.012451,0.009277,-0.991943,0.205588,0.554504,-0.237863,47,275,568,5200
1644157824.93999,-0.010193,0.010498,-0.992798,0.175053,0.569771,-0.085191,53,271,569,5184
1644157824.988371,-0.011597,0.009277,-0.991089,0.266656,0.386565,-0.115725,52,265,584,5280
1644157825.036758,-0.009766,0.010986,-0.992004,0.129252,0.447634,0.052214,58,274,576,5248
1644157825.088827,-0.011047,0.009583,-0.992004,0.251389,0.371298,-0.008855,42,268,579,5248
1644157825.13349,-0.009888,0.011963,-0.991455,0.175053,0.417099,-0.207328,51,279,578,5280
1644157825.181874,-0.010193,0.00769,-0.990173,0.190321,0.493435,-0.054656,48,276,576,5232
1644157825.230335,-0.010742,0.009155,-0.993103,0.220855,0.493435,-0.008855,59,270,577,5248
1644157825.279171,-0.009094,0.010193,-0.99353,0.281924,0.493435,-0.069924,46,283,583,5232
1644157825.329473,-0.01001,0.007324,-0.995178,0.35826,0.493435,-0.161527,52,275,572,5280
1644157825.379802,-0.009338,0.006714,-0.991821,0.404061,0.325496,-0.130992,58,276,576,5248
1644157825.424767,-0.009583,0.009644,-0.991455,0.373527,0.539237,-0.192061,49,285,570,5200
1644157825.520607,-0.00885,0.008972,-0.989685,0.281924,0.493435,-0.054656,49,275,579,5200
1644157825.568997,-0.008301,0.008606,-0.992065,0.312458,0.462901,-0.039389,62,271,576,5184
1644157825.617372,-0.009949,0.011719,-0.992615,0.281924,0.417099,-0.14626,45,263,579,5280
1644157825.665749,-0.010254,0.007568,-0.990662,0.220855,0.417099,-0.024122,51,269,583,5232
1644157825.714152,-0.009338,0.008972,-0.993164,0.220855,0.386565,-0.130992,52,268,572,5232
1644157825.762557,-0.008362,0.007935,-0.993225,0.236122,0.462901,-0.207328,48,271,559,5184
1644157825.810943,-0.008728,0.008606,-0.991577,0.144519,0.325496,0.052214,51,281,571,5184
1644157825.859352,-0.011108,0.009216,-0.989075,0.297191,0.417099,-0.115725,60,283,573,5232
1644157825.907754,-0.009827,0.00946,-0.992676,0.159786,0.478168,-0.024122,52,277,579,5248
1644157825.956151,-0.012024,0.008728,-0.993469,0.205588,0.523969,-0.100458,55,274,580,5200
1644157826.00455,-0.011108,0.010986,-0.990845,0.098718,0.478168,-0.115725,57,270,577,5200
1644157826.057851,-0.01239,0.01062,-0.991943,0.220855,0.233893,-0.268397,41,264,573,5280
1644157826.101293,-0.008545,0.011902,-0.992615,0.08345,0.600305,-0.14626,53,269,583,5136
1644157826.149656,-0.010742,0.009277,-0.991455,0.175053,0.371298,-0.024122,41,281,569,5248
1644157826.19804,-0.006592,0.012329,-0.993774,0.205588,0.325496,-0.192061,45,273,572,5200
1644157826.246433,-0.011353,0.009766,-0.991821,0.220855,0.432366,-0.115725,49,285,568,5248
1644157826.294801,-0.012939,0.007385,-0.993103,0.312458,0.478168,-0.024122,57,275,568,5232
1644157826.343207,-0.012573,0.009705,-0.990112,0.037649,0.478168,-0.054656,46,266,578,5280
1644157826.391623,-0.011719,0.013611,-0.990784,0.35826,0.569771,-0.115725,52,258,575,5200
1644157826.441565,-0.01001,0.00946,-0.992493,0.205588,0.523969,-0.176794,53,271,576,5296
1644157826.492306,-0.01123,0.010132,-0.992004,0.388794,0.478168,-0.008855,45,265,577,5232
1644157826.541811,-0.013367,0.009094,-0.993896,0.236122,0.432366,-0.192061,51,266,571,5232
1644157826.633528,-0.01001,0.00824,-0.992798,0.251389,0.371298,-0.039389,53,281,571,5248
1644157826.681915,-0.012817,0.007263,-0.992676,0.327725,0.539237,-0.14626,54,285,572,5232
1644157826.730304,-0.01239,0.008789,-0.991699,0.327725,0.462901,-0.176794,38,270,572,5200
1644157826.778702,-0.00824,0.010193,-0.993164,0.297191,0.462901,0.021679,54,268,572,5200
1644157826.82709,-0.010681,0.009338,-0.991028,0.327725,0.294962,-0.085191,49,270,586,5200
1644157826.87552,-0.008301,0.009583,-0.99115,0.190321,0.432366,-0.039389,55,274,571,5280
1644157826.923913,-0.012512,0.009094,-0.991028,0.266656,0.478168,-0.039389,48,269,576,5200
1644157826.972319,-0.009094,0.009766,-0.992615,0.205588,0.462901,-0.100458,57,275,579,5248
1644157827.020692,-0.008484,0.009521,-0.992065,0.175053,0.447634,-0.100458,59,270,570,5232
1644157827.07512,-0.012634,0.010986,-0.992676,0.281924,0.371298,-0.130992,51,279,573,5248
1644157827.117446,-0.00885,0.011719,-0.992493,0.144519,0.539237,0.036947,42,268,582,5168
1644157827.165804,-0.012817,0.010742,-0.990723,0.35826,0.294962,0.143817,48,276,578,5248
1644157827.214217,-0.009338,0.008545,-0.989563,0.236122,0.417099,-0.207328,51,281,573,5232
1644157827.262577,-0.011536,0.007996,-0.991333,0.037649,0.478168,-0.024122,51,281,578,5200
1644157827.310961,-0.013489,0.009583,-0.992126,0.236122,0.493435,-0.069924,53,276,578,5184
1644157827.359363,-0.012085,0.00824,-0.989136,0.129252,0.554504,-0.161527,55,266,576,5280
1644157827.407757,-0.009705,0.009033,-0.99585,0.190321,0.493435,0.067481,48,281,587,5248
1644157827.456192,-0.010132,0.011414,-0.992188,0.251389,0.508702,-0.192061,52,270,579,5248
1644157827.504762,-0.01062,0.006531,-0.991699,0.266656,0.478168,-0.130992,62,279,573,5184
1644157827.554172,-0.00824,0.006653,-0.992554,0.312458,0.432366,-0.14626,54,282,579,5184
1644157827.604227,-0.00885,0.010437,-0.98999,0.205588,0.508702,0.036947,57,277,577,5200
1644157827.654518,-0.012268,0.010803,-0.991272,0.281924,0.523969,-0.100458,49,273,575,5248
1644157827.746453,-0.010315,0.007446,-0.991882,0.236122,0.386565,-0.14626,52,270,577,5232
1644157827.794858,-0.009277,0.009888,-0.990967,0.312458,0.417099,-0.130992,48,279,573,5200
1644157827.843256,-0.009583,0.005371,-0.993591,0.342992,0.401832,-0.069924,48,279,573,5248
1644157827.891684,-0.010864,0.01001,-0.993469,0.266656,0.493435,-0.024122,60,269,573,5248
1644157827.940067,-0.010864,0.009277,-0.99115,0.342992,0.279695,-0.207328,53,271,576,5184
1644157827.988453,-0.012329,0.009155,-0.991943,0.251389,0.447634,-0.039389,55,274,569,5344
1644157828.036837,-0.010559,0.010681,-0.992432,0.205588,0.371298,-0.008855,46,288,571,5232
1644157828.085686,-0.008484,0.009949,-0.990723,0.190321,0.432366,-0.039389,53,274,583,5232
1644157828.133648,-0.010437,0.009399,-0.991028,0.35826,0.478168,-0.069924,41,271,571,5168
1644157828.181982,-0.010315,0.01001,-0.992371,0.220855,0.401832,-0.283664,51,276,564,5248
1644157828.230355,-0.010437,0.008667,-0.993958,0.129252,0.279695,-0.100458,47,275,582,5248
1644157828.278754,-0.012939,0.008362,-0.990845,0.35826,0.417099,-0.14626,47,280,572,5248
1644157828.327142,-0.008789,0.009399,-0.992004,0.236122,0.508702,-0.130992,57,285,575,5200
1644157828.375497,-0.009094,0.00885,-0.991821,0.236122,0.386565,-0.008855,47,273,577,5280
1644157828.423918,-0.007507,0.009705,-0.992126,0.236122,0.325496,-0.161527,60,283,583,5248
1644157828.472323,-0.010864,0.006836,-0.993225,0.281924,0.24916,-0.069924,61,265,582,5200
1644157828.520909,-0.009399,0.010376,-0.98822,0.052916,0.340763,-0.069924,55,262,573,5232
1644157828.571553,-0.012512,0.009705,-0.990173,0.373527,0.279695,-0.024122,47,275,575,5200
1644157828.621604,-0.009583,0.007507,-0.993347,0.312458,0.447634,-0.130992,47,275,575,5184
1644157828.666896,-0.010986,0.010559,-0.991028,0.08345,0.356031,-0.268397,43,274,569,5200
1644157828.762651,-0.008972,0.008728,-0.99176,0.08345,0.600305,-0.115725,59,268,570,5200
1644157828.81102,-0.00946,0.012085,-0.989868,0.159786,0.462901,-0.25313,45,273,568,5280
1644157828.85942,-0.009583,0.007446,-0.991028,0.08345,0.386565,-0.268397,58,266,578,5248
1644157828.907835,-0.01178,0.009277,-0.993591,0.251389,0.340763,-0.14626,45,265,577,5200
1644157828.956237,-0.010254,0.010132,-0.993652,0.190321,0.493435,-0.192061,45,263,577,5248
1644157829.00478,-0.012512,0.010864,-0.993164,0.281924,0.447634,-0.207328,39,271,573,5232
1644157829.062763,-0.009033,0.010498,-0.991394,0.205588,0.340763,-0.130992,55,274,578,5200
1644157829.101336,-0.010132,0.009399,-0.993652,0.373527,0.310229,-0.008855,46,276,573,5168
1644157829.149786,-0.011353,0.01355,-0.991699,0.297191,0.401832,-0.161527,51,269,571,5184
1644157829.198173,-0.011719,0.009583,-0.991638,0.373527,0.432366,0.021679,47,275,572,5280
1644157829.246557,-0.010437,0.006653,-0.992798,0.220855,0.447634,-0.039389,58,266,578,5280
1644157829.295084,-0.012878,0.010376,-0.993347,0.190321,0.356031,-0.024122,65,271,576,5248
1644157829.343355,-0.010925,0.010254,-0.992615,0.175053,0.493435,-0.176794,59,280,582,5232
1644157829.391726,-0.010254,0.009338,-0.990906,0.373527,0.371298,-0.283664,58,269,585,5200
1644157829.440116,-0.007202,0.011169,-0.991394,0.144519,0.325496,0.006412,53,266,571,5232
1644157829.488506,-0.012695,0.009216,-0.993774,0.327725,0.325496,-0.069924,53,279,571,5248
1644157829.536889,-0.013,0.010803,-0.991943,0.281924,0.508702,-0.14626,54,260,570,5296
1644157829.585278,-0.012634,0.009338,-0.992432,0.08345,0.462901,-0.115725,53,274,578,5200
1644157829.633673,-0.010803,0.008606,-0.98999,0.342992,0.356031,0.006412,43,264,569,5200
1644157829.683826,-0.009827,0.008789,-0.989441,0.266656,0.371298,-0.192061,43,286,571,5248
1644157829.73384,-0.010681,0.00885,-0.990662,0.236122,0.356031,-0.085191,51,274,585,5232
1644157829.784278,-0.009949,0.008972,-0.992859,0.251389,0.462901,-0.25313,58,269,573,5248
1644157829.828882,-0.009094,0.009094,-0.992554,0.144519,0.356031,-0.207328,53,271,573,5248
1644157829.924011,-0.009888,0.009583,-0.990906,0.236122,0.325496,-0.069924,48,271,569,5280
1644157829.972436,-0.01001,0.008362,-0.991821,0.236122,0.447634,-0.100458,52,270,575,5248
1644157830.020762,-0.013123,0.009155,-0.996094,0.404061,0.447634,-0.024122,40,268,570,5200
1644157830.069238,-0.011658,0.007385,-0.989929,0.205588,0.432366,-0.115725,52,280,582,5232
1644157830.117506,-0.009094,0.007385,-0.994751,0.190321,0.478168,-0.161527,47,260,568,5280
1644157830.165911,-0.010498,0.010559,-0.992493,0.159786,0.371298,0.021679,51,279,580,5200
1644157830.214295,-0.012695,0.01001,-0.991943,0.327725,0.585038,-0.14626,48,264,580,5232
1644157830.262678,-0.010498,0.010559,-0.993652,0.190321,0.432366,-0.115725,43,271,576,5296
1644157830.311078,-0.009521,0.008545,-0.994629,0.236122,0.401832,-0.115725,41,264,569,5200
1644157830.359474,-0.011169,0.010498,-0.98938,0.113985,0.539237,0.036947,51,271,571,5280
1644157830.407847,-0.011536,0.009766,-0.990356,0.098718,0.401832,-0.237863,52,275,577,5280
1644157830.456241,-0.008728,0.00824,-0.992554,0.251389,0.462901,-0.130992,43,281,576,5200
1644157830.504705,-0.012756,0.008972,-0.994019,0.08345,0.447634,-0.024122,55,271,571,5168
1644157830.553016,-0.009155,0.009888,-0.991455,0.236122,0.447634,0.021679,51,262,573,5248
1644157830.601398,-0.01178,0.007629,-0.993469,0.388794,0.508702,-0.207328,54,270,579,5232
1644157830.649767,-0.010681,0.007751,-0.993469,0.129252,0.386565,-0.115725,48,264,578,5232
1644157830.698177,-0.011169,0.009705,-0.991028,0.251389,0.493435,-0.14626,57,275,579,5248
1644157830.746876,-0.009827,0.013733,-0.991333,0.281924,0.523969,-0.14626,53,271,573,5136
1644157830.796914,-0.007446,0.009766,-0.98999,0.327725,0.493435,-0.008855,51,266,564,5200
1644157830.847202,-0.010132,0.009399,-0.994263,0.327725,0.447634,-0.222595,57,277,575,5184
1644157830.89746,-0.008728,0.010315,-0.990723,0.220855,0.447634,-0.024122,49,268,570,5184
1644157830.988582,-0.013672,0.008362,-0.992249,0.312458,0.356031,-0.130992,45,273,565,5200
1644157831.036925,-0.010681,0.008972,-0.992004,0.098718,0.325496,-0.100458,53,276,562,5184
1644157831.085507,-0.010864,0.008179,-0.989807,0.144519,0.417099,0.006412,48,280,575,5200
1644157831.133676,-0.010986,0.009644,-0.992126,0.159786,0.554504,-0.024122,57,273,584,5200
1644157831.182082,-0.011108,0.009644,-0.989441,0.190321,0.264427,0.021679,51,276,578,5168
1644157831.230458,-0.009216,0.009827,-0.991211,0.190321,0.310229,-0.069924,47,270,570,5248
1644157831.27885,-0.010925,0.01001,-0.993958,0.404061,0.462901,-0.130992,46,279,566,5232
1644157831.327229,-0.010315,0.010986,-0.991516,0.312458,0.401832,-0.14626,49,270,570,5248
1644157831.375627,-0.01239,0.01123,-0.992188,0.190321,0.294962,-0.039389,48,269,583,5248
1644157831.424077,-0.011597,0.011475,-0.989014,0.251389,0.325496,-0.176794,51,269,571,5200
1644157831.472421,-0.013306,0.007141,-0.990295,0.342992,0.310229,0.006412,43,269,573,5296
1644157831.520775,-0.009094,0.007141,-0.990356,0.205588,0.447634,-0.25313,54,270,572,5248
1644157831.569174,-0.008301,0.012085,-0.993103,0.190321,0.478168,-0.008855,58,269,564,5296
1644157831.617569,-0.009155,0.011047,-0.99176,0.297191,0.386565,-0.008855,55,271,587,5200
1644157831.665949,-0.013367,0.008972,-0.988647,0.434595,0.508702,-0.054656,46,281,569,5184
1644157831.71434,-0.009827,0.007568,-0.990295,0.297191,0.417099,-0.207328,55,274,576,5280
1644157831.762745,-0.010376,0.010498,-0.991272,0.419328,0.386565,-0.207328,53,279,580,5136
1644157831.811152,-0.010254,0.010681,-0.989075,0.35826,0.539237,-0.130992,47,275,570,5248
1644157831.861231,-0.009399,0.011475,-0.988953,0.175053,0.371298,-0.161527,48,266,576,5200
1644157831.911401,-0.012146,0.009033,-0.993408,0.175053,0.371298,-0.14626,53,279,566,5200
1644157831.961736,-0.010559,0.009277,-0.991394,0.35826,0.417099,-0.14626,42,277,575,5232
1644157832.062688,-0.011108,0.008423,-0.991455,0.266656,0.523969,0.006412,58,279,576,5248
1644157832.10148,-0.008911,0.005249,-0.989563,0.35826,0.539237,-0.161527,46,283,571,5200
1644157832.14983,-0.010498,0.009216,-0.992676,0.236122,0.447634,0.067481,48,276,573,5200
1644157832.198228,-0.010437,0.008606,-0.993774,0.297191,0.310229,-0.100458,46,264,578,5200
1644157832.246578,-0.010986,0.007202,-0.994629,0.175053,0.386565,-0.039389,47,280,579,5296
1644157832.295118,-0.011169,0.006897,-0.991028,0.220855,0.478168,-0.161527,52,270,579,5280
1644157832.343397,-0.009827,0.010437,-0.994507,0.236122,0.325496,-0.100458,48,274,585,5232
1644157832.391787,-0.010132,0.008728,-0.991943,0.129252,0.462901,-0.024122,43,279,573,5248
1644157832.440165,-0.013367,0.010376,-0.994324,0.220855,0.478168,-0.222595,53,269,576,5280
1644157832.488553,-0.010864,0.010742,-0.993652,0.373527,0.493435,-0.008855,57,280,577,5168
1644157832.536935,-0.010071,0.010193,-0.991699,0.144519,0.401832,-0.115725,46,276,571,5200
1644157832.58533,-0.015015,0.009155,-0.996094,0.205588,0.340763,-0.176794,53,266,580,5248
1644157832.633713,-0.012024,0.006714,-0.992615,0.190321,0.462901,-0.100458,47,273,575,5248
1644157832.682173,-0.010986,0.006287,-0.993469,0.159786,0.447634,-0.161527,46,269,576,5200
1644157832.730873,-0.010864,0.009827,-0.991211,0.205588,0.371298,-0.161527,48,271,578,5200
1644157832.781209,-0.010986,0.010193,-0.991638,0.052916,0.233893,-0.207328,55,271,573,5200
1644157832.832594,-0.009094,0.010132,-0.994873,0.129252,0.386565,-0.100458,40,273,582,5168
1644157832.876996,-0.006836,0.010864,-0.992004,0.068183,0.447634,-0.130992,54,285,575,5232
1644157832.972489,-0.011047,0.010315,-0.991882,0.251389,0.401832,-0.069924,52,270,570,5232
1644157833.020851,-0.00885,0.013794,-0.99353,0.220855,0.401832,-0.100458,52,260,575,5120
1644157833.069347,-0.011353,0.013367,-0.989319,0.251389,0.462901,-0.069924,51,271,578,5184
1644157833.117646,-0.008667,0.007202,-0.989563,0.373527,0.417099,-0.222595,49,268,570,5232
1644157833.16599,-0.009216,0.01123,-0.989624,0.190321,0.340763,-0.069924,51,276,573,5232
1644157833.214392,-0.010132,0.010925,-0.993286,0.220855,0.432366,-0.14626,49,270,572,5200
1644157833.262759,-0.009888,0.009888,-0.99292,0.251389,0.508702,-0.237863,48,271,578,5280
1644157833.311162,-0.011108,0.010376,-0.99176,0.190321,0.432366,-0.130992,51,281,569,5184
1644157833.35956,-0.012329,0.009338,-0.988708,0.251389,0.493435,-0.207328,51,274,576,5232
1644157833.407914,-0.011963,0.009277,-0.990601,0.327725,0.523969,-0.054656,48,271,571,5232
1644157833.45632,-0.010071,0.007202,-0.991272,0.175053,0.432366,-0.100458,61,275,568,5232
1644157833.504728,-0.009827,0.00885,-0.989929,0.281924,0.462901,-0.054656,53,276,578,5280
1644157833.553121,-0.010498,0.010193,-0.993042,0.113985,0.569771,-0.100458,47,273,575,5200
1644157833.601486,-0.012756,0.009338,-0.993286,0.129252,0.356031,-0.161527,43,276,576,5200
1644157833.649882,-0.00824,0.010193,-0.99292,0.281924,0.401832,-0.207328,42,280,563,5200
1644157833.698269,-0.011169,0.009094,-0.993225,0.236122,0.310229,-0.115725,53,274,580,5200
1644157833.746662,-0.009827,0.009338,-0.989502,0.35826,0.386565,-0.14626,54,265,584,5248
1644157833.795086,-0.010681,0.010742,-0.99115,0.159786,0.508702,-0.024122,55,276,566,5200
1644157833.843732,-0.011597,0.011047,-0.990417,0.297191,0.447634,-0.054656,54,255,575,5200
1644157833.892829,-0.009155,0.011169,-0.991638,0.297191,0.478168,-0.008855,57,268,563,5280
1644157833.943369,-0.009338,0.008484,-0.990356,0.281924,0.294962,-0.085191,52,268,575,5248
1644157833.993726,-0.009705,0.008057,-0.992493,0.144519,0.417099,-0.008855,57,273,568,5184
1644157834.088561,-0.012939,0.007141,-0.99176,0.220855,0.386565,-0.25313,55,269,585,5248
1644157834.133815,-0.008972,0.00885,-0.992615,0.281924,0.447634,-0.085191,54,280,579,5248
1644157834.182376,-0.010437,0.009705,-0.992432,0.281924,0.386565,-0.100458,67,274,566,5200
1644157834.230527,-0.009094,0.008484,-0.990356,0.297191,0.340763,-0.161527,58,276,569,5248
1644157834.278904,-0.011047,0.008423,-0.993774,0.373527,0.462901,-0.039389,43,286,573,5296
1644157834.327311,-0.009277,0.009827,-0.992798,0.113985,0.294962,-0.069924,48,269,576,5296
1644157834.375715,-0.012512,0.010132,-0.991211,0.007115,0.432366,0.036947,55,281,578,5248
1644157834.424094,-0.009888,0.010376,-0.990723,0.281924,0.432366,0.021679,49,273,575,5248
1644157834.472463,-0.009888,0.006836,-0.990173,0.251389,0.432366,-0.222595,42,263,582,5184
1644157834.520875,-0.011353,0.011536,-0.989075,0.205588,0.432366,-0.069924,47,265,572,5232
1644157834.569268,-0.014587,0.01001,-0.993408,0.236122,0.493435,-0.130992,51,264,573,5248
1644157834.617653,-0.010559,0.008972,-0.995483,0.175053,0.356031,-0.085191,45,277,572,5280
1644157834.666046,-0.010254,0.01123,-0.989563,0.266656,0.493435,-0.024122,45,273,572,5200
1644157834.71443,-0.013062,0.008423,-0.992737,0.205588,0.447634,-0.283664,43,271,585,5248
1644157834.76283,-0.010986,0.008362,-0.992065,0.236122,0.432366,-0.054656,46,281,578,5248
1644157834.811202,-0.009888,0.011169,-0.991089,0.205588,0.539237,-0.222595,49,270,577,5200
1644157834.859632,-0.011475,0.008972,-0.991882,0.327725,0.493435,-0.176794,62,281,576,5232
1644157834.909161,-0.011292,0.008911,-0.993835,0.342992,0.325496,-0.039389,51,281,585,5248
1644157834.95926,-0.009888,0.012634,-0.990295,0.342992,0.523969,-0.283664,41,271,580,5232
1644157835.06246,-0.013,0.006165,-0.980469,0.098718,0.340763,-0.176794,51,269,576,5200
1644157835.101553,-0.01123,0.013977,-0.992065,0.022382,0.478168,-0.115725,49,273,570,5296
1644157835.149946,-0.010742,0.013855,-0.991272,0.144519,0.478168,-0.192061,52,273,570,5232
1644157835.198365,-0.012329,0.009338,-0.992981,0.251389,0.508702,-0.14626,49,273,577,5248
1644157835.246718,-0.011841,0.008179,-0.992188,0.251389,0.340763,0.006412,58,271,585,5184
1644157835.295256,-0.010193,0.009644,-0.992981,0.037649,0.447634,-0.298931,48,271,569,5200
1644157835.343536,-0.010376,0.012024,-0.990967,0.220855,0.447634,-0.115725,46,259,578,5232
1644157835.39196,-0.008728,0.009033,-0.993408,0.251389,0.554504,-0.176794,47,270,582,5232
1644157835.440289,-0.011902,0.010742,-0.991272,0.113985,0.462901,-0.100458,47,280,572,5232
1644157835.488682,-0.007446,0.007812,-0.991028,0.251389,0.508702,-0.115725,57,275,584,5200
1644157835.537079,-0.01123,0.012207,-0.990356,0.312458,0.401832,-0.069924,47,280,579,5232
1644157835.585469,-0.011536,0.012634,-0.989929,0.159786,0.401832,-0.008855,58,269,576,5184
1644157835.633857,-0.006104,0.010071,-0.989929,0.266656,0.539237,-0.115725,57,275,570,5232
1644157835.682274,-0.013,0.010742,-0.990295,0.388794,0.386565,-0.176794,52,265,570,5248
1644157835.731562,-0.010315,0.008301,-0.991577,0.236122,0.585038,-0.176794,57,282,572,5232
1644157835.782184,-0.010193,0.007446,-0.990234,0.190321,0.462901,-0.024122,52,270,563,5280
1644157835.832046,-0.010925,0.009949,-0.991455,0.098718,0.493435,-0.207328,47,268,575,5312
1644157835.876665,-0.008667,0.01062,-0.991821,0.220855,0.432366,-0.069924,53,269,576,5232
1644157835.972562,-0.00946,0.009399,-0.992004,0.297191,0.493435,-0.085191,53,271,576,5200
1644157836.020941,-0.011292,0.009277,-0.991638,0.342992,0.493435,-0.161527,51,276,580,5248
1644157836.06942,-0.009155,0.011963,-0.992554,0.159786,0.401832,-0.100458,48,274,573,5248
1644157836.117742,-0.010925,0.008301,-0.992004,0.098718,0.432366,0.006412,54,275,575,5200
1644157836.166128,-0.010193,0.00824,-0.992798,0.113985,0.508702,0.036947,42,273,570,5232
1644157836.214524,-0.011353,0.01001,-0.990906,0.281924,0.432366,-0.176794,49,273,577,5280
1644157836.262899,-0.00885,0.009155,-0.991272,0.251389,0.386565,-0.054656,58,279,578,5248
1644157836.311306,-0.011169,0.00647,-0.991821,0.327725,0.523969,-0.207328,41,276,578,5296
1644157836.359672,-0.012878,0.00769,-0.992432,0.190321,0.462901,-0.100458,49,273,568,5296
1644157836.40807,-0.008606,0.010498,-0.991821,0.251389,0.462901,-0.100458,52,268,572,5280
1644157836.456459,-0.009094,0.009583,-0.991028,0.08345,0.493435,-0.008855,54,275,572,5232
1644157836.504886,-0.009033,0.012695,-0.99292,0.312458,0.539237,-0.054656,47,273,582,5184
1644157836.553247,-0.009949,0.007874,-0.990906,0.35826,0.386565,-0.207328,46,274,576,5168
1644157836.601629,-0.009216,0.00885,-0.992065,0.251389,0.462901,-0.008855,46,264,578,5232
1644157836.650001,-0.010681,0.010193,-0.988892,0.190321,0.401832,-0.085191,54,277,579,5232
1644157836.698397,-0.012756,0.009155,-0.989136,0.251389,0.432366,-0.192061,54,280,579,5200
1644157836.74679,-0.010742,0.009583,-0.992432,0.08345,0.325496,-0.054656,53,274,578,5248
1644157836.795557,-0.009399,0.010376,-0.992249,0.205588,0.569771,-0.192061,39,274,576,5296
1644157836.843884,-0.01001,0.006897,-0.989197,0.144519,0.569771,-0.054656,51,281,573,5248
1644157836.894148,-0.008362,0.00946,-0.990234,0.220855,0.386565,-0.115725,49,273,577,5200
1644157836.944375,-0.011536,0.009827,-0.991638,0.266656,0.646107,-0.14626,42,270,584,5232
1644157836.989091,-0.009399,0.010864,-0.991821,0.236122,0.447634,-0.222595,60,269,569,5248
1644157837.087169,-0.013855,0.01001,-0.994324,0.175053,0.386565,0.006412,59,273,575,5232
1644157837.133866,-0.01355,0.009216,-0.992676,0.129252,0.417099,-0.100458,54,273,568,5200
1644157837.1824,-0.010559,0.010376,-0.992065,0.068183,0.401832,-0.115725,51,266,576,5232
1644157837.230634,-0.008362,0.010986,-0.9953,0.144519,0.432366,0.067481,43,264,573,5184
1644157837.279031,-0.015442,0.009705,-0.991821,0.312458,0.356031,-0.054656,46,281,564,5200
1644157837.327403,-0.010254,0.007751,-0.993408,0.35826,0.447634,-0.161527,47,268,572,5200
1644157837.375792,-0.011902,0.009766,-0.992188,0.281924,0.356031,-0.283664,51,271,578,5280
1644157837.4242,-0.01355,0.010742,-0.991333,0.205588,0.447634,-0.161527,45,270,572,5200
1644157837.472594,-0.012939,0.008545,-0.993835,0.373527,0.447634,-0.207328,51,274,573,5200
1644157837.520975,-0.009399,0.005554,-0.989319,0.190321,0.310229,-0.085191,51,271,587,5232
1644157837.569351,-0.004456,-0.002075,-1.015015,0.312458,0.554504,-0.039389,41,271,576,5232
1644157837.617741,-0.009583,0.009521,-0.997253,0.007115,0.508702,-0.054656,48,269,573,5232
1644157837.666146,-0.010132,0.018982,-0.990356,0.129252,0.401832,-0.130992,58,274,566,5280
1644157837.714536,-0.009155,0.014954,-0.988953,0.266656,0.432366,-0.207328,54,265,586,5200
1644157837.762926,-0.011658,0.005981,-0.991211,0.342992,0.371298,-0.161527,53,279,573,5200
1644157837.811342,-0.011536,0.007507,-0.99176,0.052916,0.340763,-0.085191,49,280,568,5200
1644157837.859714,-0.010437,0.010437,-0.990662,0.144519,0.447634,-0.069924,54,270,579,5200
1644157837.908129,-0.009705,0.007874,-0.993164,0.175053,0.310229,0.006412,54,265,584,5168
1644157837.956963,-0.010559,0.009583,-0.991333,0.175053,0.386565,-0.085191,46,266,564,5280
1644157838.062536,-0.008667,0.009827,-0.990784,0.190321,0.478168,-0.085191,55,281,585,5200
1644157838.101664,-0.011414,0.010315,-0.99115,0.236122,0.508702,-0.039389,48,274,578,5184
1644157838.149997,-0.010681,0.005188,-0.991333,0.236122,0.447634,-0.100458,53,266,573,5296
1644157838.198402,0.001343,0.012939,-0.993225,0.175053,0.279695,-0.298931,49,265,575,5184
1644157838.246763,-0.01239,0.010071,-0.987244,0.434595,0.569771,-0.069924,48,276,569,5232
1644157838.295244,-0.008179,0.006042,-0.990356,0.159786,0.325496,-0.283664,49,273,572,5184
1644157838.343565,-0.002197,0.010071,-0.989075,0.266656,0.401832,-0.268397,51,279,571,5200
1644157838.391963,-0.015259,0.009583,-0.984985,0.388794,0.585038,-0.008855,52,280,572,5248
1644157838.440346,-0.00885,0.00824,-0.994385,0.144519,0.310229,-0.115725,48,274,573,5200
1644157838.488735,-0.001587,0.017395,-0.989319,0.266656,0.447634,-0.161527,49,270,577,5200
1644157838.537129,-0.017761,0.01593,-0.989136,0.480397,0.585038,0.143817,49,273,568,5232
1644157838.585522,-0.006958,0.005127,-0.994385,0.113985,0.386565,-0.115725,49,263,572,5200
1644157838.633905,-0.01123,0.008179,-0.991638,0.098718,0.417099,-0.192061,52,268,572,5248
1644157838.682539,-0.013611,0.003967,-0.994446,0.144519,0.508702,-0.039389,43,276,573,5248
1644157838.730953,-0.002991,-0.00293,-0.999084,0.434595,0.417099,-0.25313,60,281,573,5184
1644157838.781443,-0.016357,0.013855,-0.989563,0.251389,0.233893,-0.283664,58,269,569,5280
1644157838.83281,-0.009155,0.011353,-0.992859,0.236122,0.432366,0.12855,45,277,575,5280
1644157838.877499,-0.009766,0.010254,-0.992737,0.190321,0.356031,-0.14626,60,279,573,5232
1644157838.97268,-0.007935,0.010315,-0.992981,0.281924,0.386565,0.006412,52,268,568,5296
1644157839.021061,-0.015259,0.01123,-0.991394,0.266656,0.462901,-0.130992,48,269,583,5248
1644157839.069509,-0.01001,0.014343,-0.990112,0.159786,0.310229,-0.054656,54,265,572,5232
1644157839.117826,-0.009033,0.007141,-0.99231,0.281924,0.340763,-0.207328,53,281,578,5248
1644157839.166177,-0.01062,0.010742,-0.989502,0.159786,0.356031,-0.222595,51,286,564,5184
1644157839.214598,-0.008362,0.00946,-0.991699,0.236122,0.432366,-0.161527,49,270,575,5200
1644157839.262938,-0.010071,0.009338,-0.993042,0.129252,0.493435,-0.130992,51,271,571,5200
1644157839.311332,-0.012939,0.008545,-0.991577,0.205588,0.417099,-0.069924,47,273,572,5200
1644157839.359745,-0.009583,0.007202,-0.991577,0.327725,0.478168,-0.176794,46,274,576,5232
1644157839.408125,-0.011597,0.009644,-0.993652,0.251389,0.417099,-0.115725,47,280,575,5184
1644157839.456511,-0.012024,0.009399,-0.994019,0.297191,0.432366,-0.008855,52,282,568,5296
1644157839.504937,-0.011414,0.008911,-0.993164,0.251389,0.432366,-0.161527,52,268,575,5248
1644157839.553303,-0.008545,0.009094,-0.991577,0.08345,0.356031,-0.054656,51,274,576,5280
1644157839.601677,-0.011597,0.01123,-0.994507,0.266656,0.432366,-0.222595,47,280,570,5200
1644157839.650066,-0.009216,0.008179,-0.992004,0.251389,0.432366,-0.085191,49,265,584,5232
1644157839.698456,-0.009583,0.011475,-0.990784,0.175053,0.447634,-0.161527,54,275,570,5232
1644157839.746815,-0.011108,0.009216,-0.988525,0.251389,0.417099,-0.192061,41,286,569,5248
1644157839.795219,-0.012024,0.010925,-0.991516,0.342992,0.294962,-0.115725,52,265,577,5280
1644157839.843674,-0.012756,0.008545,-0.989929,0.297191,0.233893,-0.069924,48,264,578,5200
1644157839.893745,-0.013794,0.009949,-0.993286,0.388794,0.401832,-0.161527,47,275,563,5248
1644157839.943935,-0.011841,0.008301,-0.993042,0.190321,0.340763,-0.115725,57,290,570,5248
1644157839.993967,-0.008911,0.007507,-0.990662,0.312458,0.462901,-0.25313,51,276,576,5232
1644157840.038801,-0.010925,0.010986,-0.993103,0.297191,0.401832,-0.100458,58,271,569,5200
1644157840.134014,-0.01123,0.010681,-0.991272,0.220855,0.478168,-0.085191,46,269,571,5280
1644157840.182395,-0.009644,0.008301,-0.993347,0.08345,0.279695,-0.329466,67,269,566,5280
1644157840.230724,-0.012939,0.008118,-0.995728,0.159786,0.508702,-0.008855,48,283,573,5200
1644157840.279096,-0.009827,0.011292,-0.992615,0.297191,0.447634,-0.192061,51,271,571,5280
1644157840.327504,-0.008545,0.009827,-0.991821,0.342992,0.401832,-0.314198,42,270,577,5280
1644157840.375887,-0.008667,0.009094,-0.996155,0.419328,0.371298,-0.085191,40,273,570,5280
1644157840.424286,-0.011658,0.00885,-0.993042,0.220855,0.371298,-0.130992,39,276,573,5248
1644157840.47269,-0.012573,0.010559,-0.994629,0.312458,0.493435,-0.192061,57,277,577,5200
1644157840.521062,-0.01416,0.007935,-0.992249,0.312458,0.340763,-0.14626,48,271,573,5232
1644157840.569456,-0.010132,0.01001,-0.993652,0.190321,0.310229,-0.130992,57,275,572,5200
1644157840.617838,-0.00824,0.006836,-0.992554,0.205588,0.478168,-0.176794,42,268,570,5120
1644157840.666225,-0.010803,0.009155,-0.992676,0.220855,0.417099,-0.039389,52,282,572,5232
1644157840.714694,-0.010864,0.008606,-0.989624,0.236122,0.401832,-0.130992,55,276,564,5120
1644157840.763005,-0.011475,0.01239,-0.993103,0.236122,0.478168,-0.25313,51,283,578,5200
1644157840.811385,-0.010986,0.010559,-0.989197,0.129252,0.462901,-0.085191,48,283,571,5200
1644157840.859819,-0.011108,0.008972,-0.992065,0.190321,0.371298,-0.085191,47,270,577,5280
1644157840.908204,-0.011963,0.010864,-0.991821,0.236122,0.554504,-0.130992,51,276,578,5296
1644157840.956768,-0.010254,0.010925,-0.992615,0.236122,0.371298,-0.207328,43,269,578,5248
1644157841.061786,-0.013367,0.00824,-0.994446,0.08345,0.661374,-0.176794,59,265,582,5200
1644157841.10179,-0.010559,0.010193,-0.992188,0.129252,0.554504,-0.069924,59,280,577,5296
1644157841.150137,-0.010742,0.011475,-0.992065,0.297191,0.447634,-0.176794,49,275,582,5280
1644157841.19849,-0.010559,0.009827,-0.98938,0.220855,0.523969,-0.085191,45,273,579,5200
1644157841.246869,-0.011353,0.007629,-0.990479,0.144519,0.523969,-0.100458,52,270,579,5200
1644157841.295272,-0.010986,0.010864,-0.992065,0.35826,0.401832,-0.039389,40,275,572,5248
1644157841.343688,-0.010864,0.010193,-0.989075,0.281924,0.600305,-0.100458,54,275,568,5200
1644157841.392057,-0.01001,0.00769,-0.99353,0.159786,0.356031,-0.115725,45,270,582,5280
1644157841.440454,-0.011353,0.010315,-0.99231,0.251389,0.417099,-0.024122,40,270,572,5232
1644157841.488833,-0.008301,0.009583,-0.990845,0.297191,0.447634,-0.14626,52,260,582,5232
1644157841.537222,-0.009277,0.010132,-0.992554,0.236122,0.478168,-0.008855,53,271,576,5296
1644157841.585603,-0.012634,0.010559,-0.99292,0.113985,0.401832,-0.085191,48,281,578,5248
1644157841.633995,-0.011292,0.009766,-0.992737,0.08345,0.417099,-0.008855,47,280,584,5248
1644157841.682512,-0.010315,0.009521,-0.991638,0.022382,0.417099,-0.192061,48,269,576,5248
1644157841.730782,-0.006531,0.008728,-0.991211,0.129252,0.539237,-0.085191,61,270,575,5248
1644157841.78043,-0.011536,0.011047,-0.991211,0.297191,0.401832,-0.039389,55,286,578,5184
1644157841.831077,-0.010803,0.008972,-0.991699,0.404061,0.356031,-0.039389,49,277,570,5296
1644157841.881673,-0.010071,0.009277,-0.993164,0.175053,0.310229,-0.176794,53,274,566,5280
1644157841.972816,-0.013672,0.008728,-0.993774,0.129252,0.462901,-0.130992,49,270,565,5280
1644157842.021142,-0.010803,0.009949,-0.99292,0.251389,0.264427,-0.130992,47,265,565,5232
1644157842.069625,-0.010498,0.008911,-0.993469,0.129252,0.462901,0.006412,52,275,584,5280
1644157842.117868,-0.011292,0.010132,-0.991638,0.373527,0.493435,-0.115725,52,275,579,5248
1644157842.166242,-0.011047,0.008911,-0.99054,0.327725,0.462901,-0.14626,52,277,575,5200
1644157842.214657,-0.01001,0.012146,-0.993408,0.236122,0.386565,-0.039389,51,264,573,5184
1644157842.263034,-0.012207,0.008972,-0.992004,0.190321,0.462901,-0.14626,51,274,571,5232
1644157842.311418,-0.009399,0.010437,-0.992126,0.205588,0.417099,-0.085191,49,275,579,5248
1644157842.359831,-0.010559,0.008362,-0.99292,0.236122,0.554504,-0.024122,46,283,573,5280
1644157842.408215,-0.008484,0.00885,-0.99231,0.220855,0.401832,-0.130992,43,279,578,5200
1644157842.456606,-0.011475,0.011597,-0.991089,0.281924,0.508702,-0.237863,53,274,583,5248
1644157842.505131,-0.009949,0.007263,-0.994141,0.220855,0.447634,-0.008855,46,274,576,5168
1644157842.553411,-0.009338,0.010864,-0.992188,0.404061,0.417099,-0.069924,53,274,571,5248
1644157842.601781,-0.012634,0.007751,-0.991699,0.068183,0.401832,-0.25313,39,271,569,5248
1644157842.650162,-0.011108,0.010254,-0.991333,0.266656,0.386565,-0.161527,48,276,573,5200
1644157842.698534,-0.00885,0.006958,-0.991394,0.113985,0.264427,-0.069924,40,270,577,5200
1644157842.746946,-0.011902,0.009521,-0.990723,0.175053,0.310229,-0.039389,65,271,578,5280
1644157842.795683,-0.011597,0.010132,-0.990417,0.08345,0.294962,-0.069924,48,264,578,5184
1644157842.843792,-0.008911,0.008057,-0.990906,0.281924,0.554504,-0.069924,54,265,572,5248
1644157842.89373,-0.008362,0.009216,-0.990784,0.236122,0.493435,-0.085191,58,274,583,5232
1644157842.943738,-0.011536,0.009033,-0.990234,0.297191,0.493435,0.067481,54,273,582,5200
1644157842.994112,-0.011047,0.009216,-0.993652,0.266656,0.356031,-0.039389,49,275,582,5200
1644157843.038697,-0.011108,0.009888,-0.992493,0.113985,0.462901,-0.14626,53,274,566,5184
1644157843.134038,-0.009216,0.01001,-0.993164,0.266656,0.447634,-0.115725,47,275,575,5280
1644157843.182441,-0.011047,0.00824,-0.991577,0.281924,0.447634,0.021679,48,271,569,5248
1644157843.230816,-0.010925,0.008911,-0.991577,0.205588,0.401832,-0.192061,46,276,571,5184
1644157843.279186,-0.011475,0.008606,-0.993042,0.281924,0.325496,-0.054656,48,276,576,5248
1644157843.327608,-0.010986,0.010925,-0.992859,0.144519,0.401832,-0.054656,43,274,576,5184
1644157843.375979,-0.012939,0.010925,-0.992981,0.220855,0.493435,-0.130992,55,266,571,5184
1644157843.424382,-0.013489,0.007568,-0.992737,0.327725,0.325496,-0.054656,55,276,578,5248
1644157843.472792,-0.013184,0.00769,-0.993896,0.129252,0.401832,-0.14626,46,271,571,5232
1644157843.521155,-0.01178,0.010986,-0.990845,0.190321,0.386565,-0.115725,49,268,575,5184
1644157843.569559,-0.011841,0.008911,-0.994507,0.236122,0.523969,-0.130992,51,276,576,5232
1644157843.617928,-0.010254,0.00946,-0.993713,0.327725,0.371298,-0.100458,47,280,575,5200
1644157843.666315,-0.011841,0.010925,-0.992859,0.220855,0.310229,-0.039389,47,273,565,5296
1644157843.714825,-0.013794,0.008667,-0.99408,0.098718,0.264427,-0.085191,46,281,578,5184
1644157843.763088,-0.009399,0.009644,-0.992859,0.236122,0.356031,-0.176794,61,270,579,5280
1644157843.811522,-0.012756,0.009338,-0.993469,0.373527,0.569771,-0.054656,49,273,568,5248
1644157843.859914,-0.009155,0.00592,-0.990601,0.312458,0.462901,-0.14626,47,275,568,5248
1644157843.908268,-0.011963,0.011841,-0.991516,0.251389,0.340763,-0.054656,60,269,580,5184
1644157843.956696,-0.009521,0.009521,-0.991089,0.297191,0.493435,-0.130992,53,274,571,5200
1644157844.062492,-0.008911,0.010437,-0.991028,0.236122,0.417099,-0.176794,38,285,572,5248
1644157844.101859,-0.012024,0.008545,-0.988892,0.129252,0.401832,-0.039389,48,279,576,5184
1644157844.150188,-0.010925,0.007324,-0.99292,0.342992,0.356031,0.12855,55,274,569,5344
1644157844.198582,-0.013062,0.009583,-0.991028,0.236122,0.447634,0.098015,54,268,582,5232
1644157844.246958,-0.010193,0.010315,-0.994873,0.297191,0.417099,-0.115725,49,265,572,5280
1644157844.29534,-0.011719,0.007751,-0.99115,0.266656,0.508702,-0.085191,55,266,578,5312
1644157844.343745,-0.013062,0.008057,-0.991943,0.312458,0.310229,-0.161527,46,269,578,5168
1644157844.392395,-0.008972,0.011169,-0.991455,0.08345,0.493435,-0.14626,52,270,572,5184
1644157844.440533,-0.010559,0.007507,-0.991089,0.327725,0.539237,-0.176794,48,274,576,5232
1644157844.489305,-0.009033,0.008972,-0.993469,0.251389,0.478168,-0.237863,36,274,571,5248
1644157844.537315,-0.014526,0.009155,-0.991394,0.175053,0.600305,-0.100458,47,273,579,5232
1644157844.585693,-0.011169,0.010742,-0.990906,0.037649,0.539237,0.036947,51,274,576,5232
1644157844.634086,-0.012634,0.009827,-0.991333,0.312458,0.447634,-0.054656,45,268,579,5248
1644157844.682721,-0.010803,0.010071,-0.992004,0.220855,0.401832,-0.008855,61,277,572,5280
1644157844.731022,-0.01178,0.009033,-0.99353,0.342992,0.371298,-0.161527,53,274,571,5312
1644157844.780337,-0.011902,0.011414,-0.994202,0.190321,0.523969,-0.054656,52,265,577,5184
1644157844.832356,-0.01123,0.006409,-0.991272,0.144519,0.447634,-0.100458,48,266,573,5184
1644157844.881832,-0.010376,0.009827,-0.993408,0.037649,0.493435,-0.176794,49,273,584,5184
1644157844.97289,-0.009521,0.011169,-0.993042,0.327725,0.356031,-0.14626,46,269,573,5200
1644157845.021239,-0.007385,0.011108,-0.991333,0.297191,0.432366,-0.115725,48,269,571,5296
1644157845.069712,-0.010071,0.011658,-0.994324,0.220855,0.432366,0.006412,36,279,578,5280
1644157845.118006,-0.008606,0.007935,-0.992981,0.144519,0.356031,-0.14626,45,277,575,5184
1644157845.166359,-0.009216,0.009399,-0.991028,0.175053,0.462901,-0.25313,42,270,577,5232
1644157845.214761,-0.012817,0.010132,-0.994324,0.297191,0.310229,-0.192061,52,277,579,5296
1644157845.263163,-0.011719,0.012756,-0.991516,0.281924,0.340763,-0.176794,52,268,575,5248
1644157845.311528,-0.009216,0.008606,-0.992188,0.052916,0.508702,-0.268397,54,275,568,5248
1644157845.359923,-0.009583,0.009888,-0.990967,0.373527,0.493435,-0.069924,57,268,577,5248
1644157845.408308,-0.012756,0.011963,-0.989685,0.266656,0.432366,-0.207328,41,269,576,5280
1644157845.456694,-0.010437,0.010437,-0.98999,0.159786,0.508702,-0.222595,52,270,575,5248
1644157845.505207,-0.011475,0.01001,-0.993347,0.404061,0.24916,-0.069924,58,271,576,5184
1644157845.553479,-0.00708,0.008667,-0.991821,0.312458,0.325496,-0.192061,49,275,568,5200
1644157845.601827,-0.008667,0.008118,-0.991394,0.190321,0.310229,-0.237863,48,266,587,5200
1644157845.650241,-0.011108,0.0047,-0.991882,0.312458,0.478168,0.067481,45,270,575,5248
1644157845.698637,-0.01178,0.007507,-0.990723,0.281924,0.462901,-0.054656,48,279,571,5232
1644157845.747026,-0.009338,0.006592,-0.991211,0.266656,0.417099,-0.115725,51,271,580,5184
1644157845.79542,-0.012756,0.009155,-0.993408,0.175053,0.462901,-0.161527,48,271,569,5232
1644157845.843962,-0.009155,0.007935,-0.992737,0.068183,0.279695,0.036947,57,273,572,5232
1644157845.894137,-0.008423,0.008972,-0.992371,0.190321,0.585038,-0.222595,57,273,577,5184
1644157845.944344,-0.011902,0.007629,-0.991638,0.052916,0.508702,-0.222595,49,268,568,5248
1644157845.994518,-0.012085,0.009033,-0.991577,0.266656,0.356031,-0.069924,47,268,568,5200
1644157846.039178,-0.011475,0.009827,-0.992249,0.251389,0.447634,0.082748,47,270,584,5280
1644157846.134165,-0.013611,0.010864,-0.992065,0.434595,0.462901,-0.130992,49,270,572,5280
1644157846.182536,-0.008118,0.007019,-0.994263,0.113985,0.325496,-0.008855,49,273,582,5248
1644157846.230886,-0.009155,0.011353,-0.989685,0.205588,0.462901,-0.130992,53,274,580,5200
1644157846.279289,-0.01355,0.010742,-0.990479,0.251389,0.279695,-0.130992,47,277,572,5248
1644157846.32768,-0.009338,0.010132,-0.993347,0.220855,0.294962,0.036947,45,275,572,5200
1644157846.376063,-0.012268,0.009521,-0.992188,0.327725,0.539237,-0.085191,57,273,577,5248
1644157846.424473,-0.012085,0.009155,-0.99408,0.236122,0.478168,-0.024122,45,280,570,5280
1644157846.472854,-0.010864,0.010315,-0.995239,0.205588,0.310229,-0.100458,47,265,579,5200
1644157846.521249,-0.01001,0.010986,-0.991028,0.312458,0.310229,-0.100458,52,275,575,5232
1644157846.569626,-0.012329,0.008789,-0.99353,0.297191,0.371298,-0.024122,55,266,580,5200
1644157846.618006,-0.012207,0.010681,-0.988831,0.205588,0.600305,-0.069924,49,280,575,5168
1644157846.666405,-0.010681,0.005859,-0.990417,0.388794,0.493435,-0.100458,45,273,577,5232
1644157846.714792,-0.011414,0.009583,-0.995178,0.144519,0.478168,-0.161527,45,280,575,5200
1644157846.763188,-0.007446,0.01001,-0.992126,0.159786,0.386565,-0.161527,57,277,570,5296
1644157846.811577,-0.010132,0.009583,-0.992126,0.419328,0.386565,0.021679,58,274,573,5248
1644157846.860006,-0.009888,0.009827,-0.993286,0.08345,0.340763,-0.192061,43,274,566,5232
1644157846.908406,-0.01123,0.011292,-0.992249,0.312458,0.386565,-0.054656,40,268,572,5296
1644157846.958112,-0.012695,0.008728,-0.992065,0.220855,0.356031,-0.054656,43,276,578,5248
1644157847.064509,-0.009094,0.011719,-0.991211,0.098718,0.539237,-0.008855,47,273,572,5200
1644157847.101936,-0.012268,0.010742,-0.991699,0.098718,0.401832,-0.130992,48,271,585,5232
1644157847.150305,-0.010193,0.010376,-0.993896,0.205588,0.340763,-0.222595,52,273,568,5248
1644157847.198698,-0.010681,0.010315,-0.988953,0.281924,0.478168,-0.14626,53,279,578,5248
1644157847.247044,-0.012207,0.010254,-0.992004,0.327725,0.478168,-0.176794,49,268,568,5248
1644157847.295458,-0.008606,0.01001,-0.988403,0.144519,0.172824,-0.207328,46,262,576,5280
1644157847.34386,-0.009949,0.011108,-0.992493,0.327725,0.493435,-0.237863,49,277,572,5232
1644157847.392284,0.020081,0.021362,-0.992249,0.068183,0.386565,-0.024122,51,269,576,5200
1644157847.44063,-0.0,0.047363,-0.98114,0.739939,0.95145,-0.222595,59,273,579,5280
1644157847.489316,0.00177,0.00592,-0.987915,-0.053954,0.523969,-0.314198,42,270,577,5232
1644157847.537393,-0.006348,0.022217,-0.986267,0.404061,0.508702,0.021679,54,275,577,5280
1644157847.585788,-0.012085,0.007385,-0.991821,0.236122,0.585038,-0.130992,48,266,578,5200
1644157847.634174,-0.01001,0.008911,-0.993164,0.007115,0.493435,-0.283664,57,280,575,5200
1644157847.682936,-0.009766,0.012512,-0.994019,0.404061,0.569771,0.006412,54,280,584,5248
1644157847.733145,-0.012512,0.006714,-0.993835,0.159786,0.417099,-0.130992,41,274,569,5232
1644157847.783953,-0.009033,0.010437,-0.991333,0.190321,0.432366,-0.085191,38,285,570,5200
1644157847.828627,-0.014343,0.009338,-0.98999,0.236122,0.432366,0.067481,46,269,571,5200
1644157847.924556,-0.011536,0.01416,-0.991028,0.113985,0.585038,-0.161527,47,270,575,5280
1644157847.972932,-0.012573,0.009583,-0.992737,0.281924,0.340763,-0.008855,49,275,575,5248
1644157848.021312,-0.012024,0.008362,-0.993469,0.266656,0.432366,-0.161527,47,277,584,5248
1644157848.069772,-0.013428,0.010376,-0.994324,0.297191,0.447634,-0.192061,45,275,582,5200
1644157848.118066,-0.008362,0.008301,-0.992249,0.266656,0.462901,-0.237863,59,273,577,5248
1644157848.166468,-0.008667,0.010254,-0.991577,0.159786,0.401832,-0.069924,51,271,564,5280
1644157848.214901,-0.009949,0.012085,-0.988953,0.327725,0.493435,-0.054656,60,281,571,5200
1644157848.263258,-0.009705,0.007324,-0.992004,0.312458,0.447634,-0.115725,54,277,570,5248
1644157848.311659,-0.009155,0.008423,-0.991882,0.113985,0.432366,-0.161527,55,283,578,5232
1644157848.360037,-0.01123,0.006104,-0.988892,0.251389,0.478168,-0.192061,46,262,576,5280
1644157848.408427,-0.01001,0.009338,-0.991455,0.251389,0.401832,-0.008855,51,274,583,5280
1644157848.456828,-0.013794,0.009216,-0.993286,0.129252,0.371298,0.021679,48,274,580,5280
1644157848.50526,-0.008972,0.009094,-0.991272,0.098718,0.371298,-0.039389,53,274,566,5280
1644157848.553582,-0.011353,0.008362,-0.993774,0.175053,0.493435,-0.085191,60,271,576,5184
1644157848.601995,-0.009033,0.007935,-0.99115,0.281924,0.356031,0.006412,53,281,578,5184
1644157848.650393,-0.008972,0.010681,-0.992615,0.327725,0.478168,-0.085191,52,273,582,5200
1644157848.699108,-0.01123,0.010132,-0.992432,0.236122,0.447634,-0.024122,49,270,575,5248
1644157848.747298,-0.010925,0.009094,-0.989868,0.373527,0.447634,0.036947,60,281,569,5248
1644157848.797579,-0.00946,0.01123,-0.993164,0.129252,0.371298,-0.054656,45,273,570,5248
1644157848.847916,-0.012329,0.009583,-0.991333,0.144519,0.478168,-0.039389,47,270,575,5200
1644157848.898171,-0.013428,0.008484,-0.992249,0.236122,0.310229,-0.161527,43,271,576,5296
1644157848.989095,-0.014526,0.008484,-0.990417,0.205588,0.478168,-0.024122,43,271,576,5200
1644157849.037459,-0.009827,0.010925,-0.991943,0.205588,0.340763,-0.222595,55,274,571,5184
1644157849.08662,-0.008911,0.00708,-0.992371,0.220855,0.401832,-0.039389,45,273,577,5232
1644157849.134224,-0.008667,0.008972,-0.990112,0.388794,0.417099,-0.069924,53,266,571,5232
1644157849.182629,-0.01178,0.01123,-0.989319,0.327725,0.539237,-0.069924,45,270,572,5168
1644157849.231004,-0.012329,0.008606,-0.992004,0.144519,0.447634,0.006412,51,274,573,5232
1644157849.279393,-0.011902,0.00592,-0.991028,0.281924,0.401832,-0.130992,47,265,568,5200
1644157849.32778,-0.013855,0.007629,-0.993225,0.434595,0.569771,-0.130992,58,274,573,5248
1644157849.376164,-0.014038,0.007874,-0.990784,0.388794,0.294962,-0.176794,49,265,570,5232
1644157849.424665,-0.011658,0.009705,-0.992737,0.175053,0.371298,0.052214,53,262,571,5248
1644157849.472972,-0.013855,0.010437,-0.99176,0.266656,0.401832,-0.176794,48,264,573,5248
1644157849.521298,-0.009216,0.009827,-0.989258,0.327725,0.462901,-0.069924,60,276,578,5232
1644157849.569726,-0.01062,0.009766,-0.992798,0.434595,0.554504,-0.176794,41,271,571,5232
1644157849.618111,-0.011292,0.00824,-0.994446,0.159786,0.585038,-0.115725,43,279,576,5200
1644157849.666497,-0.009521,0.007324,-0.991699,0.251389,0.447634,-0.207328,41,276,576,5296
1644157849.714888,-0.012085,0.01123,-0.991394,0.342992,0.523969,-0.085191,51,266,571,5200
1644157849.763279,-0.014648,0.009155,-0.993103,0.144519,0.585038,-0.069924,54,277,579,5200
1644157849.811713,-0.012207,0.006409,-0.99292,0.251389,0.569771,-0.14626,52,273,572,5200
1644157849.861193,-0.016052,0.009583,-0.990601,0.251389,0.508702,0.052214,55,281,576,5200
1644157849.910792,-0.007812,0.011169,-0.992676,0.373527,0.24916,-0.14626,49,275,579,5184
1644157849.961021,-0.009155,0.008972,-0.993835,0.190321,0.432366,-0.085191,54,280,575,5200
1644157850.060943,-0.011902,0.00592,-0.995056,0.266656,0.325496,-0.100458,54,263,579,5200
1644157850.102074,-0.011292,0.009155,-0.991943,0.327725,0.585038,-0.192061,60,274,573,5312
1644157850.150381,-0.010193,0.003296,-0.993835,0.144519,0.493435,-0.069924,53,269,573,5248
1644157850.198788,-0.009888,0.009521,-0.992371,0.297191,0.554504,0.021679,41,274,583,5168
1644157850.247142,-0.010681,0.010803,-0.992249,0.052916,0.417099,-0.130992,49,275,570,5200
1644157850.295529,-0.009583,0.011597,-0.988708,0.327725,0.356031,-0.115725,49,275,575,5248
1644157850.343954,-0.008423,0.009827,-0.990784,0.281924,0.539237,-0.192061,58,269,578,5184
1644157850.392348,-0.012146,0.010193,-0.992981,0.312458,0.356031,-0.039389,49,275,582,5232
1644157850.440715,-0.009521,0.009949,-0.990173,0.297191,0.386565,-0.069924,51,271,573,5280
1644157850.48933,-0.011597,0.007446,-0.993286,0.342992,0.417099,-0.039389,46,271,578,5184
1644157850.53749,-0.00946,0.009888,-0.990845,0.327725,0.432366,-0.207328,46,262,578,5200
1644157850.58589,-0.007385,0.011047,-0.99408,0.08345,0.432366,-0.024122,54,294,575,5296
1644157850.634259,-0.012634,0.01062,-0.992188,0.159786,0.569771,-0.268397,52,275,584,5248
1644157850.682692,-0.013306,0.008118,-0.990906,0.342992,0.478168,-0.100458,52,285,572,5200
1644157850.731039,-0.015259,0.00885,-0.991882,0.388794,0.462901,-0.222595,55,276,578,5296
1644157850.779468,-0.011841,0.009766,-0.991577,0.251389,0.508702,-0.130992,48,264,580,5184
1644157850.83033,-0.008606,0.009277,-0.991699,0.190321,0.447634,-0.161527,45,273,582,5248
1644157850.881196,-0.011902,0.009949,-0.994263,0.373527,0.478168,0.082748,58,269,578,5280
1644157850.925884,-0.009155,0.01001,-0.990112,0.312458,0.478168,-0.192061,49,273,575,5280
1644157851.02143,-0.008301,0.009155,-0.994385,0.281924,0.340763,-0.14626,52,268,577,5168
1644157851.069934,-0.009705,0.010498,-0.991211,0.266656,0.432366,0.036947,64,263,579,5248
1644157851.118202,-0.012207,0.008911,-0.99231,0.205588,0.417099,-0.039389,41,274,569,5232
1644157851.166542,-0.009338,0.009949,-0.992004,0.327725,0.447634,-0.237863,45,280,577,5232
1644157851.214926,-0.008911,0.010742,-0.989563,0.068183,0.585038,-0.237863,46,274,580,5248
1644157851.26336,-0.011536,0.010803,-0.990662,0.190321,0.523969,-0.024122,49,275,570,5248
1644157851.311723,-0.010681,0.013733,-0.989746,0.297191,0.386565,-0.115725,45,275,568,5280
1644157851.360103,-0.010376,0.005737,-0.989746,0.327725,0.310229,0.067481,49,275,579,5184
1644157851.408491,-0.013489,0.009216,-0.98877,0.175053,0.432366,-0.085191,55,276,578,5200
1644157851.456873,-0.007385,0.010437,-0.992065,0.373527,0.432366,-0.054656,57,270,579,5248
1644157851.505323,-0.011169,0.009216,-0.993713,0.327725,0.447634,-0.130992,53,264,571,5232
1644157851.553659,-0.007019,0.011353,-0.992615,0.419328,0.493435,-0.25313,57,277,572,5200
1644157851.602049,-0.012451,0.00647,-0.989136,0.251389,0.310229,-0.085191,48,274,578,5280
1644157851.650417,-0.006653,0.011841,-0.989197,0.251389,0.340763,0.082748,54,277,570,5280
1644157851.698827,-0.010254,0.011169,-0.993469,0.266656,0.554504,-0.069924,57,277,577,5280
1644157851.74721,-0.010498,0.009583,-0.989929,0.281924,0.432366,-0.130992,53,274,576,5312
1644157851.7956,-0.010315,0.009277,-0.993347,0.175053,0.462901,-0.161527,60,269,580,5200
1644157851.84455,-0.011292,0.01001,-0.989868,0.236122,0.417099,-0.008855,55,271,566,5280
1644157851.89241,-0.00824,0.012024,-0.991394,0.266656,0.447634,-0.024122,52,275,579,5200
1644157851.942614,-0.011719,0.006897,-0.99054,0.236122,0.417099,-0.024122,53,266,571,5280
1644157851.992855,-0.008423,0.010376,-0.990967,0.113985,0.478168,-0.039389,51,264,571,5184
1644157852.054231,-0.010315,0.009277,-0.98999,0.205588,0.417099,0.113282,55,269,576,5200
1644157852.13437,-0.014038,0.010315,-0.989746,0.220855,0.478168,-0.176794,51,281,573,5248
1644157852.182724,-0.01001,0.012207,-0.990356,0.251389,0.508702,-0.237863,43,271,590,5248
1644157852.231089,-0.009399,0.011353,-0.992493,0.327725,0.432366,-0.115725,40,270,570,5200
1644157852.279474,-0.009949,0.010498,-0.993286,0.495664,0.356031,-0.176794,46,271,571,5280
1644157852.327868,-0.00946,0.01001,-0.990417,0.098718,0.539237,-0.130992,54,280,582,5232
1644157852.376243,-0.009766,0.008728,-0.989258,0.159786,0.417099,-0.069924,55,276,576,5232
1644157852.424657,-0.009094,0.009644,-0.990234,0.297191,0.356031,-0.069924,54,265,582,5232
1644157852.473046,-0.011597,0.009644,-0.992981,0.281924,0.447634,0.006412,46,259,569,5248
1644157852.521404,-0.01062,0.009827,-0.99115,0.404061,0.417099,-0.054656,48,274,573,5232
1644157852.569816,-0.010742,0.008423,-0.990601,0.220855,0.340763,-0.039389,58,269,571,5200
1644157852.618207,-0.007874,0.010559,-0.992493,0.281924,0.523969,-0.100458,55,274,566,5232
1644157852.666595,-0.011169,0.008911,-0.991638,0.251389,0.401832,-0.100458,57,280,570,5184
1644157852.715299,-0.008423,0.008118,-0.992432,0.220855,0.417099,-0.130992,48,279,583,5280
1644157852.763363,-0.01001,0.010864,-0.990234,0.205588,0.356031,-0.130992,49,270,575,5248
1644157852.811767,-0.012146,0.008423,-0.992859,0.251389,0.432366,-0.024122,41,266,578,5232
1644157852.860176,-0.009583,0.010132,-0.991394,0.251389,0.386565,-0.130992,58,276,571,5248
1644157852.908567,-0.009277,0.009949,-0.995789,0.190321,0.508702,-0.192061,48,274,571,5248
1644157852.957202,-0.011963,0.007568,-0.991455,0.236122,0.340763,0.006412,57,277,577,5296
1644157853.062045,-0.00946,0.008606,-0.995667,0.144519,0.417099,-0.130992,52,270,579,5200
1644157853.102203,-0.015869,0.006958,-0.992004,0.236122,0.356031,-0.207328,47,277,589,5168
1644157853.150487,-0.006409,0.009521,-0.991699,0.236122,0.417099,-0.130992,54,268,577,5200
1644157853.198873,-0.012634,0.008667,-0.989868,0.159786,0.401832,-0.207328,53,281,573,5200
1644157853.247229,-0.009644,0.007324,-0.990601,0.236122,0.478168,0.021679,49,280,579,5200
1644157853.295622,-0.008179,0.013367,-0.991943,0.205588,0.340763,-0.039389,57,280,575,5280
1644157853.344039,-0.012268,0.007629,-0.993652,0.251389,0.371298,-0.054656,51,274,573,5248
1644157853.39243,-0.011963,0.008972,-0.98999,0.35826,0.447634,-0.069924,53,274,562,5200
1644157853.440825,-0.011169,0.009216,-0.992188,0.08345,0.478168,-0.069924,55,262,578,5200
1644157853.489321,-0.009583,0.009399,-0.991455,0.159786,0.447634,-0.039389,49,265,586,5296
1644157853.537584,-0.006653,0.010925,-0.993408,0.342992,0.493435,0.006412,46,271,578,5296
1644157853.585983,-0.010681,0.008789,-0.991821,0.190321,0.386565,-0.054656,58,271,569,5168
1644157853.634359,-0.009216,0.010681,-0.989807,0.327725,0.539237,-0.039389,51,276,578,5248
1644157853.682767,-0.009705,0.010254,-0.992126,0.266656,0.432366,-0.085191,51,281,578,5200
1644157853.73115,-0.011047,0.009033,-0.98999,0.388794,0.356031,-0.100458,52,265,572,5248
1644157853.780026,-0.012024,0.011719,-0.993408,0.098718,0.371298,-0.100458,47,270,572,5184
1644157853.831123,-0.011108,0.009094,-0.991699,0.220855,0.493435,-0.115725,45,273,575,5248
1644157853.881786,-0.010376,0.005676,-0.989807,0.175053,0.508702,-0.054656,51,274,566,5200
1644157853.926165,-0.009644,0.010315,-0.991333,0.175053,0.508702,-0.054656,51,276,580,5248
1644157854.021515,-0.009949,0.009766,-0.992188,0.281924,0.386565,-0.298931,58,274,573,5248
1644157854.070974,-0.009033,0.008118,-0.98938,0.251389,0.554504,0.082748,52,275,579,5200
1644157854.11822,-0.009094,0.012939,-0.990784,0.281924,0.462901,-0.192061,59,273,570,5280
1644157854.166628,-0.010986,0.009888,-0.992249,0.327725,0.462901,-0.069924,48,271,569,5200
1644157854.215057,-0.009521,0.010437,-0.991394,0.220855,0.218626,-0.039389,54,270,561,5280
1644157854.26342,-0.011536,0.007263,-0.991089,0.236122,0.371298,-0.024122,51,281,578,5200
1644157854.311806,-0.010437,0.012207,-0.991577,0.220855,0.478168,-0.100458,39,276,573,5200
1644157854.360186,-0.009399,0.009766,-0.992065,0.388794,0.371298,-0.054656,45,265,561,5200
1644157854.408545,-0.011292,0.007446,-0.989258,0.037649,0.310229,0.021679,59,275,572,5184
1644157854.456966,-0.014526,0.010925,-0.991028,0.297191,0.325496,-0.069924,49,280,570,5248
1644157854.505367,-0.010437,0.007874,-0.992493,0.297191,0.600305,-0.069924,46,276,585,5200
1644157854.553762,-0.012024,0.010986,-0.990967,0.205588,0.432366,0.006412,51,274,559,5232
1644157854.602223,-0.011353,0.005859,-0.990234,0.312458,0.600305,-0.024122,48,281,571,5232
1644157854.650523,-0.01123,0.009033,-0.992493,0.205588,0.356031,-0.25313,43,259,573,5248
1644157854.698926,-0.010193,0.011536,-0.992004,0.266656,0.401832,-0.14626,52,270,577,5200
1644157854.747308,-0.008728,0.01239,-0.990051,0.236122,0.356031,-0.085191,51,274,578,5200
1644157854.795694,-0.007996,0.011658,-0.993652,0.419328,0.523969,-0.100458,54,275,584,5248
1644157854.844157,-0.011414,0.010803,-0.991028,0.159786,0.417099,-0.115725,47,277,579,5200
1644157854.892699,-0.01355,0.011169,-0.991333,0.281924,0.432366,-0.100458,51,269,573,5248
1644157854.942952,-0.012085,0.006165,-0.993103,0.281924,0.478168,-0.14626,48,276,580,5232
1644157854.993618,-0.009399,0.007874,-0.990845,0.251389,0.371298,-0.14626,42,273,579,5200
1644157855.038064,-0.010681,0.011902,-0.991577,0.266656,0.539237,-0.161527,61,275,572,5232
1644157855.134461,-0.008545,0.009094,-0.992676,0.236122,0.417099,-0.024122,47,280,584,5200
1644157855.182806,-0.007629,0.010681,-0.995361,0.327725,0.462901,-0.207328,53,269,569,5280
1644157855.231194,-0.011047,0.011108,-0.99353,0.236122,0.340763,-0.130992,36,271,571,5248
1644157855.279559,-0.01001,0.009766,-0.992798,0.266656,0.554504,-0.161527,45,277,582,5232
1644157855.327951,-0.013245,0.009888,-0.990845,0.175053,0.371298,-0.069924,41,264,583,5200
1644157855.376336,-0.011963,0.008972,-0.991821,0.220855,0.356031,-0.054656,42,277,575,5200
1644157855.42475,-0.009277,0.010254,-0.994263,0.251389,0.569771,-0.085191,52,285,579,5248
1644157855.47314,-0.011475,0.009521,-0.994019,0.205588,0.401832,-0.100458,43,276,578,5248
1644157855.521519,-0.010681,0.010681,-0.98877,0.113985,0.493435,-0.237863,58,281,576,5184
1644157855.569909,-0.006653,0.01001,-0.989197,0.419328,0.401832,-0.008855,47,265,579,5200
1644157855.618307,-0.011719,0.007812,-0.991638,0.35826,0.401832,-0.14626,59,273,570,5296
1644157855.666666,-0.008606,0.010071,-0.991821,0.327725,0.386565,-0.054656,57,273,575,5200
1644157855.715196,-0.010498,0.007812,-0.991089,0.35826,0.325496,-0.14626,45,280,579,5184
1644157855.763458,-0.008057,0.009521,-0.993896,0.175053,0.523969,-0.222595,53,276,573,5200
1644157855.811886,-0.00885,0.00769,-0.991272,0.266656,0.447634,-0.069924,52,273,579,5232
1644157855.860266,-0.009338,0.011047,-0.990356,0.281924,0.356031,-0.054656,46,274,573,5200
1644157855.908659,-0.012329,0.007385,-0.992493,0.190321,0.432366,-0.008855,47,275,572,5136
1644157855.957047,-0.010925,0.00824,-0.992432,0.220855,0.340763,-0.100458,45,280,572,5296
1644157856.061789,-0.010071,0.007385,-0.992859,0.251389,0.340763,-0.100458,54,273,579,5232
1644157856.10241,-0.012085,0.009094,-0.991638,0.190321,0.615573,-0.054656,35,265,575,5280
1644157856.15058,-0.012451,0.009888,-0.991638,0.190321,0.523969,-0.100458,46,281,576,5200
1644157856.19896,-0.009521,0.009705,-0.994202,0.266656,0.371298,-0.176794,43,276,583,5280
1644157856.247332,-0.011536,0.010437,-0.989136,0.190321,0.493435,-0.161527,41,271,566,5200
1644157856.295709,-0.01001,0.010864,-0.991943,0.190321,0.493435,-0.176794,43,271,576,5248
1644157856.344138,-0.008179,0.009583,-0.994568,0.35826,0.371298,-0.115725,46,266,576,5184
1644157856.392534,-0.011475,0.008911,-0.994629,0.236122,0.493435,-0.161527,51,269,578,5232
1644157856.440906,-0.011475,0.007812,-0.991516,0.281924,0.554504,-0.130992,49,277,577,5248
1644157856.489329,-0.010498,0.006653,-0.992126,0.220855,0.447634,-0.222595,45,287,572,5248
1644157856.537691,-0.008484,0.010559,-0.989685,0.205588,0.462901,-0.14626,52,282,582,5200
1644157856.586213,-0.013062,0.009155,-0.990479,0.220855,0.432366,-0.14626,45,273,577,5232
1644157856.634463,-0.011597,0.011414,-0.992371,0.236122,0.493435,-0.100458,46,262,578,5200
1644157856.682859,-0.010132,0.008667,-0.994629,0.175053,0.401832,-0.115725,62,266,573,5136
1644157856.731242,-0.011353,0.009644,-0.989624,0.144519,0.478168,-0.085191,54,285,570,5232
1644157856.780138,-0.011353,0.011658,-0.991943,0.175053,0.523969,-0.25313,47,275,572,5248
1644157856.83159,-0.011597,0.011047,-0.989563,0.129252,0.523969,-0.085191,54,277,575,5200
1644157856.881763,-0.009399,0.008423,-0.991943,0.251389,0.569771,-0.237863,48,269,583,5200
1644157856.926444,-0.011414,0.011597,-0.993408,0.327725,0.401832,-0.039389,40,273,577,5168
1644157857.021611,-0.00885,0.01001,-0.991394,0.251389,0.432366,-0.100458,58,279,576,5232
1644157857.070178,-0.010193,0.006531,-0.989014,0.266656,0.493435,-0.024122,57,268,579,5200
1644157857.11838,-0.011963,0.010132,-0.99115,0.175053,0.493435,-0.069924,47,268,579,5280
1644157857.16673,-0.011902,0.007446,-0.990662,0.281924,0.493435,-0.024122,52,270,575,5200
1644157857.215138,-0.012573,0.011292,-0.993896,0.022382,0.310229,-0.176794,47,268,579,5248
1644157857.263489,-0.01239,0.008667,-0.993835,0.35826,0.417099,-0.039389,57,275,575,5200
1644157857.311889,-0.010132,0.00946,-0.990906,0.236122,0.462901,-0.130992,47,282,582,5184
1644157857.360283,-0.011047,0.013062,-0.991699,0.220855,0.356031,-0.176794,43,269,569,5248
1644157857.40871,-0.01062,0.009155,-0.989319,0.297191,0.478168,-0.207328,39,279,578,5232
1644157857.457072,-0.010803,0.007019,-0.992004,0.266656,0.356031,-0.130992,51,281,578,5232
1644157857.505461,-0.013184,0.009155,-0.992249,0.266656,0.493435,0.036947,45,273,575,5200
1644157857.553859,-0.008545,0.01062,-0.992371,0.113985,0.523969,-0.054656,40,263,568,5184
1644157857.602242,-0.013611,0.008423,-0.991943,0.113985,0.432366,-0.176794,47,277,575,5184
1644157857.650633,-0.008362,0.00885,-0.994751,0.236122,0.447634,0.021679,48,276,573,5280
1644157857.699003,-0.012024,0.013,-0.989929,0.327725,0.371298,-0.115725,48,276,569,5344
1644157857.747399,-0.007019,0.009521,-0.994202,0.266656,0.432366,-0.207328,48,283,573,5200
1644157857.795773,-0.011414,0.010498,-0.990845,0.327725,0.539237,-0.024122,45,277,579,5184
1644157857.844271,-0.011292,0.009338,-0.993652,0.098718,0.554504,-0.039389,51,264,580,5232
1644157857.892632,-0.011353,0.009094,-0.991333,0.342992,0.386565,-0.054656,49,280,568,5248
1644157857.942731,-0.011475,0.010376,-0.990356,0.205588,0.493435,-0.069924,45,275,575,5248
1644157857.993111,-0.009705,0.008179,-0.991577,0.175053,0.493435,-0.039389,52,275,575,5280
1644157858.055395,-0.010925,0.010803,-0.990967,0.205588,0.432366,-0.268397,60,276,576,5280
1644157858.135111,-0.010681,0.007874,-0.99292,0.297191,0.523969,-0.14626,58,274,585,5184
1644157858.182895,-0.010132,0.009033,-0.992798,0.190321,0.478168,-0.085191,41,279,578,5312
1644157858.23127,-0.00885,0.010132,-0.991211,0.129252,0.539237,-0.085191,51,274,580,5248
1644157858.279643,-0.008972,0.00946,-0.992371,0.175053,0.493435,-0.130992,55,281,578,5248
1644157858.328066,-0.009766,0.006287,-0.990723,0.35826,0.493435,-0.100458,58,274,580,5184
1644157858.376438,-0.011414,0.008728,-0.992432,0.220855,0.371298,-0.039389,45,265,575,5200
1644157858.424834,-0.010681,0.010925,-0.993164,0.251389,0.554504,-0.176794,51,274,578,5232
1644157858.473209,-0.011047,0.010803,-0.991455,0.205588,0.508702,-0.115725,48,279,569,5232
1644157858.521617,-0.012817,0.008362,-0.992981,0.342992,0.554504,-0.085191,53,274,571,5200
1644157858.570004,-0.013733,0.010132,-0.993408,0.129252,0.493435,-0.100458,51,274,566,5200
1644157858.618384,-0.012634,0.010193,-0.98877,0.220855,0.462901,-0.054656,57,282,575,5232
1644157858.666783,-0.012024,0.01178,-0.993103,0.205588,0.432366,-0.008855,47,273,589,5280
1644157858.715235,-0.010254,0.010437,-0.994324,0.419328,0.478168,-0.115725,48,271,571,5232
1644157858.763541,-0.009705,0.010315,-0.991272,0.129252,0.386565,-0.100458,51,276,578,5232
1644157858.811941,-0.00946,0.008179,-0.992737,0.175053,0.462901,-0.207328,57,273,565,5200
1644157858.860374,-0.00946,0.011963,-0.992004,0.220855,0.600305,0.006412,54,280,572,5280
1644157858.908766,-0.01001,0.008484,-0.992249,0.327725,0.310229,-0.039389,51,274,573,5296
1644157858.957169,-0.009155,0.009033,-0.99408,0.220855,0.493435,-0.100458,42,277,582,5248
1644157859.061453,-0.007385,0.008301,-0.991272,0.113985,0.233893,0.006412,49,275,572,5200
1644157859.102311,-0.008728,0.008118,-0.990601,0.205588,0.371298,-0.069924,53,276,562,5232
1644157859.150679,-0.009705,0.013,-0.992126,0.297191,0.493435,-0.268397,43,279,578,5232
1644157859.199053,-0.009766,0.011292,-0.99231,0.190321,0.386565,-0.024122,51,269,571,5232
1644157859.247408,-0.009888,0.009827,-0.990234,0.220855,0.462901,-0.100458,48,279,569,5200
1644157859.295802,-0.011536,0.008667,-0.98999,0.312458,0.508702,0.036947,54,277,575,5248
1644157859.344219,-0.01001,0.010986,-0.993835,0.190321,0.233893,-0.115725,49,265,577,5232
1644157859.392624,-0.008484,0.007202,-0.99176,0.327725,0.432366,-0.207328,45,268,577,5200
1644157859.440994,-0.009277,0.008362,-0.992004,0.342992,0.523969,-0.054656,52,275,572,5248
1644157859.489408,-0.009338,0.011963,-0.994507,0.266656,0.523969,-0.008855,48,266,576,5280
1644157859.537774,-0.010437,0.00824,-0.988892,0.220855,0.478168,-0.085191,51,279,578,5200
1644157859.586146,-0.01178,0.008362,-0.991272,0.266656,0.356031,0.036947,45,263,582,5200
1644157859.634522,-0.011536,0.008972,-0.992615,0.129252,0.554504,-0.039389,52,275,579,5280
1644157859.682942,-0.010925,0.012024,-0.99292,0.037649,0.508702,-0.14626,62,271,583,5280
1644157859.73131,-0.009949,0.006775,-0.991882,0.220855,0.478168,-0.054656,49,273,579,5248
1644157859.779853,-0.012329,0.007751,-0.991394,0.113985,0.417099,-0.115725,52,268,582,5248
1644157859.830196,-0.013,0.008667,-0.990417,0.297191,0.447634,-0.192061,53,276,580,5280
1644157859.881891,-0.011414,0.00946,-0.993042,0.205588,0.508702,-0.039389,47,270,577,5248
1644157859.926011,-0.011353,0.010254,-0.992004,0.312458,0.417099,-0.14626,52,275,568,5184
1644157860.021697,-0.010437,0.008667,-0.990234,0.266656,0.386565,-0.14626,48,269,576,5248
1644157860.07024,-0.009277,0.006714,-0.99054,0.052916,0.447634,-0.176794,45,277,577,5232
1644157860.11844,-0.011658,0.011047,-0.993164,0.327725,0.417099,-0.130992,55,269,573,5280
1644157860.16682,-0.011292,0.009766,-0.993347,0.312458,0.493435,-0.008855,51,279,562,5200
1644157860.215203,-0.009827,0.008606,-0.99292,0.129252,0.462901,-0.115725,52,265,577,5232
1644157860.263593,-0.009888,0.008057,-0.990723,0.159786,0.508702,-0.161527,51,269,569,5280
1644157860.311983,-0.011169,0.010193,-0.989868,0.220855,0.523969,-0.14626,48,283,573,5200
1644157860.360383,-0.010498,0.011475,-0.992004,0.236122,0.493435,0.006412,45,268,570,5296
1644157860.408772,-0.011292,0.007751,-0.99231,0.190321,0.401832,-0.207328,53,274,573,5200
1644157860.457152,-0.011353,0.006958,-0.989868,0.175053,0.523969,-0.161527,57,275,570,5232
1644157860.505543,-0.01062,0.010986,-0.993042,0.342992,0.493435,-0.100458,40,285,572,5184
1644157860.553946,-0.011169,0.010071,-0.993225,0.266656,0.432366,0.036947,49,275,579,5280
1644157860.602341,-0.010864,0.008667,-0.992981,0.129252,0.493435,-0.039389,53,274,566,5248
1644157860.650722,-0.010559,0.007385,-0.991028,0.327725,0.401832,-0.008855,47,270,575,5232
1644157860.699088,-0.010315,0.007446,-0.98938,0.297191,0.539237,-0.039389,49,280,572,5248
1644157860.747463,-0.010803,0.008545,-0.991394,0.251389,0.386565,-0.192061,54,275,572,5232
1644157860.795917,-0.009827,0.008423,-0.993835,0.281924,0.447634,-0.039389,45,273,568,5232
1644157860.844511,-0.009094,0.00946,-0.992004,0.404061,0.462901,0.006412,58,274,576,5232
1644157860.892735,-0.009583,0.009644,-0.991699,0.159786,0.340763,0.036947,42,273,570,5232
1644157860.942525,-0.012268,0.009399,-0.991821,0.404061,0.508702,-0.024122,52,275,584,5232
1644157860.993032,-0.010681,0.009094,-0.990295,0.327725,0.447634,-0.024122,54,270,586,5248
1644157861.05424,-0.009338,0.008606,-0.99176,0.342992,0.508702,-0.085191,54,277,579,5248
1644157861.088149,-0.013489,0.008423,-0.992126,0.190321,0.356031,-0.085191,45,275,577,5232
1644157861.182992,-0.013245,0.006287,-0.992737,0.251389,0.417099,-0.222595,54,265,577,5280
1644157861.231361,-0.013916,0.008362,-0.99292,0.129252,0.417099,-0.115725,45,273,584,5232
1644157861.279768,-0.01123,0.010803,-0.992432,0.190321,0.417099,-0.115725,55,271,578,5168
1644157861.328142,-0.012207,0.007324,-0.991882,0.236122,0.462901,0.021679,48,279,576,5296
1644157861.37659,-0.010437,0.011902,-0.993164,0.266656,0.371298,-0.100458,48,274,578,5280
1644157861.424917,-0.012268,0.010864,-0.992004,0.236122,0.493435,-0.008855,46,274,571,5280
1644157861.473325,-0.011963,0.012024,-0.991211,0.281924,0.371298,-0.14626,48,276,573,5200
1644157861.52171,-0.011108,0.009827,-0.991211,0.159786,0.493435,-0.069924,49,275,577,5200
1644157861.570093,-0.011353,0.009766,-0.991211,0.159786,0.432366,-0.069924,49,275,568,5280
1644157861.618473,-0.007874,0.007507,-0.992065,0.327725,0.417099,0.006412,45,275,572,5280
1644157861.666845,-0.009583,0.008301,-0.99353,0.220855,0.417099,-0.024122,45,268,563,5248
1644157861.715284,-0.01123,0.009094,-0.992676,0.220855,0.447634,-0.039389,60,283,580,5184
1644157861.763648,-0.01062,0.006653,-0.993469,0.159786,0.539237,0.067481,45,270,577,5200
1644157861.812079,-0.010437,0.010498,-0.99408,0.297191,0.127023,-0.039389,49,282,579,5200
1644157861.860459,-0.010437,0.010864,-0.992004,0.205588,0.462901,-0.085191,47,273,586,5248
1644157861.908849,-0.010803,0.009521,-0.99054,0.297191,0.371298,-0.176794,49,277,570,5248
1644157861.957247,-0.008057,0.008606,-0.990356,0.251389,0.417099,-0.14626,49,268,575,5184
1644157862.00564,-0.011536,0.009766,-0.99292,0.175053,0.432366,-0.024122,54,270,570,5280
1644157862.075559,-0.010437,0.008911,-0.991455,0.251389,0.279695,-0.085191,54,273,575,5232
1644157862.107141,-0.011536,0.008789,-0.992737,0.266656,0.554504,-0.176794,53,266,578,5248
1644157862.155761,-0.011536,0.008667,-0.993103,0.281924,0.310229,-0.039389,59,275,579,5280
1644157862.247514,-0.008484,0.007874,-0.993042,0.236122,0.386565,-0.115725,52,282,568,5232
1644157862.295904,-0.011597,0.007935,-0.994263,0.297191,0.401832,-0.237863,60,276,571,5200
1644157862.344311,-0.010803,0.00824,-0.992859,0.159786,0.432366,-0.176794,54,263,575,5200
1644157862.392723,-0.011597,0.008667,-0.990173,0.236122,0.554504,-0.085191,47,273,570,5296
1644157862.441081,-0.012024,0.009521,-0.993713,0.388794,0.493435,-0.024122,55,276,573,5200
1644157862.489501,-0.012085,0.007996,-0.992065,0.144519,0.508702,-0.176794,43,279,571,5248
1644157862.537862,-0.012268,0.009399,-0.993164,0.388794,0.401832,-0.008855,51,271,571,5232
1644157862.586239,-0.012634,0.009644,-0.992371,0.251389,0.310229,-0.283664,64,270,570,5248
1644157862.634645,-0.011536,0.010254,-0.992798,0.098718,0.447634,0.052214,46,281,573,5200
1644157862.683045,-0.012024,0.009033,-0.988892,0.266656,0.478168,-0.176794,47,277,572,5200
1644157862.731421,-0.009705,0.009521,-0.991943,0.190321,0.401832,-0.176794,49,277,572,5200
1644157862.77979,-0.012878,0.009705,-0.992554,0.312458,0.493435,-0.14626,52,270,582,5248
1644157862.828248,-0.013367,0.009216,-0.992859,0.297191,0.325496,-0.085191,42,268,572,5200
1644157862.87663,-0.011353,0.008728,-0.98999,0.220855,0.432366,-0.192061,59,270,577,5248
1644157862.925055,-0.012512,0.012451,-0.990234,0.144519,0.371298,-0.14626,52,285,579,5232
1644157862.973404,-0.011536,0.009888,-0.992737,0.205588,0.371298,-0.207328,48,281,573,5200
1644157863.021756,-0.010559,0.011719,-0.989014,0.205588,0.325496,0.006412,45,273,577,5280
1644157863.084421,-0.011108,0.010742,-0.990479,0.175053,0.432366,-0.344733,47,280,577,5200
1644157863.118871,-0.011963,0.009949,-0.991455,0.205588,0.478168,-0.130992,48,279,580,5200
1644157863.167709,-0.009094,0.009766,-0.990051,0.236122,0.401832,-0.222595,58,274,585,5280
1644157863.218188,-0.007385,0.009766,-0.99292,0.220855,0.356031,-0.039389,38,275,577,5248
1644157863.268316,-0.007996,0.011536,-0.990662,0.220855,0.432366,-0.100458,54,273,577,5280
1644157863.313275,-0.011658,0.00885,-0.993103,0.297191,0.340763,-0.054656,52,273,570,5200
1644157863.408847,-0.008545,0.00824,-0.992737,0.281924,0.233893,-0.192061,48,276,569,5184
1644157863.457222,-0.010254,0.008301,-0.99353,0.068183,0.24916,-0.176794,53,281,571,5248
1644157863.505617,-0.011658,0.009766,-0.992432,0.144519,0.508702,-0.176794,57,273,575,5200
1644157863.554016,-0.012573,0.007568,-0.992004,0.190321,0.508702,-0.25313,55,279,569,5184
1644157863.602399,-0.01001,0.010925,-0.989319,0.190321,0.493435,-0.069924,62,274,576,5136
1644157863.65079,-0.007812,0.009644,-0.991455,0.297191,0.432366,-0.130992,51,264,578,5296
1644157863.699196,-0.010986,0.010071,-0.994385,0.297191,0.386565,-0.161527,52,270,572,5200
1644157863.747571,-0.012329,0.011169,-0.991577,0.35826,0.340763,-0.039389,57,268,575,5312
1644157863.795954,-0.009705,0.010803,-0.994934,0.144519,0.310229,-0.054656,59,275,570,5280
1644157863.844417,-0.00885,0.00946,-0.991699,0.236122,0.294962,-0.100458,58,269,573,5200
1644157863.89281,-0.00885,0.010376,-0.988953,0.281924,0.493435,-0.115725,48,281,573,5168
1644157863.941158,-0.008606,0.008423,-0.991394,0.190321,0.401832,-0.115725,52,277,582,5232
1644157863.989581,-0.010071,0.011353,-0.993713,0.266656,0.294962,0.082748,48,279,564,5248
1644157864.037945,-0.011658,0.009583,-0.990601,0.113985,0.569771,-0.085191,46,279,566,5200
1644157864.086423,-0.014221,0.011353,-0.99292,0.281924,0.386565,-0.008855,43,279,583,5248
1644157864.134693,-0.005798,0.010742,-0.989624,0.297191,0.386565,-0.069924,54,268,579,5200
1644157864.183091,-0.009399,0.010559,-0.992493,0.220855,0.279695,-0.14626,58,274,573,5200
1644157864.231454,-0.009705,0.011353,-0.991089,0.251389,0.493435,-0.130992,54,275,572,5248
1644157864.279825,-0.012207,0.007935,-0.99231,0.251389,0.356031,-0.283664,45,270,577,5200
1644157864.328286,-0.013,0.006653,-0.990051,0.46513,0.462901,-0.054656,47,285,575,5200
1644157864.378369,-0.010376,0.007507,-0.990723,0.342992,0.279695,-0.130992,55,274,585,5280
1644157864.428699,-0.010132,0.008728,-0.99115,0.144519,0.340763,-0.237863,35,273,577,5248
1644157864.473723,-0.011414,0.007812,-0.989807,0.236122,0.508702,-0.085191,52,275,577,5248
1644157864.570178,-0.013184,0.010254,-0.99176,0.220855,0.371298,-0.115725,54,275,582,5200
1644157864.618568,-0.010254,0.006958,-0.988464,0.037649,0.401832,-0.039389,47,275,570,5248
1644157864.666939,-0.009094,0.007202,-0.993835,0.281924,0.340763,-0.085191,57,268,570,5200
1644157864.715393,-0.01178,0.006897,-0.993408,0.052916,0.493435,-0.115725,53,271,573,5184
1644157864.763748,-0.011169,0.011353,-0.993103,0.266656,0.554504,-0.069924,51,271,571,5280
1644157864.812182,-0.009033,0.011658,-0.991333,0.236122,0.447634,-0.237863,47,277,577,5232
1644157864.860557,-0.009521,0.008179,-0.990417,0.404061,0.447634,-0.054656,42,275,579,5248
1644157864.908921,-0.007751,0.009338,-0.990967,0.281924,0.508702,-0.176794,48,276,569,5200
1644157864.957343,-0.010132,0.011108,-0.991516,0.205588,0.478168,-0.130992,58,283,580,5248
1644157865.005727,-0.011353,0.009216,-0.994202,0.190321,0.539237,0.067481,49,273,565,5232
1644157865.063885,-0.010437,0.010864,-0.991638,0.205588,0.401832,-0.054656,48,276,583,5200
1644157865.102527,-0.010803,0.008606,-0.992004,0.236122,0.569771,-0.069924,43,271,580,5200
1644157865.150844,-0.009338,0.006958,-0.993591,0.342992,0.356031,-0.039389,46,271,583,5200
1644157865.199214,-0.008972,0.010315,-0.989014,0.159786,0.539237,-0.161527,55,281,578,5200
1644157865.247605,-0.009399,0.01062,-0.992065,0.297191,0.432366,-0.161527,52,273,575,5248
1644157865.296015,-0.012024,0.00885,-0.994263,0.312458,0.371298,-0.100458,52,275,575,5200
1644157865.344402,-0.009216,0.009277,-0.991882,0.190321,0.294962,-0.14626,57,275,579,5232
1644157865.392805,-0.010742,0.010803,-0.990417,0.266656,0.356031,0.082748,42,273,575,5200
1644157865.441188,-0.010559,0.008362,-0.991394,0.312458,0.325496,-0.039389,49,275,579,5184
1644157865.489977,-0.011902,0.010681,-0.991699,0.312458,0.447634,-0.161527,43,271,580,5232
1644157865.54054,-0.011414,0.011353,-0.99231,0.205588,0.432366,-0.14626,48,271,576,5200
1644157865.590808,-0.011475,0.009949,-0.99292,0.144519,0.462901,-0.039389,46,271,576,5200
1644157865.636002,-0.012329,0.007019,-0.990723,0.129252,0.569771,-0.115725,52,270,568,5200
1644157865.731512,-0.008728,0.010559,-0.992859,0.281924,0.401832,-0.115725,47,268,579,5200
1644157865.779892,-0.007874,0.01062,-0.988525,0.129252,0.386565,-0.115725,53,271,569,5232
1644157865.828285,-0.008423,0.008667,-0.989807,0.327725,0.356031,-0.161527,59,275,577,5248
1644157865.876712,-0.011841,0.010925,-0.993103,0.129252,0.523969,-0.115725,49,273,575,5200
1644157865.925142,-0.010742,0.008972,-0.992798,0.220855,0.615573,-0.024122,45,273,575,5248
1644157865.973489,-0.010986,0.009644,-0.990845,0.342992,0.340763,-0.130992,47,277,568,5200
1644157866.021882,-0.013855,0.008789,-0.993225,0.297191,0.447634,-0.085191,42,275,575,5232
1644157866.070389,-0.011719,0.011169,-0.991943,0.266656,0.264427,0.021679,49,273,589,5232
1644157866.118671,-0.010315,0.010925,-0.992859,0.159786,0.585038,0.067481,51,283,573,5232
1644157866.166978,-0.010559,0.011597,-0.990906,0.266656,0.554504,-0.039389,54,275,570,5232
1644157866.215398,-0.012878,0.010132,-0.993286,0.220855,0.386565,-0.085191,52,275,570,5248
1644157866.263768,-0.011169,0.011108,-0.992004,0.251389,0.310229,-0.008855,49,282,589,5200
1644157866.31224,-0.010376,0.00885,-0.990295,0.236122,0.508702,0.006412,54,258,575,5248
1644157866.36054,-0.010803,0.011169,-0.989746,0.251389,0.386565,-0.115725,43,286,571,5232
1644157866.40896,-0.01062,0.00885,-0.993103,0.297191,0.279695,-0.039389,49,287,575,5248
1644157866.457334,-0.010559,0.010559,-0.992371,0.08345,0.279695,-0.25313,46,279,573,5232
1644157866.505705,-0.013794,0.010071,-0.99292,0.205588,0.310229,-0.115725,49,273,584,5232
1644157866.554105,-0.008728,0.008972,-0.99176,0.113985,0.432366,-0.130992,49,275,579,5184
1644157866.602993,-0.01239,0.011475,-0.989807,0.205588,0.447634,-0.039389,51,276,578,5296
1644157866.653614,-0.010803,0.010681,-0.990967,0.175053,0.417099,-0.024122,46,276,578,5168
1644157866.703695,-0.010437,0.009888,-0.993469,0.251389,0.493435,-0.207328,61,273,582,5232
1644157866.748768,-0.009888,0.010193,-0.992859,0.404061,0.508702,-0.054656,57,280,575,5280
1644157866.844482,-0.007446,0.010315,-0.990601,0.113985,0.417099,-0.176794,48,269,578,5248
1644157866.89289,-0.011475,0.009644,-0.992188,0.159786,0.340763,-0.085191,41,276,571,5200
1644157866.941257,-0.010742,0.011047,-0.992737,0.236122,0.340763,-0.207328,40,265,579,5200
1644157866.989637,-0.008362,0.008179,-0.992432,0.159786,0.386565,-0.130992,52,273,565,5232
1644157867.038021,-0.012939,0.009521,-0.992004,0.205588,0.401832,-0.161527,47,270,575,5200
1644157867.08821,-0.010498,0.009521,-0.993164,0.190321,0.585038,-0.161527,59,285,570,5248
1644157867.134857,-0.01001,0.007446,-0.992554,0.373527,0.417099,-0.222595,47,277,572,5248
1644157867.183192,-0.011292,0.008667,-0.991333,0.236122,0.447634,-0.054656,54,280,570,5232
1644157867.231523,-0.010498,0.009033,-0.993286,0.236122,0.356031,-0.161527,49,273,577,5248
1644157867.279906,-0.00885,0.008606,-0.992371,0.220855,0.523969,-0.283664,53,269,578,5200
1644157867.32833,-0.009583,0.010132,-0.99115,0.342992,0.279695,-0.176794,51,276,571,5184
