epoch,acc_x,acc_y,acc_z,rot_x,rot_y,rot_z,mag_x,mag_y,mag_z,temp
1644180300.03048,-0.010254,0.010803,-0.992188,0.205588,0.386565,-0.069924,59,263,579,6080
1644180300.078927,-0.00946,0.012451,-0.992249,0.205588,0.478168,0.006412,55,276,590,6048
1644180300.127209,-0.008545,0.011353,-0.993164,0.129252,0.371298,-0.039389,40,282,582,6080
1644180300.175592,-0.010559,0.009094,-0.993286,0.404061,0.432366,-0.100458,42,285,575,6080
1644180300.224019,-0.010376,0.009644,-0.99292,0.251389,0.264427,-0.054656,55,281,583,6128
1644180300.272417,-0.007446,0.007446,-0.992188,0.190321,0.24916,-0.085191,48,274,580,6080
1644180300.320801,-0.009033,0.008972,-0.993042,0.281924,0.432366,-0.176794,61,275,586,6160
1644180300.36918,-0.010315,0.008606,-0.995117,0.35826,0.340763,-0.100458,55,286,576,6080
1644180300.417586,-0.007385,0.008545,-0.99292,0.205588,0.508702,-0.161527,54,273,586,6128
1644180300.465949,-0.009216,0.00708,-0.992859,0.159786,0.554504,-0.008855,53,269,580,6080
1644180300.514355,-0.009827,0.008667,-0.990906,0.052916,0.432366,-0.069924,47,277,586,6112
1644180300.562745,-0.009766,0.009277,-0.992188,0.190321,0.447634,-0.115725,53,266,585,6128
1644180300.611156,-0.008057,0.009827,-0.99292,0.342992,0.386565,-0.085191,43,269,585,6176
1644180300.659543,-0.009521,0.010071,-0.992249,0.312458,0.523969,-0.024122,55,283,578,6048
1644180300.707943,-0.007935,0.008301,-0.992126,0.190321,0.417099,0.036947,49,282,577,6080
1644180300.7563,-0.008301,0.007629,-0.992249,0.281924,0.24916,-0.176794,55,279,580,6112
1644180300.804763,-0.008423,0.010132,-0.993469,0.205588,0.356031,-0.207328,60,271,592,6128
1644180300.853215,-0.010193,0.010803,-0.993591,0.388794,0.401832,-0.268397,41,274,580,6112
1644180300.901556,-0.006531,0.008484,-0.993774,0.251389,0.401832,-0.008855,49,275,582,6112
1644180300.951127,-0.006348,0.009216,-0.993713,0.220855,0.417099,-0.008855,43,279,578,6016
1644180301.001572,-0.011658,0.011292,-0.989502,0.281924,0.417099,0.006412,68,277,589,6128
1644180301.065176,-0.007629,0.009583,-0.991394,0.373527,0.340763,-0.085191,45,273,586,6080
1644180301.143469,-0.008362,0.010559,-0.992554,0.35826,0.554504,-0.115725,45,277,586,6128
1644180301.191834,-0.010132,0.009766,-0.990234,0.190321,0.493435,-0.115725,53,269,578,6112
1644180301.240229,-0.011353,0.010254,-0.992432,0.312458,0.417099,-0.069924,51,281,580,6064
1644180301.288627,-0.008972,0.008484,-0.990662,0.281924,0.554504,-0.054656,42,285,579,6016
1644180301.337059,-0.010437,0.009766,-0.991821,0.220855,0.371298,-0.100458,55,281,578,6080
1644180301.385422,-0.007751,0.009583,-0.991882,0.175053,0.447634,-0.024122,55,276,585,6128
1644180301.4338,-0.011353,0.00946,-0.992493,0.297191,0.523969,-0.130992,51,283,576,6048
1644180301.482227,-0.00946,0.009949,-0.995178,0.373527,0.523969,0.006412,46,271,587,6048
1644180301.530606,-0.009888,0.009766,-0.991028,0.220855,0.462901,-0.024122,59,277,584,6080
1644180301.579002,-0.011353,0.010925,-0.990479,0.190321,0.432366,-0.054656,46,276,580,6080
1644180301.627397,-0.010254,0.009033,-0.990967,0.205588,0.462901,-0.085191,59,282,577,6048
1644180301.675788,-0.010132,0.009766,-0.991638,0.373527,0.447634,0.006412,46,279,576,6128
1644180301.724185,-0.007874,0.007324,-0.992004,0.266656,0.585038,0.067481,42,275,582,6128
1644180301.772578,-0.008118,0.009338,-0.991699,0.281924,0.401832,-0.161527,51,271,590,6128
1644180301.820969,-0.010071,0.013184,-0.994324,0.388794,0.325496,-0.130992,42,275,584,6080
1644180301.869395,-0.008911,0.008484,-0.988953,0.205588,0.340763,-0.054656,55,283,580,6080
1644180301.917801,-0.011597,0.00885,-0.992798,0.236122,0.24916,-0.222595,55,269,585,6080
1644180301.966169,-0.009949,0.008423,-0.99054,0.297191,0.310229,-0.039389,49,277,582,6080
1644180302.064997,-0.005615,0.009033,-0.9953,0.297191,0.539237,-0.100458,51,279,587,6080
1644180302.111287,-0.008301,0.00592,-0.993347,0.236122,0.264427,-0.115725,51,276,592,6160
1644180302.159696,-0.006836,0.009155,-0.99176,0.266656,0.371298,-0.14626,54,275,584,6080
1644180302.208079,-0.008972,0.007507,-0.992859,0.220855,0.462901,-0.14626,41,274,583,6128
1644180302.256457,-0.007751,0.008789,-0.991028,0.190321,0.371298,-0.039389,42,282,575,6112
1644180302.304912,-0.007996,0.009644,-0.992188,0.190321,0.447634,-0.008855,41,274,576,6048
1644180302.353273,-0.009216,0.008301,-0.990723,0.266656,0.508702,-0.14626,49,275,579,6112
1644180302.401664,-0.010864,0.006531,-0.989441,0.297191,0.401832,-0.14626,46,274,583,6064
1644180302.450055,-0.005554,0.009644,-0.992371,0.098718,0.447634,-0.130992,52,275,586,6128
1644180302.498438,-0.009399,0.008789,-0.992004,0.144519,0.432366,-0.069924,40,287,577,6160
1644180302.546815,-0.009705,0.009583,-0.99115,0.175053,0.417099,-0.161527,51,274,594,6128
1644180302.595294,-0.010254,0.008118,-0.993896,0.144519,0.325496,-0.161527,59,282,586,6112
1644180302.6436,-0.010193,0.011597,-0.99054,0.236122,0.386565,-0.024122,43,291,590,6128
1644180302.692029,-0.010986,0.00946,-0.990417,0.327725,0.417099,-0.192061,49,277,582,6128
1644180302.740406,-0.007019,0.009583,-0.992981,0.113985,0.417099,-0.054656,58,281,585,6112
1644180302.788801,-0.00824,0.01001,-0.98999,0.266656,0.493435,-0.069924,43,286,585,6016
1644180302.837509,-0.007751,0.008362,-0.991455,0.037649,0.432366,-0.176794,52,273,582,6128
1644180302.885641,-0.01001,0.010498,-0.993164,0.205588,0.523969,-0.192061,49,270,584,6128
1644180302.935594,-0.011047,0.012146,-0.991516,0.236122,0.493435,0.021679,54,290,586,6080
1644180302.986503,-0.007935,0.009583,-0.99176,0.236122,0.478168,-0.085191,43,271,587,6112
1644180303.036877,-0.00885,0.008362,-0.989746,0.175053,0.462901,-0.069924,45,280,589,6064
1644180303.085281,-0.009033,0.009827,-0.989929,0.144519,0.310229,-0.115725,53,281,583,6080
1644180303.175946,-0.009827,0.012146,-0.990723,0.266656,0.432366,0.052214,42,270,586,6080
1644180303.224344,-0.007935,0.007874,-0.991516,0.236122,0.371298,-0.100458,51,269,578,6080
1644180303.272736,-0.01123,0.007629,-0.993042,0.129252,0.401832,-0.054656,41,274,576,6080
1644180303.321103,-0.009155,0.011475,-0.99353,0.342992,0.386565,-0.039389,58,283,580,6128
1644180303.369497,-0.009399,0.009827,-0.991272,0.388794,0.356031,-0.14626,47,270,579,6128
1644180303.417901,-0.008179,0.012268,-0.990234,0.098718,0.432366,-0.085191,49,273,577,6112
1644180303.466296,-0.007629,0.011414,-0.990723,0.144519,0.371298,-0.039389,51,274,573,6112
1644180303.514712,-0.010925,0.009338,-0.990967,0.144519,0.386565,-0.054656,54,280,593,6080
1644180303.563097,-0.007874,0.011414,-0.991333,0.236122,0.462901,-0.069924,52,280,577,6048
1644180303.611488,-0.009949,0.010681,-0.993469,0.327725,0.432366,-0.130992,47,268,577,6128
1644180303.65987,-0.009155,0.007385,-0.992615,0.190321,0.462901,0.021679,41,291,578,6112
1644180303.70826,-0.01239,0.010071,-0.991943,0.129252,0.294962,-0.069924,59,273,586,6080
1644180303.756654,-0.009277,0.008728,-0.992432,0.236122,0.493435,-0.024122,43,279,576,6048
1644180303.805164,-0.009216,0.010925,-0.98877,0.205588,0.356031,-0.039389,48,269,587,6080
1644180303.853483,-0.007324,0.008057,-0.989319,0.266656,0.294962,0.067481,51,283,583,6128
1644180303.901872,-0.007935,0.010742,-0.992798,0.297191,0.493435,0.082748,51,283,592,6080
1644180303.950256,-0.009583,0.008972,-0.993042,0.220855,0.432366,-0.100458,58,286,585,6080
1644180303.998633,-0.00769,0.011963,-0.991211,0.266656,0.447634,0.021679,43,276,580,6128
1644180304.060468,-0.01178,0.006958,-0.992737,0.388794,0.432366,0.021679,49,270,584,6048
1644180304.104094,-0.010864,0.01001,-0.991333,0.190321,0.447634,-0.039389,52,280,591,6176
1644180304.147086,-0.010864,0.007935,-0.990173,0.449863,0.523969,-0.054656,47,268,582,6112
1644180304.195816,-0.010498,0.009827,-0.992493,0.159786,0.325496,-0.192061,47,275,584,6080
1644180304.240848,-0.008972,0.010986,-0.991333,0.175053,0.279695,0.006412,51,269,585,6080
1644180304.337354,-0.00708,0.010498,-0.991821,0.037649,0.325496,-0.237863,51,283,573,6080
1644180304.385732,-0.008667,0.009399,-0.992126,0.297191,0.493435,-0.161527,54,280,582,6112
1644180304.434161,-0.009766,0.008972,-0.992371,0.373527,0.325496,-0.130992,47,275,582,6016
1644180304.482553,-0.009766,0.009705,-0.991821,0.327725,0.401832,-0.192061,47,280,577,6080
1644180304.530942,-0.008362,0.01123,-0.992004,0.205588,0.447634,0.067481,41,274,583,6160
1644180304.579319,-0.006836,0.008667,-0.990295,0.236122,0.554504,-0.100458,51,274,583,6128
1644180304.627712,-0.007751,0.009521,-0.990784,0.281924,0.432366,-0.069924,52,280,575,6080
1644180304.6761,-0.007446,0.011597,-0.991882,0.129252,0.371298,-0.237863,57,273,575,6192
1644180304.724506,-0.007629,0.008179,-0.992493,0.342992,0.493435,-0.130992,40,275,582,6112
1644180304.772906,-0.008789,0.006226,-0.993958,0.236122,0.493435,-0.054656,52,270,591,6048
1644180304.821294,-0.010193,0.009888,-0.993469,0.159786,0.310229,-0.039389,48,279,573,6080
1644180304.869719,-0.00708,0.006165,-0.991333,0.159786,0.447634,-0.069924,41,274,573,6112
1644180304.918108,-0.009033,0.010803,-0.991821,0.144519,0.417099,0.006412,54,285,586,6128
1644180304.966479,-0.0177,0.01062,-0.989807,0.526198,0.676641,0.036947,51,288,583,6112
1644180305.014921,-0.009521,0.012817,-0.994141,-0.099756,0.03542,-0.222595,48,281,592,6064
1644180305.076946,-0.005798,0.008728,-0.992004,0.312458,0.493435,-0.008855,49,285,591,6080
1644180305.114559,-0.010498,0.004517,-0.995544,0.251389,0.646107,-0.130992,54,275,582,6160
1644180305.160099,-0.014038,0.006592,-0.992188,0.113985,0.218626,-0.268397,51,286,583,6016
1644180305.208424,-0.005554,0.008545,-0.991455,0.510931,0.401832,0.067481,45,282,591,6080
1644180305.257232,-0.011963,0.00885,-0.99292,0.205588,0.325496,-0.192061,53,262,587,6112
1644180305.307789,-0.007629,0.01355,-0.988831,0.35826,0.279695,-0.237863,52,260,582,6128
1644180305.358128,-0.009399,0.008484,-0.995544,0.342992,0.554504,-0.024122,52,275,584,6016
1644180305.402664,-0.01001,0.00946,-0.993103,0.175053,0.279695,-0.100458,38,282,577,6176
1644180305.498768,-0.006897,0.008972,-0.990601,0.205588,0.462901,-0.207328,53,274,587,6000
1644180305.547162,-0.011108,0.010193,-0.992737,0.205588,0.264427,-0.283664,46,274,578,6064
1644180305.595546,-0.008911,0.009521,-0.99231,0.312458,0.523969,-0.100458,40,277,582,6080
1644180305.643974,-0.009216,0.00769,-0.99292,0.236122,0.493435,-0.161527,49,273,577,6064
1644180305.692379,-0.009399,0.006836,-0.991821,0.205588,0.523969,-0.069924,59,280,582,6080
1644180305.740744,-0.00824,0.01001,-0.992126,0.144519,0.569771,-0.130992,45,270,584,6112
1644180305.789125,-0.011841,0.00946,-0.992188,0.236122,0.447634,-0.298931,57,277,589,6080
1644180305.837533,-0.009705,0.013489,-0.991577,0.404061,0.340763,-0.085191,43,269,578,6128
1644180305.885977,-0.009216,0.008057,-0.992859,0.266656,0.539237,0.250687,51,274,576,6160
1644180305.934374,-0.009216,0.008545,-0.992004,0.297191,0.294962,-0.069924,52,275,582,6016
1644180305.982767,-0.010437,0.008423,-0.991577,0.342992,0.432366,-0.039389,51,269,583,6080
1644180306.031144,-0.010742,0.008362,-0.992188,0.190321,0.371298,-0.115725,60,281,587,6112
1644180306.091413,-0.008789,0.011597,-0.99292,0.190321,0.432366,-0.161527,54,280,582,6064
1644180306.127904,-0.006042,0.009644,-0.992981,0.312458,0.356031,-0.100458,57,282,582,6128
1644180306.176651,-0.007812,0.008423,-0.990784,0.266656,0.310229,-0.069924,60,281,580,6128
1644180306.22588,-0.010132,0.01123,-0.990906,0.144519,0.401832,-0.085191,54,280,596,6080
1644180306.276105,-0.007568,0.009155,-0.993591,0.159786,0.417099,-0.039389,53,279,585,6080
1644180306.32649,-0.006653,0.008545,-0.992615,0.144519,0.325496,-0.100458,48,269,583,6080
1644180306.418228,-0.01178,0.010742,-0.988953,0.251389,0.233893,-0.176794,49,282,572,6112
1644180306.466618,-0.006897,0.009827,-0.992737,0.144519,0.493435,-0.161527,54,290,575,6160
1644180306.515057,-0.008179,0.00885,-0.993469,0.327725,0.539237,-0.115725,45,270,584,6160
1644180306.563435,-0.009583,0.008301,-0.992859,0.129252,0.417099,-0.176794,55,279,576,6080
1644180306.611812,-0.008728,0.012207,-0.991272,0.175053,0.325496,-0.085191,46,274,585,6080
1644180306.660199,-0.005798,0.011414,-0.995117,0.144519,0.417099,-0.161527,52,268,596,6112
1644180306.708583,-0.01123,0.009521,-0.99231,0.281924,0.447634,-0.008855,45,277,577,6080
1644180306.756975,-0.008728,0.00824,-0.99231,0.236122,0.432366,-0.024122,40,280,579,6128
1644180306.805377,-0.009033,0.011292,-0.992432,0.312458,0.493435,-0.069924,51,276,578,6080
1644180306.853806,-0.007202,0.011292,-0.989502,0.281924,0.325496,-0.176794,59,270,577,6048
1644180306.902251,-0.011108,0.008118,-0.99054,0.159786,0.432366,-0.069924,54,270,577,6128
1644180306.950611,-0.008423,0.009338,-0.992981,0.205588,0.569771,-0.008855,53,283,573,6080
1644180306.998994,-0.006226,0.008484,-0.992981,0.297191,0.432366,-0.161527,58,283,587,6128
1644180307.04739,-0.010376,0.010437,-0.992126,0.266656,0.462901,-0.069924,51,274,585,6080
1644180307.095804,-0.010559,0.009094,-0.992493,0.297191,0.432366,-0.054656,45,277,589,6080
1644180307.144157,-0.009277,0.008179,-0.993225,0.297191,0.310229,-0.130992,45,273,579,6048
1644180307.192572,-0.011597,0.009705,-0.99585,0.251389,0.432366,-0.115725,43,274,585,6160
1644180307.240966,-0.008484,0.012512,-0.992554,0.08345,0.24916,-0.054656,45,265,582,6016
1644180307.289676,-0.012329,0.009827,-0.993286,0.175053,0.386565,-0.176794,48,269,585,6112
1644180307.341371,-0.00885,0.009094,-0.99176,0.190321,0.493435,-0.207328,46,276,580,6112
1644180307.390435,-0.010376,0.007568,-0.992065,0.175053,0.386565,-0.192061,51,281,573,6048
1644180307.434758,-0.009705,0.00647,-0.993652,0.297191,0.462901,-0.085191,49,275,577,6080
1644180307.531331,-0.007568,0.013672,-0.993286,0.281924,0.371298,-0.222595,48,279,580,6112
1644180307.579702,-0.00708,0.010132,-0.98999,0.297191,0.294962,-0.100458,46,279,583,6048
1644180307.628086,-0.007812,0.010254,-0.993103,0.205588,0.386565,-0.024122,53,269,583,6160
1644180307.676478,-0.008423,0.010681,-0.992126,0.098718,0.417099,0.082748,54,275,575,6128
1644180307.724889,-0.010315,0.011169,-0.992676,0.068183,0.310229,-0.115725,41,271,580,6080
1644180307.77329,-0.009033,0.008667,-0.991028,0.220855,0.310229,-0.100458,52,277,579,6112
1644180307.821665,-0.009583,0.009949,-0.995117,0.266656,0.462901,-0.115725,52,277,575,6160
1644180307.870068,-0.007751,0.008911,-0.992737,0.159786,0.401832,-0.176794,55,279,580,6112
1644180307.918451,-0.009644,0.007874,-0.99231,0.281924,0.432366,-0.115725,45,282,584,6080
1644180307.96685,-0.008728,0.008423,-0.992126,0.297191,0.340763,0.143817,43,286,590,6128
1644180308.015319,-0.007874,0.007568,-0.990967,0.281924,0.417099,-0.054656,48,279,578,6080
1644180308.069238,-0.012329,0.007568,-0.991333,0.159786,0.462901,-0.024122,64,280,589,6080
1644180308.111934,-0.008667,0.009583,-0.989502,0.266656,0.478168,-0.100458,52,277,591,6080
1644180308.160387,-0.007507,0.010986,-0.991516,0.129252,0.371298,-0.115725,55,283,583,6160
1644180308.208759,-0.007568,0.007751,-0.993408,0.144519,0.340763,-0.039389,48,271,590,6064
1644180308.257134,-0.010986,0.007629,-0.996033,0.190321,0.356031,-0.085191,47,282,577,6128
1644180308.305549,-0.009277,0.008484,-0.99231,0.175053,0.310229,-0.100458,45,280,586,6160
1644180308.353948,-0.006897,0.009155,-0.990356,0.495664,0.401832,-0.054656,55,266,590,6128
1644180308.40266,-0.010071,0.009766,-0.993896,0.266656,0.508702,-0.039389,46,281,587,6016
1644180308.451292,-0.008362,0.010315,-0.991028,0.175053,0.401832,-0.192061,57,275,575,6128
1644180308.501917,-0.010742,0.009338,-0.992004,0.129252,0.310229,-0.085191,48,276,587,6128
1644180308.552028,-0.010742,0.010132,-0.992981,0.297191,0.462901,0.098015,47,285,584,6064
1644180308.597069,-0.007629,0.008911,-0.993652,0.175053,0.294962,0.006412,55,276,583,6112
1644180308.692709,-0.007141,0.006531,-0.990906,0.113985,0.432366,-0.039389,49,268,577,6080
1644180308.741072,-0.008362,0.009521,-0.992004,0.129252,0.569771,-0.115725,43,271,592,6080
1644180308.789475,-0.008911,0.007324,-0.993774,0.35826,0.279695,-0.100458,51,264,592,6080
1644180308.837884,-0.011963,0.007812,-0.992371,0.297191,0.508702,0.006412,54,268,579,6048
1644180308.886293,-0.009705,0.009277,-0.993286,0.327725,0.447634,0.113282,58,279,580,6128
1644180308.934699,-0.011902,0.009216,-0.993286,0.175053,0.447634,-0.176794,53,283,580,6080
1644180308.983106,-0.009705,0.005798,-0.992126,0.281924,0.371298,-0.069924,46,276,585,6080
1644180309.03146,-0.010803,0.012573,-0.992432,0.205588,0.371298,-0.100458,47,282,582,6160
1644180309.081275,-0.010193,0.01001,-0.992126,0.266656,0.462901,-0.14626,54,270,586,6112
1644180309.128244,-0.007751,0.014954,-0.993164,0.068183,0.478168,-0.161527,55,274,594,6048
1644180309.17661,-0.009705,0.007751,-0.992859,0.236122,0.218626,0.082748,52,273,596,6160
1644180309.225128,-0.011108,0.006958,-0.992249,0.205588,0.523969,0.082748,48,276,576,6080
1644180309.274503,-0.008789,0.007263,-0.994019,0.220855,0.417099,-0.100458,55,283,580,6048
1644180309.321798,-0.010559,0.010925,-0.991882,0.266656,0.310229,-0.069924,47,287,593,6112
1644180309.370197,-0.007446,0.008484,-0.991882,0.220855,0.478168,-0.100458,55,279,587,6128
1644180309.418579,-0.011719,0.00769,-0.993164,0.190321,0.447634,0.006412,52,275,591,6128
1644180309.466978,-0.009583,0.010742,-0.993408,0.175053,0.218626,-0.130992,52,275,589,6112
1644180309.515366,-0.009094,0.010315,-0.990906,0.220855,0.218626,-0.085191,46,279,578,6080
1644180309.563749,-0.006836,0.009033,-0.990662,0.129252,0.325496,-0.14626,65,274,590,6000
1644180309.612178,-0.009644,0.011536,-0.994507,0.159786,0.401832,0.067481,34,274,580,6048
1644180309.662689,-0.009094,0.00885,-0.992249,0.342992,0.340763,-0.14626,47,273,575,6128
1644180309.712962,-0.008057,0.011292,-0.993774,0.205588,0.356031,-0.054656,47,280,596,6080
1644180309.75789,-0.008301,0.009338,-0.99054,0.205588,0.447634,-0.176794,43,276,580,6080
1644180309.854145,-0.009827,0.010925,-0.991699,0.144519,0.417099,-0.054656,49,275,579,6128
1644180309.902548,-0.009338,0.010193,-0.993774,0.266656,0.462901,-0.100458,55,288,583,6080
1644180309.950929,-0.008972,0.009888,-0.991394,0.159786,0.264427,-0.024122,48,274,578,6112
1644180309.999309,-0.009766,0.007751,-0.994507,0.08345,0.371298,-0.161527,43,283,585,6128
1644180310.047708,-0.011597,0.010132,-0.991028,0.266656,0.356031,-0.161527,38,275,584,6016
1644180310.100404,-0.008057,0.008118,-0.994629,0.251389,0.554504,-0.115725,54,275,593,6128
1644180310.144489,-0.006958,0.010559,-0.994019,0.419328,0.371298,0.006412,46,274,576,6080
1644180310.192873,-0.012268,0.012512,-0.991272,0.327725,0.264427,-0.100458,47,285,584,6128
1644180310.241246,-0.010315,0.01123,-0.992371,0.220855,0.371298,-0.039389,57,268,584,6080
1644180310.289618,-0.011047,0.009216,-0.992615,0.205588,0.310229,-0.130992,48,276,583,6080
1644180310.338028,-0.011475,0.008728,-0.992371,0.129252,0.462901,-0.14626,45,280,579,6128
1644180310.386419,-0.008545,0.008484,-0.995056,0.251389,0.340763,-0.039389,45,282,591,6160
1644180310.434828,-0.011475,0.008667,-0.994202,0.373527,0.340763,-0.130992,54,280,584,6128
1644180310.483232,-0.008789,0.007019,-0.994446,0.175053,0.523969,-0.161527,43,279,599,6080
1644180310.532881,-0.011841,0.009521,-0.990601,0.159786,0.356031,-0.039389,45,270,579,6080
1644180310.583216,-0.010315,0.009338,-0.994324,0.373527,0.447634,-0.161527,61,275,584,6080
1644180310.633438,-0.012451,0.007019,-0.991272,0.175053,0.401832,0.006412,53,274,587,6160
1644180310.725413,-0.008301,0.008667,-0.991882,0.159786,0.432366,-0.130992,57,275,575,6128
1644180310.77357,-0.010925,0.009338,-0.99231,0.113985,0.478168,-0.25313,54,265,579,6080
1644180310.821957,-0.006592,0.008057,-0.991028,0.159786,0.523969,-0.268397,45,277,586,6080
1644180310.870382,-0.009766,0.008545,-0.992859,0.175053,0.310229,-0.054656,51,266,576,6064
1644180310.91878,-0.00824,0.008301,-0.992981,0.08345,0.523969,-0.008855,42,285,577,6080
1644180310.967163,-0.009277,0.009949,-0.99292,0.175053,0.401832,-0.008855,45,280,570,6176
1644180311.015538,-0.008118,0.008057,-0.990967,0.205588,0.432366,-0.25313,55,281,590,6128
1644180311.073316,-0.008057,0.007385,-0.992126,0.281924,0.493435,-0.161527,48,281,587,6048
1644180311.112347,-0.009094,0.008606,-0.994202,0.297191,0.523969,-0.054656,49,285,586,6112
1644180311.160701,-0.010925,0.005859,-0.994568,0.159786,0.386565,-0.054656,42,277,582,6080
1644180311.209104,-0.010986,0.00946,-0.992249,0.159786,0.24916,-0.069924,57,270,589,6080
1644180311.257463,-0.009949,0.009216,-0.990417,0.175053,0.356031,-0.192061,58,281,580,6080
1644180311.305877,-0.008118,0.009521,-0.990417,0.236122,0.294962,-0.176794,57,273,586,6112
1644180311.354292,-0.009949,0.009705,-0.992126,0.175053,0.233893,0.021679,57,280,575,6080
1644180311.402684,-0.01062,0.009338,-0.993347,0.327725,0.340763,-0.176794,36,286,578,6128
1644180311.451051,-0.010071,0.010132,-0.991821,0.144519,0.539237,-0.14626,53,276,592,6112
1644180311.499432,-0.010376,0.008484,-0.987427,0.052916,0.508702,-0.207328,54,275,579,6128
1644180311.547838,-0.009888,0.01062,-0.991943,0.113985,0.356031,-0.115725,52,275,589,6112
1644180311.596236,-0.008789,0.009583,-0.993042,0.251389,0.478168,-0.115725,47,268,579,6080
1644180311.644691,-0.01123,0.011719,-0.991699,0.159786,0.417099,-0.100458,51,283,587,6112
1644180311.695087,-0.010559,0.007263,-0.992188,0.175053,0.447634,-0.115725,57,280,579,6160
1644180311.745382,-0.008118,0.007385,-0.994263,0.281924,0.417099,-0.085191,64,287,579,6080
1644180311.790455,-0.012268,0.008606,-0.994141,0.342992,0.340763,0.021679,53,269,580,6112
1644180311.886608,-0.007629,0.009827,-0.990662,0.190321,0.325496,-0.069924,58,266,576,6016
1644180311.935289,-0.007629,0.010864,-0.992249,0.175053,0.462901,-0.283664,51,279,580,6080
1644180311.983432,-0.007629,0.007141,-0.991089,0.205588,0.462901,-0.085191,54,270,591,6128
1644180312.031791,-0.009033,0.009583,-0.991394,0.281924,0.401832,0.006412,45,268,586,6112
1644180312.080267,-0.010376,0.010986,-0.990784,0.220855,0.340763,-0.069924,54,275,570,6176
1644180312.128594,-0.009033,0.009155,-0.990906,0.113985,0.508702,-0.069924,49,273,584,6112
1644180312.176947,-0.007507,0.009766,-0.990601,0.098718,0.325496,-0.176794,49,282,586,6128
1644180312.225335,-0.008057,0.011841,-0.991882,0.175053,0.462901,-0.085191,54,277,584,6128
1644180312.273732,-0.008118,0.009277,-0.992188,0.312458,0.386565,-0.115725,49,265,584,6112
1644180312.322171,-0.009033,0.007935,-0.990967,0.281924,0.508702,-0.008855,47,277,586,6080
1644180312.37052,-0.009521,0.00824,-0.991516,0.312458,0.493435,-0.115725,53,264,580,6080
1644180312.418909,-0.008667,0.009155,-0.992737,0.175053,0.294962,-0.161527,49,277,598,6128
1644180312.467301,-0.007507,0.008362,-0.990356,0.236122,0.310229,-0.130992,55,276,585,6112
1644180312.515684,-0.010864,0.012329,-0.99176,-0.02342,0.325496,-0.130992,54,275,579,6080
1644180312.564081,-0.009827,0.010193,-0.99353,0.251389,0.294962,-0.222595,55,274,580,6112
1644180312.612492,-0.007263,0.00946,-0.98999,0.404061,0.462901,-0.192061,58,283,583,6048
1644180312.660872,-0.010742,0.009521,-0.992249,0.220855,0.417099,-0.176794,45,277,584,6128
1644180312.709269,-0.008484,0.010254,-0.991577,0.266656,0.386565,-0.085191,45,275,593,6128
1644180312.757653,-0.011536,0.008972,-0.992249,0.205588,0.325496,-0.207328,42,285,579,6160
1644180312.806196,-0.012451,0.009155,-0.992432,0.175053,0.401832,-0.192061,42,280,589,6128
1644180312.857105,-0.009216,0.009705,-0.993225,0.327725,0.294962,-0.039389,47,277,579,6080
1644180312.907821,-0.009216,0.011719,-0.988953,0.236122,0.462901,-0.207328,52,275,575,6080
1644180312.95241,-0.008057,0.009949,-0.993835,0.190321,0.340763,-0.039389,45,287,582,6112
1644180313.064753,-0.013,0.012207,-0.992676,0.129252,0.554504,-0.024122,55,286,578,6016
1644180313.100705,-0.011169,0.006226,-0.990479,0.281924,0.523969,0.082748,54,277,591,6080
1644180313.144853,-0.011108,0.006104,-0.992249,0.297191,0.447634,0.021679,48,274,580,6080
1644180313.193224,-0.011414,0.008911,-0.993164,0.205588,0.508702,-0.100458,57,277,586,6064
1644180313.241579,-0.007874,0.012085,-0.991699,0.236122,0.371298,0.006412,52,275,584,6128
1644180313.289986,-0.011108,0.007935,-0.994202,0.220855,0.325496,-0.085191,45,273,579,6064
1644180313.338369,-0.010498,0.011658,-0.992859,0.297191,0.371298,-0.024122,53,281,580,6080
1644180313.386757,-0.009216,0.006958,-0.993164,0.129252,0.356031,-0.14626,52,273,593,6080
1644180313.435183,-0.007935,0.008606,-0.992676,0.251389,0.462901,-0.069924,51,271,585,6192
1644180313.483549,-0.005676,0.008972,-0.993042,0.236122,0.432366,-0.130992,42,280,577,6048
1644180313.531951,-0.010986,0.01062,-0.991089,0.327725,0.386565,-0.176794,39,281,583,6112
1644180313.5819,-0.012451,0.01001,-0.993225,0.220855,0.447634,-0.100458,48,281,592,6128
1644180313.632254,-0.007446,0.011292,-0.993958,0.098718,0.432366,-0.085191,52,268,584,6160
1644180313.682371,-0.008911,0.008911,-0.99115,0.190321,0.493435,0.006412,52,268,586,6080
1644180313.7739,-0.007019,0.009399,-0.992004,0.037649,0.294962,0.006412,48,276,578,6128
1644180313.822402,-0.011475,0.009949,-0.991577,0.373527,0.371298,-0.008855,42,263,579,6080
1644180313.870673,-0.010376,0.007751,-0.99176,0.144519,0.432366,-0.069924,48,269,578,6112
1644180313.919106,-0.010864,0.00769,-0.993469,0.159786,0.340763,-0.14626,46,286,583,6128
1644180313.967493,-0.008789,0.008728,-0.990662,0.327725,0.371298,-0.161527,49,273,572,6112
1644180314.015896,-0.009766,0.009766,-0.991638,0.281924,0.386565,-0.207328,51,281,576,6080
1644180314.069427,-0.006836,0.010742,-0.991272,0.220855,0.447634,-0.14626,47,277,589,6048
1644180314.112675,-0.013123,0.008667,-0.992371,0.190321,0.233893,-0.192061,47,282,577,6080
1644180314.161073,-0.012695,0.011108,-0.99054,0.175053,0.325496,0.006412,53,279,578,6080
1644180314.209472,-0.011047,0.009888,-0.991699,0.373527,0.478168,-0.024122,55,281,580,6080
1644180314.257867,-0.012634,0.010437,-0.992188,0.205588,0.508702,0.006412,58,274,580,6048
1644180314.306246,-0.007629,0.010132,-0.989624,0.144519,0.417099,-0.161527,54,273,579,6112
1644180314.354747,-0.008667,0.011047,-0.991089,0.327725,0.432366,0.082748,46,264,576,6128
1644180314.403038,-0.008301,0.009888,-0.991821,0.175053,0.340763,-0.100458,45,280,586,6112
1644180314.451433,-0.006042,0.012634,-0.992615,0.205588,0.386565,-0.130992,52,277,582,6080
1644180314.499802,-0.012268,0.013245,-0.993469,0.190321,0.371298,0.021679,46,283,580,6064
1644180314.548222,-0.012695,0.012451,-0.991943,0.205588,0.417099,-0.176794,46,271,580,6064
1644180314.596968,-0.011414,0.010681,-0.988464,0.175053,0.417099,-0.054656,52,277,579,6128
1644180314.645091,-0.006836,0.007568,-0.99353,0.175053,0.279695,-0.039389,55,279,583,6128
1644180314.694896,-0.010681,0.009644,-0.991699,0.236122,0.340763,-0.069924,54,282,593,6128
1644180314.744869,-0.008301,0.009094,-0.993103,0.159786,0.325496,0.021679,51,286,585,6080
1644180314.795316,-0.00592,0.011414,-0.994324,0.297191,0.340763,-0.008855,60,266,573,6048
1644180314.839835,-0.006714,0.007202,-0.993042,0.129252,0.417099,-0.039389,46,274,587,6112
1644180314.93547,-0.008667,0.008728,-0.994263,0.205588,0.233893,0.036947,53,279,578,6048
1644180314.983738,-0.010132,0.011108,-0.991272,0.236122,0.203359,-0.008855,52,273,589,6128
1644180315.032552,-0.011536,0.00708,-0.992859,0.190321,0.523969,-0.192061,54,277,591,6080
1644180315.080597,-0.009705,0.010132,-0.991882,0.312458,0.371298,-0.161527,43,269,590,6080
1644180315.128883,-0.009521,0.007935,-0.993469,0.236122,0.493435,0.052214,45,280,579,6128
1644180315.177278,-0.011169,0.00885,-0.993042,0.281924,0.401832,0.036947,51,279,583,6112
1644180315.225669,-0.008362,0.009827,-0.991882,0.220855,0.279695,-0.039389,52,273,589,6080
1644180315.274069,-0.009949,0.007751,-0.992432,0.404061,0.279695,0.098015,57,270,577,6112
1644180315.322485,-0.009277,0.008423,-0.990173,0.220855,0.325496,-0.192061,49,265,577,6112
1644180315.370858,-0.007446,0.007751,-0.991638,0.236122,0.432366,-0.054656,58,276,590,6224
1644180315.419252,-0.007629,0.008972,-0.990234,0.052916,0.432366,-0.130992,51,279,578,6064
1644180315.467624,-0.008606,0.009216,-0.995728,0.297191,0.432366,-0.115725,42,285,577,6016
1644180315.516029,-0.009521,0.00708,-0.988953,0.220855,0.432366,-0.14626,58,286,585,6080
1644180315.564441,-0.010681,0.007385,-0.992859,0.266656,0.417099,-0.115725,53,269,594,6128
1644180315.612815,-0.011597,0.00769,-0.992065,0.327725,0.294962,-0.314198,46,276,578,6080
1644180315.661205,-0.008118,0.01123,-0.993408,0.190321,0.417099,-0.069924,55,271,587,6080
1644180315.709585,-0.010864,0.008362,-0.99353,0.098718,0.508702,-0.024122,58,266,585,6160
1644180315.757987,-0.010254,0.006897,-0.990601,0.35826,0.508702,0.006412,42,277,586,6048
1644180315.806667,-0.006531,0.007996,-0.992432,0.113985,0.508702,-0.069924,49,270,582,6080
1644180315.855737,-0.01239,0.010803,-0.992432,0.205588,0.493435,-0.176794,53,266,580,6128
1644180315.905878,-0.01123,0.009521,-0.992432,0.129252,0.569771,-0.039389,47,268,582,6128
1644180315.956303,-0.010132,0.007812,-0.992249,0.190321,0.386565,-0.039389,51,279,587,6080
1644180316.000903,-0.01178,0.008606,-0.991638,0.297191,0.523969,-0.14626,45,287,582,6128
1644180316.097103,-0.010559,0.009888,-0.993774,0.113985,0.24916,-0.130992,57,280,589,6064
1644180316.145161,-0.009521,0.00824,-0.994812,0.251389,0.462901,-0.207328,49,287,586,6112
1644180316.193517,-0.009277,0.010864,-0.992615,0.190321,0.417099,0.036947,52,265,579,6128
1644180316.241907,-0.009827,0.009399,-0.993896,0.159786,0.417099,-0.100458,45,287,591,6048
1644180316.290282,-0.012512,0.010742,-0.993469,0.297191,0.356031,0.006412,40,282,584,6080
1644180316.338692,-0.008484,0.006897,-0.995178,0.113985,0.294962,0.021679,59,263,589,6080
1644180316.387078,-0.009583,0.008057,-0.990295,0.144519,0.371298,-0.176794,57,277,575,6080
1644180316.435473,-0.009521,0.006653,-0.993286,0.220855,0.279695,-0.024122,45,277,582,6080
1644180316.483855,-0.010559,0.006714,-0.991394,0.312458,0.279695,-0.161527,54,277,584,6080
1644180316.532285,-0.010559,0.007446,-0.994385,0.205588,0.417099,-0.024122,53,271,583,6080
1644180316.580665,-0.008972,0.007568,-0.993225,0.312458,0.432366,-0.069924,52,282,579,6112
1644180316.629038,-0.011292,0.009033,-0.992615,0.251389,0.508702,-0.024122,47,265,582,6128
1644180316.677436,-0.01001,0.011719,-0.993713,0.297191,0.493435,-0.054656,60,274,585,6048
1644180316.725809,-0.009521,0.009094,-0.99176,0.236122,0.417099,-0.008855,59,277,584,6128
1644180316.774233,-0.010803,0.00824,-0.992065,0.205588,0.325496,-0.176794,35,270,575,6112
1644180316.822676,-0.010803,0.009277,-0.994141,0.266656,0.325496,-0.085191,48,283,578,6128
1644180316.871045,-0.007874,0.010986,-0.993408,0.251389,0.356031,-0.161527,45,273,582,6080
1644180316.919751,-0.007324,0.008423,-0.992676,0.190321,0.233893,0.006412,57,270,582,6128
1644180316.968255,-0.010559,0.009033,-0.995117,0.205588,0.493435,-0.054656,43,281,583,6048
1644180317.066072,-0.011719,0.010132,-0.990906,0.205588,0.447634,-0.085191,48,276,585,6080
1644180317.11299,-0.009216,0.009521,-0.992554,0.220855,0.371298,0.006412,55,286,585,6176
1644180317.161356,-0.011169,0.010132,-0.992493,0.052916,0.462901,-0.024122,46,271,583,6080
1644180317.209749,-0.00708,0.008789,-0.993591,0.236122,0.371298,-0.161527,47,282,584,6112
1644180317.258245,-0.010559,0.012268,-0.990845,0.068183,0.401832,-0.085191,53,281,585,6160
1644180317.30654,-0.006958,0.010315,-0.992004,0.251389,0.386565,-0.14626,43,283,583,6080
1644180317.354923,-0.007263,0.008911,-0.992981,0.327725,0.447634,-0.069924,49,282,577,6128
1644180317.403335,-0.007568,0.008789,-0.992371,0.175053,0.386565,-0.039389,54,270,589,6112
1644180317.451727,-0.008667,0.010925,-0.990112,0.236122,0.386565,-0.115725,58,279,585,6016
1644180317.500094,-0.009766,0.010925,-0.995361,0.236122,0.478168,-0.14626,51,276,585,6128
1644180317.548511,-0.009033,0.009888,-0.992188,0.297191,0.340763,-0.039389,46,281,571,6080
1644180317.596906,-0.00769,0.00885,-0.993286,0.220855,0.539237,-0.069924,54,265,591,6128
1644180317.645303,-0.012329,0.007507,-0.991211,0.220855,0.523969,-0.161527,43,281,592,6112
1644180317.693697,-0.009644,0.008484,-0.992981,0.236122,0.356031,-0.130992,52,280,579,6080
1644180317.742065,-0.008484,0.009033,-0.994385,0.144519,0.356031,-0.130992,43,269,580,6064
1644180317.790473,-0.009888,0.008667,-0.992432,0.281924,0.432366,-0.054656,52,270,582,6128
1644180317.838899,-0.01123,0.007874,-0.994568,0.266656,0.325496,-0.192061,47,282,582,6080
1644180317.887316,-0.008118,0.00885,-0.992126,0.297191,0.279695,-0.100458,54,263,579,6128
1644180317.93676,-0.00946,0.006592,-0.993591,0.251389,0.371298,-0.008855,54,282,589,6160
1644180317.989391,-0.008972,0.011536,-0.992065,0.251389,0.615573,-0.069924,51,271,590,6080
1644180318.036795,-0.010498,0.010559,-0.990723,0.205588,0.508702,-0.024122,48,274,585,6112
1644180318.08313,-0.007996,0.009583,-0.990845,0.220855,0.386565,-0.115725,55,279,580,6080
1644180318.1776,-0.007507,0.010681,-0.99353,0.098718,0.417099,-0.100458,54,270,582,6064
1644180318.225988,-0.008972,0.007874,-0.991882,0.281924,0.401832,-0.115725,43,281,573,6080
1644180318.274399,-0.010193,0.010193,-0.995667,0.205588,0.386565,-0.237863,49,275,579,6080
1644180318.322786,-0.010498,0.010864,-0.993103,0.251389,0.401832,-0.085191,45,285,579,6080
1644180318.371171,-0.011414,0.007812,-0.991699,0.251389,0.417099,-0.100458,49,273,570,6080
1644180318.41956,-0.008789,0.008606,-0.98938,0.266656,0.447634,0.006412,57,285,579,6112
1644180318.46796,-0.011047,0.008362,-0.993408,0.342992,0.432366,0.021679,54,270,579,6080
1644180318.516346,-0.007141,0.010132,-0.993958,0.144519,0.447634,-0.176794,55,264,578,6112
1644180318.564761,-0.008301,0.01001,-0.992798,0.113985,0.432366,-0.329466,46,271,580,6064
1644180318.613136,-0.010193,0.008423,-0.992981,0.312458,0.356031,-0.039389,51,271,576,6176
1644180318.661511,-0.008484,0.010315,-0.989319,0.144519,0.325496,0.052214,43,279,578,6128
1644180318.709934,-0.007812,0.00769,-0.99176,0.220855,0.493435,-0.298931,51,266,576,6080
1644180318.758309,-0.00946,0.007324,-0.988953,0.175053,0.294962,-0.115725,49,280,589,6064
1644180318.806702,-0.013428,0.008118,-0.992554,0.220855,0.432366,-0.069924,54,282,577,6128
1644180318.855174,-0.008728,0.009277,-0.993225,0.068183,0.340763,-0.054656,47,277,584,6112
1644180318.903539,-0.008911,0.006531,-0.991272,0.342992,0.310229,-0.085191,52,280,577,6128
1644180318.951925,-0.010681,0.010376,-0.990479,0.281924,0.493435,0.006412,54,277,575,6160
1644180319.000311,-0.011963,0.010437,-0.99292,0.144519,0.462901,-0.069924,51,266,580,6128
1644180319.06192,-0.012695,0.011353,-0.99176,0.205588,0.508702,-0.130992,51,271,573,6048
1644180319.098264,-0.009094,0.011841,-0.991882,0.220855,0.478168,-0.161527,49,273,593,6128
1644180319.1487,-0.010559,0.007324,-0.993408,0.373527,0.478168,-0.192061,54,277,575,6080
1644180319.198001,-0.010498,0.011414,-0.997925,0.312458,0.417099,-0.176794,51,271,580,6080
1644180319.242566,-0.010559,0.010925,-0.99353,0.373527,0.386565,-0.115725,53,274,573,6080
1644180319.339013,-0.010864,0.008789,-0.993835,0.251389,0.371298,-0.100458,52,270,579,6128
1644180319.387403,-0.010498,0.009888,-0.995178,0.144519,0.386565,-0.161527,57,282,570,6080
1644180319.435799,-0.008789,0.008179,-0.991943,0.190321,0.417099,-0.069924,48,274,592,6112
1644180319.484214,-0.010986,0.008118,-0.99585,0.312458,0.356031,-0.054656,54,268,579,6128
1644180319.532611,-0.011536,0.01062,-0.993469,0.205588,0.325496,-0.054656,61,273,586,6016
1644180319.580987,-0.010254,0.007324,-0.992554,0.342992,0.24916,-0.130992,54,270,577,6160
1644180319.629377,-0.00885,0.011902,-0.990295,0.388794,0.432366,-0.130992,54,275,579,5984
1644180319.67775,-0.010254,0.008057,-0.991577,0.159786,0.386565,-0.130992,49,270,579,6160
1644180319.726174,-0.010132,0.010071,-0.99115,0.327725,0.401832,-0.085191,49,270,575,6112
1644180319.774671,-0.008606,0.012512,-0.992615,0.35826,0.340763,-0.14626,46,276,580,6080
1644180319.822963,-0.007874,0.009705,-0.990967,0.281924,0.478168,0.021679,40,277,586,6160
1644180319.871384,-0.009521,0.008667,-0.991577,0.068183,0.401832,-0.069924,55,269,578,6080
1644180319.919751,-0.009521,0.011047,-0.993835,0.220855,0.401832,-0.085191,53,288,585,6128
1644180319.968175,-0.010071,0.00824,-0.989868,0.052916,0.371298,0.052214,45,290,598,6048
1644180320.016568,-0.007446,0.006836,-0.990906,0.205588,0.432366,-0.100458,42,290,584,6080
1644180320.077661,-0.009216,0.011902,-0.990051,0.373527,0.447634,-0.176794,49,273,584,6128
1644180320.116159,-0.010376,0.010864,-0.991638,0.220855,0.508702,-0.192061,57,280,598,6080
1644180320.161701,-0.006958,0.007019,-0.992126,0.098718,0.401832,-0.161527,47,277,579,6080
1644180320.210093,-0.009766,0.009338,-0.99231,0.205588,0.447634,-0.115725,49,268,582,6048
1644180320.258818,-0.008179,0.010681,-0.98999,0.159786,0.478168,-0.130992,57,265,584,6176
1644180320.309407,-0.01178,0.011536,-0.993164,0.220855,0.371298,-0.161527,48,274,583,6064
1644180320.359504,-0.009521,0.008911,-0.989929,0.281924,0.417099,-0.054656,51,288,580,6112
1644180320.404495,-0.00885,0.008423,-0.994202,0.312458,0.401832,-0.207328,62,281,578,6080
1644180320.500459,-0.007935,0.008057,-0.993225,0.236122,0.401832,-0.222595,59,280,575,6128
1644180320.548826,-0.00769,0.009521,-0.992737,0.297191,0.264427,-0.130992,35,280,579,6112
1644180320.597222,-0.010254,0.010071,-0.993164,0.129252,0.417099,0.052214,60,274,585,6160
1644180320.645628,-0.010132,0.010254,-0.993469,0.46513,0.432366,-0.008855,59,277,584,6080
1644180320.694025,-0.008118,0.009949,-0.994019,0.205588,0.203359,0.021679,54,282,575,6160
1644180320.742433,-0.007629,0.008728,-0.992493,0.159786,0.417099,-0.207328,47,275,589,6080
1644180320.790811,-0.008057,0.010864,-0.990723,0.297191,0.356031,-0.069924,48,279,580,6112
1644180320.839198,-0.007507,0.009888,-0.990601,0.312458,0.462901,-0.14626,55,276,576,6128
1644180320.887617,-0.009521,0.012085,-0.991577,0.220855,0.264427,-0.100458,45,273,586,6080
1644180320.936018,-0.006165,0.010803,-0.990234,0.220855,0.462901,0.036947,47,280,575,6080
1644180320.984435,-0.011658,0.011658,-0.991821,0.297191,0.462901,-0.207328,46,279,578,6128
1644180321.03283,-0.009155,0.009155,-0.993347,0.312458,0.432366,-0.161527,53,279,583,6064
1644180321.096398,-0.008545,0.009644,-0.991516,0.205588,0.401832,-0.161527,53,271,590,6080
1644180321.129572,-0.009277,0.009888,-0.991089,0.144519,0.325496,-0.069924,57,277,582,6016
1644180321.177963,-0.008423,0.006836,-0.991943,0.205588,0.569771,-0.085191,51,271,585,6080
1644180321.226579,-0.009216,0.009338,-0.992859,0.327725,0.371298,-0.039389,41,276,580,6128
1644180321.277267,-0.011475,0.008301,-0.992126,0.449863,0.462901,-0.161527,41,264,583,6080
1644180321.327693,-0.007935,0.011047,-0.990601,0.251389,0.340763,-0.008855,51,276,585,6016
1644180321.372377,-0.007751,0.010376,-0.991882,0.113985,0.279695,-0.008855,43,269,585,6064
1644180321.468289,-0.010559,0.008362,-0.991333,0.373527,0.493435,-0.008855,47,280,577,6048
1644180321.516674,-0.00885,0.01062,-0.992065,0.312458,0.539237,-0.008855,43,281,592,6160
1644180321.565322,-0.008362,0.008728,-0.99115,0.281924,0.478168,-0.100458,47,270,575,6128
1644180321.613468,-0.009399,0.007507,-0.992126,0.342992,0.386565,-0.314198,43,274,580,6080
1644180321.661873,-0.010986,0.010864,-0.993469,0.312458,0.447634,0.036947,48,281,585,6080
1644180321.71026,-0.009583,0.010376,-0.992371,0.236122,0.340763,-0.207328,49,285,582,6048
1644180321.758629,-0.009644,0.00946,-0.992188,0.220855,0.401832,-0.100458,49,270,577,6128
1644180321.80703,-0.008301,0.006348,-0.992188,0.159786,0.233893,-0.161527,46,283,580,6112
1644180321.85544,-0.009521,0.013123,-0.991699,0.327725,0.478168,-0.130992,46,274,573,6160
1644180321.903886,-0.00824,0.007568,-0.992004,0.220855,0.356031,-0.085191,52,270,579,6112
1644180321.952273,-0.011169,0.005859,-0.992432,0.449863,0.371298,-0.054656,60,271,576,6080
1644180322.000656,-0.009644,0.008789,-0.993652,0.159786,0.264427,0.113282,48,283,585,6112
1644180322.049054,-0.010376,0.005615,-0.99408,0.251389,0.340763,-0.039389,43,279,587,6160
1644180322.101784,-0.00824,0.011292,-0.99707,0.342992,0.386565,-0.100458,54,277,577,6080
1644180322.145847,-0.010437,0.009094,-0.995361,0.205588,0.401832,-0.039389,57,277,582,6080
1644180322.194231,-0.008972,0.008362,-0.989624,0.205588,0.386565,0.098015,47,270,586,6080
1644180322.242631,-0.009521,0.007812,-0.995239,0.236122,0.478168,-0.237863,52,277,579,6016
1644180322.291001,-0.011536,0.00824,-0.989685,0.190321,0.401832,0.006412,64,275,586,6080
1644180322.339416,-0.009644,0.010559,-0.989563,0.266656,0.310229,-0.161527,51,274,573,6080
1644180322.388614,-0.011047,0.007629,-0.992065,0.220855,0.325496,-0.100458,51,266,576,6048
1644180322.439352,-0.007874,0.010376,-0.989075,0.251389,0.523969,-0.115725,47,273,577,6112
1644180322.489676,-0.008118,0.010498,-0.990479,0.205588,0.493435,-0.039389,46,279,573,6080
1644180322.533842,-0.008545,0.010376,-0.993835,0.297191,0.325496,-0.130992,61,270,579,6080
1644180322.629752,-0.01532,0.008301,-0.995178,0.220855,0.585038,-0.115725,43,269,569,6064
1644180322.678145,-0.008972,0.00769,-0.992981,0.129252,0.371298,0.021679,47,277,582,6080
1644180322.726526,-0.005798,0.009033,-0.991699,0.08345,0.310229,-0.069924,36,271,580,6128
1644180322.774925,-0.010193,0.007874,-0.992554,0.159786,0.447634,0.098015,57,280,577,6112
1644180322.823337,-0.007751,0.007202,-0.992798,0.220855,0.371298,-0.008855,55,276,583,6112
1644180322.871734,-0.008362,0.007141,-0.99231,0.159786,0.325496,-0.161527,48,276,583,6128
1644180322.920118,-0.009033,0.009277,-0.993347,0.266656,0.417099,0.021679,55,266,592,6080
1644180322.968526,-0.009216,0.010803,-0.992249,0.113985,0.417099,-0.069924,47,285,577,6128
1644180323.016868,-0.005798,0.010071,-0.992554,0.236122,0.523969,0.006412,52,280,584,6128
1644180323.072035,-0.011536,0.007141,-0.993103,0.297191,0.401832,-0.207328,42,277,575,6112
1644180323.113616,-0.008423,0.008301,-0.994995,0.35826,0.539237,-0.085191,54,273,591,6016
1644180323.162054,-0.008789,0.01062,-0.990051,0.113985,0.356031,-0.176794,47,275,575,6080
1644180323.21042,-0.009766,0.00885,-0.994385,0.404061,0.432366,-0.085191,62,281,590,6112
1644180323.258797,-0.008423,0.007629,-0.992493,0.052916,0.386565,-0.115725,39,276,585,6080
1644180323.307219,-0.010376,0.009277,-0.993286,0.220855,0.325496,-0.161527,52,268,582,6128
1644180323.355578,-0.007874,0.010864,-0.992554,0.144519,0.493435,-0.024122,46,276,578,6080
1644180323.404,-0.008911,0.008972,-0.993408,0.281924,0.417099,0.021679,51,276,583,6080
1644180323.452408,-0.00708,0.010498,-0.992126,0.190321,0.325496,-0.024122,43,276,587,6128
1644180323.500774,-0.007141,0.011414,-0.993164,0.342992,0.386565,-0.130992,51,274,576,6080
1644180323.549518,-0.008484,0.008545,-0.991333,0.251389,0.539237,-0.14626,46,274,576,6080
1644180323.599869,-0.009216,0.008911,-0.992859,0.190321,0.523969,-0.115725,49,270,579,6128
1644180323.650205,-0.006592,0.009033,-0.991028,0.159786,0.462901,-0.207328,59,268,582,6080
1644180323.695235,-0.012024,0.01062,-0.99176,0.251389,0.294962,-0.161527,57,273,584,6128
1644180323.791142,-0.010132,0.011047,-0.991577,0.159786,0.478168,-0.222595,58,269,585,6064
1644180323.839567,-0.009827,0.008911,-0.994934,0.342992,0.264427,-0.25313,51,271,573,6128
1644180323.887966,-0.010559,0.011414,-0.99054,0.159786,0.478168,-0.008855,48,293,583,6160
1644180323.936366,-0.010132,0.005493,-0.991455,0.190321,0.356031,-0.161527,59,280,584,6112
1644180323.984766,-0.009399,0.008972,-0.992432,0.129252,0.432366,-0.054656,54,273,577,6160
1644180324.033156,-0.011292,0.007874,-0.992371,0.144519,0.310229,0.052214,45,280,579,6048
1644180324.081682,-0.011292,0.005005,-0.993958,0.037649,0.386565,-0.14626,45,273,589,6160
1644180324.129904,-0.010681,0.007629,-0.992981,0.373527,0.386565,-0.222595,46,271,571,6128
1644180324.178275,-0.012024,0.009094,-0.990967,0.159786,0.447634,-0.008855,45,280,577,6112
1644180324.226666,-0.009521,0.008728,-0.989868,0.220855,0.417099,-0.207328,58,271,573,6064
1644180324.275187,-0.007568,0.008911,-0.992981,0.205588,0.432366,-0.115725,55,274,578,6080
1644180324.323464,-0.008545,0.009888,-0.994812,0.129252,0.462901,-0.039389,45,275,579,6128
1644180324.371853,-0.00769,0.008606,-0.991394,0.068183,0.417099,-0.054656,62,274,583,6080
1644180324.420238,-0.00885,0.011475,-0.990784,0.266656,0.600305,-0.069924,61,275,584,6176
1644180324.468639,-0.009155,0.010376,-0.99176,0.175053,0.356031,-0.039389,52,290,582,6080
1644180324.517025,-0.009888,0.007019,-0.991821,0.297191,0.340763,-0.085191,51,286,580,6048
1644180324.565419,-0.010132,0.009155,-0.993835,0.144519,0.356031,-0.222595,40,275,577,6080
1644180324.613805,-0.008789,0.006958,-0.996399,0.159786,0.356031,-0.069924,57,282,575,6128
1644180324.662292,-0.011475,0.009521,-0.992065,0.312458,0.523969,-0.085191,61,273,577,6080
1644180324.711214,-0.007874,0.007751,-0.992493,0.052916,0.554504,-0.039389,51,269,585,6160
1644180324.761715,-0.007812,0.007996,-0.994141,0.297191,0.447634,-0.222595,47,273,589,6160
1644180324.812962,-0.006287,0.010132,-0.993042,0.175053,0.401832,-0.14626,48,269,583,6128
1644180324.857559,-0.013,0.009827,-0.992065,0.236122,0.569771,-0.130992,52,270,584,6160
1644180324.952614,-0.010681,0.007812,-0.992004,0.144519,0.233893,-0.100458,43,279,576,6080
1644180325.000983,-0.010132,0.005737,-0.991211,0.251389,0.310229,-0.039389,46,291,583,6080
1644180325.04937,-0.01062,0.006775,-0.992554,0.175053,0.310229,-0.100458,46,279,583,6112
1644180325.097894,-0.010559,0.00824,-0.995239,0.190321,0.447634,0.036947,47,273,584,6080
1644180325.14615,-0.00708,0.008118,-0.993347,0.35826,0.478168,0.021679,39,276,583,6080
1644180325.194525,-0.008484,0.009277,-0.992859,0.297191,0.340763,-0.069924,42,280,577,6080
1644180325.242919,-0.009399,0.010132,-0.992615,0.297191,0.356031,-0.115725,51,279,585,6112
1644180325.291283,-0.012756,0.009277,-0.992004,0.236122,0.325496,0.082748,45,268,589,6080
1644180325.339665,-0.008972,0.009583,-0.991882,0.205588,0.325496,-0.085191,52,285,579,6048
1644180325.388089,-0.01062,0.010498,-0.990845,0.022382,0.356031,-0.069924,45,277,572,6080
1644180325.436454,-0.010071,0.011169,-0.990295,0.327725,0.356031,0.052214,47,277,577,6128
1644180325.484881,-0.007996,0.010559,-0.992004,0.236122,0.279695,-0.069924,49,268,579,6080
1644180325.533271,-0.005798,0.012695,-0.99353,0.281924,0.493435,-0.069924,52,277,586,6080
1644180325.581674,-0.009766,0.010498,-0.993103,0.052916,0.478168,-0.161527,47,273,577,6080
1644180325.630434,-0.007874,0.012207,-0.989685,0.129252,0.462901,0.036947,54,280,577,6112
1644180325.680638,-0.007629,0.006897,-0.990723,0.434595,0.478168,0.021679,48,274,576,6016
1644180325.730803,-0.006287,0.009399,-0.989563,0.113985,0.401832,-0.14626,55,271,583,6080
1644180325.776045,-0.011536,0.01123,-0.99292,0.236122,0.478168,-0.008855,47,270,591,6128
1644180325.872054,-0.009949,0.012207,-0.990906,0.175053,0.233893,-0.115725,48,276,580,6128
1644180325.920444,-0.008911,0.00885,-0.992371,0.190321,0.356031,-0.207328,42,270,575,6128
1644180325.968807,-0.009949,0.007935,-0.992615,0.236122,0.356031,-0.207328,59,277,575,6112
1644180326.017225,-0.008789,0.010742,-0.993103,0.159786,0.294962,-0.161527,42,277,577,6128
1644180326.066697,-0.01001,0.009766,-0.99353,0.205588,0.493435,-0.176794,52,273,591,6112
1644180326.114042,-0.009277,0.01123,-0.991577,0.312458,0.478168,0.006412,53,274,590,6128
1644180326.162373,-0.006958,0.007874,-0.993225,0.144519,0.417099,0.036947,61,270,575,6128
1644180326.210763,-0.008362,0.012573,-0.990051,0.419328,0.401832,0.036947,51,281,580,6160
1644180326.259163,-0.010742,0.010376,-0.991089,0.312458,0.432366,-0.115725,65,271,576,6128
1644180326.307527,-0.011658,0.01123,-0.991333,0.281924,0.401832,-0.008855,46,283,576,6048
1644180326.355944,-0.009888,0.009033,-0.991821,0.037649,0.386565,-0.085191,48,276,590,6128
1644180326.404347,-0.008118,0.011902,-0.990906,0.205588,0.386565,-0.085191,47,273,577,6048
1644180326.452746,-0.007751,0.008789,-0.99292,0.190321,0.493435,-0.161527,42,282,586,6160
1644180326.501122,-0.008667,0.008057,-0.990479,0.404061,0.493435,-0.008855,48,281,585,6080
1644180326.549511,-0.009155,0.008606,-0.994141,0.220855,0.340763,-0.024122,54,277,584,6080
1644180326.597866,-0.008057,0.009277,-0.992065,0.205588,0.386565,-0.130992,52,277,579,6080
1644180326.646289,-0.009399,0.009399,-0.992493,0.175053,0.325496,-0.054656,46,276,585,6128
1644180326.694688,-0.009705,0.007019,-0.989075,0.297191,0.371298,-0.130992,48,264,583,6080
1644180326.743201,-0.011475,0.008728,-0.993591,0.068183,0.462901,-0.054656,41,281,585,6080
1644180326.792021,-0.007812,0.008667,-0.991394,0.113985,0.478168,-0.161527,47,275,584,6112
1644180326.842711,-0.009705,0.013062,-0.990662,0.159786,0.417099,-0.039389,62,274,580,6080
1644180326.894394,-0.008545,0.007141,-0.992676,0.129252,0.447634,-0.115725,47,275,582,6080
1644180326.938524,-0.007019,0.011108,-0.993408,0.281924,0.325496,-0.130992,57,273,579,6064
1644180327.033474,-0.012024,0.007507,-0.988892,0.220855,0.432366,-0.008855,49,277,572,6080
1644180327.081909,-0.007751,0.009277,-0.990723,0.266656,0.310229,-0.039389,48,276,576,6112
1644180327.13024,-0.009094,0.008179,-0.990723,0.220855,0.294962,-0.039389,43,279,585,6112
1644180327.178593,-0.00946,0.010132,-0.990112,0.327725,0.371298,-0.085191,47,268,575,6080
1644180327.226966,-0.009155,0.006775,-0.991028,0.236122,0.508702,-0.14626,48,269,571,6080
1644180327.275388,-0.011841,0.007996,-0.994812,0.327725,0.310229,-0.115725,47,280,570,6160
1644180327.323789,-0.008118,0.010498,-0.992188,0.251389,0.172824,-0.14626,43,274,578,6128
1644180327.372201,-0.008179,0.008423,-0.991699,0.419328,0.264427,-0.100458,52,282,582,6128
1644180327.420574,-0.010925,0.012329,-0.992126,0.35826,0.325496,0.036947,46,274,576,6048
1644180327.468976,-0.011108,0.008362,-0.992249,0.175053,0.401832,-0.176794,46,283,571,6112
1644180327.51736,-0.011841,0.009338,-0.99408,0.281924,0.432366,-0.130992,55,269,578,6080
1644180327.565747,-0.008484,0.007324,-0.991394,0.052916,0.523969,-0.130992,49,280,579,6112
1644180327.614164,-0.01001,0.01001,-0.992371,0.297191,0.310229,-0.176794,57,270,575,6080
1644180327.662542,-0.009521,0.008362,-0.991333,0.266656,0.478168,-0.161527,48,279,585,6112
1644180327.710904,-0.00647,0.010498,-0.993958,0.159786,0.447634,-0.14626,57,280,579,6080
1644180327.7593,-0.009705,0.009216,-0.98999,0.220855,0.386565,-0.024122,52,282,582,6128
1644180327.80772,-0.008362,0.00885,-0.993164,0.404061,0.417099,-0.008855,47,273,593,6128
1644180327.856172,-0.007446,0.010376,-0.991516,0.159786,0.401832,-0.115725,54,273,584,6000
1644180327.904577,-0.008606,0.010986,-0.99115,0.113985,0.371298,-0.161527,42,270,582,6080
1644180327.954512,-0.01062,0.011292,-0.994202,0.236122,0.401832,-0.115725,52,277,579,6160
1644180328.004547,-0.008362,0.008972,-0.993042,0.266656,0.432366,-0.069924,41,279,569,6016
1644180328.077827,-0.008423,0.010925,-0.989746,0.327725,0.279695,-0.130992,51,281,587,6112
1644180328.146481,-0.008484,0.009277,-0.990906,0.236122,0.386565,-0.069924,48,274,585,6160
1644180328.194878,-0.007996,0.009033,-0.994141,0.205588,0.401832,-0.115725,48,269,580,6080
1644180328.243234,-0.010254,0.008606,-0.992004,0.312458,0.432366,-0.085191,51,276,585,6112
1644180328.291617,-0.009277,0.008484,-0.991089,0.159786,0.325496,-0.192061,46,274,590,6128
1644180328.340026,-0.009827,0.008728,-0.990967,0.220855,0.340763,0.021679,52,277,572,6128
1644180328.388422,-0.011047,0.007812,-0.990234,0.113985,0.401832,-0.130992,49,275,572,6048
1644180328.436804,-0.01178,0.008545,-0.99054,0.205588,0.493435,-0.100458,51,276,576,6080
1644180328.485268,-0.01178,0.010559,-0.994141,0.236122,0.279695,-0.100458,53,281,576,6080
1644180328.533607,-0.007568,0.010132,-0.990112,0.129252,0.325496,0.021679,51,283,571,6064
1644180328.58199,-0.009644,0.011475,-0.992065,0.159786,0.340763,-0.024122,55,279,580,6128
1644180328.630357,-0.009033,0.009766,-0.992798,0.342992,0.401832,-0.192061,41,279,573,6128
1644180328.678773,-0.008911,0.009399,-0.990051,0.251389,0.294962,-0.207328,52,275,570,6176
1644180328.727181,-0.009644,0.008911,-0.99292,0.175053,0.462901,-0.039389,57,270,586,6128
1644180328.775562,-0.009644,0.010315,-0.99115,0.266656,0.325496,-0.115725,57,270,577,6080
1644180328.823965,-0.010071,0.010986,-0.992432,0.327725,0.386565,-0.161527,52,280,584,6080
1644180328.872412,-0.010071,0.009827,-0.993408,0.266656,0.401832,-0.14626,51,269,583,6128
1644180328.920773,-0.007996,0.010986,-0.992065,0.144519,0.386565,-0.069924,54,273,577,6112
1644180328.969177,-0.010193,0.006348,-0.992615,0.220855,0.417099,-0.161527,60,279,592,6128
1644180329.017578,-0.00824,0.01001,-0.990784,0.266656,0.447634,-0.008855,46,279,571,6048
1644180329.114325,-0.01001,0.009644,-0.992859,0.205588,0.417099,-0.100458,47,275,586,6080
1644180329.162767,-0.008118,0.009827,-0.991638,0.236122,0.356031,-0.14626,48,276,587,6048
1644180329.211104,-0.011658,0.008179,-0.992004,0.220855,0.417099,-0.130992,55,286,583,6160
1644180329.259468,-0.012695,0.010864,-0.992676,0.419328,0.371298,-0.161527,61,263,593,6160
1644180329.307883,-0.009338,0.01178,-0.993835,0.205588,0.371298,0.052214,49,273,584,6064
1644180329.356268,-0.00708,0.011047,-0.992371,0.251389,0.554504,-0.130992,59,277,584,6080
1644180329.404686,-0.009583,0.009216,-0.993774,0.220855,0.462901,0.021679,49,265,589,6176
1644180329.453075,-0.00824,0.009888,-0.991943,0.327725,0.401832,0.006412,46,276,576,6048
1644180329.501434,-0.008057,0.006958,-0.992676,0.159786,0.493435,0.052214,54,275,575,6080
1644180329.549833,-0.010559,0.011108,-0.992554,0.327725,0.447634,-0.039389,60,269,578,6080
1644180329.598233,-0.008484,0.010498,-0.989685,0.281924,0.478168,0.006412,60,281,585,6000
1644180329.646632,-0.008301,0.010986,-0.992126,0.098718,0.493435,-0.039389,48,288,580,6112
1644180329.695141,-0.009521,0.01123,-0.99353,0.373527,0.401832,0.006412,48,276,578,6080
1644180329.743428,-0.009705,0.008423,-0.992615,0.327725,0.264427,-0.069924,48,286,580,6112
1644180329.791806,-0.007263,0.01062,-0.994324,0.205588,0.432366,0.006412,53,279,578,6080
1644180329.840198,-0.011108,0.008789,-0.992432,0.312458,0.386565,-0.069924,52,277,579,6016
1644180329.888624,-0.008362,0.007202,-0.992493,0.052916,0.386565,-0.008855,47,275,584,6064
1644180329.937033,-0.007141,0.007874,-0.992188,0.35826,0.294962,-0.008855,42,273,582,6080
1644180329.985451,-0.011536,0.009888,-0.989746,0.190321,0.508702,-0.024122,51,279,583,6128
1644180330.034969,-0.009583,0.009705,-0.993896,0.098718,0.432366,-0.085191,65,274,578,6080
1644180330.08878,-0.011658,0.011292,-0.992188,0.327725,0.447634,-0.008855,53,269,580,6080
1644180330.134259,-0.010925,0.010803,-0.992371,0.251389,0.417099,-0.100458,53,264,578,6048
1644180330.179281,-0.009705,0.010315,-0.993774,0.266656,0.554504,-0.176794,52,277,582,6128
1644180330.275719,-0.00885,0.009094,-0.991882,0.281924,0.356031,0.006412,43,279,580,6080
1644180330.324131,-0.007263,0.007874,-0.993103,0.342992,0.340763,-0.130992,42,268,579,6128
1644180330.372532,-0.013672,0.009583,-0.991577,0.404061,0.279695,0.036947,60,271,569,6080
1644180330.420911,-0.011047,0.01239,-0.99408,0.144519,0.386565,-0.069924,53,276,580,6016
1644180330.469295,-0.006409,0.009888,-0.991821,0.205588,0.478168,-0.069924,53,271,592,6160
1644180330.517694,-0.009399,0.009216,-0.990845,0.129252,0.401832,-0.237863,54,287,577,6112
1644180330.566083,-0.008118,0.010925,-0.992981,0.190321,0.493435,-0.115725,47,282,577,6080
1644180330.614486,-0.006836,0.00824,-0.992432,0.098718,0.478168,-0.100458,42,280,570,6064
1644180330.662888,-0.008057,0.009216,-0.991455,0.281924,0.432366,0.067481,49,273,589,6064
1644180330.711248,-0.008484,0.008728,-0.989807,0.205588,0.462901,-0.054656,48,271,587,6080
1644180330.759638,-0.010803,0.007996,-0.993286,0.404061,0.386565,-0.054656,55,279,583,6080
1644180330.808096,-0.009399,0.008728,-0.990356,0.098718,0.325496,-0.054656,57,275,584,6128
1644180330.856473,-0.004517,0.007812,-0.993347,0.312458,0.356031,-0.207328,48,279,580,6128
1644180330.904863,-0.008362,0.010498,-0.991821,0.281924,0.447634,-0.054656,47,263,582,6080
1644180330.953268,-0.00885,0.006714,-0.991272,0.205588,0.432366,-0.329466,49,280,584,6112
1644180331.001621,-0.00946,0.006226,-0.992126,0.144519,0.523969,-0.14626,58,276,585,6048
1644180331.050042,-0.011597,0.008484,-0.990967,0.220855,0.401832,-0.161527,49,282,589,6112
1644180331.102354,-0.010132,0.009033,-0.991821,0.144519,0.493435,-0.176794,58,264,585,6080
1644180331.14677,-0.006165,0.009155,-0.991028,0.144519,0.447634,-0.008855,53,269,583,6160
1644180331.196383,-0.010376,0.008484,-0.989258,0.220855,0.447634,-0.039389,47,275,582,6064
1644180331.245842,-0.010559,0.008972,-0.994995,0.190321,0.447634,-0.207328,57,275,577,6080
1644180331.296379,-0.008789,0.011353,-0.991028,0.190321,0.432366,-0.100458,49,273,582,6112
1644180331.341206,-0.011841,0.009827,-0.99292,0.113985,0.401832,-0.176794,48,257,580,6048
1644180331.437133,-0.010559,0.007507,-0.993103,0.205588,0.585038,0.006412,48,262,580,6128
1644180331.485517,-0.007568,0.010376,-0.990723,0.281924,0.401832,-0.039389,52,280,572,6080
1644180331.533933,-0.011353,0.009094,-0.991577,0.175053,0.386565,0.052214,52,270,570,6128
1644180331.582382,-0.00946,0.007507,-0.994324,0.281924,0.371298,-0.100458,53,266,578,6080
1644180331.630716,-0.006958,0.008789,-0.991333,0.220855,0.401832,0.021679,55,274,571,6112
1644180331.679109,-0.013916,0.008728,-0.990479,0.022382,0.493435,0.036947,51,279,587,6128
1644180331.727504,-0.006897,0.010193,-0.994507,0.281924,0.585038,-0.192061,43,281,580,6000
1644180331.775886,-0.009766,0.008545,-0.99353,0.297191,0.432366,-0.039389,42,282,584,6048
1644180331.82434,-0.008911,0.009644,-0.994446,0.205588,0.264427,-0.130992,47,277,577,6080
1644180331.872738,-0.010498,0.00769,-0.991455,0.220855,0.386565,-0.100458,43,274,578,6112
1644180331.921127,-0.006592,0.007935,-0.990906,0.266656,0.523969,-0.130992,58,279,578,6128
1644180331.969498,-0.009033,0.007385,-0.993164,0.098718,0.447634,-0.054656,52,280,575,6112
1644180332.017889,-0.01062,0.013245,-0.993774,0.266656,0.462901,0.052214,48,279,576,6080
1644180332.07712,-0.008179,0.007507,-0.991333,0.297191,0.462901,-0.085191,51,281,579,6112
1644180332.114676,-0.010254,0.010925,-0.990906,0.327725,0.432366,-0.085191,51,279,592,6176
1644180332.163051,-0.008972,0.010376,-0.990845,0.251389,0.386565,-0.176794,41,274,576,6112
1644180332.211429,-0.010315,0.009338,-0.994141,0.205588,0.371298,-0.069924,49,273,589,6080
1644180332.259851,-0.008911,0.009949,-0.990601,0.068183,0.462901,-0.161527,41,274,578,6112
1644180332.30991,-0.008545,0.008057,-0.993591,0.251389,0.371298,-0.115725,35,285,586,6080
1644180332.360548,-0.009949,0.009949,-0.994141,0.297191,0.432366,-0.100458,47,273,579,6128
1644180332.405258,-0.009949,0.010559,-0.98938,0.190321,0.569771,-0.161527,49,268,586,6080
1644180332.501781,-0.010376,0.010864,-0.990051,0.205588,0.401832,-0.130992,43,293,580,6080
1644180332.550173,-0.011353,0.009033,-0.99231,0.236122,0.340763,-0.100458,51,279,578,6080
1644180332.598561,-0.011475,0.01062,-0.991272,0.205588,0.478168,-0.100458,48,276,578,6080
1644180332.646961,-0.01001,0.006287,-0.992798,0.190321,0.493435,-0.14626,58,281,583,6048
1644180332.695344,-0.009399,0.011536,-0.993713,0.266656,0.264427,-0.161527,48,269,580,6080
1644180332.743763,-0.010803,0.008606,-0.992493,0.190321,0.417099,0.021679,48,283,576,6080
1644180332.79236,-0.012268,0.01062,-0.991028,0.281924,0.417099,-0.344733,55,274,580,6080
1644180332.840582,-0.008545,0.009766,-0.991333,0.342992,0.432366,-0.054656,53,266,571,6112
1644180332.888951,-0.007751,0.010864,-0.991638,0.266656,0.356031,-0.085191,48,271,580,6080
1644180332.93733,-0.007385,0.009033,-0.989929,0.266656,0.340763,-0.176794,49,265,577,6160
1644180332.985743,-0.009644,0.01123,-0.990906,0.297191,0.371298,-0.130992,51,279,587,6080
1644180333.034173,-0.010803,0.00885,-0.990906,0.205588,0.371298,-0.25313,48,276,590,6048
1644180333.091992,-0.008911,0.007568,-0.990417,0.144519,0.417099,-0.054656,53,266,587,6128
1644180333.130867,-0.011902,0.005615,-0.993225,0.175053,0.478168,-0.115725,53,269,585,6128
1644180333.179275,-0.009094,0.010132,-0.992981,0.495664,0.462901,-0.039389,46,279,580,6128
1644180333.227673,-0.009338,0.009827,-0.990234,0.08345,0.508702,0.036947,53,264,583,6112
1644180333.276085,-0.008362,0.00824,-0.993225,0.129252,0.432366,-0.130992,52,275,589,6064
1644180333.326241,-0.006348,0.008667,-0.991821,0.098718,0.447634,-0.268397,40,273,586,6048
1644180333.376497,-0.010559,0.01123,-0.993896,0.159786,0.417099,-0.024122,46,281,585,6080
1644180333.421456,-0.01001,0.009827,-0.991943,0.297191,0.478168,-0.100458,36,281,576,6128
1644180333.518006,-0.012085,0.009399,-0.99054,0.281924,0.585038,-0.237863,52,277,586,6128
1644180333.566394,-0.00708,0.007996,-0.993958,0.129252,0.356031,0.006412,48,283,578,6080
1644180333.614871,-0.008484,0.009521,-0.991333,0.236122,0.340763,-0.054656,47,275,577,6080
1644180333.663212,-0.007935,0.009155,-0.990417,0.373527,0.447634,0.036947,53,276,585,6160
1644180333.71159,-0.01123,0.010071,-0.99054,0.220855,0.523969,-0.069924,38,270,577,6128
1644180333.75996,-0.007263,0.009033,-0.994629,0.251389,0.447634,-0.008855,46,279,578,6128
1644180333.808375,-0.009521,0.01001,-0.992004,0.236122,0.523969,0.021679,51,279,573,6064
1644180333.856815,-0.008423,0.009827,-0.991272,0.098718,0.401832,0.052214,48,264,583,6160
1644180333.905279,-0.008667,0.010193,-0.991699,0.190321,0.356031,-0.039389,54,273,577,6112
1644180333.953559,-0.00946,0.009766,-0.992737,0.35826,0.325496,0.067481,47,280,577,6128
1644180334.001977,-0.008423,0.012207,-0.990662,0.159786,0.386565,-0.054656,39,266,573,6080
1644180334.059688,-0.008301,0.010864,-0.99176,0.434595,0.203359,-0.207328,48,269,583,6080
1644180334.099128,-0.009644,0.008545,-0.993286,0.297191,0.264427,-0.039389,57,275,575,6080
1644180334.147098,-0.009949,0.009827,-0.991577,0.312458,0.478168,-0.085191,45,275,577,6080
1644180334.195519,-0.01178,0.007202,-0.992371,0.205588,0.325496,-0.100458,51,281,580,6128
1644180334.243912,-0.008728,0.012268,-0.989075,0.251389,0.203359,0.113282,46,281,587,6128
1644180334.292323,-0.009155,0.007935,-0.994568,0.113985,0.478168,-0.161527,45,270,570,6112
1644180334.340788,-0.008911,0.009033,-0.993713,0.159786,0.478168,0.052214,58,281,585,6128
1644180334.389087,-0.008423,0.008057,-0.993347,0.190321,0.310229,-0.115725,49,275,584,6080
1644180334.437775,-0.011597,0.009399,-0.992188,0.312458,0.325496,-0.100458,43,274,592,6048
1644180334.488239,-0.006592,0.009216,-0.993164,0.373527,0.432366,-0.176794,40,273,589,6128
1644180334.538373,-0.008606,0.009949,-0.991455,0.251389,0.24916,-0.161527,54,275,582,6112
1644180334.58339,-0.010925,0.007568,-0.993164,0.220855,0.340763,-0.115725,52,273,577,6112
1644180334.679431,-0.008972,0.008972,-0.995056,0.266656,0.218626,-0.130992,52,277,579,6128
1644180334.727817,-0.006958,0.007141,-0.992004,0.159786,0.447634,-0.176794,51,281,585,6176
1644180334.776209,-0.009766,0.006287,-0.99469,0.159786,0.386565,-0.207328,51,271,583,6128
1644180334.824846,-0.00946,0.008606,-0.991516,0.312458,0.279695,-0.130992,45,282,577,6080
1644180334.873099,-0.011475,0.011108,-0.993408,0.46513,0.386565,-0.268397,53,271,583,6080
1644180334.921444,-0.009949,0.009338,-0.993469,0.312458,0.386565,-0.314198,53,281,569,6112
1644180334.969835,-0.008484,0.012207,-0.992493,0.098718,0.371298,-0.130992,48,266,583,6048
1644180335.01824,-0.009094,0.010132,-0.991028,0.129252,0.493435,-0.085191,53,279,580,6128
1644180335.06722,-0.009094,0.010437,-0.991028,0.098718,0.539237,-0.25313,61,268,586,6064
1644180335.11518,-0.006897,0.010254,-0.991821,0.266656,0.401832,-0.115725,52,285,582,6080
1644180335.163391,-0.01001,0.007446,-0.993164,0.129252,0.371298,-0.008855,42,280,584,6048
1644180335.211733,-0.007141,0.008789,-0.992126,0.175053,0.447634,-0.024122,48,257,578,6128
1644180335.260137,-0.011169,0.008484,-0.99115,0.312458,0.371298,0.036947,52,280,579,6112
1644180335.308563,-0.008301,0.009216,-0.992004,0.205588,0.417099,0.036947,47,285,584,6128
1644180335.356914,-0.010559,0.011902,-0.993103,0.113985,0.340763,-0.222595,46,276,585,6128
1644180335.405329,-0.010376,0.009644,-0.993164,0.236122,0.157557,-0.024122,43,271,587,6080
1644180335.453714,-0.008606,0.008667,-0.990662,0.175053,0.417099,0.006412,47,270,584,6112
1644180335.502167,-0.007507,0.005981,-0.993286,0.08345,0.432366,-0.161527,60,269,583,6160
1644180335.550707,-0.01001,0.009338,-0.995056,0.129252,0.523969,-0.298931,47,285,586,6160
1644180335.601016,-0.007141,0.006836,-0.990601,0.144519,0.386565,-0.100458,43,274,576,6128
1644180335.651258,-0.008972,0.012329,-0.991028,0.129252,0.417099,-0.024122,45,273,584,6128
1644180335.696384,-0.010559,0.010376,-0.994873,0.129252,0.432366,-0.054656,54,275,577,6080
1644180335.792487,-0.009155,0.009583,-0.992798,0.220855,0.447634,-0.130992,52,277,582,6112
1644180335.840843,-0.005066,0.010864,-0.99115,0.236122,0.401832,-0.054656,62,276,594,6080
1644180335.889276,-0.009033,0.011719,-0.990051,0.297191,0.386565,-0.161527,57,277,582,6160
1644180335.93766,-0.009399,0.010376,-0.99176,0.113985,0.24916,-0.283664,47,277,579,6048
1644180335.986072,-0.011597,0.008972,-0.993469,0.205588,0.432366,-0.14626,61,275,593,6048
1644180336.034482,-0.009277,0.007324,-0.990662,0.037649,0.462901,-0.024122,51,279,576,6160
1644180336.084832,-0.009155,0.009521,-0.991577,0.266656,0.462901,-0.100458,53,281,590,6064
1644180336.131282,-0.010681,0.009338,-0.99115,0.159786,0.356031,-0.130992,47,275,589,6128
1644180336.179611,-0.011902,0.009033,-0.993408,0.312458,0.279695,-0.25313,52,275,584,6080
1644180336.228013,-0.010681,0.008545,-0.993958,0.190321,0.401832,-0.14626,52,277,575,6112
1644180336.276372,-0.009705,0.007446,-0.993286,0.159786,0.386565,0.052214,41,281,578,6080
1644180336.324806,-0.013123,0.01123,-0.993591,-0.038687,0.386565,-0.024122,43,276,585,6080
1644180336.373198,-0.007141,0.010193,-0.98938,0.327725,0.340763,-0.008855,52,273,589,6128
1644180336.421566,-0.010742,0.012146,-0.990845,0.35826,0.447634,-0.069924,48,276,583,6080
1644180336.469961,-0.007202,0.012817,-0.991638,0.251389,0.539237,-0.115725,51,279,585,6080
1644180336.518357,-0.007751,0.008911,-0.992126,0.129252,0.447634,0.021679,51,291,580,6128
1644180336.566754,-0.010437,0.009644,-0.989868,0.068183,0.493435,0.052214,51,286,580,6048
1644180336.615179,-0.009827,0.010376,-0.990173,0.251389,0.325496,-0.008855,46,274,585,6112
1644180336.663558,-0.008362,0.008911,-0.989929,0.495664,0.386565,-0.054656,54,273,575,6128
1644180336.713368,-0.01123,0.010254,-0.993164,0.297191,0.264427,-0.100458,55,269,587,6112
1644180336.763664,-0.006042,0.013977,-0.992249,0.190321,0.294962,-0.192061,43,276,590,6128
1644180336.813648,-0.008545,0.009155,-0.994446,0.266656,0.554504,-0.130992,57,265,584,6016
1644180336.905545,-0.009827,0.008362,-0.990601,0.312458,0.585038,-0.069924,59,277,586,6112
1644180336.953954,-0.007874,0.008545,-0.990173,0.205588,0.401832,-0.039389,45,273,584,6128
1644180337.002424,-0.010315,0.005676,-0.994446,0.159786,0.294962,-0.192061,46,266,580,6160
1644180337.062366,-0.010071,0.01062,-0.991455,0.297191,0.585038,-0.008855,52,275,584,6080
1644180337.104751,-0.010376,0.006775,-0.995056,0.236122,0.432366,-0.024122,48,279,585,6080
1644180337.147492,-0.011475,0.010681,-0.993042,0.098718,0.340763,-0.115725,48,281,580,6064
1644180337.195851,-0.011536,0.008057,-0.992859,0.236122,0.401832,-0.085191,47,277,586,6016
1644180337.244251,-0.010071,0.009338,-0.994812,0.373527,0.24916,-0.192061,47,282,575,6160
1644180337.29266,-0.009277,0.013916,-0.994873,0.159786,0.523969,-0.130992,51,279,587,6160
1644180337.341015,-0.00885,0.012024,-0.989929,0.129252,0.325496,0.021679,51,276,583,6128
1644180337.389393,-0.009644,0.009521,-0.992859,0.220855,0.462901,-0.115725,42,275,589,6112
1644180337.437811,-0.010925,0.008789,-0.99231,0.236122,0.371298,-0.283664,57,277,593,6128
1644180337.486499,-0.009583,0.012756,-0.992737,0.281924,0.432366,0.006412,46,276,585,6160
1644180337.535501,-0.010742,0.008484,-0.991028,0.281924,0.264427,-0.130992,49,277,586,6128
1644180337.586108,-0.009705,0.007324,-0.991882,0.312458,0.325496,-0.024122,45,280,584,6192
1644180337.636222,-0.011597,0.005676,-0.993958,0.205588,0.401832,-0.176794,52,275,575,6112
1644180337.728158,-0.011047,0.006958,-0.993286,0.35826,0.478168,-0.085191,54,277,584,6080
1644180337.776549,-0.011108,0.005981,-0.994629,0.175053,0.432366,-0.161527,57,277,582,6160
1644180337.8252,-0.009277,0.009583,-0.992493,0.220855,0.386565,-0.085191,52,275,582,6112
1644180337.873546,-0.010925,0.007935,-0.992004,0.266656,0.417099,-0.069924,46,276,583,6080
1644180337.92178,-0.012207,0.008911,-0.994019,0.037649,0.310229,-0.192061,55,264,587,6160
1644180337.970179,-0.006226,0.010193,-0.993408,0.144519,0.401832,-0.039389,55,276,571,6128
1644180338.018562,-0.007141,0.011169,-0.994568,0.236122,0.371298,-0.069924,41,274,587,6112
1644180338.067741,-0.010376,0.006287,-0.994446,0.220855,0.356031,-0.207328,53,283,592,6112
1644180338.115302,-0.009766,0.006165,-0.991211,0.251389,0.386565,-0.130992,55,274,590,6064
1644180338.163709,-0.008789,0.007874,-0.991638,0.266656,0.401832,-0.130992,54,285,589,6112
1644180338.212207,-0.008972,0.007935,-0.988159,0.236122,0.371298,-0.115725,53,281,585,6048
1644180338.260478,-0.009705,0.009521,-0.994812,0.266656,0.310229,-0.14626,45,282,582,6176
1644180338.308868,-0.009155,0.009277,-0.990173,0.159786,0.371298,-0.069924,51,276,583,6016
1644180338.357245,-0.00946,0.008423,-0.990723,0.251389,0.554504,-0.039389,52,277,572,6112
1644180338.405663,-0.011108,0.010376,-0.994324,0.144519,0.447634,-0.069924,38,273,589,6128
1644180338.45406,-0.005188,0.010986,-0.989746,0.052916,0.493435,-0.039389,52,273,584,6112
1644180338.502436,-0.009827,0.009399,-0.992981,0.373527,0.432366,-0.115725,52,285,584,6080
1644180338.550816,-0.009399,0.007446,-0.992615,0.266656,0.264427,-0.115725,52,285,582,6112
1644180338.599227,-0.010559,0.011047,-0.992981,0.144519,0.386565,-0.069924,48,283,578,6064
1644180338.647854,-0.010376,0.010193,-0.991638,0.266656,0.432366,-0.100458,43,281,587,6016
1644180338.698363,-0.007446,0.010315,-0.990234,0.312458,0.493435,-0.085191,55,274,585,6128
1644180338.748488,-0.010132,0.010437,-0.990967,0.312458,0.294962,0.021679,46,279,583,6112
1644180338.793536,-0.008179,0.008728,-0.992981,0.113985,0.569771,-0.207328,46,274,585,6080
1644180338.889631,-0.005798,0.008362,-0.992188,0.220855,0.401832,-0.039389,46,288,587,6128
1644180338.938016,-0.010986,0.006836,-0.99469,0.159786,0.340763,-0.054656,47,275,577,6048
1644180338.986391,-0.009155,0.011047,-0.990479,0.098718,0.523969,-0.115725,43,279,585,6128
1644180339.034873,-0.01178,0.007935,-0.992737,0.251389,0.386565,-0.161527,42,275,582,6080
1644180339.083275,-0.008667,0.009155,-0.993347,0.220855,0.371298,-0.237863,47,275,589,6016
1644180339.131552,-0.007385,0.008667,-0.995728,0.175053,0.401832,-0.008855,55,269,592,6128
1644180339.179958,-0.010864,0.010925,-0.991028,0.342992,0.432366,-0.161527,47,285,584,6112
1644180339.228343,-0.00946,0.009888,-0.992859,0.220855,0.493435,-0.14626,61,282,584,6160
1644180339.277301,-0.010071,0.008362,-0.992371,0.113985,0.264427,-0.222595,49,273,572,6080
1644180339.325238,-0.01062,0.007446,-0.994141,0.129252,0.340763,0.006412,49,285,584,6112
1644180339.373537,-0.006531,0.0047,-0.992798,0.068183,0.264427,-0.222595,54,275,579,6128
1644180339.421909,-0.010742,0.008362,-0.990845,0.281924,0.508702,-0.100458,51,281,585,6112
1644180339.470307,-0.010254,0.011292,-0.994629,0.266656,0.310229,-0.130992,49,280,572,6128
1644180339.518697,-0.008667,0.00824,-0.992004,0.113985,0.294962,-0.024122,51,271,594,6016
1644180339.567091,-0.00824,0.00885,-0.993347,0.159786,0.233893,-0.192061,45,290,593,6160
1644180339.615449,-0.008972,0.009766,-0.993103,0.35826,0.417099,-0.176794,48,271,587,6128
1644180339.663874,-0.008362,0.008911,-0.99353,0.144519,0.401832,-0.054656,52,275,584,6080
1644180339.712275,-0.00946,0.007751,-0.992859,0.129252,0.554504,-0.192061,51,276,583,6112
1644180339.76064,-0.010803,0.00824,-0.990173,0.129252,0.386565,-0.039389,58,281,578,6080
1644180339.809415,-0.00885,0.010742,-0.993774,0.526198,0.356031,-0.100458,45,273,577,6160
1644180339.860336,-0.011658,0.009216,-0.9953,0.251389,0.417099,-0.130992,53,279,573,6128
1644180339.910763,-0.010132,0.00824,-0.99408,0.312458,0.432366,-0.100458,51,276,578,6064
1644180339.955544,-0.008545,0.009277,-0.992554,0.159786,0.462901,-0.054656,55,288,583,6048
1644180340.0677,-0.012024,0.010315,-0.991394,0.297191,0.432366,-0.008855,45,270,589,6176
1644180340.100685,-0.010742,0.006714,-0.990906,0.342992,0.218626,-0.130992,51,279,590,6112
1644180340.147792,-0.008911,0.009827,-0.992737,0.205588,0.585038,-0.130992,47,280,579,6128
1644180340.196177,-0.008667,0.007935,-0.99469,0.281924,0.493435,-0.192061,48,281,573,6112
1644180340.244714,-0.010193,0.007507,-0.991821,0.327725,0.554504,0.052214,58,276,571,6080
1644180340.29298,-0.008118,0.01178,-0.992798,0.175053,0.310229,-0.054656,46,276,587,6112
1644180340.341352,-0.01123,0.009338,-0.992188,0.297191,0.386565,-0.054656,49,270,584,6080
1644180340.389758,-0.007446,0.00946,-0.990112,0.266656,0.432366,-0.085191,55,274,592,6112
1644180340.438146,-0.012695,0.00946,-0.992004,0.144519,0.356031,-0.207328,48,281,580,6080
1644180340.48688,-0.010254,0.008728,-0.990356,0.327725,0.401832,-0.100458,43,281,585,6112
1644180340.537437,-0.008606,0.009705,-0.99408,0.266656,0.401832,-0.207328,47,273,575,6112
1644180340.587847,-0.010559,0.010864,-0.992493,0.175053,0.188092,0.082748,42,270,582,6112
1644180340.632661,-0.007446,0.009888,-0.990173,0.144519,0.462901,-0.115725,52,273,579,6016
1644180340.728482,-0.00708,0.012207,-0.991821,0.236122,0.646107,-0.130992,49,270,586,6080
1644180340.776879,-0.011169,0.010315,-0.992615,0.266656,0.523969,-0.100458,59,277,584,6112
1644180340.825384,-0.009338,0.010559,-0.994141,0.266656,0.493435,-0.207328,52,263,584,6048
1644180340.873697,-0.008728,0.008789,-0.990479,0.220855,0.264427,-0.115725,53,271,594,6160
1644180340.922161,-0.010071,0.009399,-0.994507,0.190321,0.294962,-0.054656,52,273,584,6064
1644180340.97051,-0.00885,0.013428,-0.991638,0.312458,0.310229,0.006412,60,274,580,6112
1644180341.018912,-0.007019,0.012329,-0.990356,0.266656,0.432366,0.052214,48,276,583,6128
1644180341.069587,-0.007141,0.008057,-0.993591,0.266656,0.401832,-0.085191,49,282,586,6080
1644180341.115636,-0.009094,0.009399,-0.989868,0.266656,0.600305,0.006412,55,266,587,6112
1644180341.164053,-0.007507,0.010376,-0.992615,0.175053,0.279695,-0.085191,45,273,584,6176
1644180341.212437,-0.009521,0.008179,-0.99115,0.159786,0.478168,-0.054656,58,269,585,6080
1644180341.260808,-0.00769,0.009277,-0.988892,0.190321,0.539237,-0.008855,55,274,580,6192
1644180341.30921,-0.006714,0.006165,-0.990845,0.266656,0.188092,-0.115725,59,277,582,6064
1644180341.357616,-0.005737,0.010376,-0.993042,0.327725,0.401832,-0.024122,57,282,579,6128
1644180341.405999,-0.009094,0.010559,-0.992798,0.08345,0.447634,-0.085191,48,283,580,6016
1644180341.454391,-0.009338,0.009827,-0.991333,0.144519,0.432366,-0.130992,54,280,586,6048
1644180341.502767,-0.009033,0.012573,-0.992493,0.297191,0.478168,-0.069924,51,283,580,6048
1644180341.551175,-0.007812,0.012329,-0.992188,0.205588,0.417099,-0.115725,53,276,585,6128
1644180341.599567,-0.009033,0.01123,-0.989075,0.129252,0.294962,-0.222595,43,286,590,6112
1644180341.648292,-0.008728,0.01062,-0.993469,0.434595,0.493435,-0.054656,52,275,575,6128
1644180341.698837,-0.009583,0.010376,-0.992493,0.251389,0.447634,-0.085191,51,269,592,6160
1644180341.74884,-0.009094,0.010681,-0.992432,0.144519,0.478168,-0.237863,52,268,584,6128
1644180341.794017,-0.007324,0.010315,-0.990295,0.08345,0.356031,-0.192061,51,283,587,6192
1644180341.889969,-0.010376,0.009216,-0.991089,0.342992,0.294962,-0.268397,47,287,577,6080
1644180341.938346,-0.00946,0.009766,-0.991455,0.190321,0.401832,-0.085191,47,270,596,6128
1644180341.98673,-0.011719,0.009155,-0.992249,0.205588,0.294962,-0.36,48,274,583,6080
1644180342.035163,-0.009583,0.009338,-0.992004,0.35826,0.24916,-0.115725,47,275,591,6112
1644180342.083702,-0.008301,0.008179,-0.993896,0.236122,0.279695,-0.054656,64,268,591,6080
1644180342.131895,-0.008789,0.009583,-0.993225,0.205588,0.294962,0.036947,51,266,587,6080
1644180342.180283,-0.011353,0.012085,-0.99176,0.297191,0.371298,-0.192061,51,291,592,6048
1644180342.228663,-0.007568,0.009888,-0.994019,0.327725,0.539237,0.098015,49,282,579,6080
1644180342.277027,-0.01178,0.008423,-0.992859,0.144519,0.432366,-0.115725,59,280,582,6112
1644180342.325446,-0.008423,0.01001,-0.991577,0.388794,0.310229,-0.085191,42,275,582,6128
1644180342.373865,-0.007751,0.011353,-0.990967,0.205588,0.233893,-0.130992,55,274,578,6080
1644180342.422268,-0.008423,0.007751,-0.99292,0.144519,0.340763,-0.039389,46,271,587,6128
1644180342.470634,-0.012207,0.010742,-0.992493,0.220855,0.462901,-0.130992,46,274,580,6080
1644180342.519031,-0.010376,0.011414,-0.99292,0.281924,0.478168,-0.008855,49,280,582,6128
1644180342.567418,-0.007751,0.008789,-0.993164,0.236122,0.554504,-0.161527,45,273,582,6112
1644180342.615814,-0.011292,0.011658,-0.994812,0.037649,0.356031,-0.14626,46,271,583,6112
1644180342.664204,-0.010132,0.008606,-0.988464,0.129252,0.508702,-0.192061,51,279,580,6080
1644180342.712582,-0.011536,0.009644,-0.99176,0.312458,0.447634,-0.192061,46,271,587,6160
1644180342.76095,-0.010132,0.010071,-0.990784,0.175053,0.264427,-0.14626,49,268,582,6112
1644180342.809685,-0.007996,0.007812,-0.992981,0.144519,0.356031,-0.054656,59,277,586,6080
1644180342.860492,-0.010925,0.005127,-0.991699,0.236122,0.585038,0.067481,53,264,590,6128
1644180342.911284,-0.011719,0.007629,-0.990723,0.220855,0.447634,-0.100458,47,275,589,6112
1644180342.955989,-0.010132,0.008972,-0.993469,0.342992,0.401832,-0.161527,47,270,575,6048
1644180343.067111,-0.012451,0.00946,-0.993042,0.220855,0.325496,0.006412,46,271,590,6160
1644180343.100856,-0.011292,0.00885,-0.992615,0.159786,0.371298,-0.161527,46,276,583,6128
1644180343.148166,-0.011719,0.009033,-0.993713,0.190321,0.462901,-0.100458,55,271,594,6128
1644180343.196523,-0.009827,0.009033,-0.993591,0.251389,0.401832,-0.024122,53,276,585,6160
1644180343.244909,-0.009705,0.009827,-0.993225,0.251389,0.462901,-0.100458,46,271,587,6112
1644180343.293302,-0.009094,0.008057,-0.99231,0.281924,0.508702,-0.039389,52,277,577,6112
1644180343.341697,-0.009277,0.010986,-0.993164,0.312458,0.401832,-0.161527,43,276,585,6080
1644180343.390088,-0.01062,0.008972,-0.992981,0.190321,0.294962,-0.069924,47,287,589,6112
1644180343.438482,-0.009155,0.009033,-0.994751,0.220855,0.356031,-0.115725,42,275,586,6064
1644180343.486852,-0.010864,0.010925,-0.99054,0.236122,0.417099,-0.161527,55,286,585,6112
1644180343.535598,-0.009949,0.007629,-0.99408,0.297191,0.325496,-0.100458,48,274,585,6224
1644180343.584549,-0.009277,0.012695,-0.992981,0.236122,0.432366,-0.237863,47,270,572,6112
1644180343.634974,-0.007263,0.008606,-0.99469,0.205588,0.264427,-0.039389,60,279,580,6112
1644180343.685073,-0.009277,0.01062,-0.993774,0.190321,0.417099,-0.069924,52,280,584,6080
1644180343.777221,-0.011597,0.007019,-0.993835,0.236122,0.340763,-0.176794,51,276,576,6080
1644180343.8256,-0.009949,0.010681,-0.993896,0.205588,0.462901,0.052214,49,282,584,6080
1644180343.874038,-0.008789,0.011597,-0.991272,0.388794,0.401832,0.006412,57,275,586,6128
1644180343.922463,-0.006653,0.009155,-0.993591,0.159786,0.340763,-0.100458,47,282,577,6112
1644180343.97084,-0.009338,0.006592,-0.994385,0.327725,0.478168,-0.085191,49,277,577,6064
1644180344.019215,-0.010864,0.01062,-0.994263,0.129252,0.478168,-0.100458,49,280,589,6128
1644180344.072025,-0.010925,0.00885,-0.994141,0.220855,0.371298,-0.14626,49,280,582,6112
1644180344.116012,-0.010193,0.007202,-0.993469,0.205588,0.371298,-0.100458,51,276,597,6128
1644180344.164331,-0.008545,0.008789,-0.991028,0.190321,0.462901,-0.115725,48,276,585,6128
1644180344.212777,-0.01123,0.006958,-0.99353,0.327725,0.356031,-0.054656,52,280,584,6128
1644180344.261155,-0.008118,0.009583,-0.995178,0.281924,0.417099,-0.130992,48,274,578,6080
1644180344.309528,-0.008911,0.00946,-0.992126,0.251389,0.386565,-0.222595,53,286,587,6112
1644180344.35795,-0.009399,0.007263,-0.993713,0.404061,0.386565,-0.039389,52,270,586,6080
1644180344.40634,-0.00885,0.008423,-0.99176,0.220855,0.417099,-0.085191,45,280,584,6080
1644180344.454736,-0.01062,0.009399,-0.990662,0.266656,0.340763,0.006412,51,288,585,6112
1644180344.503115,-0.009277,0.010742,-0.992065,0.205588,0.279695,-0.192061,51,274,585,6192
1644180344.551509,-0.010315,0.009216,-0.993958,0.08345,0.386565,-0.115725,46,279,578,6128
1644180344.59992,-0.008972,0.010376,-0.992188,0.419328,0.386565,-0.024122,57,273,596,6128
1644180344.648261,-0.008911,0.007202,-0.994141,0.236122,0.417099,-0.222595,51,276,583,6160
1644180344.696904,-0.00946,0.00769,-0.992493,0.098718,0.493435,-0.085191,54,277,579,6080
1644180344.747375,-0.009338,0.009644,-0.990234,0.373527,0.554504,-0.085191,53,283,587,6160
1644180344.798247,-0.009705,0.007324,-0.993774,0.251389,0.310229,0.036947,64,280,598,6112
1644180344.842996,-0.009521,0.007874,-0.993164,0.281924,0.508702,-0.207328,48,293,576,6048
1644180344.938688,-0.008911,0.007874,-0.991455,0.113985,0.462901,-0.161527,51,281,592,6080
1644180344.98708,-0.010864,0.006775,-0.99292,0.144519,0.401832,-0.069924,53,279,583,6048
1644180345.03547,-0.007202,0.008362,-0.992126,0.236122,0.310229,-0.115725,48,281,587,6080
1644180345.083938,-0.008911,0.009399,-0.994263,0.449863,0.417099,0.113282,47,277,584,6080
1644180345.132227,-0.009399,0.011841,-0.992432,0.205588,0.417099,-0.25313,45,265,582,6080
1644180345.180597,-0.008057,0.008545,-0.991272,0.281924,0.478168,-0.130992,55,276,583,6128
1644180345.229,-0.008423,0.00824,-0.99353,0.159786,0.386565,-0.024122,47,273,591,6016
1644180345.277355,-0.009277,0.008911,-0.991577,0.220855,0.417099,-0.130992,48,279,576,6128
1644180345.325802,-0.01062,0.009949,-0.992859,0.266656,0.417099,-0.024122,47,282,589,6080
1644180345.374186,-0.007751,0.011047,-0.992737,0.266656,0.356031,-0.008855,43,286,587,6080
1644180345.422601,-0.006287,0.009949,-0.992615,0.297191,0.447634,-0.069924,47,294,598,6016
1644180345.470971,-0.010315,0.008484,-0.991699,0.281924,0.432366,-0.161527,53,271,578,6064
1644180345.519369,-0.007141,0.007629,-0.994446,0.312458,0.371298,-0.130992,49,277,596,6016
1644180345.567761,-0.008667,0.008423,-0.993103,0.297191,0.386565,-0.054656,55,276,583,6080
1644180345.616146,-0.011292,0.009033,-0.991211,0.113985,0.401832,-0.024122,47,280,582,6080
1644180345.664528,-0.009888,0.006653,-0.992249,0.220855,0.554504,-0.161527,49,275,589,6128
1644180345.712956,-0.010193,0.009033,-0.991455,0.297191,0.340763,0.036947,51,271,583,6048
1644180345.761312,-0.010071,0.008667,-0.99176,0.312458,0.462901,-0.161527,51,276,585,6112
1644180345.809782,-0.009827,0.008118,-0.99585,0.404061,0.386565,0.082748,52,277,579,5984
1644180345.860071,-0.010437,0.008484,-0.992981,0.113985,0.325496,-0.130992,45,277,584,6080
1644180345.909802,-0.009827,0.00824,-0.989258,0.373527,0.325496,-0.115725,49,277,577,6128
1644180345.960056,-0.01355,0.006531,-0.994446,0.175053,0.371298,-0.054656,43,274,585,6080
1644180346.06886,-0.009094,0.007141,-0.990967,0.098718,0.340763,-0.130992,49,275,575,6176
1644180346.100238,-0.008423,0.007446,-0.993164,0.281924,0.371298,-0.176794,49,277,591,6064
1644180346.148452,-0.01062,0.007202,-0.992371,0.220855,0.325496,-0.100458,41,288,576,6128
1644180346.19683,-0.009949,0.009338,-0.994385,0.312458,0.386565,-0.176794,46,279,583,6128
1644180346.245242,-0.010742,0.010437,-0.993713,0.281924,0.386565,-0.100458,45,287,598,6160
1644180346.293654,-0.010986,0.010742,-0.992004,0.388794,0.417099,-0.207328,57,287,584,6080
1644180346.342005,-0.009399,0.007263,-0.990845,0.251389,0.493435,-0.115725,57,275,589,6160
1644180346.390433,-0.010559,0.008728,-0.992065,0.312458,0.264427,-0.039389,57,270,596,6128
1644180346.438815,-0.009949,0.008545,-0.993713,0.159786,0.447634,-0.192061,53,269,585,6080
1644180346.487194,-0.009521,0.007996,-0.991638,0.159786,0.386565,-0.130992,51,266,583,6128
1644180346.535591,-0.008789,0.011902,-0.993225,0.236122,0.386565,0.006412,52,277,589,6080
1644180346.585515,-0.009216,0.008972,-0.992798,0.449863,0.356031,-0.192061,41,266,578,6048
1644180346.635877,-0.011963,0.006226,-0.992554,0.159786,0.447634,-0.085191,42,282,582,6016
1644180346.686,-0.011108,0.007812,-0.992737,0.08345,0.325496,-0.176794,52,273,591,6112
1644180346.777618,-0.011292,0.007263,-0.992798,0.251389,0.478168,0.036947,40,282,584,6016
1644180346.82594,-0.007507,0.009583,-0.99176,0.144519,0.386565,-0.054656,54,282,577,6160
1644180346.874382,-0.010803,0.00946,-0.990906,0.297191,0.371298,-0.161527,45,275,575,6080
1644180346.922795,-0.009888,0.006897,-0.991028,0.220855,0.340763,0.006412,52,273,570,6128
1644180346.97117,-0.013428,0.007568,-0.994202,0.159786,0.478168,-0.085191,45,275,579,6160
1644180347.019583,-0.008301,0.006409,-0.990906,0.266656,0.432366,-0.130992,46,281,587,6080
1644180347.071071,-0.008362,0.007874,-0.991516,0.205588,0.523969,-0.008855,43,279,590,6160
1644180347.116319,-0.011108,0.009277,-0.99115,0.236122,0.401832,-0.25313,53,279,583,6224
1644180347.164713,-0.008545,0.007202,-0.99231,0.190321,0.462901,-0.008855,48,271,583,6064
1644180347.213105,-0.007568,0.009338,-0.992004,0.175053,0.432366,-0.054656,43,286,580,6080
1644180347.261754,-0.009521,0.006958,-0.992188,0.35826,0.478168,-0.054656,42,275,582,6128
1644180347.30986,-0.01178,0.008545,-0.990234,0.251389,0.447634,0.006412,51,276,590,6128
1644180347.358248,-0.013062,0.009583,-0.993042,0.266656,0.417099,-0.069924,48,279,587,6080
1644180347.406661,-0.007812,0.009705,-0.991638,0.312458,0.371298,0.006412,48,274,583,6048
1644180347.455096,-0.01123,0.008972,-0.99115,0.342992,0.432366,-0.039389,52,282,589,6016
1644180347.503433,-0.009827,0.007935,-0.991516,0.037649,0.447634,-0.054656,49,282,575,6080
1644180347.55184,-0.009155,0.010376,-0.994263,0.297191,0.371298,-0.054656,52,277,582,6160
1644180347.600227,-0.01062,0.00946,-0.99176,0.129252,0.493435,0.098015,46,274,576,6112
1644180347.648624,-0.008911,0.008545,-0.992004,0.220855,0.356031,-0.207328,43,283,604,6128
1644180347.697128,-0.01001,0.00946,-0.991577,0.266656,0.310229,-0.176794,43,274,580,6160
1644180347.747604,-0.00946,0.009827,-0.991638,0.266656,0.340763,-0.054656,46,276,580,6112
1644180347.797748,-0.011414,0.008179,-0.992737,0.236122,0.356031,0.006412,42,270,582,6112
1644180347.842841,-0.009583,0.010132,-0.994507,0.037649,0.539237,-0.100458,53,276,592,6128
1644180347.939027,-0.008545,0.006775,-0.992676,0.342992,0.432366,-0.008855,43,281,585,6112
1644180347.987412,-0.010376,0.007385,-0.993103,0.266656,0.447634,0.052214,52,275,570,6112
1644180348.035795,-0.011414,0.00824,-0.994751,0.327725,0.386565,0.021679,45,280,589,6080
1644180348.084277,-0.006042,0.012695,-0.993774,0.419328,0.371298,-0.115725,46,259,590,6064
1644180348.132614,-0.011963,0.008606,-0.991455,0.205588,0.63084,-0.115725,55,279,585,6176
1644180348.180948,-0.00885,0.007874,-0.989868,0.236122,0.386565,-0.130992,51,281,573,6128
1644180348.229342,-0.009949,0.011475,-0.992432,0.281924,0.325496,-0.130992,33,280,577,6080
1644180348.277712,-0.010254,0.006653,-0.992249,0.098718,0.417099,-0.024122,49,268,582,6128
1644180348.32614,-0.008728,0.007568,-0.990295,0.159786,0.493435,0.067481,59,275,589,6112
1644180348.374532,-0.007874,0.009583,-0.990967,0.022382,0.432366,-0.039389,47,282,579,6128
1644180348.422915,-0.00885,0.011047,-0.991882,0.281924,0.386565,-0.192061,46,269,580,6080
1644180348.471293,-0.008972,0.010315,-0.993774,0.312458,0.24916,-0.192061,57,282,584,6128
1644180348.519683,-0.011475,0.01001,-0.99176,0.281924,0.325496,0.052214,51,281,583,6080
1644180348.568093,-0.012939,0.009827,-0.992615,-0.069221,0.401832,0.006412,51,288,601,6192
1644180348.616449,-0.010742,0.008057,-0.993347,0.281924,0.401832,-0.100458,46,276,585,6064
1644180348.664878,-0.011536,0.00708,-0.993286,0.098718,0.386565,-0.192061,48,269,590,6016
1644180348.713264,-0.008484,0.008789,-0.993225,0.190321,0.417099,-0.100458,48,283,580,6080
1644180348.761654,-0.012085,0.009888,-0.992798,0.159786,0.386565,-0.192061,52,280,596,6080
1644180348.810048,-0.010193,0.009216,-0.991699,0.205588,0.508702,-0.024122,55,283,580,6080
1644180348.859138,-0.008911,0.010925,-0.992432,0.098718,0.417099,-0.039389,47,280,584,6128
1644180348.910157,-0.008667,0.01178,-0.991821,0.220855,0.371298,0.067481,53,271,576,6048
1644180348.960576,-0.010559,0.009583,-0.992065,0.08345,0.508702,-0.100458,47,268,575,6080
1644180349.004837,-0.007935,0.008057,-0.991577,0.220855,0.447634,0.021679,59,282,582,6064
1644180349.100563,-0.00946,0.008423,-0.990295,0.35826,0.371298,-0.176794,54,273,593,6160
1644180349.148837,-0.009705,0.009766,-0.990967,0.281924,0.401832,-0.130992,57,285,577,6048
1644180349.197183,-0.012634,0.010437,-0.995728,0.46513,0.325496,-0.069924,55,279,592,6160
1644180349.245578,-0.008911,0.00946,-0.992615,0.205588,0.310229,-0.024122,51,274,578,6176
1644180349.293973,-0.010437,0.010925,-0.989807,0.281924,0.478168,-0.115725,49,285,589,6128
1644180349.342391,-0.007263,0.011475,-0.98938,0.281924,0.417099,0.052214,46,281,590,6128
1644180349.390759,-0.007507,0.010742,-0.993103,0.297191,0.508702,-0.069924,48,274,578,6128
1644180349.43915,-0.007996,0.009399,-0.992249,0.281924,0.294962,0.036947,54,270,589,6160
1644180349.487534,-0.010742,0.012512,-0.992065,0.35826,0.371298,-0.069924,57,287,582,6064
1644180349.535935,-0.011047,0.007629,-0.989441,0.266656,0.264427,-0.268397,52,280,582,6128
1644180349.584334,-0.009705,0.007507,-0.991882,0.297191,0.325496,-0.161527,51,269,583,6016
1644180349.632743,-0.009338,0.009216,-0.991699,0.266656,0.493435,-0.268397,55,274,587,6080
1644180349.681112,-0.012024,0.007874,-0.991577,0.266656,0.233893,-0.100458,51,269,585,6112
1644180349.729515,-0.008484,0.011292,-0.990234,0.327725,0.401832,-0.222595,51,279,583,6176
1644180349.777878,-0.007202,0.011047,-0.990417,0.312458,0.432366,-0.039389,49,263,586,6080
1644180349.826279,-0.006897,0.011597,-0.994385,0.159786,0.417099,-0.222595,36,281,587,6176
1644180349.874738,-0.008606,0.00708,-0.990234,0.297191,0.432366,-0.130992,48,279,587,6080
1644180349.923407,-0.007141,0.00885,-0.990234,0.144519,0.417099,-0.054656,47,275,584,6080
1644180349.9716,-0.008057,0.009644,-0.989197,0.297191,0.371298,0.098015,49,277,586,6064
1644180350.021348,-0.010376,0.011536,-0.991272,0.190321,0.356031,-0.130992,51,274,576,6128
1644180350.087321,-0.005432,0.01123,-0.990295,0.342992,0.417099,-0.085191,46,274,580,6080
1644180350.165631,-0.007874,0.009033,-0.993347,0.312458,0.478168,-0.054656,45,275,591,6064
1644180350.213434,-0.00769,0.006531,-0.990356,0.205588,0.264427,-0.14626,45,277,582,6112
1644180350.26181,-0.008545,0.009094,-0.991455,-0.038687,0.279695,-0.161527,53,274,587,6160
1644180350.310201,-0.008423,0.011414,-0.991882,0.388794,0.233893,-0.085191,40,280,593,6112
1644180350.358619,-0.008972,0.008728,-0.993958,0.205588,0.478168,-0.115725,48,274,583,6112
1644180350.406993,-0.008728,0.010742,-0.991882,0.159786,0.432366,-0.161527,49,268,586,6112
1644180350.455394,-0.007751,0.010315,-0.989624,0.373527,0.371298,-0.207328,49,282,584,6160
1644180350.503764,-0.006531,0.01062,-0.990662,0.159786,0.493435,-0.039389,52,277,591,6112
1644180350.552184,-0.005615,0.011108,-0.992615,0.220855,0.432366,-0.008855,49,270,579,6064
1644180350.600573,-0.007996,0.011475,-0.992859,0.327725,0.478168,-0.069924,47,275,584,6128
1644180350.648946,-0.009094,0.008423,-0.991943,0.129252,0.447634,-0.25313,55,279,569,6048
1644180350.69736,-0.010071,0.011353,-0.993408,0.159786,0.493435,-0.100458,45,273,589,6112
1644180350.745725,-0.011475,0.011902,-0.993591,0.297191,0.478168,-0.054656,49,282,584,6128
1644180350.794151,-0.010437,0.010559,-0.992859,0.281924,0.279695,-0.008855,43,274,583,6080
1644180350.842551,-0.009705,0.010315,-0.99054,0.144519,0.264427,-0.161527,49,280,591,6128
1644180350.890967,-0.009399,0.012085,-0.992432,0.434595,0.554504,-0.085191,49,280,591,6112
1644180350.939354,-0.010254,0.009644,-0.990845,0.281924,0.325496,-0.100458,43,276,583,6080
1644180350.987799,-0.010681,0.007202,-0.990967,0.266656,0.417099,-0.085191,58,269,583,6080
1644180351.036152,-0.007263,0.010437,-0.993042,0.08345,0.371298,-0.207328,46,279,578,6176
1644180351.095412,-0.007507,0.009766,-0.993652,0.297191,0.310229,-0.115725,43,279,583,6064
1644180351.136641,-0.010071,0.007141,-0.992676,0.205588,0.356031,-0.054656,52,280,584,6128
1644180351.186945,-0.007507,0.01062,-0.993652,0.205588,0.386565,-0.085191,45,273,589,6128
1644180351.231149,-0.009705,0.011169,-0.993469,0.266656,0.340763,-0.268397,45,268,584,6080
1644180351.326472,-0.011169,0.010742,-0.993103,0.220855,0.310229,-0.039389,55,262,566,6160
1644180351.375002,-0.009338,0.008362,-0.991638,0.205588,0.447634,-0.115725,52,270,586,6128
1644180351.423298,-0.010376,0.006287,-0.993408,0.297191,0.417099,-0.176794,34,276,590,6000
1644180351.471662,-0.010376,0.007263,-0.989868,0.190321,0.432366,-0.039389,49,270,584,6176
1644180351.520031,-0.009094,0.009583,-0.994385,0.220855,0.478168,-0.069924,45,265,584,6080
1644180351.568468,-0.010803,0.009094,-0.992615,0.190321,0.462901,-0.176794,46,274,585,6128
1644180351.616847,-0.01239,0.010315,-0.991211,0.342992,0.417099,-0.130992,51,266,578,6112
1644180351.665323,-0.007874,0.008728,-0.989868,0.175053,0.310229,-0.008855,48,264,583,6000
1644180351.713644,-0.008606,0.008362,-0.991699,0.175053,0.401832,-0.161527,48,274,590,6080
1644180351.762018,-0.010559,0.010986,-0.990967,0.129252,0.386565,-0.054656,51,271,590,6080
1644180351.810415,-0.009888,0.008423,-0.991394,0.205588,0.325496,-0.085191,45,275,584,6016
1644180351.858832,-0.008728,0.01123,-0.992126,0.205588,0.203359,-0.054656,51,276,583,6080
1644180351.907213,-0.008057,0.009827,-0.991577,0.190321,0.233893,-0.115725,58,266,580,6128
1644180351.955596,-0.007751,0.008362,-0.992432,0.113985,0.600305,-0.192061,48,283,583,6128
1644180352.003962,-0.008423,0.009399,-0.991211,0.281924,0.24916,-0.008855,47,280,582,6160
1644180352.070455,-0.009216,0.007507,-0.990662,0.327725,0.447634,-0.069924,42,282,593,6112
1644180352.10534,-0.008057,0.008179,-0.99115,0.297191,0.432366,0.006412,54,270,584,6112
1644180352.149145,-0.010437,0.01001,-0.991455,0.159786,0.462901,-0.115725,39,266,585,6112
1644180352.198727,-0.006836,0.010315,-0.991577,0.175053,0.401832,-0.130992,53,274,590,6128
1644180352.247387,-0.007751,0.007507,-0.991577,0.205588,0.356031,-0.008855,52,277,589,6128
1644180352.297829,-0.008667,0.012146,-0.992004,0.419328,0.417099,0.052214,53,269,578,6048
1644180352.34783,-0.008972,0.012329,-0.989868,0.281924,0.203359,-0.115725,57,280,582,6176
1644180352.439458,-0.00885,0.009949,-0.993225,0.251389,0.310229,-0.069924,46,276,580,6080
1644180352.487846,-0.010559,0.008545,-0.99176,0.327725,0.493435,-0.069924,51,279,587,6160
1644180352.536253,-0.005798,0.012939,-0.990601,0.236122,0.279695,-0.039389,46,279,580,6080
1644180352.584849,-0.00708,0.010742,-0.990356,0.342992,0.325496,-0.115725,59,270,582,6128
1644180352.633065,-0.007324,0.008545,-0.990173,0.251389,0.401832,-0.14626,53,262,583,6128
1644180352.68145,-0.007629,0.00885,-0.991333,0.190321,0.432366,-0.130992,46,271,578,6112
1644180352.729846,-0.008484,0.011719,-0.992676,0.297191,0.417099,0.006412,48,279,587,6128
1644180352.778237,-0.010376,0.009583,-0.992493,0.190321,0.386565,-0.14626,46,276,594,6128
1644180352.826645,-0.007996,0.009949,-0.990906,0.037649,0.401832,-0.085191,47,277,586,6128
1644180352.875192,-0.008545,0.010925,-0.992371,0.236122,0.310229,-0.130992,55,279,587,6112
1644180352.923454,-0.007202,0.008179,-0.991699,0.251389,0.600305,-0.069924,49,285,579,6112
1644180352.971843,-0.009399,0.008606,-0.992981,0.297191,0.233893,-0.100458,49,280,589,6112
1644180353.020236,-0.011963,0.011902,-0.991516,0.281924,0.371298,-0.14626,47,275,589,6160
1644180353.081229,-0.007874,0.008972,-0.990417,0.281924,0.432366,-0.085191,58,279,592,6128
1644180353.116961,-0.008728,0.00946,-0.991638,0.327725,0.356031,-0.069924,49,277,586,6160
1644180353.166785,-0.00824,0.007202,-0.993103,0.190321,0.325496,-0.14626,54,270,598,6048
1644180353.217052,-0.007446,0.009827,-0.990479,0.266656,0.279695,0.021679,53,283,583,6128
1644180353.267475,-0.006836,0.011047,-0.993164,0.297191,0.233893,0.036947,53,279,587,6112
1644180353.358927,-0.007141,0.010864,-0.99115,0.220855,0.371298,-0.024122,49,275,577,6080
1644180353.407304,-0.006897,0.007141,-0.99115,0.251389,0.371298,-0.192061,55,271,585,6080
1644180353.455691,-0.007935,0.009094,-0.991943,0.129252,0.294962,0.067481,57,280,582,6128
1644180353.504122,-0.008179,0.010864,-0.993164,0.175053,0.340763,-0.115725,51,283,583,6160
1644180353.552514,-0.009705,0.012085,-0.992188,0.327725,0.432366,-0.237863,54,282,591,6128
1644180353.600873,-0.008972,0.010742,-0.989807,0.144519,0.401832,-0.008855,49,277,591,6080
1644180353.649292,-0.011536,0.008423,-0.990173,0.098718,0.523969,-0.130992,52,277,584,6128
1644180353.697682,-0.00885,0.010254,-0.98999,0.220855,0.417099,-0.054656,52,275,582,6080
1644180353.74606,-0.008057,0.009399,-0.990906,0.266656,0.447634,-0.115725,57,273,584,6128
1644180353.794481,-0.009888,0.00769,-0.990845,0.297191,0.447634,-0.085191,45,277,582,6080
1644180353.842914,-0.007874,0.008972,-0.990356,0.159786,0.356031,0.021679,51,274,583,6080
1644180353.891285,-0.006531,0.01062,-0.992798,0.129252,0.478168,-0.054656,53,269,585,6160
1644180353.939681,-0.010986,0.009033,-0.992126,0.129252,0.294962,-0.100458,51,281,576,6080
1644180353.988082,-0.006592,0.007324,-0.992249,0.220855,0.401832,-0.069924,52,275,589,6128
1644180354.03648,-0.007263,0.011841,-0.991272,0.159786,0.523969,0.159084,53,276,587,6160
1644180354.093986,-0.008789,0.007446,-0.993225,0.098718,0.310229,-0.085191,49,270,582,6112
1644180354.133213,-0.009094,0.009888,-0.99353,0.205588,0.432366,-0.222595,61,275,577,6048
1644180354.181611,-0.00708,0.009155,-0.990173,0.281924,0.356031,-0.069924,52,282,584,6128
1644180354.230044,-0.008301,0.011047,-0.990845,0.251389,0.371298,-0.039389,51,274,590,6160
1644180354.280033,-0.007019,0.009583,-0.991577,0.266656,0.462901,-0.130992,46,274,580,6112
1644180354.330314,-0.008179,0.009033,-0.99054,0.236122,0.371298,-0.207328,65,276,578,6128
1644180354.380486,-0.005066,0.009399,-0.989502,0.220855,0.447634,-0.054656,51,281,590,6080
1644180354.471978,-0.006775,0.009827,-0.99353,0.236122,0.218626,-0.069924,52,275,596,6080
1644180354.520359,-0.009827,0.008362,-0.986389,0.205588,0.340763,-0.054656,54,275,586,6080
1644180354.568755,-0.007446,0.009827,-0.991516,0.220855,0.203359,-0.100458,54,268,577,6112
1644180354.617134,-0.007202,0.011414,-0.992371,0.266656,0.539237,-0.100458,47,275,589,6064
1644180354.665528,-0.00946,0.009155,-0.992249,0.266656,0.294962,-0.085191,45,268,584,6112
1644180354.713978,-0.008545,0.011108,-0.98877,0.266656,0.371298,-0.115725,48,274,580,6112
1644180354.762346,-0.007385,0.011047,-0.992249,0.266656,0.264427,-0.024122,57,287,584,6128
1644180354.810716,-0.009094,0.009094,-0.993103,0.113985,0.371298,-0.176794,57,277,593,6080
1644180354.859147,-0.011047,0.010132,-0.99115,0.297191,0.340763,-0.054656,48,276,590,6064
1644180354.90753,-0.007629,0.01001,-0.993164,0.236122,0.325496,-0.130992,54,273,586,6128
1644180354.955928,-0.009766,0.008423,-0.990906,0.113985,0.356031,0.052214,47,275,572,6160
1644180355.004347,-0.010254,0.009644,-0.991821,0.159786,0.447634,-0.024122,52,282,586,6064
1644180355.065213,-0.010193,0.009399,-0.990784,0.236122,0.523969,-0.130992,48,286,585,6160
1644180355.101154,-0.00946,0.009216,-0.992371,0.052916,0.371298,-0.100458,48,276,583,6048
1644180355.149472,-0.00946,0.012512,-0.991333,0.205588,0.386565,-0.039389,61,280,593,6128
1644180355.197861,-0.007874,0.01001,-0.991943,0.159786,0.356031,-0.039389,55,274,590,6160
1644180355.246222,-0.00885,0.007812,-0.992432,0.251389,0.447634,-0.024122,40,285,586,6128
1644180355.294642,-0.00708,0.006836,-0.993042,0.251389,0.478168,-0.161527,46,279,587,6048
1644180355.343047,-0.01001,0.010254,-0.990784,0.251389,0.401832,-0.115725,52,270,582,6080
1644180355.391713,-0.00769,0.009399,-0.989197,0.266656,0.493435,-0.115725,54,280,586,6112
1644180355.442293,-0.011597,0.009888,-0.990906,0.220855,0.356031,-0.14626,51,288,587,6080
1644180355.492829,-0.010132,0.011475,-0.987793,0.342992,0.340763,-0.024122,42,275,586,6128
1644180355.537493,-0.007019,0.007874,-0.99115,0.281924,0.371298,-0.024122,46,271,583,6128
1644180355.633401,-0.00824,0.008911,-0.98938,0.266656,0.417099,0.067481,48,274,578,6128
1644180355.681756,-0.010376,0.007263,-0.991028,0.144519,0.447634,0.006412,45,268,584,6080
1644180355.73016,-0.011475,0.008972,-0.990967,0.220855,0.432366,0.006412,47,275,570,6064
1644180355.778566,-0.008972,0.010742,-0.99115,0.419328,0.401832,-0.008855,54,282,586,6080
1644180355.826946,-0.01001,0.008911,-0.992126,0.236122,0.462901,-0.176794,41,269,585,6128
1644180355.875387,-0.00824,0.00769,-0.993164,0.281924,0.432366,-0.207328,38,270,572,6016
1644180355.923776,-0.009277,0.00708,-0.991516,0.129252,0.447634,-0.130992,42,275,586,6128
1644180355.972192,-0.010132,0.008728,-0.993347,0.236122,0.279695,-0.069924,47,270,584,6112
1644180356.020567,-0.006653,0.006714,-0.990479,0.312458,0.432366,-0.024122,48,279,576,6128
1644180356.071284,-0.006042,0.01062,-0.990967,0.068183,0.417099,-0.054656,55,279,590,6112
1644180356.11738,-0.008057,0.010193,-0.991028,0.236122,0.417099,-0.100458,60,269,583,6112
1644180356.165702,-0.008545,0.011658,-0.992615,0.281924,0.294962,-0.008855,42,265,572,6080
1644180356.214067,-0.01239,0.012695,-0.992432,0.129252,0.371298,-0.161527,65,276,587,6192
1644180356.262492,-0.009521,0.007507,-0.99115,0.281924,0.539237,-0.176794,48,274,585,6112
1644180356.31088,-0.008179,0.009094,-0.990234,0.113985,0.371298,0.113282,47,285,584,6112
1644180356.359263,-0.007324,0.008179,-0.990662,0.220855,0.462901,-0.069924,45,282,586,6016
1644180356.407636,-0.009033,0.00708,-0.99353,0.266656,0.371298,-0.085191,47,270,582,6128
1644180356.45606,-0.00885,0.01062,-0.99115,0.404061,0.478168,-0.176794,41,276,587,6048
1644180356.504477,-0.007202,0.009277,-0.993103,0.175053,0.493435,-0.008855,55,271,587,6048
1644180356.55322,-0.008606,0.009705,-0.991394,0.312458,0.371298,-0.161527,57,273,586,6112
1644180356.60344,-0.006409,0.008789,-0.990845,0.129252,0.462901,-0.039389,53,276,583,6064
1644180356.653756,-0.006226,0.010986,-0.992065,0.236122,0.417099,0.036947,55,271,583,6080
1644180356.698613,-0.008606,0.01178,-0.991333,0.129252,0.432366,-0.054656,47,277,579,6112
1644180356.794869,-0.009583,0.010376,-0.993408,0.236122,0.508702,0.036947,60,274,585,6112
1644180356.843184,-0.009705,0.011414,-0.991272,0.220855,0.432366,0.006412,53,269,578,6080
1644180356.891606,-0.009705,0.011536,-0.992371,0.220855,0.508702,-0.161527,48,281,587,6112
1644180356.940014,-0.009155,0.006409,-0.991211,0.190321,0.356031,-0.039389,45,285,579,6128
1644180356.988424,-0.009888,0.010559,-0.992554,0.190321,0.401832,-0.054656,57,275,577,6080
1644180357.036806,-0.009399,0.009216,-0.991699,0.342992,0.386565,-0.14626,47,277,582,6128
1644180357.093367,-0.007324,0.007385,-0.990112,0.404061,0.417099,-0.085191,49,285,584,6128
1644180357.133588,-0.008301,0.009277,-0.992249,0.205588,0.386565,0.12855,57,277,586,6128
1644180357.181945,-0.01178,0.010254,-0.991638,0.266656,0.478168,-0.176794,52,280,589,6128
1644180357.230342,-0.008484,0.00824,-0.992493,0.205588,0.417099,0.021679,51,274,587,6128
1644180357.278703,-0.010986,0.008667,-0.991272,0.266656,0.432366,-0.100458,49,268,577,6016
1644180357.327096,-0.00885,0.009644,-0.991516,0.251389,0.371298,-0.054656,42,280,579,6160
1644180357.376007,-0.009399,0.007935,-0.991577,0.144519,0.462901,-0.176794,42,265,572,6112
1644180357.426657,-0.005127,0.01239,-0.992126,0.205588,0.417099,-0.100458,62,271,576,6176
1644180357.476568,-0.009094,0.009949,-0.993958,0.220855,0.386565,-0.25313,46,269,583,6112
1644180357.521717,-0.006958,0.011108,-0.993042,0.297191,0.600305,-0.14626,47,273,579,6064
1644180357.617468,-0.010742,0.009949,-0.99353,0.159786,0.386565,0.052214,48,271,590,6112
1644180357.665856,-0.010864,0.008362,-0.992004,0.220855,0.523969,-0.024122,52,273,591,6128
1644180357.714265,-0.008301,0.008606,-0.991638,0.266656,0.325496,0.006412,58,279,578,6112
1644180357.762642,-0.007874,0.009705,-0.992249,0.129252,0.462901,-0.14626,54,280,568,6128
1644180357.811044,-0.013062,0.009949,-0.991211,0.297191,0.325496,-0.176794,46,274,590,6160
1644180357.859427,-0.007141,0.011536,-0.995361,0.220855,0.462901,-0.237863,52,277,575,6080
1644180357.907853,-0.008057,0.009583,-0.988037,-0.008153,0.294962,-0.100458,55,266,587,6128
1644180357.956257,-0.009521,0.011841,-0.990173,0.236122,0.447634,-0.100458,48,276,585,6192
1644180358.004757,-0.006531,0.009705,-0.992798,0.205588,0.447634,0.036947,54,275,582,6080
1644180358.066647,-0.009155,0.010559,-0.99292,0.190321,0.310229,0.021679,52,277,575,6080
1644180358.105775,-0.008728,0.007629,-0.990112,0.312458,0.310229,-0.283664,43,281,585,6080
1644180358.149853,-0.007324,0.006287,-0.992615,0.434595,0.462901,-0.161527,51,283,583,6128
1644180358.198198,-0.007202,0.00946,-0.993042,0.281924,0.493435,-0.039389,46,276,583,6080
1644180358.246594,-0.008484,0.009583,-0.991089,0.297191,0.432366,-0.14626,45,270,579,6160
1644180358.295031,-0.008667,0.009644,-0.989685,0.205588,0.401832,-0.161527,53,279,585,6080
1644180358.343363,-0.009949,0.011597,-0.994385,0.113985,0.325496,-0.130992,41,283,585,6128
1644180358.391766,-0.008545,0.01178,-0.994812,0.251389,0.462901,-0.14626,49,277,577,6128
1644180358.440113,-0.008179,0.010437,-0.990601,0.205588,0.432366,0.052214,52,273,591,6080
1644180358.488583,-0.008118,0.009827,-0.99176,0.312458,0.188092,-0.14626,36,266,585,6016
1644180358.538806,-0.008606,0.009216,-0.993469,0.190321,0.371298,-0.192061,59,273,582,6048
1644180358.589133,-0.008728,0.007568,-0.990601,0.068183,0.310229,-0.085191,51,276,587,6160
1644180358.634174,-0.00946,0.00824,-0.99231,0.297191,0.432366,-0.161527,46,281,580,6160
1644180358.730486,-0.008606,0.009644,-0.991211,0.205588,0.340763,-0.115725,45,277,579,6080
1644180358.778884,-0.008423,0.00946,-0.994202,0.007115,0.325496,-0.192061,49,275,579,6080
1644180358.827266,-0.01001,0.009705,-0.993652,0.297191,0.279695,-0.054656,49,280,582,6080
1644180358.875674,-0.00946,0.010925,-0.990906,0.220855,0.203359,-0.008855,48,274,583,6176
1644180358.924128,-0.008728,0.005432,-0.991577,0.251389,0.401832,-0.039389,54,275,586,6128
1644180358.972529,-0.007324,0.011169,-0.990845,0.205588,0.554504,-0.207328,47,275,582,6016
1644180359.020913,-0.006653,0.01001,-0.994446,0.388794,0.478168,-0.054656,52,277,579,6128
1644180359.072956,-0.008728,0.011353,-0.989502,0.08345,0.294962,-0.100458,52,282,591,6112
1644180359.117674,-0.008972,0.010803,-0.992737,0.175053,0.401832,-0.054656,51,266,587,6112
1644180359.166035,-0.008118,0.010986,-0.990173,0.312458,0.478168,-0.161527,55,271,580,6192
1644180359.214449,-0.009766,0.012024,-0.991638,0.419328,0.569771,-0.069924,55,276,583,6080
1644180359.262811,-0.009705,0.006775,-0.994873,0.312458,0.340763,-0.024122,45,280,582,6080
1644180359.311224,-0.00824,0.011902,-0.992249,0.205588,0.310229,-0.085191,48,269,583,6080
1644180359.359573,-0.008789,0.00946,-0.992859,0.144519,0.356031,-0.069924,46,274,583,6080
1644180359.40801,-0.007263,0.010742,-0.989807,0.190321,0.356031,-0.115725,47,273,591,6176
1644180359.456397,-0.010681,0.01239,-0.990662,0.327725,0.386565,-0.054656,54,285,591,6112
1644180359.504767,-0.011475,0.010071,-0.991943,0.052916,0.356031,-0.207328,46,271,594,6112
1644180359.553189,-0.00946,0.010498,-0.993652,0.175053,0.417099,0.006412,46,296,580,6112
1644180359.601907,-0.008362,0.01001,-0.990723,0.312458,0.386565,0.006412,49,270,584,6080
1644180359.650818,-0.007385,0.011169,-0.99292,0.129252,0.600305,-0.130992,49,277,591,6080
1644180359.701431,-0.007446,0.010132,-0.990845,0.251389,0.478168,-0.130992,58,279,597,6160
1644180359.751474,-0.011108,0.009216,-0.989197,0.251389,0.401832,-0.176794,46,281,580,6080
1644180359.843586,-0.007385,0.010986,-0.993408,0.068183,0.432366,-0.069924,51,266,592,6080
1644180359.891959,-0.008789,0.007263,-0.991943,0.190321,0.386565,0.006412,57,277,572,6080
1644180359.940355,-0.006958,0.011169,-0.991211,0.175053,0.478168,0.006412,49,277,579,6112
1644180359.98872,-0.008362,0.008484,-0.991394,0.205588,0.447634,-0.069924,49,270,582,6016
1644180360.037139,-0.010132,0.009521,-0.99176,0.373527,0.386565,-0.054656,38,268,586,6080
1644180360.089865,-0.00946,0.009155,-0.99353,0.08345,0.447634,-0.069924,47,285,584,6080
1644180360.13393,-0.010193,0.009766,-0.992371,0.144519,0.371298,-0.054656,53,281,583,6064
1644180360.182289,-0.008484,0.009949,-0.990662,0.236122,0.340763,0.036947,54,273,579,6048
1644180360.23067,-0.010986,0.007935,-0.990295,0.312458,0.325496,-0.161527,45,277,584,6016
1644180360.279037,-0.009033,0.011841,-0.991638,0.129252,0.417099,-0.115725,45,280,579,6128
1644180360.327453,-0.008911,0.01178,-0.990234,0.297191,0.432366,-0.176794,48,271,592,6080
1644180360.375853,-0.009766,0.010986,-0.991577,0.098718,0.203359,-0.130992,64,275,579,6080
1644180360.42426,-0.010071,0.008545,-0.990173,0.205588,0.310229,-0.14626,47,270,584,6080
1644180360.47264,-0.007507,0.008667,-0.991638,0.175053,0.310229,0.021679,55,271,576,6112
1644180360.521038,-0.011597,0.008179,-0.993408,0.205588,0.310229,0.021679,58,286,590,6080
1644180360.569418,-0.006226,0.009766,-0.992493,0.159786,0.294962,-0.100458,54,277,593,6160
1644180360.617784,-0.006287,0.008789,-0.99408,0.297191,0.417099,-0.237863,47,273,591,6064
1644180360.666205,-0.00708,0.009216,-0.993225,0.205588,0.478168,-0.161527,51,271,587,6112
1644180360.714663,-0.009216,0.008362,-0.990112,0.144519,0.401832,-0.100458,58,274,583,6128
1644180360.763031,-0.008484,0.009705,-0.994507,0.297191,0.371298,-0.100458,58,288,573,6176
1644180360.814774,-0.009216,0.009705,-0.993103,0.266656,0.310229,-0.039389,58,283,590,6128
1644180360.864818,-0.009338,0.009827,-0.991333,0.113985,0.462901,-0.085191,53,281,585,6176
1644180360.909181,-0.009644,0.007507,-0.991943,0.297191,0.478168,-0.054656,46,269,590,6080
1644180361.005275,-0.00946,0.011597,-0.99353,0.312458,0.325496,-0.054656,48,279,578,6176
1644180361.067415,-0.005066,0.01123,-0.992432,0.205588,0.523969,-0.069924,53,276,590,6080
1644180361.101867,-0.006226,0.007812,-0.98877,0.190321,0.401832,-0.14626,58,276,594,6016
1644180361.150134,-0.00769,0.010803,-0.994507,0.220855,0.24916,-0.161527,42,277,584,6112
1644180361.199059,-0.009888,0.009583,-0.992126,0.266656,0.325496,-0.069924,43,288,578,6128
1644180361.246883,-0.007812,0.010925,-0.994324,0.281924,0.478168,0.067481,58,281,587,6128
1644180361.295299,-0.008362,0.008423,-0.989929,0.236122,0.188092,-0.14626,47,273,591,6080
1644180361.343705,-0.009277,0.010803,-0.990356,0.205588,0.401832,-0.100458,53,279,587,6160
1644180361.392201,-0.009277,0.01178,-0.991028,0.08345,0.401832,-0.176794,47,277,600,6112
1644180361.440482,-0.007629,0.009033,-0.992615,0.373527,0.233893,-0.069924,47,273,589,6048
1644180361.488871,-0.011169,0.009583,-0.991638,0.312458,0.356031,-0.14626,54,282,579,6128
1644180361.537273,-0.009888,0.012878,-0.99115,0.236122,0.401832,-0.115725,62,269,587,6064
1644180361.58564,-0.006897,0.010254,-0.992126,0.205588,0.447634,-0.176794,45,282,584,6128
1644180361.634125,-0.010193,0.011719,-0.992737,0.312458,0.233893,-0.039389,53,276,585,6064
1644180361.684563,-0.006714,0.007812,-0.992615,0.113985,0.371298,-0.024122,46,276,590,6048
1644180361.734991,-0.007996,0.008118,-0.993103,0.205588,0.356031,-0.008855,43,276,585,6112
1644180361.779953,-0.011475,0.012878,-0.995056,0.236122,0.417099,-0.054656,60,279,583,6080
1644180361.876039,-0.010864,0.009949,-0.991394,0.266656,0.417099,-0.176794,58,276,576,6128
1644180361.924439,-0.010742,0.007996,-0.989441,0.236122,0.417099,-0.024122,43,281,585,6128
1644180361.972845,-0.01123,0.00769,-0.993408,0.236122,0.401832,-0.130992,48,276,585,6160
1644180362.021226,-0.011353,0.007874,-0.992249,0.129252,0.462901,-0.222595,48,281,573,6048
1644180362.072448,-0.012634,0.008911,-0.991272,0.297191,0.432366,0.067481,40,270,584,6160
1644180362.118012,-0.01062,0.005981,-0.99292,0.159786,0.310229,-0.237863,53,281,580,6080
1644180362.166361,-0.007996,0.010986,-0.993225,0.220855,0.401832,-0.130992,38,275,584,6160
1644180362.21477,-0.011719,0.009155,-0.990845,0.312458,0.462901,-0.207328,53,274,587,6112
1644180362.263165,-0.011292,0.007141,-0.995361,0.281924,0.462901,-0.14626,45,280,582,6128
1644180362.311536,-0.005798,0.010254,-0.993408,0.159786,0.371298,-0.207328,54,275,584,6048
1644180362.359926,-0.010559,0.008789,-0.991272,0.205588,0.447634,0.006412,43,269,585,6080
1644180362.408338,-0.006226,0.007751,-0.993835,0.205588,0.340763,-0.115725,42,268,586,6048
1644180362.456733,-0.008484,0.007507,-0.989685,0.236122,0.401832,-0.039389,47,280,589,6080
1644180362.505234,-0.009094,0.008179,-0.993225,0.08345,0.447634,-0.085191,51,279,585,6080
1644180362.553513,-0.009399,0.005371,-0.994202,0.129252,0.447634,-0.115725,47,280,589,6048
1644180362.601908,-0.009033,0.010071,-0.990479,0.388794,0.386565,-0.222595,57,275,570,6112
1644180362.650294,-0.008179,0.009155,-0.993408,0.327725,0.325496,-0.069924,52,277,582,6128
1644180362.698683,-0.010071,0.009644,-0.990417,0.08345,0.432366,-0.100458,48,279,590,6080
1644180362.747048,-0.006897,0.009399,-0.98938,0.175053,0.294962,-0.161527,43,281,585,6112
1644180362.796349,-0.01178,0.008301,-0.99231,0.281924,0.24916,-0.069924,53,276,583,6080
1644180362.846085,-0.008667,0.011414,-0.991333,0.175053,0.294962,0.006412,47,268,584,6128
1644180362.897204,-0.012329,0.011047,-0.989746,0.205588,0.432366,-0.054656,53,271,587,6064
1644180362.941608,-0.008728,0.00885,-0.99231,0.205588,0.417099,-0.054656,58,271,583,6160
1644180363.03747,-0.012207,0.011597,-0.991882,0.373527,0.386565,-0.069924,54,282,586,6128
1644180363.085952,-0.010315,0.007996,-0.991882,0.144519,0.447634,-0.039389,49,273,586,6112
1644180363.13427,-0.006287,0.008362,-0.99176,0.327725,0.508702,-0.268397,40,273,579,6080
1644180363.182622,-0.007996,0.009827,-0.99054,0.037649,0.417099,-0.069924,43,279,590,6128
1644180363.231009,-0.007385,0.01178,-0.989807,0.236122,0.478168,-0.222595,45,273,584,6080
1644180363.279391,-0.008972,0.01123,-0.991821,0.098718,0.356031,-0.161527,59,275,579,6048
1644180363.327812,-0.010376,0.011353,-0.992126,0.190321,0.554504,-0.207328,54,282,579,6080
1644180363.376192,-0.008606,0.010437,-0.992004,0.190321,0.310229,-0.130992,49,282,582,6080
1644180363.424692,-0.006104,0.010254,-0.992065,0.251389,0.386565,-0.14626,46,283,592,6112
1644180363.472988,-0.008606,0.010376,-0.99469,0.190321,0.279695,-0.130992,49,270,589,6080
1644180363.52136,-0.007141,0.011047,-0.992859,0.159786,0.478168,-0.25313,46,274,569,6080
1644180363.569757,-0.010986,0.009766,-0.992798,0.312458,0.615573,0.036947,52,280,591,6128
1644180363.618143,-0.007324,0.012268,-0.991699,0.266656,0.386565,-0.115725,58,271,580,6128
1644180363.666533,-0.009216,0.00946,-0.992859,0.175053,0.218626,-0.192061,55,276,585,6080
1644180363.714911,-0.011047,0.009583,-0.990967,0.266656,0.478168,0.006412,57,273,591,6112
1644180363.763301,-0.008484,0.010132,-0.990845,0.35826,0.386565,-0.024122,48,271,585,6160
1644180363.811712,-0.008911,0.006348,-0.993042,0.251389,0.417099,-0.069924,46,276,585,6160
1644180363.860326,-0.008423,0.009033,-0.991699,0.236122,0.462901,-0.039389,55,269,587,6080
1644180363.909815,-0.0047,0.010681,-0.99231,0.175053,0.356031,-0.161527,48,279,583,6160
1644180363.960063,-0.009338,0.008362,-0.989014,0.129252,0.401832,-0.115725,49,270,584,6080
1644180364.010505,-0.008179,0.009888,-0.992493,0.190321,0.493435,-0.054656,54,273,598,6128
1644180364.080524,-0.00769,0.00824,-0.991028,0.266656,0.432366,-0.085191,46,279,585,6080
1644180364.150506,-0.008911,0.010071,-0.993774,0.113985,0.478168,-0.161527,40,273,579,6080
1644180364.198841,-0.007507,0.013062,-0.995544,0.037649,0.279695,-0.024122,47,268,579,6112
1644180364.247238,-0.011292,0.009949,-0.989502,0.236122,0.447634,-0.192061,51,276,578,6112
1644180364.295631,-0.009094,0.01123,-0.993103,0.251389,0.447634,-0.054656,58,274,583,6128
1644180364.34404,-0.009033,0.011719,-0.993896,0.175053,0.371298,-0.192061,51,271,585,6080
1644180364.39242,-0.006592,0.011047,-0.99353,0.251389,0.554504,-0.008855,58,286,576,6080
1644180364.440878,-0.009277,0.006409,-0.993164,0.190321,0.371298,-0.115725,57,275,575,6112
1644180364.489335,-0.008179,0.009338,-0.992737,0.312458,0.279695,-0.039389,59,277,582,6112
1644180364.537611,-0.009583,0.008545,-0.991699,0.098718,0.478168,-0.024122,52,280,582,6112
1644180364.586004,-0.008545,0.007019,-0.991394,0.297191,0.340763,-0.024122,51,281,573,6080
1644180364.6344,-0.009216,0.008667,-0.991272,0.190321,0.508702,-0.085191,48,271,583,6112
1644180364.682788,-0.012878,0.010803,-0.992737,0.205588,0.447634,-0.085191,58,279,578,6080
1644180364.731176,-0.009338,0.007935,-0.991516,0.251389,0.432366,-0.192061,53,269,583,6128
1644180364.779569,-0.010315,0.009216,-0.995056,0.190321,0.294962,0.006412,55,271,583,6080
1644180364.827942,-0.010559,0.010254,-0.994019,0.327725,0.325496,-0.039389,51,279,583,6160
1644180364.876393,-0.007812,0.011292,-0.993958,0.297191,0.386565,-0.192061,49,277,579,6080
1644180364.924794,-0.010376,0.007446,-0.991333,0.327725,0.493435,-0.298931,47,273,584,6080
1644180364.973184,-0.013184,0.010925,-0.990723,0.205588,0.157557,-0.130992,53,271,580,6128
1644180365.021557,-0.009827,0.01062,-0.992554,0.129252,0.432366,-0.14626,55,266,585,6080
1644180365.09991,-0.01001,0.010498,-0.994141,0.037649,0.356031,-0.039389,57,265,582,6048
1644180365.119406,-0.010132,0.007812,-0.990356,0.144519,0.539237,-0.176794,48,293,578,6176
1644180365.215339,-0.011536,0.008728,-0.991577,0.159786,0.432366,-0.25313,54,260,584,6080
1644180365.263483,-0.010437,0.008179,-0.991821,0.281924,0.493435,-0.176794,53,269,580,6160
1644180365.311866,-0.00592,0.00946,-0.992981,0.327725,0.493435,0.036947,36,274,580,6080
1644180365.360247,-0.008484,0.009521,-0.992432,0.236122,0.203359,-0.14626,57,282,570,6048
1644180365.408664,-0.009277,0.006897,-0.991211,0.251389,0.523969,-0.161527,58,269,583,6080
1644180365.457057,-0.008179,0.011353,-0.995178,0.175053,0.340763,-0.100458,42,280,579,6112
1644180365.505431,-0.010254,0.010315,-0.993774,0.144519,0.447634,-0.207328,45,282,591,6080
1644180365.553857,-0.007812,0.009399,-0.994995,0.251389,0.447634,-0.069924,53,271,585,6128
1644180365.602247,-0.008301,0.010132,-0.990906,0.281924,0.356031,-0.161527,55,269,576,6128
1644180365.650608,-0.010986,0.009521,-0.991516,0.281924,0.356031,-0.237863,52,270,577,6128
1644180365.699023,-0.007874,0.00885,-0.989685,0.266656,0.478168,-0.130992,45,277,577,6080
1644180365.747397,-0.009827,0.009155,-0.993286,0.220855,0.401832,-0.14626,57,280,586,6080
1644180365.795805,-0.009705,0.011963,-0.991089,0.098718,0.340763,0.052214,52,280,577,6112
1644180365.84422,-0.00708,0.007324,-0.991638,0.342992,0.401832,0.052214,48,279,576,6064
1644180365.892641,-0.007812,0.010254,-0.992859,0.220855,0.462901,0.021679,46,276,583,5984
1644180365.941023,-0.00946,0.010315,-0.991882,0.113985,0.233893,-0.130992,55,283,587,6176
1644180365.989411,-0.00885,0.010986,-0.989563,0.251389,0.371298,-0.085191,45,285,589,6160
1644180366.037882,-0.006775,0.009949,-0.990906,0.08345,0.233893,-0.130992,58,274,585,6128
1644180366.095958,-0.009644,0.009094,-0.992004,0.175053,0.310229,-0.100458,49,290,593,6080
1644180366.134874,-0.008667,0.007568,-0.993042,0.205588,0.447634,-0.054656,52,280,582,6160
1644180366.185221,-0.008484,0.008423,-0.990906,0.129252,0.401832,-0.054656,45,282,589,6048
1644180366.235567,-0.01001,0.009644,-0.992493,0.266656,0.401832,-0.069924,46,276,580,6128
1644180366.280567,-0.008179,0.01062,-0.99176,0.205588,0.432366,-0.298931,53,279,580,6080
1644180366.376505,-0.012634,0.010254,-0.991211,0.266656,0.447634,0.036947,54,280,577,6112
1644180366.424913,-0.009827,0.008667,-0.991394,0.205588,0.493435,-0.085191,54,282,575,6160
1644180366.4733,-0.00824,0.008179,-0.990662,0.281924,0.432366,-0.100458,43,283,587,6128
1644180366.521695,-0.008301,0.011047,-0.99115,0.251389,0.508702,-0.100458,42,280,586,6128
1644180366.570077,-0.009521,0.011902,-0.992493,0.205588,0.600305,-0.161527,52,275,577,6160
1644180366.618466,-0.009521,0.008362,-0.991516,0.205588,0.478168,-0.100458,52,282,584,6080
1644180366.666875,-0.011353,0.010986,-0.991516,0.35826,0.401832,-0.161527,41,291,592,5984
1644180366.715248,-0.009521,0.00946,-0.99176,0.220855,0.417099,0.036947,47,280,579,6160
1644180366.763667,-0.008911,0.010132,-0.99176,0.220855,0.371298,0.098015,52,273,591,6016
1644180366.812088,-0.006714,0.009216,-0.995605,0.068183,0.432366,-0.161527,45,275,589,6160
1644180366.860491,-0.007629,0.008606,-0.993652,0.281924,0.493435,-0.192061,55,269,592,6080
1644180366.908869,-0.009216,0.008484,-0.989929,0.327725,0.340763,-0.115725,53,271,587,6048
1644180366.957288,-0.009888,0.008423,-0.992493,0.220855,0.478168,-0.008855,53,281,583,6048
1644180367.005635,-0.007385,0.009705,-0.991821,0.175053,0.508702,-0.069924,55,276,583,6080
1644180367.0705,-0.009033,0.009827,-0.991821,0.220855,0.371298,0.006412,55,271,580,5984
1644180367.102643,-0.012024,0.009521,-0.990112,0.297191,0.478168,-0.100458,54,277,589,6128
1644180367.150781,-0.007324,0.010742,-0.990967,0.08345,0.401832,-0.069924,49,282,582,6160
1644180367.19918,-0.007507,0.008179,-0.993652,0.129252,0.417099,-0.14626,49,282,586,6080
1644180367.247565,-0.009216,0.00946,-0.993774,0.098718,0.478168,0.021679,52,265,586,6128
