epoch,acc_x,acc_y,acc_z,rot_x,rot_y,rot_z,mag_x,mag_y,mag_z,temp
1644165000.043424,-0.009705,0.01001,-0.989807,0.327725,0.386565,-0.130992,47,275,570,5648
1644165000.082787,-0.009033,0.00885,-0.990417,0.35826,0.523969,-0.14626,54,273,579,5584
1644165000.171911,-0.008728,0.012512,-0.994385,0.327725,0.401832,-0.14626,47,280,565,5600
1644165000.220306,-0.006897,0.010193,-0.990662,0.220855,0.493435,-0.192061,52,280,575,5584
1644165000.268705,-0.009399,0.012268,-0.993225,0.297191,0.340763,0.006412,47,268,572,5552
1644165000.317056,-0.010254,0.007996,-0.989929,0.190321,0.356031,-0.130992,46,279,564,5600
1644165000.365469,-0.010986,0.009888,-0.992493,0.190321,0.523969,-0.100458,39,274,573,5584
1644165000.413879,-0.008179,0.00885,-0.989441,0.205588,0.371298,-0.054656,55,281,573,5552
1644165000.462278,-0.009399,0.008911,-0.991638,0.312458,0.478168,0.098015,54,277,575,5632
1644165000.510657,-0.01178,0.010193,-0.991516,0.266656,0.432366,-0.222595,62,262,573,5536
1644165000.559039,-0.009949,0.008423,-0.991821,0.175053,0.325496,-0.054656,58,266,569,5600
1644165000.607428,-0.010803,0.011414,-0.991028,0.342992,0.478168,-0.085191,54,265,586,5584
1644165000.655803,-0.008118,0.008423,-0.993652,0.297191,0.417099,-0.024122,53,271,580,5584
1644165000.704224,-0.01001,0.009521,-0.99469,0.205588,0.417099,-0.039389,49,280,591,5488
1644165000.752626,-0.010925,0.011597,-0.994385,0.342992,0.401832,-0.115725,60,279,580,5632
1644165000.800992,-0.009583,0.008057,-0.98999,0.068183,0.310229,-0.069924,51,276,576,5584
1644165000.849427,-0.011353,0.006775,-0.99292,0.129252,0.508702,-0.085191,47,273,572,5584
1644165000.897814,-0.012512,0.010254,-0.992493,0.419328,0.432366,-0.024122,48,279,580,5536
1644165000.946168,-0.010498,0.009094,-0.991333,0.373527,0.386565,-0.115725,48,281,566,5552
1644165000.99465,-0.010254,0.008362,-0.991882,0.220855,0.523969,-0.161527,48,269,576,5600
1644165001.058221,-0.009766,0.008301,-0.991211,0.220855,0.432366,-0.054656,55,266,566,5584
1644165001.095256,-0.006958,0.008789,-0.992798,0.144519,0.554504,-0.207328,41,274,573,5584
1644165001.1432,-0.012207,0.007874,-0.992249,0.190321,0.447634,-0.008855,58,269,571,5648
1644165001.19229,-0.008911,0.007812,-0.992615,0.129252,0.432366,-0.329466,49,265,575,5552
1644165001.237338,-0.011047,0.009827,-0.991638,0.037649,0.462901,0.006412,52,268,582,5600
1644165001.334406,-0.010864,0.010742,-0.99054,0.113985,0.432366,-0.008855,49,270,565,5648
1644165001.381668,-0.010864,0.010132,-0.992859,0.175053,0.432366,-0.14626,55,279,569,5584
1644165001.43007,-0.009949,0.007629,-0.993103,0.068183,0.523969,-0.176794,60,276,571,5600
1644165001.478449,-0.012878,0.009033,-0.993103,0.220855,0.294962,-0.25313,47,270,572,5552
1644165001.526856,-0.007629,0.009033,-0.991699,0.297191,0.447634,-0.192061,45,275,582,5600
1644165001.575265,-0.009827,0.010254,-0.995422,0.281924,0.386565,-0.130992,53,279,583,5600
1644165001.623626,-0.010254,0.008606,-0.991516,0.175053,0.462901,-0.222595,52,273,570,5600
1644165001.672019,-0.009705,0.009644,-0.99408,0.266656,0.294962,-0.192061,45,277,579,5536
1644165001.720403,-0.009827,0.009705,-0.990356,0.190321,0.447634,-0.085191,45,268,579,5600
1644165001.768775,-0.009888,0.010681,-0.991577,0.266656,0.432366,-0.054656,47,277,579,5584
1644165001.817182,-0.010742,0.011475,-0.991272,0.35826,0.401832,-0.161527,58,274,585,5584
1644165001.865616,-0.01178,0.006836,-0.995117,0.08345,0.356031,-0.130992,49,273,572,5600
1644165001.914006,-0.013428,0.006775,-0.993652,0.144519,0.371298,-0.039389,51,269,571,5600
1644165001.962418,-0.008484,0.010803,-0.994324,0.236122,0.371298,-0.024122,51,271,585,5584
1644165002.010786,-0.011292,0.010376,-0.992065,0.144519,0.371298,-0.130992,46,283,576,5648
1644165002.082795,-0.01001,0.011719,-0.989868,0.495664,0.401832,-0.115725,45,275,579,5584
1644165002.107949,-0.011047,0.010498,-0.992371,0.236122,0.24916,-0.069924,55,266,583,5584
1644165002.158851,-0.011108,0.009644,-0.991089,0.480397,0.386565,0.036947,55,274,573,5552
1644165002.207879,-0.010742,0.009216,-0.992188,0.159786,0.310229,-0.100458,35,268,586,5536
1644165002.257854,-0.012573,0.008545,-0.992676,0.281924,0.432366,-0.085191,47,270,582,5648
1644165002.349459,-0.013428,0.008728,-0.993408,0.113985,0.432366,-0.024122,49,263,584,5584
1644165002.397857,-0.011108,0.009705,-0.991394,0.236122,0.356031,-0.207328,59,275,575,5600
1644165002.446244,-0.008362,0.012268,-0.989014,0.312458,0.417099,-0.14626,49,273,577,5584
1644165002.494859,-0.009399,0.009399,-0.993103,0.297191,0.539237,-0.192061,46,274,576,5536
1644165002.543051,-0.011963,0.008728,-0.991089,0.312458,0.508702,0.021679,58,274,569,5632
1644165002.591429,-0.010132,0.01001,-0.990295,0.236122,0.325496,0.021679,53,271,576,5536
1644165002.639825,-0.008972,0.009155,-0.990234,0.297191,0.24916,-0.176794,47,277,568,5584
1644165002.688213,-0.009766,0.008728,-0.990417,0.297191,0.432366,-0.100458,52,277,572,5600
1644165002.736593,-0.010864,0.010742,-0.990356,0.266656,0.462901,-0.130992,48,266,583,5632
1644165002.785104,-0.009338,0.01123,-0.990784,0.35826,0.462901,-0.222595,60,276,580,5664
1644165002.833405,-0.008423,0.011658,-0.989319,0.281924,0.432366,-0.14626,48,279,578,5584
1644165002.881801,-0.008179,0.01001,-0.990356,0.281924,0.539237,-0.161527,51,274,573,5552
1644165002.930213,-0.011047,0.010559,-0.988464,0.205588,0.432366,-0.085191,51,286,583,5648
1644165002.978597,-0.006775,0.01001,-0.987366,0.342992,0.462901,0.052214,57,270,577,5536
1644165003.026971,-0.01123,0.008545,-0.990906,0.205588,0.340763,-0.130992,47,268,575,5552
1644165003.075881,-0.006348,0.00769,-0.994019,0.144519,0.523969,-0.054656,52,275,584,5632
1644165003.123778,-0.012268,0.010803,-0.990601,0.220855,0.356031,-0.176794,64,275,579,5584
1644165003.172517,-0.009583,0.010559,-0.990967,0.220855,0.279695,0.006412,52,265,565,5648
1644165003.220564,-0.012695,0.009766,-0.991638,0.297191,0.432366,-0.115725,58,274,573,5584
1644165003.27064,-0.009216,0.008057,-0.98938,0.190321,0.386565,-0.100458,43,274,578,5584
1644165003.320863,-0.011169,0.011475,-0.994019,0.098718,0.356031,-0.130992,52,263,572,5584
1644165003.371054,-0.010681,0.007996,-0.990967,0.205588,0.233893,-0.054656,59,277,570,5600
1644165003.415674,-0.009827,0.009705,-0.994324,0.159786,0.401832,-0.14626,51,271,580,5584
1644165003.510869,-0.013062,0.006287,-0.992004,0.175053,0.447634,-0.115725,49,268,570,5632
1644165003.559267,-0.010071,0.009705,-0.990417,0.129252,0.371298,-0.100458,42,268,579,5552
1644165003.607672,-0.009521,0.007385,-0.990662,0.220855,0.508702,-0.237863,57,268,582,5552
1644165003.656042,-0.010681,0.010559,-0.992126,0.220855,0.447634,-0.192061,52,277,579,5600
1644165003.704466,-0.011414,0.010803,-0.99231,0.220855,0.432366,-0.008855,49,273,565,5584
1644165003.752822,-0.010132,0.010315,-0.993042,0.220855,0.340763,-0.161527,41,266,569,5600
1644165003.801239,-0.011658,0.008911,-0.992615,0.08345,0.462901,-0.207328,58,271,576,5600
1644165003.84963,-0.008728,0.008362,-0.990723,0.098718,0.493435,-0.085191,45,275,575,5600
1644165003.898005,-0.00769,0.009644,-0.992615,0.281924,0.325496,-0.008855,49,277,572,5536
1644165003.946397,-0.011536,0.008118,-0.991943,0.251389,0.356031,-0.161527,40,270,579,5648
1644165003.994785,-0.008545,0.007812,-0.993042,0.220855,0.478168,0.021679,55,281,573,5552
1644165004.05456,-0.010864,0.011169,-0.991821,0.098718,0.539237,0.067481,58,264,580,5552
1644165004.091522,-0.01062,0.006409,-0.98938,0.129252,0.340763,-0.039389,55,269,576,5600
1644165004.139926,-0.010376,0.010193,-0.99115,0.251389,0.386565,-0.14626,55,274,578,5600
1644165004.188313,-0.012756,0.006287,-0.992249,0.175053,0.356031,-0.130992,60,271,585,5648
1644165004.236667,-0.011108,0.007507,-0.992859,0.236122,0.386565,-0.085191,53,281,580,5648
1644165004.28513,-0.012024,0.012817,-0.993103,0.205588,0.371298,-0.268397,43,279,571,5600
1644165004.33348,-0.010376,0.007019,-0.991821,0.251389,0.462901,-0.192061,48,276,573,5600
1644165004.381887,-0.010315,0.007935,-0.993408,0.281924,0.401832,0.006412,41,274,578,5648
1644165004.430753,-0.01062,0.007507,-0.990601,0.129252,0.356031,-0.085191,52,268,577,5664
1644165004.481708,-0.009338,0.010498,-0.99231,0.144519,0.676641,-0.115725,43,266,571,5600
1644165004.531353,-0.008545,0.008423,-0.992859,0.297191,0.401832,-0.085191,53,274,583,5632
1644165004.576486,-0.010315,0.009033,-0.994385,0.220855,0.417099,-0.054656,45,268,579,5648
1644165004.672386,-0.010559,0.010254,-0.993652,0.144519,0.432366,0.006412,47,275,570,5584
1644165004.720574,-0.010376,0.008179,-0.993286,0.068183,0.493435,-0.130992,51,269,559,5584
1644165004.768987,-0.010498,0.006226,-0.994751,0.220855,0.340763,0.12855,59,280,577,5600
1644165004.817422,-0.010559,0.012024,-0.995667,0.266656,0.462901,0.006412,51,274,571,5648
1644165004.865806,-0.010864,0.010193,-0.992737,0.251389,0.523969,-0.130992,55,264,566,5584
1644165004.914218,-0.010742,0.012024,-0.991089,0.190321,0.310229,-0.100458,54,277,561,5648
1644165004.962605,-0.008911,0.007263,-0.991943,0.159786,0.523969,-0.024122,49,280,577,5584
1644165005.010992,-0.011658,0.008362,-0.99292,0.205588,0.523969,-0.100458,47,268,570,5584
1644165005.064818,-0.01001,0.008972,-0.991577,0.312458,0.386565,-0.268397,57,287,579,5584
1644165005.107768,-0.011658,0.010925,-0.992859,0.129252,0.508702,-0.176794,53,271,580,5536
1644165005.156111,-0.012451,0.011414,-0.991577,0.312458,0.478168,-0.176794,53,274,580,5536
1644165005.204511,-0.011169,0.008667,-0.994446,0.220855,0.401832,-0.192061,45,280,572,5536
1644165005.252911,-0.011047,0.009399,-0.992371,0.236122,0.264427,-0.115725,49,265,582,5632
1644165005.30126,-0.008728,0.009155,-0.992981,0.327725,0.386565,-0.176794,55,274,580,5584
1644165005.349653,-0.010498,0.008484,-0.99231,0.159786,0.447634,-0.14626,55,283,571,5648
1644165005.398066,-0.010315,0.009399,-0.991699,0.144519,0.554504,-0.039389,49,280,582,5584
1644165005.446446,-0.009033,0.010925,-0.994202,0.266656,0.325496,-0.069924,55,276,578,5584
1644165005.494858,-0.009766,0.009033,-0.990417,0.098718,0.417099,-0.024122,58,274,583,5584
1644165005.543286,-0.008423,0.008484,-0.993591,0.35826,0.432366,-0.207328,43,281,576,5600
1644165005.592591,-0.012268,0.009521,-0.990662,0.205588,0.356031,-0.161527,52,277,582,5536
1644165005.643115,-0.010681,0.006897,-0.991699,0.220855,0.310229,-0.237863,43,266,573,5552
1644165005.693387,-0.010437,0.008362,-0.991516,0.297191,0.386565,-0.130992,47,277,586,5552
1644165005.785672,-0.009827,0.010864,-0.991089,0.190321,0.279695,-0.161527,42,268,582,5648
1644165005.833626,-0.008118,0.010376,-0.992798,0.281924,0.417099,-0.069924,48,274,578,5648
1644165005.881998,-0.009766,0.008789,-0.992615,0.175053,0.417099,-0.115725,58,271,583,5552
1644165005.930422,-0.006348,0.009644,-0.992126,0.129252,0.417099,-0.14626,55,286,573,5600
1644165005.978776,-0.011536,0.011414,-0.99408,0.266656,0.386565,-0.115725,54,280,584,5600
1644165006.027189,-0.008972,0.009277,-0.992493,0.190321,0.508702,-0.054656,48,279,583,5552
1644165006.079927,-0.010742,0.008911,-0.992432,0.35826,0.294962,-0.039389,53,269,580,5600
1644165006.123933,-0.011475,0.010437,-0.990234,0.129252,0.188092,-0.054656,62,274,585,5600
1644165006.172322,-0.011292,0.008301,-0.991638,0.342992,0.447634,-0.069924,45,273,575,5552
1644165006.220709,-0.00946,0.01001,-0.991455,0.022382,0.371298,-0.115725,46,283,580,5600
1644165006.269071,-0.010071,0.009583,-0.993713,0.35826,0.432366,-0.176794,48,276,578,5632
1644165006.317459,-0.01123,0.008484,-0.990356,0.144519,0.417099,0.006412,55,276,578,5584
1644165006.365844,-0.010498,0.007263,-0.99115,0.190321,0.447634,-0.207328,58,271,576,5600
1644165006.414253,-0.012085,0.009583,-0.99231,0.281924,0.371298,-0.222595,60,276,573,5600
1644165006.462662,-0.008362,0.009949,-0.994873,0.251389,0.203359,-0.237863,54,280,582,5536
1644165006.511032,-0.008911,0.009583,-0.993469,0.220855,0.386565,-0.054656,49,273,577,5664
1644165006.559427,-0.012817,0.012268,-0.990723,0.220855,0.417099,-0.054656,46,281,578,5536
1644165006.607795,-0.008911,0.009583,-0.99292,0.175053,0.493435,-0.192061,48,271,576,5520
1644165006.65625,-0.008667,0.010132,-0.991089,0.312458,0.447634,-0.008855,46,274,578,5600
1644165006.706486,-0.013672,0.008423,-0.992676,0.251389,0.325496,-0.115725,47,263,579,5552
1644165006.756875,-0.009521,0.008606,-0.991516,0.297191,0.447634,0.021679,62,274,580,5552
1644165006.801926,-0.010132,0.01062,-0.990967,0.266656,0.264427,-0.085191,61,268,577,5600
1644165006.898201,-0.009827,0.011292,-0.992737,0.312458,0.386565,-0.085191,49,282,572,5520
1644165006.946582,-0.013184,0.01001,-0.990601,0.312458,0.386565,0.006412,48,274,571,5600
1644165006.995026,-0.00946,0.010315,-0.990601,0.129252,0.371298,-0.054656,47,270,579,5600
1644165007.052678,-0.009338,0.011414,-0.993652,0.220855,0.478168,-0.115725,42,270,570,5600
1644165007.092227,-0.008728,0.007263,-0.99408,0.281924,0.417099,-0.130992,42,287,579,5584
1644165007.140109,-0.010132,0.00647,-0.990479,0.327725,0.478168,-0.054656,53,276,573,5648
1644165007.188502,-0.008179,0.010376,-0.993408,0.190321,0.386565,-0.207328,62,281,573,5584
1644165007.23688,-0.01062,0.00885,-0.991821,0.297191,0.432366,-0.100458,48,266,571,5648
1644165007.285293,-0.011719,0.011047,-0.993408,0.266656,0.462901,-0.176794,51,279,583,5584
1644165007.333697,-0.009827,0.00769,-0.992371,0.312458,0.432366,-0.100458,58,262,576,5648
1644165007.382057,-0.013367,0.007751,-0.989136,0.342992,0.432366,-0.100458,62,276,573,5648
1644165007.430456,-0.011108,0.009827,-0.991577,0.281924,0.356031,-0.115725,52,277,570,5600
1644165007.478843,-0.009338,0.00946,-0.991943,0.220855,0.432366,0.052214,46,276,578,5552
1644165007.527257,-0.006104,0.008728,-0.994324,0.266656,0.356031,-0.039389,45,285,568,5648
1644165007.575624,-0.007141,0.009155,-0.991211,0.281924,0.432366,-0.130992,55,266,590,5536
1644165007.624009,-0.008789,0.009583,-0.988831,0.068183,0.371298,0.036947,54,270,579,5536
1644165007.672422,-0.007935,0.008911,-0.991028,0.342992,0.356031,-0.100458,48,279,576,5584
1644165007.721201,-0.008362,0.009155,-0.989502,0.220855,0.24916,-0.192061,51,274,569,5536
1644165007.771527,-0.007141,0.008484,-0.989258,0.205588,0.340763,-0.176794,49,265,589,5600
1644165007.822892,-0.00708,0.008972,-0.990723,0.236122,0.401832,-0.085191,52,268,572,5552
1644165007.867385,-0.011902,0.012268,-0.99292,0.327725,0.447634,-0.14626,48,274,578,5648
1644165007.962794,-0.013306,0.009399,-0.991821,0.159786,0.386565,-0.161527,47,273,582,5552
1644165008.01116,-0.010803,0.009338,-0.991821,0.388794,0.325496,-0.085191,54,270,565,5648
1644165008.059656,-0.010315,0.00769,-0.993225,0.266656,0.401832,-0.069924,46,276,583,5584
1644165008.107904,-0.010132,0.010986,-0.992126,0.297191,0.356031,-0.130992,45,277,572,5536
1644165008.156301,-0.010071,0.010315,-0.991394,0.08345,0.325496,0.036947,47,277,570,5632
1644165008.20471,-0.011353,0.009644,-0.992493,0.251389,0.417099,-0.192061,46,274,580,5584
1644165008.253071,-0.011658,0.009216,-0.993164,0.022382,0.523969,-0.008855,47,275,577,5648
1644165008.301448,-0.010803,0.010742,-0.990112,0.251389,0.386565,-0.268397,51,281,571,5584
1644165008.34987,-0.011169,0.009949,-0.990906,0.251389,0.447634,-0.039389,54,280,568,5584
1644165008.398227,-0.010132,0.008545,-0.993164,0.175053,0.325496,-0.054656,47,268,572,5600
1644165008.44665,-0.008667,0.010742,-0.989197,0.190321,0.401832,-0.14626,53,276,576,5584
1644165008.495124,-0.011292,0.008972,-0.992798,0.266656,0.432366,-0.069924,51,264,580,5600
1644165008.543453,-0.010925,0.012878,-0.991943,0.159786,0.340763,-0.192061,49,275,575,5600
1644165008.59182,-0.011963,0.010376,-0.992188,0.312458,0.325496,0.021679,53,279,573,5584
1644165008.640228,-0.011597,0.007202,-0.992676,0.388794,0.417099,-0.176794,52,265,579,5600
1644165008.688601,-0.008423,0.010071,-0.991394,0.266656,0.371298,0.021679,47,270,572,5648
1644165008.736995,-0.010254,0.011292,-0.990173,0.266656,0.325496,-0.100458,43,271,578,5648
1644165008.785376,-0.008789,0.00824,-0.991577,0.205588,0.432366,-0.085191,49,277,582,5600
1644165008.833757,-0.013123,0.008911,-0.992676,0.388794,0.417099,-0.237863,52,282,584,5648
1644165008.883399,-0.011108,0.008911,-0.991943,0.175053,0.462901,-0.192061,43,279,557,5600
1644165008.933826,-0.010742,0.006775,-0.988831,0.175053,0.294962,-0.115725,53,274,587,5584
1644165008.983648,-0.011047,0.00824,-0.99176,-0.008153,0.310229,-0.039389,51,266,566,5584
1644165009.028633,-0.010864,0.008667,-0.992249,0.251389,0.462901,-0.130992,53,281,580,5552
1644165009.124146,-0.009399,0.01001,-0.990906,0.175053,0.432366,-0.100458,52,277,570,5552
1644165009.172514,-0.008362,0.010864,-0.990417,0.144519,0.462901,-0.085191,51,271,571,5584
1644165009.220892,-0.010681,0.00946,-0.991394,0.159786,0.401832,0.052214,48,266,576,5552
1644165009.26928,-0.01001,0.010376,-0.991333,0.098718,0.386565,-0.130992,46,274,569,5584
1644165009.318156,-0.010498,0.008362,-0.989258,0.190321,0.371298,-0.039389,46,269,571,5584
1644165009.366045,-0.011841,0.008667,-0.991211,0.175053,0.462901,-0.039389,48,271,585,5600
1644165009.41446,-0.007568,0.010193,-0.993103,0.190321,0.432366,-0.130992,55,269,571,5584
1644165009.462863,-0.006897,0.009888,-0.992004,0.205588,0.371298,-0.115725,45,282,582,5664
1644165009.511241,-0.008545,0.012512,-0.990051,0.190321,0.432366,-0.039389,43,274,576,5552
1644165009.559629,-0.00769,0.007568,-0.992188,0.251389,0.493435,-0.115725,54,275,584,5584
1644165009.608017,-0.009888,0.009338,-0.992737,0.281924,0.325496,-0.024122,52,265,572,5632
1644165009.656415,-0.010315,0.012268,-0.991577,0.236122,0.417099,-0.054656,39,281,578,5600
1644165009.704808,-0.010193,0.009216,-0.991394,0.281924,0.478168,-0.054656,47,270,582,5696
1644165009.753203,-0.011475,0.011658,-0.993286,0.297191,0.417099,-0.008855,48,264,573,5664
1644165009.801573,-0.010498,0.011047,-0.992554,0.266656,0.371298,0.052214,53,281,580,5584
1644165009.850012,-0.007935,0.010315,-0.988403,0.266656,0.356031,-0.130992,41,279,578,5488
1644165009.898393,-0.009094,0.008911,-0.990479,0.266656,0.371298,-0.237863,51,271,578,5584
1644165009.946958,-0.01062,0.010132,-0.992676,0.281924,0.325496,-0.054656,48,279,576,5648
1644165009.995239,-0.008301,0.012939,-0.992004,0.236122,0.294962,-0.192061,48,271,580,5648
1644165010.0642,-0.012207,0.010193,-0.990234,0.144519,0.401832,-0.14626,49,270,577,5600
1644165010.102191,-0.008606,0.012451,-0.991272,0.236122,0.294962,-0.115725,43,281,580,5648
1644165010.145991,-0.006104,0.010132,-0.992371,0.220855,0.294962,-0.115725,52,275,575,5648
1644165010.189762,-0.009216,0.010132,-0.990784,0.220855,0.447634,-0.192061,52,265,572,5648
1644165010.285447,-0.008911,0.00946,-0.991333,0.220855,0.417099,-0.100458,58,269,569,5584
1644165010.333864,-0.009521,0.011047,-0.992249,0.220855,0.310229,-0.008855,54,277,570,5600
1644165010.38239,-0.00946,0.008667,-0.993652,0.098718,0.294962,0.006412,48,274,566,5584
1644165010.430639,-0.009338,0.010071,-0.991638,0.052916,0.371298,-0.192061,55,276,573,5632
1644165010.479014,-0.010193,0.011047,-0.993774,0.159786,0.493435,-0.115725,48,276,573,5600
1644165010.527435,-0.007263,0.008057,-0.989929,0.266656,0.417099,-0.039389,46,266,571,5664
1644165010.575812,-0.012878,0.013489,-0.992981,0.266656,0.493435,-0.192061,55,271,566,5584
1644165010.624213,-0.009827,0.008301,-0.989075,0.220855,0.447634,-0.085191,48,274,576,5584
1644165010.672618,-0.010803,0.010071,-0.991211,0.205588,0.432366,0.006412,47,277,575,5536
1644165010.720994,-0.009094,0.009888,-0.99054,0.220855,0.462901,0.021679,47,275,575,5600
1644165010.769378,-0.009155,0.010132,-0.990295,0.297191,0.340763,-0.069924,54,280,575,5632
1644165010.81776,-0.011475,0.010864,-0.989563,0.175053,0.432366,-0.100458,51,271,573,5600
1644165010.866181,-0.009949,0.009705,-0.994263,0.144519,0.386565,0.021679,49,277,570,5600
1644165010.914637,-0.010925,0.012085,-0.989319,0.037649,0.432366,-0.054656,49,273,586,5600
1644165010.963001,-0.010254,0.009155,-0.990234,0.144519,0.462901,0.067481,55,279,578,5584
1644165011.011362,-0.007874,0.009216,-0.991272,0.08345,0.554504,-0.008855,55,271,585,5584
1644165011.082751,-0.010193,0.01123,-0.991028,0.251389,0.432366,-0.14626,43,279,587,5648
1644165011.108135,-0.010132,0.010498,-0.9953,0.419328,0.523969,-0.039389,45,273,586,5552
1644165011.156739,-0.00769,0.010559,-0.991333,0.052916,0.539237,0.036947,54,273,582,5584
1644165011.205209,-0.008057,0.008301,-0.992004,0.266656,0.401832,-0.115725,46,276,569,5600
1644165011.256868,-0.010132,0.009094,-0.992432,0.342992,0.310229,0.021679,58,279,580,5584
1644165011.305878,-0.007751,0.009338,-0.992249,0.220855,0.432366,-0.024122,53,279,576,5600
1644165011.350958,-0.008789,0.008362,-0.991821,0.220855,0.493435,-0.14626,52,277,575,5600
1644165011.446813,-0.01123,0.009521,-0.990723,0.281924,0.417099,-0.176794,54,273,577,5552
1644165011.495403,-0.007263,0.009949,-0.990662,0.35826,0.447634,-0.115725,47,260,577,5584
1644165011.543634,-0.00946,0.01062,-0.993042,0.281924,0.432366,-0.237863,47,268,577,5648
1644165011.592005,-0.011169,0.00946,-0.993469,0.220855,0.417099,0.052214,45,275,575,5536
1644165011.640392,-0.01178,0.009033,-0.992859,0.480397,0.493435,-0.085191,57,282,577,5648
1644165011.688783,-0.009216,0.009338,-0.989746,0.251389,0.294962,-0.176794,47,277,575,5552
1644165011.737175,-0.01123,0.010254,-0.990601,0.281924,0.462901,-0.100458,49,280,579,5600
1644165011.785567,-0.008911,0.014465,-0.990295,0.129252,0.478168,-0.008855,47,277,579,5584
1644165011.833957,-0.010559,0.011658,-0.992798,0.144519,0.279695,-0.14626,49,275,572,5664
1644165011.882411,-0.010864,0.010376,-0.995178,0.388794,0.203359,0.036947,54,277,577,5600
1644165011.930786,-0.007751,0.011047,-0.992615,0.236122,0.371298,-0.039389,47,277,572,5696
1644165011.979151,-0.013611,0.010315,-0.991577,0.251389,0.371298,-0.207328,48,276,573,5552
1644165012.027559,-0.009888,0.007874,-0.993164,0.404061,0.371298,-0.008855,45,268,577,5584
1644165012.076025,-0.010864,0.007935,-0.991394,0.098718,0.356031,-0.115725,52,273,572,5600
1644165012.124341,-0.010498,0.008423,-0.991882,0.175053,0.493435,-0.130992,48,274,578,5648
1644165012.172766,-0.009094,0.008606,-0.991089,0.251389,0.432366,-0.054656,51,264,569,5552
1644165012.221119,-0.013855,0.011536,-0.994263,0.266656,0.401832,-0.054656,46,276,578,5584
1644165012.269731,-0.008118,0.009277,-0.99176,0.312458,0.356031,0.021679,49,277,579,5600
1644165012.317909,-0.009094,0.011902,-0.992432,0.236122,0.417099,-0.039389,40,275,586,5584
1644165012.367414,-0.012512,0.008911,-0.992615,0.205588,0.233893,0.036947,47,273,582,5600
1644165012.417879,-0.008545,0.010376,-0.991638,0.266656,0.401832,-0.085191,51,279,587,5600
1644165012.467952,-0.010193,0.007019,-0.989075,0.297191,0.325496,-0.314198,46,283,590,5648
1644165012.512538,-0.010254,0.008179,-0.993713,0.251389,0.493435,0.021679,42,275,584,5584
1644165012.608233,-0.00824,0.009949,-0.990112,0.342992,0.294962,-0.024122,60,259,583,5600
1644165012.656614,-0.006226,0.012573,-0.992493,0.342992,0.508702,-0.25313,45,270,584,5600
1644165012.705169,-0.012146,0.01178,-0.989563,0.434595,0.462901,-0.176794,40,273,582,5584
1644165012.753393,-0.008484,0.007507,-0.989746,0.08345,0.539237,-0.176794,49,275,579,5552
1644165012.801804,-0.008179,0.011902,-0.99231,0.205588,0.462901,-0.039389,46,279,580,5584
1644165012.850204,-0.013367,0.007812,-0.992188,0.266656,0.417099,-0.024122,48,276,578,5600
1644165012.89857,-0.013672,0.011658,-0.991089,0.327725,0.340763,-0.024122,51,283,580,5648
1644165012.946979,-0.010254,0.011108,-0.990295,0.342992,0.462901,-0.024122,53,271,583,5584
1644165012.995343,-0.011292,0.012451,-0.992432,0.312458,0.401832,-0.130992,48,274,569,5600
1644165013.04977,-0.007141,0.009583,-0.992432,0.35826,0.523969,-0.008855,51,274,587,5600
1644165013.092195,-0.010864,0.008911,-0.993835,0.144519,0.417099,-0.069924,49,285,586,5600
1644165013.140516,-0.010315,0.012085,-0.990845,0.236122,0.279695,0.036947,54,285,577,5664
1644165013.188901,-0.010132,0.00946,-0.990356,0.297191,0.478168,-0.054656,48,279,583,5584
1644165013.237273,-0.011169,0.011963,-0.993835,0.190321,0.432366,-0.161527,48,283,578,5632
1644165013.285663,-0.010437,0.005859,-0.993896,0.205588,0.386565,-0.130992,55,271,580,5648
1644165013.334068,-0.012268,0.009827,-0.992126,0.297191,0.279695,-0.085191,48,281,578,5584
1644165013.382467,-0.007812,0.010498,-0.991577,0.205588,0.264427,-0.192061,51,279,569,5600
1644165013.430839,-0.011536,0.010071,-0.989197,0.220855,0.417099,-0.008855,41,269,580,5584
1644165013.47923,-0.011047,0.012146,-0.989197,0.098718,0.417099,0.067481,59,273,577,5536
1644165013.52789,-0.008301,0.007568,-0.992371,0.220855,0.432366,-0.054656,48,271,573,5584
1644165013.57846,-0.007507,0.012451,-0.99292,0.220855,0.432366,-0.115725,59,265,579,5536
1644165013.628463,-0.010803,0.00531,-0.991211,0.281924,0.478168,-0.085191,43,283,576,5600
1644165013.673563,-0.013672,0.008423,-0.992004,0.08345,0.478168,-0.161527,58,269,571,5664
1644165013.769563,-0.008423,0.009216,-0.990051,0.342992,0.493435,-0.192061,46,266,571,5648
1644165013.817996,-0.008301,0.01001,-0.990601,0.022382,0.462901,-0.100458,40,273,575,5632
1644165013.866379,-0.010254,0.011719,-0.989685,0.190321,0.371298,-0.176794,55,279,571,5552
1644165013.914794,-0.011963,0.009033,-0.990784,0.312458,0.371298,-0.207328,59,275,577,5584
1644165013.963166,-0.008667,0.009766,-0.991028,0.220855,0.386565,-0.085191,47,273,577,5632
1644165014.011543,-0.009521,0.008667,-0.99176,-0.02342,0.417099,-0.222595,45,273,572,5664
1644165014.060656,-0.009705,0.009521,-0.990234,0.220855,0.462901,-0.039389,58,264,592,5648
1644165014.108314,-0.011414,0.010803,-0.992065,0.312458,0.356031,-0.237863,64,275,589,5584
1644165014.156699,-0.010132,0.010803,-0.990967,0.190321,0.462901,-0.054656,39,269,573,5536
1644165014.205194,-0.010437,0.013733,-0.992126,0.159786,0.462901,0.021679,45,265,579,5584
1644165014.253484,-0.008667,0.007385,-0.993103,0.236122,0.508702,-0.039389,46,271,585,5632
1644165014.301869,-0.006836,0.010376,-0.988464,0.144519,0.508702,0.098015,46,279,573,5600
1644165014.350261,-0.010498,0.015442,-0.989807,0.388794,0.493435,0.021679,47,268,586,5696
1644165014.398651,-0.011169,0.009888,-0.991516,0.098718,0.432366,0.006412,51,288,569,5664
1644165014.447031,-0.006714,0.008972,-0.990662,0.297191,0.432366,-0.054656,48,274,571,5584
1644165014.495429,-0.009583,0.007935,-0.98999,0.312458,0.279695,-0.085191,45,273,572,5648
1644165014.543815,-0.008057,0.008423,-0.991333,0.266656,0.493435,-0.161527,52,277,579,5552
1644165014.592289,-0.009766,0.014404,-0.990845,0.098718,0.340763,-0.100458,45,270,575,5648
1644165014.64059,-0.008484,0.008545,-0.993652,0.342992,0.417099,-0.14626,51,264,585,5664
1644165014.689269,-0.007446,0.007996,-0.988892,0.281924,0.340763,-0.14626,47,275,577,5584
1644165014.739608,-0.008972,0.009583,-0.98877,0.159786,0.432366,-0.14626,58,264,580,5552
1644165014.790509,-0.01178,0.008911,-0.990967,0.281924,0.478168,0.021679,47,270,582,5648
1644165014.83555,-0.008545,0.009583,-0.993408,0.236122,0.356031,-0.085191,39,269,573,5600
1644165014.930977,-0.009827,0.010864,-0.992126,0.327725,0.478168,-0.085191,48,276,564,5584
1644165014.979375,-0.007568,0.007446,-0.991882,0.190321,0.432366,-0.25313,39,276,583,5536
1644165015.027747,-0.00647,0.008972,-0.990662,0.220855,0.203359,-0.039389,47,268,582,5600
1644165015.07622,-0.010071,0.009094,-0.989441,0.251389,0.432366,-0.085191,49,280,577,5584
1644165015.124521,-0.010254,0.00946,-0.990234,0.388794,0.417099,-0.115725,52,275,586,5600
1644165015.172898,-0.011353,0.007629,-0.994812,0.159786,0.447634,-0.054656,43,274,571,5648
1644165015.221252,-0.010132,0.008545,-0.991821,0.404061,0.340763,-0.115725,57,275,570,5632
1644165015.269648,-0.010681,0.004089,-0.989014,0.251389,0.478168,-0.115725,54,277,577,5584
1644165015.318066,-0.010193,0.011414,-0.991333,0.281924,0.401832,0.067481,45,270,568,5600
1644165015.366443,-0.008667,0.013123,-0.99115,0.342992,0.493435,-0.14626,49,277,568,5600
1644165015.414863,-0.012329,0.008728,-0.989258,0.327725,0.508702,-0.085191,49,280,570,5536
1644165015.463228,-0.010498,0.009277,-0.992249,0.266656,0.523969,-0.024122,49,277,584,5584
1644165015.5116,-0.008667,0.008728,-0.992798,0.281924,0.447634,-0.115725,54,275,582,5632
1644165015.560015,-0.008484,0.009277,-0.993958,0.129252,0.432366,-0.069924,48,266,573,5584
1644165015.608387,-0.009827,0.011353,-0.993958,0.251389,0.417099,-0.176794,51,269,580,5600
1644165015.656787,-0.009949,0.011902,-0.992798,0.281924,0.417099,-0.085191,53,281,580,5600
1644165015.705176,-0.009338,0.00946,-0.992126,0.205588,0.356031,-0.207328,45,280,572,5600
1644165015.75355,-0.011292,0.009766,-0.992065,0.220855,0.310229,-0.039389,57,270,579,5552
1644165015.802006,-0.010925,0.009888,-0.993469,0.236122,0.447634,-0.161527,51,271,573,5648
1644165015.851707,-0.012207,0.01123,-0.992615,0.312458,0.340763,-0.024122,58,279,578,5648
1644165015.9022,-0.011902,0.009705,-0.990173,0.144519,0.401832,0.052214,47,270,577,5600
1644165015.952309,-0.009644,0.009705,-0.987549,0.068183,0.386565,0.006412,51,279,585,5536
1644165016.051149,-0.011475,0.009521,-0.993286,0.205588,0.447634,-0.115725,53,262,590,5632
1644165016.092346,-0.011108,0.009033,-0.992615,0.281924,0.401832,-0.024122,59,265,575,5632
1644165016.14069,-0.009155,0.010986,-0.99353,0.220855,0.554504,0.036947,51,281,569,5648
1644165016.189097,-0.008789,0.00885,-0.99585,0.205588,0.371298,0.006412,47,275,575,5584
1644165016.237476,-0.008911,0.011658,-0.990845,0.266656,0.294962,-0.14626,58,274,580,5584
1644165016.285871,-0.009216,0.007324,-0.991699,0.342992,0.569771,-0.085191,54,275,584,5600
1644165016.334266,-0.009399,0.009888,-0.993225,0.297191,0.325496,-0.14626,57,270,572,5584
1644165016.382669,-0.008606,0.011475,-0.992737,0.266656,0.478168,-0.069924,57,275,577,5600
1644165016.431036,-0.011353,0.009766,-0.991638,0.113985,0.340763,-0.054656,47,282,579,5600
1644165016.479401,-0.011047,0.00824,-0.990112,0.236122,0.401832,-0.268397,53,271,578,5536
1644165016.527813,-0.011169,0.009094,-0.988281,0.236122,0.401832,-0.085191,41,271,576,5552
1644165016.576204,-0.006714,0.009644,-0.991882,0.205588,0.340763,-0.054656,47,260,584,5648
1644165016.624963,-0.01001,0.010742,-0.989197,0.312458,0.508702,0.113282,55,276,580,5584
1644165016.676056,-0.013489,0.010254,-0.993164,0.159786,0.478168,-0.222595,46,274,573,5584
1644165016.726136,-0.011902,0.008728,-0.992188,0.266656,0.340763,-0.176794,54,270,584,5600
1644165016.818158,-0.008301,0.00946,-0.99115,0.129252,0.432366,0.021679,48,274,571,5536
1644165016.866565,-0.01123,0.009155,-0.992126,0.175053,0.432366,-0.161527,47,275,579,5648
1644165016.915237,-0.009888,0.01239,-0.990479,0.281924,0.371298,-0.069924,47,280,565,5632
1644165016.963372,-0.011047,0.012268,-0.989685,0.388794,0.508702,0.021679,48,279,578,5600
1644165017.011776,-0.010803,0.013428,-0.99054,0.281924,0.615573,-0.176794,45,277,577,5584
1644165017.060237,-0.011353,0.012146,-0.992065,0.480397,0.325496,0.052214,60,274,583,5632
1644165017.108483,-0.010071,0.009644,-0.992126,0.404061,0.508702,-0.130992,48,269,578,5648
1644165017.156883,-0.010437,0.008179,-0.991699,0.220855,0.356031,0.006412,43,269,573,5600
1644165017.205291,-0.008728,0.010315,-0.992798,0.129252,0.493435,-0.222595,51,271,573,5552
1644165017.253676,-0.010925,0.008667,-0.993042,0.175053,0.462901,-0.085191,41,276,578,5552
1644165017.302075,-0.007141,0.012085,-0.989624,0.373527,0.24916,-0.024122,53,276,576,5600
1644165017.350445,-0.010376,0.008484,-0.992554,0.144519,0.401832,-0.085191,51,279,569,5536
1644165017.398845,-0.010559,0.008118,-0.989685,0.312458,0.462901,-0.100458,54,268,572,5648
1644165017.447232,-0.009705,0.008362,-0.992615,0.159786,0.279695,0.052214,47,273,584,5584
1644165017.495603,-0.009521,0.007202,-0.992554,0.297191,0.432366,-0.176794,55,262,580,5648
1644165017.544027,-0.010498,0.005981,-0.992126,0.190321,0.417099,-0.14626,54,265,579,5600
1644165017.592411,-0.011475,0.010742,-0.99054,0.236122,0.417099,-0.115725,57,277,579,5584
1644165017.64078,-0.010681,0.009399,-0.993591,0.159786,0.371298,-0.069924,51,271,580,5584
1644165017.689339,-0.009155,0.011475,-0.992065,0.266656,0.508702,-0.207328,58,283,576,5632
1644165017.738672,-0.008057,0.010193,-0.992065,0.068183,0.447634,-0.100458,57,273,572,5584
1644165017.789245,-0.010498,0.009766,-0.990295,0.113985,0.401832,0.036947,53,276,576,5664
1644165017.839919,-0.010315,0.009766,-0.992493,0.266656,0.432366,-0.115725,45,263,570,5648
1644165017.931215,-0.011536,0.01123,-0.99292,0.312458,0.462901,-0.024122,53,271,578,5600
1644165017.979562,-0.009521,0.010559,-0.992065,0.281924,0.356031,-0.176794,49,273,568,5600
1644165018.027949,-0.012268,0.009155,-0.99115,0.236122,0.585038,-0.222595,53,276,569,5584
1644165018.076943,-0.011353,0.009766,-0.990723,0.35826,0.371298,0.006412,51,266,571,5600
1644165018.124735,-0.011658,0.008728,-0.993042,0.251389,0.401832,0.021679,61,268,579,5664
1644165018.173102,-0.014343,0.012695,-0.991089,0.220855,0.417099,-0.039389,41,281,580,5584
1644165018.221483,-0.010254,0.007385,-0.990479,0.251389,0.340763,-0.100458,48,281,578,5552
1644165018.269871,-0.010864,0.008057,-0.989624,0.312458,0.478168,-0.085191,49,273,575,5584
1644165018.318258,-0.00946,0.010376,-0.989929,0.190321,0.401832,-0.054656,48,276,578,5648
1644165018.366629,-0.009705,0.011841,-0.991821,0.251389,0.340763,-0.039389,52,273,575,5632
1644165018.415171,-0.008911,0.008484,-0.991394,0.220855,0.340763,-0.130992,47,275,570,5600
1644165018.46344,-0.009705,0.009888,-0.992981,0.220855,0.401832,0.036947,51,271,576,5632
1644165018.511805,-0.010193,0.007568,-0.990417,0.266656,0.371298,-0.237863,36,279,578,5600
1644165018.560201,-0.012573,0.009705,-0.993042,0.205588,0.294962,-0.054656,52,275,579,5600
1644165018.608576,-0.011719,0.009399,-0.990906,0.312458,0.325496,-0.024122,46,271,576,5600
1644165018.656992,-0.006348,0.008057,-0.990234,0.175053,0.417099,-0.008855,43,281,569,5552
1644165018.705379,-0.009216,0.009399,-0.990295,0.342992,0.386565,-0.161527,51,279,583,5552
1644165018.753747,-0.009644,0.010132,-0.993469,0.129252,0.478168,0.067481,49,270,572,5584
1644165018.802198,-0.008545,0.011658,-0.994446,0.251389,0.356031,0.067481,60,279,573,5552
1644165018.852854,-0.00824,0.009521,-0.988892,0.251389,0.340763,-0.268397,41,269,578,5648
1644165018.903088,-0.009583,0.007812,-0.994446,0.297191,0.371298,-0.161527,52,270,577,5584
1644165018.947833,-0.010071,0.009644,-0.992004,0.144519,0.371298,-0.237863,57,268,584,5584
1644165019.059278,-0.01001,0.006775,-0.99054,0.327725,0.508702,-0.207328,49,290,577,5600
1644165019.094627,-0.010193,0.009216,-0.989624,0.312458,0.401832,-0.085191,58,279,576,5584
1644165019.140918,-0.009827,0.013245,-0.991333,0.220855,0.432366,-0.130992,41,281,583,5584
1644165019.189284,-0.010559,0.006287,-0.991028,0.159786,0.432366,-0.130992,46,274,571,5600
1644165019.237666,-0.008728,0.008606,-0.992004,0.342992,0.386565,-0.008855,51,266,576,5584
1644165019.286062,-0.009949,0.010376,-0.994507,0.159786,0.462901,-0.054656,48,276,573,5584
1644165019.334455,-0.011047,0.011597,-0.991821,0.297191,0.478168,0.021679,47,277,575,5600
1644165019.38287,-0.008179,0.010498,-0.990234,0.404061,0.279695,-0.161527,47,277,584,5584
1644165019.431226,-0.008301,0.009583,-0.991821,0.281924,0.493435,-0.14626,57,275,579,5584
1644165019.479616,-0.011658,0.010925,-0.994385,0.297191,0.371298,-0.161527,55,279,576,5600
1644165019.527976,-0.01123,0.009094,-0.990295,0.266656,0.356031,-0.008855,36,274,566,5600
1644165019.576586,-0.009338,0.006958,-0.993042,0.266656,0.401832,-0.100458,48,274,569,5648
1644165019.627148,-0.011902,0.009399,-0.992065,0.205588,0.386565,-0.069924,39,276,583,5584
1644165019.676975,-0.012451,0.005615,-0.992126,0.205588,0.478168,-0.115725,52,275,575,5584
1644165019.722084,-0.013794,0.010559,-0.994873,0.236122,0.325496,0.006412,58,274,580,5632
1644165019.818336,-0.011963,0.009155,-0.992798,0.205588,0.462901,-0.115725,54,285,575,5600
1644165019.866714,-0.010803,0.006409,-0.990906,0.281924,0.462901,-0.054656,43,271,578,5648
1644165019.915211,-0.011169,0.007385,-0.991943,0.159786,0.356031,-0.14626,43,279,578,5632
1644165019.963573,-0.009949,0.009155,-0.991821,0.220855,0.554504,-0.100458,53,281,578,5632
1644165020.011933,-0.012695,0.008179,-0.989685,0.236122,0.447634,-0.176794,43,269,576,5600
1644165020.060389,-0.013,0.009644,-0.990234,0.327725,0.386565,-0.161527,47,282,577,5600
1644165020.108656,-0.008667,0.010437,-0.989807,0.342992,0.432366,-0.130992,45,280,570,5584
1644165020.157227,-0.011658,0.009583,-0.989807,0.281924,0.554504,-0.024122,49,275,579,5552
1644165020.205473,-0.010559,0.00769,-0.991638,0.281924,0.294962,0.098015,36,279,578,5536
1644165020.253872,-0.010864,0.010559,-0.99353,0.205588,0.401832,-0.130992,51,269,578,5600
1644165020.302246,-0.006775,0.008789,-0.991577,0.281924,0.356031,-0.14626,59,285,575,5632
1644165020.350646,-0.012085,0.010559,-0.99054,0.220855,0.478168,-0.115725,46,271,576,5632
1644165020.399037,-0.010071,0.008606,-0.989258,0.281924,0.523969,-0.039389,41,279,583,5648
1644165020.447435,-0.010193,0.008789,-0.992798,0.312458,0.325496,-0.039389,52,275,572,5552
1644165020.495818,-0.011292,0.010498,-0.990295,0.129252,0.585038,-0.14626,49,273,575,5600
1644165020.544202,-0.009338,0.012146,-0.991943,0.251389,0.462901,-0.130992,42,275,584,5584
1644165020.592604,-0.012756,0.010498,-0.992615,0.342992,0.401832,-0.085191,51,269,578,5600
1644165020.640956,-0.006897,0.01123,-0.993896,0.404061,0.432366,-0.100458,53,274,564,5600
1644165020.689369,-0.007935,0.011414,-0.990234,0.236122,0.478168,-0.054656,53,264,585,5600
1644165020.738122,-0.006042,0.01001,-0.99176,0.205588,0.340763,-0.024122,48,266,578,5584
1644165020.788968,-0.010925,0.009338,-0.99292,0.297191,0.554504,-0.207328,51,276,580,5648
1644165020.839375,-0.007751,0.010132,-0.991272,0.175053,0.539237,-0.176794,45,275,577,5584
1644165020.883979,-0.012817,0.01062,-0.992371,0.205588,0.478168,0.113282,48,274,578,5536
1644165020.979756,-0.008911,0.007935,-0.99054,0.205588,0.386565,-0.222595,55,274,580,5632
1644165021.028141,-0.008911,0.010925,-0.989929,0.342992,0.462901,-0.054656,57,277,570,5600
1644165021.076593,-0.011169,0.008545,-0.990784,0.281924,0.462901,-0.039389,53,274,569,5552
1644165021.124895,-0.008667,0.007324,-0.992737,0.159786,0.447634,-0.161527,51,276,573,5600
1644165021.173284,-0.007996,0.010376,-0.991638,0.312458,0.325496,-0.176794,53,279,573,5648
1644165021.221685,-0.010315,0.009766,-0.992798,0.281924,0.386565,-0.085191,58,283,573,5552
1644165021.27004,-0.009094,0.009644,-0.989746,0.281924,0.478168,-0.222595,47,275,572,5584
1644165021.318452,-0.007385,0.010437,-0.992615,0.266656,0.462901,-0.176794,51,269,578,5584
1644165021.366843,-0.008362,0.011902,-0.992554,0.113985,0.417099,-0.024122,49,270,575,5552
1644165021.415287,-0.014343,0.010193,-0.990356,0.312458,0.386565,-0.085191,55,279,571,5520
1644165021.463638,-0.010925,0.010376,-0.989563,0.113985,0.340763,-0.192061,48,276,580,5632
1644165021.511986,-0.013062,0.011108,-0.991882,0.08345,0.294962,-0.054656,49,280,577,5584
1644165021.560401,-0.010925,0.010925,-0.991821,0.205588,0.386565,0.036947,58,279,580,5584
1644165021.608793,-0.009521,0.012695,-0.991272,0.190321,0.493435,-0.100458,46,274,578,5648
1644165021.65718,-0.009277,0.012146,-0.989075,0.098718,0.417099,-0.115725,58,279,576,5536
1644165021.705576,-0.010681,0.010376,-0.989624,0.190321,0.462901,-0.085191,48,276,590,5536
1644165021.753943,-0.007629,0.010864,-0.993958,0.342992,0.340763,-0.115725,51,269,573,5584
1644165021.802724,-0.009399,0.01001,-0.993225,0.190321,0.356031,0.021679,41,274,569,5664
1644165021.851517,-0.012878,0.008911,-0.995117,0.190321,0.462901,-0.115725,45,277,582,5584
1644165021.901563,-0.010742,0.007874,-0.990479,0.236122,0.462901,-0.008855,55,276,578,5600
1644165021.952003,-0.009216,0.008057,-0.994324,0.175053,0.325496,-0.039389,49,287,577,5536
1644165022.053656,-0.011597,0.009949,-0.991211,0.175053,0.356031,-0.130992,39,276,583,5584
1644165022.093745,-0.011108,0.010742,-0.991272,0.342992,0.447634,-0.039389,45,273,577,5600
1644165022.141085,-0.010925,0.008789,-0.991699,0.404061,0.478168,-0.054656,52,273,575,5648
1644165022.189482,-0.010742,0.008484,-0.990906,0.205588,0.447634,-0.100458,46,279,573,5648
1644165022.237869,-0.006531,0.010254,-0.989319,0.113985,0.386565,-0.115725,45,275,582,5584
1644165022.28626,-0.006775,0.010559,-0.990417,0.205588,0.401832,-0.069924,59,270,577,5632
1644165022.334716,-0.010498,0.009033,-0.994141,0.388794,0.493435,-0.100458,59,270,568,5552
1644165022.383056,-0.010986,0.008362,-0.993286,0.113985,0.401832,-0.161527,58,283,573,5584
1644165022.431434,-0.010803,0.009949,-0.990906,0.388794,0.432366,-0.085191,41,279,576,5600
1644165022.479807,-0.009155,0.012939,-0.991394,0.297191,0.432366,-0.14626,58,286,578,5648
1644165022.5282,-0.009949,0.007996,-0.990112,0.281924,0.417099,-0.024122,46,269,580,5664
1644165022.576561,-0.011353,0.007935,-0.99115,0.098718,0.386565,-0.176794,46,269,571,5600
1644165022.625024,-0.009705,0.009399,-0.991516,0.129252,0.508702,-0.085191,59,273,579,5584
1644165022.673376,-0.011169,0.008484,-0.990051,0.297191,0.523969,0.021679,58,279,571,5584
1644165022.722156,-0.007385,0.00592,-0.991211,0.220855,0.310229,-0.085191,46,274,576,5664
1644165022.772734,-0.010071,0.008118,-0.989075,0.129252,0.417099,-0.024122,54,265,572,5584
1644165022.824112,-0.009399,0.008301,-0.99054,0.312458,0.294962,-0.130992,55,271,569,5600
1644165022.868464,-0.008606,0.010315,-0.992981,0.281924,0.478168,0.052214,45,268,572,5584
1644165022.963744,-0.011108,0.009766,-0.990417,0.312458,0.478168,-0.100458,41,283,573,5664
1644165023.012446,-0.009583,0.012024,-0.993347,0.205588,0.325496,-0.069924,47,277,565,5648
1644165023.060937,-0.010071,0.00885,-0.992371,0.144519,0.340763,0.006412,59,277,575,5552
1644165023.108907,-0.012085,0.008057,-0.990967,0.327725,0.417099,-0.130992,53,279,576,5552
1644165023.157272,-0.008606,0.010681,-0.993469,0.35826,0.508702,-0.085191,53,286,576,5664
1644165023.205631,-0.010925,0.007324,-0.993469,0.312458,0.356031,-0.100458,54,275,584,5584
1644165023.254053,-0.009766,0.011719,-0.994141,0.236122,0.417099,-0.008855,45,265,582,5632
1644165023.302475,-0.012756,0.013123,-0.992981,0.175053,0.478168,0.006412,55,276,580,5584
1644165023.351124,-0.010986,0.00946,-0.991943,0.190321,0.386565,-0.054656,52,275,582,5552
1644165023.39922,-0.009888,0.01123,-0.995056,0.251389,0.447634,-0.085191,49,277,577,5536
1644165023.447621,-0.010254,0.008484,-0.992554,0.129252,0.386565,0.006412,47,277,589,5584
1644165023.495978,-0.011536,0.010559,-0.991516,0.129252,0.432366,-0.161527,46,271,571,5648
1644165023.544408,-0.008118,0.007202,-0.991211,0.159786,0.401832,-0.115725,57,265,582,5552
1644165023.592804,-0.009705,0.008423,-0.992065,0.113985,0.294962,-0.039389,51,274,578,5600
1644165023.641193,-0.009827,0.012207,-0.990356,0.113985,0.585038,-0.008855,53,274,573,5584
1644165023.689577,-0.009827,0.012634,-0.991821,0.266656,0.340763,-0.085191,51,271,590,5632
1644165023.737972,-0.009216,0.011169,-0.991699,0.281924,0.447634,0.082748,52,275,591,5584
1644165023.786355,-0.010864,0.008362,-0.993713,0.220855,0.447634,-0.069924,36,279,576,5584
1644165023.835046,-0.011353,0.01001,-0.992737,0.266656,0.310229,0.036947,48,276,585,5584
1644165023.884,-0.009033,0.009766,-0.989197,0.266656,0.493435,-0.039389,45,280,575,5648
1644165023.934746,-0.011963,0.008362,-0.991272,0.144519,0.401832,-0.085191,43,269,578,5584
1644165023.985243,-0.008789,0.011597,-0.991943,0.129252,0.478168,-0.008855,49,280,589,5584
1644165024.02948,-0.012451,0.008667,-0.991394,0.159786,0.432366,-0.14626,53,276,569,5648
1644165024.125215,-0.013611,0.009888,-0.993835,0.281924,0.417099,0.006412,49,270,582,5600
1644165024.173481,-0.012146,0.011292,-0.992004,0.175053,0.478168,0.006412,53,269,569,5584
1644165024.221845,-0.01001,0.011475,-0.990051,0.144519,0.401832,-0.222595,45,270,582,5584
1644165024.270245,-0.009583,0.01178,-0.991089,0.205588,0.340763,-0.130992,54,280,572,5664
1644165024.31864,-0.008545,0.008301,-0.991211,0.08345,0.386565,-0.14626,54,280,570,5552
1644165024.36703,-0.010376,0.008667,-0.991699,0.297191,0.447634,-0.176794,55,271,578,5584
1644165024.415409,-0.010864,0.007263,-0.995911,0.098718,0.478168,-0.100458,46,266,576,5584
1644165024.463796,-0.013611,0.009399,-0.98822,0.342992,0.417099,-0.237863,42,270,563,5536
1644165024.512222,-0.013367,0.007751,-0.993103,0.312458,0.325496,-0.085191,52,282,577,5664
1644165024.560603,-0.009277,0.010132,-0.989929,0.159786,0.508702,-0.192061,57,270,582,5664
1644165024.608986,-0.011292,0.006592,-0.991516,0.159786,0.356031,0.098015,54,268,577,5648
1644165024.657391,-0.008057,0.011169,-0.991821,0.175053,0.447634,-0.054656,45,275,586,5632
1644165024.705767,-0.012451,0.009033,-0.992676,0.312458,0.569771,0.113282,60,276,576,5584
1644165024.754181,-0.011841,0.011047,-0.991272,0.220855,0.325496,-0.100458,59,270,579,5552
1644165024.802568,-0.010498,0.006104,-0.989624,0.297191,0.401832,-0.069924,49,280,584,5600
1644165024.850979,-0.007202,0.010925,-0.991394,0.236122,0.356031,-0.207328,49,275,577,5648
1644165024.899361,-0.008484,0.009521,-0.992676,0.129252,0.386565,-0.054656,43,276,576,5584
1644165024.947918,-0.008606,0.007568,-0.990845,0.404061,0.493435,-0.008855,57,277,591,5584
1644165024.996133,-0.01355,0.00885,-0.990112,0.251389,0.401832,-0.054656,51,276,592,5648
1644165025.056697,-0.011047,0.008667,-0.993958,0.327725,0.462901,-0.237863,61,268,568,5584
1644165025.099496,-0.012268,0.010132,-0.990601,0.297191,0.447634,-0.100458,58,274,580,5648
1644165025.147716,-0.012512,0.009888,-0.993408,0.266656,0.386565,-0.069924,51,279,571,5632
1644165025.19073,-0.012207,0.008118,-0.992432,0.449863,0.294962,-0.161527,51,274,578,5584
1644165025.286436,-0.009766,0.010681,-0.992004,0.281924,0.691908,-0.100458,49,277,577,5648
1644165025.334852,-0.012451,0.00885,-0.989563,0.144519,0.478168,-0.039389,54,270,570,5584
1644165025.383219,-0.008423,0.01123,-0.990784,0.190321,0.523969,-0.329466,51,274,571,5648
1644165025.431603,-0.009338,0.00824,-0.98999,0.236122,0.478168,-0.054656,48,276,576,5632
1644165025.480008,-0.012146,0.007935,-0.993835,0.251389,0.356031,-0.115725,53,276,573,5648
1644165025.528383,-0.007935,0.008545,-0.991516,0.175053,0.371298,-0.115725,46,274,580,5648
1644165025.576785,-0.012451,0.008423,-0.993774,0.251389,0.325496,-0.085191,43,274,590,5600
1644165025.625174,-0.011047,0.012695,-0.992188,0.220855,0.417099,-0.130992,48,269,573,5584
1644165025.673587,-0.007935,0.009033,-0.993286,0.281924,0.447634,-0.100458,53,266,571,5632
1644165025.721944,-0.011841,0.011353,-0.989319,0.175053,0.386565,-0.100458,57,282,572,5536
1644165025.770351,-0.00885,0.006836,-0.991638,0.342992,0.310229,-0.069924,53,281,580,5584
1644165025.818741,-0.010559,0.009033,-0.992065,0.281924,0.462901,-0.054656,48,266,571,5600
1644165025.867161,-0.011658,0.010376,-0.992615,0.190321,0.340763,-0.024122,48,274,578,5648
1644165025.915546,-0.012878,0.00946,-0.992798,0.236122,0.539237,-0.054656,51,288,578,5584
1644165025.963948,-0.011414,0.01178,-0.991821,0.113985,0.478168,-0.176794,62,271,569,5600
1644165026.012358,-0.010071,0.015076,-0.990845,0.297191,0.325496,0.021679,46,276,580,5648
1644165026.067544,-0.008667,0.010498,-0.989624,0.175053,0.325496,-0.100458,54,277,570,5584
1644165026.109127,-0.008789,0.009521,-0.992371,0.342992,0.493435,-0.298931,53,281,583,5584
1644165026.158952,-0.008301,0.009338,-0.993835,0.404061,0.539237,-0.222595,48,269,566,5648
1644165026.209138,-0.010681,0.008301,-0.991272,0.404061,0.508702,-0.024122,51,276,578,5584
1644165026.259433,-0.008118,0.010132,-0.990784,0.251389,0.447634,0.036947,48,269,571,5456
1644165026.303854,-0.009521,0.010925,-0.990356,0.281924,0.462901,-0.024122,60,281,580,5648
1644165026.399445,-0.011353,0.009827,-0.993042,0.342992,0.371298,-0.115725,47,285,572,5600
1644165026.447837,-0.008911,0.00946,-0.989197,0.236122,0.356031,-0.130992,46,269,576,5648
1644165026.496244,-0.01062,0.010864,-0.991211,0.068183,0.447634,-0.176794,47,268,568,5600
1644165026.544635,-0.01062,0.009583,-0.99115,0.220855,0.508702,-0.161527,52,270,572,5584
1644165026.593045,-0.010437,0.008423,-0.990295,0.236122,0.478168,-0.268397,51,276,580,5600
1644165026.641416,-0.011353,0.01062,-0.991882,0.190321,0.386565,0.006412,49,273,584,5584
1644165026.689808,-0.012939,0.00769,-0.99115,0.205588,0.310229,-0.054656,53,271,585,5648
1644165026.7382,-0.010193,0.00824,-0.99176,0.220855,0.325496,-0.161527,60,274,573,5648
1644165026.786583,-0.012085,0.009399,-0.993042,0.342992,0.401832,-0.130992,53,269,576,5584
1644165026.835111,-0.012329,0.006531,-0.992981,0.251389,0.417099,-0.085191,51,271,578,5600
1644165026.883374,-0.008972,0.011169,-0.99292,0.266656,0.401832,-0.115725,60,269,578,5584
1644165026.931759,-0.008972,0.010498,-0.98877,0.113985,0.340763,-0.054656,49,277,579,5536
1644165026.980147,-0.012207,0.010559,-0.994263,0.281924,0.386565,-0.25313,49,273,577,5584
1644165027.028536,-0.008972,0.008179,-0.991699,0.175053,0.462901,0.021679,53,281,578,5600
1644165027.076965,-0.011475,0.01062,-0.992554,0.098718,0.478168,-0.161527,57,282,577,5536
1644165027.125324,-0.009766,0.011719,-0.991455,0.266656,0.447634,-0.115725,52,273,579,5600
1644165027.173705,-0.009705,0.012329,-0.991272,0.281924,0.233893,-0.115725,40,277,575,5536
1644165027.222478,-0.010071,0.011108,-0.991638,0.190321,0.478168,-0.115725,51,276,576,5552
1644165027.270508,-0.009888,0.012329,-0.990479,0.220855,0.417099,-0.085191,48,281,578,5648
1644165027.320568,-0.008789,0.011475,-0.987915,0.297191,0.401832,0.006412,53,271,578,5648
1644165027.370807,-0.010071,0.012451,-0.990662,0.281924,0.493435,-0.085191,57,270,577,5600
1644165027.420934,-0.008911,0.010193,-0.990662,0.037649,0.340763,-0.054656,45,280,575,5632
1644165027.465855,-0.011353,0.012329,-0.991089,0.220855,0.417099,-0.130992,49,260,582,5600
1644165027.560837,-0.010559,0.010437,-0.989624,0.159786,0.462901,-0.161527,49,280,575,5552
1644165027.609211,-0.01062,0.013123,-0.989929,0.220855,0.478168,-0.207328,52,277,584,5600
1644165027.657606,-0.010803,0.009827,-0.990967,0.205588,0.432366,-0.100458,39,283,566,5600
1644165027.705998,-0.009277,0.010132,-0.992126,0.342992,0.371298,0.021679,48,271,573,5536
1644165027.754369,-0.01001,0.01178,-0.992004,0.251389,0.310229,-0.024122,43,262,576,5584
1644165027.80279,-0.011353,0.009888,-0.989502,0.220855,0.432366,-0.161527,53,276,576,5584
1644165027.851166,-0.009521,0.007507,-0.988647,0.144519,0.417099,-0.115725,51,276,573,5600
1644165027.899561,-0.009033,0.010742,-0.992493,0.342992,0.325496,-0.192061,51,276,583,5664
1644165027.947968,-0.009277,0.009338,-0.991638,0.129252,0.539237,-0.314198,48,274,571,5600
1644165027.996317,-0.009949,0.008728,-0.993042,0.266656,0.478168,-0.161527,58,269,569,5600
1644165028.051523,-0.00946,0.009094,-0.990906,0.098718,0.294962,-0.008855,48,274,592,5600
1644165028.093125,-0.012573,0.010193,-0.989319,0.190321,0.432366,-0.024122,52,273,579,5648
1644165028.141473,-0.00885,0.010193,-0.995056,0.159786,0.371298,-0.100458,47,277,575,5584
1644165028.189866,-0.009094,0.010803,-0.990723,0.251389,0.386565,-0.024122,54,282,591,5552
1644165028.238256,-0.009827,0.007751,-0.991638,0.098718,0.462901,-0.130992,52,282,589,5648
1644165028.286637,-0.01001,0.010437,-0.991577,0.373527,0.462901,-0.085191,53,274,587,5600
1644165028.335062,-0.010803,0.009827,-0.989136,0.404061,0.462901,-0.024122,48,269,580,5632
1644165028.38342,-0.009888,0.011169,-0.990295,0.281924,0.356031,-0.069924,46,281,583,5584
1644165028.432227,-0.009155,0.009644,-0.99353,0.175053,0.325496,0.021679,54,270,570,5536
1644165028.482527,-0.009094,0.01239,-0.988953,0.266656,0.569771,-0.039389,53,269,578,5584
1644165028.532983,-0.012146,0.011108,-0.993103,0.312458,0.386565,-0.161527,58,279,576,5664
1644165028.578007,-0.007935,0.008484,-0.988708,0.236122,0.279695,0.082748,64,275,577,5536
1644165028.673762,-0.009216,0.007751,-0.990479,0.098718,0.371298,-0.130992,46,279,585,5584
1644165028.72239,-0.011353,0.00531,-0.992737,0.236122,0.615573,-0.024122,48,276,580,5664
1644165028.77054,-0.008362,0.008118,-0.992554,0.098718,0.279695,-0.222595,45,273,586,5552
1644165028.818961,-0.007263,0.009338,-0.989929,0.266656,0.447634,-0.115725,52,280,572,5600
1644165028.867349,-0.011475,0.009033,-0.992432,0.175053,0.508702,-0.25313,54,273,577,5600
1644165028.91575,-0.010071,0.009766,-0.989502,0.434595,0.447634,-0.176794,49,280,577,5552
1644165028.964152,-0.010925,0.010315,-0.991577,0.266656,0.157557,-0.039389,54,280,575,5552
1644165029.012557,-0.011047,0.01178,-0.991882,0.266656,0.356031,-0.008855,58,271,573,5648
1644165029.06527,-0.010193,0.01001,-0.991943,0.327725,0.462901,-0.161527,47,273,584,5552
1644165029.109298,-0.011902,0.010071,-0.992737,0.281924,0.386565,-0.054656,49,277,579,5632
1644165029.157661,-0.010986,0.012512,-0.991821,0.312458,0.310229,-0.024122,47,270,572,5584
1644165029.206048,-0.012939,0.008789,-0.990723,0.190321,0.340763,-0.176794,47,285,577,5600
1644165029.254452,-0.011414,0.010681,-0.991394,0.068183,0.462901,-0.100458,53,274,571,5536
1644165029.302808,-0.010315,0.013672,-0.993835,0.236122,0.447634,-0.024122,53,262,578,5664
1644165029.351219,-0.01001,0.008789,-0.989258,0.113985,0.478168,-0.039389,41,274,576,5584
1644165029.399612,-0.011963,0.011292,-0.993713,0.190321,0.386565,-0.024122,53,276,569,5600
1644165029.448013,-0.011597,0.01123,-0.993469,0.266656,0.432366,-0.085191,51,269,576,5584
1644165029.4964,-0.01001,0.009338,-0.992554,0.220855,0.386565,-0.115725,39,266,583,5584
1644165029.5448,-0.00946,0.00946,-0.991028,0.312458,0.417099,-0.115725,53,274,571,5536
1644165029.593205,-0.007874,0.010681,-0.990234,0.220855,0.523969,-0.054656,55,274,569,5552
1644165029.643355,-0.010498,0.010132,-0.991089,0.175053,0.325496,-0.024122,48,274,576,5584
1644165029.69373,-0.012085,0.008118,-0.994934,0.220855,0.386565,-0.314198,58,279,578,5648
1644165029.738719,-0.008972,0.011719,-0.990173,0.159786,0.508702,-0.14626,52,282,584,5584
1644165029.835397,-0.011902,0.010925,-0.991394,0.205588,0.417099,-0.069924,45,268,568,5600
1644165029.88357,-0.011414,0.009705,-0.992554,0.205588,0.356031,-0.069924,41,276,578,5648
1644165029.931924,-0.010315,0.011841,-0.989685,0.266656,0.340763,-0.192061,47,277,572,5664
1644165029.980348,-0.010132,0.009155,-0.991577,0.266656,0.386565,-0.14626,49,270,568,5648
1644165030.02872,-0.012878,0.007446,-0.991821,0.236122,0.447634,-0.14626,51,281,576,5552
1644165030.077525,-0.011292,0.010254,-0.990051,0.297191,0.432366,-0.039389,43,274,583,5584
1644165030.125459,-0.006287,0.011841,-0.993896,0.175053,0.493435,-0.115725,42,273,582,5584
1644165030.173869,-0.010986,0.009949,-0.991699,0.327725,0.325496,-0.222595,51,269,573,5600
1644165030.222261,-0.006287,0.010437,-0.990417,0.373527,0.493435,-0.008855,57,260,568,5648
1644165030.27063,-0.007568,0.009094,-0.990967,0.175053,0.386565,-0.161527,42,277,570,5584
1644165030.319021,-0.008545,0.011047,-0.989929,0.159786,0.325496,-0.130992,42,282,572,5648
1644165030.367426,-0.009216,0.008484,-0.994324,0.220855,0.447634,-0.25313,52,282,577,5488
1644165030.415807,-0.009827,0.012085,-0.990784,0.342992,0.508702,-0.176794,48,274,578,5584
1644165030.464204,-0.009155,0.010864,-0.992004,0.113985,0.325496,-0.14626,52,280,568,5584
1644165030.512608,-0.008606,0.011414,-0.991333,0.159786,0.310229,-0.130992,59,273,584,5648
1644165030.561147,-0.009399,0.009827,-0.991699,0.052916,0.401832,-0.130992,47,270,584,5648
1644165030.609696,-0.012634,0.010254,-0.99176,0.144519,0.447634,-0.008855,51,264,571,5584
1644165030.658538,-0.011414,0.007751,-0.99408,0.205588,0.401832,-0.085191,46,279,580,5648
1644165030.709125,-0.008423,0.012207,-0.991089,0.312458,0.432366,0.006412,55,266,578,5600
1644165030.759151,-0.00885,0.008484,-0.993286,0.297191,0.401832,-0.161527,51,283,578,5648
1644165030.851373,-0.009827,0.010254,-0.992432,0.266656,0.371298,-0.268397,41,279,580,5584
1644165030.899759,-0.011841,0.011475,-0.991821,0.312458,0.371298,-0.237863,51,264,583,5648
1644165030.948127,-0.008423,0.010803,-0.990845,0.236122,0.371298,0.006412,52,270,577,5584
1644165030.996533,-0.008972,0.009766,-0.991577,0.205588,0.386565,-0.14626,47,270,579,5600
1644165031.055432,-0.009277,0.007141,-0.993652,0.251389,0.539237,0.082748,55,269,583,5552
1644165031.095035,-0.007812,0.011475,-0.991882,0.159786,0.401832,-0.100458,48,274,580,5600
1644165031.141668,-0.010315,0.009521,-0.990662,0.388794,0.508702,-0.115725,46,279,573,5600
1644165031.190032,-0.010681,0.00946,-0.990662,0.419328,0.432366,-0.024122,41,274,578,5536
1644165031.238444,-0.011353,0.008972,-0.992737,0.175053,0.462901,-0.039389,43,281,578,5648
1644165031.286831,-0.010132,0.00885,-0.988403,0.281924,0.539237,-0.115725,58,279,573,5648
1644165031.335385,-0.008606,0.007568,-0.99292,0.098718,0.340763,-0.176794,53,269,569,5584
1644165031.383633,-0.011353,0.00885,-0.992737,0.159786,0.417099,-0.222595,58,274,571,5664
1644165031.432006,-0.011719,0.009766,-0.994446,0.35826,0.432366,-0.085191,43,274,580,5600
1644165031.480386,-0.007263,0.007324,-0.988953,0.205588,0.569771,-0.115725,39,283,576,5584
1644165031.528787,-0.010254,0.008728,-0.992859,0.281924,0.386565,-0.008855,55,276,573,5632
1644165031.577178,-0.008728,0.012085,-0.992859,0.251389,0.325496,-0.14626,52,275,593,5584
1644165031.625565,-0.010986,0.007874,-0.992188,0.144519,0.371298,-0.14626,42,273,570,5600
1644165031.674276,-0.00769,0.009399,-0.990662,0.251389,0.401832,-0.14626,53,276,585,5600
1644165031.723051,-0.00769,0.008789,-0.99292,0.098718,0.356031,-0.039389,48,274,580,5536
1644165031.773591,-0.009033,0.008606,-0.989746,0.220855,0.447634,-0.207328,59,275,586,5648
1644165031.819624,-0.008423,0.011963,-0.991089,0.297191,0.325496,-0.176794,60,271,580,5584
1644165031.869236,-0.013733,0.00946,-0.989807,0.08345,0.417099,-0.039389,53,266,578,5488
1644165031.964344,-0.007446,0.008423,-0.99115,0.281924,0.478168,-0.115725,52,277,570,5536
1644165032.012719,-0.009827,0.007629,-0.990234,0.236122,0.401832,-0.069924,57,282,575,5600
1644165032.061151,-0.013367,0.012085,-0.993774,0.251389,0.356031,-0.039389,53,281,580,5584
1644165032.109508,-0.007996,0.009827,-0.990906,0.266656,0.386565,0.006412,49,275,577,5648
1644165032.157856,-0.012085,0.009521,-0.993347,0.205588,0.294962,-0.14626,55,264,576,5584
1644165032.206246,-0.012451,0.005798,-0.992493,0.205588,0.447634,-0.069924,53,271,573,5552
1644165032.254664,-0.011719,0.011963,-0.992554,0.236122,0.386565,-0.115725,52,277,575,5584
1644165032.303062,-0.012451,0.006042,-0.992737,0.205588,0.401832,-0.008855,48,271,578,5552
1644165032.351423,-0.007874,0.009644,-0.991028,0.129252,0.432366,-0.100458,59,280,575,5664
1644165032.399824,-0.011169,0.009033,-0.991272,0.297191,0.356031,-0.25313,45,270,575,5600
1644165032.4482,-0.008484,0.011292,-0.990356,0.190321,0.371298,-0.130992,53,279,578,5600
1644165032.496575,-0.013123,0.010681,-0.990784,0.236122,0.432366,-0.069924,54,280,579,5600
1644165032.545104,-0.009399,0.010437,-0.991882,0.251389,0.371298,-0.039389,58,274,569,5648
1644165032.593391,-0.011902,0.011047,-0.991394,0.312458,0.386565,-0.222595,51,274,569,5600
1644165032.641764,-0.007996,0.010559,-0.991394,0.052916,0.386565,-0.054656,54,270,589,5600
1644165032.690125,-0.008179,0.012146,-0.990173,0.220855,0.310229,-0.039389,48,279,571,5664
1644165032.73852,-0.009705,0.009888,-0.989563,0.266656,0.401832,-0.085191,45,275,582,5648
1644165032.786909,-0.005981,0.009277,-0.993958,0.388794,0.340763,-0.115725,52,268,586,5552
1644165032.835838,-0.011719,0.010315,-0.992188,0.312458,0.523969,-0.039389,47,277,572,5600
1644165032.885863,-0.00946,0.008545,-0.993958,0.419328,0.294962,0.036947,59,270,582,5600
1644165032.93612,-0.009949,0.010559,-0.989441,0.190321,0.569771,-0.100458,58,276,580,5552
1644165032.986221,-0.008545,0.007812,-0.992004,0.266656,0.417099,-0.130992,57,268,582,5552
1644165033.077983,-0.008972,0.010132,-0.992615,0.236122,0.493435,-0.161527,47,273,579,5600
1644165033.125701,-0.009644,0.009827,-0.989502,0.266656,0.356031,-0.115725,57,277,577,5552
1644165033.174054,-0.011902,0.006836,-0.990784,0.327725,0.432366,-0.054656,57,273,577,5600
1644165033.222451,-0.008179,0.009705,-0.992188,0.159786,0.478168,-0.130992,48,262,580,5664
1644165033.270826,-0.011475,0.010803,-0.991394,0.373527,0.432366,0.006412,43,276,580,5600
1644165033.319219,-0.008423,0.012024,-0.994202,0.46513,0.447634,-0.054656,47,268,577,5584
1644165033.367603,-0.011719,0.012573,-0.991516,0.052916,0.508702,-0.069924,47,270,584,5552
1644165033.416008,-0.011597,0.007812,-0.992493,0.342992,0.401832,0.067481,43,274,583,5648
1644165033.464403,-0.012512,0.009888,-0.992432,0.113985,0.401832,-0.161527,52,280,584,5584
1644165033.512808,-0.011597,0.009033,-0.991394,0.220855,0.417099,-0.130992,47,273,570,5600
1644165033.561159,-0.01178,0.008057,-0.990295,0.266656,0.462901,-0.161527,64,280,568,5648
1644165033.609581,-0.009033,0.009583,-0.991699,0.175053,0.508702,-0.130992,52,275,575,5600
1644165033.657952,-0.010925,0.011292,-0.989929,0.175053,0.432366,-0.176794,51,271,580,5584
1644165033.706316,-0.011658,0.007996,-0.991943,0.281924,0.523969,-0.085191,45,275,575,5536
1644165033.754713,-0.009583,0.008789,-0.993713,0.251389,0.325496,0.006412,46,264,587,5584
1644165033.803154,-0.011353,0.006104,-0.992737,0.312458,0.401832,-0.039389,53,262,583,5584
1644165033.851558,-0.007751,0.008667,-0.99292,0.144519,0.371298,-0.115725,58,266,576,5600
1644165033.900754,-0.011597,0.010864,-0.990845,0.129252,0.462901,0.021679,49,268,577,5552
1644165033.948343,-0.010742,0.007507,-0.993042,0.297191,0.371298,-0.176794,40,280,577,5552
1644165033.998338,-0.009705,0.009827,-0.98999,0.175053,0.294962,0.082748,58,276,578,5584
1644165034.093493,-0.00824,0.008057,-0.992493,0.144519,0.447634,0.006412,52,275,582,5664
1644165034.14188,-0.011353,0.009583,-0.987122,0.220855,0.462901,-0.085191,43,281,569,5584
1644165034.190246,-0.012146,0.011353,-0.989807,0.175053,0.493435,-0.054656,38,270,577,5552
1644165034.23864,-0.010742,0.010132,-0.990417,0.342992,0.447634,-0.100458,52,277,579,5584
1644165034.287007,-0.010681,0.009521,-0.993835,0.281924,0.401832,-0.100458,51,274,576,5584
1644165034.335418,-0.009949,0.007385,-0.993286,0.266656,0.417099,0.006412,43,281,580,5552
1644165034.383812,-0.010742,0.01062,-0.991882,0.144519,0.386565,-0.008855,57,263,575,5552
1644165034.432233,-0.008118,0.012756,-0.991516,0.205588,0.462901,-0.100458,57,270,572,5584
1644165034.48059,-0.009338,0.010071,-0.990845,0.190321,0.447634,-0.130992,58,276,585,5600
1644165034.52899,-0.011353,0.009338,-0.991638,0.144519,0.478168,0.036947,57,275,575,5536
1644165034.577376,-0.010071,0.007507,-0.990906,0.159786,0.279695,-0.085191,54,275,577,5584
1644165034.625761,-0.01001,0.010132,-0.990784,0.159786,0.585038,-0.283664,52,275,589,5552
1644165034.674158,-0.009705,0.010864,-0.992432,0.159786,0.371298,-0.161527,55,271,571,5600
1644165034.722555,-0.011963,0.010315,-0.991028,0.327725,0.600305,-0.054656,48,276,576,5600
1644165034.770929,-0.009399,0.008484,-0.993103,0.236122,0.493435,-0.161527,43,274,571,5648
1644165034.819536,-0.006958,0.011719,-0.987549,0.281924,0.462901,-0.008855,49,280,577,5600
1644165034.869278,-0.009705,0.009521,-0.990845,0.373527,0.371298,-0.25313,51,269,583,5632
1644165034.919563,-0.01178,0.011108,-0.990295,0.312458,0.294962,-0.100458,49,275,572,5536
1644165034.969868,-0.009155,0.010498,-0.991516,0.266656,0.432366,-0.039389,51,274,576,5536
1644165035.014344,-0.011475,0.00769,-0.993896,0.007115,0.310229,-0.069924,48,276,576,5600
1644165035.109646,-0.008545,0.010437,-0.993774,0.205588,0.386565,-0.085191,51,271,569,5648
1644165035.158065,-0.010437,0.009155,-0.991882,0.281924,0.478168,-0.069924,61,282,575,5632
1644165035.206472,-0.007996,0.011169,-0.990295,0.327725,0.233893,-0.161527,51,274,587,5632
1644165035.254853,-0.007629,0.009705,-0.989075,0.266656,0.447634,-0.039389,55,269,573,5584
1644165035.303247,-0.008545,0.009033,-0.989807,0.205588,0.432366,-0.207328,51,283,578,5600
1644165035.351633,-0.009827,0.005554,-0.99469,0.236122,0.478168,-0.008855,46,264,576,5600
1644165035.400048,-0.009277,0.009583,-0.990295,0.342992,0.401832,0.036947,57,277,584,5648
1644165035.448443,-0.007996,0.008484,-0.99054,0.404061,0.203359,-0.14626,59,270,582,5600
1644165035.496806,-0.009216,0.009766,-0.990784,0.266656,0.24916,-0.100458,51,271,583,5648
1644165035.545315,-0.009399,0.011902,-0.990112,0.327725,0.417099,-0.100458,52,273,579,5584
1644165035.593615,-0.009277,0.009216,-0.99115,0.236122,0.432366,-0.161527,48,274,583,5584
1644165035.641987,-0.010498,0.008789,-0.992126,0.220855,0.279695,-0.024122,59,268,582,5632
1644165035.690389,-0.009766,0.009521,-0.992188,0.08345,0.539237,-0.024122,53,274,573,5600
1644165035.73878,-0.009277,0.008423,-0.988037,0.342992,0.325496,-0.100458,57,275,572,5584
1644165035.787168,-0.009827,0.010681,-0.989868,0.373527,0.356031,-0.222595,65,274,587,5600
1644165035.835562,-0.00769,0.009949,-0.99292,0.175053,0.401832,-0.115725,43,288,585,5520
1644165035.883953,-0.009094,0.009033,-0.992371,0.205588,0.462901,-0.069924,45,270,582,5600
1644165035.932374,-0.009583,0.009888,-0.99115,0.373527,0.386565,-0.039389,45,280,579,5600
1644165035.98192,-0.010315,0.008972,-0.992188,0.129252,0.478168,-0.085191,57,270,575,5584
1644165036.031756,-0.008484,0.007812,-0.989441,0.175053,0.340763,0.067481,55,283,576,5600
1644165036.078155,-0.011047,0.009338,-0.991882,0.251389,0.417099,-0.024122,53,271,578,5584
1644165036.127439,-0.010803,0.010559,-0.990845,0.35826,0.432366,-0.069924,52,280,570,5664
1644165036.222672,-0.009155,0.009277,-0.991089,0.266656,0.371298,-0.054656,52,275,570,5584
1644165036.271026,-0.01239,0.008728,-0.992432,0.297191,0.340763,0.082748,51,269,580,5648
1644165036.319409,-0.009521,0.009766,-0.990906,0.480397,0.417099,-0.100458,49,275,579,5552
1644165036.367786,-0.012024,0.009277,-0.990112,0.266656,0.386565,-0.192061,48,279,583,5552
1644165036.416194,-0.011108,0.009949,-0.989014,0.113985,0.493435,-0.054656,48,276,578,5648
1644165036.464626,-0.010803,0.009277,-0.990417,0.266656,0.508702,-0.069924,60,279,564,5648
1644165036.512998,-0.011902,0.008423,-0.992554,0.205588,0.432366,-0.14626,43,279,576,5536
1644165036.561363,-0.009644,0.010315,-0.992493,0.175053,0.447634,0.006412,54,275,570,5552
1644165036.60976,-0.009521,0.008362,-0.991272,0.35826,0.462901,-0.14626,54,270,575,5632
1644165036.658144,-0.008789,0.011475,-0.991455,0.159786,0.371298,-0.008855,60,266,578,5552
1644165036.706519,-0.01001,0.010925,-0.990845,0.144519,0.478168,-0.054656,41,279,576,5584
1644165036.75507,-0.009277,0.009033,-0.99176,0.312458,0.493435,-0.283664,42,282,579,5648
1644165036.803381,-0.011719,0.009521,-0.989258,0.480397,0.340763,-0.024122,58,271,571,5632
1644165036.851764,-0.011902,0.009766,-0.991394,0.144519,0.356031,-0.161527,46,269,576,5552
1644165036.900138,-0.008301,0.010803,-0.991394,0.327725,0.417099,-0.024122,52,277,572,5600
1644165036.948534,-0.011841,0.010315,-0.992249,0.113985,0.325496,-0.054656,55,281,583,5584
1644165036.996926,-0.007935,0.010559,-0.989746,0.327725,0.340763,-0.161527,51,286,583,5520
1644165037.062978,-0.007019,0.011414,-0.993103,0.251389,0.371298,0.006412,39,276,583,5664
1644165037.098821,-0.008362,0.008545,-0.993103,0.327725,0.493435,-0.069924,57,270,579,5600
1644165037.146958,-0.009644,0.008423,-0.991516,0.404061,0.478168,0.021679,47,263,575,5648
1644165037.238872,-0.009583,0.008362,-0.990723,0.205588,0.569771,-0.115725,49,277,577,5584
1644165037.287203,-0.006531,0.010681,-0.989563,0.220855,0.386565,-0.039389,47,268,568,5584
1644165037.335597,-0.007996,0.011353,-0.991943,0.205588,0.508702,-0.024122,55,283,571,5584
1644165037.384011,-0.007751,0.010315,-0.989929,0.113985,0.600305,-0.161527,47,268,572,5584
1644165037.432512,-0.009521,0.009705,-0.990662,0.266656,0.462901,-0.207328,51,269,580,5648
1644165037.480767,-0.00946,0.010803,-0.993042,0.236122,0.386565,-0.085191,52,275,584,5648
1644165037.529169,-0.011169,0.011475,-0.990784,0.281924,0.325496,-0.100458,43,271,580,5584
1644165037.577566,-0.008423,0.00885,-0.993958,0.220855,0.447634,-0.024122,45,280,579,5600
1644165037.625955,-0.007935,0.009277,-0.991211,0.251389,0.325496,-0.039389,60,276,569,5600
1644165037.674355,-0.011108,0.005859,-0.993835,0.007115,0.371298,-0.192061,55,279,576,5600
1644165037.72275,-0.009033,0.009521,-0.991577,0.236122,0.325496,-0.100458,52,275,572,5648
1644165037.771126,-0.010681,0.007751,-0.990662,0.388794,0.279695,-0.130992,47,268,579,5552
1644165037.819563,-0.009827,0.008118,-0.991333,0.159786,0.310229,-0.100458,52,277,577,5648
1644165037.867954,-0.012878,0.008301,-0.98999,0.236122,0.554504,-0.161527,47,275,577,5696
1644165037.916343,-0.011414,0.006897,-0.993591,0.281924,0.325496,-0.192061,49,280,582,5600
1644165037.964741,-0.011902,0.011292,-0.99054,0.327725,0.279695,0.006412,45,277,568,5552
1644165038.013131,-0.007751,0.008728,-0.993713,0.297191,0.508702,-0.115725,47,270,572,5632
1644165038.07593,-0.009338,0.008118,-0.989929,0.236122,0.432366,-0.222595,55,281,569,5648
1644165038.113111,-0.011475,0.009338,-0.994751,0.159786,0.401832,-0.192061,42,273,577,5648
1644165038.162385,-0.009949,0.009521,-0.989868,0.129252,0.539237,-0.130992,55,266,576,5648
1644165038.207558,-0.008972,0.009399,-0.991455,0.327725,0.386565,0.052214,42,277,582,5584
1644165038.303419,-0.007568,0.008179,-0.991028,0.098718,0.417099,-0.069924,45,273,579,5648
1644165038.35181,-0.009399,0.010071,-0.989014,0.312458,0.432366,-0.100458,53,274,573,5584
1644165038.400202,-0.010986,0.012329,-0.989563,0.205588,0.432366,-0.069924,51,276,578,5632
1644165038.448595,-0.010315,0.013,-0.991089,0.312458,0.356031,-0.085191,52,270,579,5536
1644165038.496953,-0.011108,0.010254,-0.992371,0.342992,0.447634,-0.100458,46,279,576,5536
1644165038.545367,-0.012024,0.010376,-0.989258,0.251389,0.386565,0.006412,42,277,575,5584
1644165038.593759,-0.008545,0.00647,-0.991638,0.266656,0.401832,-0.115725,53,266,573,5584
1644165038.642181,-0.011963,0.009827,-0.992493,0.281924,0.310229,-0.130992,46,271,578,5584
1644165038.690543,-0.008545,0.012512,-0.992004,-0.053954,0.462901,-0.100458,41,274,573,5552
1644165038.738929,-0.008484,0.010559,-0.992798,0.281924,0.417099,-0.008855,49,282,579,5648
1644165038.787325,-0.009583,0.009033,-0.989685,0.251389,0.478168,-0.039389,46,276,573,5632
1644165038.83576,-0.013306,0.009216,-0.99115,0.236122,0.462901,0.036947,49,268,577,5696
1644165038.884155,-0.010681,0.011414,-0.990723,0.266656,0.508702,-0.115725,48,271,583,5584
1644165038.932552,-0.009888,0.009644,-0.991028,0.113985,0.493435,-0.115725,48,264,580,5648
1644165038.980923,-0.01123,0.010925,-0.991882,0.113985,0.600305,0.067481,52,265,577,5584
1644165039.029326,-0.009094,0.009827,-0.990662,0.113985,0.432366,-0.100458,52,280,582,5600
1644165039.079245,-0.010376,0.008606,-0.991211,0.220855,0.386565,-0.024122,59,270,579,5584
1644165039.126064,-0.009277,0.009155,-0.991516,0.251389,0.432366,-0.008855,49,277,582,5552
1644165039.174444,-0.009827,0.01178,-0.990295,0.236122,0.264427,-0.008855,45,258,579,5584
1644165039.223237,-0.00824,0.01123,-0.990906,0.449863,0.386565,0.082748,48,269,580,5584
1644165039.273471,-0.009277,0.009033,-0.991699,0.159786,0.539237,-0.222595,52,270,579,5584
1644165039.324466,-0.012695,0.01123,-0.98938,0.236122,0.432366,-0.039389,40,282,577,5648
1644165039.368735,-0.009583,0.01001,-0.99231,0.327725,0.264427,-0.039389,42,273,572,5520
1644165039.464868,-0.011841,0.011353,-0.993408,0.419328,0.600305,-0.008855,47,270,572,5584
1644165039.513177,-0.00824,0.011108,-0.990173,0.175053,0.356031,-0.054656,46,279,578,5584
1644165039.56156,-0.007202,0.009949,-0.992554,0.129252,0.325496,-0.039389,43,279,578,5584
1644165039.609946,-0.011353,0.008911,-0.992126,0.251389,0.63084,-0.054656,41,271,580,5600
1644165039.658343,-0.01001,0.010498,-0.992249,0.404061,0.432366,-0.176794,54,265,572,5584
1644165039.706729,-0.009338,0.009155,-0.99231,0.175053,0.462901,-0.14626,59,282,568,5552
1644165039.755174,-0.007019,0.012146,-0.990601,0.190321,0.417099,-0.130992,54,277,572,5584
1644165039.803519,-0.010925,0.01123,-0.992004,0.190321,0.371298,-0.069924,52,268,575,5632
1644165039.851958,-0.009338,0.009399,-0.990845,0.342992,0.493435,-0.024122,43,274,571,5552
1644165039.900346,-0.009705,0.008911,-0.991943,0.312458,0.401832,-0.085191,49,270,577,5600
1644165039.948738,-0.010681,0.007629,-0.991699,0.251389,0.386565,-0.085191,42,268,570,5648
1644165039.997105,-0.011169,0.009277,-0.991943,0.220855,0.462901,-0.039389,48,274,583,5552
1644165040.051535,-0.012939,0.006348,-0.990295,0.190321,0.554504,-0.237863,39,283,578,5584
1644165040.093925,-0.011108,0.010803,-0.991943,0.327725,0.432366,-0.039389,49,285,582,5552
1644165040.142273,-0.011475,0.012146,-0.994202,0.266656,0.447634,-0.085191,46,271,585,5584
1644165040.19064,-0.011047,0.011841,-0.992371,0.205588,0.539237,-0.039389,48,279,576,5632
1644165040.23901,-0.013672,0.006836,-0.989441,0.312458,0.401832,-0.054656,49,280,570,5600
1644165040.287399,-0.009705,0.009583,-0.991455,0.312458,0.340763,-0.176794,48,271,583,5600
1644165040.335806,-0.008118,0.008484,-0.990601,0.129252,0.264427,-0.192061,49,268,582,5584
1644165040.384251,-0.010864,0.008545,-0.992004,0.342992,0.478168,-0.161527,46,269,571,5584
1644165040.434723,-0.011292,0.008606,-0.992126,0.129252,0.478168,-0.268397,46,271,578,5552
1644165040.484923,-0.008545,0.011475,-0.991211,0.159786,0.447634,-0.130992,45,275,579,5600
1644165040.530091,-0.009583,0.009766,-0.992188,0.312458,0.478168,-0.069924,54,270,582,5648
1644165040.626128,-0.008484,0.009949,-0.989075,0.251389,0.432366,-0.024122,47,277,568,5600
1644165040.674557,-0.00885,0.007996,-0.993042,0.175053,0.417099,-0.085191,45,285,577,5632
1644165040.722933,-0.009521,0.006775,-0.99054,0.220855,0.371298,-0.008855,42,273,582,5584
1644165040.77132,-0.009766,0.00946,-0.991882,0.342992,0.340763,-0.024122,53,264,573,5584
1644165040.819714,-0.010437,0.009644,-0.991455,0.144519,0.432366,0.098015,49,275,575,5632
1644165040.868134,-0.009827,0.011353,-0.993835,0.236122,0.432366,-0.008855,48,274,569,5536
1644165040.916526,-0.009155,0.009338,-0.991638,0.312458,0.539237,-0.14626,46,276,569,5648
1644165040.964912,-0.01062,0.009094,-0.991333,0.220855,0.356031,0.052214,52,258,570,5536
1644165041.013297,-0.007935,0.011597,-0.992126,0.098718,0.493435,-0.14626,54,273,575,5552
1644165041.013297,-0.007935,0.011597,-0.992126,0.098718,0.493435,-0.14626,54,273,575,5552
1644165041.110106,-0.008728,0.012207,-0.991211,0.220855,0.325496,-0.100458,52,275,577,5552
1644165041.15846,-0.010193,0.009644,-0.992554,0.220855,0.310229,-0.207328,45,268,577,5584
1644165041.206832,-0.010864,0.010498,-0.991516,0.281924,0.554504,-0.207328,54,273,589,5664
1644165041.255258,-0.00946,0.009644,-0.988647,0.175053,0.386565,-0.085191,47,275,591,5648
1644165041.303592,-0.01001,0.010925,-0.990906,0.266656,0.386565,-0.024122,52,277,575,5600
1644165041.352,-0.012756,0.01062,-0.993469,0.35826,0.478168,0.036947,57,277,579,5664
1644165041.40038,-0.013306,0.012207,-0.991882,0.251389,0.371298,-0.100458,55,276,587,5632
1644165041.448773,-0.010864,0.010681,-0.99353,0.251389,0.356031,-0.085191,48,274,571,5648
1644165041.497506,-0.012451,0.00824,-0.993774,0.190321,0.539237,-0.100458,45,275,582,5584
1644165041.54729,-0.01178,0.010742,-0.993896,0.220855,0.462901,-0.054656,59,273,579,5584
1644165041.597957,-0.009216,0.007202,-0.992004,0.312458,0.447634,-0.039389,47,275,579,5600
1644165041.642688,-0.011719,0.011414,-0.99408,0.312458,0.401832,-0.008855,43,274,573,5584
1644165041.739114,-0.00708,0.011292,-0.993103,0.327725,0.310229,-0.14626,51,274,569,5584
1644165041.787499,-0.010437,0.007324,-0.990723,0.205588,0.462901,-0.176794,47,282,575,5584
1644165041.835886,-0.009705,0.010376,-0.991943,0.312458,0.417099,-0.100458,52,268,582,5696
1644165041.884344,-0.01062,0.010681,-0.990784,0.342992,0.447634,-0.039389,55,279,576,5584
1644165041.932733,-0.008301,0.010803,-0.992737,0.342992,0.294962,0.021679,51,271,578,5584
1644165041.981117,-0.007812,0.010559,-0.990295,0.175053,0.356031,0.067481,41,281,578,5600
1644165042.029504,-0.010315,0.008911,-0.989685,0.266656,0.371298,-0.024122,49,265,579,5536
1644165042.081723,-0.009399,0.008972,-0.987244,0.266656,0.478168,0.006412,42,275,589,5648
1644165042.126292,-0.01001,0.010986,-0.990784,0.297191,0.585038,-0.161527,59,277,579,5584
1644165042.174713,-0.010498,0.009155,-0.992432,0.236122,0.508702,-0.008855,47,280,575,5584
1644165042.223044,-0.01123,0.007874,-0.990112,0.190321,0.585038,-0.100458,48,266,583,5648
1644165042.271433,-0.009705,0.012024,-0.991882,0.205588,0.279695,-0.069924,53,276,587,5584
1644165042.319769,-0.011658,0.008118,-0.991638,0.251389,0.386565,-0.039389,53,279,564,5632
1644165042.368217,-0.009338,0.009705,-0.990601,0.220855,0.554504,-0.085191,49,273,575,5536
1644165042.41658,-0.010315,0.009888,-0.992065,0.175053,0.401832,-0.085191,45,277,575,5648
1644165042.465022,-0.010132,0.007935,-0.989929,0.129252,0.585038,-0.192061,57,270,577,5632
1644165042.513375,-0.012634,0.007935,-0.994324,0.08345,0.462901,0.036947,41,279,580,5584
1644165042.561754,-0.008484,0.009705,-0.992432,0.281924,0.386565,-0.207328,53,279,587,5584
1644165042.610213,-0.010437,0.007263,-0.991455,0.266656,0.417099,-0.008855,52,287,586,5600
1644165042.658992,-0.00885,0.006714,-0.990173,0.251389,0.447634,-0.176794,49,277,575,5632
1644165042.709587,-0.010803,0.009949,-0.993835,0.175053,0.432366,-0.100458,52,287,579,5600
1644165042.759712,-0.009399,0.007568,-0.990662,0.129252,0.600305,0.006412,62,276,573,5584
1644165042.804724,-0.009338,0.012268,-0.992004,0.190321,0.447634,-0.039389,58,274,571,5584
1644165042.90052,-0.00885,0.011475,-0.992004,0.342992,0.508702,-0.130992,48,276,573,5600
1644165042.948882,-0.012512,0.010132,-0.989441,0.342992,0.371298,-0.085191,41,271,569,5584
1644165042.997335,-0.009644,0.008301,-0.99115,0.129252,0.569771,-0.069924,52,275,577,5584
1644165043.052342,-0.011108,0.010071,-0.988708,0.236122,0.523969,-0.100458,60,274,571,5584
1644165043.094062,-0.009094,0.012268,-0.991821,0.266656,0.462901,-0.115725,53,276,578,5552
1644165043.142503,-0.009583,0.008362,-0.990784,0.297191,0.447634,-0.024122,61,285,577,5600
1644165043.190874,-0.012085,0.009399,-0.990173,0.159786,0.371298,-0.039389,48,271,571,5584
1644165043.239269,-0.009888,0.008179,-0.990723,0.312458,0.371298,-0.207328,47,280,572,5600
1644165043.287636,-0.011597,0.011169,-0.990662,0.297191,0.493435,-0.054656,49,273,572,5584
1644165043.336051,-0.011658,0.010681,-0.991943,0.175053,0.447634,-0.161527,61,273,572,5600
1644165043.384442,-0.009155,0.009094,-0.991089,0.266656,0.264427,0.006412,54,275,584,5552
1644165043.432839,-0.011963,0.009155,-0.992676,0.373527,0.356031,-0.100458,43,274,580,5664
1644165043.48122,-0.010498,0.006042,-0.993347,0.297191,0.371298,0.052214,60,271,573,5648
1644165043.529598,-0.009521,0.008606,-0.990417,0.251389,0.554504,-0.008855,49,275,582,5536
1644165043.577965,-0.012817,0.00824,-0.99176,0.312458,0.478168,-0.14626,52,265,579,5664
1644165043.626389,-0.012207,0.008423,-0.991577,0.220855,0.478168,-0.024122,55,276,571,5552
1644165043.674865,-0.006897,0.007996,-0.990601,0.404061,0.462901,-0.085191,58,264,578,5648
1644165043.723204,-0.012878,0.009216,-0.990845,0.266656,0.340763,-0.054656,41,281,576,5584
1644165043.772638,-0.011719,0.011902,-0.991699,0.388794,0.585038,-0.130992,49,265,577,5600
1644165043.822635,-0.011353,0.01062,-0.990723,0.190321,0.432366,-0.054656,53,266,573,5584
1644165043.873074,-0.013062,0.00708,-0.994873,0.419328,0.401832,-0.039389,55,274,571,5632
1644165043.917692,-0.008545,0.01062,-0.993164,0.205588,0.417099,-0.25313,41,274,569,5584
1644165044.013499,-0.009094,0.010376,-0.994751,0.220855,0.233893,-0.130992,52,287,577,5584
1644165044.062012,-0.009766,0.011292,-0.994141,0.220855,0.310229,-0.115725,53,279,583,5632
1644165044.110196,-0.01178,0.011719,-0.992188,0.373527,0.585038,-0.130992,51,274,573,5536
1644165044.158634,-0.009583,0.010803,-0.98999,0.312458,0.294962,-0.024122,46,271,583,5584
1644165044.207,-0.007507,0.010681,-0.990356,0.113985,0.432366,-0.085191,52,287,568,5648
1644165044.255398,-0.008728,0.010315,-0.989807,0.251389,0.462901,0.067481,35,270,570,5536
1644165044.303793,-0.008789,0.010254,-0.991455,0.266656,0.279695,-0.039389,51,271,573,5648
1644165044.352206,-0.01123,0.009766,-0.989197,0.236122,0.539237,-0.054656,45,282,579,5536
1644165044.400585,-0.007935,0.010132,-0.992615,0.373527,0.356031,-0.100458,43,271,578,5600
1644165044.448979,-0.008972,0.008423,-0.989563,0.220855,0.478168,-0.14626,52,275,572,5584
1644165044.49734,-0.010254,0.008667,-0.989868,0.251389,0.508702,-0.085191,53,276,576,5584
1644165044.545765,-0.011047,0.010986,-0.988098,0.205588,0.462901,0.067481,57,282,589,5584
1644165044.594166,-0.007263,0.009644,-0.990417,0.373527,0.325496,-0.130992,53,276,566,5584
1644165044.642561,-0.007568,0.009155,-0.992615,0.190321,0.432366,-0.14626,45,285,577,5600
1644165044.69093,-0.007629,0.012329,-0.993286,0.281924,0.386565,-0.192061,54,280,579,5536
1644165044.739324,-0.010925,0.011108,-0.990356,0.266656,0.417099,0.052214,47,273,575,5584
1644165044.787727,-0.007996,0.009155,-0.99353,0.220855,0.371298,0.052214,42,285,572,5584
1644165044.836127,-0.008789,0.011841,-0.992065,0.327725,0.569771,-0.024122,48,274,576,5648
1644165044.884724,-0.009583,0.011963,-0.990173,0.236122,0.432366,0.021679,52,268,579,5648
1644165044.93469,-0.010254,0.008972,-0.993835,0.266656,0.462901,-0.024122,53,264,571,5584
1644165044.984879,-0.008606,0.011108,-0.991638,0.236122,0.310229,-0.039389,51,291,571,5584
1644165045.034807,-0.009583,0.007812,-0.992554,0.129252,0.432366,-0.237863,54,275,572,5600
1644165045.126416,-0.008301,0.009399,-0.992676,0.205588,0.447634,-0.085191,45,268,568,5664
1644165045.174866,-0.008911,0.011414,-0.991699,0.190321,0.493435,-0.176794,53,274,578,5600
1644165045.223238,-0.00946,0.008179,-0.989136,0.205588,0.386565,-0.14626,42,273,579,5584
1644165045.271598,-0.009399,0.010681,-0.987793,0.220855,0.447634,-0.039389,58,271,576,5648
1644165045.319989,-0.011108,0.009888,-0.990723,0.175053,0.462901,-0.039389,52,273,575,5584
1644165045.36839,-0.009766,0.011292,-0.992126,0.297191,0.371298,-0.176794,52,285,579,5584
1644165045.416774,-0.009827,0.007935,-0.989807,0.236122,0.371298,-0.207328,51,271,583,5584
1644165045.465229,-0.007507,0.009583,-0.990967,0.205588,0.417099,-0.100458,45,270,575,5600
1644165045.513566,-0.009644,0.008606,-0.99054,0.281924,0.493435,-0.085191,42,273,575,5584
1644165045.561958,-0.009094,0.010376,-0.989685,0.266656,0.386565,-0.192061,58,279,578,5552
1644165045.610349,-0.007812,0.010315,-0.990723,0.190321,0.386565,-0.024122,45,273,575,5552
1644165045.658737,-0.008911,0.011963,-0.990356,0.266656,0.478168,-0.130992,51,262,583,5600
1644165045.707128,-0.010132,0.009338,-0.991821,0.342992,0.401832,-0.14626,57,277,586,5600
1644165045.755519,-0.006836,0.009949,-0.992859,0.220855,0.432366,-0.085191,60,269,585,5584
1644165045.803942,-0.013245,0.00946,-0.992188,0.205588,0.356031,-0.054656,51,281,583,5584
1644165045.852344,-0.007751,0.009277,-0.99469,0.159786,0.386565,0.006412,53,276,585,5648
1644165045.900721,-0.012207,0.00769,-0.991699,0.113985,0.615573,-0.237863,54,273,582,5536
1644165045.949405,-0.009644,0.011292,-0.988037,0.373527,0.417099,-0.192061,54,275,582,5600
1644165045.997504,-0.008911,0.008179,-0.992798,0.113985,0.401832,-0.222595,54,277,570,5584
1644165046.094258,-0.009094,0.007324,-0.990723,0.342992,0.325496,-0.085191,49,280,584,5648
1644165046.142641,-0.010803,0.013977,-0.992188,0.342992,0.340763,-0.176794,46,269,576,5632
1644165046.191027,-0.013245,0.01062,-0.992371,0.129252,0.447634,0.006412,48,276,571,5536
1644165046.23941,-0.009766,0.012512,-0.991028,0.297191,0.401832,-0.054656,47,277,570,5552
1644165046.287799,-0.00592,0.011414,-0.987305,0.220855,0.447634,-0.039389,49,268,572,5648
1644165046.336209,-0.011292,0.011414,-0.990112,0.068183,0.356031,-0.054656,51,279,578,5552
1644165046.384617,-0.011841,0.009949,-0.991699,0.404061,0.340763,-0.130992,43,281,583,5536
1644165046.432991,-0.011475,0.011963,-0.992676,0.297191,0.279695,0.006412,52,282,586,5632
1644165046.481373,-0.008972,0.01355,-0.988281,0.205588,0.325496,-0.039389,45,275,577,5536
1644165046.529754,-0.006653,0.010315,-0.988281,0.312458,0.508702,-0.207328,48,279,571,5536
1644165046.57823,-0.010193,0.008728,-0.992676,0.236122,0.325496,-0.176794,57,270,575,5552
1644165046.626543,-0.012451,0.009521,-0.989929,0.190321,0.493435,-0.130992,55,274,571,5584
1644165046.675062,-0.009583,0.010437,-0.993835,0.190321,0.569771,0.036947,46,264,573,5584
1644165046.723336,-0.008118,0.008484,-0.989502,0.297191,0.523969,-0.14626,53,279,585,5648
1644165046.771706,-0.008667,0.009827,-0.989807,0.175053,0.371298,0.006412,60,279,583,5552
1644165046.820129,-0.01178,0.011292,-0.990906,0.113985,0.539237,-0.192061,43,271,583,5584
1644165046.8685,-0.008484,0.010376,-0.994812,0.297191,0.523969,0.067481,52,275,579,5600
1644165046.91698,-0.009949,0.008423,-0.992554,0.327725,0.432366,-0.100458,43,269,573,5536
1644165046.965383,-0.008972,0.012573,-0.989685,0.312458,0.432366,-0.069924,45,268,582,5584
1644165047.014953,-0.006409,0.00885,-0.989807,0.159786,0.523969,-0.207328,49,270,579,5632
1644165047.074866,-0.009949,0.010376,-0.991089,0.373527,0.417099,-0.192061,59,275,582,5648
1644165047.116191,-0.010132,0.009766,-0.991699,0.281924,0.417099,-0.054656,48,279,562,5632
1644165047.159416,-0.013123,0.010742,-0.988159,0.281924,0.371298,-0.008855,46,279,566,5648
1644165047.255594,-0.010681,0.009155,-0.990723,0.266656,0.401832,-0.115725,38,270,572,5536
1644165047.304011,-0.010376,0.01001,-0.989197,0.35826,0.279695,-0.130992,49,273,577,5584
1644165047.352479,-0.013855,0.011658,-0.992432,0.373527,0.447634,-0.024122,45,280,582,5584
1644165047.400789,-0.007629,0.009949,-0.992615,0.388794,0.310229,-0.192061,48,276,576,5664
1644165047.449167,-0.009705,0.009521,-0.99115,0.251389,0.386565,-0.024122,59,270,570,5584
1644165047.497572,-0.010986,0.009216,-0.988342,0.236122,0.432366,0.021679,49,270,568,5648
1644165047.54595,-0.010315,0.009583,-0.993896,0.373527,0.386565,-0.222595,54,273,579,5632
1644165047.594356,-0.00885,0.010376,-0.991333,0.205588,0.478168,-0.115725,54,273,572,5584
1644165047.64275,-0.013855,0.009399,-0.993225,0.236122,0.615573,0.082748,58,276,583,5552
1644165047.69113,-0.010437,0.009583,-0.991577,0.205588,0.417099,-0.039389,52,285,575,5632
1644165047.739518,-0.007385,0.01062,-0.994019,0.068183,0.539237,-0.222595,45,277,577,5536
1644165047.787895,-0.010437,0.009521,-0.992493,0.190321,0.386565,-0.237863,45,287,577,5552
1644165047.8363,-0.008362,0.008545,-0.987976,0.312458,0.325496,-0.008855,51,279,580,5552
1644165047.88473,-0.010254,0.009399,-0.991394,0.388794,0.447634,-0.039389,47,265,575,5584
1644165047.93313,-0.008118,0.010437,-0.991638,0.266656,0.478168,-0.130992,58,269,583,5536
1644165047.981476,-0.010254,0.009583,-0.992615,0.220855,0.294962,-0.085191,39,279,573,5488
1644165048.029902,-0.008118,0.008972,-0.990356,0.220855,0.661374,-0.14626,58,271,580,5536
1644165048.083405,-0.009216,0.012146,-0.992981,0.129252,0.539237,-0.130992,52,277,577,5536
1644165048.127743,-0.009094,0.006714,-0.992065,0.373527,0.371298,-0.100458,48,283,573,5536
1644165048.176673,-0.008362,0.013184,-0.992004,0.266656,0.417099,-0.039389,55,279,566,5536
1644165048.227061,-0.010559,0.009583,-0.990356,0.205588,0.462901,-0.237863,51,274,562,5600
1644165048.272058,-0.009338,0.008301,-0.991882,0.190321,0.462901,-0.100458,49,277,572,5632
1644165048.36857,-0.010498,0.009094,-0.993591,0.404061,0.401832,-0.130992,52,260,577,5648
1644165048.416955,-0.008484,0.008423,-0.99292,0.251389,0.417099,-0.100458,51,262,576,5600
1644165048.465389,-0.011597,0.008789,-0.990479,0.342992,0.447634,-0.115725,51,276,573,5584
1644165048.513761,-0.009705,0.009155,-0.990906,0.251389,0.340763,0.036947,54,280,577,5648
1644165048.562363,-0.010925,0.010986,-0.992065,0.312458,0.401832,-0.085191,46,274,569,5600
1644165048.610524,-0.009644,0.011292,-0.990234,0.052916,0.401832,-0.054656,51,266,583,5536
1644165048.658931,-0.007812,0.009216,-0.988892,0.266656,0.401832,0.021679,49,277,575,5648
1644165048.707336,-0.007812,0.007446,-0.993225,0.35826,0.493435,-0.085191,49,268,568,5536
1644165048.755711,-0.011597,0.009338,-0.992737,0.327725,0.401832,-0.14626,47,280,575,5584
1644165048.804106,-0.010803,0.010193,-0.988037,0.297191,0.447634,-0.115725,51,271,576,5552
1644165048.85254,-0.012024,0.008118,-0.991028,0.159786,0.310229,-0.130992,52,270,577,5584
1644165048.900915,-0.009338,0.010498,-0.99115,0.144519,0.447634,-0.14626,46,276,587,5664
1644165048.949316,-0.009399,0.010803,-0.990601,0.327725,0.569771,-0.14626,51,271,576,5600
1644165048.997709,-0.011719,0.009033,-0.99115,0.312458,0.401832,-0.14626,54,275,575,5552
1644165049.053709,-0.008728,0.01123,-0.991455,0.08345,0.523969,-0.069924,49,277,582,5648
1644165049.094504,-0.009155,0.008179,-0.989014,0.281924,0.432366,0.006412,53,271,580,5600
1644165049.142854,-0.008362,0.011292,-0.992188,0.236122,0.508702,-0.192061,48,279,587,5536
1644165049.191216,-0.009888,0.011841,-0.990967,0.236122,0.294962,0.067481,60,276,578,5552
1644165049.239578,-0.007019,0.01001,-0.992188,0.220855,0.432366,-0.100458,51,266,578,5600
1644165049.288035,-0.011841,0.009094,-0.989197,0.190321,0.478168,0.067481,47,270,584,5584
1644165049.338457,-0.008606,0.010254,-0.992676,0.236122,0.462901,-0.054656,48,271,583,5584
1644165049.388569,-0.010864,0.008667,-0.990845,0.236122,0.386565,-0.008855,48,274,573,5600
1644165049.433709,-0.011292,0.010193,-0.992554,0.205588,0.371298,-0.176794,47,268,582,5584
1644165049.529953,-0.009583,0.008728,-0.99115,0.190321,0.523969,-0.115725,54,280,572,5648
1644165049.578328,-0.013,0.011719,-0.992615,0.297191,0.432366,-0.237863,41,269,578,5536
1644165049.626715,-0.009766,0.009033,-0.992249,0.175053,0.340763,-0.14626,49,273,572,5632
1644165049.675447,-0.008728,0.009338,-0.990601,0.113985,0.462901,0.006412,51,269,573,5664
1644165049.723517,-0.010437,0.01001,-0.993286,0.129252,0.356031,-0.161527,52,280,572,5520
1644165049.771903,-0.010681,0.011841,-0.991028,0.342992,0.539237,0.082748,48,274,583,5600
1644165049.820306,-0.010498,0.008301,-0.991638,0.037649,0.264427,-0.100458,60,266,573,5600
1644165049.868701,-0.011353,0.007874,-0.992554,0.236122,0.432366,-0.130992,45,280,572,5600
1644165049.917125,-0.010925,0.01062,-0.992798,0.281924,0.462901,-0.085191,53,274,576,5600
1644165049.965503,-0.009277,0.010498,-0.990845,0.297191,0.371298,0.021679,58,269,580,5600
1644165050.013886,-0.009521,0.008789,-0.991333,0.251389,0.401832,-0.085191,46,276,578,5584
1644165050.077702,-0.010864,0.009399,-0.993347,0.175053,0.554504,-0.130992,52,287,579,5648
1644165050.110689,-0.011353,0.012756,-0.991455,0.190321,0.340763,-0.085191,53,269,587,5600
1644165050.15903,-0.008423,0.011597,-0.989807,0.312458,0.523969,-0.115725,52,285,575,5648
1644165050.207411,-0.010376,0.009094,-0.992737,0.281924,0.432366,-0.130992,51,276,576,5520
1644165050.255781,-0.007629,0.009705,-0.993225,0.098718,0.203359,-0.085191,49,275,586,5600
1644165050.304175,-0.012146,0.009399,-0.994873,0.098718,0.417099,-0.054656,57,282,575,5648
1644165050.352834,-0.008606,0.009583,-0.991638,0.373527,0.417099,-0.008855,58,276,573,5600
1644165050.403421,-0.006348,0.009705,-0.991394,0.144519,0.356031,-0.054656,40,253,575,5600
1644165050.454143,-0.010071,0.009583,-0.99292,0.327725,0.508702,-0.130992,48,274,578,5584
1644165050.498689,-0.010437,0.009888,-0.991089,0.220855,0.508702,-0.085191,49,260,582,5584
1644165050.594542,-0.008545,0.01178,-0.98999,0.190321,0.356031,-0.222595,41,274,571,5536
1644165050.642949,-0.007812,0.009705,-0.992981,0.373527,0.508702,-0.207328,47,265,570,5552
1644165050.69131,-0.010437,0.00824,-0.992981,0.297191,0.386565,-0.069924,45,277,572,5488
1644165050.739684,-0.010925,0.013062,-0.99231,0.35826,0.493435,-0.069924,54,263,584,5600
1644165050.788096,-0.009766,0.011719,-0.989807,0.342992,0.539237,-0.130992,47,280,579,5584
1644165050.836488,-0.011902,0.010498,-0.993652,0.312458,0.310229,-0.192061,57,277,575,5648
1644165050.884909,-0.010071,0.013123,-0.990479,0.35826,0.462901,-0.14626,51,269,583,5600
1644165050.933357,-0.011719,0.007507,-0.991821,0.35826,0.417099,-0.100458,46,266,578,5584
1644165050.981701,-0.009583,0.011902,-0.991943,0.205588,0.386565,-0.130992,46,281,580,5536
1644165051.030075,-0.012268,0.008179,-0.990234,0.236122,0.371298,-0.222595,57,282,570,5632
1644165051.078554,-0.010193,0.010376,-0.991577,0.266656,0.432366,-0.207328,51,274,578,5584
1644165051.126846,-0.008545,0.007751,-0.991272,0.205588,0.554504,0.067481,42,268,572,5552
1644165051.175295,-0.010803,0.008728,-0.991943,0.312458,0.493435,0.082748,45,275,577,5536
1644165051.223626,-0.008789,0.011475,-0.991394,0.281924,0.432366,-0.176794,60,276,583,5536
1644165051.272004,-0.010803,0.008179,-0.990906,0.342992,0.371298,-0.039389,54,273,582,5552
1644165051.320381,-0.013428,0.008667,-0.991638,0.159786,0.539237,-0.008855,54,277,582,5584
1644165051.368762,-0.011597,0.008362,-0.990173,0.190321,0.539237,0.052214,54,265,582,5600
1644165051.41717,-0.012573,0.008362,-0.988586,0.220855,0.432366,-0.161527,46,271,585,5584
1644165051.465889,-0.00824,0.009705,-0.992798,0.159786,0.386565,-0.14626,47,273,570,5648
1644165051.514754,-0.012024,0.00769,-0.991516,0.220855,0.478168,-0.130992,51,269,585,5584
1644165051.565312,-0.011475,0.011719,-0.992981,0.388794,0.432366,0.021679,57,270,589,5584
1644165051.615454,-0.009277,0.008789,-0.990112,0.251389,0.447634,-0.024122,49,273,579,5536
1644165051.707511,-0.008484,0.010681,-0.99054,0.327725,0.508702,-0.054656,49,268,575,5584
1644165051.755888,-0.009338,0.006775,-0.991211,0.297191,0.432366,0.052214,52,273,584,5552
1644165051.804293,-0.011658,0.00824,-0.993835,0.251389,0.478168,-0.008855,59,275,575,5648
1644165051.852705,-0.007751,0.012207,-0.992859,0.342992,0.523969,0.113282,54,273,584,5584
1644165051.901112,-0.008972,0.010254,-0.99115,0.35826,0.508702,0.036947,46,274,578,5584
1644165051.949503,-0.011902,0.009521,-0.994446,0.220855,0.462901,-0.130992,46,279,583,5600
1644165051.997872,-0.009521,0.011963,-0.991028,0.327725,0.417099,-0.069924,55,274,564,5648
1644165052.053548,-0.01178,0.008911,-0.992371,0.35826,0.432366,-0.024122,43,281,585,5632
1644165052.094755,-0.008057,0.010742,-0.990723,0.098718,0.447634,0.021679,53,271,576,5584
1644165052.143077,-0.01178,0.006775,-0.99353,0.205588,0.432366,-0.069924,48,274,576,5632
1644165052.191412,-0.00885,0.009644,-0.991638,0.175053,0.310229,-0.008855,47,277,572,5536
1644165052.239851,-0.009094,0.010132,-0.993469,0.266656,0.325496,-0.008855,60,281,573,5648
1644165052.288233,-0.010254,0.007568,-0.992126,0.144519,0.401832,0.006412,45,275,575,5552
1644165052.336638,-0.010803,0.009583,-0.991272,0.266656,0.462901,-0.161527,52,265,582,5584
1644165052.385065,-0.011963,0.007812,-0.99115,0.129252,0.539237,-0.237863,52,275,570,5600
1644165052.433414,-0.008484,0.011475,-0.990051,0.404061,0.356031,-0.14626,49,270,568,5632
1644165052.481796,-0.014099,0.010437,-0.994568,0.236122,0.417099,-0.268397,51,266,585,5632
1644165052.530555,-0.013306,0.008301,-0.994263,0.236122,0.585038,-0.024122,53,266,580,5648
1644165052.578593,-0.010071,0.009705,-0.989319,0.434595,0.432366,0.006412,52,273,575,5600
1644165052.628696,-0.007751,0.008728,-0.991638,0.281924,0.691908,-0.054656,59,273,570,5632
1644165052.678891,-0.012756,0.010071,-0.990112,0.236122,0.264427,-0.130992,54,273,575,5584
1644165052.729388,-0.008484,0.010254,-0.992249,0.266656,0.432366,-0.054656,45,277,584,5600
1644165052.773812,-0.011475,0.008118,-0.990234,0.113985,0.478168,-0.161527,53,276,573,5632
1644165052.868916,-0.007324,0.009644,-0.989197,0.175053,0.401832,-0.283664,58,279,573,5600
1644165052.917301,-0.011353,0.011292,-0.990295,0.312458,0.462901,-0.069924,58,266,580,5584
1644165052.9657,-0.009338,0.012024,-0.990112,0.175053,0.417099,-0.008855,52,273,575,5664
1644165053.014097,-0.008728,0.010681,-0.992371,0.220855,0.478168,-0.039389,43,271,585,5584
1644165053.062669,-0.009521,0.010925,-0.99115,0.327725,0.478168,-0.054656,54,275,577,5584
1644165053.110808,-0.007568,0.010925,-0.991211,0.251389,0.478168,-0.192061,55,276,580,5632
1644165053.159222,-0.008484,0.009583,-0.98877,0.175053,0.447634,0.036947,53,274,571,5584
1644165053.207617,-0.012451,0.007446,-0.99115,0.144519,0.325496,-0.054656,52,270,570,5632
1644165053.256013,-0.007629,0.00708,-0.99054,0.266656,0.340763,-0.069924,46,274,583,5600
1644165053.304406,-0.010254,0.009583,-0.992188,0.327725,0.325496,0.006412,45,273,577,5584
1644165053.35282,-0.010193,0.01123,-0.991089,0.236122,0.508702,-0.008855,48,269,573,5648
1644165053.401173,-0.007751,0.010132,-0.991577,0.312458,0.493435,-0.054656,48,276,585,5584
1644165053.449531,-0.007568,0.013184,-0.993591,0.205588,0.340763,-0.130992,60,283,587,5600
1644165053.497958,-0.009399,0.008972,-0.993835,0.327725,0.493435,-0.008855,53,266,573,5584
1644165053.546348,-0.01239,0.007874,-0.99292,0.434595,0.585038,-0.222595,48,269,583,5600
1644165053.594744,-0.009094,0.009216,-0.989502,0.251389,0.462901,0.052214,57,268,582,5600
1644165053.64314,-0.010559,0.010681,-0.98877,0.266656,0.401832,0.098015,54,275,579,5536
1644165053.691506,-0.012146,0.010803,-0.993774,0.297191,0.325496,0.006412,45,275,570,5600
1644165053.739967,-0.011963,0.011902,-0.993103,0.35826,0.340763,-0.039389,49,280,582,5648
1644165053.789085,-0.011475,0.011902,-0.992676,0.236122,0.539237,-0.100458,46,266,576,5600
1644165053.840651,-0.009521,0.010132,-0.994446,0.327725,0.508702,-0.14626,55,269,580,5584
1644165053.891,-0.011047,0.011719,-0.990234,0.205588,0.356031,-0.161527,43,276,583,5600
1644165053.934745,-0.007996,0.008911,-0.989624,0.297191,0.325496,-0.130992,55,274,578,5632
1644165054.030282,-0.010498,0.008301,-0.990417,0.373527,0.417099,-0.192061,45,268,577,5600
1644165054.078797,-0.009888,0.008118,-0.992798,0.129252,0.417099,-0.115725,53,276,580,5584
1644165054.127004,-0.008789,0.008606,-0.991699,0.388794,0.539237,-0.039389,46,281,569,5648
1644165054.175394,-0.010315,0.012451,-0.993591,0.129252,0.478168,-0.298931,40,268,572,5648
1644165054.223821,-0.010925,0.010071,-0.990967,0.35826,0.386565,-0.115725,47,273,575,5584
1644165054.272219,-0.011292,0.010132,-0.990662,0.281924,0.417099,0.036947,45,273,577,5600
1644165054.320584,-0.008484,0.00885,-0.991272,0.251389,0.554504,-0.069924,47,275,579,5552
1644165054.368984,-0.010071,0.007019,-0.990601,0.419328,0.478168,-0.207328,47,275,577,5584
1644165054.417367,-0.009216,0.008972,-0.993286,0.327725,0.508702,-0.054656,49,273,591,5584
1644165054.465764,-0.010193,0.011169,-0.991333,0.266656,0.508702,-0.130992,60,274,587,5584
1644165054.514147,-0.013428,0.008728,-0.989014,0.297191,0.325496,-0.024122,43,266,569,5536
1644165054.562544,-0.011536,0.007751,-0.992004,0.419328,0.417099,-0.25313,53,279,578,5648
1644165054.610917,-0.011353,0.008972,-0.991272,0.251389,0.493435,0.098015,45,273,577,5584
1644165054.659317,-0.009521,0.008606,-0.991394,0.175053,0.523969,0.052214,53,274,576,5552
1644165054.70768,-0.010254,0.010071,-0.99054,0.419328,0.386565,-0.054656,45,268,579,5632
1644165054.756079,-0.00769,0.010437,-0.991455,0.388794,0.447634,-0.069924,49,268,579,5488
1644165054.804536,-0.009583,0.010498,-0.991028,0.327725,0.264427,-0.130992,47,277,570,5584
1644165054.853095,-0.012756,0.008789,-0.991089,0.342992,0.554504,-0.069924,55,266,564,5600
1644165054.901382,-0.010132,0.008911,-0.989746,0.281924,0.432366,-0.130992,51,274,578,5600
1644165054.951159,-0.009827,0.009521,-0.990845,0.190321,0.386565,-0.14626,53,269,583,5552
1644165055.051854,-0.012329,0.007263,-0.993042,0.266656,0.478168,-0.054656,54,277,584,5600
1644165055.094944,-0.011475,0.007751,-0.990967,0.281924,0.340763,-0.085191,49,265,586,5552
1644165055.143207,-0.010071,0.00824,-0.991333,0.220855,0.432366,0.006412,48,266,576,5584
1644165055.191589,-0.014221,0.009216,-0.99176,0.236122,0.447634,-0.115725,49,280,577,5696
1644165055.24001,-0.011047,0.007935,-0.992615,0.312458,0.508702,-0.085191,53,271,573,5536
1644165055.288361,-0.007935,0.008118,-0.992615,0.220855,0.432366,-0.161527,52,275,575,5648
1644165055.33674,-0.010315,0.012573,-0.991272,0.449863,0.386565,0.021679,54,280,579,5600
1644165055.385251,-0.011963,0.008911,-0.992249,0.251389,0.554504,-0.14626,53,279,569,5536
1644165055.43361,-0.009338,0.009399,-0.993652,0.312458,0.478168,-0.024122,52,270,577,5600
1644165055.481955,-0.012268,0.008057,-0.991577,0.098718,0.432366,-0.069924,45,285,575,5552
1644165055.530337,-0.013916,0.009827,-0.993347,0.236122,0.371298,-0.161527,52,273,582,5648
1644165055.578725,-0.009705,0.009033,-0.990784,0.175053,0.264427,-0.100458,49,275,584,5584
1644165055.627112,-0.011353,0.009766,-0.992126,0.35826,0.310229,-0.008855,47,277,584,5584
1644165055.675509,-0.008179,0.008972,-0.98999,0.342992,0.508702,0.052214,58,279,580,5600
1644165055.723907,-0.007935,0.007935,-0.990662,0.205588,0.386565,0.006412,53,262,576,5600
1644165055.772332,-0.008789,0.011108,-0.990845,0.281924,0.569771,-0.039389,51,276,571,5600
1644165055.821407,-0.009216,0.010376,-0.99115,0.236122,0.493435,-0.085191,52,273,577,5584
1644165055.872208,-0.011475,0.011047,-0.990906,0.037649,0.478168,-0.130992,55,276,573,5584
1644165055.923046,-0.010803,0.009521,-0.991028,0.251389,0.447634,-0.100458,51,274,571,5584
1644165055.967359,-0.007751,0.010254,-0.991211,0.35826,0.294962,-0.161527,51,274,578,5584
1644165056.062776,-0.010132,0.008606,-0.989563,0.175053,0.310229,0.052214,36,269,571,5536
1644165056.11106,-0.008911,0.009155,-0.987061,0.388794,0.493435,-0.237863,53,276,573,5600
1644165056.159394,-0.008362,0.011169,-0.991455,0.251389,0.478168,-0.024122,60,274,564,5584
1644165056.2078,-0.00824,0.007324,-0.991516,0.251389,0.188092,-0.085191,45,277,575,5600
1644165056.256174,-0.009155,0.010681,-0.992004,0.159786,0.24916,-0.115725,49,280,579,5632
1644165056.304623,-0.010376,0.010254,-0.991211,0.113985,0.462901,0.036947,51,271,573,5600
1644165056.352992,-0.009338,0.008667,-0.99115,0.297191,0.401832,-0.024122,46,274,573,5600
1644165056.401362,-0.008423,0.010193,-0.99353,0.159786,0.371298,0.036947,55,274,580,5648
1644165056.449758,-0.009277,0.011169,-0.98999,0.220855,0.462901,-0.069924,41,281,569,5632
1644165056.498124,-0.012817,0.008972,-0.988586,0.251389,0.325496,-0.085191,55,269,585,5600
1644165056.546527,-0.00885,0.010742,-0.992188,0.342992,0.462901,-0.069924,58,279,578,5584
1644165056.59493,-0.011719,0.011475,-0.991882,0.022382,0.325496,-0.069924,48,274,569,5648
1644165056.643329,-0.008179,0.010193,-0.990784,0.266656,0.478168,0.082748,52,277,582,5584
1644165056.691756,-0.009888,0.009033,-0.989868,0.312458,0.325496,0.052214,49,282,579,5552
1644165056.740101,-0.011292,0.007507,-0.991638,0.220855,0.356031,-0.054656,51,281,578,5552
1644165056.78848,-0.010132,0.010803,-0.99115,0.236122,0.432366,-0.130992,43,281,583,5648
1644165056.836922,-0.00647,0.01123,-0.992798,0.266656,0.417099,-0.008855,45,285,572,5536
1644165056.885311,-0.01178,0.011108,-0.992432,0.098718,0.417099,-0.207328,43,279,580,5584
1644165056.933718,-0.010132,0.009766,-0.991394,0.297191,0.554504,-0.039389,52,280,575,5648
1644165056.983372,-0.013794,0.011414,-0.990906,0.236122,0.447634,-0.268397,49,277,570,5552
1644165057.0337,-0.009155,0.010864,-0.993347,0.175053,0.371298,-0.069924,59,273,570,5584
1644165057.094396,-0.009827,0.010193,-0.992615,0.342992,0.447634,-0.14626,48,266,583,5584
1644165057.175596,-0.007629,0.010376,-0.992615,0.327725,0.447634,-0.024122,48,286,580,5552
1644165057.224016,-0.010986,0.009155,-0.990356,0.419328,0.493435,-0.085191,49,265,575,5600
1644165057.272586,-0.009216,0.009521,-0.993347,0.342992,0.325496,-0.130992,53,271,573,5600
1644165057.320757,-0.01239,0.00885,-0.988586,0.327725,0.615573,-0.008855,52,268,575,5584
1644165057.369153,-0.008972,0.010742,-0.993835,0.236122,0.386565,-0.054656,55,276,571,5600
1644165057.417551,-0.010315,0.008362,-0.991089,0.342992,0.508702,0.006412,54,275,577,5600
1644165057.465965,-0.010864,0.009827,-0.991028,0.08345,0.478168,-0.192061,53,274,580,5632
1644165057.514348,-0.009338,0.011047,-0.990845,0.159786,0.478168,-0.039389,52,265,579,5584
1644165057.562753,-0.012207,0.009216,-0.992432,0.266656,0.493435,-0.008855,48,276,576,5600
1644165057.611132,-0.009399,0.007935,-0.990906,0.266656,0.417099,-0.14626,49,277,575,5584
1644165057.65951,-0.011414,0.010254,-0.990784,0.419328,0.462901,-0.024122,51,279,583,5552
1644165057.70791,-0.008972,0.009888,-0.992493,0.327725,0.478168,-0.100458,40,277,579,5600
1644165057.756296,-0.010254,0.00946,-0.992859,0.205588,0.401832,-0.130992,49,273,572,5600
1644165057.80472,-0.011292,0.010681,-0.994446,0.342992,0.325496,-0.115725,49,270,575,5648
1644165057.853102,-0.011719,0.010864,-0.989136,0.327725,0.401832,0.006412,40,277,579,5584
1644165057.901505,-0.009216,0.00769,-0.992432,0.35826,0.356031,-0.054656,48,269,580,5648
1644165057.949893,-0.009094,0.010498,-0.994019,0.251389,0.340763,-0.192061,36,281,580,5584
1644165057.998254,-0.011047,0.008301,-0.990906,0.236122,0.478168,-0.008855,61,280,579,5632
1644165058.067794,-0.010986,0.011475,-0.992554,0.312458,0.279695,-0.14626,46,269,590,5600
1644165058.10176,-0.01178,0.012451,-0.993774,0.251389,0.554504,-0.130992,51,276,583,5584
1644165058.14677,-0.010315,0.01001,-0.992126,0.35826,0.371298,-0.069924,58,283,578,5648
1644165058.195571,-0.006897,0.010437,-0.991455,0.251389,0.386565,-0.008855,54,280,579,5664
1644165058.240573,-0.008972,0.010803,-0.990906,0.159786,0.447634,-0.115725,57,280,572,5632
1644165058.336959,-0.010193,0.009705,-0.993042,0.404061,0.432366,-0.069924,61,280,579,5584
1644165058.385431,-0.011719,0.007996,-0.991455,0.236122,0.401832,0.036947,55,279,585,5584
1644165058.433755,-0.010376,0.011719,-0.990723,0.297191,0.462901,-0.085191,49,270,572,5600
1644165058.482497,-0.011902,0.011658,-0.989685,0.35826,0.508702,-0.14626,45,270,575,5648
1644165058.530523,-0.010986,0.012451,-0.99115,0.327725,0.447634,0.036947,53,271,583,5584
1644165058.578925,-0.007202,0.010437,-0.991211,0.236122,0.340763,-0.069924,55,274,580,5648
1644165058.627308,-0.010986,0.011841,-0.993164,0.236122,0.523969,-0.024122,51,281,569,5584
1644165058.675711,-0.007507,0.00769,-0.991699,0.220855,0.447634,0.067481,52,268,568,5600
1644165058.724107,-0.010803,0.004761,-0.988464,0.220855,0.600305,-0.054656,53,274,576,5584
1644165058.772511,-0.010315,0.008789,-0.992004,0.08345,0.523969,-0.115725,61,277,577,5584
1644165058.820884,-0.009094,0.010437,-0.991211,0.404061,0.462901,-0.130992,55,271,573,5536
1644165058.869327,-0.010742,0.009399,-0.99408,0.159786,0.401832,-0.054656,53,279,585,5584
1644165058.917706,-0.00885,0.010315,-0.991455,0.297191,0.371298,0.067481,57,268,579,5600
1644165058.966069,-0.011719,0.007324,-0.991882,0.388794,0.432366,-0.222595,54,270,572,5600
1644165059.014471,-0.01239,0.009216,-0.990662,0.220855,0.340763,0.12855,41,269,566,5584
1644165059.083644,-0.010132,0.007507,-0.992859,0.236122,0.447634,-0.115725,49,273,579,5584
1644165059.111235,-0.012756,0.012573,-0.991028,0.205588,0.523969,-0.054656,43,269,578,5584
1644165059.159968,-0.011475,0.010071,-0.990906,0.297191,0.523969,-0.069924,55,274,576,5632
1644165059.209032,-0.010742,0.010498,-0.990967,0.205588,0.294962,0.021679,52,273,584,5648
1644165059.2596,-0.010864,0.007385,-0.992676,0.404061,0.340763,-0.130992,60,283,569,5600
1644165059.309865,-0.010803,0.010376,-0.990295,0.220855,0.478168,-0.054656,55,271,580,5584
1644165059.401594,-0.01062,0.008057,-0.990112,0.35826,0.432366,-0.207328,57,273,565,5600
1644165059.449932,-0.012939,0.010803,-0.993225,0.312458,0.508702,-0.039389,48,269,571,5600
1644165059.498334,-0.010254,0.01062,-0.992004,0.190321,0.585038,-0.100458,55,276,571,5632
1644165059.54672,-0.009827,0.009583,-0.99054,0.342992,0.371298,-0.130992,43,271,566,5648
1644165059.595361,-0.008728,0.011536,-0.990906,0.205588,0.340763,-0.115725,47,277,572,5552
1644165059.643513,-0.008301,0.010498,-0.989258,0.220855,0.508702,-0.039389,53,271,576,5584
1644165059.691921,-0.012939,0.007568,-0.992493,0.236122,0.417099,-0.130992,53,269,580,5600
1644165059.740272,-0.006775,0.012024,-0.990723,0.342992,0.508702,-0.024122,42,268,577,5584
1644165059.788699,-0.010742,0.008118,-0.991638,0.327725,0.310229,-0.100458,47,273,577,5584
1644165059.837076,-0.008057,0.009888,-0.990417,0.205588,0.478168,-0.039389,59,277,577,5552
1644165059.885514,-0.01062,0.010803,-0.991699,0.190321,0.294962,-0.069924,43,274,580,5552
1644165059.933894,-0.011047,0.008789,-0.993713,0.312458,0.386565,-0.192061,57,270,577,5584
1644165059.982301,-0.009949,0.010437,-0.991943,0.236122,0.340763,0.006412,47,270,570,5584
1644165060.030677,-0.009644,0.010193,-0.996155,0.220855,0.523969,-0.100458,47,270,582,5600
1644165060.081187,-0.009644,0.007141,-0.992126,0.342992,0.371298,-0.054656,52,273,582,5600
1644165060.12747,-0.010986,0.01001,-0.990417,0.129252,0.508702,0.082748,48,274,578,5584
1644165060.175845,-0.008484,0.009949,-0.992065,0.251389,0.447634,-0.222595,54,277,577,5584
1644165060.224426,-0.007812,0.010193,-0.991272,0.312458,0.417099,-0.039389,58,276,573,5648
1644165060.272619,-0.011536,0.008301,-0.993835,0.220855,0.371298,-0.054656,52,268,579,5600
1644165060.322587,-0.008545,0.011719,-0.990662,0.159786,0.447634,-0.069924,48,266,576,5584
1644165060.372872,-0.00946,0.010925,-0.989624,0.281924,0.432366,0.006412,58,271,576,5600
1644165060.422906,-0.009644,0.010254,-0.991821,0.373527,0.462901,-0.100458,47,268,577,5664
1644165060.467845,-0.008972,0.009399,-0.991943,0.190321,0.478168,-0.039389,49,277,579,5584
1644165060.562976,-0.00531,0.009583,-0.991455,0.220855,0.417099,0.143817,46,276,578,5648
1644165060.611356,-0.009949,0.010925,-0.990906,0.312458,0.371298,-0.14626,51,276,576,5584
1644165060.659752,-0.013245,0.006958,-0.991394,0.113985,0.356031,-0.25313,51,281,569,5648
1644165060.708144,-0.011719,0.009949,-0.990417,0.342992,0.447634,-0.024122,52,273,570,5632
1644165060.756509,-0.009644,0.00592,-0.992981,0.129252,0.386565,-0.069924,49,275,584,5600
1644165060.804905,-0.011719,0.011475,-0.99292,0.297191,0.371298,0.052214,48,269,576,5536
1644165060.853317,-0.010071,0.006714,-0.994751,0.205588,0.462901,-0.085191,48,274,580,5648
1644165060.901698,-0.010559,0.010376,-0.992004,0.373527,0.340763,-0.115725,46,271,566,5584
1644165060.950082,-0.010803,0.010559,-0.991577,0.236122,0.432366,-0.008855,47,273,572,5584
1644165060.998456,-0.010437,0.006531,-0.992249,0.297191,0.325496,0.113282,41,276,576,5584
1644165061.052342,-0.010925,0.009583,-0.990662,0.312458,0.371298,-0.176794,47,275,572,5584
1644165061.095248,-0.008423,0.006531,-0.992676,0.052916,0.386565,-0.039389,49,277,582,5584
1644165061.14363,-0.009827,0.010071,-0.992432,0.251389,0.401832,-0.115725,49,268,575,5584
1644165061.192012,-0.009338,0.008545,-0.99231,0.144519,0.340763,-0.115725,55,266,571,5552
1644165061.24039,-0.011597,0.00708,-0.992737,0.175053,0.233893,-0.115725,53,281,576,5584
1644165061.288779,-0.008179,0.008362,-0.993896,0.342992,0.63084,-0.130992,40,268,586,5584
1644165061.33717,-0.010681,0.00769,-0.993469,0.266656,0.325496,-0.100458,45,275,572,5584
1644165061.385552,-0.011658,0.008789,-0.992371,0.327725,0.462901,-0.192061,47,277,579,5584
1644165061.433939,-0.011353,0.009766,-0.991821,0.327725,0.325496,-0.085191,53,276,594,5600
1644165061.482878,-0.009888,0.009521,-0.991089,0.266656,0.493435,-0.069924,51,279,578,5648
1644165061.533069,-0.01062,0.009827,-0.991211,0.312458,0.447634,-0.14626,43,269,576,5552
1644165061.583461,-0.009216,0.010437,-0.989685,0.419328,0.447634,-0.130992,48,274,566,5600
1644165061.628572,-0.008606,0.010193,-0.991455,0.404061,0.493435,-0.100458,42,282,572,5536
1644165061.724305,-0.011536,0.009705,-0.994995,0.144519,0.478168,-0.176794,55,264,583,5664
1644165061.772707,-0.008545,0.009521,-0.991577,0.46513,0.539237,-0.039389,40,277,577,5552
1644165061.821116,-0.009338,0.009827,-0.990906,0.251389,0.447634,-0.161527,46,274,583,5600
1644165061.869465,-0.009277,0.012024,-0.991394,0.175053,0.508702,0.006412,53,269,573,5584
1644165061.917891,-0.00885,0.007751,-0.99176,0.236122,0.432366,-0.085191,57,270,565,5600
1644165061.966277,-0.009277,0.009277,-0.993469,0.251389,0.523969,-0.085191,47,268,575,5600
1644165062.01469,-0.009766,0.006348,-0.990784,0.312458,0.24916,-0.100458,53,271,571,5664
1644165062.063997,-0.010132,0.009644,-0.990051,0.312458,0.462901,-0.085191,46,279,576,5584
1644165062.111423,-0.009277,0.010376,-0.993408,0.251389,0.386565,-0.085191,52,277,582,5600
1644165062.159811,-0.009888,0.01001,-0.991211,0.236122,0.432366,-0.14626,55,274,585,5648
1644165062.208205,-0.009766,0.01178,-0.988098,0.404061,0.432366,-0.207328,52,277,577,5584
1644165062.25656,-0.012756,0.008728,-0.99176,0.297191,0.462901,-0.024122,58,262,578,5648
1644165062.305105,-0.009888,0.008789,-0.992188,0.297191,0.386565,-0.008855,58,274,573,5600
1644165062.35337,-0.012512,0.007812,-0.993225,0.190321,0.478168,-0.161527,55,271,580,5584
1644165062.401731,-0.010437,0.007629,-0.992249,0.113985,0.493435,-0.024122,53,279,576,5520
1644165062.450181,-0.008362,0.007324,-0.990417,0.08345,0.356031,-0.100458,45,277,579,5600
1644165062.498546,-0.009521,0.009949,-0.990662,0.281924,0.340763,-0.14626,49,273,572,5600
1644165062.546928,-0.009888,0.00824,-0.993652,0.205588,0.356031,-0.100458,51,269,573,5600
1644165062.595317,-0.011353,0.011047,-0.992615,0.312458,0.386565,-0.039389,54,275,577,5584
1644165062.644007,-0.009705,0.01062,-0.992676,0.342992,0.279695,-0.14626,36,283,587,5632
1644165062.694459,-0.011353,0.01062,-0.993652,0.327725,0.356031,-0.115725,60,274,578,5600
1644165062.744688,-0.007446,0.008728,-0.990784,0.297191,0.539237,-0.069924,57,273,572,5536
1644165062.789682,-0.010986,0.011353,-0.992676,0.342992,0.447634,-0.069924,52,263,579,5600
1644165062.885676,-0.012085,0.008606,-0.992676,0.129252,0.325496,-0.069924,57,260,572,5600
1644165062.934102,-0.010803,0.009521,-0.991394,0.205588,0.508702,0.006412,52,277,572,5584
1644165062.982468,-0.011963,0.008606,-0.993286,0.373527,0.386565,-0.008855,48,276,571,5600
1644165063.044004,-0.010559,0.010376,-0.990662,0.129252,0.325496,-0.222595,48,274,571,5536
1644165063.086708,-0.010986,0.010681,-0.993713,0.159786,0.340763,-0.176794,47,280,584,5600
1644165063.127612,-0.009521,0.011719,-0.992981,0.327725,0.340763,0.006412,52,280,579,5584
1644165063.175992,-0.011841,0.009644,-0.990906,0.281924,0.432366,-0.161527,47,270,582,5584
1644165063.224399,-0.012268,0.009644,-0.994263,0.312458,0.340763,-0.024122,41,266,569,5584
1644165063.272798,-0.012268,0.010498,-0.991577,0.281924,0.493435,0.082748,58,274,566,5600
1644165063.321162,-0.012573,0.008057,-0.992432,0.175053,0.447634,-0.130992,51,266,578,5584
1644165063.369554,-0.009094,0.008301,-0.992615,0.281924,0.462901,-0.115725,54,268,575,5600
1644165063.417929,-0.008606,0.010193,-0.98999,0.175053,0.417099,-0.024122,54,273,572,5648
1644165063.467071,-0.013,0.009766,-0.990784,0.236122,0.386565,0.006412,48,269,576,5552
1644165063.517889,-0.010376,0.009033,-0.990295,0.129252,0.386565,-0.024122,45,270,579,5552
1644165063.56775,-0.009766,0.012024,-0.991028,0.297191,0.615573,-0.115725,47,265,570,5552
1644165063.612726,-0.012512,0.010986,-0.989807,0.266656,0.508702,-0.008855,48,266,573,5648
1644165063.708278,-0.009644,0.010437,-0.993286,0.266656,0.432366,-0.176794,40,268,568,5600
1644165063.756656,-0.010742,0.010193,-0.992981,0.159786,0.401832,-0.207328,45,268,577,5648
1644165063.805575,-0.009644,0.009644,-0.994263,0.220855,0.554504,-0.100458,40,277,582,5584
1644165063.8535,-0.007568,0.010925,-0.991882,0.342992,0.478168,-0.130992,53,269,569,5600
1644165063.901861,-0.009155,0.009827,-0.99231,0.236122,0.371298,-0.085191,46,271,585,5584
1644165063.950275,-0.012512,0.008301,-0.992126,0.129252,0.325496,0.036947,41,279,573,5536
1644165063.99865,-0.01001,0.01001,-0.995544,0.144519,0.401832,-0.069924,48,279,578,5584
1644165064.051187,-0.007019,0.011108,-0.990967,0.175053,0.401832,0.036947,52,277,579,5648
1644165064.095479,-0.007141,0.009155,-0.991089,0.129252,0.493435,-0.039389,46,279,580,5584
1644165064.143809,-0.006531,0.011841,-0.991516,0.35826,0.401832,-0.039389,43,274,571,5584
1644165064.192234,-0.012573,0.009399,-0.992126,0.404061,0.325496,-0.024122,48,274,566,5600
1644165064.240586,-0.011353,0.008972,-0.99231,0.266656,0.417099,-0.14626,36,271,573,5664
1644165064.288969,-0.011047,0.00769,-0.992798,0.220855,0.432366,-0.130992,45,260,570,5632
1644165064.337355,-0.010559,0.00824,-0.991821,0.068183,0.462901,-0.100458,52,265,579,5648
1644165064.385747,-0.009644,0.010193,-0.990234,0.113985,0.523969,-0.085191,47,273,582,5600
1644165064.434143,-0.012451,0.011475,-0.988403,0.098718,0.371298,-0.14626,51,274,566,5552
1644165064.482551,-0.008728,0.008362,-0.991394,0.129252,0.478168,-0.100458,52,273,582,5584
1644165064.53092,-0.010559,0.010315,-0.992432,0.190321,0.508702,-0.039389,47,273,577,5584
1644165064.579332,-0.008423,0.010132,-0.992554,0.236122,0.447634,0.021679,58,283,573,5648
1644165064.627738,-0.00946,0.008789,-0.989197,0.144519,0.371298,-0.161527,38,270,570,5600
1644165064.67812,-0.009583,0.00824,-0.990417,0.08345,0.539237,-0.176794,43,269,578,5584
1644165064.728319,-0.011169,0.006531,-0.992737,0.342992,0.386565,-0.130992,55,269,578,5584
1644165064.773319,-0.013123,0.009705,-0.992126,0.052916,0.356031,-0.039389,54,280,577,5632
1644165064.869677,-0.009521,0.010742,-0.989258,-0.038687,0.508702,-0.14626,49,273,575,5584
1644165064.918092,-0.01416,0.009766,-0.991638,0.190321,0.493435,-0.039389,54,265,579,5600
1644165064.966469,-0.008789,0.010803,-0.994629,0.251389,0.447634,-0.161527,57,270,579,5664
1644165065.014854,-0.011292,0.009888,-0.993896,0.08345,0.356031,-0.161527,41,276,583,5600
1644165065.063325,-0.008057,0.009888,-0.991455,0.266656,0.356031,-0.069924,64,265,586,5648
1644165065.111656,-0.011047,0.009521,-0.992493,0.236122,0.340763,-0.024122,52,270,582,5536
1644165065.160015,-0.009888,0.007996,-0.990845,0.266656,0.493435,-0.176794,45,270,579,5632
1644165065.20839,-0.006653,0.01123,-0.991516,0.297191,0.325496,-0.100458,57,275,598,5696
1644165065.256752,-0.010681,0.008972,-0.991028,0.205588,0.356031,-0.024122,57,285,572,5584
1644165065.305246,-0.010315,0.007935,-0.991211,0.190321,0.386565,-0.176794,49,268,572,5600
1644165065.353561,-0.01123,0.007874,-0.992981,0.327725,0.401832,-0.130992,60,271,571,5584
1644165065.40194,-0.012512,0.010376,-0.992371,0.297191,0.432366,-0.069924,54,273,577,5536
1644165065.450336,-0.010437,0.009094,-0.990417,-0.008153,0.432366,-0.176794,49,277,586,5536
1644165065.498739,-0.013367,0.012085,-0.991699,0.129252,0.447634,-0.054656,38,275,572,5632
1644165065.547124,-0.008728,0.011108,-0.991272,0.312458,0.386565,0.006412,43,276,587,5584
1644165065.595473,-0.008789,0.010071,-0.994324,0.144519,0.432366,-0.115725,43,281,578,5584
1644165065.643905,-0.009155,0.008362,-0.992859,0.205588,0.462901,-0.008855,51,271,573,5600
1644165065.692308,-0.00824,0.005615,-0.992126,0.480397,0.462901,0.082748,47,277,584,5632
1644165065.740671,-0.010193,0.006714,-0.990173,0.220855,0.310229,-0.115725,46,266,578,5632
1644165065.789332,-0.009399,0.00769,-0.991333,0.312458,0.401832,-0.039389,66,277,575,5600
1644165065.840137,-0.010071,0.008545,-0.99231,0.236122,0.340763,-0.283664,49,273,568,5552
1644165065.890575,-0.010071,0.009155,-0.990967,0.236122,0.493435,-0.085191,58,271,569,5584
1644165065.935514,-0.009033,0.009766,-0.991638,0.190321,0.462901,-0.100458,47,265,575,5584
1644165066.044594,-0.012756,0.006592,-0.992432,0.266656,0.539237,0.021679,54,277,582,5552
1644165066.081508,-0.010986,0.007446,-0.991272,0.251389,0.401832,-0.130992,58,276,578,5584
1644165066.127848,-0.009583,0.010498,-0.99292,0.342992,0.386565,0.159084,53,281,580,5584
1644165066.176199,-0.010742,0.011841,-0.992493,0.297191,0.493435,0.021679,55,288,573,5648
1644165066.224709,-0.013245,0.012146,-0.991821,0.175053,0.325496,-0.207328,52,270,577,5600
1644165066.272965,-0.009094,0.008179,-0.988159,0.251389,0.417099,-0.085191,51,281,566,5584
1644165066.32135,-0.010925,0.007751,-0.991028,0.297191,0.371298,-0.115725,46,274,578,5648
1644165066.369751,-0.011963,0.010315,-0.99353,0.373527,0.432366,-0.024122,53,269,578,5600
1644165066.418173,-0.00824,0.013428,-0.990601,0.098718,0.523969,0.021679,54,268,582,5584
1644165066.466506,-0.011475,0.01178,-0.986633,0.144519,0.417099,-0.069924,51,262,578,5584
1644165066.514909,-0.011841,0.007751,-0.992126,0.327725,0.447634,-0.024122,51,269,576,5584
1644165066.563313,-0.006653,0.006409,-0.990845,0.266656,0.523969,0.067481,41,279,566,5648
1644165066.611723,-0.011169,0.009094,-0.993896,0.419328,0.508702,-0.222595,52,268,572,5600
1644165066.661977,-0.010437,0.010376,-0.992004,0.251389,0.371298,-0.085191,51,283,566,5584
1644165066.71236,-0.00885,0.01001,-0.995239,0.373527,0.462901,-0.14626,48,276,578,5600
1644165066.757445,-0.010803,0.010193,-0.99115,0.404061,0.462901,-0.100458,49,275,575,5600
1644165066.853695,-0.009949,0.009583,-0.993164,0.251389,0.325496,-0.161527,62,279,578,5600
1644165066.902073,-0.009277,0.010376,-0.989563,0.098718,0.478168,-0.192061,45,275,579,5536
1644165066.950476,-0.011536,0.009399,-0.990112,0.205588,0.585038,-0.024122,48,266,576,5632
1644165066.998864,-0.011475,0.00824,-0.99408,0.175053,0.417099,-0.115725,51,279,580,5552
1644165067.0527,-0.010254,0.01062,-0.989746,0.175053,0.417099,-0.085191,51,271,583,5648
1644165067.095591,-0.011597,0.006531,-0.991333,0.266656,0.401832,0.021679,54,273,575,5584
1644165067.144049,-0.009338,0.010559,-0.990051,0.297191,0.432366,-0.222595,49,265,575,5552
1644165067.192436,-0.011353,0.008484,-0.988953,0.205588,0.417099,-0.085191,48,274,573,5584
