epoch,acc_x,acc_y,acc_z,rot_x,rot_y,rot_z,mag_x,mag_y,mag_z,temp
1644156000.040158,-0.013184,0.008484,-0.994202,0.35826,0.447634,-0.100458,45,282,575,4848
1644156000.13563,-0.010681,0.007263,-0.993408,0.297191,0.356031,-0.100458,47,277,577,4848
1644156000.184045,-0.011475,0.008667,-0.993713,0.190321,0.432366,-0.085191,53,279,571,4880
1644156000.232426,-0.010254,0.008972,-0.995056,0.266656,0.340763,-0.100458,58,266,580,4848
1644156000.28078,-0.00946,0.01062,-0.992981,0.312458,0.554504,-0.192061,48,281,569,4928
1644156000.329179,-0.012878,0.011108,-0.991638,0.281924,0.371298,-0.085191,42,277,572,4848
1644156000.377565,-0.007874,0.007385,-0.991821,0.220855,0.386565,-0.085191,60,276,576,4880
1644156000.425957,-0.012573,0.008484,-0.99231,0.08345,0.462901,-0.130992,58,266,578,4896
1644156000.474365,-0.012756,0.012756,-0.990906,0.220855,0.478168,-0.207328,54,270,575,4848
1644156000.522727,-0.01416,0.009033,-0.992737,0.205588,0.523969,-0.161527,52,273,572,4880
1644156000.571137,-0.010376,0.010803,-0.992371,0.175053,0.401832,-0.161527,40,280,584,4944
1644156000.619515,-0.009644,0.009399,-0.992004,0.144519,0.493435,-0.085191,47,280,575,4880
1644156000.66791,-0.012146,0.009399,-0.992737,0.220855,0.462901,0.036947,53,271,562,4880
1644156000.716289,-0.010803,0.007996,-0.991516,0.312458,0.432366,-0.100458,45,287,568,4896
1644156000.764715,-0.010864,0.009094,-0.990234,0.144519,0.493435,-0.222595,55,276,576,4880
1644156000.813112,-0.013184,0.010376,-0.991211,0.113985,0.325496,0.006412,43,274,569,4848
1644156000.861478,-0.012756,0.010742,-0.991821,0.251389,0.539237,-0.100458,48,281,562,4928
1644156000.909874,-0.012573,0.006836,-0.992004,0.266656,0.417099,-0.024122,61,270,582,4896
1644156000.958264,-0.009521,0.010986,-0.993347,0.190321,0.417099,-0.085191,51,264,569,4816
1644156001.006634,-0.009949,0.007385,-0.994019,0.297191,0.264427,-0.130992,53,271,571,4848
1644156001.079412,-0.011292,0.008362,-0.991455,0.35826,0.294962,-0.14626,55,274,578,4848
1644156001.105908,-0.011414,0.009888,-0.99176,0.312458,0.371298,-0.161527,57,270,577,4928
1644156001.155198,-0.010986,0.009155,-0.991699,0.327725,0.401832,-0.14626,43,269,571,4832
1644156001.200597,-0.010071,0.009277,-0.990417,0.236122,0.310229,0.067481,54,275,570,4896
1644156001.296913,-0.009949,0.007935,-0.990479,0.08345,0.386565,-0.176794,43,274,562,4848
1644156001.345397,-0.012756,0.011536,-0.992554,0.297191,0.417099,-0.192061,52,263,577,4880
1644156001.39371,-0.013123,0.006104,-0.993591,0.129252,0.462901,-0.024122,51,266,559,4928
1644156001.442341,-0.013,0.011169,-0.992371,0.266656,0.417099,-0.14626,53,269,580,4880
1644156001.49049,-0.012878,0.008484,-0.990662,0.113985,0.401832,-0.039389,48,269,569,4896
1644156001.538864,-0.011597,0.009766,-0.990784,0.220855,0.417099,-0.024122,52,263,572,4880
1644156001.587246,-0.008911,0.008118,-0.992004,0.144519,0.478168,-0.024122,46,269,573,4832
1644156001.635633,-0.014038,0.009705,-0.994629,0.342992,0.417099,-0.161527,53,274,576,4928
1644156001.684025,-0.008606,0.006653,-0.992676,0.251389,0.447634,-0.14626,54,268,570,4880
1644156001.732422,-0.009094,0.009216,-0.993835,0.113985,0.279695,-0.130992,51,264,569,4816
1644156001.78078,-0.013428,0.009583,-0.988647,0.08345,0.478168,-0.115725,51,269,578,4880
1644156001.829216,-0.014526,0.010498,-0.993347,0.251389,0.478168,-0.039389,55,271,573,4832
1644156001.877624,-0.01355,0.006592,-0.993713,0.098718,0.310229,-0.115725,54,277,582,4880
1644156001.925995,-0.011169,0.011841,-0.991699,0.266656,0.371298,0.036947,57,268,575,4928
1644156001.974401,-0.010498,0.007385,-0.990051,0.373527,0.478168,-0.130992,47,270,582,4880
1644156002.022794,-0.012024,0.007263,-0.992126,0.266656,0.478168,-0.054656,52,275,577,4896
1644156002.089517,-0.012817,0.009521,-0.995117,0.281924,0.401832,0.006412,40,273,575,4896
1644156002.12109,-0.012634,0.007629,-0.992676,0.175053,0.371298,-0.085191,47,277,579,4880
1644156002.17051,-0.012207,0.009277,-0.994812,0.175053,0.539237,-0.085191,60,266,573,4848
1644156002.220687,-0.011414,0.009583,-0.989441,0.312458,0.401832,-0.298931,53,276,571,4928
1644156002.313087,-0.011414,0.005737,-0.992249,0.404061,0.447634,-0.237863,46,266,571,4848
1644156002.36144,-0.009766,0.009399,-0.994629,0.327725,0.447634,0.006412,46,283,580,4848
1644156002.409831,-0.014709,0.007935,-0.992188,0.159786,0.340763,-0.069924,52,263,570,4816
1644156002.45822,-0.011719,0.006958,-0.990662,0.236122,0.493435,-0.115725,55,276,571,4880
1644156002.50659,-0.014038,0.005676,-0.991699,0.281924,0.401832,-0.176794,57,275,577,4848
1644156002.555027,-0.010681,0.006836,-0.992737,0.449863,0.493435,-0.14626,46,279,571,4880
1644156002.603388,-0.012573,0.009399,-0.994263,0.312458,0.356031,-0.100458,42,273,565,4720
1644156002.651771,-0.015137,0.008545,-0.991943,0.35826,0.417099,-0.192061,54,275,568,4944
1644156002.700134,-0.011536,0.008606,-0.993164,0.327725,0.478168,-0.161527,48,266,562,4848
1644156002.748512,-0.011047,0.007263,-0.993774,0.312458,0.401832,-0.085191,45,285,570,4928
1644156002.796923,-0.010498,0.00824,-0.992493,0.113985,0.401832,-0.115725,51,271,569,4896
1644156002.845366,-0.010498,0.010132,-0.992188,0.342992,0.447634,-0.100458,48,274,571,4880
1644156002.893767,-0.013916,0.010864,-0.991028,0.175053,0.401832,-0.054656,51,264,573,4944
1644156002.942249,-0.010986,0.007446,-0.993347,0.236122,0.478168,-0.085191,47,273,575,4880
1644156002.990525,-0.011841,0.010864,-0.992371,0.35826,0.417099,-0.039389,46,281,578,4880
1644156003.038908,-0.012695,0.009216,-0.995483,0.281924,0.325496,-0.130992,45,280,577,4880
1644156003.092345,-0.012085,0.01062,-0.992004,0.404061,0.539237,-0.039389,51,271,571,4848
1644156003.135653,-0.014771,0.007324,-0.990967,0.46513,0.325496,-0.024122,46,259,578,4848
1644156003.184034,-0.010132,0.008362,-0.992554,0.190321,0.493435,-0.069924,49,268,570,4880
1644156003.232439,-0.013123,0.006958,-0.991211,0.129252,0.356031,-0.024122,48,274,573,4848
1644156003.282206,-0.011292,0.007751,-0.991577,0.098718,0.417099,-0.130992,48,279,576,4880
1644156003.332485,-0.009766,0.010803,-0.992859,0.175053,0.356031,-0.039389,47,270,565,4848
1644156003.378131,-0.010376,0.006165,-0.992126,0.052916,0.417099,0.113282,62,262,576,4896
1644156003.47434,-0.014648,0.009033,-0.993408,0.251389,0.432366,-0.130992,58,266,564,4928
1644156003.522734,-0.012634,0.007629,-0.990906,0.068183,0.417099,-0.14626,57,270,579,4944
1644156003.571117,-0.01355,0.007812,-0.990295,0.312458,0.356031,-0.115725,48,276,569,4880
1644156003.619517,-0.013733,0.010254,-0.99115,0.266656,0.371298,-0.054656,38,275,568,4880
1644156003.667888,-0.012085,0.00708,-0.993469,0.190321,0.478168,-0.161527,48,286,571,4896
1644156003.71627,-0.01123,0.009338,-0.991943,0.144519,0.447634,-0.161527,46,271,576,4880
1644156003.76467,-0.013672,0.009888,-0.996033,0.129252,0.325496,-0.054656,48,274,578,4944
1644156003.813073,-0.010254,0.006897,-0.990906,0.205588,0.478168,-0.115725,53,279,559,4880
1644156003.861499,-0.01178,0.009949,-0.989441,0.144519,0.478168,-0.024122,53,276,571,4896
1644156003.909874,-0.012207,0.007812,-0.992798,0.388794,0.294962,-0.237863,55,266,578,4848
1644156003.958256,-0.012207,0.008545,-0.992371,0.205588,0.447634,-0.085191,52,265,575,4848
1644156004.006651,-0.01239,0.009827,-0.991882,0.08345,0.417099,-0.039389,57,270,575,4848
1644156004.06352,-0.01123,0.009399,-0.991272,0.159786,0.508702,-0.176794,51,276,576,4928
1644156004.103404,-0.01062,0.007812,-0.992065,0.327725,0.401832,-0.069924,52,280,579,4848
1644156004.151767,-0.011169,0.006409,-0.994507,0.297191,0.417099,-0.115725,46,269,573,4896
1644156004.200163,-0.010681,0.005554,-0.992188,0.281924,0.417099,-0.039389,51,271,573,4880
1644156004.248518,-0.012878,0.006287,-0.993042,0.144519,0.417099,-0.14626,46,283,569,4880
1644156004.296903,-0.009766,0.005371,-0.993469,0.175053,0.432366,-0.115725,53,271,583,4896
1644156004.345432,-0.010864,0.007324,-0.995728,0.022382,0.325496,0.021679,51,274,578,4880
1644156004.394149,-0.011658,0.009888,-0.992126,0.220855,0.279695,-0.024122,58,276,576,4816
1644156004.444597,-0.013123,0.007507,-0.991516,0.266656,0.478168,-0.14626,48,271,571,4880
1644156004.495266,-0.01178,0.007935,-0.99292,0.388794,0.585038,0.036947,48,281,571,4896
1644156004.587262,-0.011719,0.007812,-0.990356,0.404061,0.371298,-0.176794,54,268,577,4816
1644156004.635616,-0.010803,0.006775,-0.991394,0.266656,0.447634,0.006412,49,263,568,4944
1644156004.684011,-0.012268,0.007935,-0.990051,0.35826,0.172824,-0.130992,42,270,572,4944
1644156004.732386,-0.014832,0.00824,-0.995178,0.281924,0.371298,-0.14626,45,277,572,4896
1644156004.780794,-0.011963,0.007629,-0.993164,0.35826,0.401832,-0.039389,51,269,576,4848
1644156004.829181,-0.009338,0.011047,-0.994019,0.297191,0.386565,-0.222595,48,271,578,4848
1644156004.877609,-0.009827,0.009216,-0.991516,0.220855,0.554504,-0.115725,41,279,576,4848
1644156004.92598,-0.010803,0.008118,-0.989502,0.144519,0.371298,-0.100458,53,266,564,4880
1644156004.974396,-0.012756,0.010437,-0.992676,0.327725,0.539237,-0.25313,51,274,571,4816
1644156005.022796,-0.012024,0.010193,-0.991821,0.159786,0.310229,-0.161527,45,270,577,4944
1644156005.081855,-0.010315,0.006531,-0.990784,0.236122,0.493435,-0.085191,51,271,578,4896
1644156005.119562,-0.010193,0.013184,-0.992554,0.281924,0.356031,-0.039389,46,279,576,4880
1644156005.167894,-0.011658,0.010376,-0.993408,0.190321,0.462901,-0.069924,47,275,568,4880
1644156005.216266,-0.012146,0.007324,-0.992065,0.251389,0.432366,-0.100458,52,265,575,4880
1644156005.264685,-0.013733,0.008911,-0.992004,0.220855,0.493435,-0.130992,49,273,570,4832
1644156005.313058,-0.012756,0.00946,-0.991089,0.327725,0.340763,-0.085191,49,273,570,4832
1644156005.361418,-0.009033,0.008423,-0.991455,0.236122,0.401832,-0.130992,55,266,578,4848
1644156005.409837,-0.011292,0.007507,-0.993042,0.35826,0.462901,-0.192061,43,266,569,4880
1644156005.458249,-0.010803,0.00885,-0.991882,0.327725,0.401832,-0.237863,51,271,569,4896
1644156005.507672,-0.009644,0.009155,-0.994385,0.297191,0.310229,-0.039389,48,271,566,4944
1644156005.557913,-0.011414,0.006592,-0.990723,0.236122,0.432366,-0.069924,42,270,577,4944
1644156005.608014,-0.012451,0.007507,-0.99176,0.297191,0.447634,-0.130992,45,263,579,4848
1644156005.700142,-0.012146,0.009216,-0.989075,0.327725,0.432366,-0.192061,48,271,569,4896
1644156005.748517,-0.012695,0.00647,-0.993835,0.312458,0.325496,-0.130992,47,275,572,4880
1644156005.796903,-0.011841,0.007141,-0.988708,0.297191,0.447634,-0.14626,55,276,564,4880
1644156005.845405,-0.009827,0.009338,-0.990479,0.205588,0.371298,0.021679,43,279,573,4896
1644156005.893756,-0.010437,0.006653,-0.992126,0.037649,0.24916,-0.130992,52,273,570,4848
1644156005.942181,-0.012451,0.006348,-0.992676,0.251389,0.478168,-0.054656,61,273,575,4896
1644156005.990514,-0.013977,0.007935,-0.992004,0.175053,0.356031,-0.130992,48,288,578,4896
1644156006.038907,-0.012634,0.01001,-0.994568,0.281924,0.264427,-0.024122,61,268,577,4880
1644156006.087368,-0.011414,0.012756,-0.993652,0.342992,0.386565,-0.100458,52,273,572,4928
1644156006.135666,-0.013672,0.004883,-0.990784,0.129252,0.462901,-0.192061,42,282,570,4896
1644156006.184065,-0.014709,0.010315,-0.990295,0.220855,0.310229,0.021679,59,268,570,4880
1644156006.232466,-0.012085,0.009338,-0.996155,0.35826,0.264427,-0.069924,49,280,568,4896
1644156006.280809,-0.011108,0.009338,-0.994934,0.297191,0.386565,-0.192061,42,268,575,4896
1644156006.329227,-0.011536,0.007263,-0.991943,0.205588,0.371298,-0.115725,53,281,569,4880
1644156006.377585,-0.010864,0.010193,-0.992432,0.205588,0.356031,-0.192061,53,262,580,4896
1644156006.426318,-0.010803,0.007202,-0.990906,0.220855,0.417099,-0.115725,47,275,565,4896
1644156006.474402,-0.012756,0.007324,-0.990967,0.205588,0.356031,-0.161527,53,283,569,4960
1644156006.52403,-0.01178,0.009705,-0.992126,0.129252,0.386565,-0.100458,55,269,569,4832
1644156006.575438,-0.010498,0.008606,-0.992004,0.312458,0.294962,-0.115725,46,274,569,4928
1644156006.625064,-0.013306,0.007263,-0.991028,0.297191,0.432366,-0.130992,51,266,576,4880
1644156006.716314,-0.012146,0.012756,-0.993347,0.190321,0.478168,-0.024122,43,279,573,4880
1644156006.764899,-0.012512,0.009644,-0.990479,0.312458,0.432366,-0.069924,47,277,572,4880
1644156006.813112,-0.008728,0.012085,-0.992126,0.297191,0.462901,-0.176794,62,269,566,4848
1644156006.861475,-0.012146,0.010254,-0.993958,0.08345,0.447634,-0.024122,51,271,566,4880
1644156006.909872,-0.013184,0.007507,-0.991882,0.190321,0.523969,-0.130992,55,274,573,4880
1644156006.958254,-0.013245,0.010986,-0.993286,0.236122,0.417099,-0.024122,47,273,575,4880
1644156007.006631,-0.013184,0.009033,-0.989258,0.190321,0.401832,-0.115725,48,264,571,4896
1644156007.066434,-0.012878,0.010376,-0.993042,0.35826,0.371298,-0.25313,47,268,570,4816
1644156007.103374,-0.010864,0.008972,-0.993896,0.281924,0.615573,-0.14626,47,270,568,4880
1644156007.151788,-0.013855,0.011658,-0.992554,0.297191,0.493435,0.006412,54,273,568,4848
1644156007.200192,-0.010193,0.009888,-0.991028,0.342992,0.279695,-0.085191,40,275,575,4848
1644156007.248543,-0.009949,0.00946,-0.994141,0.175053,0.310229,-0.130992,61,273,561,4880
1644156007.296945,-0.011414,0.005981,-0.990784,0.342992,0.356031,-0.039389,54,270,572,4848
1644156007.345342,-0.013489,0.01062,-0.995178,0.251389,0.325496,-0.039389,49,275,570,4832
1644156007.393751,-0.012573,0.010376,-0.991089,0.297191,0.401832,-0.085191,47,268,577,4848
1644156007.442218,-0.011414,0.007874,-0.992737,0.35826,0.417099,-0.054656,57,277,579,4960
1644156007.490506,-0.014221,0.010315,-0.992249,0.236122,0.386565,-0.14626,51,274,585,4848
1644156007.538978,-0.012268,0.009583,-0.992004,0.236122,0.340763,-0.130992,47,275,572,4992
1644156007.587274,-0.012939,0.006653,-0.992737,0.281924,0.432366,-0.115725,47,268,565,4880
1644156007.636955,-0.012573,0.009155,-0.990784,0.205588,0.401832,-0.237863,46,281,571,4848
1644156007.687318,-0.011108,0.007751,-0.992554,0.312458,0.340763,-0.14626,51,271,578,4944
1644156007.737397,-0.011841,0.009827,-0.992798,0.327725,0.356031,-0.100458,49,265,572,4896
1644156007.829299,-0.01123,0.01001,-0.992065,0.342992,0.325496,-0.192061,52,275,556,4784
1644156007.877593,-0.015137,0.007629,-0.99176,0.251389,0.523969,-0.085191,58,279,569,4880
1644156007.926,-0.011963,0.012695,-0.992493,0.205588,0.417099,-0.161527,52,273,575,4848
1644156007.974395,-0.008423,0.010193,-0.990784,0.129252,0.478168,-0.069924,39,279,573,4944
1644156008.022807,-0.011292,0.009888,-0.992554,0.098718,0.325496,-0.344733,55,269,573,4896
1644156008.071213,-0.01062,0.007324,-0.991516,0.144519,0.432366,-0.115725,54,275,575,4896
1644156008.119514,-0.010132,0.009338,-0.992554,0.175053,0.417099,-0.115725,54,277,572,4848
1644156008.167894,-0.011902,0.00885,-0.993225,0.175053,0.447634,0.052214,42,280,565,4960
1644156008.216285,-0.011414,0.007446,-0.990845,0.251389,0.386565,-0.14626,49,275,575,4880
1644156008.264711,-0.012207,0.008118,-0.991943,0.190321,0.386565,-0.039389,47,270,572,4848
1644156008.313072,-0.00885,0.009094,-0.992188,0.342992,0.401832,-0.14626,41,274,573,4848
1644156008.361439,-0.010681,0.00824,-0.992981,0.144519,0.462901,-0.14626,51,276,578,4848
1644156008.409825,-0.009949,0.009521,-0.991516,0.144519,0.401832,-0.069924,58,276,571,4848
1644156008.458218,-0.01123,0.008423,-0.993896,0.297191,0.386565,-0.192061,52,273,575,4928
1644156008.506576,-0.010559,0.010254,-0.994446,0.159786,0.417099,-0.314198,55,264,569,4816
1644156008.555027,-0.011658,0.004944,-0.993774,0.113985,0.279695,-0.069924,55,276,571,4880
1644156008.603381,-0.013916,0.006104,-0.99292,0.175053,0.371298,-0.085191,55,279,573,4928
1644156008.651756,-0.011353,0.007935,-0.994446,0.037649,0.554504,-0.100458,46,276,578,4848
1644156008.700143,-0.012451,0.009827,-0.994324,0.052916,0.371298,-0.115725,49,273,575,4880
1644156008.748558,-0.011841,0.007996,-0.993164,0.113985,0.569771,-0.192061,54,273,568,4848
1644156008.799408,-0.012817,0.009766,-0.992004,0.297191,0.432366,-0.176794,51,274,576,4816
1644156008.850158,-0.01593,0.008423,-0.992737,0.08345,0.401832,0.036947,53,274,576,4928
1644156008.895216,-0.011475,0.00946,-0.991699,0.404061,0.264427,0.052214,51,257,569,4848
1644156008.990511,-0.013245,0.008545,-0.994019,0.327725,0.447634,-0.100458,46,274,573,4896
1644156009.038893,-0.008972,0.008972,-0.991943,0.251389,0.233893,-0.161527,52,265,577,4880
1644156009.089232,-0.012634,0.009277,-0.990112,0.220855,0.279695,-0.085191,61,280,577,4880
1644156009.135607,-0.009705,0.010071,-0.991699,0.220855,0.447634,-0.039389,39,274,562,4848
1644156009.184032,-0.013245,0.006897,-0.99176,0.220855,0.539237,-0.14626,45,280,572,4880
1644156009.232423,-0.011597,0.009155,-0.99292,0.08345,0.401832,-0.161527,43,271,569,4896
1644156009.280803,-0.011353,0.010254,-0.989441,0.190321,0.462901,-0.207328,53,279,576,4896
1644156009.32917,-0.012085,0.00885,-0.994446,0.281924,0.340763,-0.115725,34,276,578,4896
1644156009.37758,-0.013306,0.01239,-0.991699,0.159786,0.218626,-0.100458,52,265,570,4880
1644156009.425959,-0.009827,0.008606,-0.994019,0.251389,0.478168,-0.069924,49,273,575,4848
1644156009.474356,-0.012878,0.007019,-0.991333,0.236122,0.478168,-0.14626,47,273,570,4848
1644156009.522743,-0.010071,0.009888,-0.99176,0.266656,0.432366,-0.130992,58,269,573,4816
1644156009.571112,-0.012939,0.006287,-0.992981,0.266656,0.523969,-0.100458,54,280,577,4896
1644156009.619506,-0.01355,0.005676,-0.991577,0.175053,0.401832,-0.176794,51,279,578,4848
1644156009.667895,-0.012207,0.007263,-0.995239,0.266656,0.539237,-0.14626,54,280,577,4880
1644156009.716283,-0.013123,0.005188,-0.994568,0.220855,0.432366,-0.161527,58,274,576,4880
1644156009.764763,-0.011597,0.007629,-0.99115,0.129252,0.386565,-0.192061,52,273,570,4944
1644156009.813112,-0.012695,0.00824,-0.993103,0.266656,0.401832,-0.100458,57,282,563,4880
1644156009.861491,-0.010193,0.008545,-0.994568,0.08345,0.432366,-0.039389,53,271,576,4880
1644156009.910788,-0.011169,0.007263,-0.993896,0.220855,0.325496,-0.008855,42,270,575,4880
1644156009.96101,-0.010742,0.007446,-0.992737,0.281924,0.356031,-0.14626,48,264,573,4832
1644156010.011962,-0.013428,0.009277,-0.992737,0.342992,0.493435,-0.176794,41,264,566,4832
1644156010.103487,-0.00946,0.009094,-0.993958,0.190321,0.432366,-0.069924,47,270,575,4784
1644156010.151763,-0.010803,0.009277,-0.992126,0.190321,0.401832,-0.207328,48,279,571,4848
1644156010.200143,-0.012756,0.011169,-0.993103,0.342992,0.417099,-0.100458,51,264,576,4960
1644156010.248519,-0.012024,0.008545,-0.993286,0.190321,0.371298,-0.176794,52,285,572,4880
1644156010.296929,-0.013062,0.010315,-0.990479,0.419328,0.310229,-0.192061,57,277,565,4896
1644156010.34529,-0.011353,0.009888,-0.992493,0.190321,0.615573,0.006412,51,262,576,4880
1644156010.393706,-0.010803,0.010498,-0.991089,0.281924,0.386565,-0.161527,61,275,570,4880
1644156010.442192,-0.010376,0.010071,-0.99115,0.236122,0.493435,-0.054656,45,273,577,4896
1644156010.490485,-0.010742,0.009827,-0.991333,0.297191,0.462901,-0.085191,51,257,571,4880
1644156010.538859,-0.009399,0.011047,-0.994202,0.266656,0.462901,-0.207328,43,271,573,4848
1644156010.587239,-0.01355,0.009766,-0.992493,0.205588,0.386565,-0.069924,49,268,575,4880
1644156010.635649,-0.010864,0.005859,-0.992371,0.175053,0.508702,-0.054656,54,282,584,4960
1644156010.684332,-0.012756,0.009033,-0.991516,0.327725,0.447634,-0.054656,45,260,570,4880
1644156010.733778,-0.013672,0.010315,-0.992737,0.205588,0.523969,-0.085191,39,274,573,4848
1644156010.783345,-0.012268,0.007568,-0.991821,0.297191,0.340763,-0.14626,51,271,576,4848
1644156010.829577,-0.012085,0.010376,-0.989258,0.266656,0.417099,-0.069924,47,270,575,4880
1644156010.925987,-0.010071,0.007996,-0.991455,0.342992,0.386565,-0.054656,51,271,580,4848
1644156010.974376,-0.01178,0.009705,-0.993042,0.251389,0.523969,-0.192061,46,281,578,4944
1644156011.022781,-0.012146,0.006714,-0.99115,0.220855,0.386565,-0.085191,54,268,575,4880
1644156011.071242,-0.012878,0.009827,-0.991028,0.251389,0.493435,-0.176794,58,266,580,4880
1644156011.11953,-0.011169,0.006287,-0.992737,0.281924,0.24916,0.036947,54,268,575,4896
1644156011.167892,-0.009888,0.007507,-0.991211,0.297191,0.371298,-0.176794,43,274,571,4880
1644156011.216271,-0.011353,0.009155,-0.991455,0.159786,0.386565,-0.069924,46,279,576,4880
1644156011.264672,-0.013733,0.007141,-0.992432,0.342992,0.371298,-0.100458,49,270,565,4816
1644156011.313064,-0.013367,0.008057,-0.993225,0.266656,0.310229,-0.130992,55,274,580,4880
1644156011.361447,-0.011963,0.006958,-0.995056,0.220855,0.417099,-0.176794,53,271,566,4848
1644156011.409825,-0.012817,0.00946,-0.992676,0.327725,0.478168,0.006412,64,275,572,4848
1644156011.458211,-0.010193,0.009399,-0.99231,0.068183,0.356031,-0.085191,55,271,571,4880
1644156011.50657,-0.010803,0.007568,-0.992126,0.236122,0.356031,-0.176794,52,270,577,4848
1644156011.555028,-0.013123,0.008667,-0.993896,0.175053,0.386565,0.098015,57,270,572,4944
1644156011.603367,-0.013794,0.007141,-0.991943,0.266656,0.310229,-0.14626,48,274,566,4896
1644156011.651736,-0.01178,0.010315,-0.992798,0.175053,0.325496,-0.100458,49,270,577,4848
1644156011.700149,-0.010803,0.007629,-0.990845,0.175053,0.432366,-0.085191,51,271,576,4880
1644156011.748511,-0.012634,0.012268,-0.992249,0.236122,0.508702,-0.069924,49,273,575,4896
1644156011.797014,-0.010376,0.009094,-0.992065,0.297191,0.401832,-0.100458,45,273,575,4928
1644156011.847612,-0.012085,0.010376,-0.990295,0.327725,0.386565,-0.25313,60,266,566,4848
1644156011.898456,-0.012085,0.006836,-0.990967,0.190321,0.523969,-0.161527,48,271,571,4896
1644156011.943434,-0.01355,0.007263,-0.993347,0.251389,0.478168,-0.192061,42,275,575,4928
1644156012.038895,-0.00946,0.00824,-0.992615,0.434595,0.462901,-0.237863,61,275,568,4832
1644156012.089388,-0.010986,0.00769,-0.994141,0.190321,0.508702,-0.069924,53,271,578,4880
1644156012.135659,-0.010498,0.005859,-0.992065,0.236122,0.585038,0.021679,48,271,569,4848
1644156012.184032,-0.01062,0.010315,-0.992615,0.144519,0.569771,-0.268397,43,274,564,4880
1644156012.232426,-0.013367,0.00531,-0.994812,0.129252,0.340763,-0.207328,46,271,564,4848
1644156012.280771,-0.011963,0.009338,-0.990173,0.281924,0.447634,0.067481,49,265,561,4848
1644156012.329184,-0.010498,0.008972,-0.99176,0.281924,0.447634,-0.115725,48,274,571,4880
1644156012.377578,-0.010864,0.006226,-0.990906,0.159786,0.401832,0.12855,54,270,565,4928
1644156012.425952,-0.013794,0.010376,-0.991516,0.129252,0.371298,-0.176794,45,277,575,4880
1644156012.474349,-0.011292,0.006836,-0.99292,0.129252,0.401832,-0.085191,55,279,578,4896
1644156012.522745,-0.011963,0.009705,-0.991333,0.144519,0.417099,-0.130992,55,279,576,4880
1644156012.571095,-0.012817,0.009338,-0.993408,0.35826,0.325496,-0.085191,54,277,577,4848
1644156012.619508,-0.011047,0.011292,-0.993835,0.129252,0.493435,-0.222595,58,276,573,4880
1644156012.667898,-0.011841,0.010559,-0.990417,0.113985,0.478168,-0.130992,54,275,582,4960
1644156012.716429,-0.012207,0.008667,-0.990295,0.297191,0.447634,-0.192061,57,275,575,4880
1644156012.764691,-0.013123,0.010864,-0.993103,0.281924,0.478168,-0.085191,42,275,556,4896
1644156012.813069,-0.009521,0.010376,-0.99292,0.297191,0.432366,0.021679,52,268,572,4880
1644156012.861808,-0.008972,0.007324,-0.991699,0.205588,0.356031,-0.085191,53,266,580,4816
1644156012.910394,-0.011414,0.010315,-0.992554,0.144519,0.417099,-0.115725,46,274,573,4848
1644156012.961121,-0.011353,0.008179,-0.99231,0.312458,0.432366,-0.161527,57,282,563,4880
1644156013.064589,-0.011963,0.006348,-0.993896,0.312458,0.523969,-0.115725,45,268,572,4896
1644156013.103441,-0.010742,0.009766,-0.994507,0.281924,0.585038,0.036947,55,276,569,4848
1644156013.151776,-0.011963,0.008667,-0.993713,0.175053,0.432366,-0.130992,46,276,571,4896
1644156013.200165,-0.010742,0.008362,-0.994385,0.251389,0.417099,-0.130992,58,271,571,4848
1644156013.248523,-0.01239,0.011169,-0.990417,0.175053,0.447634,-0.039389,55,269,566,4896
1644156013.296895,-0.009827,0.01062,-0.994812,0.251389,0.478168,0.143817,45,275,572,4880
1644156013.345307,-0.01355,0.006287,-0.992188,0.297191,0.264427,-0.054656,41,271,571,4944
1644156013.393695,-0.009155,0.009033,-0.991211,0.281924,0.478168,-0.085191,42,275,579,4928
1644156013.442084,-0.012268,0.010071,-0.992371,0.281924,0.432366,-0.25313,47,280,582,4832
1644156013.490484,-0.013,0.006042,-0.993591,0.388794,0.310229,-0.207328,46,281,578,4880
1644156013.538857,-0.013062,0.010254,-0.990845,0.434595,0.493435,-0.085191,51,286,576,4848
1644156013.587251,-0.011963,0.00708,-0.994873,0.312458,0.386565,-0.268397,49,277,579,4848
1644156013.635633,-0.012085,0.010315,-0.990112,0.312458,0.371298,-0.100458,46,279,571,4880
1644156013.684046,-0.012451,0.006653,-0.993591,0.297191,0.539237,-0.054656,58,274,576,4880
1644156013.732436,-0.010193,0.008484,-0.99054,0.236122,0.386565,-0.130992,57,270,579,4880
1644156013.78199,-0.009888,0.008057,-0.992249,0.297191,0.432366,-0.069924,48,274,580,4848
1644156013.832219,-0.011414,0.010864,-0.993835,0.220855,0.447634,-0.207328,46,271,571,4880
1644156013.878796,-0.012085,0.008057,-0.993652,0.266656,0.401832,-0.14626,48,274,576,4880
1644156013.974377,-0.014404,0.007812,-0.989136,0.266656,0.325496,-0.024122,58,269,566,4960
1644156014.022775,-0.011658,0.009521,-0.990356,0.312458,0.691908,-0.161527,51,281,571,4896
1644156014.071229,-0.012024,0.007446,-0.990723,0.266656,0.462901,-0.054656,52,270,582,4880
1644156014.119509,-0.01355,0.01123,-0.991028,0.342992,0.417099,-0.14626,47,270,572,4848
1644156014.167895,-0.009155,0.009216,-0.993652,0.297191,0.478168,-0.069924,48,274,576,4720
1644156014.216269,-0.011963,0.008423,-0.991943,0.388794,0.401832,-0.161527,53,274,578,4832
1644156014.264683,-0.013184,0.012451,-0.993347,0.205588,0.615573,0.006412,48,269,578,4896
1644156014.313111,-0.010437,0.00708,-0.992981,0.251389,0.462901,-0.024122,51,276,566,4896
1644156014.361444,-0.012634,0.008057,-0.993591,0.266656,0.417099,0.082748,57,270,577,4880
1644156014.409817,-0.013855,0.009521,-0.993103,0.205588,0.371298,0.006412,48,271,569,4928
1644156014.45822,-0.011414,0.007507,-0.993225,0.266656,0.24916,-0.054656,64,270,568,4848
1644156014.506602,-0.012329,0.010193,-0.992432,0.297191,0.401832,-0.161527,55,271,573,4848
1644156014.555098,-0.011475,0.007996,-0.995483,0.297191,0.356031,-0.161527,55,274,580,4816
1644156014.603357,-0.013428,0.005432,-0.992737,0.205588,0.218626,-0.14626,46,271,576,4848
1644156014.651761,-0.012085,0.009338,-0.990845,0.159786,0.493435,-0.176794,47,268,575,4880
1644156014.700143,-0.009521,0.011658,-0.990784,0.327725,0.462901,-0.100458,47,275,575,4880
1644156014.748536,-0.011169,0.010071,-0.996582,0.266656,0.523969,-0.161527,49,273,575,4848
1644156014.796941,-0.012207,0.006653,-0.989197,0.08345,0.462901,-0.130992,47,270,563,4848
1644156014.845376,-0.010132,0.008301,-0.992249,0.297191,0.401832,-0.115725,51,279,580,4928
1644156014.894941,-0.014099,0.00946,-0.992676,0.297191,0.462901,-0.069924,58,269,583,4896
1644156014.944277,-0.010071,0.009766,-0.992981,0.297191,0.523969,-0.039389,49,282,570,4848
1644156014.99525,-0.012085,0.009094,-0.990906,0.297191,0.432366,-0.237863,40,280,568,4848
1644156015.039835,-0.011169,0.007507,-0.991089,0.220855,0.401832,-0.085191,46,279,566,4832
1644156015.135614,-0.011047,0.010681,-0.994629,0.342992,0.523969,-0.100458,53,266,576,4928
1644156015.184036,-0.013733,0.009399,-0.992432,0.175053,0.539237,-0.100458,54,277,563,4848
1644156015.232413,-0.011108,0.008667,-0.990601,0.220855,0.371298,0.067481,51,286,576,4896
1644156015.280779,-0.01355,0.008728,-0.989929,0.342992,0.417099,-0.192061,64,273,570,4880
1644156015.329366,-0.008362,0.00824,-0.992981,0.281924,0.417099,-0.054656,47,270,565,4880
1644156015.377557,-0.012817,0.011719,-0.988708,0.297191,0.417099,-0.176794,46,271,569,4928
1644156015.425938,-0.011292,0.007935,-0.992981,0.220855,0.356031,-0.100458,61,275,558,4848
1644156015.474353,-0.012024,0.01062,-0.991516,0.205588,0.386565,-0.176794,52,268,572,4848
1644156015.522748,-0.011719,0.007751,-0.993591,0.312458,0.447634,0.098015,51,266,578,4848
1644156015.571126,-0.009827,0.009155,-0.99353,0.251389,0.554504,0.036947,53,271,566,4896
1644156015.619508,-0.011414,0.00885,-0.993835,0.068183,0.417099,-0.008855,57,268,579,4896
1644156015.667875,-0.010864,0.009827,-0.990601,0.129252,0.417099,-0.085191,66,280,575,4816
1644156015.716277,-0.012329,0.010315,-0.9953,0.220855,0.462901,-0.039389,42,265,579,4896
1644156015.76473,-0.009583,0.008728,-0.992432,0.266656,0.340763,-0.069924,57,265,570,4848
1644156015.813108,-0.009338,0.007812,-0.990906,0.144519,0.493435,-0.100458,46,271,576,4896
1644156015.861464,-0.009338,0.007141,-0.991455,0.220855,0.432366,0.021679,54,273,575,4848
1644156015.909856,-0.013123,0.007446,-0.994995,0.312458,0.478168,-0.100458,54,282,575,4848
1644156015.958222,-0.009644,0.011108,-0.991943,0.144519,0.264427,-0.100458,42,282,572,4928
1644156016.006636,-0.011597,0.011841,-0.991272,0.205588,0.401832,-0.085191,42,273,579,4880
1644156016.08093,-0.01062,0.010559,-0.992798,0.251389,0.356031,-0.008855,39,279,576,4848
1644156016.10706,-0.010132,0.008911,-0.989441,0.388794,0.371298,-0.130992,66,270,584,4880
1644156016.15539,-0.009338,0.007202,-0.993225,0.220855,0.478168,-0.100458,57,265,582,4848
1644156016.200828,-0.012512,0.007568,-0.990723,0.052916,0.478168,-0.100458,48,274,578,4848
1644156016.296903,-0.01062,0.007812,-0.993103,0.312458,0.417099,-0.130992,45,273,572,4848
1644156016.34541,-0.009399,0.007507,-0.993652,0.129252,0.279695,-0.115725,45,280,570,4816
1644156016.393687,-0.009277,0.010742,-0.992371,0.129252,0.493435,-0.069924,43,276,569,4784
1644156016.442085,-0.013733,0.012939,-0.99469,0.159786,0.539237,-0.069924,49,273,558,4848
1644156016.490469,-0.009766,0.007141,-0.993042,0.220855,0.462901,-0.161527,51,266,573,4896
1644156016.538858,-0.012634,0.010315,-0.991455,0.205588,0.523969,-0.115725,45,275,565,4848
1644156016.587238,-0.010925,0.007446,-0.991577,0.144519,0.401832,-0.008855,55,269,573,4848
1644156016.63562,-0.010498,0.007324,-0.992004,0.190321,0.539237,-0.008855,52,273,575,4896
1644156016.684029,-0.010254,0.010681,-0.991699,0.388794,0.432366,-0.085191,54,277,572,4880
1644156016.732425,-0.011719,0.009827,-0.99176,0.144519,0.432366,0.098015,47,275,568,4896
1644156016.780799,-0.010437,0.006836,-0.989075,0.434595,0.310229,-0.100458,52,275,565,4848
1644156016.829209,-0.008606,0.008545,-0.993774,0.312458,0.386565,0.021679,53,274,583,4848
1644156016.8776,-0.009949,0.00885,-0.993835,0.08345,0.447634,-0.130992,45,268,572,4880
1644156016.925986,-0.011719,0.008423,-0.993713,0.220855,0.401832,0.021679,57,270,575,4848
1644156016.974391,-0.012146,0.010681,-0.991333,0.327725,0.493435,-0.054656,53,276,573,4880
1644156017.022785,-0.009888,0.007751,-0.992249,0.312458,0.539237,-0.14626,53,276,571,4896
1644156017.085008,-0.011353,0.011963,-0.993774,0.281924,0.447634,-0.207328,48,281,583,4832
1644156017.119514,-0.011292,0.009277,-0.992249,0.266656,0.462901,-0.222595,45,280,582,4880
1644156017.16816,-0.008606,0.01001,-0.991028,0.052916,0.386565,-0.115725,51,274,576,4880
1644156017.218648,-0.011414,0.01001,-0.992737,0.129252,0.432366,-0.054656,47,270,577,4848
1644156017.268846,-0.011414,0.010986,-0.989502,0.312458,0.493435,-0.039389,54,277,568,4848
1644156017.314244,-0.010498,0.009399,-0.993774,0.205588,0.386565,-0.14626,51,269,576,4944
1644156017.40983,-0.012329,0.00708,-0.991089,0.022382,0.462901,-0.176794,54,265,570,4928
1644156017.458192,-0.010254,0.01123,-0.993408,0.175053,0.462901,-0.115725,38,258,579,4848
1644156017.506574,-0.013306,0.007385,-0.992676,0.236122,0.310229,-0.054656,46,276,573,4896
1644156017.555229,-0.01178,0.009338,-0.990479,0.297191,0.432366,-0.085191,53,274,573,4848
1644156017.60338,-0.011353,0.008728,-0.990295,0.144519,0.386565,-0.25313,48,271,576,4848
1644156017.651757,-0.009827,0.010071,-0.990845,0.220855,0.340763,-0.085191,40,275,584,4880
1644156017.700159,-0.012634,0.00708,-0.991882,0.144519,0.264427,-0.100458,42,282,579,4896
1644156017.748509,-0.011475,0.010071,-0.991089,0.205588,0.371298,-0.207328,55,264,583,4848
1644156017.796917,-0.012268,0.008728,-0.98999,0.312458,0.386565,-0.008855,48,271,573,4880
1644156017.845333,-0.010803,0.009033,-0.992249,0.205588,0.478168,0.021679,53,276,576,4848
1644156017.893763,-0.007629,0.007874,-0.991333,0.312458,0.401832,-0.115725,47,273,575,4896
1644156017.942227,-0.009705,0.010071,-0.992676,0.205588,0.523969,-0.024122,52,282,584,4880
1644156017.990528,-0.012268,0.008362,-0.995056,0.266656,0.432366,-0.161527,58,269,569,4848
1644156018.03891,-0.010803,0.009705,-0.994629,0.190321,0.340763,-0.176794,55,271,571,4896
1644156018.087964,-0.014282,0.010925,-0.993103,0.08345,0.523969,-0.130992,45,277,584,4848
1644156018.135633,-0.010742,0.00592,-0.993286,0.281924,0.401832,-0.069924,57,275,577,4880
1644156018.184033,-0.014282,0.010193,-0.990662,0.159786,0.401832,-0.054656,53,276,571,4848
1644156018.232423,-0.009644,0.01178,-0.993896,0.404061,0.356031,-0.024122,53,283,578,4848
1644156018.280796,-0.010681,0.010071,-0.992981,0.373527,0.371298,-0.14626,60,269,573,4880
1644156018.329566,-0.00885,0.012207,-0.991943,0.08345,0.401832,-0.222595,52,270,570,4928
1644156018.379679,-0.011536,0.006958,-0.989868,0.190321,0.417099,-0.085191,47,268,563,4848
1644156018.429922,-0.01062,0.010193,-0.992004,0.373527,0.478168,-0.14626,49,292,570,4896
1644156018.47548,-0.010254,0.007996,-0.993286,0.281924,0.462901,-0.085191,43,269,571,4848
1644156018.571111,-0.013672,0.005493,-0.990784,0.342992,0.432366,0.036947,61,270,572,4848
1644156018.619498,-0.011658,0.008118,-0.994324,0.129252,0.401832,-0.14626,42,285,575,4832
1644156018.667879,-0.009399,0.004883,-0.993652,0.175053,0.432366,-0.054656,49,273,584,4832
1644156018.716282,-0.009705,0.010498,-0.991699,0.342992,0.554504,-0.100458,43,279,573,4896
1644156018.764664,-0.012146,0.010315,-0.99292,0.113985,0.310229,-0.100458,57,273,570,4880
1644156018.813051,-0.012329,0.01239,-0.99408,0.175053,0.218626,-0.008855,58,269,571,4832
1644156018.861496,-0.010132,0.012512,-0.98822,0.297191,0.325496,-0.039389,47,282,575,4896
1644156018.909867,-0.013794,0.006531,-0.992554,0.342992,0.447634,-0.100458,45,270,572,4880
1644156018.958247,-0.010925,0.008728,-0.992859,0.388794,0.279695,-0.100458,47,273,582,4832
1644156019.006635,-0.011597,0.00946,-0.989624,0.220855,0.493435,0.036947,47,268,579,4944
1644156019.066485,-0.010925,0.008423,-0.990784,0.266656,0.264427,0.006412,45,273,582,4880
1644156019.103398,-0.013306,0.006714,-0.993896,0.220855,0.432366,-0.176794,54,268,575,4848
1644156019.151763,-0.014893,0.006531,-0.991821,0.266656,0.340763,0.067481,42,268,570,4880
1644156019.200163,-0.012634,0.008606,-0.992615,0.236122,0.478168,-0.115725,49,275,575,4848
1644156019.248527,-0.01239,0.008545,-0.990295,0.281924,0.386565,-0.100458,45,275,572,4944
1644156019.296916,-0.013184,0.007996,-0.991821,0.236122,0.478168,-0.085191,52,277,575,4848
1644156019.345308,-0.00946,0.007812,-0.992126,0.220855,0.356031,0.021679,47,268,586,4944
1644156019.393708,-0.013184,0.010925,-0.993408,0.342992,0.401832,-0.283664,52,270,582,4848
1644156019.442146,-0.012146,0.006409,-0.995178,0.251389,0.264427,-0.207328,60,274,576,4928
1644156019.490748,-0.012329,0.005676,-0.991028,0.297191,0.523969,-0.115725,46,271,569,4816
1644156019.541377,-0.009827,0.007263,-0.991272,0.312458,0.417099,-0.024122,49,270,579,4880
1644156019.591452,-0.013855,0.007202,-0.993225,0.113985,0.371298,-0.14626,51,276,573,4848
1644156019.637122,-0.010559,0.008728,-0.993347,0.175053,0.447634,-0.130992,53,276,571,4896
1644156019.732424,-0.013367,0.006714,-0.992859,0.190321,0.554504,-0.039389,47,263,582,4880
1644156019.780763,-0.012085,0.010254,-0.994263,0.159786,0.371298,-0.100458,39,274,571,4880
1644156019.829174,-0.012024,0.008301,-0.990723,0.342992,0.508702,-0.100458,54,282,577,4832
1644156019.877585,-0.012451,0.00769,-0.991516,0.373527,0.264427,-0.283664,53,264,578,4880
1644156019.925987,-0.013123,0.010986,-0.99115,0.404061,0.356031,-0.069924,47,263,575,4880
1644156019.974387,-0.010071,0.01178,-0.993958,0.342992,0.478168,-0.100458,52,265,575,4928
1644156020.022787,-0.011963,0.008667,-0.991943,0.342992,0.462901,-0.069924,51,276,576,4880
1644156020.071292,-0.014832,0.006775,-0.996033,0.205588,0.478168,0.082748,57,280,575,4944
1644156020.119542,-0.013306,0.005981,-0.992554,0.251389,0.523969,-0.192061,41,276,569,4848
1644156020.167889,-0.012512,0.007446,-0.991882,0.266656,0.569771,-0.14626,40,273,575,4880
1644156020.216271,-0.013,0.010132,-0.991821,0.312458,0.401832,-0.115725,57,275,572,4880
1644156020.264771,-0.010315,0.00708,-0.99408,0.236122,0.447634,-0.024122,49,285,570,4880
1644156020.313049,-0.012085,0.009155,-0.992371,0.175053,0.447634,-0.085191,52,275,575,4896
1644156020.36144,-0.010132,0.008911,-0.994141,0.251389,0.264427,0.067481,57,282,577,4896
1644156020.409828,-0.014587,0.008484,-0.994019,0.190321,0.310229,0.036947,48,279,569,4880
1644156020.458205,-0.015503,0.006592,-0.993652,0.220855,0.401832,0.036947,54,273,584,4784
1644156020.506568,-0.014771,0.009521,-0.99408,0.190321,0.432366,-0.161527,49,277,575,4880
1644156020.555088,-0.010681,0.008179,-0.993652,0.251389,0.569771,-0.054656,48,276,566,4848
1644156020.603738,-0.012024,0.007568,-0.992249,0.175053,0.478168,-0.008855,46,279,578,4848
1644156020.654234,-0.013245,0.009277,-0.993652,0.251389,0.371298,-0.115725,55,266,576,4944
1644156020.704337,-0.012146,0.007324,-0.995178,0.281924,0.401832,-0.130992,54,275,575,4832
1644156020.796934,-0.011108,0.00592,-0.988403,0.251389,0.462901,-0.176794,51,271,569,4816
1644156020.845407,-0.011108,0.008179,-0.990906,0.312458,0.279695,-0.039389,46,266,573,4848
1644156020.893738,-0.01062,0.008057,-0.99292,0.281924,0.615573,0.021679,51,271,573,4896
1644156020.942382,-0.010864,0.008423,-0.99353,0.144519,0.310229,-0.222595,39,266,566,4832
1644156020.990498,-0.011292,0.005615,-0.992188,0.236122,0.294962,-0.085191,53,271,576,4848
1644156021.038897,-0.012512,0.00824,-0.991272,0.129252,0.401832,-0.161527,48,269,583,4848
1644156021.093256,-0.009949,0.009827,-0.991699,0.159786,0.340763,-0.069924,48,271,576,4928
1644156021.135662,-0.011108,0.010071,-0.995667,0.297191,0.401832,-0.14626,51,269,576,4832
1644156021.184002,-0.011719,0.008972,-0.993408,0.144519,0.508702,-0.14626,53,271,571,4880
1644156021.232418,-0.014404,0.00592,-0.992065,0.373527,0.294962,-0.085191,51,269,583,4832
1644156021.280768,-0.013184,0.009399,-0.992249,0.220855,0.462901,0.006412,43,279,573,4832
1644156021.329173,-0.00769,0.010986,-0.993958,0.281924,0.264427,-0.054656,57,275,570,4880
1644156021.377568,-0.010803,0.011108,-0.99054,0.281924,0.264427,-0.14626,49,285,577,4880
1644156021.425951,-0.010254,0.008179,-0.992676,0.266656,0.386565,-0.130992,49,277,579,4960
1644156021.474689,-0.01239,0.007812,-0.991516,0.190321,0.432366,-0.100458,49,275,584,4880
1644156021.52274,-0.011047,0.007446,-0.993042,0.205588,0.356031,0.006412,57,275,579,4880
1644156021.57226,-0.010864,0.00824,-0.992798,0.205588,0.417099,-0.176794,46,269,576,4928
1644156021.622561,-0.011963,0.009277,-0.991821,0.35826,0.386565,-0.085191,58,274,571,4896
1644156021.668093,-0.014282,0.008301,-0.992615,0.342992,0.462901,-0.069924,54,268,575,4848
1644156021.764867,-0.011719,0.007935,-0.991577,0.266656,0.447634,-0.176794,65,281,573,4880
1644156021.813072,-0.010986,0.008728,-0.991089,0.327725,0.386565,-0.329466,40,268,563,4848
1644156021.861433,-0.012634,0.006287,-0.992676,0.251389,0.493435,-0.161527,53,269,571,4928
1644156021.909907,-0.010559,0.011658,-0.991638,0.205588,0.264427,0.036947,55,274,576,4816
1644156021.958241,-0.012634,0.009521,-0.99408,0.052916,0.371298,-0.100458,40,282,582,4928
1644156022.006612,-0.006409,0.006897,-0.990601,0.159786,0.432366,-0.085191,52,273,565,4896
1644156022.064973,-0.011108,0.007751,-0.994385,0.08345,0.325496,-0.130992,54,275,568,4896
1644156022.103409,-0.01178,0.007019,-0.993286,0.159786,0.386565,-0.115725,48,274,576,4880
1644156022.151771,-0.012329,0.005127,-0.992432,0.266656,0.356031,-0.054656,59,277,565,4896
1644156022.200186,-0.012878,0.008728,-0.993469,0.327725,0.203359,-0.069924,48,269,578,4880
1644156022.248546,-0.013794,0.006409,-0.994263,0.144519,0.386565,-0.161527,48,274,580,4848
1644156022.296939,-0.011658,0.007446,-0.990295,0.220855,0.386565,-0.054656,52,268,577,4880
1644156022.345339,-0.013733,0.01178,-0.989685,0.312458,0.447634,-0.329466,61,268,577,4896
1644156022.393735,-0.01239,0.007202,-0.993652,0.327725,0.401832,-0.207328,52,270,582,4960
1644156022.442179,-0.013062,0.008911,-0.992981,0.236122,0.432366,-0.14626,60,269,562,4896
1644156022.490523,-0.012695,0.005676,-0.991455,0.404061,0.371298,0.052214,53,269,571,4880
1644156022.538896,-0.012512,0.00769,-0.99176,0.266656,0.401832,-0.207328,55,279,576,4880
1644156022.587487,-0.013855,0.01001,-0.991699,0.251389,0.508702,-0.008855,51,271,585,4896
1644156022.635676,-0.012024,0.010559,-0.994629,0.113985,0.386565,-0.008855,54,277,572,4848
1644156022.685733,-0.011719,0.010315,-0.994263,0.281924,0.371298,-0.039389,52,275,577,4848
1644156022.735517,-0.013733,0.010803,-0.990906,0.098718,0.432366,0.006412,52,277,577,4928
1644156022.786166,-0.012573,0.009521,-0.994446,0.297191,0.539237,-0.192061,59,265,572,4880
1644156022.877615,-0.009521,0.01001,-0.993652,0.35826,0.371298,-0.115725,55,269,571,4880
1644156022.925975,-0.013367,0.005859,-0.990967,0.236122,0.493435,-0.069924,48,266,583,4896
1644156022.974376,-0.010681,0.009827,-0.991455,0.251389,0.340763,-0.054656,51,279,562,4928
1644156023.022781,-0.011047,0.010925,-0.991943,0.251389,0.356031,0.113282,42,275,568,4880
1644156023.071208,-0.011597,0.008484,-0.994629,0.236122,0.523969,-0.115725,45,273,575,4816
1644156023.119498,-0.01355,0.008179,-0.992615,0.312458,0.462901,-0.085191,51,276,569,4832
1644156023.167877,-0.011108,0.01062,-0.994324,0.251389,0.356031,-0.115725,47,277,570,4896
1644156023.216246,-0.011047,0.00946,-0.993774,0.327725,0.432366,-0.25313,57,273,572,4880
1644156023.264659,-0.011719,0.009399,-0.992432,0.251389,0.417099,-0.069924,53,266,571,4896
1644156023.313067,-0.014221,0.010742,-0.992126,0.175053,0.508702,-0.115725,45,275,572,4832
1644156023.361436,-0.009338,0.008179,-0.989807,0.297191,0.615573,-0.085191,59,275,572,4848
1644156023.409804,-0.010559,0.010925,-0.991394,0.35826,0.340763,-0.192061,43,276,576,4880
1644156023.458212,-0.009766,0.012146,-0.992981,0.342992,0.569771,0.006412,43,271,578,4848
1644156023.506576,-0.013062,0.009949,-0.990723,0.373527,0.493435,-0.085191,49,282,568,4960
1644156023.555025,-0.009644,0.007324,-0.992676,0.236122,0.539237,-0.176794,57,275,579,4896
1644156023.60336,-0.012146,0.006653,-0.991821,0.205588,0.417099,0.067481,55,276,571,4848
1644156023.65175,-0.010864,0.012512,-0.99054,0.251389,0.432366,-0.085191,51,264,576,4928
1644156023.700145,-0.010071,0.008057,-0.991821,0.297191,0.432366,0.052214,45,280,582,4880
1644156023.748502,-0.010925,0.01062,-0.992676,0.281924,0.523969,-0.176794,49,265,575,4880
1644156023.797471,-0.011597,0.008423,-0.992249,0.281924,0.340763,-0.192061,61,270,575,4880
1644156023.847926,-0.01062,0.009094,-0.991577,0.098718,0.233893,-0.069924,48,269,569,4928
1644156023.898152,-0.010315,0.006348,-0.992554,0.205588,0.386565,-0.085191,52,280,572,4832
1644156023.943226,-0.010864,0.00885,-0.991638,0.144519,0.279695,-0.14626,58,279,571,4880
1644156024.038896,-0.011841,0.009338,-0.993652,0.205588,0.417099,-0.14626,52,282,579,4848
1644156024.087888,-0.012939,0.008911,-0.990967,0.190321,0.401832,-0.207328,53,281,578,4848
1644156024.135609,-0.011841,0.007874,-0.992615,0.35826,0.646107,-0.130992,49,280,572,4880
1644156024.184016,-0.011475,0.007568,-0.990784,0.312458,0.447634,-0.161527,60,271,573,4848
1644156024.232423,-0.01123,0.012024,-0.99176,0.266656,0.569771,-0.192061,40,282,568,4944
1644156024.280764,-0.010925,0.008484,-0.990906,0.312458,0.447634,-0.024122,54,282,572,4928
1644156024.329175,-0.014587,0.011414,-0.992737,0.144519,0.417099,-0.085191,57,280,575,4880
1644156024.377563,-0.010681,0.009338,-0.991394,0.373527,0.371298,-0.176794,57,268,563,4848
1644156024.425956,-0.013367,0.005493,-0.993835,0.327725,0.478168,-0.008855,48,274,578,4880
1644156024.474322,-0.012329,0.007812,-0.993408,0.297191,0.508702,0.006412,55,274,573,4848
1644156024.522747,-0.010132,0.007385,-0.992065,0.342992,0.539237,-0.14626,57,275,572,4848
1644156024.571101,-0.013123,0.011597,-0.98938,0.113985,0.493435,-0.054656,53,279,576,4896
1644156024.619489,-0.008606,0.009521,-0.989868,0.205588,0.371298,-0.069924,54,280,565,4880
1644156024.667883,-0.013245,0.00946,-0.990356,0.175053,0.340763,-0.069924,46,283,566,4880
1644156024.716274,-0.01123,0.011353,-0.993225,0.312458,0.493435,-0.100458,48,271,571,4896
1644156024.764672,-0.013123,0.009644,-0.993103,0.205588,0.447634,-0.039389,49,265,572,4816
1644156024.813114,-0.011658,0.011353,-0.992371,0.251389,0.447634,0.082748,55,271,578,4848
1644156024.861474,-0.011841,0.00824,-0.99176,0.373527,0.310229,-0.039389,59,273,586,4896
1644156024.909874,-0.009033,0.009521,-0.99408,0.297191,0.417099,-0.14626,48,279,573,4880
1644156024.958786,-0.010925,0.006104,-0.992737,0.281924,0.447634,-0.054656,49,268,577,4960
1644156025.064393,-0.015259,0.012268,-0.990479,0.205588,0.493435,0.006412,51,271,566,4880
1644156025.103381,-0.010986,0.008972,-0.990601,0.327725,0.447634,-0.024122,48,269,576,4880
1644156025.151759,-0.011292,0.010437,-0.991272,0.373527,0.417099,-0.069924,51,271,580,4896
1644156025.200141,-0.012695,0.010132,-0.990356,0.297191,0.569771,-0.207328,46,271,578,4816
1644156025.24852,-0.011963,0.010681,-0.993408,0.46513,0.508702,-0.207328,45,275,584,4896
1644156025.296896,-0.010254,0.012512,-0.992493,0.144519,0.24916,-0.054656,53,276,573,4784
1644156025.34532,-0.012939,0.008484,-0.991211,0.480397,0.462901,-0.130992,47,277,575,4848
1644156025.393707,-0.015625,0.011536,-0.991699,0.281924,0.554504,-0.054656,53,264,585,4848
1644156025.442195,-0.01178,0.010681,-0.991821,0.327725,0.493435,-0.207328,48,283,578,4880
1644156025.490498,-0.010681,0.008972,-0.992371,0.190321,0.340763,-0.039389,53,274,569,4896
1644156025.538859,-0.012024,0.009155,-0.992676,0.251389,0.340763,-0.069924,51,262,578,4880
1644156025.587236,-0.012268,0.009338,-0.98999,0.144519,0.356031,-0.176794,52,268,575,4880
1644156025.635635,-0.010498,0.009155,-0.992859,0.175053,0.508702,-0.25313,49,277,586,4848
1644156025.68402,-0.01062,0.010254,-0.989929,0.297191,0.447634,-0.085191,58,269,569,4880
1644156025.732731,-0.012268,0.007935,-0.991699,0.266656,0.401832,-0.298931,41,269,578,4848
1644156025.781921,-0.014893,0.010071,-0.993347,0.388794,0.294962,-0.054656,54,280,577,4848
1644156025.833641,-0.01062,0.009399,-0.992737,0.098718,0.432366,-0.192061,49,268,572,4848
1644156025.878513,-0.012512,0.010132,-0.99231,0.251389,0.432366,-0.115725,49,275,570,4880
1644156025.9744,-0.010803,0.010315,-0.991516,0.327725,0.585038,-0.115725,51,281,576,4928
1644156026.02277,-0.009827,0.01001,-0.992371,0.052916,0.386565,-0.130992,62,269,573,4880
1644156026.071229,-0.011597,0.007874,-0.989929,0.175053,0.325496,-0.115725,57,270,596,4848
1644156026.119519,-0.011169,0.005676,-0.990417,0.113985,0.24916,-0.085191,49,273,568,4880
1644156026.167865,-0.012207,0.008545,-0.992249,0.281924,0.508702,-0.268397,46,271,585,4880
1644156026.216262,-0.010315,0.006836,-0.992249,0.159786,0.432366,-0.069924,51,271,578,4880
1644156026.264679,-0.012512,0.011108,-0.99353,0.205588,0.447634,-0.054656,59,277,572,4896
1644156026.313064,-0.012695,0.010071,-0.991455,0.449863,0.493435,-0.024122,40,275,577,4848
1644156026.361433,-0.012024,0.008789,-0.994507,0.327725,0.432366,-0.024122,51,266,573,4768
1644156026.409827,-0.012207,0.008484,-0.991638,0.297191,0.600305,-0.115725,54,280,572,4928
1644156026.458215,-0.011047,0.008423,-0.990417,0.220855,0.371298,0.159084,54,275,572,4896
1644156026.506593,-0.01239,0.007751,-0.991821,0.175053,0.356031,-0.100458,54,277,575,4896
1644156026.555085,-0.009521,0.010254,-0.990417,0.281924,0.386565,-0.069924,43,269,576,4896
1644156026.60338,-0.011169,0.008545,-0.992859,0.35826,0.523969,-0.069924,57,280,584,4848
1644156026.651751,-0.009583,0.007446,-0.992432,0.297191,0.417099,-0.130992,52,280,575,4848
1644156026.70015,-0.011047,0.009216,-0.992798,0.129252,0.401832,-0.14626,54,273,572,4848
1644156026.748533,-0.012573,0.007996,-0.991638,0.312458,0.386565,-0.085191,47,277,577,4848
1644156026.796921,-0.012024,0.009827,-0.994263,0.236122,0.585038,0.021679,47,275,577,4848
1644156026.845503,-0.011108,0.011292,-0.992859,0.281924,0.462901,-0.100458,58,264,569,4896
1644156026.894019,-0.011169,0.008667,-0.989624,0.297191,0.325496,-0.069924,51,259,583,4880
1644156026.944962,-0.010071,0.00647,-0.993469,0.129252,0.401832,-0.130992,53,279,576,4752
1644156026.994677,-0.011047,0.007996,-0.99353,0.144519,0.432366,-0.161527,58,269,569,4880
1644156027.039773,-0.013794,0.006592,-0.992065,0.175053,0.401832,-0.130992,55,269,576,4848
1644156027.135654,-0.012451,0.009216,-0.993591,0.266656,0.432366,-0.237863,59,275,577,4880
1644156027.184017,-0.009949,0.011108,-0.992249,0.129252,0.447634,-0.14626,42,277,575,4880
1644156027.232414,-0.009644,0.010742,-0.990173,0.08345,0.386565,-0.192061,57,277,570,4880
1644156027.280768,-0.012146,0.00769,-0.988953,0.175053,0.401832,-0.069924,54,280,565,4944
1644156027.32917,-0.010925,0.006714,-0.988159,0.236122,0.539237,-0.344733,49,275,572,4896
1644156027.377557,-0.011841,0.009705,-0.989197,0.205588,0.386565,-0.069924,46,279,569,4848
1644156027.425948,-0.00946,0.010254,-0.992432,0.220855,0.447634,-0.054656,54,270,563,4928
1644156027.474337,-0.010925,0.006287,-0.990601,0.129252,0.478168,-0.100458,54,268,582,4816
1644156027.522735,-0.011292,0.011536,-0.990356,0.175053,0.340763,-0.130992,59,270,570,4848
1644156027.571116,-0.008972,0.009827,-0.993774,0.190321,0.401832,-0.039389,53,276,578,4928
1644156027.619492,-0.012939,0.008423,-0.99353,0.068183,0.523969,0.006412,52,277,577,4880
1644156027.667916,-0.011963,0.009155,-0.991882,0.190321,0.356031,-0.237863,45,280,572,4848
1644156027.71628,-0.012451,0.010559,-0.993774,0.266656,0.615573,0.082748,54,270,575,4880
1644156027.764717,-0.011169,0.00946,-0.991638,0.266656,0.356031,-0.192061,53,281,583,4880
1644156027.813033,-0.012573,0.011841,-0.990723,0.190321,0.447634,0.021679,55,271,573,4848
1644156027.861477,-0.008545,0.008911,-0.990051,0.175053,0.447634,-0.130992,48,271,576,4832
1644156027.909867,-0.010437,0.00885,-0.991455,0.419328,0.325496,-0.130992,53,271,576,4880
1644156027.958236,-0.011414,0.009338,-0.991211,0.373527,0.447634,0.006412,61,270,579,4848
1644156028.066074,-0.009399,0.00708,-0.992554,0.266656,0.371298,-0.069924,57,268,577,4880
1644156028.103382,-0.011597,0.006836,-0.992981,0.297191,0.615573,-0.085191,49,273,572,4880
1644156028.151778,-0.01062,0.009827,-0.992188,0.434595,0.417099,-0.039389,53,274,569,4880
1644156028.200119,-0.011902,0.007751,-0.99115,0.266656,0.447634,-0.039389,47,277,570,4944
1644156028.248503,-0.013794,0.009338,-0.993042,0.236122,0.523969,-0.14626,52,270,575,4816
1644156028.2969,-0.010681,0.00824,-0.994934,0.312458,0.401832,-0.085191,51,276,564,4896
1644156028.345311,-0.011169,0.008911,-0.992432,0.404061,0.554504,-0.100458,53,266,578,4848
1644156028.393708,-0.010681,0.009888,-0.990784,0.220855,0.508702,-0.115725,55,283,571,4848
1644156028.442067,-0.012451,0.009155,-0.993713,0.266656,0.508702,-0.130992,57,268,568,4944
1644156028.490479,-0.011108,0.006897,-0.992676,0.175053,0.325496,-0.024122,51,269,573,4880
1644156028.538851,-0.013428,0.009521,-0.991516,0.266656,0.356031,-0.054656,55,266,576,4816
1644156028.58724,-0.009583,0.00824,-0.990417,0.388794,0.508702,-0.298931,47,275,579,4928
1644156028.635624,-0.008545,0.00708,-0.992004,0.312458,0.554504,-0.069924,57,268,572,4896
1644156028.684324,-0.010498,0.009949,-0.993164,0.052916,0.417099,0.021679,65,259,571,4880
1644156028.733128,-0.010742,0.008484,-0.992981,0.098718,0.386565,-0.008855,52,273,579,4896
1644156028.783277,-0.010864,0.007324,-0.990479,0.251389,0.493435,-0.100458,52,275,579,4880
1644156028.833607,-0.013733,0.008728,-0.990479,0.373527,0.356031,-0.25313,52,263,579,4848
1644156028.926014,-0.011902,0.007202,-0.993286,0.35826,0.569771,-0.130992,57,273,577,4896
1644156028.974394,-0.014282,0.008667,-0.993103,0.35826,0.508702,-0.100458,47,265,565,4880
1644156029.022763,-0.012878,0.009277,-0.994141,0.236122,0.478168,-0.054656,49,275,582,4896
1644156029.071271,-0.011719,0.011475,-0.991516,0.388794,0.508702,-0.161527,57,275,582,4880
1644156029.119505,-0.009827,0.007812,-0.992432,0.312458,0.508702,-0.14626,48,274,569,4896
1644156029.167891,-0.010864,0.009949,-0.993164,0.144519,0.447634,-0.161527,49,273,565,4848
1644156029.216264,-0.01062,0.010681,-0.990845,0.312458,0.310229,-0.085191,54,268,570,4960
1644156029.264678,-0.010742,0.007812,-0.992554,0.236122,0.386565,-0.069924,49,270,575,4880
1644156029.313054,-0.013,0.007935,-0.991028,0.205588,0.462901,-0.085191,39,276,564,4880
1644156029.361443,-0.011902,0.008667,-0.992798,0.327725,0.478168,-0.024122,45,277,570,4880
1644156029.409818,-0.012939,0.01178,-0.992371,0.281924,0.478168,-0.069924,48,269,580,4848
1644156029.458218,-0.012146,0.008301,-0.99292,0.190321,0.386565,-0.283664,55,279,573,4880
1644156029.506577,-0.01178,0.008972,-0.99292,0.266656,0.371298,-0.130992,55,288,583,4848
1644156029.555111,-0.011658,0.00824,-0.993591,0.266656,0.447634,-0.054656,49,275,570,4896
1644156029.603383,-0.00946,0.007935,-0.991333,0.342992,0.432366,-0.161527,54,268,577,4880
1644156029.651758,-0.013428,0.008667,-0.992981,0.205588,0.417099,-0.069924,49,273,572,4880
1644156029.700123,-0.007446,0.00824,-0.995056,0.327725,0.356031,-0.115725,52,273,575,4880
1644156029.748508,-0.010925,0.00708,-0.989929,0.297191,0.340763,0.006412,54,270,568,4880
1644156029.79696,-0.012024,0.006836,-0.992188,0.266656,0.585038,0.021679,49,275,572,4944
1644156029.845643,-0.009033,0.008911,-0.993591,0.022382,0.279695,-0.024122,54,273,575,4928
1644156029.895842,-0.012329,0.007019,-0.993896,0.266656,0.279695,-0.130992,41,274,571,4880
1644156029.947659,-0.011414,0.011536,-0.991821,0.236122,0.371298,-0.176794,55,269,585,4960
1644156029.991377,-0.012451,0.007446,-0.993042,0.205588,0.417099,-0.176794,42,275,575,4880
1644156030.091466,-0.010254,0.012756,-0.994629,0.251389,0.478168,-0.008855,54,270,579,4880
1644156030.135598,-0.013123,0.006714,-0.988953,0.266656,0.401832,-0.008855,43,271,569,4896
1644156030.184028,-0.011414,0.008484,-0.992065,0.297191,0.417099,0.006412,51,262,571,4928
1644156030.232402,-0.011658,0.009338,-0.994568,0.373527,0.462901,-0.054656,55,279,571,4880
1644156030.280798,-0.010376,0.009338,-0.991211,0.327725,0.554504,-0.14626,48,269,566,4832
1644156030.329175,-0.01062,0.00824,-0.99292,0.35826,0.417099,-0.192061,47,260,572,4960
1644156030.377574,-0.015259,0.007446,-0.99408,0.297191,0.447634,0.082748,65,269,580,4880
1644156030.425947,-0.013184,0.00946,-0.993347,0.342992,0.294962,-0.054656,48,269,571,4880
1644156030.474359,-0.010742,0.006531,-0.992859,0.480397,0.371298,-0.207328,51,274,576,4896
1644156030.522748,-0.012451,0.010376,-0.989563,0.281924,0.539237,-0.085191,47,270,577,4880
1644156030.571118,-0.012573,0.006653,-0.991638,0.419328,0.340763,-0.069924,45,260,570,4832
1644156030.619501,-0.013,0.00824,-0.99292,0.312458,0.462901,-0.069924,45,277,570,4880
1644156030.66789,-0.010437,0.007812,-0.99353,0.144519,0.462901,-0.176794,54,270,575,4896
1644156030.716273,-0.013672,0.009338,-0.992981,0.205588,0.371298,-0.100458,51,264,571,4848
1644156030.76476,-0.010254,0.00647,-0.993774,0.266656,0.569771,-0.054656,60,274,571,4896
1644156030.813117,-0.012817,0.007812,-0.991455,0.190321,0.203359,-0.25313,57,277,577,4848
1644156030.861463,-0.010925,0.009949,-0.992371,0.175053,0.600305,-0.100458,59,268,577,4880
1644156030.911077,-0.01178,0.008545,-0.993652,0.236122,0.310229,-0.207328,52,268,579,4848
1644156030.961176,-0.010925,0.005249,-0.99353,0.266656,0.340763,-0.085191,59,273,568,4848
1644156031.011594,-0.010742,0.008972,-0.99176,0.266656,0.401832,-0.085191,51,279,578,4880
1644156031.103423,-0.01178,0.009277,-0.992798,0.449863,0.356031,-0.085191,57,277,570,4880
1644156031.151751,-0.011292,0.005432,-0.993652,0.251389,0.462901,-0.085191,51,271,583,4880
1644156031.200146,-0.014221,0.006958,-0.993652,0.052916,0.478168,0.12855,55,274,578,4880
1644156031.248506,-0.011719,0.008301,-0.992981,0.190321,0.340763,-0.161527,51,276,571,4944
1644156031.296893,-0.013794,0.010376,-0.990784,0.236122,0.615573,-0.222595,43,269,576,4848
1644156031.345487,-0.011108,0.007507,-0.991943,0.251389,0.371298,-0.14626,54,273,577,4880
1644156031.393715,-0.008789,0.006775,-0.993408,0.144519,0.447634,-0.176794,51,266,564,4928
1644156031.442088,-0.012085,0.007202,-0.992981,0.205588,0.539237,-0.115725,55,274,573,4896
1644156031.490486,-0.010864,0.006042,-0.992188,0.373527,0.432366,-0.069924,61,285,579,4880
1644156031.538855,-0.013367,0.007874,-0.996399,0.312458,0.356031,-0.100458,43,274,569,4928
1644156031.58724,-0.012329,0.006653,-0.993408,0.236122,0.493435,-0.024122,47,270,575,4896
1644156031.635639,-0.009644,0.007019,-0.993958,0.342992,0.356031,-0.115725,54,277,577,4880
1644156031.684014,-0.013184,0.010437,-0.993103,0.220855,0.462901,-0.130992,54,270,575,4880
1644156031.732433,-0.011658,0.007629,-0.992798,0.297191,0.523969,-0.115725,52,275,572,4848
1644156031.78241,-0.01239,0.007446,-0.992981,0.281924,0.417099,0.036947,54,270,575,4896
1644156031.834093,-0.010498,0.007263,-0.990417,0.190321,0.386565,0.006412,59,282,575,4832
1644156031.878879,-0.012695,0.007446,-0.992126,0.159786,0.371298,-0.069924,46,281,562,4848
1644156031.97438,-0.011841,0.00708,-0.994019,0.098718,0.325496,0.006412,58,274,569,4896
1644156032.02277,-0.015381,0.006409,-0.993713,0.312458,0.356031,-0.14626,52,270,577,4880
1644156032.071214,-0.011963,0.006897,-0.994934,0.190321,0.432366,-0.100458,52,268,579,4896
1644156032.119519,-0.011536,0.007935,-0.995178,0.281924,0.340763,-0.161527,58,279,578,4880
1644156032.16789,-0.012573,0.008301,-0.993042,0.113985,0.325496,0.036947,59,273,572,4848
1644156032.21627,-0.011108,0.007935,-0.992432,0.068183,0.371298,-0.085191,57,270,577,4880
1644156032.264668,-0.014038,0.011047,-0.990601,0.205588,0.462901,-0.069924,57,270,563,4896
1644156032.313039,-0.01178,0.007446,-0.991577,0.129252,0.325496,0.036947,58,274,571,4880
1644156032.361435,-0.013611,0.009216,-0.992737,0.266656,0.417099,-0.069924,55,271,580,4880
1644156032.40982,-0.012146,0.009827,-0.991821,0.220855,0.539237,0.052214,57,275,575,4944
1644156032.458202,-0.012817,0.009094,-0.991943,0.220855,0.401832,-0.115725,51,274,569,4880
1644156032.506601,-0.01062,0.007874,-0.991638,0.266656,0.356031,-0.298931,57,268,568,4896
1644156032.555113,-0.012634,0.007996,-0.995728,0.281924,0.432366,-0.100458,52,282,579,4896
1644156032.603381,-0.010315,0.008972,-0.994568,0.35826,0.462901,-0.054656,42,270,563,4896
1644156032.651758,-0.011963,0.00769,-0.994873,0.098718,0.462901,-0.115725,43,266,578,4848
1644156032.700142,-0.009766,0.008118,-0.991821,0.220855,0.325496,-0.130992,52,260,589,4896
1644156032.74853,-0.008362,0.007507,-0.992859,0.281924,0.386565,-0.069924,49,268,572,4896
1644156032.796916,-0.010498,0.00885,-0.99115,0.113985,0.447634,-0.176794,57,265,575,4944
1644156032.8455,-0.009949,0.007568,-0.993103,0.281924,0.462901,-0.130992,61,260,579,4848
1644156032.894476,-0.014282,0.008179,-0.990356,0.373527,0.401832,0.006412,55,271,576,4848
1644156032.945454,-0.012329,0.008789,-0.99115,0.342992,0.447634,-0.161527,57,270,575,4928
1644156032.995058,-0.012024,0.007141,-0.990723,0.404061,0.447634,-0.14626,53,271,573,4880
1644156033.040097,-0.012939,0.007507,-0.993164,0.205588,0.417099,-0.039389,57,275,575,4896
1644156033.135639,-0.01178,0.008728,-0.99054,0.297191,0.401832,-0.176794,60,271,573,4944
1644156033.184034,-0.01239,0.006653,-0.991272,0.205588,0.432366,-0.100458,47,280,572,4896
1644156033.232415,-0.010498,0.007141,-0.990967,0.297191,0.478168,-0.161527,59,287,570,4944
1644156033.280768,-0.01001,0.005798,-0.993469,0.251389,0.493435,-0.14626,51,269,571,4928
1644156033.329163,-0.009521,0.007202,-0.994141,0.419328,0.554504,-0.115725,54,270,570,4880
1644156033.377544,-0.012146,0.007629,-0.991394,0.159786,0.478168,-0.115725,49,275,570,4896
1644156033.425943,-0.012939,0.011353,-0.99115,0.281924,0.417099,-0.039389,53,279,576,4880
1644156033.474342,-0.011902,0.006165,-0.992676,0.190321,0.539237,-0.115725,49,280,575,4784
1644156033.52274,-0.011902,0.010559,-0.990967,0.312458,0.539237,-0.039389,51,276,571,4880
1644156033.571119,-0.01178,0.009155,-0.994385,0.251389,0.432366,-0.085191,54,275,561,4896
1644156033.619507,-0.013916,0.006775,-0.993164,0.281924,0.417099,-0.161527,55,274,573,4880
1644156033.667884,-0.012268,0.007141,-0.992676,0.068183,0.401832,-0.039389,52,270,575,4880
1644156033.716272,-0.009827,0.0047,-0.993286,0.159786,0.356031,-0.329466,48,274,566,4880
1644156033.764717,-0.013611,0.010803,-0.990906,0.007115,0.585038,0.113282,54,277,572,4784
1644156033.813049,-0.011108,0.003906,-0.993958,0.297191,0.462901,0.006412,47,273,572,4880
1644156033.861468,-0.010437,0.011292,-0.992615,0.052916,0.264427,-0.100458,53,262,571,4896
1644156033.909836,-0.011536,0.010437,-0.993835,0.373527,0.523969,-0.14626,58,276,566,4880
1644156033.958244,-0.014038,0.005432,-0.99176,0.098718,0.432366,-0.054656,53,271,576,4880
1644156034.064667,-0.014282,0.008423,-0.991943,0.419328,0.432366,-0.115725,53,274,562,4928
1644156034.103387,-0.012268,0.006348,-0.991821,0.281924,0.356031,-0.161527,54,275,565,4928
1644156034.151767,-0.010132,0.011963,-0.992554,0.266656,0.401832,-0.100458,52,270,568,4896
1644156034.200151,-0.008667,0.006714,-0.991882,0.404061,0.569771,-0.008855,49,275,584,4880
1644156034.248511,-0.015259,0.00946,-0.994202,0.35826,0.401832,-0.268397,47,270,577,4960
1644156034.296892,-0.012329,0.010132,-0.99353,0.297191,0.340763,-0.008855,57,270,572,4880
1644156034.345282,-0.011169,0.007324,-0.993286,0.388794,0.508702,-0.207328,39,276,583,4880
1644156034.393724,-0.014099,0.010437,-0.989441,0.144519,0.417099,-0.176794,54,270,575,4944
1644156034.442055,-0.010803,0.00824,-0.991638,0.175053,0.447634,-0.054656,48,274,576,4880
1644156034.490486,-0.012573,0.009277,-0.990173,0.297191,0.493435,-0.130992,61,277,570,4928
1644156034.53886,-0.010193,0.011475,-0.992554,0.342992,0.447634,-0.100458,45,268,570,4880
1644156034.587241,-0.011902,0.011902,-0.992554,0.327725,0.432366,-0.130992,40,270,572,4848
1644156034.635631,-0.012573,0.007751,-0.993896,0.266656,0.462901,-0.069924,52,268,572,4848
1644156034.684011,-0.015503,0.008423,-0.992126,0.312458,0.493435,-0.237863,48,266,571,4880
1644156034.732738,-0.010742,0.006836,-0.993591,0.205588,0.523969,-0.008855,57,280,586,4896
1644156034.781992,-0.011658,0.007751,-0.991638,0.205588,0.417099,-0.069924,53,274,573,4928
1644156034.832278,-0.013123,0.01062,-0.993286,0.327725,0.432366,-0.085191,49,275,575,4880
1644156034.879001,-0.010437,0.006531,-0.994141,0.342992,0.447634,-0.25313,47,273,561,4880
1644156034.974369,-0.009705,0.007507,-0.993958,0.35826,0.417099,0.006412,34,269,571,4880
1644156035.022786,-0.017517,0.009949,-0.992981,0.281924,0.401832,-0.115725,53,276,569,4880
1644156035.071191,-0.013367,0.010376,-0.992432,0.129252,0.386565,-0.054656,53,271,573,4928
1644156035.119507,-0.011658,0.006409,-0.990295,0.297191,0.432366,-0.085191,46,269,569,4944
1644156035.16788,-0.011658,0.009155,-0.992188,0.388794,0.417099,-0.024122,45,282,572,4880
1644156035.216275,-0.014648,0.011902,-0.994263,0.251389,0.356031,0.082748,53,271,576,4896
1644156035.264661,-0.013062,0.006653,-0.992737,0.281924,0.462901,0.021679,53,276,580,4848
1644156035.313061,-0.014648,0.01062,-0.991577,0.236122,0.172824,-0.024122,47,277,575,4816
1644156035.361443,-0.007019,0.007812,-0.993774,0.251389,0.508702,-0.192061,54,273,572,4848
1644156035.409831,-0.014526,0.012512,-0.990356,0.251389,0.386565,0.113282,59,268,572,4880
1644156035.458208,-0.015137,0.007141,-0.989136,0.175053,0.447634,0.006412,54,270,579,4848
1644156035.506599,-0.010559,0.010437,-0.992615,0.08345,0.325496,-0.100458,54,268,579,4848
1644156035.555117,-0.012146,0.008179,-0.992004,0.251389,0.371298,-0.207328,47,270,575,4848
1644156035.603364,-0.01123,0.010925,-0.990479,0.236122,0.401832,0.036947,47,277,565,4944
1644156035.651757,-0.010315,0.009521,-0.99176,0.281924,0.508702,-0.039389,54,280,582,4832
1644156035.700149,-0.013184,0.009827,-0.988892,0.251389,0.478168,-0.008855,48,276,583,4944
1644156035.748501,-0.013245,0.011536,-0.993835,0.404061,0.417099,0.006412,48,269,571,4880
1644156035.796937,-0.012085,0.006042,-0.990723,0.266656,0.356031,-0.054656,51,274,571,4880
1644156035.845391,-0.012268,0.008789,-0.990845,0.327725,0.401832,-0.25313,58,276,573,4880
1644156035.895613,-0.014465,0.010193,-0.991455,0.419328,0.401832,-0.115725,52,276,566,4896
1644156035.946591,-0.012268,0.008362,-0.98938,0.35826,0.386565,-0.039389,54,275,568,4896
1644156035.991282,-0.011292,0.008179,-0.992249,0.236122,0.493435,-0.115725,51,276,564,4896
1644156036.089642,-0.011047,0.009888,-0.991211,0.266656,0.432366,-0.192061,49,270,575,4880
1644156036.135614,-0.010681,0.010925,-0.994507,0.205588,0.401832,-0.085191,51,262,576,4928
1644156036.184014,-0.012451,0.009521,-0.992371,0.35826,0.310229,-0.054656,38,273,563,4928
1644156036.232406,-0.008911,0.00885,-0.991394,0.220855,0.417099,-0.130992,51,271,576,4880
1644156036.280787,-0.010254,0.00592,-0.99469,0.220855,0.417099,0.006412,51,274,569,4832
1644156036.329183,-0.011108,0.009033,-0.992493,0.35826,0.554504,-0.069924,46,262,571,4880
1644156036.377568,-0.010559,0.012207,-0.992371,0.297191,0.203359,-0.192061,51,274,573,4816
1644156036.425934,-0.014221,0.007446,-0.995422,0.205588,0.294962,-0.039389,52,277,577,4896
1644156036.474365,-0.00885,0.006104,-0.992981,0.373527,0.371298,-0.115725,35,275,577,4880
1644156036.522749,-0.011047,0.009399,-0.99292,0.266656,0.340763,0.006412,51,269,580,4896
1644156036.571114,-0.014343,0.009094,-0.993042,0.175053,0.478168,-0.069924,49,273,586,4896
1644156036.619498,-0.011169,0.010254,-0.991638,0.251389,0.203359,-0.298931,41,271,578,4848
1644156036.667888,-0.012268,0.008362,-0.993652,0.404061,0.401832,0.067481,45,270,572,4896
1644156036.716273,-0.012817,0.008423,-0.993347,0.205588,0.478168,-0.192061,57,273,577,4880
1644156036.764664,-0.012268,0.010681,-0.990906,0.251389,0.294962,-0.069924,49,273,586,4880
1644156036.8131,-0.012512,0.009094,-0.994263,0.236122,0.340763,-0.130992,54,277,565,4896
1644156036.861492,-0.010864,0.008789,-0.992065,0.251389,0.508702,-0.085191,52,273,579,4896
1644156036.911417,-0.014282,0.007996,-0.991028,0.205588,0.386565,-0.130992,48,269,576,4896
1644156036.961617,-0.012146,0.008789,-0.990601,0.297191,0.356031,0.006412,54,275,570,4832
1644156037.064947,-0.010681,0.009338,-0.991028,0.159786,0.371298,-0.130992,48,276,576,4880
1644156037.103386,-0.011719,0.008057,-0.990112,0.175053,0.371298,-0.039389,53,274,583,4928
1644156037.151771,-0.010864,0.009644,-0.991394,0.312458,0.417099,-0.176794,64,275,572,4880
1644156037.200135,-0.016907,0.010071,-0.99231,0.266656,0.340763,-0.100458,49,270,572,4896
1644156037.248507,-0.011902,0.010437,-0.993103,0.144519,0.340763,-0.207328,49,273,572,4880
1644156037.296894,-0.013611,0.007629,-0.987793,0.159786,0.356031,-0.024122,51,279,583,4896
1644156037.345289,-0.01062,0.008606,-0.991333,0.404061,0.417099,-0.024122,49,270,579,4880
1644156037.393685,-0.01178,0.007996,-0.991455,0.35826,0.478168,-0.14626,51,271,583,4848
1644156037.442082,-0.011169,0.010681,-0.99469,0.220855,0.493435,-0.161527,52,273,577,4816
1644156037.490447,-0.011169,0.01178,-0.991577,0.297191,0.417099,-0.14626,53,274,576,4896
1644156037.538854,-0.01355,0.006592,-0.993469,0.190321,0.432366,-0.100458,46,266,576,4880
1644156037.587243,-0.012024,0.008728,-0.992554,0.098718,0.401832,-0.176794,51,271,583,4880
1644156037.635627,-0.010315,0.008118,-0.993408,0.220855,0.508702,-0.115725,53,271,569,4880
1644156037.684011,-0.007935,0.011047,-0.990784,0.205588,0.447634,-0.115725,48,279,583,4880
1644156037.732424,-0.010193,0.007812,-0.994629,0.205588,0.417099,-0.024122,59,277,572,4880
1644156037.782404,-0.009521,0.005371,-0.99292,0.159786,0.356031,-0.130992,49,268,568,4992
1644156037.834043,-0.007935,0.007629,-0.993347,0.35826,0.401832,-0.130992,55,279,576,4896
1644156037.878837,-0.013306,0.007996,-0.988708,0.327725,0.356031,-0.100458,47,263,568,4880
1644156037.974382,-0.013184,0.007874,-0.993164,0.312458,0.447634,-0.039389,58,279,564,4880
1644156038.022788,-0.010681,0.011108,-0.99353,0.175053,0.386565,-0.024122,54,273,575,4848
1644156038.072743,-0.012451,0.010376,-0.992065,0.281924,0.401832,-0.115725,53,269,580,4896
1644156038.119509,-0.013733,0.008545,-0.990723,0.297191,0.386565,-0.192061,54,270,563,4896
1644156038.167872,-0.010071,0.009827,-0.989685,0.175053,0.371298,-0.085191,62,262,583,4816
1644156038.216258,-0.011292,0.008606,-0.993286,0.236122,0.279695,-0.024122,54,275,579,4848
1644156038.264663,-0.00946,0.009033,-0.993164,0.327725,0.356031,-0.008855,48,271,573,4896
1644156038.313061,-0.012634,0.010681,-0.991638,0.281924,0.462901,-0.054656,51,279,578,4880
1644156038.361441,-0.012268,0.00592,-0.991638,0.144519,0.386565,-0.024122,40,270,572,4880
1644156038.409825,-0.01001,0.010071,-0.993591,0.220855,0.569771,-0.024122,51,274,573,4896
1644156038.458215,-0.01062,0.007568,-0.991211,0.297191,0.401832,-0.085191,49,275,570,4896
1644156038.506579,-0.011902,0.009644,-0.993286,0.281924,0.508702,-0.176794,49,265,579,4880
1644156038.555259,-0.008789,0.008301,-0.992737,0.144519,0.569771,-0.115725,43,274,578,4848
1644156038.603381,-0.010986,0.00946,-0.989624,0.251389,0.523969,-0.054656,51,279,569,4880
1644156038.651751,-0.012268,0.011841,-0.992249,0.144519,0.294962,-0.100458,52,265,568,4928
1644156038.700138,-0.013367,0.010132,-0.992493,0.175053,0.340763,-0.192061,59,273,584,4896
1644156038.748497,-0.009705,0.01001,-0.994324,0.236122,0.585038,-0.115725,51,274,566,4848
1644156038.796917,-0.011108,0.007629,-0.990723,0.312458,0.478168,-0.085191,45,263,572,4896
1644156038.845375,-0.010803,0.005493,-0.98999,0.220855,0.279695,-0.130992,48,266,580,4832
1644156038.894493,-0.010559,0.009094,-0.992554,0.373527,0.310229,-0.054656,51,276,578,4848
1644156038.945193,-0.009766,0.007751,-0.993042,0.312458,0.447634,0.067481,55,262,573,4880
1644156038.994721,-0.013,0.009644,-0.993591,0.266656,0.462901,-0.14626,52,273,572,4896
1644156039.039808,-0.012268,0.010498,-0.991394,0.236122,0.462901,-0.115725,47,270,577,4896
1644156039.135644,-0.01239,0.007446,-0.993958,0.327725,0.508702,-0.176794,58,276,573,4880
1644156039.184011,-0.01178,0.010071,-0.993042,0.144519,0.585038,-0.069924,61,275,575,4896
1644156039.23242,-0.012573,0.008789,-0.995483,0.205588,0.310229,-0.069924,45,277,577,4752
1644156039.280769,-0.01178,0.007812,-0.99292,0.312458,0.401832,-0.024122,49,273,575,4880
1644156039.32919,-0.010925,0.009827,-0.991394,0.373527,0.417099,-0.085191,49,275,584,4880
1644156039.377538,-0.010803,0.008545,-0.990967,0.251389,0.462901,-0.100458,49,265,563,4880
1644156039.425934,-0.013184,0.009216,-0.992859,0.205588,0.432366,-0.054656,47,268,575,4896
1644156039.474346,-0.010437,0.010681,-0.991577,0.205588,0.63084,-0.14626,55,269,569,4784
1644156039.522748,-0.011047,0.008728,-0.992554,0.236122,0.310229,-0.069924,48,274,569,4928
1644156039.571118,-0.011047,0.008972,-0.990723,0.236122,0.523969,-0.283664,53,271,573,4880
1644156039.619494,-0.01355,0.009399,-0.989929,0.205588,0.539237,-0.008855,49,268,572,4896
1644156039.667882,-0.013611,0.007385,-0.99054,0.404061,0.478168,-0.207328,48,288,576,4944
1644156039.716268,-0.011047,0.01001,-0.995056,0.220855,0.493435,-0.054656,49,275,575,4816
1644156039.764714,-0.011108,0.010864,-0.990906,0.098718,0.417099,-0.130992,49,273,579,4896
1644156039.813063,-0.011475,0.008789,-0.992554,0.297191,0.264427,-0.14626,49,263,575,4848
1644156039.861474,-0.010986,0.009583,-0.989807,0.236122,0.356031,-0.085191,57,277,572,4896
1644156039.909857,-0.013,0.007507,-0.992798,0.236122,0.325496,-0.207328,48,266,580,4880
1644156039.958277,-0.012512,0.010925,-0.993896,0.175053,0.417099,-0.039389,48,276,569,4880
1644156040.066554,-0.011475,0.009033,-0.991028,0.46513,0.493435,-0.115725,42,275,582,4880
1644156040.103395,-0.012451,0.008972,-0.994263,0.098718,0.508702,-0.115725,43,271,580,4944
1644156040.151768,-0.011902,0.009583,-0.992798,0.159786,0.279695,-0.100458,57,282,579,4896
1644156040.200147,-0.012207,0.006775,-0.994812,0.129252,0.569771,-0.161527,48,276,569,4880
1644156040.248506,-0.011658,0.01001,-0.994019,0.281924,0.401832,-0.085191,54,273,577,4944
1644156040.296915,-0.01062,0.011353,-0.989746,0.190321,0.432366,-0.085191,48,276,578,4832
1644156040.345322,-0.015259,0.009155,-0.995789,0.342992,0.462901,0.036947,49,273,568,4896
1644156040.393708,-0.009338,0.008667,-0.992859,0.312458,0.523969,-0.161527,41,276,578,4848
1644156040.442229,-0.011536,0.010559,-0.992493,0.08345,0.340763,-0.268397,54,268,584,4896
1644156040.490487,-0.01001,0.007141,-0.992188,0.098718,0.554504,-0.069924,58,271,573,4896
1644156040.538861,-0.012695,0.011169,-0.991272,0.312458,0.447634,-0.176794,55,276,576,4848
1644156040.587239,-0.010498,0.010925,-0.992798,-0.02342,0.371298,-0.054656,46,276,576,4880
1644156040.635598,-0.011108,0.011536,-0.993896,0.281924,0.585038,-0.115725,46,266,571,4848
1644156040.684031,-0.012634,0.008606,-0.994385,0.129252,0.417099,-0.344733,51,266,569,4880
1644156040.733938,-0.012817,0.008423,-0.992188,0.327725,0.447634,-0.14626,52,268,577,4848
1644156040.7842,-0.013,0.006653,-0.996033,0.281924,0.447634,-0.039389,53,281,578,4880
1644156040.829836,-0.014771,0.009827,-0.994934,0.052916,0.386565,-0.176794,45,273,568,4880
1644156040.925975,-0.01239,0.008484,-0.98999,0.373527,0.600305,-0.161527,51,271,566,4896
1644156040.974349,-0.009521,0.007141,-0.991699,0.236122,0.432366,-0.039389,45,280,575,4848
1644156041.022753,-0.013062,0.005981,-0.993103,0.190321,0.523969,-0.054656,51,274,576,4896
1644156041.071206,-0.013184,0.00769,-0.99054,0.236122,0.432366,-0.085191,48,274,573,4896
1644156041.119544,-0.012329,0.009399,-0.994385,0.175053,0.554504,-0.25313,51,269,576,4896
1644156041.167884,-0.012024,0.008118,-0.991821,0.266656,0.340763,-0.100458,55,276,578,4880
1644156041.216308,-0.010071,0.007812,-0.990112,0.220855,0.432366,-0.161527,64,275,577,4896
1644156041.264795,-0.011597,0.006836,-0.991577,0.190321,0.432366,-0.161527,54,273,570,4848
1644156041.313101,-0.013489,0.00769,-0.992188,0.251389,0.432366,-0.207328,59,270,568,4896
1644156041.361451,-0.011719,0.006775,-0.99353,0.266656,0.508702,-0.024122,52,275,568,4928
1644156041.409869,-0.012512,0.00885,-0.992981,0.175053,0.386565,-0.039389,55,276,578,4896
1644156041.458248,-0.013245,0.007141,-0.992859,0.205588,0.523969,-0.100458,47,268,577,4848
1644156041.506618,-0.010986,0.008728,-0.99231,0.220855,0.493435,0.006412,57,277,565,4896
1644156041.555064,-0.013855,0.006775,-0.992126,0.205588,0.294962,-0.069924,59,270,577,4848
1644156041.603411,-0.011292,0.010071,-0.991333,0.281924,0.432366,-0.024122,60,266,573,4880
1644156041.651792,-0.012878,0.008301,-0.993652,0.236122,0.462901,-0.237863,55,281,571,4880
1644156041.70019,-0.01416,0.008972,-0.992737,0.35826,0.417099,-0.176794,53,266,576,4928
1644156041.748612,-0.01123,0.007935,-0.993774,0.388794,0.554504,-0.283664,57,273,572,4848
1644156041.796973,-0.011597,0.008362,-0.99408,0.236122,0.432366,-0.069924,55,276,571,4896
1644156041.846554,-0.013611,0.009338,-0.991821,0.281924,0.478168,-0.024122,55,269,573,4896
1644156041.897087,-0.010864,0.008301,-0.991394,0.35826,0.218626,0.006412,54,273,579,4928
1644156041.947513,-0.010559,0.008362,-0.990601,0.159786,0.356031,0.036947,52,282,570,4848
1644156041.992055,-0.010925,0.009033,-0.992493,0.281924,0.523969,-0.039389,42,275,577,4928
1644156042.087761,-0.011475,0.007507,-0.992859,0.281924,0.386565,-0.115725,52,268,570,4880
1644156042.135596,-0.012329,0.008667,-0.992004,0.175053,0.417099,-0.237863,51,276,578,4896
1644156042.184011,-0.011047,0.009949,-0.992371,0.220855,0.417099,-0.024122,54,270,577,4896
1644156042.232407,-0.010925,0.007996,-0.995056,0.251389,0.340763,-0.085191,49,287,572,4880
1644156042.280773,-0.01239,0.006531,-0.995728,0.175053,0.371298,-0.054656,42,290,572,4848
1644156042.329156,-0.010803,0.007874,-0.991882,0.297191,0.417099,-0.237863,59,280,570,4928
1644156042.377558,-0.011841,0.009155,-0.993958,0.266656,0.493435,-0.130992,40,275,572,4880
1644156042.42594,-0.012268,0.009094,-0.993164,0.175053,0.401832,-0.192061,48,269,578,4880
1644156042.474347,-0.011108,0.009644,-0.991699,0.419328,0.600305,-0.176794,57,273,570,4848
1644156042.522714,-0.010986,0.009216,-0.993713,0.220855,0.401832,-0.054656,54,275,570,4848
1644156042.571108,-0.01355,0.009094,-0.991638,0.175053,0.340763,-0.298931,52,270,575,4928
1644156042.619493,-0.013916,0.008606,-0.99115,0.098718,0.386565,-0.100458,51,276,571,4880
1644156042.667873,-0.016113,0.006165,-0.993774,0.205588,0.310229,-0.176794,47,280,570,4896
1644156042.716243,-0.011658,0.009277,-0.99176,0.266656,0.432366,-0.039389,46,281,576,4848
1644156042.764673,-0.011475,0.009216,-0.991943,0.297191,0.432366,-0.024122,51,266,583,4848
1644156042.81311,-0.011536,0.007446,-0.992798,0.144519,0.386565,-0.100458,51,276,576,4880
1644156042.861477,-0.010742,0.008118,-0.990417,0.281924,0.508702,-0.100458,58,266,578,4896
1644156042.909862,-0.009338,0.01239,-0.993774,0.35826,0.371298,0.052214,67,279,564,4928
1644156042.958269,-0.010925,0.008728,-0.990906,0.190321,0.447634,-0.008855,51,269,583,4928
1644156043.062902,-0.008728,0.006226,-0.99292,0.266656,0.539237,-0.222595,42,270,568,4896
1644156043.103374,-0.010498,0.008118,-0.993469,0.35826,0.24916,-0.039389,49,270,572,4880
1644156043.15176,-0.012573,0.008545,-0.991699,0.113985,0.462901,-0.039389,47,265,582,4960
1644156043.200151,-0.013184,0.010437,-0.994751,0.175053,0.447634,-0.115725,49,285,584,4880
1644156043.248508,-0.008484,0.009949,-0.992859,0.297191,0.462901,-0.176794,53,271,573,4880
1644156043.296897,-0.010254,0.005371,-0.993774,0.159786,0.386565,-0.024122,55,283,580,4896
1644156043.345298,-0.011963,0.008606,-0.992432,0.175053,0.447634,-0.069924,45,270,575,4880
1644156043.393711,-0.013489,0.00946,-0.990723,0.236122,0.478168,-0.207328,43,283,578,4880
1644156043.442059,-0.011475,0.008484,-0.992554,0.404061,0.508702,-0.054656,48,276,566,4880
1644156043.490921,-0.011963,0.007263,-0.995239,0.342992,0.279695,-0.268397,48,274,573,4960
1644156043.538869,-0.011475,0.008728,-0.993042,0.220855,0.356031,-0.14626,52,265,572,4880
1644156043.587234,-0.012878,0.008484,-0.992493,0.190321,0.432366,-0.024122,52,280,570,4880
1644156043.635625,-0.01062,0.00885,-0.989258,0.236122,0.523969,-0.100458,45,268,570,4848
1644156043.684019,-0.00946,0.011536,-0.993286,0.251389,0.356031,-0.008855,49,280,572,4880
1644156043.732422,-0.013428,0.008545,-0.992798,0.190321,0.310229,-0.039389,53,274,583,4928
1644156043.780782,-0.01178,0.009827,-0.994324,0.08345,0.539237,-0.085191,54,275,565,4848
1644156043.832065,-0.01062,0.008911,-0.992554,0.113985,0.401832,-0.222595,53,276,576,4848
1644156043.881998,-0.010742,0.009521,-0.993713,0.297191,0.508702,-0.222595,43,266,580,4944
1644156043.927444,-0.012512,0.008484,-0.993774,0.297191,0.539237,-0.100458,58,276,576,4848
1644156044.022752,-0.010498,0.011292,-0.996338,0.297191,0.401832,-0.054656,51,276,571,4880
1644156044.071218,-0.011475,0.008484,-0.990417,0.297191,0.447634,-0.100458,54,273,582,4848
1644156044.119522,-0.011475,0.00592,-0.992554,0.220855,0.523969,-0.054656,62,279,576,4880
1644156044.167889,-0.009766,0.008179,-0.990784,0.281924,0.447634,-0.130992,53,266,573,4944
1644156044.216266,-0.012146,0.00824,-0.991455,0.312458,0.432366,-0.192061,46,264,569,4880
1644156044.264684,-0.012634,0.005981,-0.992615,0.312458,0.401832,-0.161527,54,270,563,4896
1644156044.313068,-0.013184,0.00769,-0.994141,0.190321,0.462901,-0.069924,47,273,570,4880
1644156044.36145,-0.010193,0.006714,-0.990356,0.251389,0.371298,-0.039389,54,280,577,4880
1644156044.409793,-0.010071,0.006104,-0.991089,0.312458,0.554504,-0.207328,61,273,582,4960
1644156044.458224,-0.010498,0.008057,-0.989868,0.251389,0.554504,-0.130992,53,274,576,4928
1644156044.506591,-0.013428,0.009216,-0.991882,0.220855,0.386565,-0.176794,59,277,568,4848
1644156044.555102,-0.013367,0.01001,-0.994934,0.236122,0.417099,-0.207328,47,277,572,4880
1644156044.603381,-0.013062,0.008301,-0.993713,0.35826,0.386565,-0.130992,51,266,576,4848
1644156044.651738,-0.013733,0.007202,-0.993896,0.342992,0.340763,-0.100458,46,274,580,4880
1644156044.70015,-0.009583,0.009399,-0.993713,0.373527,0.325496,-0.039389,54,280,577,4896
1644156044.748509,-0.009277,0.008423,-0.991333,0.297191,0.371298,-0.039389,53,274,569,4848
1644156044.796918,-0.016602,0.008972,-0.995117,0.037649,0.569771,-0.054656,46,279,564,4832
1644156044.846338,-0.009949,0.009583,-0.994263,0.190321,0.417099,0.006412,53,266,573,4944
1644156044.897462,-0.013245,0.008362,-0.993835,0.144519,0.432366,0.036947,53,271,580,4928
1644156044.942379,-0.012268,0.011169,-0.992676,0.342992,0.371298,-0.024122,49,277,575,4848
1644156045.038866,-0.00885,0.009888,-0.994568,0.175053,0.493435,-0.085191,51,276,578,4960
1644156045.087464,-0.014221,0.009399,-0.99115,0.251389,0.203359,0.021679,45,273,577,4880
1644156045.135656,-0.012878,0.011963,-0.991638,0.190321,0.417099,-0.054656,57,265,572,4896
1644156045.184029,-0.010254,0.008606,-0.990112,0.220855,0.340763,-0.115725,41,276,571,4880
1644156045.232414,-0.013428,0.008301,-0.990723,0.144519,0.462901,-0.161527,57,263,572,4896
1644156045.280771,-0.011963,0.007263,-0.995789,0.205588,0.371298,-0.069924,46,274,566,4848
1644156045.329177,-0.012451,0.008972,-0.993347,0.068183,0.233893,-0.25313,48,274,566,4928
1644156045.377575,-0.010132,0.009033,-0.993286,0.236122,0.523969,-0.192061,58,281,573,4896
1644156045.425953,-0.010803,0.009949,-0.99353,0.236122,0.264427,-0.054656,53,271,571,4880
1644156045.474335,-0.013855,0.011353,-0.994446,0.342992,0.447634,-0.176794,51,279,562,4960
1644156045.52273,-0.010803,0.006226,-0.989929,0.419328,0.294962,-0.161527,45,270,568,4816
1644156045.571121,-0.010803,0.007568,-0.990601,0.175053,0.401832,-0.14626,60,266,573,4880
1644156045.619496,-0.009888,0.010864,-0.991882,0.281924,0.279695,0.006412,54,263,572,4880
1644156045.667897,-0.011658,0.008057,-0.992249,0.35826,0.462901,-0.207328,64,280,577,4880
1644156045.716283,-0.011963,0.004944,-0.989868,0.251389,0.432366,-0.115725,52,277,577,4896
1644156045.764678,-0.011169,0.005981,-0.993591,0.266656,0.508702,-0.008855,49,275,570,4880
1644156045.813061,-0.013733,0.00769,-0.990784,0.251389,0.356031,-0.039389,55,279,578,4928
1644156045.861469,-0.01123,0.008179,-0.991089,0.266656,0.478168,0.021679,49,268,570,4928
1644156045.909888,-0.011292,0.010071,-0.99176,0.251389,0.417099,-0.054656,51,274,571,4880
1644156045.959102,-0.013489,0.011353,-0.991333,0.175053,0.462901,-0.100458,47,268,572,4944
1644156046.009585,-0.012329,0.010498,-0.99054,0.236122,0.523969,-0.237863,61,270,577,4896
1644156046.103393,-0.011536,0.00946,-0.988953,0.266656,0.356031,0.052214,48,269,576,4816
1644156046.151777,-0.013733,0.007996,-0.99176,0.159786,0.493435,-0.176794,54,277,577,4880
1644156046.200151,-0.01178,0.010315,-0.996033,0.327725,0.371298,0.036947,52,270,575,4848
1644156046.248515,-0.009094,0.004028,-0.994263,0.312458,0.310229,-0.161527,52,268,570,4928
1644156046.296898,-0.010376,0.008362,-0.993835,0.297191,0.447634,-0.161527,45,273,568,4848
1644156046.345296,-0.010681,0.006287,-0.991089,0.251389,0.523969,-0.024122,58,269,573,4880
1644156046.393714,-0.01178,0.007751,-0.989014,0.129252,0.371298,-0.14626,62,271,571,4880
1644156046.442078,-0.01239,0.009521,-0.995789,0.327725,0.447634,-0.024122,49,273,577,4848
1644156046.490464,-0.01062,0.006958,-0.99176,0.312458,0.432366,-0.008855,43,286,578,4880
1644156046.538857,-0.007935,0.01123,-0.98999,0.052916,0.462901,-0.024122,55,274,576,4896
1644156046.587257,-0.014404,0.007263,-0.994507,0.266656,0.432366,-0.115725,55,269,578,4816
1644156046.635631,-0.010559,0.00769,-0.992676,0.205588,0.386565,-0.085191,49,275,575,4880
1644156046.684038,-0.009338,0.006958,-0.994141,0.388794,0.325496,-0.115725,54,282,570,4880
1644156046.733893,-0.011292,0.009399,-0.993286,0.251389,0.462901,-0.085191,54,268,584,4896
1644156046.784262,-0.011353,0.007751,-0.991943,0.281924,0.401832,-0.039389,61,270,572,4880
1644156046.829865,-0.012939,0.010803,-0.994202,0.297191,0.401832,-0.008855,48,279,566,4880
1644156046.925967,-0.013306,0.009033,-0.991211,0.434595,0.401832,-0.161527,57,268,575,4880
1644156046.974373,-0.011169,0.004822,-0.991577,0.08345,0.417099,-0.039389,47,270,582,4880
1644156047.02278,-0.01123,0.007629,-0.994202,0.266656,0.569771,-0.024122,48,269,580,4944
1644156047.071213,-0.010681,0.01239,-0.989685,0.205588,0.432366,-0.130992,48,276,578,4832
1644156047.119504,-0.011536,0.009583,-0.992554,0.220855,0.294962,-0.039389,43,269,571,4880
1644156047.167877,-0.01178,0.008118,-0.99292,0.312458,0.554504,-0.192061,47,280,565,4880
1644156047.216272,-0.011047,0.00885,-0.992554,0.220855,0.340763,-0.14626,53,279,569,4928
1644156047.264672,-0.01239,0.010254,-0.994202,0.175053,0.340763,-0.14626,47,280,575,4880
1644156047.313062,-0.012512,0.009888,-0.993225,0.266656,0.264427,-0.024122,48,269,573,4944
1644156047.361452,-0.010986,0.008667,-0.993225,0.342992,0.462901,-0.237863,53,269,571,4944
1644156047.409819,-0.01239,0.008057,-0.993286,0.281924,0.447634,-0.039389,51,281,578,4880
1644156047.458205,-0.012756,0.009521,-0.991882,0.266656,0.478168,-0.069924,45,280,575,4896
1644156047.5066,-0.013,0.007019,-0.992004,0.327725,0.356031,-0.069924,53,276,569,4944
1644156047.555097,-0.011475,0.008057,-0.993652,0.159786,0.401832,-0.161527,58,283,573,4880
1644156047.603377,-0.010925,0.00885,-0.994507,0.281924,0.325496,-0.207328,53,266,578,4880
1644156047.651762,-0.011719,0.008362,-0.993042,0.175053,0.539237,-0.130992,48,271,573,4880
1644156047.700126,-0.011658,0.008789,-0.994324,0.205588,0.340763,-0.039389,55,274,566,4784
1644156047.748508,-0.011963,0.007019,-0.990723,0.327725,0.417099,-0.130992,49,277,568,4880
1644156047.796965,-0.012207,0.009827,-0.991516,0.205588,0.447634,-0.085191,52,273,565,4880
1644156047.845473,-0.012329,0.00885,-0.99292,0.236122,0.356031,-0.176794,55,266,564,4928
1644156047.896019,-0.011719,0.00824,-0.992493,0.281924,0.447634,0.006412,53,276,576,4896
1644156047.946738,-0.012207,0.009888,-0.992249,0.159786,0.340763,-0.130992,52,268,570,4944
1644156047.991346,-0.011475,0.012573,-0.992004,0.342992,0.432366,0.082748,57,275,570,4928
1644156048.087363,-0.010315,0.010315,-0.992065,0.297191,0.340763,-0.130992,61,275,579,4944
1644156048.135617,-0.013428,0.005432,-0.993469,0.113985,0.386565,-0.222595,60,266,566,4880
1644156048.184024,-0.013184,0.008911,-0.994324,0.129252,0.340763,-0.100458,43,283,571,4880
1644156048.232412,-0.012512,0.007202,-0.989319,0.175053,0.325496,0.036947,48,283,576,4880
1644156048.280772,-0.011353,0.010193,-0.993103,0.35826,0.493435,-0.207328,46,271,571,4832
1644156048.32917,-0.009705,0.010986,-0.98938,0.236122,0.264427,-0.024122,51,269,562,4880
1644156048.377554,-0.013123,0.009033,-0.99231,0.297191,0.462901,-0.130992,49,277,568,4880
1644156048.425939,-0.011414,0.009216,-0.993652,0.144519,0.356031,-0.176794,49,265,575,4848
1644156048.474338,-0.011475,0.00824,-0.994751,0.312458,0.478168,-0.161527,53,266,578,4896
1644156048.522743,-0.012146,0.008484,-0.98938,0.220855,0.386565,-0.054656,49,273,577,4896
1644156048.571114,-0.011536,0.007935,-0.992493,0.266656,0.478168,-0.14626,46,271,566,4848
1644156048.619501,-0.012939,0.007385,-0.991211,0.404061,0.585038,-0.207328,52,275,572,4880
1644156048.667887,-0.011475,0.007629,-0.991455,0.281924,0.554504,-0.161527,54,282,570,4880
1644156048.716251,-0.011658,0.007263,-0.99115,0.205588,0.417099,0.052214,54,268,561,4896
1644156048.764678,-0.010681,0.008423,-0.994019,0.144519,0.401832,0.113282,57,275,563,4880
1644156048.813112,-0.011719,0.007141,-0.990051,0.312458,0.447634,-0.100458,62,271,573,4848
1644156048.861472,-0.008545,0.008484,-0.992188,0.281924,0.478168,-0.100458,49,275,575,4848
1644156048.909857,-0.014099,0.008118,-0.991943,0.251389,0.432366,-0.085191,53,274,566,4848
1644156048.958531,-0.009888,0.011292,-0.993225,0.159786,0.371298,-0.314198,53,269,580,4880
1644156049.065215,-0.013306,0.007935,-0.992554,0.190321,0.523969,-0.115725,52,280,579,4880
1644156049.10339,-0.009705,0.007263,-0.99231,0.297191,0.508702,-0.268397,64,273,579,4880
1644156049.15176,-0.010437,0.00946,-0.990417,0.342992,0.340763,-0.14626,52,270,570,4928
1644156049.200162,-0.010315,0.008606,-0.991089,0.297191,0.417099,0.143817,52,275,579,4896
1644156049.248506,-0.011597,0.01001,-0.990662,0.175053,0.401832,0.006412,45,277,565,4896
1644156049.296899,-0.012756,0.008484,-0.994385,0.159786,0.478168,-0.130992,47,265,584,4816
1644156049.345273,-0.013672,0.008911,-0.991272,0.312458,0.401832,-0.14626,45,277,575,4848
1644156049.39372,-0.011475,0.009155,-0.99231,0.297191,0.386565,-0.039389,51,281,569,4880
1644156049.442161,-0.010498,0.010071,-0.991821,0.251389,0.356031,-0.100458,57,280,565,4848
1644156049.490483,-0.009888,0.009399,-0.991638,0.144519,0.264427,-0.100458,46,262,576,4880
1644156049.538857,-0.012573,0.011353,-0.991577,0.266656,0.371298,-0.085191,57,263,577,4896
1644156049.58725,-0.007019,0.010925,-0.993408,0.205588,0.478168,-0.054656,47,265,575,4896
1644156049.635634,-0.009644,0.010376,-0.992432,0.129252,0.371298,0.021679,54,263,577,4880
1644156049.684028,-0.013367,0.009583,-0.992249,0.342992,0.401832,0.052214,55,271,573,4928
1644156049.732773,-0.011475,0.008606,-0.994995,0.205588,0.371298,-0.054656,58,276,573,4928
1644156049.783047,-0.008667,0.008606,-0.994446,0.251389,0.493435,-0.039389,48,281,566,4848
1644156049.83413,-0.012573,0.01001,-0.992065,0.129252,0.386565,-0.115725,52,270,577,4944
1644156049.879179,-0.007568,0.009277,-0.994019,0.327725,0.401832,0.052214,55,276,571,4896
1644156049.97439,-0.011963,0.013184,-0.993896,0.190321,0.508702,-0.14626,49,268,579,4880
1644156050.022791,-0.01239,0.008606,-0.995178,0.251389,0.432366,-0.100458,54,275,568,4816
1644156050.071294,-0.011414,0.007996,-0.991333,0.281924,0.371298,0.006412,53,276,587,4896
1644156050.119487,-0.008484,0.008789,-0.993042,0.175053,0.493435,-0.192061,47,268,575,4928
1644156050.16787,-0.009399,0.008179,-0.990417,0.220855,0.447634,-0.268397,49,273,572,4880
1644156050.216287,-0.009644,0.011841,-0.992004,0.205588,0.401832,-0.192061,55,269,573,4848
1644156050.264668,-0.01062,0.009338,-0.990112,0.220855,0.615573,-0.085191,53,276,571,4816
1644156050.313025,-0.011902,0.009338,-0.991455,0.144519,0.417099,-0.069924,53,283,559,4880
1644156050.361433,-0.013855,0.008423,-0.98877,0.251389,0.478168,0.036947,42,268,568,4896
1644156050.40983,-0.010071,0.01178,-0.992615,0.281924,0.386565,-0.14626,36,283,573,4848
1644156050.458214,-0.011597,0.008972,-0.990723,0.419328,0.462901,-0.115725,54,270,565,4848
1644156050.506604,-0.012329,0.008606,-0.99115,0.266656,0.340763,-0.100458,53,279,569,4896
1644156050.555119,-0.010559,0.008118,-0.99176,0.190321,0.294962,-0.115725,52,277,572,4896
1644156050.603398,-0.012207,0.009155,-0.992493,0.373527,0.401832,-0.115725,46,266,569,4848
1644156050.651739,-0.011536,0.009094,-0.993103,0.205588,0.386565,0.006412,52,270,565,4880
1644156050.70015,-0.011047,0.007935,-0.995911,0.129252,0.447634,-0.192061,39,269,564,4880
1644156050.748541,-0.010315,0.008545,-0.993591,0.190321,0.508702,-0.085191,48,269,583,4880
1644156050.796912,-0.012878,0.010681,-0.991943,0.266656,0.615573,-0.085191,55,274,580,4880
1644156050.845365,-0.011597,0.006958,-0.992065,0.190321,0.508702,-0.176794,51,266,580,4896
1644156050.894192,-0.010925,0.008728,-0.995056,0.190321,0.417099,-0.14626,51,266,580,4880
1644156050.945196,-0.012146,0.008545,-0.991943,0.297191,0.401832,-0.14626,46,281,573,4880
1644156050.994757,-0.013672,0.00708,-0.99115,0.129252,0.462901,-0.100458,57,285,575,4848
1644156051.088992,-0.012634,0.008728,-0.990417,0.342992,0.462901,-0.192061,54,277,570,4880
1644156051.135644,-0.011536,0.00946,-0.992249,0.35826,0.325496,-0.054656,49,265,565,4896
1644156051.184022,-0.010681,0.008057,-0.991516,0.159786,0.417099,-0.008855,55,266,573,4880
1644156051.232417,-0.013428,0.00946,-0.989929,0.251389,0.539237,-0.054656,47,275,572,4992
1644156051.280763,-0.013,0.010132,-0.994629,0.159786,0.432366,-0.130992,49,273,558,4944
1644156051.32917,-0.014038,0.007996,-0.992798,0.266656,0.432366,-0.100458,62,276,569,4928
1644156051.377573,-0.011719,0.009827,-0.994507,0.236122,0.401832,-0.008855,49,270,570,4928
1644156051.425958,-0.011902,0.008728,-0.992737,0.312458,0.508702,-0.100458,57,275,570,4896
1644156051.47435,-0.010681,0.009521,-0.993042,0.236122,0.478168,-0.14626,51,269,569,4848
1644156051.522745,-0.010376,0.007507,-0.993591,0.251389,0.386565,-0.008855,49,277,579,4960
1644156051.571112,-0.011536,0.007812,-0.993286,0.190321,0.447634,-0.130992,55,281,559,4896
1644156051.619514,-0.01416,0.007263,-0.991577,0.175053,0.386565,-0.100458,48,283,580,4848
1644156051.667868,-0.012085,0.004578,-0.991577,0.266656,0.447634,-0.14626,57,277,577,4848
1644156051.716291,-0.012207,0.008179,-0.994629,0.297191,0.539237,-0.161527,66,280,572,4816
1644156051.764757,-0.011169,0.009033,-0.991882,0.388794,0.340763,-0.161527,52,270,582,4848
1644156051.813072,-0.012512,0.008728,-0.990784,0.236122,0.371298,-0.024122,55,271,569,4944
1644156051.861532,-0.013489,0.010071,-0.991699,-0.038687,0.462901,-0.024122,39,274,576,4896
1644156051.909889,-0.012451,0.011658,-0.995239,0.35826,0.264427,-0.192061,54,275,568,4880
1644156051.958522,-0.010498,0.007874,-0.989075,0.35826,0.371298,-0.069924,55,274,576,4848
1644156052.064919,-0.009277,0.009155,-0.990601,0.388794,0.432366,-0.100458,60,274,578,4880
1644156052.1034,-0.012146,0.009155,-0.991638,0.327725,0.310229,-0.237863,39,264,576,4880
1644156052.15177,-0.012146,0.007996,-0.989746,0.098718,0.478168,-0.054656,58,262,578,4880
1644156052.20014,-0.012329,0.010742,-0.992188,0.35826,0.325496,-0.115725,58,271,580,4880
1644156052.24851,-0.010071,0.010315,-0.991455,0.190321,0.493435,0.006412,54,268,570,4880
1644156052.296913,-0.01355,0.010437,-0.993225,0.190321,0.401832,-0.069924,55,288,576,4896
1644156052.345299,-0.010864,0.008789,-0.992981,0.297191,0.417099,-0.130992,51,276,569,4848
1644156052.393717,-0.011169,0.008667,-0.992065,0.342992,0.340763,-0.085191,54,270,579,4896
1644156052.442091,-0.01123,0.01062,-0.993713,0.327725,0.417099,-0.024122,42,277,579,4848
1644156052.490489,-0.009338,0.01123,-0.991272,0.297191,0.356031,0.036947,55,264,571,4896
1644156052.538858,-0.01123,0.011108,-0.992493,0.236122,0.371298,-0.024122,54,273,568,4896
1644156052.587243,-0.011719,0.009094,-0.98761,0.159786,0.523969,-0.115725,53,269,573,4992
1644156052.635634,-0.007263,0.007507,-0.990845,0.281924,0.493435,-0.085191,52,265,577,4880
1644156052.684023,-0.010742,0.011536,-0.989502,0.342992,0.356031,-0.176794,53,266,569,4896
1644156052.733125,-0.011108,0.010864,-0.990295,0.388794,0.478168,-0.100458,60,274,564,4896
1644156052.78316,-0.01239,0.011292,-0.992371,0.419328,0.554504,-0.054656,48,276,571,4896
1644156052.833312,-0.011169,0.009583,-0.991211,0.281924,0.417099,-0.115725,54,275,572,4880
1644156052.879267,-0.01239,0.009888,-0.993591,0.236122,0.401832,0.006412,55,269,569,4896
1644156052.974374,-0.009583,0.007996,-0.991089,0.312458,0.432366,-0.237863,52,273,570,4928
1644156053.022798,-0.009705,0.009888,-0.991516,0.327725,0.508702,-0.237863,57,268,572,4928
1644156053.071235,-0.013123,0.007751,-0.993713,0.266656,0.417099,-0.14626,45,277,570,4880
1644156053.119484,-0.011047,0.007324,-0.993408,0.175053,0.478168,0.036947,39,274,573,4928
1644156053.167884,-0.012146,0.010742,-0.991699,0.266656,0.432366,-0.085191,52,273,570,4880
1644156053.216266,-0.011047,0.008423,-0.990234,0.419328,0.523969,-0.024122,54,275,568,4880
1644156053.264667,-0.014832,0.007263,-0.994934,0.297191,0.310229,-0.14626,53,276,580,4928
1644156053.313065,-0.010254,0.009766,-0.993408,0.251389,0.493435,-0.115725,59,268,572,4880
1644156053.361437,-0.011292,0.009277,-0.993713,0.205588,0.432366,-0.115725,53,279,569,4880
1644156053.409829,-0.010437,0.009216,-0.990173,0.236122,0.539237,-0.054656,54,273,568,4832
1644156053.45821,-0.01123,0.009949,-0.990845,-0.008153,0.386565,-0.207328,51,271,566,4880
1644156053.506608,-0.012329,0.011353,-0.991455,0.281924,0.508702,-0.192061,41,276,564,4848
1644156053.555117,-0.011841,0.010742,-0.992981,0.388794,0.417099,-0.039389,55,274,571,4944
1644156053.603387,-0.01123,0.00946,-0.992432,0.022382,0.493435,-0.054656,54,268,575,4896
1644156053.651771,-0.01355,0.009888,-0.992249,0.297191,0.279695,-0.054656,49,280,568,4848
1644156053.700144,-0.011963,0.007996,-0.993225,0.236122,0.325496,0.098015,55,262,573,4880
1644156053.748535,-0.012817,0.009583,-0.992371,0.236122,0.447634,0.036947,52,280,570,4896
1644156053.796965,-0.013123,0.01062,-0.994812,0.281924,0.401832,-0.054656,47,268,572,4880
1644156053.845382,-0.011841,0.008911,-0.990723,0.220855,0.462901,-0.069924,45,277,561,4848
1644156053.894488,-0.013916,0.007874,-0.993835,0.251389,0.401832,-0.054656,52,273,568,4848
1644156053.945158,-0.010864,0.009827,-0.990784,0.327725,0.417099,-0.161527,43,271,569,4880
1644156053.99547,-0.012146,0.010254,-0.988953,0.175053,0.523969,0.021679,45,275,575,4848
1644156054.040342,-0.014587,0.009338,-0.993408,0.266656,0.386565,-0.100458,52,268,565,4880
1644156054.135623,-0.008972,0.012512,-0.993408,0.35826,0.386565,-0.054656,34,279,571,4880
1644156054.184022,-0.01355,0.009521,-0.992249,0.312458,0.447634,-0.130992,47,282,563,4848
1644156054.232427,-0.009338,0.008423,-0.990234,0.251389,0.340763,-0.085191,49,265,570,4880
1644156054.280769,-0.011902,0.004578,-0.990845,0.46513,0.523969,0.021679,51,266,573,4928
1644156054.329163,-0.009216,0.010376,-0.991821,0.144519,0.233893,-0.14626,51,274,573,4960
1644156054.377569,-0.011353,0.009033,-0.993103,0.388794,0.523969,-0.100458,46,274,566,4896
1644156054.425957,-0.011841,0.006897,-0.99231,0.251389,0.417099,-0.130992,47,277,568,4880
1644156054.474339,-0.014099,0.008789,-0.992676,0.281924,0.585038,-0.069924,53,264,569,4880
1644156054.522742,-0.009949,0.010315,-0.992126,0.342992,0.462901,-0.130992,41,271,571,4880
1644156054.571118,-0.010803,0.00885,-0.99292,0.205588,0.340763,0.006412,51,264,571,4848
1644156054.619509,-0.009583,0.008118,-0.993164,0.251389,0.386565,-0.008855,58,274,569,4880
1644156054.667892,-0.011475,0.009155,-0.992981,0.08345,0.493435,-0.024122,49,275,577,4848
1644156054.716241,-0.014954,0.010437,-0.991882,0.236122,0.279695,-0.14626,49,268,572,4880
1644156054.764712,-0.007202,0.008606,-0.993896,0.068183,0.523969,-0.207328,59,277,565,4880
1644156054.813112,-0.016663,0.006897,-0.993591,0.159786,0.462901,-0.069924,45,282,563,4880
1644156054.861486,-0.011963,0.010071,-0.991394,0.220855,0.478168,-0.14626,45,275,579,4880
1644156054.909842,-0.011658,0.008362,-0.994568,0.236122,0.508702,-0.024122,41,271,571,4896
1644156054.958278,-0.011963,0.01001,-0.990234,0.175053,0.310229,-0.069924,53,274,573,4880
1644156055.006632,-0.009949,0.008301,-0.993896,0.297191,0.600305,-0.039389,64,268,575,4880
1644156055.078376,-0.012573,0.010254,-0.992798,0.388794,0.401832,-0.008855,52,280,575,4928
1644156055.112343,-0.009338,0.009583,-0.993408,0.251389,0.371298,-0.085191,59,270,579,4848
1644156055.154887,-0.012085,0.008423,-0.993225,0.297191,0.340763,-0.405802,52,268,570,4928
1644156055.20049,-0.01239,0.009644,-0.990601,0.251389,0.371298,-0.008855,54,268,570,4896
1644156055.296902,-0.011597,0.006165,-0.992737,0.404061,0.386565,-0.069924,47,270,575,4848
1644156055.345413,-0.012573,0.010071,-0.992981,0.251389,0.447634,-0.176794,58,274,566,4880
1644156055.3937,-0.012085,0.011292,-0.992249,0.159786,0.539237,0.006412,53,269,576,4848
1644156055.442342,-0.009033,0.011353,-0.993652,0.251389,0.401832,-0.039389,52,270,570,4880
1644156055.490485,-0.012573,0.009033,-0.994019,0.220855,0.371298,-0.024122,48,274,564,4960
1644156055.538855,-0.013062,0.00946,-0.989197,0.236122,0.462901,-0.100458,57,280,570,4848
1644156055.587242,-0.012817,0.007751,-0.993286,0.266656,0.356031,-0.14626,55,271,580,4928
1644156055.635633,-0.012207,0.009094,-0.991455,0.342992,0.340763,-0.100458,45,268,568,4896
1644156055.684022,-0.013306,0.010986,-0.991211,0.236122,0.523969,-0.100458,54,273,577,4896
1644156055.732422,-0.013306,0.007385,-0.992126,0.373527,0.371298,-0.024122,46,269,576,4880
1644156055.780795,-0.012024,0.007812,-0.993835,0.327725,0.432366,-0.130992,57,265,568,4880
1644156055.829211,-0.014282,0.009338,-0.990967,0.236122,0.432366,0.006412,55,269,569,4944
1644156055.877613,-0.01178,0.01123,-0.992126,0.175053,0.386565,-0.054656,55,271,564,4848
1644156055.925985,-0.011719,0.008606,-0.991882,0.236122,0.432366,-0.039389,58,271,576,4832
1644156055.974395,-0.01178,0.007385,-0.993408,0.159786,0.417099,-0.237863,60,276,576,4880
1644156056.022794,-0.00946,0.007568,-0.992676,0.373527,0.447634,-0.161527,52,263,584,4880
1644156056.092083,-0.011169,0.008179,-0.993103,0.052916,0.508702,-0.161527,52,277,568,4896
1644156056.120063,-0.010193,0.009094,-0.991943,0.312458,0.432366,-0.024122,52,268,565,4880
1644156056.1691,-0.012085,0.007446,-0.994751,0.312458,0.523969,-0.069924,62,279,573,4816
1644156056.219499,-0.011353,0.007507,-0.990601,0.419328,0.417099,-0.085191,46,274,564,4944
1644156056.264804,-0.010254,0.009766,-0.988708,0.373527,0.417099,-0.085191,53,283,564,4880
1644156056.361445,-0.009399,0.007935,-0.99115,0.190321,0.310229,-0.024122,43,279,573,4896
1644156056.409816,-0.012695,0.008118,-0.991028,0.220855,0.401832,0.052214,57,277,568,4848
1644156056.458215,-0.012634,0.010925,-0.993225,0.175053,0.356031,-0.237863,55,279,566,4880
1644156056.506587,-0.010803,0.010315,-0.992065,0.297191,0.432366,-0.115725,49,265,558,4880
1644156056.55503,-0.009094,0.006287,-0.991699,0.266656,0.462901,-0.161527,46,262,573,4848
1644156056.603372,-0.010376,0.007935,-0.992371,0.190321,0.356031,-0.130992,54,275,558,4896
1644156056.651762,-0.009399,0.008728,-0.992493,0.220855,0.447634,-0.069924,49,270,575,4880
1644156056.700144,-0.013306,0.009827,-0.991638,0.175053,0.447634,-0.069924,52,277,565,4928
1644156056.74852,-0.010681,0.01123,-0.991455,0.342992,0.371298,-0.085191,47,263,579,4816
1644156056.796906,-0.011047,0.008118,-0.991455,0.159786,0.493435,-0.222595,49,285,570,4880
1644156056.845372,-0.014709,0.009888,-0.993164,0.281924,0.401832,-0.130992,49,277,572,4880
1644156056.893757,-0.009399,0.006287,-0.993042,0.342992,0.386565,-0.25313,51,266,566,4880
1644156056.942255,-0.011292,0.007263,-0.99231,0.159786,0.279695,0.082748,42,263,579,4880
1644156056.990529,-0.010864,0.00531,-0.993225,0.281924,0.294962,-0.14626,55,281,569,4880
1644156057.038901,-0.012451,0.008606,-0.995178,0.266656,0.432366,-0.039389,46,281,566,4880
1644156057.088027,-0.015381,0.010681,-0.994202,0.205588,0.417099,0.006412,54,273,575,4960
1644156057.135641,-0.01239,0.011292,-0.993713,0.159786,0.447634,-0.085191,57,275,575,4880
1644156057.184018,-0.013123,0.010437,-0.991211,0.159786,0.432366,-0.192061,48,276,573,4944
1644156057.232425,-0.013733,0.008972,-0.990234,0.327725,0.508702,0.052214,45,275,570,4896
1644156057.281129,-0.012512,0.009277,-0.992981,0.373527,0.310229,-0.024122,46,269,564,4896
1644156057.331262,-0.014526,0.009033,-0.992371,0.388794,0.554504,-0.115725,51,283,571,4928
1644156057.38184,-0.010681,0.006653,-0.990234,0.388794,0.478168,-0.222595,57,273,575,4848
1644156057.474336,-0.011169,0.008606,-0.994629,0.388794,0.447634,-0.130992,53,262,573,4880
1644156057.522743,-0.014648,0.008423,-0.992188,0.266656,0.356031,-0.25313,54,277,579,4784
1644156057.571112,-0.011475,0.009094,-0.990784,0.190321,0.401832,-0.283664,52,265,575,4832
1644156057.619498,-0.009338,0.008301,-0.989441,0.281924,0.569771,-0.14626,59,273,572,4848
1644156057.667877,-0.011475,0.00824,-0.989746,0.327725,0.340763,-0.100458,51,279,573,4896
1644156057.716272,-0.013428,0.007568,-0.990845,0.281924,0.356031,-0.054656,51,276,571,4928
1644156057.764683,-0.013184,0.007812,-0.993896,0.205588,0.478168,-0.14626,49,265,570,4848
1644156057.813067,-0.009827,0.010925,-0.994019,0.281924,0.432366,-0.176794,53,269,559,4896
1644156057.86148,-0.012695,0.009827,-0.993652,0.022382,0.508702,-0.192061,57,263,570,4960
1644156057.909877,-0.010681,0.011169,-0.993164,0.205588,0.432366,-0.130992,42,270,572,4896
1644156057.958272,-0.010437,0.00885,-0.988464,0.297191,0.386565,-0.008855,53,279,578,4896
1644156058.006662,-0.010315,0.007874,-0.991943,0.312458,0.340763,-0.024122,47,273,577,4896
1644156058.0654,-0.012939,0.008423,-0.992798,0.312458,0.493435,-0.14626,57,275,579,4944
1644156058.103438,-0.012695,0.007874,-0.99115,0.297191,0.356031,-0.222595,48,276,573,4944
1644156058.151761,-0.012268,0.007385,-0.992493,0.404061,0.417099,-0.039389,42,280,568,4848
1644156058.200152,-0.009766,0.008911,-0.990906,0.175053,0.371298,-0.069924,42,273,572,4928
1644156058.248535,-0.010864,0.011475,-0.989197,0.312458,0.386565,-0.069924,53,276,571,4880
1644156058.296896,-0.009888,0.007263,-0.992737,0.190321,0.462901,-0.024122,40,260,558,4816
1644156058.34564,-0.010559,0.007385,-0.992371,0.220855,0.401832,-0.115725,49,265,579,4880
1644156058.394006,-0.013794,0.012878,-0.990906,0.175053,0.294962,-0.024122,43,276,571,4944
1644156058.443741,-0.012512,0.008484,-0.993042,0.190321,0.386565,-0.25313,49,263,575,4848
1644156058.495103,-0.012634,0.009033,-0.991699,0.220855,0.493435,-0.237863,58,264,580,4896
1644156058.539713,-0.010742,0.006897,-0.99353,0.068183,0.554504,-0.069924,47,275,570,4880
1644156058.635617,-0.011841,0.010132,-0.992859,0.297191,0.539237,-0.100458,48,281,566,4944
1644156058.684031,-0.012329,0.007568,-0.992126,0.388794,0.432366,-0.115725,59,273,577,4896
1644156058.732425,-0.012878,0.005859,-0.993469,0.251389,0.310229,-0.25313,43,276,578,4848
1644156058.780799,-0.012634,0.009216,-0.994141,0.220855,0.264427,-0.130992,49,275,570,4816
1644156058.829181,-0.013062,0.005981,-0.99231,0.266656,0.340763,0.113282,48,271,576,4848
1644156058.877615,-0.012573,0.00647,-0.992676,0.266656,0.417099,-0.069924,43,279,569,4880
1644156058.925993,-0.011353,0.008423,-0.992859,0.297191,0.371298,-0.14626,53,269,576,4880
1644156058.974409,-0.012024,0.01123,-0.993713,0.205588,0.523969,-0.100458,60,269,569,4896
1644156059.022794,-0.012268,0.009888,-0.992798,0.297191,0.569771,-0.283664,60,266,576,4896
1644156059.075058,-0.012207,0.009094,-0.992371,0.175053,0.462901,-0.222595,51,269,576,4848
1644156059.119533,-0.013489,0.009766,-0.992737,0.144519,0.493435,-0.115725,51,271,571,4944
1644156059.167906,-0.015564,0.009216,-0.992065,0.113985,0.371298,-0.192061,43,281,566,4848
1644156059.216276,-0.010193,0.008301,-0.99176,0.220855,0.356031,0.021679,54,277,570,4880
1644156059.264686,-0.012329,0.009399,-0.990051,0.404061,0.310229,-0.130992,42,277,572,4880
1644156059.313034,-0.012756,0.010132,-0.99292,0.266656,0.447634,-0.069924,43,274,564,4880
1644156059.361449,-0.011108,0.008362,-0.991943,0.327725,0.401832,-0.054656,52,275,570,4896
1644156059.409836,-0.011658,0.009521,-0.991272,0.236122,0.508702,-0.115725,55,279,583,4896
1644156059.458217,-0.013306,0.009094,-0.990173,0.175053,0.401832,-0.14626,48,266,576,4816
1644156059.506609,-0.013672,0.006104,-0.990845,0.236122,0.340763,-0.192061,49,275,568,4880
1644156059.55668,-0.010681,0.007935,-0.992126,0.35826,0.478168,-0.008855,48,266,571,4880
1644156059.606976,-0.011047,0.007202,-0.993652,0.342992,0.356031,-0.115725,41,271,576,4848
1644156059.652679,-0.012268,0.009705,-0.995117,0.205588,0.493435,-0.039389,49,273,563,4848
1644156059.748514,-0.01355,0.010132,-0.992615,0.144519,0.386565,-0.069924,48,274,573,4928
1644156059.796916,-0.014893,0.00824,-0.992065,0.037649,0.523969,-0.176794,53,264,562,4880
1644156059.845393,-0.013245,0.00885,-0.993225,0.159786,0.447634,-0.237863,47,282,572,4896
1644156059.893741,-0.008728,0.008728,-0.99408,0.251389,0.447634,-0.100458,51,266,569,4944
1644156059.942175,-0.010803,0.009155,-0.991455,0.205588,0.340763,-0.14626,51,283,573,4896
1644156059.990525,-0.012207,0.010498,-0.991028,0.175053,0.493435,-0.069924,49,273,568,4880
1644156060.038897,-0.010193,0.008423,-0.990601,0.251389,0.417099,-0.222595,49,280,570,4896
1644156060.094106,-0.009827,0.009094,-0.98999,0.434595,0.508702,-0.100458,52,270,575,4896
1644156060.135665,-0.010315,0.007996,-0.99176,0.175053,0.401832,-0.100458,45,273,570,4848
1644156060.184025,-0.010864,0.006165,-0.991333,0.251389,0.340763,-0.130992,52,265,575,4896
1644156060.232428,-0.010803,0.008423,-0.992554,0.404061,0.462901,-0.069924,52,273,589,4848
1644156060.280771,-0.010925,0.007019,-0.994019,0.236122,0.462901,-0.024122,48,271,573,4880
1644156060.329179,-0.012207,0.008728,-0.994507,0.281924,0.310229,-0.161527,49,277,570,4896
1644156060.377546,-0.011963,0.007874,-0.994019,0.236122,0.447634,-0.008855,52,273,579,4848
1644156060.425961,-0.010864,0.007446,-0.992065,0.266656,0.478168,-0.054656,48,274,569,4896
1644156060.474658,-0.015259,0.008057,-0.990845,0.251389,0.386565,-0.25313,46,264,578,4848
1644156060.523882,-0.011963,0.008545,-0.992493,0.312458,0.478168,-0.115725,42,275,572,4960
1644156060.574231,-0.009705,0.00769,-0.99292,0.312458,0.233893,-0.130992,51,276,571,4928
1644156060.619831,-0.011841,0.011536,-0.992493,0.175053,0.294962,-0.176794,51,269,580,4848
1644156060.716271,-0.009216,0.011841,-0.990295,0.35826,0.279695,-0.14626,41,279,573,4848
1644156060.764866,-0.014404,0.009033,-0.992615,0.175053,0.417099,-0.237863,52,270,565,4928
1644156060.81305,-0.012573,0.01239,-0.99115,0.113985,0.172824,-0.054656,54,270,570,4896
1644156060.861439,-0.011536,0.009521,-0.992676,0.190321,0.493435,-0.100458,53,269,580,4944
1644156060.909861,-0.011597,0.007141,-0.991211,0.327725,0.432366,-0.115725,51,269,578,4880
1644156060.958243,-0.010254,0.007446,-0.988342,0.312458,0.203359,-0.298931,46,257,571,4896
1644156061.006641,-0.012268,0.007507,-0.988892,0.35826,0.294962,-0.298931,46,279,566,4896
1644156061.06093,-0.01178,0.009399,-0.990662,0.327725,0.478168,-0.329466,49,275,572,4848
1644156061.103404,-0.013428,0.008728,-0.995361,0.297191,0.462901,-0.237863,45,275,577,4944
1644156061.151799,-0.013672,0.007263,-0.995239,0.236122,0.523969,-0.161527,46,266,571,4944
1644156061.200195,-0.012268,0.010559,-0.99231,0.220855,0.356031,-0.100458,40,270,568,4880
1644156061.24858,-0.01355,0.010254,-0.992188,0.190321,0.493435,-0.024122,53,281,564,4896
1644156061.296968,-0.012024,0.007751,-0.993286,0.266656,0.447634,-0.14626,46,276,571,4848
1644156061.345358,-0.012207,0.009521,-0.993652,0.220855,0.340763,-0.192061,54,275,577,4848
1644156061.393737,-0.012451,0.008301,-0.991089,0.266656,0.371298,-0.008855,55,276,566,4944
1644156061.442169,-0.010315,0.008545,-0.992798,0.35826,0.371298,-0.161527,46,271,571,4992
1644156061.490521,-0.013977,0.005859,-0.991516,0.144519,0.371298,-0.054656,49,263,565,4896
1644156061.538879,-0.012085,0.011414,-0.992737,0.297191,0.539237,-0.130992,49,265,579,4896
1644156061.58731,-0.010681,0.009216,-0.992554,0.281924,0.462901,-0.100458,45,275,572,4928
1644156061.63665,-0.010742,0.00769,-0.992493,0.266656,0.325496,-0.039389,55,266,571,4896
1644156061.686919,-0.010254,0.007568,-0.990906,0.251389,0.401832,-0.039389,45,277,584,4928
1644156061.73697,-0.009094,0.009277,-0.993103,0.113985,0.493435,-0.008855,47,277,577,4848
1644156061.782005,-0.012573,0.00708,-0.992981,0.312458,0.523969,0.021679,58,276,573,4848
1644156061.877621,-0.009888,0.010132,-0.993103,0.35826,0.340763,-0.100458,48,269,569,4880
1644156061.925982,-0.010071,0.010498,-0.991333,0.129252,0.432366,-0.130992,52,275,568,4928
1644156061.974395,-0.007385,0.012756,-0.991455,0.175053,0.401832,-0.069924,39,269,562,4896
1644156062.022773,-0.011841,0.008545,-0.993591,0.266656,0.386565,-0.161527,54,268,575,4880
1644156062.072299,-0.012268,0.009216,-0.991272,0.297191,0.539237,-0.024122,58,274,580,4832
1644156062.119514,-0.012573,0.007812,-0.991028,0.205588,0.585038,-0.069924,47,273,565,4848
1644156062.167891,-0.013306,0.008789,-0.99176,0.190321,0.432366,-0.176794,52,275,568,4928
1644156062.216293,-0.011902,0.011292,-0.992188,0.373527,0.401832,-0.14626,54,273,582,4816
1644156062.26478,-0.013611,0.010498,-0.991821,0.251389,0.417099,-0.25313,54,270,565,4848
1644156062.313084,-0.013306,0.007019,-0.992432,0.281924,0.340763,-0.024122,53,281,564,4928
1644156062.361437,-0.012207,0.008179,-0.991821,0.373527,0.569771,-0.008855,48,274,576,4848
1644156062.409832,-0.01062,0.011169,-0.992859,0.159786,0.539237,-0.314198,53,271,573,4928
1644156062.458209,-0.008972,0.00824,-0.993103,0.281924,0.447634,-0.130992,55,271,566,4896
1644156062.506566,-0.010742,0.009888,-0.994995,0.297191,0.493435,-0.039389,54,273,570,4944
1644156062.555035,-0.013672,0.01001,-0.990906,0.220855,0.417099,-0.130992,64,282,570,4880
1644156062.60338,-0.011841,0.010498,-0.992371,0.35826,0.386565,-0.25313,48,281,571,4880
1644156062.651763,-0.013245,0.011719,-0.990662,0.297191,0.294962,-0.115725,52,265,565,4880
1644156062.700169,-0.012634,0.00885,-0.994568,0.327725,0.523969,-0.085191,53,279,564,4928
1644156062.749555,-0.011719,0.010376,-0.993469,0.495664,0.478168,-0.161527,47,277,570,4896
1644156062.800213,-0.011719,0.009766,-0.992676,0.281924,0.493435,-0.085191,47,265,577,4896
1644156062.845702,-0.011169,0.00769,-0.992676,0.281924,0.447634,-0.024122,54,273,565,4928
1644156062.94238,-0.012573,0.008545,-0.992004,0.159786,0.417099,-0.100458,49,265,570,4896
1644156062.990514,-0.013672,0.009766,-0.992798,0.205588,0.386565,0.052214,54,275,572,4928
1644156063.038899,-0.012756,0.010071,-0.993408,0.175053,0.493435,-0.222595,54,275,570,4928
1644156063.087377,-0.013245,0.008362,-0.99231,0.205588,0.478168,-0.024122,48,266,576,4832
1644156063.135645,-0.007935,0.01001,-0.992737,0.205588,0.356031,-0.115725,64,270,575,4896
1644156063.184048,-0.015259,0.007996,-0.991333,0.388794,0.462901,-0.085191,47,277,568,4848
1644156063.232435,-0.011292,0.009644,-0.995605,0.175053,0.539237,-0.054656,47,268,572,4848
1644156063.280776,-0.011353,0.007446,-0.991516,0.281924,0.310229,-0.176794,46,279,573,4880
1644156063.329193,-0.014221,0.007446,-0.99231,0.281924,0.386565,-0.039389,54,270,575,4960
1644156063.377584,-0.009949,0.00769,-0.995728,0.052916,0.417099,-0.024122,47,273,565,4848
1644156063.425956,-0.012573,0.01123,-0.99231,0.373527,0.401832,-0.039389,39,271,569,4880
1644156063.474357,-0.008728,0.009338,-0.990356,0.129252,0.462901,-0.008855,51,266,566,4848
1644156063.52363,-0.01123,0.008057,-0.99231,0.144519,0.386565,-0.207328,43,269,569,4880
1644156063.573887,-0.010803,0.009399,-0.99115,0.175053,0.508702,-0.207328,49,275,561,4880
1644156063.624226,-0.010254,0.01123,-0.99469,0.159786,0.432366,-0.192061,48,274,566,4896
1644156063.7163,-0.009827,0.011902,-0.995728,0.236122,0.432366,0.082748,48,271,571,4848
1644156063.76488,-0.009705,0.009216,-0.991699,0.129252,0.356031,-0.054656,51,274,569,4896
1644156063.813083,-0.011047,0.006287,-0.994446,0.373527,0.356031,-0.130992,53,279,566,4896
1644156063.861483,-0.008301,0.009827,-0.992432,0.190321,0.447634,-0.085191,48,274,573,4896
1644156063.909845,-0.012085,0.007385,-0.992981,0.297191,0.462901,-0.054656,61,265,582,4896
1644156063.958241,-0.014587,0.009094,-0.991821,0.236122,0.340763,-0.039389,46,271,566,4832
1644156064.006625,-0.011719,0.007812,-0.990234,0.327725,0.432366,-0.054656,55,276,573,4880
1644156064.065845,-0.010925,0.008057,-0.991638,0.449863,0.478168,0.067481,60,266,578,4880
1644156064.103407,-0.012573,0.009949,-0.991943,0.129252,0.432366,0.021679,52,268,582,4928
1644156064.151746,-0.009277,0.009949,-0.992615,0.236122,0.310229,-0.085191,45,277,570,4880
1644156064.200162,-0.013733,0.006409,-0.993774,0.266656,0.417099,0.021679,57,273,575,4896
1644156064.248521,-0.013184,0.008179,-0.99231,0.404061,0.508702,-0.115725,49,285,577,4880
1644156064.296913,-0.009399,0.011719,-0.994751,0.281924,0.447634,-0.161527,48,276,566,4944
1644156064.345321,-0.009338,0.010376,-0.995178,0.495664,0.401832,-0.024122,49,263,572,4944
1644156064.393704,-0.01178,0.008728,-0.993652,0.297191,0.493435,-0.222595,57,263,575,4928
1644156064.442086,-0.014343,0.009888,-0.991638,0.388794,0.523969,-0.222595,36,279,585,4960
1644156064.490487,-0.013977,0.005798,-0.992981,0.35826,0.417099,-0.161527,49,277,568,4848
1644156064.538855,-0.011475,0.01062,-0.991211,0.236122,0.417099,-0.161527,46,279,564,4880
1644156064.587247,-0.013428,0.009277,-0.993164,0.327725,0.554504,-0.192061,48,274,573,4960
1644156064.635934,-0.015564,0.009155,-0.993835,0.449863,0.447634,-0.130992,62,266,573,4816
1644156064.685484,-0.014343,0.007751,-0.992432,0.113985,0.539237,-0.207328,47,275,565,4832
1644156064.735795,-0.012207,0.008667,-0.993286,0.251389,0.462901,-0.054656,47,270,570,4880
1644156064.781267,-0.011658,0.007935,-0.993469,0.205588,0.417099,-0.130992,54,263,568,4896
1644156064.877585,-0.010925,0.006592,-0.991699,0.327725,0.340763,-0.237863,52,277,577,4896
1644156064.925983,-0.010437,0.007263,-0.990173,0.190321,0.24916,0.052214,49,273,577,4880
1644156064.974388,-0.01123,0.008789,-0.991943,0.35826,0.508702,-0.054656,54,270,568,4848
1644156065.022783,-0.011597,0.008423,-0.991943,0.404061,0.462901,-0.130992,59,270,575,4880
1644156065.071783,-0.011963,0.008484,-0.991943,0.159786,0.24916,-0.069924,47,270,577,4944
1644156065.119552,-0.012085,0.007751,-0.994385,0.205588,0.432366,-0.100458,58,274,585,4896
1644156065.167902,-0.011963,0.009949,-0.991699,0.404061,0.539237,-0.14626,53,269,573,4880
1644156065.21628,-0.010986,0.010925,-0.991882,0.266656,0.478168,-0.130992,45,273,572,4896
1644156065.264676,-0.012695,0.008423,-0.992981,0.129252,0.493435,-0.130992,54,280,563,4816
1644156065.313053,-0.014221,0.009949,-0.991333,0.251389,0.432366,0.082748,47,268,572,4928
1644156065.361447,-0.01355,0.006653,-0.993896,0.312458,0.493435,-0.039389,52,275,579,4848
1644156065.409831,-0.012573,0.012695,-0.993774,0.373527,0.401832,-0.268397,54,265,572,4880
1644156065.458212,-0.012878,0.009033,-0.992493,0.205588,0.523969,-0.054656,49,277,572,4848
1644156065.507111,-0.013489,0.005859,-0.991882,0.373527,0.386565,0.052214,49,273,570,4880
1644156065.555112,-0.014465,0.009277,-0.991516,0.327725,0.356031,-0.069924,43,276,578,4880
1644156065.603401,-0.012329,0.004272,-0.990723,0.190321,0.508702,0.098015,53,269,573,4896
1644156065.651764,-0.011475,0.007385,-0.99231,0.205588,0.478168,-0.069924,43,266,583,4944
1644156065.70015,-0.012329,0.007446,-0.991577,0.297191,0.340763,-0.192061,43,279,569,4880
1644156065.748513,-0.011414,0.010498,-0.989441,0.281924,0.417099,-0.069924,46,283,569,4848
1644156065.797166,-0.012085,0.010864,-0.99231,0.190321,0.340763,-0.085191,34,274,569,4880
1644156065.848228,-0.01178,0.007507,-0.996521,0.266656,0.554504,-0.054656,52,270,582,4880
1644156065.899272,-0.013123,0.009705,-0.992249,0.297191,0.340763,-0.14626,52,273,570,4848
1644156065.990516,-0.011414,0.013062,-0.991821,0.327725,0.401832,-0.14626,49,282,565,4880
1644156066.038904,-0.009521,0.009521,-0.992981,0.068183,0.523969,0.052214,55,274,569,4848
1644156066.089333,-0.012756,0.005615,-0.992493,0.220855,0.554504,-0.100458,55,269,576,4848
1644156066.135658,-0.012573,0.007446,-0.993835,0.159786,0.401832,-0.115725,47,275,570,4896
1644156066.184039,-0.010803,0.009766,-0.993896,0.404061,0.554504,-0.161527,61,273,568,4896
1644156066.232436,-0.010132,0.010742,-0.990295,0.205588,0.340763,-0.237863,43,279,576,4880
1644156066.280802,-0.01001,0.007324,-0.992981,0.510931,0.386565,0.021679,39,274,564,4880
1644156066.329191,-0.012451,0.007812,-0.993774,0.327725,0.539237,-0.039389,57,268,568,4960
1644156066.377563,-0.011475,0.008789,-0.992798,0.236122,0.386565,-0.115725,41,279,578,4848
1644156066.425959,-0.011719,0.00769,-0.992493,0.236122,0.569771,-0.161527,58,266,578,4880
1644156066.474334,-0.012329,0.008179,-0.99115,0.113985,0.325496,-0.054656,43,266,571,4896
1644156066.522767,-0.013611,0.009705,-0.993652,0.098718,0.478168,-0.039389,58,269,566,4880
1644156066.571101,-0.011536,0.009094,-0.990112,0.190321,0.310229,-0.25313,51,269,573,4880
1644156066.619526,-0.015198,0.007202,-0.991943,0.327725,0.462901,-0.161527,41,274,566,4928
1644156066.667911,-0.013062,0.010559,-0.995667,0.08345,0.462901,-0.207328,52,273,577,4816
1644156066.716302,-0.013306,0.010559,-0.992188,0.281924,0.508702,-0.039389,53,276,585,4896
1644156066.764677,-0.009949,0.008545,-0.992554,0.220855,0.371298,-0.039389,45,270,572,4880
1644156066.813071,-0.014038,0.006592,-0.991577,0.327725,0.447634,-0.329466,43,266,573,4960
1644156066.861476,-0.008606,0.011719,-0.991638,0.266656,0.432366,-0.115725,43,274,569,4816
1644156066.910342,-0.011597,0.008728,-0.992737,0.236122,0.432366,-0.130992,53,266,571,4928
1644156066.960872,-0.011963,0.010376,-0.991882,0.190321,0.310229,-0.069924,55,271,569,4880
1644156067.011496,-0.011536,0.008301,-0.992859,0.327725,0.432366,-0.085191,53,271,576,4880
1644156067.103411,-0.01355,0.009766,-0.991577,0.297191,0.356031,-0.039389,48,274,578,4928
1644156067.151808,-0.010498,0.008911,-0.991577,0.220855,0.417099,-0.207328,54,265,570,4944
1644156067.200199,-0.009277,0.009399,-0.991699,0.297191,0.569771,-0.008855,47,273,565,4880
1644156067.248554,-0.011108,0.00946,-0.993164,0.312458,0.478168,-0.115725,51,274,578,4832
1644156067.296946,-0.007751,0.008179,-0.990845,0.220855,0.401832,-0.024122,41,276,578,4896
1644156067.345342,-0.011658,0.008545,-0.99176,0.251389,0.310229,-0.161527,49,263,572,4896
