epoch,acc_x,acc_y,acc_z,rot_x,rot_y,rot_z,mag_x,mag_y,mag_z,temp
1644163799.996959,-0.013306,0.00885,-0.992859,0.373527,0.417099,-0.207328,51,283,576,5552
1644163800.066302,-0.010681,0.00769,-0.990784,0.098718,0.462901,-0.25313,47,275,579,5552
1644163800.096792,-0.011963,0.007141,-0.994202,0.236122,0.417099,-0.130992,57,268,586,5552
1644163800.14672,-0.013062,0.009888,-0.992371,0.312458,0.508702,-0.115725,52,275,584,5584
1644163800.195402,-0.010742,0.010681,-0.990356,0.190321,0.539237,-0.024122,59,275,579,5584
1644163800.28721,-0.009033,0.009705,-0.992493,0.220855,0.386565,-0.344733,54,273,570,5600
1644163800.335577,-0.012268,0.008484,-0.992859,0.113985,0.356031,-0.069924,59,273,586,5632
1644163800.384022,-0.009521,0.011108,-0.993225,0.327725,0.462901,-0.069924,43,271,573,5536
1644163800.432401,-0.010986,0.009338,-0.991638,0.342992,0.508702,-0.008855,48,271,573,5648
1644163800.480772,-0.011963,0.007935,-0.990356,0.297191,0.462901,-0.039389,58,266,578,5648
1644163800.529162,-0.010681,0.010315,-0.989136,0.297191,0.478168,-0.14626,60,276,576,5600
1644163800.577553,-0.010132,0.008362,-0.99292,0.327725,0.264427,-0.054656,48,269,573,5552
1644163800.625945,-0.00885,0.009033,-0.99054,0.251389,0.401832,-0.14626,49,275,586,5600
1644163800.674335,-0.008545,0.009399,-0.990417,0.190321,0.356031,-0.176794,53,276,583,5552
1644163800.72272,-0.007874,0.01178,-0.991455,0.068183,0.417099,-0.192061,54,275,572,5584
1644163800.771124,-0.007141,0.009033,-0.98877,0.144519,0.401832,0.113282,51,271,576,5584
1644163800.819506,-0.010315,0.010315,-0.990906,0.129252,0.356031,0.036947,55,281,571,5648
1644163800.867946,-0.009521,0.006775,-0.992676,0.190321,0.447634,-0.25313,43,276,578,5632
1644163800.916336,-0.010803,0.010132,-0.991882,0.266656,0.523969,-0.130992,57,282,579,5600
1644163800.964723,-0.008057,0.011169,-0.989685,0.373527,0.356031,-0.069924,58,276,576,5584
1644163801.013134,-0.009583,0.008972,-0.993591,0.144519,0.432366,0.052214,45,265,575,5536
1644163801.081843,-0.011719,0.008423,-0.99115,0.281924,0.371298,-0.085191,60,266,578,5600
1644163801.11022,-0.009277,0.012085,-0.989746,0.312458,0.417099,-0.024122,48,274,573,5632
1644163801.161047,-0.010986,0.012024,-0.989319,0.251389,0.356031,-0.130992,45,265,577,5552
1644163801.209786,-0.010803,0.01001,-0.992004,0.35826,0.386565,-0.161527,59,270,572,5584
1644163801.260128,-0.011414,0.011475,-0.99115,0.434595,0.447634,-0.115725,58,269,569,5648
1644163801.351788,-0.008179,0.009399,-0.993713,0.342992,0.356031,-0.085191,48,281,571,5536
1644163801.400171,-0.011414,0.006897,-0.992981,0.129252,0.447634,-0.024122,55,274,571,5584
1644163801.448575,-0.009949,0.009277,-0.990601,0.327725,0.462901,-0.192061,43,269,562,5584
1644163801.496969,-0.010803,0.00708,-0.992126,0.190321,0.356031,-0.054656,47,270,579,5600
1644163801.545363,-0.012329,0.010132,-0.992004,0.327725,0.554504,-0.085191,57,277,577,5536
1644163801.593755,-0.010559,0.010071,-0.991638,0.251389,0.493435,-0.054656,57,268,556,5584
1644163801.642177,-0.011047,0.009705,-0.992126,0.159786,0.417099,-0.130992,46,269,576,5648
1644163801.690531,-0.008972,0.008545,-0.990723,0.220855,0.539237,-0.161527,53,274,587,5600
1644163801.73889,-0.009216,0.008972,-0.992676,0.251389,0.340763,0.006412,46,281,571,5584
1644163801.787301,-0.011658,0.009399,-0.993347,0.266656,0.447634,-0.054656,43,274,562,5552
1644163801.835684,-0.011108,0.009155,-0.991699,0.098718,0.447634,-0.085191,42,275,589,5584
1644163801.884151,-0.007874,0.009399,-0.991638,0.205588,0.508702,-0.14626,47,277,568,5536
1644163801.93254,-0.011658,0.010681,-0.993713,0.159786,0.386565,-0.085191,47,275,575,5600
1644163801.980893,-0.009644,0.009521,-0.992188,0.159786,0.371298,-0.054656,53,283,580,5664
1644163802.029305,-0.011108,0.012024,-0.988037,0.205588,0.539237,-0.039389,58,271,571,5600
1644163802.081181,-0.007935,0.008423,-0.993225,0.327725,0.325496,0.113282,49,275,584,5600
1644163802.126085,-0.011841,0.010742,-0.995728,0.175053,0.340763,-0.100458,53,279,585,5552
1644163802.174531,-0.011292,0.009155,-0.992737,0.327725,0.356031,-0.069924,52,273,577,5584
1644163802.222888,-0.010498,0.005127,-0.992249,0.175053,0.24916,0.006412,51,271,578,5552
1644163802.27302,-0.009827,0.008362,-0.99176,0.098718,0.340763,-0.024122,49,270,572,5584
1644163802.323374,-0.011353,0.008606,-0.991638,0.190321,0.401832,-0.069924,51,276,566,5600
1644163802.373535,-0.010803,0.00885,-0.993713,0.251389,0.386565,-0.069924,52,263,586,5584
1644163802.417709,-0.010498,0.00946,-0.993164,0.205588,0.432366,-0.115725,53,274,573,5600
1644163802.51321,-0.010315,0.008179,-0.990051,0.342992,0.325496,-0.100458,45,285,570,5584
1644163802.561589,-0.008423,0.007202,-0.992004,0.236122,0.585038,-0.130992,47,287,570,5536
1644163802.609983,-0.010803,0.009338,-0.99176,0.236122,0.386565,-0.115725,42,273,570,5536
1644163802.658371,-0.009399,0.008545,-0.991272,0.434595,0.386565,-0.085191,53,279,571,5648
1644163802.706747,-0.01062,0.010193,-0.990784,0.312458,0.310229,-0.161527,54,273,577,5584
1644163802.755183,-0.009399,0.008423,-0.992859,0.281924,0.478168,-0.024122,48,281,578,5536
1644163802.803555,-0.008118,0.007629,-0.991821,0.113985,0.478168,-0.115725,46,276,573,5584
1644163802.851942,-0.012573,0.008606,-0.989014,0.312458,0.554504,-0.085191,48,271,569,5648
1644163802.900327,-0.009155,0.009827,-0.99408,0.236122,0.340763,-0.008855,51,274,571,5600
1644163802.94872,-0.010742,0.008972,-0.992126,0.251389,0.508702,-0.039389,49,285,577,5552
1644163802.997092,-0.01239,0.006775,-0.990845,0.236122,0.371298,-0.130992,47,275,575,5600
1644163803.053451,-0.009338,0.007507,-0.992737,0.236122,0.493435,0.143817,48,274,573,5584
1644163803.093837,-0.010376,0.00647,-0.994019,0.052916,0.417099,-0.100458,48,276,573,5648
1644163803.142247,-0.011475,0.007812,-0.989685,0.236122,0.325496,-0.069924,46,276,566,5552
1644163803.1906,-0.013916,0.008362,-0.990845,0.113985,0.294962,-0.115725,54,280,579,5584
1644163803.23899,-0.012207,0.009705,-0.992615,0.281924,0.432366,-0.207328,58,274,571,5552
1644163803.287407,-0.012573,0.009827,-0.992859,0.052916,0.539237,-0.130992,51,269,569,5552
1644163803.336125,-0.011719,0.011047,-0.989746,0.388794,0.493435,-0.069924,53,271,583,5584
1644163803.385015,-0.010559,0.009521,-0.991699,0.404061,0.462901,-0.024122,48,266,578,5600
1644163803.435405,-0.010864,0.00946,-0.993896,0.205588,0.462901,-0.039389,48,276,576,5536
1644163803.485533,-0.010132,0.011169,-0.99115,0.35826,0.325496,-0.069924,49,275,577,5648
1644163803.530571,-0.012573,0.010925,-0.993408,0.281924,0.432366,-0.054656,58,266,580,5536
1644163803.626122,-0.00946,0.01001,-0.990295,0.113985,0.462901,-0.054656,47,265,575,5600
1644163803.674537,-0.011963,0.00708,-0.991821,0.220855,0.340763,-0.008855,53,279,573,5536
1644163803.722926,-0.012329,0.008911,-0.992615,0.129252,0.478168,-0.085191,48,281,571,5552
1644163803.771301,-0.00946,0.008423,-0.990051,0.281924,0.417099,-0.069924,49,277,565,5584
1644163803.819732,-0.011047,0.008301,-0.992737,0.297191,0.356031,-0.054656,53,269,557,5600
1644163803.868131,-0.011108,0.010376,-0.991699,0.251389,0.401832,-0.14626,53,269,564,5584
1644163803.916516,-0.010742,0.007935,-0.99292,0.190321,0.523969,-0.069924,55,269,576,5600
1644163803.964895,-0.009399,0.007263,-0.989136,0.327725,0.386565,0.052214,55,274,576,5600
1644163804.013295,-0.009155,0.008972,-0.989868,0.297191,0.554504,-0.085191,49,273,575,5488
1644163804.077276,-0.008118,0.008972,-0.99115,0.175053,0.203359,-0.115725,46,264,576,5536
1644163804.110068,-0.01239,0.008789,-0.990601,0.327725,0.523969,-0.069924,54,277,575,5520
1644163804.158652,-0.011475,0.009521,-0.992065,0.205588,0.340763,0.113282,48,276,576,5584
1644163804.206821,-0.010803,0.00946,-0.991638,0.251389,0.478168,-0.314198,46,274,573,5584
1644163804.255552,-0.012146,0.008972,-0.990356,0.297191,0.585038,-0.192061,53,276,573,5584
1644163804.304662,-0.011169,0.007629,-0.993042,0.08345,0.462901,-0.161527,45,273,577,5600
1644163804.355131,-0.012085,0.011169,-0.99115,0.342992,0.447634,-0.039389,52,280,575,5600
1644163804.405389,-0.013916,0.007751,-0.993774,0.297191,0.478168,-0.085191,54,270,577,5584
1644163804.497209,-0.011047,0.01001,-0.993042,0.159786,0.462901,-0.024122,51,271,573,5584
1644163804.545543,-0.010132,0.011108,-0.991333,0.312458,0.264427,-0.069924,49,275,575,5584
1644163804.593941,-0.010376,0.008301,-0.992859,0.266656,0.432366,0.036947,46,276,578,5584
1644163804.64239,-0.012207,0.008789,-0.991638,0.175053,0.462901,0.021679,51,283,566,5584
1644163804.690715,-0.011658,0.008179,-0.993896,0.312458,0.432366,-0.130992,58,281,573,5584
1644163804.739117,-0.012634,0.01001,-0.993042,0.175053,0.462901,-0.100458,53,279,571,5584
1644163804.787482,-0.012817,0.007751,-0.990051,0.220855,0.401832,-0.069924,43,276,578,5648
1644163804.835933,-0.008484,0.008728,-0.991028,0.205588,0.371298,-0.130992,57,275,572,5584
1644163804.884316,-0.013306,0.010437,-0.990112,0.251389,0.401832,-0.14626,51,274,571,5584
1644163804.932727,-0.01062,0.009888,-0.990601,0.312458,0.371298,-0.130992,51,276,571,5648
1644163804.981122,-0.01123,0.008423,-0.994812,0.236122,0.417099,-0.14626,45,277,572,5600
1644163805.029496,-0.011169,0.008606,-0.993469,0.251389,0.340763,-0.024122,57,285,570,5600
1644163805.081435,-0.011719,0.008911,-0.992126,0.281924,0.462901,-0.115725,52,273,575,5584
1644163805.126235,-0.009644,0.008545,-0.99231,0.281924,0.417099,0.143817,54,280,572,5584
1644163805.174639,-0.010437,0.006775,-0.991455,0.266656,0.478168,-0.176794,59,273,577,5584
1644163805.222999,-0.010986,0.009033,-0.994324,0.220855,0.310229,-0.130992,49,275,589,5648
1644163805.271409,-0.010437,0.009583,-0.993469,0.281924,0.310229,0.021679,47,270,570,5632
1644163805.319797,-0.011658,0.009399,-0.991272,0.175053,0.523969,0.098015,47,268,570,5584
1644163805.368207,-0.013062,0.006836,-0.991455,0.266656,0.462901,-0.14626,47,268,577,5552
1644163805.41849,-0.010498,0.009216,-0.99353,0.633069,0.554504,-0.054656,57,265,589,5600
1644163805.468326,-0.010742,0.009521,-0.992615,0.175053,0.447634,-0.039389,54,270,575,5536
1644163805.519545,-0.011353,0.010193,-0.992615,0.297191,0.325496,0.036947,55,266,578,5648
1644163805.610122,-0.009888,0.007874,-0.992493,0.129252,0.462901,-0.329466,48,274,571,5536
1644163805.658519,-0.011963,0.010315,-0.992371,0.175053,0.447634,-0.039389,60,271,569,5648
1644163805.706898,-0.009949,0.008667,-0.990662,0.159786,0.493435,-0.237863,43,281,573,5584
1644163805.755433,-0.011414,0.009033,-0.993347,0.236122,0.493435,-0.039389,60,269,571,5536
1644163805.803712,-0.013672,0.00946,-0.992859,0.098718,0.523969,-0.039389,52,273,565,5584
1644163805.852185,-0.013245,0.008789,-0.993103,0.342992,0.447634,-0.222595,61,270,570,5584
1644163805.900503,-0.011353,0.010315,-0.992981,0.144519,0.432366,0.052214,52,263,575,5520
1644163805.948928,-0.013672,0.008362,-0.991089,0.373527,0.24916,0.021679,49,273,577,5584
1644163805.997288,-0.009094,0.007568,-0.993469,0.266656,0.432366,0.021679,51,274,576,5584
1644163806.053868,-0.012085,0.00769,-0.993347,0.327725,0.356031,-0.14626,48,281,576,5584
1644163806.094056,-0.010498,0.011841,-0.994446,0.190321,0.356031,-0.039389,49,277,579,5536
1644163806.142448,-0.011536,0.009644,-0.99176,0.327725,0.478168,-0.176794,47,277,582,5584
1644163806.190816,-0.011963,0.00946,-0.992798,0.220855,0.310229,-0.039389,47,282,568,5584
1644163806.239217,-0.011719,0.01001,-0.992249,0.266656,0.371298,0.006412,49,268,577,5584
1644163806.28761,-0.009827,0.007874,-0.993896,0.159786,0.356031,-0.069924,55,286,569,5552
1644163806.335977,-0.010132,0.006775,-0.991882,0.342992,0.294962,0.021679,54,268,577,5536
1644163806.384393,-0.010742,0.007812,-0.990417,0.480397,0.539237,-0.176794,58,279,578,5536
1644163806.432796,-0.009155,0.008667,-0.990417,0.159786,0.523969,-0.100458,57,268,582,5600
1644163806.481158,-0.011108,0.009399,-0.991455,0.175053,0.417099,-0.115725,51,264,587,5536
1644163806.529681,-0.008728,0.010132,-0.992371,0.373527,0.417099,-0.176794,47,255,575,5600
1644163806.579801,-0.009338,0.010681,-0.990173,0.266656,0.585038,0.021679,52,275,577,5600
1644163806.630111,-0.009094,0.007629,-0.992859,0.205588,0.371298,0.006412,52,275,572,5648
1644163806.675247,-0.010132,0.010071,-0.990662,0.220855,0.554504,-0.207328,57,273,577,5648
1644163806.771518,-0.010803,0.01123,-0.994324,0.175053,0.462901,-0.130992,57,273,577,5552
1644163806.819912,-0.006958,0.01178,-0.990723,0.129252,0.371298,-0.100458,59,270,582,5584
1644163806.868326,-0.010864,0.010132,-0.994263,0.220855,0.447634,-0.054656,52,275,579,5584
1644163806.916683,-0.00708,0.008789,-0.991821,0.342992,0.310229,-0.069924,53,269,571,5648
1644163806.965165,-0.01062,0.008545,-0.991638,0.175053,0.386565,-0.054656,52,277,570,5536
1644163807.013483,-0.01001,0.010803,-0.991638,0.251389,0.310229,0.006412,49,277,584,5632
1644163807.063362,-0.007874,0.007385,-0.991577,0.266656,0.356031,-0.100458,53,264,583,5536
1644163807.110245,-0.009888,0.008911,-0.992126,0.266656,0.340763,-0.054656,48,276,578,5552
1644163807.158635,-0.00769,0.008911,-0.991089,0.220855,0.523969,-0.130992,49,285,565,5600
1644163807.207029,-0.010315,0.008118,-0.993164,0.098718,0.325496,-0.024122,47,277,577,5536
1644163807.255399,-0.006592,0.010437,-0.995178,0.404061,0.371298,-0.130992,51,269,571,5600
1644163807.303817,-0.009888,0.00824,-0.991333,0.236122,0.508702,-0.085191,55,274,573,5584
1644163807.352261,-0.011597,0.009155,-0.990112,0.312458,0.447634,0.021679,43,276,571,5584
1644163807.400583,-0.011414,0.007874,-0.993591,0.251389,0.371298,-0.008855,54,273,584,5600
1644163807.44897,-0.00946,0.007446,-0.99231,0.220855,0.356031,-0.192061,49,280,570,5552
1644163807.497374,-0.011719,0.011658,-0.989746,0.236122,0.24916,-0.283664,61,280,579,5552
1644163807.545752,-0.009399,0.01001,-0.991455,0.236122,0.417099,-0.024122,52,282,572,5600
1644163807.594136,-0.011597,0.008057,-0.995239,0.251389,0.447634,-0.176794,59,263,572,5536
1644163807.642681,-0.007996,0.009216,-0.99176,0.236122,0.493435,-0.130992,45,273,579,5552
1644163807.69209,-0.006042,0.009888,-0.991211,0.175053,0.386565,-0.100458,46,276,564,5584
1644163807.742414,-0.011719,0.009766,-0.991821,0.175053,0.539237,-0.115725,51,279,569,5584
1644163807.792709,-0.011658,0.009644,-0.99408,0.404061,0.447634,-0.039389,54,268,575,5584
1644163807.884868,-0.010315,0.011353,-0.990479,0.205588,0.462901,-0.085191,53,262,576,5584
1644163807.932938,-0.010864,0.012146,-0.991516,0.312458,0.417099,-0.115725,51,266,571,5584
1644163807.981299,-0.010376,0.009094,-0.994385,0.129252,0.417099,-0.085191,46,269,569,5600
1644163808.029693,-0.012756,0.00946,-0.991577,0.08345,0.356031,-0.192061,54,273,575,5584
1644163808.078386,-0.011963,0.009155,-0.992676,0.190321,0.447634,-0.100458,57,268,589,5552
1644163808.126474,-0.010498,0.008057,-0.992859,0.159786,0.615573,-0.085191,59,258,570,5536
1644163808.17485,-0.011719,0.007996,-0.992981,0.236122,0.325496,-0.115725,46,271,576,5584
1644163808.223235,-0.009583,0.012085,-0.991882,0.098718,0.401832,-0.130992,51,266,573,5600
1644163808.271618,-0.010437,0.010254,-0.99115,0.159786,0.508702,0.052214,61,282,584,5536
1644163808.320053,-0.01001,0.010498,-0.991516,0.144519,0.371298,-0.069924,52,275,577,5584
1644163808.368406,-0.012085,0.010742,-0.989502,0.190321,0.340763,-0.130992,49,273,572,5584
1644163808.41678,-0.010559,0.008667,-0.989502,0.297191,0.432366,-0.100458,58,266,583,5584
1644163808.465173,-0.010315,0.009399,-0.991699,0.266656,0.417099,-0.100458,52,275,579,5600
1644163808.513571,-0.009033,0.010193,-0.990601,0.342992,0.661374,-0.039389,41,269,576,5536
1644163808.562311,-0.010803,0.011841,-0.990173,0.220855,0.523969,-0.054656,48,281,578,5552
1644163808.61141,-0.01001,0.008118,-0.990051,0.266656,0.401832,-0.207328,51,275,570,5584
1644163808.661788,-0.009155,0.010254,-0.993042,0.297191,0.554504,-0.100458,47,275,572,5584
1644163808.712031,-0.010071,0.009766,-0.989319,0.281924,0.401832,0.006412,55,266,573,5552
1644163808.756958,-0.012268,0.010132,-0.994019,0.236122,0.462901,-0.115725,55,271,580,5536
1644163808.852667,-0.012512,0.010071,-0.992004,0.297191,0.462901,-0.130992,47,280,577,5584
1644163808.90072,-0.009399,0.009949,-0.991455,0.281924,0.371298,-0.054656,54,268,572,5584
1644163808.949106,-0.013611,0.007996,-0.993286,0.190321,0.478168,-0.161527,58,276,569,5584
1644163808.997501,-0.014404,0.006592,-0.993286,0.281924,0.340763,-0.039389,46,271,569,5584
1644163809.05291,-0.009216,0.008362,-0.991882,0.175053,0.447634,-0.054656,48,271,576,5584
1644163809.094256,-0.009644,0.007507,-0.989868,0.251389,0.310229,-0.14626,48,281,571,5536
1644163809.142679,-0.009888,0.010559,-0.991699,0.35826,0.478168,0.052214,52,265,572,5584
1644163809.191067,-0.010254,0.007385,-0.993164,0.205588,0.447634,-0.085191,58,262,580,5552
1644163809.239455,-0.012085,0.007568,-0.991882,0.190321,0.386565,-0.024122,42,275,572,5536
1644163809.287849,-0.013794,0.008057,-0.992493,0.205588,0.478168,-0.054656,49,275,570,5584
1644163809.336232,-0.010498,0.010132,-0.990234,0.281924,0.340763,-0.054656,55,276,576,5600
1644163809.384673,-0.010315,0.008972,-0.993591,0.281924,0.371298,-0.176794,52,273,577,5536
1644163809.433043,-0.008606,0.01123,-0.989807,0.236122,0.417099,-0.14626,53,279,580,5600
1644163809.481399,-0.012939,0.009338,-0.992188,0.419328,0.493435,-0.100458,51,271,580,5648
1644163809.530113,-0.010986,0.011169,-0.991516,0.281924,0.508702,-0.283664,45,280,563,5536
1644163809.578218,-0.011658,0.009583,-0.991455,0.251389,0.462901,-0.085191,55,264,576,5584
1644163809.628522,-0.009583,0.008606,-0.992676,0.220855,0.294962,-0.100458,49,268,568,5648
1644163809.678709,-0.011597,0.008789,-0.992432,0.419328,0.417099,-0.14626,54,270,575,5584
1644163809.728973,-0.010376,0.009521,-0.992981,0.159786,0.554504,-0.161527,49,265,572,5584
1644163809.820149,-0.009583,0.011658,-0.99408,0.175053,0.432366,-0.14626,55,279,573,5584
1644163809.86853,-0.009399,0.010925,-0.991028,0.220855,0.478168,-0.130992,58,276,569,5520
1644163809.916918,-0.007263,0.010925,-0.992615,0.281924,0.417099,-0.085191,49,273,572,5552
1644163809.965298,-0.009033,0.00946,-0.991272,0.281924,0.569771,0.067481,51,276,576,5584
1644163810.013701,-0.00885,0.012939,-0.990845,0.312458,0.447634,-0.115725,40,270,575,5600
1644163810.062255,-0.011536,0.010193,-0.99054,0.419328,0.417099,-0.100458,53,276,585,5584
1644163810.110459,-0.010925,0.008728,-0.992493,0.205588,0.569771,-0.054656,51,283,576,5584
1644163810.158828,-0.010132,0.007446,-0.991272,0.220855,0.462901,0.113282,60,269,576,5648
1644163810.207219,-0.009766,0.013428,-0.991699,0.281924,0.386565,0.036947,47,275,572,5600
1644163810.255586,-0.010986,0.010315,-0.993164,0.159786,0.432366,-0.115725,59,280,572,5520
1644163810.304003,-0.010437,0.010803,-0.99115,0.08345,0.401832,-0.130992,54,275,577,5696
1644163810.353134,-0.011719,0.009277,-0.993103,0.129252,0.432366,-0.008855,52,277,584,5536
1644163810.401088,-0.009888,0.007385,-0.992798,0.129252,0.325496,-0.130992,57,273,572,5536
1644163810.450442,-0.009827,0.007874,-0.9953,0.327725,0.585038,-0.039389,51,266,569,5584
1644163810.501098,-0.012207,0.009521,-0.992615,0.266656,0.554504,-0.100458,51,269,573,5584
1644163810.546321,-0.009216,0.007446,-0.991699,0.236122,0.401832,0.113282,54,268,570,5632
1644163810.642774,-0.011292,0.008057,-0.990845,0.251389,0.417099,0.098015,43,274,573,5584
1644163810.691123,-0.011841,0.008423,-0.994263,0.251389,0.386565,-0.176794,45,282,572,5552
1644163810.73951,-0.010315,0.00647,-0.993164,0.251389,0.539237,-0.085191,52,265,572,5600
1644163810.787914,-0.010559,0.008423,-0.992249,0.312458,0.447634,-0.25313,48,271,573,5552
1644163810.836309,-0.009766,0.008728,-0.991272,0.220855,0.447634,-0.039389,46,274,571,5584
1644163810.884743,-0.010559,0.010315,-0.992798,0.266656,0.356031,-0.054656,48,276,569,5584
1644163810.933135,-0.010925,0.012085,-0.993347,0.129252,0.615573,-0.085191,42,273,579,5584
1644163810.981511,-0.007263,0.010315,-0.992432,0.281924,0.508702,-0.161527,57,277,572,5584
1644163811.029872,-0.007324,0.009338,-0.992065,0.113985,0.432366,-0.069924,47,270,579,5600
1644163811.079162,-0.01123,0.009949,-0.992004,0.159786,0.508702,0.052214,61,275,589,5648
1644163811.126628,-0.011169,0.01001,-0.993958,0.251389,0.447634,-0.100458,54,265,582,5552
1644163811.175143,-0.01001,0.010925,-0.99469,0.190321,0.447634,-0.024122,48,271,576,5600
1644163811.223432,-0.011658,0.010193,-0.991089,0.327725,0.386565,-0.039389,53,269,573,5600
1644163811.271798,-0.008911,0.009033,-0.990662,0.342992,0.264427,-0.069924,49,277,579,5600
1644163811.320194,-0.010559,0.008911,-0.991638,0.159786,0.356031,-0.054656,47,280,584,5584
1644163811.368564,-0.009216,0.007324,-0.992981,0.312458,0.386565,-0.176794,49,282,577,5632
1644163811.416981,-0.008728,0.007935,-0.99176,0.098718,0.356031,-0.161527,64,275,591,5584
1644163811.465363,-0.009583,0.008728,-0.991272,0.205588,0.462901,-0.130992,53,274,578,5600
1644163811.514039,-0.010376,0.00885,-0.991638,0.159786,0.371298,-0.115725,52,275,577,5648
1644163811.563216,-0.010498,0.012085,-0.99292,0.220855,0.264427,-0.115725,48,262,578,5552
1644163811.613535,-0.008606,0.009277,-0.991272,0.205588,0.279695,-0.085191,57,265,582,5584
1644163811.663815,-0.008606,0.011475,-0.991455,0.297191,0.432366,0.082748,45,260,570,5648
1644163811.755742,-0.010681,0.009216,-0.992554,0.220855,0.585038,-0.222595,59,265,570,5584
1644163811.80412,-0.013306,0.008179,-0.992249,0.129252,0.417099,0.021679,51,274,571,5600
1644163811.85256,-0.00885,0.010132,-0.99054,0.327725,0.340763,-0.024122,38,285,577,5632
1644163811.900929,-0.008362,0.011414,-0.993469,0.297191,0.432366,-0.115725,45,265,570,5584
1644163811.949271,-0.010437,0.009033,-0.99176,0.236122,0.325496,0.036947,47,273,575,5584
1644163811.99772,-0.012756,0.009216,-0.989746,0.175053,0.356031,0.021679,61,263,575,5600
1644163812.052295,-0.012634,0.010376,-0.991455,0.251389,0.462901,0.006412,58,276,583,5552
1644163812.094454,-0.010071,0.008728,-0.99115,0.205588,0.417099,-0.115725,40,275,575,5600
1644163812.142844,-0.011475,0.009644,-0.994751,0.266656,0.279695,-0.115725,45,265,584,5600
1644163812.191238,-0.010437,0.012939,-0.991638,0.327725,0.401832,-0.207328,55,271,571,5584
1644163812.239613,-0.010498,0.010254,-0.992615,0.419328,0.493435,-0.039389,38,265,577,5552
1644163812.28804,-0.010864,0.009705,-0.995605,0.388794,0.279695,-0.085191,60,271,585,5584
1644163812.336377,-0.010376,0.00885,-0.992493,0.175053,0.279695,-0.192061,49,275,586,5520
1644163812.384781,-0.009766,0.010071,-0.992493,0.236122,0.493435,0.006412,65,271,578,5552
1644163812.433179,-0.01062,0.009705,-0.989319,0.251389,0.401832,0.067481,60,271,583,5552
1644163812.481571,-0.01178,0.013306,-0.991882,0.175053,0.462901,-0.115725,55,281,576,5536
1644163812.529951,-0.009827,0.008911,-0.994446,0.281924,0.386565,-0.130992,57,270,572,5552
1644163812.578351,-0.012878,0.007141,-0.992188,0.297191,0.478168,-0.14626,52,280,575,5552
1644163812.626734,-0.013977,0.009705,-0.989197,0.205588,0.417099,0.067481,53,271,583,5584
1644163812.675595,-0.010498,0.008789,-0.991943,0.175053,0.325496,-0.268397,42,270,570,5632
1644163812.725631,-0.010925,0.010681,-0.994385,0.297191,0.417099,-0.161527,57,265,577,5584
1644163812.775889,-0.009216,0.008301,-0.993591,0.266656,0.325496,0.052214,41,276,569,5600
1644163812.820954,-0.009155,0.010437,-0.988159,0.266656,0.356031,-0.069924,49,268,572,5584
1644163812.917118,-0.009888,0.009033,-0.993408,0.190321,0.462901,-0.054656,41,274,571,5584
1644163812.965482,-0.010193,0.010864,-0.994202,0.281924,0.401832,-0.222595,43,269,571,5584
1644163813.013892,-0.010925,0.009949,-0.995361,0.281924,0.417099,0.021679,47,273,568,5552
1644163813.062475,-0.013245,0.008667,-0.990845,0.266656,0.432366,-0.039389,55,266,585,5584
1644163813.110675,-0.009644,0.011902,-0.994202,0.236122,0.386565,-0.024122,52,273,579,5600
1644163813.159038,-0.009277,0.008301,-0.991882,0.236122,0.386565,-0.115725,47,268,582,5552
1644163813.207424,-0.012146,0.006531,-0.99115,0.434595,0.386565,-0.069924,48,274,578,5536
1644163813.255816,-0.012268,0.008301,-0.991577,0.144519,0.310229,-0.176794,48,276,566,5584
1644163813.304221,-0.008667,0.010559,-0.993225,0.342992,0.462901,-0.085191,54,275,591,5536
1644163813.352606,-0.010925,0.009033,-0.989746,0.281924,0.523969,0.021679,51,271,580,5696
1644163813.40095,-0.009644,0.008545,-0.992065,0.220855,0.417099,-0.176794,52,270,579,5648
1644163813.449368,-0.013062,0.010498,-0.99231,0.266656,0.325496,-0.024122,45,273,572,5488
1644163813.497776,-0.010193,0.00946,-0.994019,0.144519,0.478168,-0.100458,48,271,573,5552
1644163813.546149,-0.012512,0.009094,-0.991943,0.236122,0.356031,-0.25313,47,273,579,5536
1644163813.594539,-0.010559,0.010193,-0.993347,0.175053,0.371298,-0.176794,52,270,575,5552
1644163813.642946,-0.010437,0.009155,-0.990845,0.35826,0.294962,-0.130992,53,271,578,5648
1644163813.691321,-0.010315,0.010498,-0.993103,0.251389,0.340763,0.006412,55,274,569,5632
1644163813.739705,-0.009766,0.010193,-0.993042,0.205588,0.478168,-0.115725,55,276,569,5536
1644163813.788406,-0.011536,0.007812,-0.990845,0.35826,0.340763,-0.054656,47,270,584,5584
1644163813.839117,-0.012268,0.011353,-0.993042,0.190321,0.508702,-0.069924,49,282,582,5584
1644163813.889911,-0.004333,0.008484,-0.992493,0.404061,0.523969,-0.14626,52,275,572,5632
1644163813.934515,-0.009888,0.008667,-0.991577,0.312458,0.493435,0.036947,57,273,575,5600
1644163814.030075,-0.01062,0.010132,-0.991333,0.205588,0.401832,0.006412,54,275,584,5584
1644163814.078594,-0.013794,0.009033,-0.990845,0.266656,0.325496,-0.054656,60,274,578,5600
1644163814.126853,-0.008972,0.008484,-0.989624,0.236122,0.447634,-0.14626,52,277,570,5536
1644163814.17522,-0.008728,0.011292,-0.992981,0.159786,0.401832,-0.14626,33,273,568,5584
1644163814.223625,-0.010132,0.010071,-0.99353,0.281924,0.523969,-0.069924,53,271,571,5536
1644163814.271989,-0.010193,0.008728,-0.991394,0.281924,0.310229,-0.085191,55,269,578,5600
1644163814.320404,-0.01001,0.011841,-0.98999,0.251389,0.310229,-0.14626,55,279,573,5552
1644163814.36878,-0.009705,0.011047,-0.989929,0.236122,0.478168,-0.115725,41,271,571,5536
1644163814.417176,-0.007629,0.008606,-0.992981,0.220855,0.447634,-0.161527,45,275,575,5584
1644163814.465566,-0.009888,0.008118,-0.990784,0.220855,0.447634,-0.100458,45,273,579,5552
1644163814.513955,-0.010071,0.010376,-0.994019,0.46513,0.523969,-0.130992,53,269,569,5584
1644163814.562366,-0.009827,0.008057,-0.991028,0.327725,0.401832,-0.008855,51,276,569,5536
1644163814.610744,-0.009766,0.007996,-0.991272,0.220855,0.478168,-0.054656,52,270,572,5536
1644163814.659091,-0.013611,0.008118,-0.992737,0.281924,0.508702,-0.100458,45,275,579,5584
1644163814.707525,-0.009277,0.008118,-0.992493,0.312458,0.447634,-0.192061,55,276,566,5584
1644163814.755889,-0.012573,0.009399,-0.994751,0.373527,0.432366,0.006412,52,268,577,5552
1644163814.804312,-0.012817,0.010437,-0.993286,0.281924,0.478168,-0.100458,51,276,573,5600
1644163814.852746,-0.009094,0.008728,-0.99353,0.220855,0.478168,-0.008855,41,276,573,5584
1644163814.901123,-0.009155,0.008911,-0.991333,0.281924,0.493435,-0.085191,52,268,579,5552
1644163814.950805,-0.008972,0.008728,-0.991943,0.190321,0.371298,-0.115725,52,273,575,5536
1644163815.051849,-0.010437,0.008301,-0.992798,0.190321,0.417099,-0.161527,62,269,571,5584
1644163815.094676,-0.013306,0.009094,-0.99054,0.297191,0.554504,-0.039389,51,279,583,5632
1644163815.143086,-0.011169,0.009583,-0.989502,0.205588,0.264427,-0.008855,53,266,576,5632
1644163815.191437,-0.012146,0.009583,-0.992126,0.449863,0.218626,-0.100458,52,277,570,5536
1644163815.239858,-0.009277,0.009827,-0.993713,0.159786,0.172824,-0.222595,55,276,571,5600
1644163815.288209,-0.011353,0.009888,-0.992004,0.281924,0.294962,-0.268397,49,282,579,5472
1644163815.336635,-0.011475,0.011475,-0.990479,0.205588,0.310229,-0.085191,51,271,585,5552
1644163815.385158,-0.009949,0.009888,-0.992554,0.434595,0.432366,-0.161527,57,275,565,5664
1644163815.433393,-0.013062,0.010132,-0.993896,0.35826,0.417099,-0.176794,55,264,578,5632
1644163815.481802,-0.013733,0.009033,-0.99408,0.205588,0.310229,-0.054656,53,269,578,5536
1644163815.530189,-0.009644,0.008362,-0.990173,0.312458,0.523969,-0.161527,49,265,577,5552
1644163815.57859,-0.015442,0.009155,-0.992737,0.144519,0.356031,-0.024122,49,263,582,5648
1644163815.626954,-0.010193,0.008972,-0.994202,0.297191,0.432366,-0.115725,48,276,576,5520
1644163815.675714,-0.009766,0.010193,-0.993713,0.220855,0.417099,-0.115725,41,281,573,5584
1644163815.723789,-0.013306,0.006836,-0.992432,0.297191,0.325496,0.036947,52,275,575,5552
1644163815.773903,-0.010315,0.011108,-0.99231,0.327725,0.493435,-0.069924,40,268,579,5584
1644163815.823941,-0.00946,0.010376,-0.992065,0.327725,0.462901,-0.14626,42,263,577,5584
1644163815.874305,-0.013611,0.010437,-0.991394,0.190321,0.417099,0.067481,53,276,573,5600
1644163815.918962,-0.009216,0.009155,-0.992859,0.35826,0.478168,-0.100458,54,270,570,5632
1644163816.014102,-0.010071,0.010559,-0.992981,0.373527,0.447634,-0.14626,49,270,565,5584
1644163816.062523,-0.010254,0.008667,-0.990845,0.297191,0.493435,-0.192061,45,273,572,5584
1644163816.110836,-0.008972,0.007935,-0.991882,0.220855,0.447634,-0.130992,58,276,573,5648
1644163816.159223,-0.011414,0.009155,-0.990051,0.312458,0.386565,-0.069924,52,285,579,5600
1644163816.207609,-0.009155,0.009766,-0.989014,0.175053,0.340763,-0.069924,46,274,583,5600
1644163816.256026,-0.009766,0.009338,-0.991333,0.266656,0.401832,0.067481,46,279,578,5584
1644163816.304401,-0.011292,0.014404,-0.993347,0.281924,0.523969,-0.008855,46,279,573,5584
1644163816.352798,-0.00946,0.00708,-0.99231,0.297191,0.310229,-0.237863,53,276,578,5584
1644163816.401172,-0.008789,0.010132,-0.990845,0.297191,0.340763,-0.176794,54,275,570,5600
1644163816.449574,-0.011902,0.008118,-0.991089,0.175053,0.401832,-0.085191,49,282,558,5552
1644163816.49794,-0.010254,0.007019,-0.990723,0.251389,0.508702,-0.237863,60,283,571,5536
1644163816.546346,-0.011353,0.007935,-0.992676,0.281924,0.371298,-0.130992,58,281,576,5600
1644163816.594774,-0.011841,0.009949,-0.989014,0.251389,0.401832,-0.176794,55,279,576,5600
1644163816.643139,-0.01416,0.012939,-0.992188,0.08345,0.401832,-0.176794,52,275,577,5536
1644163816.691519,-0.010803,0.009521,-0.991028,0.220855,0.417099,0.036947,45,280,584,5552
1644163816.73991,-0.011353,0.009705,-0.992432,0.129252,0.24916,-0.192061,47,270,579,5552
1644163816.788336,-0.009399,0.01123,-0.994202,0.281924,0.493435,-0.039389,65,276,566,5552
1644163816.837069,-0.010986,0.007812,-0.991394,0.236122,0.417099,-0.054656,48,264,571,5648
1644163816.885198,-0.012085,0.01062,-0.992554,0.281924,0.478168,0.006412,40,282,575,5584
1644163816.935004,-0.011963,0.009766,-0.993591,0.312458,0.493435,0.098015,54,270,586,5552
1644163816.984883,-0.010437,0.00824,-0.994141,0.068183,0.432366,-0.192061,58,281,580,5600
1644163817.052368,-0.010071,0.006775,-0.9953,0.190321,0.447634,-0.054656,49,280,572,5584
1644163817.079929,-0.011108,0.007385,-0.990967,0.159786,0.417099,-0.115725,52,275,577,5600
1644163817.175483,-0.008667,0.008606,-0.993591,0.159786,0.523969,0.006412,54,285,568,5584
1644163817.223836,-0.011902,0.010681,-0.992859,0.175053,0.417099,0.036947,57,277,570,5584
1644163817.272546,-0.00885,0.008118,-0.993225,0.281924,0.386565,-0.085191,52,285,577,5552
1644163817.320586,-0.009583,0.009155,-0.991638,0.251389,0.539237,-0.054656,39,271,578,5600
1644163817.368966,-0.010132,0.009277,-0.991089,0.236122,0.340763,-0.130992,47,273,572,5600
1644163817.417366,-0.009033,0.009033,-0.992126,0.175053,0.508702,-0.085191,48,269,566,5584
1644163817.465744,-0.010071,0.013062,-0.990234,0.175053,0.386565,-0.161527,62,276,564,5632
1644163817.514163,-0.012512,0.007874,-0.99176,0.266656,0.386565,-0.069924,60,279,571,5600
1644163817.56256,-0.00946,0.010742,-0.993652,0.373527,0.401832,0.098015,49,275,577,5600
1644163817.610937,-0.009705,0.011292,-0.995422,0.159786,0.569771,-0.222595,54,270,575,5584
1644163817.659327,-0.010803,0.01062,-0.991455,0.251389,0.356031,-0.085191,54,263,577,5536
1644163817.707714,-0.007996,0.009521,-0.992676,0.35826,0.493435,-0.039389,54,273,575,5584
1644163817.75611,-0.015686,0.008118,-0.994019,0.205588,0.371298,-0.192061,51,269,559,5600
1644163817.804509,-0.011047,0.008057,-0.993652,0.159786,0.386565,-0.085191,53,274,576,5600
1644163817.852939,-0.009216,0.007568,-0.991516,0.159786,0.340763,-0.14626,60,281,580,5552
1644163817.901316,-0.012146,0.009766,-0.991211,0.113985,0.600305,-0.069924,49,270,570,5552
1644163817.949708,-0.010864,0.008606,-0.993591,0.220855,0.340763,-0.222595,65,276,573,5584
1644163817.998068,-0.01001,0.009338,-0.990173,0.144519,0.462901,0.021679,49,273,579,5632
1644163818.072743,-0.010925,0.009705,-0.993835,0.129252,0.508702,-0.069924,46,286,587,5664
1644163818.096866,-0.010132,0.007812,-0.993469,0.312458,0.401832,-0.115725,51,271,573,5600
1644163818.14543,-0.009705,0.009705,-0.99292,0.236122,0.432366,-0.069924,55,274,583,5584
1644163818.195694,-0.011047,0.007324,-0.992065,0.129252,0.340763,-0.008855,47,273,586,5632
1644163818.240778,-0.00946,0.008728,-0.99054,0.281924,0.523969,-0.008855,54,273,577,5536
1644163818.336768,-0.00769,0.007263,-0.991394,0.281924,0.356031,0.021679,55,276,573,5584
1644163818.385362,-0.01239,0.010132,-0.992737,0.236122,0.447634,-0.222595,42,268,572,5584
1644163818.433575,-0.008301,0.009583,-0.989075,0.159786,0.340763,-0.008855,42,273,586,5536
1644163818.481959,-0.009338,0.008972,-0.989868,0.205588,0.356031,-0.176794,47,263,572,5648
1644163818.530358,-0.01001,0.010986,-0.991821,0.220855,0.340763,-0.085191,51,279,569,5584
1644163818.578714,-0.011536,0.010498,-0.992798,0.190321,0.447634,0.036947,41,276,576,5584
1644163818.627129,-0.010681,0.012756,-0.990845,0.068183,0.447634,-0.039389,40,280,570,5584
1644163818.675513,-0.011658,0.010864,-0.993042,0.220855,0.508702,-0.039389,47,265,575,5536
1644163818.723918,-0.009766,0.011475,-0.990967,0.236122,0.523969,-0.161527,57,273,586,5552
1644163818.772311,-0.006775,0.008118,-0.991089,0.281924,0.401832,0.067481,49,270,570,5600
1644163818.820717,-0.012878,0.007019,-0.990479,0.205588,0.310229,0.021679,48,269,576,5584
1644163818.869115,-0.00946,0.008545,-0.99353,0.144519,0.371298,-0.069924,47,290,575,5584
1644163818.917509,-0.00647,0.005493,-0.991089,0.205588,0.401832,-0.192061,52,273,568,5536
1644163818.965901,-0.009521,0.008606,-0.991943,0.098718,0.478168,-0.024122,45,277,575,5584
1644163819.014294,-0.009888,0.007202,-0.992371,0.312458,0.356031,-0.069924,54,273,584,5536
1644163819.077899,-0.012329,0.009949,-0.991638,0.281924,0.462901,-0.008855,60,266,583,5536
1644163819.111009,-0.008667,0.008911,-0.993469,0.08345,0.432366,-0.008855,45,270,579,5600
1644163819.159563,-0.011841,0.006836,-0.992126,0.220855,0.371298,-0.176794,53,279,580,5584
1644163819.20851,-0.009766,0.009338,-0.992371,0.327725,0.493435,-0.130992,52,280,570,5584
1644163819.258909,-0.008972,0.01062,-0.993286,0.251389,0.478168,-0.024122,58,269,569,5552
1644163819.308925,-0.011658,0.009277,-0.991577,0.434595,0.523969,-0.039389,49,265,577,5536
1644163819.354036,-0.012085,0.010376,-0.990173,0.205588,0.340763,-0.207328,51,276,580,5584
1644163819.44978,-0.013367,0.006714,-0.992126,0.175053,0.340763,-0.024122,53,274,576,5520
1644163819.498139,-0.01062,0.010681,-0.992249,0.159786,0.478168,-0.024122,53,271,573,5664
1644163819.546524,-0.013367,0.009888,-0.993469,0.175053,0.310229,-0.192061,47,270,570,5584
1644163819.595207,-0.013,0.006104,-0.992371,0.236122,0.417099,-0.283664,51,281,578,5600
1644163819.643336,-0.009766,0.008728,-0.992676,0.327725,0.493435,0.021679,55,269,569,5584
1644163819.691692,-0.007874,0.010803,-0.991028,0.129252,0.417099,-0.085191,55,266,564,5600
1644163819.740106,-0.010864,0.011597,-0.993164,0.236122,0.340763,-0.176794,55,271,571,5552
1644163819.788494,-0.011902,0.008728,-0.995117,0.220855,0.493435,-0.100458,46,269,569,5584
1644163819.836985,-0.014954,0.00946,-0.993042,0.175053,0.539237,-0.039389,55,269,576,5600
1644163819.88534,-0.009705,0.006958,-0.991028,0.220855,0.432366,-0.161527,54,277,575,5648
1644163819.933726,-0.010437,0.012756,-0.991211,0.037649,0.386565,-0.176794,48,279,578,5648
1644163819.982226,-0.010193,0.009338,-0.98938,0.373527,0.478168,-0.161527,48,271,571,5584
1644163820.030496,-0.01001,0.010132,-0.992432,0.144519,0.340763,-0.085191,57,285,584,5584
1644163820.082359,-0.011169,0.010437,-0.994202,0.251389,0.325496,-0.207328,49,275,572,5600
1644163820.127237,-0.010803,0.008179,-0.990479,0.129252,0.386565,-0.024122,61,275,577,5584
1644163820.175617,-0.009705,0.011963,-0.992676,0.281924,0.325496,-0.192061,54,275,582,5584
1644163820.224052,-0.009521,0.010498,-0.993835,0.205588,0.401832,-0.298931,52,270,586,5536
1644163820.272377,-0.014099,0.00946,-0.991211,0.190321,0.432366,-0.115725,54,270,577,5600
1644163820.320764,-0.010803,0.008545,-0.992126,0.159786,0.417099,-0.008855,42,280,568,5600
1644163820.36962,-0.011047,0.007629,-0.994507,0.113985,0.462901,-0.054656,53,271,573,5536
1644163820.419941,-0.008667,0.009949,-0.991577,0.129252,0.310229,0.067481,45,282,577,5648
1644163820.470305,-0.012756,0.009827,-0.98999,0.144519,0.386565,-0.100458,55,271,576,5648
1644163820.515126,-0.009155,0.009155,-0.993896,0.327725,0.478168,-0.207328,57,268,565,5600
1644163820.611119,-0.012085,0.008179,-0.992249,0.159786,0.386565,-0.085191,64,263,572,5584
1644163820.659514,-0.009949,0.010498,-0.993713,0.236122,0.600305,-0.14626,54,270,575,5648
1644163820.707906,-0.009827,0.00824,-0.993103,0.144519,0.432366,-0.024122,51,274,578,5552
1644163820.756269,-0.00885,0.007324,-0.994507,0.144519,0.462901,-0.100458,45,280,575,5600
1644163820.804705,-0.011719,0.012573,-0.992737,0.266656,0.447634,-0.222595,52,277,563,5584
1644163820.853153,-0.010071,0.010925,-0.992004,0.281924,0.462901,-0.054656,53,279,578,5584
1644163820.901524,-0.010681,0.010803,-0.994995,0.220855,0.325496,-0.100458,49,277,565,5552
1644163820.949892,-0.012085,0.009033,-0.993713,0.281924,0.340763,-0.161527,46,269,573,5552
1644163820.998273,-0.009094,0.010193,-0.991882,0.022382,0.462901,-0.039389,47,273,577,5584
1644163821.055454,-0.010193,0.009399,-0.99408,0.159786,0.417099,-0.161527,47,280,577,5600
1644163821.095232,-0.011902,0.008667,-0.994263,0.205588,0.371298,-0.161527,46,281,576,5552
1644163821.143445,-0.011658,0.009399,-0.991272,0.205588,0.585038,-0.176794,58,264,583,5584
1644163821.191814,-0.01123,0.007935,-0.991821,0.312458,0.462901,-0.008855,51,266,578,5632
1644163821.240202,-0.012085,0.008728,-0.99054,0.297191,0.371298,-0.085191,59,270,582,5584
1644163821.288595,-0.012756,0.009338,-0.991272,0.327725,0.417099,0.113282,40,270,582,5584
1644163821.336993,-0.009583,0.00885,-0.991211,0.144519,0.340763,-0.176794,60,283,585,5584
1644163821.385378,-0.010803,0.007507,-0.993286,0.098718,0.447634,-0.207328,53,283,569,5584
1644163821.433744,-0.011536,0.008728,-0.993286,0.190321,0.447634,0.036947,46,279,585,5584
1644163821.48217,-0.008545,0.010437,-0.993408,0.037649,0.523969,0.021679,64,270,572,5552
1644163821.530567,-0.011169,0.004578,-0.992737,0.251389,0.340763,0.006412,49,270,575,5536
1644163821.581042,-0.00885,0.009644,-0.990906,0.175053,0.523969,0.098015,52,268,575,5536
1644163821.631235,-0.01123,0.007935,-0.992676,0.236122,0.417099,-0.054656,59,275,572,5600
1644163821.676399,-0.012268,0.010986,-0.99292,0.404061,0.417099,0.113282,47,277,577,5584
1644163821.772521,-0.011841,0.008301,-0.994385,0.251389,0.401832,-0.069924,55,269,564,5584
1644163821.820884,-0.01178,0.008972,-0.99231,0.236122,0.371298,-0.039389,47,280,577,5648
1644163821.869314,-0.012878,0.010376,-0.993835,0.342992,0.356031,-0.024122,59,260,575,5584
1644163821.91771,-0.011963,0.008545,-0.993408,0.342992,0.447634,-0.008855,47,265,563,5648
1644163821.966099,-0.012024,0.008667,-0.992554,0.373527,0.539237,-0.085191,45,277,577,5632
1644163822.014514,-0.012756,0.005859,-0.992737,0.098718,0.539237,-0.085191,55,271,573,5536
1644163822.06501,-0.009888,0.010315,-0.99231,0.205588,0.24916,-0.115725,55,279,583,5584
1644163822.111265,-0.011719,0.007141,-0.993225,0.205588,0.523969,-0.054656,53,269,580,5552
1644163822.159634,-0.009949,0.010193,-0.992493,0.098718,0.508702,-0.069924,54,275,572,5536
1644163822.207989,-0.010986,0.007202,-0.991211,0.068183,0.294962,0.082748,46,269,569,5600
1644163822.256414,-0.010193,0.011841,-0.995361,0.327725,0.401832,-0.115725,51,274,571,5600
1644163822.304812,-0.012085,0.009155,-0.994629,0.08345,0.585038,0.021679,49,273,570,5648
1644163822.353205,-0.010925,0.007568,-0.993713,0.327725,0.493435,-0.100458,49,275,577,5632
1644163822.401567,-0.008606,0.007385,-0.990906,0.266656,0.432366,-0.161527,47,270,565,5648
1644163822.449963,-0.008972,0.008179,-0.990967,0.419328,0.493435,-0.069924,55,279,580,5584
1644163822.498355,-0.010315,0.008667,-0.991333,0.129252,0.462901,-0.207328,53,271,583,5584
1644163822.546745,-0.010681,0.007446,-0.994934,0.297191,0.371298,-0.069924,49,277,579,5584
1644163822.595172,-0.011841,0.009277,-0.993286,0.175053,0.569771,0.006412,54,270,572,5600
1644163822.643517,-0.010254,0.008301,-0.993469,0.236122,0.432366,0.006412,51,269,580,5536
1644163822.692322,-0.013733,0.008606,-0.993469,0.236122,0.401832,-0.14626,47,275,568,5536
1644163822.742655,-0.008667,0.009827,-0.992371,0.190321,0.432366,0.021679,47,277,579,5600
1644163822.793028,-0.008789,0.009949,-0.992126,0.312458,0.264427,-0.14626,52,282,568,5552
1644163822.838806,-0.012634,0.006775,-0.991821,0.281924,0.523969,-0.100458,64,275,570,5584
1644163822.933927,-0.012756,0.008301,-0.991455,0.312458,0.417099,0.036947,49,280,579,5584
1644163822.982424,-0.011108,0.008179,-0.991821,0.113985,0.569771,-0.054656,46,274,578,5664
1644163823.030686,-0.013245,0.011353,-0.994019,0.312458,0.356031,-0.176794,59,270,577,5552
1644163823.081204,-0.011475,0.00708,-0.993591,0.312458,0.417099,-0.024122,53,274,580,5584
1644163823.127463,-0.00946,0.01123,-0.994568,0.205588,0.447634,-0.039389,43,269,569,5536
1644163823.175824,-0.008118,0.012329,-0.991943,0.190321,0.508702,-0.161527,52,273,568,5552
1644163823.224217,-0.009277,0.009094,-0.991333,0.281924,0.493435,-0.024122,46,266,571,5552
1644163823.272589,-0.010803,0.009399,-0.993225,0.159786,0.356031,-0.207328,53,274,573,5600
1644163823.320991,-0.012512,0.010315,-0.993408,0.190321,0.401832,-0.161527,58,281,571,5536
1644163823.369395,-0.01062,0.008423,-0.995117,0.35826,0.340763,-0.024122,54,275,575,5600
1644163823.417779,-0.014099,0.008728,-0.991333,0.190321,0.401832,-0.115725,47,275,568,5632
1644163823.466166,-0.008362,0.010193,-0.992676,0.220855,0.523969,-0.115725,46,279,585,5632
1644163823.514532,-0.015564,0.008972,-0.992676,0.251389,0.340763,-0.039389,60,279,578,5584
1644163823.562976,-0.01062,0.009338,-0.99176,0.327725,0.539237,-0.100458,51,269,576,5552
1644163823.611336,-0.012329,0.004639,-0.991211,0.373527,0.371298,-0.085191,52,275,575,5632
1644163823.660161,-0.012024,0.008911,-0.992249,0.129252,0.523969,-0.115725,54,275,572,5536
1644163823.711196,-0.012756,0.009216,-0.988953,0.281924,0.432366,-0.039389,48,271,578,5552
1644163823.760808,-0.010986,0.009094,-0.992493,0.190321,0.371298,-0.207328,47,265,568,5552
1644163823.806021,-0.01062,0.010376,-0.991516,0.35826,0.493435,-0.14626,53,279,580,5552
1644163823.901687,-0.009399,0.010071,-0.98999,0.144519,0.447634,0.113282,48,274,573,5584
1644163823.9501,-0.008301,0.009521,-0.990417,0.388794,0.462901,-0.069924,48,274,576,5632
1644163823.998487,-0.00946,0.007629,-0.992004,0.327725,0.340763,-0.14626,53,266,573,5584
1644163824.053901,-0.009766,0.009216,-0.992432,0.220855,0.493435,-0.192061,53,266,585,5600
1644163824.095302,-0.010315,0.007019,-0.992737,0.312458,0.218626,-0.14626,57,277,582,5584
1644163824.143669,-0.010132,0.008606,-0.99353,0.129252,0.417099,-0.192061,40,270,577,5600
1644163824.192089,-0.009949,0.010071,-0.991577,0.159786,0.371298,-0.054656,38,277,570,5584
1644163824.24045,-0.009766,0.008545,-0.994446,0.312458,0.539237,-0.14626,57,277,570,5536
1644163824.288811,-0.010071,0.008728,-0.991699,0.312458,0.478168,-0.085191,55,269,569,5632
1644163824.337224,-0.009827,0.009583,-0.992554,0.159786,0.371298,-0.100458,52,268,570,5536
1644163824.385623,-0.010071,0.010132,-0.991089,0.297191,0.325496,-0.14626,49,280,577,5536
1644163824.434027,-0.013428,0.010559,-0.991821,0.281924,0.279695,-0.008855,49,273,579,5600
1644163824.482419,-0.012451,0.007751,-0.993225,0.297191,0.508702,0.006412,49,282,582,5536
1644163824.530759,-0.01239,0.010071,-0.991089,0.266656,0.493435,0.006412,47,270,577,5584
1644163824.579164,-0.014709,0.011536,-0.992065,0.190321,0.356031,-0.008855,55,279,578,5536
1644163824.627555,-0.009033,0.010071,-0.991699,0.480397,0.508702,-0.176794,53,269,573,5552
1644163824.675951,-0.012329,0.011292,-0.99176,0.35826,0.356031,-0.054656,61,268,586,5520
1644163824.724362,-0.008667,0.008362,-0.991638,0.281924,0.554504,-0.100458,49,280,572,5600
1644163824.773807,-0.008301,0.008362,-0.992188,0.220855,0.447634,-0.024122,49,280,572,5648
1644163824.823841,-0.010193,0.00885,-0.992737,0.404061,0.478168,-0.024122,49,270,575,5632
1644163824.874241,-0.013,0.008911,-0.995056,0.342992,0.523969,-0.069924,54,268,584,5600
1644163824.918772,-0.011353,0.009766,-0.994141,0.251389,0.478168,-0.039389,57,280,586,5584
1644163825.01494,-0.009216,0.010315,-0.99231,0.113985,0.493435,-0.283664,52,268,584,5664
1644163825.063188,-0.01062,0.008911,-0.993591,0.434595,0.340763,-0.115725,52,280,584,5584
1644163825.111414,-0.012207,0.009399,-0.991211,0.159786,0.539237,-0.024122,49,270,577,5648
1644163825.159781,-0.012085,0.008179,-0.993774,0.388794,0.447634,-0.008855,40,270,582,5552
1644163825.208194,-0.011108,0.00885,-0.993286,0.236122,0.447634,-0.100458,40,270,568,5584
1644163825.25658,-0.010254,0.01001,-0.991028,0.175053,0.386565,-0.283664,52,273,563,5552
1644163825.305032,-0.010315,0.008362,-0.990051,0.144519,0.401832,0.006412,54,273,572,5584
1644163825.353388,-0.012878,0.009216,-0.992981,0.251389,0.401832,-0.085191,49,275,579,5600
1644163825.401787,-0.012268,0.011597,-0.993347,0.297191,0.493435,-0.207328,55,269,569,5488
1644163825.450165,-0.011902,0.011414,-0.990601,0.312458,0.356031,-0.222595,46,276,576,5632
1644163825.498532,-0.009033,0.010498,-0.992126,0.281924,0.371298,-0.161527,51,276,573,5584
1644163825.546949,-0.010559,0.01001,-0.990784,0.266656,0.432366,-0.115725,42,273,579,5584
1644163825.595402,-0.010376,0.006958,-0.99292,0.281924,0.417099,-0.054656,47,275,579,5552
1644163825.643726,-0.009521,0.008728,-0.990906,0.220855,0.523969,-0.130992,52,285,575,5600
1644163825.692162,-0.009094,0.009033,-0.99231,0.190321,0.478168,-0.069924,48,274,569,5584
1644163825.740502,-0.01178,0.010132,-0.990967,0.281924,0.432366,-0.176794,45,273,577,5536
1644163825.788935,-0.013306,0.009338,-0.991577,0.190321,0.356031,-0.039389,43,274,576,5552
1644163825.837599,-0.014282,0.008362,-0.991699,0.388794,0.432366,-0.130992,43,269,583,5600
1644163825.885702,-0.007629,0.006897,-0.990295,0.159786,0.432366,-0.161527,53,266,576,5552
1644163825.935405,-0.011597,0.007263,-0.994385,0.251389,0.447634,-0.054656,52,275,582,5632
1644163825.986033,-0.010559,0.010132,-0.991577,0.419328,0.401832,-0.192061,41,262,576,5552
1644163826.048002,-0.008545,0.010803,-0.994934,0.205588,0.386565,-0.054656,41,279,571,5584
1644163826.083149,-0.01123,0.010315,-0.990845,0.35826,0.478168,-0.207328,51,262,583,5552
1644163826.176002,-0.009216,0.009033,-0.992004,0.327725,0.493435,-0.115725,59,275,568,5600
1644163826.224418,-0.012939,0.009827,-0.992554,0.236122,0.24916,-0.176794,48,276,573,5536
1644163826.272809,-0.010925,0.010498,-0.994324,0.327725,0.493435,-0.100458,55,283,571,5584
1644163826.321201,-0.013245,0.011047,-0.995483,0.052916,0.401832,-0.14626,64,265,589,5536
1644163826.369561,-0.007935,0.00769,-0.993591,0.312458,0.508702,-0.176794,55,276,578,5600
1644163826.417939,-0.010864,0.010376,-0.990967,0.266656,0.508702,-0.161527,48,271,571,5600
1644163826.466354,-0.013184,0.008606,-0.992737,0.297191,0.294962,-0.268397,47,285,572,5584
1644163826.514758,-0.013,0.006653,-0.99176,0.297191,0.432366,-0.115725,57,270,577,5600
1644163826.563142,-0.009094,0.010986,-0.98999,0.281924,0.294962,-0.039389,49,277,568,5584
1644163826.611524,-0.010071,0.008301,-0.993286,0.113985,0.539237,-0.161527,49,273,582,5584
1644163826.659927,-0.011658,0.008728,-0.992737,0.404061,0.447634,-0.130992,53,276,576,5584
1644163826.708316,-0.012695,0.006348,-0.990967,0.327725,0.340763,-0.039389,54,270,575,5600
1644163826.756706,-0.013062,0.007629,-0.990234,0.175053,0.462901,-0.176794,46,281,571,5536
1644163826.805165,-0.008179,0.00885,-0.991455,0.266656,0.462901,-0.268397,52,275,575,5584
1644163826.853527,-0.011169,0.008911,-0.994324,0.312458,0.356031,-0.14626,48,269,583,5536
1644163826.901911,-0.011963,0.009766,-0.993713,0.205588,0.386565,-0.085191,48,271,573,5648
1644163826.95029,-0.012085,0.00824,-0.993103,0.327725,0.447634,-0.054656,51,274,573,5488
1644163826.998732,-0.011108,0.010071,-0.991394,0.327725,0.478168,0.006412,51,276,566,5584
1644163827.073655,-0.011292,0.009033,-0.991516,0.266656,0.508702,0.006412,64,277,570,5600
1644163827.097318,-0.010803,0.008484,-0.99115,0.205588,0.478168,-0.115725,49,273,582,5552
1644163827.146271,-0.009827,0.009338,-0.99353,0.175053,0.478168,-0.085191,48,271,573,5584
1644163827.196317,-0.01001,0.006348,-0.994507,0.251389,0.310229,-0.25313,61,285,586,5584
1644163827.241366,-0.00946,0.010559,-0.991333,0.312458,0.386565,-0.161527,57,277,575,5552
1644163827.337365,-0.009338,0.011536,-0.990479,0.434595,0.447634,-0.100458,49,280,565,5552
1644163827.38576,-0.011597,0.009827,-0.992737,0.266656,0.447634,-0.054656,52,273,570,5536
1644163827.434157,-0.012512,0.006714,-0.992065,0.236122,0.493435,-0.115725,59,270,584,5536
1644163827.482558,-0.009033,0.007874,-0.992004,0.190321,0.310229,-0.085191,49,270,579,5584
1644163827.530936,-0.010315,0.011047,-0.992493,0.388794,0.447634,-0.069924,67,286,573,5552
1644163827.579325,-0.010925,0.008728,-0.994263,0.175053,0.447634,-0.085191,52,268,568,5584
1644163827.627726,-0.010742,0.006409,-0.990845,0.205588,0.371298,-0.115725,52,273,575,5536
1644163827.676116,-0.009277,0.008301,-0.991211,0.022382,0.615573,-0.115725,51,276,578,5600
1644163827.724513,-0.011292,0.010803,-0.991333,0.159786,0.386565,-0.192061,54,270,570,5600
1644163827.772956,-0.008057,0.007324,-0.990784,0.190321,0.478168,0.006412,47,273,579,5584
1644163827.82132,-0.008789,0.010498,-0.994385,0.08345,0.432366,-0.14626,58,276,578,5536
1644163827.870631,-0.009216,0.010376,-0.990662,0.266656,0.325496,-0.100458,62,274,573,5584
1644163827.918121,-0.01123,0.009094,-0.992737,0.190321,0.447634,-0.268397,46,269,573,5600
1644163827.966501,-0.01123,0.01062,-0.99231,0.297191,0.340763,-0.100458,45,282,575,5584
1644163828.014926,-0.011292,0.009338,-0.990479,0.342992,0.264427,-0.024122,61,270,575,5552
1644163828.075311,-0.010437,0.007019,-0.991272,0.052916,0.340763,-0.039389,51,271,578,5600
1644163828.111655,-0.010193,0.006531,-0.992004,0.113985,0.508702,-0.14626,65,274,585,5584
1644163828.160941,-0.009094,0.010376,-0.992859,0.098718,0.310229,0.082748,45,270,577,5600
1644163828.21163,-0.011108,0.010071,-0.99469,0.312458,0.417099,-0.069924,49,275,586,5600
1644163828.261739,-0.01178,0.008484,-0.994873,0.373527,0.340763,-0.222595,48,281,578,5600
1644163828.306621,-0.010864,0.00885,-0.991699,0.342992,0.493435,0.098015,46,276,580,5600
1644163828.401973,-0.007324,0.006042,-0.992371,0.281924,0.539237,-0.069924,47,270,579,5648
1644163828.45036,-0.011047,0.008667,-0.991943,0.388794,0.539237,-0.039389,48,279,580,5552
1644163828.498761,-0.007751,0.007935,-0.991821,0.251389,0.432366,-0.25313,54,273,577,5600
1644163828.547113,-0.00946,0.010071,-0.990967,0.220855,0.569771,-0.054656,52,280,572,5600
1644163828.595515,-0.010071,0.010864,-0.991394,0.251389,0.310229,0.036947,52,280,586,5584
1644163828.643924,-0.008362,0.011963,-0.992004,0.342992,0.371298,-0.054656,42,268,572,5648
1644163828.692334,-0.011169,0.008301,-0.991882,0.327725,0.462901,0.021679,48,274,571,5600
1644163828.740702,-0.011047,0.00946,-0.992981,0.35826,0.340763,-0.222595,47,282,575,5536
1644163828.789096,-0.009949,0.01178,-0.989807,0.190321,0.401832,-0.039389,43,264,578,5552
1644163828.837528,-0.010864,0.011475,-0.990845,0.281924,0.310229,-0.298931,52,277,575,5584
1644163828.885919,-0.01001,0.008179,-0.992432,0.205588,0.432366,-0.115725,53,279,576,5600
1644163828.934314,-0.012085,0.007812,-0.991089,0.175053,0.478168,-0.085191,58,276,580,5632
1644163828.982709,-0.008728,0.010254,-0.992554,0.113985,0.417099,-0.100458,40,268,577,5584
1644163829.031078,-0.009094,0.010315,-0.993164,0.388794,0.508702,-0.176794,55,276,578,5552
1644163829.083014,-0.009094,0.008484,-0.991577,0.144519,0.386565,-0.14626,53,279,583,5584
1644163829.127826,-0.010498,0.008057,-0.990234,0.190321,0.356031,-0.024122,49,270,584,5584
1644163829.176216,-0.013184,0.007874,-0.991821,0.419328,0.401832,-0.344733,46,276,585,5584
1644163829.224648,-0.010071,0.007812,-0.99231,0.190321,0.523969,-0.161527,46,269,585,5536
1644163829.272972,-0.010437,0.010559,-0.99469,0.373527,0.462901,-0.115725,47,282,577,5552
1644163829.321593,-0.009033,0.007812,-0.989807,0.159786,0.447634,-0.085191,47,277,572,5632
1644163829.372048,-0.013184,0.009399,-0.993469,0.144519,0.523969,0.082748,54,277,577,5536
1644163829.42223,-0.00824,0.010071,-0.991699,0.144519,0.478168,-0.283664,55,271,576,5584
1644163829.467326,-0.009827,0.010254,-0.993591,0.251389,0.325496,-0.222595,47,273,572,5600
1644163829.563354,-0.01123,0.012207,-0.991089,0.281924,0.462901,0.082748,48,266,578,5584
1644163829.611732,-0.009766,0.009949,-0.992981,0.266656,0.462901,-0.115725,47,277,577,5664
1644163829.660113,-0.012024,0.007019,-0.990601,0.251389,0.539237,-0.176794,47,265,579,5600
1644163829.708498,-0.010742,0.009399,-0.991821,0.144519,0.310229,-0.115725,40,270,575,5552
1644163829.756878,-0.01239,0.009766,-0.988464,0.113985,0.356031,-0.130992,55,271,569,5584
1644163829.805289,-0.010071,0.008911,-0.992004,0.312458,0.417099,-0.100458,46,271,578,5536
1644163829.853729,-0.011597,0.009155,-0.991272,0.266656,0.447634,-0.14626,47,275,577,5648
1644163829.902158,-0.009583,0.005859,-0.991394,0.281924,0.371298,-0.100458,58,271,573,5552
1644163829.950504,-0.009705,0.010376,-0.989502,0.251389,0.432366,-0.085191,49,277,561,5584
1644163829.998855,-0.012817,0.010742,-0.993347,0.342992,0.401832,-0.14626,47,273,575,5584
1644163830.053884,-0.009033,0.011536,-0.993225,0.266656,0.493435,0.006412,51,274,580,5600
1644163830.09567,-0.007019,0.011536,-0.990417,0.404061,0.294962,-0.085191,54,277,575,5648
1644163830.144034,-0.010376,0.008057,-0.989319,0.342992,0.325496,-0.115725,57,275,575,5536
1644163830.192439,-0.008667,0.007507,-0.992188,0.35826,0.478168,0.067481,45,275,575,5584
1644163830.240806,-0.007812,0.010925,-0.992371,0.220855,0.386565,-0.085191,45,265,568,5584
1644163830.289164,-0.011536,0.007141,-0.988098,0.388794,0.569771,-0.14626,39,269,585,5552
1644163830.337569,-0.010437,0.010498,-0.992432,0.312458,0.523969,-0.14626,51,276,583,5648
1644163830.385969,-0.009521,0.010681,-0.991211,0.312458,0.371298,-0.115725,46,266,578,5600
1644163830.434698,-0.01123,0.010315,-0.993408,0.129252,0.356031,-0.130992,48,271,576,5552
1644163830.483565,-0.008484,0.007446,-0.993103,0.175053,0.386565,-0.192061,48,276,580,5536
1644163830.534114,-0.008972,0.010498,-0.990845,0.419328,0.462901,-0.176794,53,266,585,5536
1644163830.584912,-0.010742,0.01062,-0.991089,0.251389,0.325496,-0.054656,46,266,573,5632
1644163830.676319,-0.011475,0.007751,-0.98938,0.113985,0.264427,-0.100458,49,270,565,5600
1644163830.724919,-0.011108,0.008179,-0.992065,0.281924,0.478168,-0.207328,52,277,568,5648
1644163830.773097,-0.010132,0.006226,-0.989746,0.281924,0.401832,-0.100458,48,264,573,5584
1644163830.821464,-0.007385,0.007935,-0.989929,0.251389,0.386565,-0.14626,59,280,570,5584
1644163830.869912,-0.008789,0.008057,-0.990601,0.297191,0.478168,-0.176794,39,286,571,5552
1644163830.918309,-0.011292,0.009949,-0.995483,0.144519,0.294962,-0.069924,51,276,576,5584
1644163830.966675,-0.010193,0.010986,-0.990417,0.159786,0.554504,-0.024122,55,274,578,5584
1644163831.015122,-0.011108,0.007996,-0.992737,0.297191,0.279695,-0.14626,47,268,582,5600
1644163831.064106,-0.009949,0.009399,-0.98938,0.297191,0.554504,-0.222595,49,270,575,5632
1644163831.111879,-0.012573,0.009644,-0.990479,0.480397,0.386565,-0.115725,55,283,580,5600
1644163831.160219,-0.006653,0.008911,-0.994202,0.419328,0.508702,-0.130992,48,266,578,5584
1644163831.208609,-0.011597,0.010681,-0.98999,0.281924,0.340763,-0.039389,55,274,569,5536
1644163831.256997,-0.009949,0.008667,-0.993652,0.190321,0.493435,-0.085191,51,288,580,5536
1644163831.305389,-0.011292,0.010071,-0.98938,0.327725,0.310229,-0.039389,45,273,570,5584
1644163831.353785,-0.01001,0.009094,-0.989441,0.404061,0.386565,-0.100458,47,280,568,5552
1644163831.402178,-0.010925,0.011902,-0.992493,0.220855,0.371298,-0.039389,52,282,575,5632
1644163831.450534,-0.010132,0.010864,-0.990845,0.175053,0.447634,-0.039389,61,260,582,5600
1644163831.49892,-0.009521,0.009949,-0.991089,0.266656,0.371298,-0.192061,61,273,570,5600
1644163831.547339,-0.009583,0.009033,-0.989807,0.129252,0.401832,-0.039389,49,275,575,5632
1644163831.596105,-0.009277,0.009888,-0.994019,0.236122,0.432366,-0.085191,47,268,577,5472
1644163831.646329,-0.008911,0.008789,-0.991699,0.129252,0.340763,-0.054656,51,271,576,5600
1644163831.696537,-0.011292,0.008484,-0.991943,0.159786,0.447634,-0.024122,61,280,584,5648
1644163831.741572,-0.01001,0.010315,-0.994019,0.175053,0.447634,-0.115725,48,269,564,5536
1644163831.837659,-0.010071,0.010254,-0.993225,0.236122,0.508702,0.006412,49,273,572,5648
1644163831.886076,-0.010559,0.008057,-0.990784,0.297191,0.585038,-0.25313,48,276,569,5536
1644163831.934509,-0.011292,0.009949,-0.994629,0.08345,0.417099,-0.237863,48,271,578,5584
1644163831.982897,-0.008179,0.010193,-0.996582,0.113985,0.478168,-0.14626,52,275,572,5536
1644163832.031289,-0.00708,0.006836,-0.990479,0.236122,0.371298,-0.207328,45,280,577,5648
1644163832.080816,-0.012939,0.013916,-0.992188,0.205588,0.493435,-0.039389,60,271,580,5584
1644163832.12808,-0.006958,0.009827,-0.992004,0.236122,0.539237,-0.222595,54,275,570,5600
1644163832.176422,-0.01178,0.00946,-0.993896,0.327725,0.386565,-0.130992,47,268,570,5552
1644163832.224833,-0.012146,0.011658,-0.992004,0.327725,0.569771,-0.14626,40,282,575,5456
1644163832.273203,-0.012085,0.009705,-0.99292,0.098718,0.356031,-0.115725,54,277,577,5600
1644163832.321592,-0.008667,0.011475,-0.993286,0.266656,0.615573,0.036947,51,269,578,5584
1644163832.369967,-0.01062,0.010071,-0.993286,0.08345,0.386565,-0.115725,40,280,572,5536
1644163832.418359,-0.013977,0.007446,-0.992737,0.175053,0.24916,0.021679,53,274,580,5648
1644163832.466755,-0.010864,0.007141,-0.991699,0.297191,0.417099,-0.039389,58,266,587,5552
1644163832.515191,-0.010803,0.00885,-0.992737,0.205588,0.371298,0.036947,52,277,577,5552
1644163832.563547,-0.009216,0.007935,-0.994141,0.251389,0.356031,0.021679,58,271,571,5648
1644163832.61194,-0.010376,0.006042,-0.99231,0.312458,0.462901,-0.283664,58,276,578,5536
1644163832.660527,-0.01123,0.01123,-0.989807,0.251389,0.447634,-0.008855,47,268,579,5600
1644163832.711172,-0.010803,0.009705,-0.992798,0.175053,0.371298,-0.069924,52,282,572,5536
1644163832.761249,-0.011475,0.01062,-0.991699,0.251389,0.432366,-0.14626,49,275,586,5584
1644163832.806391,-0.00824,0.008423,-0.991455,0.098718,0.24916,-0.024122,51,262,573,5520
1644163832.902436,-0.01239,0.008423,-0.992737,0.266656,0.310229,-0.130992,57,275,579,5648
1644163832.950686,-0.010193,0.007996,-0.990784,0.404061,0.417099,-0.176794,43,262,564,5584
1644163832.999079,-0.009827,0.008057,-0.993042,0.266656,0.478168,-0.039389,45,268,577,5648
1644163833.055671,-0.010254,0.010742,-0.990967,0.297191,0.371298,-0.054656,48,274,576,5536
1644163833.09586,-0.010193,0.008118,-0.990601,0.266656,0.356031,-0.039389,46,281,576,5632
1644163833.144261,-0.011108,0.00647,-0.994568,0.266656,0.356031,-0.085191,60,274,571,5600
1644163833.192671,-0.011353,0.007874,-0.989319,0.373527,0.478168,-0.192061,52,273,570,5584
1644163833.241052,-0.009399,0.007507,-0.99115,0.404061,0.356031,-0.008855,51,274,573,5584
1644163833.289439,-0.010803,0.010071,-0.992615,0.281924,0.371298,-0.054656,65,269,573,5552
1644163833.337797,-0.007019,0.010559,-0.990723,0.068183,0.264427,-0.237863,46,262,578,5536
1644163833.3862,-0.010254,0.009155,-0.992737,0.266656,0.24916,-0.069924,53,271,576,5536
1644163833.434725,-0.008545,0.010742,-0.991333,0.404061,0.493435,0.143817,59,277,572,5600
1644163833.483001,-0.01178,0.010437,-0.991699,0.266656,0.432366,-0.085191,49,285,577,5600
1644163833.531394,-0.008972,0.00824,-0.991333,0.098718,0.432366,-0.176794,65,274,573,5584
1644163833.579776,-0.009399,0.007507,-0.989502,0.266656,0.493435,-0.115725,54,265,584,5536
1644163833.628165,-0.014709,0.009155,-0.99408,0.266656,0.508702,-0.024122,55,257,578,5536
1644163833.676819,-0.008789,0.01001,-0.990479,0.404061,0.401832,-0.14626,46,271,583,5632
1644163833.725181,-0.012695,0.009583,-0.993958,0.236122,0.600305,0.036947,57,275,579,5648
1644163833.775402,-0.012451,0.006836,-0.993469,0.281924,0.279695,-0.207328,51,281,571,5584
1644163833.825685,-0.009583,0.013794,-0.992676,0.297191,0.294962,-0.176794,61,270,582,5584
1644163833.876205,-0.009155,0.011536,-0.991882,0.281924,0.554504,-0.161527,49,275,577,5648
1644163833.96688,-0.011047,0.009521,-0.992371,0.098718,0.401832,-0.085191,54,270,579,5536
1644163834.015424,-0.009766,0.007263,-0.993652,0.236122,0.417099,0.098015,60,269,573,5584
1644163834.06568,-0.010193,0.007751,-0.993469,0.144519,0.325496,-0.192061,52,277,582,5584
1644163834.112017,-0.00946,0.010437,-0.990662,0.266656,0.386565,-0.115725,55,276,587,5520
1644163834.160421,-0.009827,0.009827,-0.989319,0.35826,0.264427,-0.192061,46,264,566,5536
1644163834.208788,-0.011047,0.007263,-0.994385,0.236122,0.356031,-0.130992,45,263,575,5552
1644163834.257181,-0.010986,0.009583,-0.993042,0.220855,0.508702,-0.100458,49,273,579,5536
1644163834.305588,-0.01001,0.010376,-0.99231,0.327725,0.417099,0.021679,49,270,565,5536
1644163834.353989,-0.011353,0.007568,-0.990784,0.312458,0.508702,-0.130992,49,270,579,5536
1644163834.402347,-0.009583,0.012146,-0.990967,0.251389,0.310229,-0.008855,54,275,570,5552
1644163834.450761,-0.008362,0.007141,-0.989868,0.434595,0.401832,0.036947,61,277,579,5552
1644163834.499125,-0.008179,0.009033,-0.994263,0.205588,0.386565,-0.069924,46,274,585,5584
1644163834.547546,-0.009827,0.010986,-0.991577,0.159786,0.523969,-0.283664,45,282,582,5584
1644163834.5959,-0.007202,0.011475,-0.99231,0.205588,0.356031,-0.085191,58,271,583,5584
1644163834.64433,-0.008972,0.009155,-0.99054,0.281924,0.294962,-0.207328,48,276,569,5552
1644163834.692732,-0.010254,0.008606,-0.993347,0.220855,0.340763,-0.268397,54,275,582,5584
1644163834.741122,-0.012207,0.009827,-0.99292,0.236122,0.447634,-0.069924,57,268,579,5552
1644163834.789536,-0.006165,0.011169,-0.990723,0.297191,0.447634,-0.069924,51,269,587,5552
1644163834.837937,-0.013123,0.009644,-0.98999,0.281924,0.340763,-0.008855,47,277,579,5600
1644163834.88741,-0.010681,0.009644,-0.989746,0.129252,0.401832,-0.039389,45,275,584,5552
1644163834.937428,-0.011047,0.010803,-0.991577,0.220855,0.417099,-0.024122,58,281,585,5648
1644163834.987918,-0.008057,0.009216,-0.990906,0.129252,0.417099,-0.100458,62,266,566,5552
1644163835.082833,-0.010376,0.007019,-0.992065,0.251389,0.478168,-0.14626,53,269,585,5648
1644163835.128211,-0.010132,0.009521,-0.989929,0.159786,0.310229,-0.069924,58,283,576,5552
1644163835.176606,-0.010437,0.007874,-0.991516,0.312458,0.478168,-0.069924,47,263,582,5584
1644163835.225038,-0.008789,0.009888,-0.99115,0.190321,0.478168,-0.100458,46,269,576,5488
1644163835.273402,-0.009705,0.009766,-0.990356,0.205588,0.386565,-0.192061,46,266,580,5584
1644163835.321783,-0.011658,0.010498,-0.995972,0.342992,0.401832,-0.069924,62,276,580,5584
1644163835.370169,-0.010864,0.010132,-0.993042,0.159786,0.310229,0.021679,39,274,576,5552
1644163835.418568,-0.009827,0.01001,-0.991455,0.113985,0.340763,-0.130992,53,269,571,5552
1644163835.466955,-0.010864,0.01001,-0.993164,0.113985,0.447634,0.067481,54,277,586,5536
1644163835.515349,-0.010132,0.010132,-0.994812,0.327725,0.356031,-0.115725,52,285,572,5600
1644163835.563751,-0.010986,0.011963,-0.991943,0.175053,0.462901,-0.176794,47,275,575,5552
1644163835.612235,-0.012939,0.0047,-0.991516,0.144519,0.493435,-0.161527,53,279,569,5632
1644163835.660487,-0.009949,0.008728,-0.99054,0.266656,0.310229,-0.176794,53,271,573,5584
1644163835.708908,-0.011597,0.008057,-0.991089,0.251389,0.417099,0.006412,58,276,578,5648
1644163835.757293,-0.011169,0.012268,-0.991455,0.159786,0.478168,-0.14626,57,280,579,5552
1644163835.805718,-0.010376,0.012146,-0.992432,0.251389,0.371298,-0.085191,55,264,585,5536
1644163835.854132,-0.009521,0.008545,-0.992004,0.113985,0.340763,-0.115725,40,270,579,5552
1644163835.902653,-0.01001,0.007874,-0.993591,0.373527,0.310229,-0.237863,45,273,577,5600
1644163835.953164,-0.007874,0.009277,-0.990784,0.159786,0.539237,-0.039389,57,268,579,5648
1644163836.003737,-0.011292,0.008789,-0.993286,0.236122,0.401832,-0.130992,52,268,584,5584
1644163836.096014,-0.010071,0.008606,-0.991699,0.449863,0.371298,-0.054656,51,271,578,5584
1644163836.144422,-0.010193,0.009827,-0.99408,0.220855,0.279695,-0.024122,49,275,579,5584
1644163836.192827,-0.008972,0.009949,-0.990723,0.220855,0.432366,-0.130992,52,268,575,5584
1644163836.241205,-0.01416,0.010315,-0.991028,0.327725,0.386565,-0.192061,60,274,569,5648
1644163836.289554,-0.011719,0.009949,-0.991455,0.281924,0.462901,-0.192061,45,265,577,5600
1644163836.337972,-0.008972,0.010498,-0.991211,0.220855,0.340763,-0.054656,53,274,564,5600
1644163836.386371,-0.011536,0.010254,-0.993347,0.236122,0.294962,-0.024122,42,277,575,5552
1644163836.434805,-0.009277,0.008667,-0.99176,0.342992,0.401832,-0.115725,47,270,570,5520
1644163836.483147,-0.009399,0.009949,-0.991272,0.144519,0.340763,-0.054656,52,277,568,5632
1644163836.531543,-0.010437,0.00769,-0.991516,0.144519,0.264427,-0.100458,48,276,573,5488
1644163836.579931,-0.010864,0.008789,-0.991333,0.373527,0.432366,-0.222595,54,260,575,5632
1644163836.628326,-0.010254,0.009216,-0.993103,0.327725,0.493435,-0.100458,51,281,576,5584
1644163836.676723,-0.00885,0.009827,-0.991943,0.342992,0.417099,-0.039389,52,290,579,5600
1644163836.725181,-0.010376,0.008118,-0.990967,0.175053,0.310229,-0.085191,53,266,576,5584
1644163836.773487,-0.010132,0.006836,-0.991272,0.205588,0.386565,-0.207328,51,276,576,5584
1644163836.822246,-0.010193,0.007996,-0.992188,0.159786,0.432366,0.021679,53,269,569,5584
1644163836.871189,-0.009949,0.008057,-0.993286,0.312458,0.340763,-0.024122,60,276,573,5552
1644163836.921348,-0.009644,0.008362,-0.995361,0.159786,0.386565,-0.14626,57,273,577,5552
1644163836.971564,-0.015076,0.009216,-0.99292,0.144519,0.371298,0.021679,48,266,573,5552
1644163837.016253,-0.009277,0.007385,-0.992188,0.236122,0.508702,-0.069924,49,265,575,5584
1644163837.112497,-0.009521,0.012451,-0.995117,0.159786,0.417099,-0.069924,61,277,570,5584
1644163837.160617,-0.011169,0.010742,-0.98938,0.144519,0.417099,-0.14626,52,263,577,5584
1644163837.208994,-0.010071,0.009705,-0.994202,0.175053,0.447634,-0.161527,51,262,576,5552
1644163837.257381,-0.014954,0.010071,-0.99115,0.297191,0.310229,0.067481,51,276,578,5600
1644163837.305776,-0.012756,0.008728,-0.990845,0.266656,0.523969,-0.024122,51,271,576,5536
1644163837.354155,-0.009277,0.008057,-0.991089,0.205588,0.371298,0.036947,55,281,576,5584
1644163837.402584,-0.012756,0.00769,-0.99176,0.404061,0.294962,-0.130992,60,271,573,5552
1644163837.450958,-0.010742,0.008545,-0.993408,0.404061,0.386565,0.021679,42,275,582,5600
1644163837.499326,-0.011292,0.01123,-0.990723,0.312458,0.325496,-0.039389,55,281,571,5552
1644163837.547737,-0.011902,0.009705,-0.99231,0.220855,0.417099,-0.069924,53,271,578,5600
1644163837.596127,-0.010193,0.006653,-0.990967,0.236122,0.356031,-0.054656,55,286,578,5584
1644163837.644535,-0.010681,0.009033,-0.994507,0.251389,0.371298,0.052214,45,268,568,5664
1644163837.692922,-0.009399,0.009155,-0.991028,0.266656,0.401832,0.021679,62,271,576,5552
1644163837.74129,-0.012695,0.010498,-0.99469,0.113985,0.432366,-0.14626,48,274,569,5584
1644163837.789683,-0.011597,0.008301,-0.994873,0.266656,0.478168,-0.069924,52,273,572,5632
1644163837.83813,-0.008911,0.008606,-0.993225,0.144519,0.493435,-0.115725,65,274,578,5584
1644163837.886513,-0.010376,0.006836,-0.991638,0.220855,0.523969,-0.192061,51,274,578,5600
1644163837.93529,-0.012634,0.009033,-0.992432,0.281924,0.539237,-0.130992,34,279,587,5584
1644163837.983314,-0.010803,0.009155,-0.992859,0.220855,0.432366,-0.14626,48,279,576,5584
1644163838.044024,-0.011169,0.011475,-0.99115,0.281924,0.325496,-0.039389,51,276,573,5584
1644163838.085242,-0.010071,0.010559,-0.993347,0.434595,0.432366,-0.100458,54,275,579,5536
1644163838.129137,-0.007446,0.011902,-0.991272,0.251389,0.523969,-0.14626,55,269,576,5584
1644163838.22539,-0.010681,0.010437,-0.990112,0.236122,0.493435,-0.024122,57,275,575,5584
1644163838.273598,-0.013306,0.007751,-0.995117,0.327725,0.493435,-0.085191,52,263,568,5536
1644163838.32197,-0.013489,0.009949,-0.990906,0.312458,0.447634,-0.054656,53,281,576,5600
1644163838.370376,-0.010132,0.009155,-0.990906,0.220855,0.432366,0.036947,55,279,578,5600
1644163838.418756,-0.010315,0.010254,-0.989197,0.144519,0.63084,-0.115725,49,265,572,5584
1644163838.467127,-0.009705,0.012573,-0.994263,0.251389,0.386565,-0.14626,47,275,572,5600
1644163838.515536,-0.011169,0.00769,-0.990723,0.236122,0.462901,-0.176794,52,275,568,5648
1644163838.563944,-0.011475,0.011719,-0.994446,0.266656,0.386565,-0.100458,52,268,572,5584
1644163838.612331,-0.010254,0.008179,-0.993408,0.052916,0.264427,-0.024122,42,268,577,5632
1644163838.660724,-0.011963,0.005981,-0.99353,0.175053,0.356031,-0.024122,54,277,584,5552
1644163838.709098,-0.013916,0.006958,-0.993896,0.281924,0.493435,-0.069924,47,273,565,5536
1644163838.757488,-0.01178,0.009094,-0.991943,0.388794,0.325496,-0.039389,57,277,582,5648
1644163838.805877,-0.009766,0.008545,-0.993042,0.266656,0.325496,-0.14626,57,277,584,5584
1644163838.854319,-0.010315,0.008667,-0.993591,0.129252,0.294962,0.067481,52,270,579,5584
1644163838.902714,-0.007812,0.006714,-0.990356,0.190321,0.310229,-0.054656,52,277,582,5536
1644163838.95109,-0.010925,0.011719,-0.991272,0.129252,0.417099,-0.085191,49,270,584,5584
1644163838.999463,-0.008972,0.010193,-0.993347,0.312458,0.462901,-0.069924,57,273,577,5520
1644163839.065659,-0.010803,0.010376,-0.994019,0.297191,0.447634,0.006412,52,263,579,5584
1644163839.096267,-0.011597,0.009949,-0.98999,0.129252,0.356031,-0.176794,43,274,569,5584
1644163839.146923,-0.008179,0.009827,-0.991089,0.236122,0.462901,-0.176794,61,275,572,5632
1644163839.195171,-0.012451,0.008972,-0.990906,0.113985,0.462901,-0.115725,58,266,578,5648
1644163839.245388,-0.010254,0.010681,-0.990601,0.266656,0.432366,-0.115725,48,274,569,5488
1644163839.290521,-0.009521,0.007751,-0.99115,0.251389,0.401832,-0.130992,51,271,571,5648
1644163839.386553,-0.012634,0.010681,-0.990234,0.434595,0.462901,-0.192061,43,264,573,5584
1644163839.435311,-0.012573,0.007324,-0.99292,0.236122,0.325496,-0.176794,51,276,573,5600
1644163839.483367,-0.011475,0.010498,-0.992737,0.266656,0.371298,0.006412,53,276,578,5536
1644163839.531735,-0.011414,0.010742,-0.993042,0.08345,0.279695,-0.024122,49,273,570,5584
1644163839.580139,-0.011902,0.008484,-0.992859,0.144519,0.356031,-0.161527,53,279,566,5584
1644163839.628511,-0.013,0.008118,-0.993042,0.144519,0.493435,-0.14626,47,260,586,5584
1644163839.676908,-0.011353,0.007874,-0.994568,0.327725,0.340763,-0.054656,54,268,577,5600
1644163839.725288,-0.010803,0.007996,-0.992004,0.419328,0.371298,-0.085191,49,275,572,5552
1644163839.773694,-0.01001,0.007263,-0.994324,0.159786,0.340763,-0.115725,47,275,577,5584
1644163839.822084,-0.009644,0.008728,-0.990601,0.297191,0.523969,-0.024122,49,282,584,5600
1644163839.870513,-0.010315,0.007751,-0.99176,0.236122,0.417099,-0.024122,47,277,582,5536
1644163839.918896,-0.012451,0.008301,-0.992249,0.251389,0.585038,-0.100458,47,270,582,5600
1644163839.967284,-0.013489,0.011108,-0.992737,0.342992,0.340763,-0.054656,48,276,573,5552
1644163840.015675,-0.012085,0.007568,-0.993164,0.373527,0.569771,-0.085191,55,266,587,5696
1644163840.075429,-0.009216,0.007263,-0.993713,0.449863,0.417099,-0.222595,52,277,575,5584
1644163840.112488,-0.010254,0.009521,-0.99408,0.205588,0.371298,-0.161527,47,277,575,5584
1644163840.160863,-0.011536,0.010254,-0.996094,0.297191,0.417099,-0.039389,49,282,582,5552
1644163840.209362,-0.009949,0.006958,-0.993042,0.205588,0.386565,0.036947,59,263,579,5536
1644163840.259702,-0.010437,0.01123,-0.992676,0.236122,0.447634,-0.14626,48,276,597,5584
1644163840.310332,-0.010864,0.01178,-0.988647,0.312458,0.432366,-0.268397,43,274,576,5536
1644163840.358019,-0.010437,0.009155,-0.993469,0.220855,0.508702,-0.008855,52,270,582,5584
1644163840.451189,-0.011841,0.010803,-0.992859,0.327725,0.508702,-0.054656,41,276,578,5584
1644163840.499589,-0.009521,0.009094,-0.99176,0.388794,0.340763,-0.161527,53,274,571,5648
1644163840.547971,-0.01239,0.006836,-0.992859,0.266656,0.462901,-0.008855,55,271,580,5552
1644163840.59637,-0.010986,0.009766,-0.992554,0.190321,0.386565,-0.039389,42,273,579,5584
1644163840.644755,-0.015076,0.009033,-0.993408,0.098718,0.447634,-0.100458,65,279,580,5536
1644163840.693123,-0.010132,0.007874,-0.991699,0.220855,0.356031,0.021679,48,281,576,5520
1644163840.74153,-0.008911,0.009583,-0.994751,0.281924,0.447634,0.036947,43,271,576,5584
1644163840.789908,-0.012024,0.008606,-0.992798,0.236122,0.417099,-0.161527,39,269,573,5648
1644163840.838323,-0.009766,0.009644,-0.991882,0.205588,0.462901,-0.130992,48,269,576,5664
1644163840.886717,-0.010803,0.008911,-0.991943,0.327725,0.340763,-0.130992,49,273,570,5584
1644163840.93521,-0.013489,0.011902,-0.993835,0.327725,0.462901,-0.039389,43,274,580,5600
1644163840.983506,-0.009338,0.009705,-0.990601,0.190321,0.539237,-0.161527,53,269,576,5600
1644163841.0319,-0.009521,0.010437,-0.992676,0.190321,0.386565,-0.085191,52,273,582,5584
1644163841.083264,-0.010193,0.008545,-0.993896,0.190321,0.340763,-0.085191,58,276,562,5648
1644163841.128658,-0.01001,0.007812,-0.991943,0.327725,0.24916,0.036947,48,271,580,5600
1644163841.177044,-0.011108,0.008118,-0.992676,0.297191,0.432366,-0.161527,46,271,576,5536
1644163841.225434,-0.011841,0.00769,-0.992859,0.342992,0.310229,-0.161527,58,269,576,5584
1644163841.27415,-0.013062,0.007202,-0.991699,0.144519,0.493435,0.082748,49,273,570,5600
1644163841.322565,-0.009888,0.010986,-0.992126,0.129252,0.417099,-0.115725,51,269,566,5536
1644163841.373327,-0.009399,0.010681,-0.989624,0.281924,0.386565,-0.024122,57,270,579,5600
1644163841.423826,-0.008728,0.007935,-0.99231,0.297191,0.401832,-0.069924,52,277,575,5632
1644163841.46824,-0.00824,0.010193,-0.989929,0.144519,0.493435,-0.161527,53,264,580,5600
1644163841.564214,-0.007568,0.011475,-0.989563,0.220855,0.401832,-0.100458,51,269,573,5584
1644163841.612571,-0.01001,0.01062,-0.992798,0.281924,0.447634,-0.008855,47,275,575,5648
1644163841.660927,-0.008179,0.009094,-0.992371,0.236122,0.401832,0.021679,48,274,585,5584
1644163841.709332,-0.013672,0.01062,-0.991089,0.281924,0.401832,-0.008855,61,280,582,5584
1644163841.757708,-0.007263,0.010437,-0.990845,0.312458,0.401832,-0.192061,53,271,583,5600
1644163841.806123,-0.010193,0.009033,-0.992432,0.251389,0.478168,-0.130992,47,275,572,5584
1644163841.854532,-0.008118,0.010925,-0.991516,0.190321,0.386565,-0.222595,54,270,575,5648
1644163841.90293,-0.009827,0.010803,-0.990845,0.113985,0.371298,0.006412,46,269,569,5536
1644163841.951284,-0.009277,0.011597,-0.99292,0.113985,0.401832,-0.008855,48,279,566,5632
1644163841.999669,-0.007996,0.007874,-0.992554,0.190321,0.432366,0.006412,45,275,575,5584
1644163842.053301,-0.013,0.008911,-0.993042,0.190321,0.371298,-0.130992,58,269,569,5632
1644163842.096436,-0.010315,0.008667,-0.992249,0.312458,0.401832,-0.085191,53,271,576,5536
1644163842.144806,-0.005981,0.007629,-0.99054,0.404061,0.493435,-0.222595,48,269,580,5552
1644163842.193209,-0.010437,0.009338,-0.990784,0.281924,0.356031,-0.115725,52,280,577,5584
1644163842.241599,-0.008423,0.009155,-0.989807,0.205588,0.417099,-0.100458,59,263,584,5584
1644163842.289998,-0.012817,0.008606,-0.99176,0.373527,0.493435,-0.192061,54,263,582,5584
1644163842.338376,-0.012085,0.010925,-0.993103,0.251389,0.310229,-0.161527,53,266,578,5648
1644163842.386991,-0.010437,0.007874,-0.991394,0.312458,0.279695,0.021679,40,275,575,5632
1644163842.435922,-0.008301,0.009949,-0.99231,0.068183,0.462901,-0.130992,52,273,577,5584
1644163842.487697,-0.010071,0.008667,-0.99115,0.190321,0.493435,0.006412,47,270,577,5584
1644163842.536584,-0.006958,0.012329,-0.991516,0.236122,0.417099,-0.268397,58,264,585,5584
1644163842.581503,-0.011292,0.008789,-0.99353,0.251389,0.401832,0.067481,51,279,576,5600
1644163842.677086,-0.010071,0.006531,-0.991821,0.388794,0.233893,-0.115725,49,277,579,5584
1644163842.725484,-0.008179,0.008972,-0.991882,0.266656,0.371298,-0.14626,42,270,575,5648
1644163842.7739,-0.007446,0.010864,-0.992798,0.327725,0.508702,-0.085191,55,271,571,5584
1644163842.822426,-0.011475,0.011047,-0.994019,0.236122,0.493435,-0.008855,47,273,577,5648
1644163842.870703,-0.008362,0.012695,-0.994446,0.236122,0.371298,-0.222595,52,277,577,5632
1644163842.919105,-0.011902,0.010864,-0.991638,0.220855,0.356031,-0.130992,41,271,576,5584
1644163842.967489,-0.010864,0.009827,-0.991211,0.297191,0.417099,-0.039389,51,276,573,5552
1644163843.01589,-0.011902,0.008118,-0.993103,0.236122,0.386565,-0.14626,52,273,579,5600
1644163843.070429,-0.009949,0.008179,-0.99353,0.281924,0.294962,-0.130992,49,287,586,5584
1644163843.112635,-0.01062,0.011292,-0.994202,0.205588,0.539237,-0.161527,48,271,578,5600
1644163843.161004,-0.005737,0.00946,-0.989868,0.312458,0.279695,-0.100458,46,274,578,5600
1644163843.20941,-0.00946,0.008728,-0.99292,0.068183,0.325496,-0.054656,52,263,579,5648
1644163843.257771,-0.005554,0.011536,-0.991577,0.236122,0.432366,-0.130992,51,274,571,5536
1644163843.306185,-0.006897,0.007263,-0.99054,0.281924,0.417099,-0.161527,47,277,577,5664
1644163843.35461,-0.012817,0.01001,-0.992065,0.266656,0.417099,-0.100458,59,268,575,5584
1644163843.402982,-0.009216,0.009277,-0.988708,0.266656,0.493435,-0.176794,67,269,580,5600
1644163843.451349,-0.007751,0.00708,-0.99115,0.129252,0.218626,-0.115725,55,271,564,5488
1644163843.499733,-0.008545,0.008667,-0.992432,0.266656,0.508702,-0.222595,52,260,582,5600
1644163843.548131,-0.01123,0.011047,-0.992737,0.159786,0.386565,-0.176794,52,282,577,5584
1644163843.59656,-0.01178,0.009705,-0.993286,0.434595,0.371298,0.021679,57,280,582,5600
1644163843.646763,-0.011536,0.010254,-0.992798,0.266656,0.523969,0.036947,59,280,586,5520
1644163843.697251,-0.010437,0.008057,-0.99176,0.35826,0.371298,-0.161527,45,285,577,5600
1644163843.742271,-0.01001,0.00946,-0.990112,0.266656,0.432366,-0.176794,48,269,573,5584
1644163843.838506,-0.009949,0.010498,-0.991882,0.266656,0.310229,-0.054656,49,280,579,5600
1644163843.886902,-0.01123,0.010254,-0.992065,0.251389,0.523969,-0.039389,41,279,583,5584
1644163843.935314,-0.009277,0.009338,-0.994141,0.144519,0.493435,-0.085191,48,269,573,5584
1644163843.983684,-0.00824,0.008911,-0.990601,0.281924,0.432366,-0.115725,46,274,569,5600
1644163844.032087,-0.010132,0.010193,-0.99408,0.266656,0.493435,-0.314198,52,273,572,5520
1644163844.083065,-0.011841,0.009827,-0.991394,0.220855,0.508702,-0.161527,46,279,569,5536
1644163844.128805,-0.011475,0.010071,-0.990417,0.251389,0.417099,-0.054656,54,263,582,5552
1644163844.177219,-0.007263,0.008118,-0.992737,0.281924,0.356031,0.021679,53,274,580,5600
1644163844.225606,-0.010986,0.009216,-0.99231,0.35826,0.508702,-0.085191,52,275,572,5648
1644163844.273959,-0.007874,0.009338,-0.992798,0.342992,0.478168,-0.176794,42,268,575,5536
1644163844.322362,-0.009216,0.008545,-0.993469,0.312458,0.294962,0.052214,39,279,576,5536
1644163844.370768,-0.012207,0.00946,-0.989197,0.236122,0.462901,-0.100458,52,280,582,5584
1644163844.419146,-0.007568,0.006409,-0.990723,0.388794,0.493435,-0.069924,59,270,582,5600
1644163844.467549,-0.009644,0.012146,-0.990967,0.037649,0.356031,-0.100458,58,274,564,5648
1644163844.515951,-0.009521,0.009888,-0.990051,0.251389,0.386565,-0.024122,53,279,578,5664
1644163844.564324,-0.01123,0.009033,-0.99115,0.281924,0.371298,-0.14626,54,275,570,5584
1644163844.612732,-0.007874,0.010376,-0.991821,0.35826,0.478168,-0.069924,58,266,571,5536
1644163844.661128,-0.009949,0.010315,-0.992859,0.159786,0.508702,-0.298931,46,271,573,5600
1644163844.710023,-0.013245,0.010559,-0.991211,0.266656,0.432366,-0.161527,55,269,576,5584
1644163844.760531,-0.010437,0.008606,-0.992188,0.144519,0.340763,-0.115725,47,280,577,5584
1644163844.810697,-0.009827,0.009216,-0.990173,0.342992,0.417099,0.021679,49,273,582,5584
1644163844.856143,-0.011169,0.00708,-0.99292,0.159786,0.478168,0.006412,52,280,570,5600
1644163844.951487,-0.010071,0.008789,-0.991821,0.175053,0.432366,-0.14626,49,275,577,5552
1644163844.99988,-0.010376,0.009583,-0.990356,0.175053,0.493435,-0.222595,48,269,576,5632
1644163845.055844,-0.010071,0.008911,-0.991516,0.251389,0.417099,-0.054656,49,273,572,5648
1644163845.096597,-0.008301,0.012207,-0.990417,0.236122,0.585038,-0.039389,47,268,575,5584
1644163845.145049,-0.012878,0.01062,-0.990906,0.297191,0.325496,-0.039389,46,271,576,5552
1644163845.193404,-0.012268,0.011841,-0.990417,0.236122,0.432366,-0.100458,42,268,575,5552
1644163845.241796,-0.012207,0.009521,-0.993408,0.281924,0.539237,-0.039389,46,271,576,5600
1644163845.290162,-0.01355,0.009155,-0.992188,0.35826,0.401832,-0.268397,48,274,576,5648
1644163845.338574,-0.010254,0.006104,-0.991882,0.480397,0.233893,-0.161527,59,275,577,5584
1644163845.386964,-0.012268,0.01062,-0.991394,0.175053,0.661374,-0.115725,51,271,571,5536
1644163845.435359,-0.010498,0.01123,-0.991089,0.098718,0.371298,-0.054656,55,274,576,5648
1644163845.483754,-0.01001,0.010864,-0.991577,0.388794,0.493435,-0.008855,52,275,577,5584
1644163845.532208,-0.009521,0.01178,-0.991821,0.297191,0.325496,0.021679,48,276,578,5600
1644163845.580516,-0.013062,0.012024,-0.990906,0.251389,0.508702,-0.130992,42,277,577,5648
1644163845.628907,-0.011536,0.007874,-0.990173,0.159786,0.493435,-0.329466,54,277,579,5584
1644163845.677299,-0.01123,0.009949,-0.990967,0.281924,0.493435,-0.100458,53,276,573,5536
1644163845.725697,-0.012085,0.00946,-0.992615,0.159786,0.478168,-0.024122,47,273,577,5648
1644163845.774111,-0.010864,0.010742,-0.991455,0.190321,0.493435,-0.176794,52,287,584,5600
1644163845.823933,-0.009338,0.007141,-0.992615,0.281924,0.569771,-0.283664,49,270,577,5584
1644163845.875266,-0.010864,0.009521,-0.991638,0.236122,0.447634,-0.161527,46,274,585,5632
1644163845.919654,-0.009216,0.01062,-0.991516,0.266656,0.523969,-0.25313,52,273,577,5648
1644163846.016052,-0.009644,0.006836,-0.994141,0.266656,0.447634,-0.237863,54,282,570,5584
1644163846.064522,-0.010071,0.009766,-0.990784,0.113985,0.417099,-0.069924,51,274,580,5584
1644163846.112844,-0.01123,0.010498,-0.99054,0.129252,0.432366,-0.069924,53,286,573,5536
1644163846.161176,-0.010681,0.009705,-0.98938,0.297191,0.401832,-0.039389,45,273,577,5584
1644163846.20959,-0.009094,0.011597,-0.992065,0.297191,0.325496,-0.130992,55,276,573,5552
1644163846.257965,-0.009583,0.007324,-0.993225,0.251389,0.386565,-0.207328,41,279,571,5584
1644163846.306369,-0.006104,0.007935,-0.99115,0.175053,0.539237,-0.054656,55,274,585,5536
1644163846.354782,-0.008057,0.009216,-0.990051,0.266656,0.539237,-0.14626,42,282,579,5536
1644163846.403166,-0.012207,0.009155,-0.993713,0.327725,0.294962,-0.115725,47,270,572,5584
1644163846.451555,-0.012207,0.007996,-0.992798,0.144519,0.325496,-0.100458,54,273,582,5600
1644163846.499907,-0.01001,0.009033,-0.992188,0.35826,0.294962,-0.054656,48,271,566,5648
1644163846.548328,-0.014526,0.010437,-0.993713,0.144519,0.493435,-0.085191,49,268,582,5552
1644163846.59672,-0.007996,0.009399,-0.991943,0.35826,0.417099,0.006412,48,281,571,5552
1644163846.645212,-0.009644,0.009277,-0.990967,0.266656,0.539237,0.067481,53,274,580,5584
1644163846.693512,-0.010132,0.010498,-0.98999,0.236122,0.432366,0.036947,40,285,568,5600
1644163846.741892,-0.010559,0.009949,-0.990601,0.220855,0.356031,-0.115725,42,263,568,5632
1644163846.790279,-0.009094,0.006653,-0.991577,0.08345,0.401832,-0.14626,54,270,582,5600
1644163846.838721,-0.012573,0.008789,-0.992371,0.266656,0.417099,-0.222595,48,266,580,5584
1644163846.887115,-0.01062,0.00946,-0.99408,0.113985,0.310229,-0.039389,51,281,573,5632
1644163846.93623,-0.010132,0.006653,-0.990906,0.266656,0.462901,-0.100458,46,269,571,5600
1644163846.986579,-0.01062,0.012146,-0.989563,0.342992,0.371298,-0.085191,54,277,586,5632
1644163847.080645,-0.006714,0.012817,-0.991455,0.175053,0.539237,-0.115725,61,270,575,5584
1644163847.129055,-0.011963,0.009399,-0.991211,0.342992,0.371298,-0.008855,53,281,564,5600
1644163847.177402,-0.012878,0.009583,-0.994507,0.266656,0.447634,-0.115725,46,266,578,5600
1644163847.225795,-0.010376,0.008423,-0.992065,0.220855,0.493435,-0.268397,41,264,569,5584
1644163847.274204,-0.010498,0.009949,-0.992188,0.251389,0.371298,0.036947,51,276,562,5632
1644163847.322601,-0.009033,0.010681,-0.990356,0.281924,0.371298,-0.054656,47,282,575,5584
1644163847.370971,-0.010681,0.008728,-0.994324,0.220855,0.432366,-0.100458,47,277,572,5584
1644163847.419357,-0.00946,0.010986,-0.993042,0.342992,0.417099,-0.085191,52,268,577,5536
1644163847.467739,-0.010681,0.007019,-0.990356,0.281924,0.325496,-0.100458,55,271,578,5632
1644163847.516128,-0.009277,0.008606,-0.994507,0.175053,0.447634,-0.069924,48,274,585,5600
1644163847.564515,-0.008789,0.010803,-0.993042,0.220855,0.386565,0.098015,54,263,572,5552
1644163847.612924,-0.011292,0.010681,-0.990662,0.266656,0.371298,-0.024122,45,265,570,5632
1644163847.661309,-0.011475,0.008728,-0.990784,0.190321,0.371298,-0.008855,57,265,577,5600
1644163847.709697,-0.010742,0.011047,-0.989746,0.08345,0.279695,-0.054656,53,274,571,5584
1644163847.758062,-0.011658,0.008789,-0.991272,0.297191,0.493435,-0.069924,54,280,577,5632
1644163847.806473,-0.011963,0.007935,-0.99054,0.342992,0.325496,-0.25313,49,275,572,5536
1644163847.854905,-0.012329,0.007568,-0.990295,0.236122,0.310229,-0.161527,54,277,577,5584
1644163847.903322,-0.01178,0.008484,-0.992188,0.404061,0.676641,-0.14626,51,279,576,5552
1644163847.951863,-0.008667,0.01123,-0.994751,0.312458,0.478168,-0.176794,45,277,572,5536
1644163848.002073,-0.00885,0.009705,-0.99231,0.312458,0.417099,-0.130992,55,274,569,5584
1644163848.096829,-0.010132,0.010742,-0.991028,0.159786,0.340763,-0.024122,53,266,576,5584
1644163848.145549,-0.009949,0.010376,-0.992249,0.236122,0.417099,-0.130992,46,276,583,5584
1644163848.193612,-0.012756,0.011719,-0.990601,0.236122,0.447634,-0.085191,47,263,582,5536
1644163848.241992,-0.009827,0.00946,-0.990417,0.190321,0.508702,-0.14626,43,271,578,5584
1644163848.29036,-0.011108,0.010498,-0.991333,0.281924,0.432366,-0.115725,43,279,573,5536
1644163848.338776,-0.008545,0.008362,-0.992188,0.251389,0.432366,-0.161527,51,283,573,5584
1644163848.387172,-0.011169,0.01532,-0.994629,0.266656,0.554504,0.021679,46,271,576,5632
1644163848.435554,-0.009827,0.010986,-0.993164,0.35826,0.386565,-0.115725,59,277,582,5552
1644163848.483916,-0.012329,0.01062,-0.992493,0.266656,0.340763,-0.008855,49,277,577,5632
1644163848.532369,-0.011169,0.00885,-0.994568,0.327725,0.401832,-0.14626,59,282,582,5536
1644163848.580695,-0.010742,0.009766,-0.992371,0.129252,0.523969,-0.176794,46,274,576,5536
1644163848.629119,-0.009949,0.008789,-0.991821,0.297191,0.417099,-0.130992,53,264,576,5520
1644163848.67747,-0.010864,0.008545,-0.992554,0.35826,0.386565,-0.039389,47,268,579,5648
1644163848.725886,-0.008789,0.009216,-0.993652,0.129252,0.340763,-0.25313,47,275,586,5552
1644163848.77429,-0.007996,0.009338,-0.994934,0.175053,0.294962,-0.130992,49,265,582,5584
1644163848.822939,-0.012024,0.008484,-0.992981,0.327725,0.432366,-0.192061,55,269,569,5584
1644163848.874784,-0.012024,0.009277,-0.992126,0.327725,0.432366,-0.161527,49,268,584,5600
1644163848.924738,-0.012756,0.008972,-0.993774,0.236122,0.493435,0.021679,46,279,578,5552
1644163848.969116,-0.01001,0.013733,-0.992615,0.342992,0.508702,-0.115725,54,273,575,5536
1644163849.064907,-0.009155,0.008118,-0.994019,0.159786,0.371298,-0.176794,57,277,582,5648
1644163849.112997,-0.009094,0.012695,-0.990173,0.266656,0.462901,-0.130992,48,279,578,5584
1644163849.161409,-0.01123,0.008667,-0.992981,0.312458,0.401832,-0.115725,52,265,572,5536
1644163849.209795,-0.009766,0.010132,-0.990417,0.175053,0.447634,-0.161527,57,275,561,5584
1644163849.258172,-0.010986,0.010132,-0.990967,0.159786,0.554504,0.006412,48,266,573,5552
1644163849.306552,-0.01239,0.008667,-0.994507,0.236122,0.340763,-0.161527,47,268,570,5584
1644163849.355011,-0.008301,0.007385,-0.99176,0.220855,0.371298,-0.115725,46,279,576,5536
1644163849.403358,-0.013489,0.009216,-0.993103,0.175053,0.417099,-0.115725,58,274,573,5552
1644163849.451748,-0.007874,0.00824,-0.993591,0.236122,0.508702,-0.039389,52,270,586,5536
1644163849.500115,-0.009399,0.009644,-0.992188,0.297191,0.478168,-0.039389,58,279,578,5600
1644163849.548535,-0.013794,0.008179,-0.990967,0.205588,0.356031,-0.25313,46,264,569,5600
1644163849.596919,-0.010315,0.01001,-0.99231,0.388794,0.493435,-0.192061,41,276,569,5536
1644163849.645308,-0.010315,0.009216,-0.990906,0.236122,0.417099,-0.115725,48,271,580,5584
1644163849.693688,-0.008911,0.012329,-0.992798,0.251389,0.523969,-0.268397,54,263,582,5584
1644163849.742209,-0.010315,0.009216,-0.992126,0.236122,0.356031,-0.054656,49,277,575,5552
1644163849.790522,-0.00946,0.009338,-0.991638,0.159786,0.203359,-0.085191,61,280,579,5648
1644163849.838914,-0.010559,0.007568,-0.990356,0.205588,0.417099,-0.008855,47,285,582,5584
1644163849.887645,-0.010925,0.013489,-0.991455,0.327725,0.371298,-0.25313,48,271,571,5584
1644163849.935697,-0.010376,0.009033,-0.990906,0.175053,0.600305,-0.14626,57,280,579,5584
1644163849.98587,-0.013916,0.010254,-0.994263,0.342992,0.356031,-0.100458,57,275,575,5648
1644163850.08081,-0.009888,0.011108,-0.99292,0.327725,0.600305,-0.222595,52,273,582,5584
1644163850.129208,-0.011169,0.00885,-0.993713,0.205588,0.386565,-0.069924,49,275,575,5648
1644163850.177595,-0.012024,0.008789,-0.990051,0.236122,0.447634,-0.085191,45,265,575,5584
1644163850.225985,-0.012024,0.010559,-0.992004,0.220855,0.462901,0.036947,51,286,571,5600
1644163850.274386,-0.009583,0.005859,-0.991089,0.190321,0.371298,0.021679,55,269,573,5584
1644163850.322791,-0.010071,0.010071,-0.990601,0.35826,0.401832,0.006412,61,277,575,5536
1644163850.371156,-0.008423,0.007202,-0.990601,0.251389,0.386565,-0.085191,47,268,575,5584
1644163850.419551,-0.012268,0.010376,-0.991394,0.251389,0.294962,-0.14626,47,277,572,5584
1644163850.467941,-0.009521,0.008423,-0.990723,0.205588,0.478168,0.052214,45,270,570,5536
1644163850.516334,-0.009827,0.009644,-0.992859,0.312458,0.401832,-0.115725,53,279,573,5664
1644163850.564766,-0.009277,0.008545,-0.990601,0.220855,0.432366,-0.161527,48,262,564,5584
1644163850.613133,-0.008423,0.011169,-0.992676,0.236122,0.569771,-0.100458,48,271,578,5600
1644163850.661478,-0.010437,0.00769,-0.991394,0.342992,0.371298,-0.14626,51,271,571,5584
1644163850.709893,-0.012329,0.009827,-0.988831,0.327725,0.447634,0.052214,48,283,573,5552
1644163850.758288,-0.010742,0.011414,-0.990417,0.175053,0.356031,0.006412,54,277,582,5536
1644163850.806764,-0.009399,0.011292,-0.991577,0.159786,0.508702,-0.237863,49,273,582,5552
1644163850.855884,-0.009521,0.010254,-0.988159,0.281924,0.508702,-0.115725,49,275,577,5584
1644163850.906436,-0.010437,0.010986,-0.99231,0.281924,0.554504,-0.100458,52,268,582,5536
1644163850.95666,-0.009827,0.005005,-0.992615,0.251389,0.356031,-0.054656,51,274,573,5584
1644163851.001146,-0.01123,0.007202,-0.990845,0.129252,0.264427,0.021679,52,277,577,5536
1644163851.070863,-0.01062,0.013062,-0.992065,0.510931,0.432366,-0.054656,51,274,564,5584
1644163851.145834,-0.012146,0.010681,-0.992554,0.312458,0.447634,-0.176794,49,282,575,5600
1644163851.193783,-0.00885,0.009888,-0.992554,0.205588,0.478168,-0.161527,42,268,579,5664
1644163851.242213,-0.010254,0.008057,-0.991516,0.159786,0.371298,-0.008855,52,277,565,5552
1644163851.290584,-0.006897,0.01001,-0.993408,0.220855,0.310229,-0.054656,58,269,571,5552
1644163851.338975,-0.009949,0.010925,-0.991272,0.098718,0.447634,-0.237863,53,274,566,5536
1644163851.387359,-0.009766,0.006348,-0.990967,0.251389,0.386565,-0.14626,55,262,573,5584
1644163851.435743,-0.010681,0.009644,-0.992188,0.022382,0.554504,-0.161527,46,279,587,5584
1644163851.484152,-0.012695,0.006409,-0.990784,0.297191,0.462901,-0.039389,47,285,572,5600
1644163851.532548,-0.010193,0.010193,-0.992065,0.190321,0.356031,0.067481,48,271,578,5584
1644163851.580929,-0.011475,0.008911,-0.993713,0.190321,0.356031,-0.100458,45,275,572,5488
1644163851.629312,-0.011108,0.008484,-0.991028,0.312458,0.554504,-0.085191,45,275,577,5584
1644163851.677706,-0.007446,0.007507,-0.992432,0.159786,0.523969,-0.115725,43,274,580,5536
1644163851.726064,-0.009644,0.010803,-0.992615,0.236122,0.401832,-0.14626,52,273,579,5600
1644163851.774542,-0.012451,0.008789,-0.993347,0.342992,0.417099,-0.100458,49,273,572,5536
1644163851.824853,-0.010681,0.006836,-0.990601,0.113985,0.310229,-0.161527,49,280,575,5600
1644163851.874744,-0.009094,0.008545,-0.992249,0.098718,0.493435,-0.039389,46,276,569,5536
1644163851.924791,-0.011658,0.008362,-0.990295,0.113985,0.523969,-0.024122,58,281,573,5584
1644163851.969699,-0.009521,0.010864,-0.99353,0.037649,0.462901,-0.039389,55,271,573,5584
1644163852.065233,-0.009521,0.008667,-0.989868,0.251389,0.447634,-0.115725,61,287,577,5600
1644163852.113274,-0.011047,0.009949,-0.992554,0.266656,0.523969,-0.283664,46,274,569,5600
1644163852.16161,-0.01178,0.011047,-0.994263,0.205588,0.508702,-0.085191,47,282,575,5584
1644163852.209994,-0.010071,0.011108,-0.993408,0.266656,0.401832,-0.100458,36,271,580,5584
1644163852.258367,-0.010437,0.010742,-0.992859,0.236122,0.493435,0.006412,53,279,585,5536
1644163852.30677,-0.007874,0.005859,-0.993103,0.327725,0.447634,-0.039389,45,270,572,5536
1644163852.3552,-0.010254,0.009644,-0.989075,0.281924,0.417099,-0.176794,51,274,569,5488
1644163852.403553,-0.009827,0.009216,-0.990662,0.404061,0.478168,-0.115725,38,268,577,5584
1644163852.451925,-0.009827,0.009766,-0.993225,0.388794,0.478168,-0.207328,42,277,572,5584
1644163852.50031,-0.010803,0.009644,-0.992859,0.312458,0.386565,-0.115725,55,271,578,5648
1644163852.548728,-0.013611,0.007751,-0.992554,0.312458,0.447634,-0.115725,53,274,576,5584
1644163852.597124,-0.009521,0.010071,-0.991333,0.159786,0.539237,-0.069924,48,274,578,5536
1644163852.645479,-0.011047,0.011108,-0.989258,0.190321,0.401832,-0.14626,45,273,582,5536
1644163852.693914,-0.008667,0.012634,-0.992859,0.35826,0.356031,-0.115725,57,265,584,5584
1644163852.742289,-0.009277,0.006348,-0.994751,0.236122,0.417099,-0.14626,59,280,582,5584
1644163852.790677,-0.012634,0.008423,-0.993042,0.388794,0.371298,-0.085191,47,280,572,5600
1644163852.839102,-0.011108,0.008057,-0.992188,0.404061,0.600305,-0.25313,53,274,569,5584
1644163852.887816,-0.010498,0.008789,-0.991821,0.35826,0.569771,-0.100458,42,275,570,5584
1644163852.935926,-0.008423,0.009583,-0.991089,0.190321,0.356031,0.006412,51,279,580,5552
1644163852.98608,-0.010132,0.007019,-0.991638,0.312458,0.508702,0.021679,46,281,578,5536
1644163853.047141,-0.009338,0.010315,-0.992249,0.08345,0.478168,0.006412,51,276,580,5552
1644163853.087531,-0.009094,0.008606,-0.990845,0.113985,0.417099,0.052214,49,268,582,5552
1644163853.177821,-0.011292,0.008118,-0.993408,0.388794,0.371298,-0.161527,54,270,570,5584
1644163853.226176,-0.007812,0.008667,-0.99176,0.281924,0.432366,-0.161527,51,276,566,5536
1644163853.274833,-0.011353,0.009521,-0.992432,0.113985,0.432366,-0.054656,52,265,579,5536
1644163853.323004,-0.008789,0.010681,-0.990173,0.159786,0.539237,-0.069924,54,270,575,5584
1644163853.371344,-0.009644,0.008484,-0.992004,0.236122,0.569771,-0.039389,52,285,570,5536
1644163853.419733,-0.012329,0.00769,-0.98999,0.144519,0.523969,-0.161527,54,277,575,5584
1644163853.468144,-0.01062,0.009583,-0.98822,0.327725,0.279695,-0.115725,53,271,578,5648
1644163853.516528,-0.014893,0.011353,-0.991333,0.129252,0.325496,-0.176794,52,268,563,5488
1644163853.56492,-0.009888,0.008789,-0.991516,0.236122,0.386565,-0.100458,53,274,585,5648
1644163853.613316,-0.007446,0.009216,-0.992004,0.327725,0.523969,-0.054656,60,279,578,5584
1644163853.661707,-0.010315,0.009155,-0.993347,0.312458,0.401832,-0.25313,43,281,576,5600
1644163853.710089,-0.010132,0.010071,-0.992554,0.327725,0.539237,0.036947,61,275,570,5584
1644163853.758469,-0.010864,0.006348,-0.993469,0.297191,0.432366,-0.024122,58,281,573,5536
1644163853.806859,-0.011902,0.009094,-0.994141,0.327725,0.386565,0.052214,57,275,577,5584
1644163853.855299,-0.009338,0.009216,-0.995361,0.236122,0.356031,-0.054656,47,273,572,5536
1644163853.903703,-0.008667,0.009216,-0.990173,0.236122,0.554504,-0.222595,45,277,579,5536
1644163853.952075,-0.009583,0.008423,-0.993408,0.251389,0.462901,-0.054656,38,280,572,5552
1644163854.000648,-0.006775,0.006592,-0.992676,0.220855,0.401832,-0.207328,41,266,585,5648
1644163854.076341,-0.01062,0.009766,-0.992554,0.281924,0.493435,0.021679,54,280,584,5648
1644163854.098772,-0.010742,0.006836,-0.991577,0.327725,0.508702,-0.008855,54,275,570,5584
1644163854.149413,-0.010925,0.007385,-0.99176,0.068183,0.310229,-0.024122,49,268,575,5552
1644163854.198382,-0.011597,0.010864,-0.99353,0.35826,0.417099,-0.054656,49,273,582,5584
1644163854.243363,-0.011353,0.009949,-0.988586,0.327725,0.447634,-0.222595,41,266,569,5648
1644163854.34115,-0.013916,0.008423,-0.992981,0.297191,0.401832,-0.298931,47,265,565,5600
1644163854.387545,-0.007629,0.011658,-0.99115,0.312458,0.386565,-0.161527,54,270,572,5584
1644163854.435936,-0.00769,0.010193,-0.992249,0.159786,0.478168,-0.100458,40,273,577,5552
1644163854.484344,-0.012268,0.005798,-0.992554,0.220855,0.386565,-0.069924,48,269,569,5648
1644163854.532748,-0.010681,0.007324,-0.993896,0.144519,0.432366,-0.115725,49,275,575,5584
1644163854.581128,-0.007812,0.009705,-0.992493,0.342992,0.356031,-0.100458,55,274,569,5600
1644163854.629514,-0.007996,0.006348,-0.991455,0.281924,0.493435,-0.054656,46,283,578,5584
1644163854.677907,-0.008972,0.01001,-0.992981,0.175053,0.447634,-0.25313,57,270,575,5536
1644163854.726289,-0.008789,0.008301,-0.989563,0.220855,0.417099,-0.024122,59,273,572,5552
1644163854.774717,-0.009521,0.012024,-0.990784,0.281924,0.356031,-0.100458,48,283,583,5536
1644163854.823083,-0.012146,0.007446,-0.995544,0.35826,0.493435,-0.039389,47,268,577,5536
1644163854.871505,-0.01123,0.008667,-0.99176,0.434595,0.401832,-0.085191,52,270,584,5648
1644163854.919889,-0.011841,0.010132,-0.988464,0.35826,0.447634,-0.069924,47,275,586,5632
1644163854.968281,-0.009399,0.007996,-0.99054,0.159786,0.386565,-0.161527,59,277,582,5552
1644163855.016677,-0.011902,0.007996,-0.990234,0.266656,0.508702,-0.130992,60,264,580,5584
1644163855.078421,-0.010498,0.009705,-0.992065,0.251389,0.325496,-0.298931,42,268,584,5584
1644163855.113471,-0.012817,0.009705,-0.993286,0.190321,0.508702,-0.14626,40,275,584,5632
1644163855.16247,-0.00946,0.008057,-0.989319,0.388794,0.188092,-0.14626,48,274,578,5552
1644163855.212908,-0.009583,0.011292,-0.993225,0.220855,0.340763,-0.222595,47,275,572,5648
1644163855.26333,-0.011169,0.011169,-0.990784,0.144519,0.539237,-0.192061,49,280,572,5552
1644163855.30798,-0.010071,0.009338,-0.991516,0.190321,0.340763,-0.25313,53,279,576,5584
1644163855.403785,-0.010681,0.010559,-0.987549,0.251389,0.539237,-0.14626,57,275,582,5536
1644163855.452423,-0.010986,0.009277,-0.991577,0.373527,0.417099,-0.115725,45,275,575,5520
1644163855.500583,-0.01001,0.009155,-0.994385,0.08345,0.401832,-0.100458,53,274,580,5584
1644163855.548966,-0.009521,0.009827,-0.993042,0.312458,0.356031,-0.237863,52,275,584,5552
1644163855.597348,-0.011292,0.008789,-0.992676,0.297191,0.401832,-0.176794,48,266,573,5600
1644163855.645739,-0.011902,0.008484,-0.993042,0.266656,0.417099,-0.222595,57,270,575,5584
1644163855.694151,-0.009766,0.006531,-0.991272,0.08345,0.569771,-0.115725,49,275,577,5664
1644163855.742538,-0.010315,0.010803,-0.992126,0.220855,0.539237,-0.085191,54,275,563,5584
1644163855.790918,-0.011108,0.009888,-0.991577,0.159786,0.294962,-0.14626,53,279,576,5584
1644163855.839305,-0.009583,0.008545,-0.992737,0.373527,0.325496,0.006412,48,274,583,5552
1644163855.887701,-0.011902,0.008057,-0.992859,0.297191,0.325496,-0.039389,49,275,584,5536
1644163855.936084,-0.011108,0.008606,-0.992676,0.251389,0.432366,-0.207328,49,270,579,5584
1644163855.984466,-0.009033,0.008606,-0.992371,0.327725,0.478168,-0.069924,59,273,575,5584
1644163856.043033,-0.011719,0.010437,-0.994446,0.297191,0.432366,0.036947,54,268,579,5648
1644163856.08288,-0.009705,0.009888,-0.993835,0.404061,0.432366,-0.192061,52,273,584,5584
1644163856.12961,-0.011841,0.010925,-0.990356,0.281924,0.386565,-0.100458,48,283,585,5552
1644163856.178001,-0.012268,0.011658,-0.989502,0.342992,0.417099,-0.008855,52,270,577,5552
1644163856.226358,-0.011902,0.008423,-0.992493,0.281924,0.447634,0.052214,55,276,576,5552
1644163856.27519,-0.011902,0.012817,-0.993225,0.205588,0.264427,-0.14626,55,274,585,5632
1644163856.323749,-0.012146,0.008362,-0.989441,0.327725,0.325496,-0.14626,52,277,575,5600
1644163856.374131,-0.014771,0.011841,-0.992188,0.220855,0.462901,-0.100458,51,281,566,5648
1644163856.424232,-0.013977,0.01178,-0.994263,0.220855,0.493435,-0.161527,52,273,579,5536
1644163856.469344,-0.008484,0.010925,-0.991577,0.236122,0.478168,-0.085191,49,268,577,5536
1644163856.56533,-0.010925,0.009583,-0.990784,0.342992,0.401832,-0.237863,53,283,578,5488
1644163856.613503,-0.008972,0.011536,-0.992065,0.175053,0.294962,0.021679,49,275,565,5600
1644163856.661866,-0.009094,0.009033,-0.991821,0.297191,0.24916,-0.008855,57,273,582,5536
1644163856.710285,-0.010803,0.008972,-0.989807,0.251389,0.462901,-0.130992,48,271,578,5584
1644163856.758655,-0.011108,0.009277,-0.991028,0.342992,0.371298,0.052214,47,275,575,5712
1644163856.807113,-0.01178,0.00824,-0.990417,0.388794,0.493435,-0.192061,49,273,572,5584
1644163856.855504,-0.009705,0.012207,-0.992188,0.297191,0.447634,0.006412,46,274,573,5536
1644163856.90391,-0.009888,0.011658,-0.98822,0.342992,0.523969,-0.054656,48,279,576,5600
1644163856.952296,-0.008606,0.009399,-0.992126,0.220855,0.462901,-0.115725,53,269,566,5600
1644163857.000654,-0.009399,0.010437,-0.991272,0.129252,0.493435,-0.024122,45,287,570,5584
1644163857.056189,-0.010559,0.006409,-0.993347,0.190321,0.569771,-0.100458,53,279,583,5584
1644163857.097435,-0.010071,0.007324,-0.990662,0.220855,0.432366,0.082748,48,274,585,5600
1644163857.145804,-0.010742,0.008484,-0.991638,0.373527,0.447634,-0.207328,54,265,584,5536
1644163857.194204,-0.009399,0.009521,-0.989014,0.312458,0.356031,-0.054656,51,274,583,5648
1644163857.242568,-0.006897,0.008728,-0.990173,0.266656,0.493435,0.036947,39,279,578,5600
1644163857.290982,-0.010437,0.008728,-0.994202,0.312458,0.371298,0.006412,62,264,566,5552
1644163857.339374,-0.008972,0.007874,-0.989624,0.312458,0.478168,-0.115725,43,286,583,5584
1644163857.387767,-0.009155,0.009644,-0.993408,0.220855,0.478168,0.006412,55,271,583,5584
1644163857.436431,-0.010681,0.008362,-0.991028,0.220855,0.386565,0.143817,52,265,568,5584
1644163857.486979,-0.013611,0.009155,-0.993408,0.220855,0.493435,-0.054656,60,276,576,5536
1644163857.537207,-0.009949,0.009705,-0.991882,0.129252,0.523969,-0.237863,59,273,582,5632
1644163857.582187,-0.007935,0.011353,-0.992798,0.144519,0.325496,-0.024122,60,286,576,5584
1644163857.678075,-0.010986,0.013306,-0.995056,0.297191,0.508702,-0.25313,48,266,569,5648
1644163857.726468,-0.010376,0.009216,-0.989258,0.419328,0.447634,-0.039389,57,280,575,5584
1644163857.774883,-0.009644,0.008423,-0.993469,0.251389,0.386565,0.021679,47,275,579,5584
1644163857.823313,-0.007935,0.009338,-0.992371,0.175053,0.462901,-0.069924,52,270,575,5648
1644163857.871699,-0.010925,0.011719,-0.99115,0.373527,0.462901,-0.008855,51,276,583,5600
1644163857.920087,-0.006897,0.004761,-0.992004,0.129252,0.508702,-0.024122,48,266,576,5584
1644163857.968477,-0.010681,0.009338,-0.992249,0.144519,0.356031,-0.024122,54,273,577,5552
1644163858.016878,-0.008301,0.010742,-0.992859,0.266656,0.432366,0.052214,47,263,586,5600
1644163858.072303,-0.008911,0.007874,-0.992065,0.281924,0.371298,-0.115725,54,265,586,5648
1644163858.11365,-0.007751,0.009216,-0.993042,0.327725,0.24916,-0.14626,61,273,582,5584
1644163858.161991,-0.011108,0.009521,-0.990173,0.342992,0.417099,-0.130992,54,273,577,5648
1644163858.2104,-0.010071,0.007507,-0.989929,0.236122,0.417099,-0.024122,57,265,577,5600
1644163858.258762,-0.008728,0.013306,-0.991272,0.236122,0.478168,-0.100458,54,277,575,5600
1644163858.307173,-0.008606,0.011353,-0.995483,0.251389,0.554504,-0.024122,43,279,587,5536
1644163858.355539,-0.008118,0.012024,-0.98938,0.388794,0.432366,0.021679,51,276,580,5600
1644163858.403968,-0.008423,0.010864,-0.990356,0.220855,0.539237,0.036947,60,276,566,5584
1644163858.452357,-0.007874,0.009644,-0.992554,0.175053,0.386565,-0.008855,55,271,578,5632
1644163858.500705,-0.014526,0.011108,-0.992065,0.159786,0.508702,-0.100458,57,275,572,5536
1644163858.549133,-0.009521,0.007751,-0.991394,0.297191,0.462901,-0.176794,60,271,566,5584
1644163858.598766,-0.010803,0.010193,-0.991638,0.236122,0.523969,-0.14626,49,270,572,5584
1644163858.649082,-0.009399,0.009949,-0.99231,0.007115,0.493435,-0.100458,49,270,579,5536
1644163858.699399,-0.010803,0.012817,-0.992004,0.419328,0.462901,-0.054656,51,279,576,5584
1644163858.79107,-0.01001,0.009277,-0.992371,0.098718,0.478168,-0.054656,54,275,575,5632
1644163858.83951,-0.006287,0.010132,-0.991272,0.373527,0.264427,-0.14626,47,275,565,5584
1644163858.887887,-0.011597,0.009399,-0.990356,0.205588,0.523969,-0.024122,47,270,572,5536
1644163858.936279,-0.00946,0.009216,-0.99054,0.129252,0.294962,0.052214,51,271,578,5584
1644163858.984689,-0.011414,0.010071,-0.990479,0.297191,0.432366,-0.039389,46,274,573,5536
1644163859.033087,-0.011658,0.009644,-0.993591,0.144519,0.447634,-0.008855,49,275,579,5536
1644163859.084846,-0.008606,0.009521,-0.990784,0.281924,0.432366,-0.054656,36,274,580,5584
1644163859.129794,-0.011902,0.011169,-0.989868,0.220855,0.523969,-0.069924,58,279,578,5584
1644163859.178191,-0.010803,0.009033,-0.992493,0.281924,0.432366,-0.161527,51,279,578,5536
1644163859.226585,-0.007568,0.010254,-0.993225,0.297191,0.523969,-0.085191,48,271,569,5584
1644163859.275095,-0.013977,0.009705,-0.992004,0.266656,0.432366,-0.130992,46,281,573,5600
1644163859.323379,-0.011353,0.010681,-0.99231,0.266656,0.371298,-0.25313,55,279,573,5632
1644163859.371763,-0.006775,0.007568,-0.994263,0.144519,0.356031,-0.14626,54,273,579,5488
1644163859.420146,-0.010681,0.010376,-0.990479,0.327725,0.325496,-0.024122,62,276,585,5536
1644163859.468534,-0.009094,0.008606,-0.990601,0.35826,0.508702,-0.024122,53,276,576,5584
1644163859.516917,-0.008789,0.009399,-0.992615,0.281924,0.310229,0.052214,54,275,572,5584
1644163859.565321,-0.012207,0.008667,-0.992065,0.175053,0.447634,-0.161527,52,268,579,5632
1644163859.613701,-0.00946,0.008728,-0.990173,0.266656,0.417099,-0.039389,43,279,571,5584
1644163859.662304,-0.010132,0.007507,-0.993408,0.098718,0.539237,-0.115725,45,273,579,5600
1644163859.711595,-0.011047,0.009766,-0.992371,0.159786,0.417099,-0.100458,46,271,580,5536
1644163859.761795,-0.010315,0.011536,-0.991699,0.159786,0.508702,-0.115725,47,270,575,5584
1644163859.812478,-0.011108,0.009705,-0.989258,0.190321,0.417099,-0.039389,46,269,571,5552
1644163859.904171,-0.010193,0.010437,-0.990662,0.251389,0.401832,-0.069924,47,275,570,5584
1644163859.952501,-0.007141,0.010925,-0.992859,0.327725,0.325496,-0.115725,52,270,582,5648
1644163860.000864,-0.010742,0.00824,-0.993286,0.526198,0.462901,-0.130992,54,280,577,5648
1644163860.055608,-0.009094,0.010193,-0.990601,0.281924,0.340763,-0.069924,55,264,580,5552
1644163860.097619,-0.009644,0.010742,-0.992493,0.373527,0.233893,-0.176794,52,268,579,5552
1644163860.145996,-0.006958,0.011841,-0.991943,0.175053,0.447634,-0.192061,41,279,576,5584
1644163860.19439,-0.005554,0.010803,-0.991455,0.175053,0.218626,-0.222595,48,269,569,5584
1644163860.242795,-0.011475,0.008545,-0.992249,0.419328,0.386565,-0.039389,45,273,577,5648
1644163860.291156,-0.009521,0.00708,-0.995361,0.220855,0.462901,-0.024122,45,277,575,5584
1644163860.339566,-0.012451,0.009766,-0.992126,0.236122,0.340763,-0.039389,46,269,576,5536
1644163860.387932,-0.010376,0.007507,-0.991089,0.175053,0.401832,-0.130992,59,280,584,5600
1644163860.436342,-0.007385,0.007935,-0.990417,0.220855,0.462901,0.052214,57,275,579,5600
1644163860.484752,-0.011841,0.008423,-0.991638,0.251389,0.417099,-0.100458,42,275,568,5552
1644163860.533147,-0.011169,0.010193,-0.993347,0.190321,0.493435,-0.008855,53,276,564,5600
1644163860.58178,-0.010925,0.009216,-0.990662,0.342992,0.432366,-0.024122,53,271,583,5552
1644163860.629916,-0.012512,0.008667,-0.989746,0.281924,0.447634,-0.039389,47,280,575,5552
1644163860.678286,-0.012085,0.009277,-0.992737,0.251389,0.493435,-0.161527,52,280,582,5600
1644163860.726687,-0.012756,0.010193,-0.994202,0.190321,0.386565,-0.14626,51,283,576,5600
1644163860.775121,-0.010315,0.009827,-0.990967,0.251389,0.401832,0.021679,52,277,570,5600
1644163860.823867,-0.010803,0.012207,-0.991943,0.205588,0.478168,-0.039389,41,274,585,5600
1644163860.875245,-0.009888,0.01001,-0.994446,0.236122,0.401832,-0.069924,54,268,575,5632
1644163860.925594,-0.006775,0.007629,-0.992798,0.266656,0.585038,-0.085191,57,277,572,5584
1644163860.972472,-0.010986,0.01123,-0.992798,0.205588,0.432366,-0.069924,53,276,590,5584
1644163861.065494,-0.011841,0.009583,-0.991272,0.266656,0.447634,-0.069924,58,266,578,5536
1644163861.113851,-0.009338,0.007874,-0.993652,0.342992,0.63084,-0.069924,57,273,570,5632
1644163861.162383,-0.013,0.010315,-0.991394,0.205588,0.539237,-0.115725,54,270,579,5584
1644163861.210587,-0.008911,0.013306,-0.990845,0.342992,0.523969,0.006412,58,279,571,5536
1644163861.258956,-0.010803,0.007263,-0.991882,0.266656,0.447634,-0.008855,46,274,580,5632
1644163861.307364,-0.00769,0.010742,-0.990967,0.251389,0.417099,-0.024122,54,282,584,5600
1644163861.355755,-0.010254,0.009155,-0.991272,0.327725,0.401832,-0.207328,49,275,570,5584
1644163861.404153,-0.010193,0.007751,-0.99231,0.281924,0.325496,0.036947,52,268,572,5600
1644163861.452562,-0.008972,0.00885,-0.992188,0.404061,0.523969,-0.039389,47,275,570,5600
1644163861.500911,-0.010559,0.010498,-0.993591,0.373527,0.646107,-0.115725,57,265,565,5552
1644163861.549325,-0.009277,0.009521,-0.992615,0.251389,0.371298,-0.008855,54,282,575,5584
1644163861.59771,-0.011047,0.00708,-0.990723,0.281924,0.401832,-0.14626,52,280,584,5552
1644163861.646097,-0.011902,0.010193,-0.987854,0.297191,0.356031,-0.085191,48,274,583,5552
1644163861.694521,-0.010376,0.009338,-0.991699,0.144519,0.401832,-0.161527,59,273,577,5584
1644163861.742895,-0.009705,0.012207,-0.991394,0.236122,0.523969,-0.085191,49,268,572,5584
1644163861.79125,-0.010498,0.012512,-0.99115,0.175053,0.600305,-0.085191,55,279,585,5520
1644163861.839689,-0.01062,0.009888,-0.99176,0.236122,0.447634,-0.222595,52,275,575,5584
1644163861.888091,-0.009949,0.008911,-0.991455,0.251389,0.417099,-0.100458,55,266,580,5600
1644163861.936488,-0.011597,0.006958,-0.992615,0.190321,0.432366,-0.085191,52,273,570,5648
1644163861.985693,-0.010376,0.011169,-0.989807,0.159786,0.478168,-0.115725,53,274,573,5552
1644163862.046858,-0.012695,0.011414,-0.990234,0.281924,0.356031,-0.161527,61,263,572,5600
1644163862.086864,-0.009766,0.013123,-0.989563,0.220855,0.523969,-0.085191,47,270,582,5536
1644163862.130957,-0.011047,0.009094,-0.993713,0.266656,0.493435,-0.14626,43,276,578,5584
1644163862.226777,-0.010437,0.01123,-0.992859,0.159786,0.356031,-0.024122,57,273,572,5520
1644163862.275366,-0.007507,0.007446,-0.993103,0.129252,0.539237,-0.222595,51,266,564,5632
1644163862.323583,-0.010315,0.012695,-0.992554,0.159786,0.24916,-0.039389,51,264,576,5600
1644163862.371949,-0.009705,0.009033,-0.993042,0.312458,0.569771,-0.085191,42,265,570,5536
1644163862.420341,-0.008301,0.005798,-0.993286,0.388794,0.401832,-0.115725,46,271,566,5648
1644163862.468739,-0.009644,0.011475,-0.992065,0.220855,0.264427,-0.085191,53,274,566,5648
1644163862.517116,-0.01001,0.008057,-0.990723,0.098718,0.478168,-0.085191,60,274,569,5552
1644163862.565506,-0.00946,0.009644,-0.989502,0.175053,0.386565,-0.192061,49,275,582,5584
1644163862.613906,-0.010315,0.012634,-0.98999,0.129252,0.340763,-0.024122,51,276,571,5648
1644163862.662321,-0.009033,0.009888,-0.993835,0.236122,0.386565,0.006412,58,266,583,5584
1644163862.710694,-0.008423,0.011108,-0.990601,0.342992,0.310229,-0.039389,58,269,578,5600
1644163862.759056,-0.009094,0.009216,-0.992798,0.236122,0.493435,0.036947,57,270,577,5552
1644163862.807468,-0.01178,0.009949,-0.991577,0.281924,0.508702,-0.130992,51,271,573,5552
1644163862.855873,-0.01062,0.009827,-0.990845,0.251389,0.340763,-0.161527,61,275,582,5552
1644163862.904287,-0.009644,0.008789,-0.991882,0.266656,0.462901,-0.008855,51,266,578,5552
1644163862.952671,-0.007446,0.00885,-0.990417,0.251389,0.340763,-0.176794,51,274,576,5584
1644163863.001037,-0.009766,0.008972,-0.990295,0.175053,0.401832,0.036947,43,269,578,5584
1644163863.074823,-0.006836,0.007141,-0.994568,0.175053,0.371298,-0.14626,54,270,570,5600
1644163863.097831,-0.008362,0.009949,-0.99115,0.190321,0.325496,-0.100458,47,285,577,5552
1644163863.147976,-0.009094,0.011047,-0.993286,0.129252,0.310229,0.082748,45,265,575,5600
1644163863.197361,-0.010437,0.009338,-0.992188,0.190321,0.356031,-0.085191,51,269,587,5584
1644163863.247448,-0.011841,0.00824,-0.993347,0.281924,0.371298,-0.115725,55,269,576,5536
1644163863.292448,-0.01062,0.009644,-0.990723,0.251389,0.417099,-0.176794,46,266,578,5584
1644163863.38813,-0.008057,0.009155,-0.991821,0.342992,0.508702,-0.024122,51,279,573,5552
1644163863.436528,-0.009583,0.009644,-0.993225,0.08345,0.508702,-0.100458,43,274,578,5536
1644163863.485012,-0.00885,0.007629,-0.992554,0.251389,0.310229,-0.100458,54,273,572,5552
1644163863.53333,-0.009766,0.008667,-0.990662,0.297191,0.371298,-0.100458,51,274,573,5552
1644163863.581699,-0.009033,0.008911,-0.991333,0.236122,0.386565,-0.054656,53,264,569,5584
1644163863.630116,-0.006531,0.012756,-0.991333,0.327725,0.401832,-0.069924,48,274,578,5584
1644163863.678487,-0.00885,0.009766,-0.991455,0.175053,0.539237,-0.161527,45,260,577,5536
1644163863.726876,-0.010132,0.007568,-0.992981,0.35826,0.417099,-0.14626,47,273,570,5520
1644163863.775271,-0.011169,0.010437,-0.990723,0.098718,0.478168,-0.069924,54,273,572,5600
1644163863.823669,-0.010071,0.011963,-0.991882,0.297191,0.462901,-0.130992,45,268,572,5536
1644163863.872292,-0.009827,0.008911,-0.990173,0.312458,0.462901,0.021679,55,266,576,5600
1644163863.920495,-0.011963,0.010925,-0.990601,0.266656,0.356031,-0.237863,46,274,573,5584
1644163863.968855,-0.012878,0.010742,-0.992676,0.190321,0.356031,-0.176794,41,271,573,5552
1644163864.017259,-0.009827,0.007935,-0.991394,0.251389,0.539237,0.052214,53,279,580,5584
1644163864.075546,-0.00824,0.008972,-0.992737,0.297191,0.447634,-0.085191,57,277,579,5536
1644163864.114064,-0.013977,0.009583,-0.991638,0.312458,0.523969,-0.283664,46,281,580,5536
1644163864.162416,-0.01239,0.008179,-0.993286,0.113985,0.447634,-0.024122,52,277,579,5648
1644163864.210755,-0.010498,0.00885,-0.992004,0.175053,0.447634,-0.130992,49,273,575,5600
1644163864.259426,-0.008728,0.010376,-0.990662,0.281924,0.340763,-0.008855,54,280,584,5584
1644163864.309594,-0.011719,0.009033,-0.992615,0.327725,0.356031,-0.069924,53,269,571,5584
1644163864.359958,-0.009766,0.010559,-0.992371,0.266656,0.401832,-0.085191,55,276,569,5552
1644163864.404915,-0.006775,0.009644,-0.990479,0.144519,0.279695,-0.130992,46,274,566,5584
1644163864.501127,-0.011475,0.014038,-0.991821,0.159786,0.264427,-0.100458,57,275,575,5584
1644163864.549519,-0.009766,0.00769,-0.991394,0.297191,0.569771,0.052214,48,269,576,5584
1644163864.597889,-0.010071,0.008667,-0.994507,0.175053,0.462901,-0.14626,49,273,577,5600
1644163864.646272,-0.011902,0.01001,-0.989807,0.297191,0.569771,-0.069924,46,271,571,5664
1644163864.694694,-0.011902,0.008728,-0.99231,0.236122,0.585038,-0.283664,45,275,575,5584
1644163864.743109,-0.01062,0.008789,-0.993103,0.312458,0.478168,-0.039389,47,273,584,5584
1644163864.791475,-0.010132,0.008789,-0.992859,0.388794,0.401832,-0.161527,51,269,571,5648
1644163864.839845,-0.009277,0.009277,-0.991394,0.129252,0.356031,-0.130992,43,266,578,5552
1644163864.888271,-0.008362,0.008484,-0.990356,0.236122,0.539237,-0.024122,48,279,562,5552
1644163864.937639,-0.013367,0.006958,-0.989929,0.388794,0.325496,-0.161527,53,279,576,5632
1644163864.985229,-0.009827,0.009583,-0.99115,0.220855,0.432366,-0.024122,46,269,573,5584
1644163865.033474,-0.010986,0.009155,-0.991943,0.205588,0.432366,-0.054656,45,277,577,5536
1644163865.083194,-0.009216,0.009949,-0.990906,0.236122,0.417099,0.006412,52,275,568,5584
1644163865.130256,-0.008728,0.010132,-0.990723,0.144519,0.401832,-0.25313,53,281,587,5584
1644163865.178634,-0.010254,0.009888,-0.993103,0.236122,0.386565,-0.039389,53,281,583,5600
1644163865.227018,-0.009827,0.008972,-0.994202,0.281924,0.447634,0.052214,53,279,585,5584
1644163865.275395,-0.011169,0.006531,-0.991272,0.266656,0.447634,-0.115725,42,280,577,5600
1644163865.323977,-0.010742,0.009399,-0.992676,0.144519,0.401832,0.006412,48,271,576,5584
1644163865.372228,-0.011658,0.007385,-0.992554,0.342992,0.462901,-0.039389,52,270,575,5584
1644163865.422015,-0.008789,0.009766,-0.992554,0.190321,0.539237,-0.207328,48,279,583,5600
1644163865.472314,-0.013123,0.009277,-0.992126,0.220855,0.417099,-0.176794,54,268,572,5584
1644163865.522371,-0.009949,0.009827,-0.990662,0.404061,0.417099,-0.039389,51,274,566,5600
1644163865.567151,-0.012146,0.011169,-0.992859,0.251389,0.462901,0.006412,51,274,566,5552
1644163865.662572,-0.009094,0.010071,-0.991272,0.205588,0.356031,0.052214,48,269,580,5600
1644163865.710913,-0.012024,0.00885,-0.991211,0.266656,0.447634,-0.039389,54,270,577,5600
1644163865.759305,-0.011719,0.011047,-0.994629,0.281924,0.417099,-0.024122,64,275,570,5600
1644163865.807705,-0.012512,0.007812,-0.992676,0.205588,0.340763,-0.100458,55,281,578,5584
1644163865.856106,-0.009766,0.009155,-0.992126,0.35826,0.386565,-0.14626,52,270,572,5536
1644163865.904494,-0.011963,0.009155,-0.99408,0.098718,0.371298,0.021679,60,271,569,5584
1644163865.9529,-0.012024,0.00824,-0.992004,0.297191,0.417099,-0.085191,51,279,569,5632
1644163866.001239,-0.009827,0.009827,-0.993286,0.220855,0.356031,-0.069924,40,275,577,5584
1644163866.053916,-0.007751,0.010742,-0.991638,0.205588,0.401832,-0.222595,51,276,576,5600
1644163866.098044,-0.011902,0.011597,-0.99176,0.144519,0.508702,-0.115725,48,271,580,5584
1644163866.146376,-0.01001,0.007629,-0.99115,0.251389,0.508702,-0.100458,49,273,572,5584
1644163866.194808,-0.009949,0.010071,-0.98938,0.281924,0.462901,-0.176794,53,279,576,5648
1644163866.243182,-0.009644,0.008728,-0.990417,0.373527,0.356031,-0.25313,43,271,585,5584
1644163866.291553,-0.01001,0.008118,-0.990051,0.220855,0.386565,-0.207328,52,275,570,5552
1644163866.339966,-0.009338,0.009705,-0.99176,0.205588,0.447634,-0.024122,42,270,572,5600
1644163866.38835,-0.011597,0.01062,-0.990173,0.113985,0.447634,-0.039389,58,279,587,5536
1644163866.436735,-0.012024,0.010681,-0.992432,0.205588,0.356031,0.036947,55,262,585,5536
1644163866.485159,-0.008789,0.007019,-0.994263,0.373527,0.386565,-0.100458,57,273,584,5536
1644163866.533565,-0.011475,0.009705,-0.991455,0.129252,0.386565,0.021679,45,285,591,5584
1644163866.582161,-0.008972,0.011475,-0.99231,0.373527,0.356031,-0.085191,48,276,576,5632
1644163866.632623,-0.010803,0.007996,-0.991882,0.266656,0.554504,-0.085191,42,265,570,5584
1644163866.682994,-0.011963,0.00824,-0.99231,0.297191,0.325496,-0.054656,55,279,578,5632
1644163866.728079,-0.009949,0.009766,-0.991089,0.266656,0.386565,-0.069924,47,275,577,5536
1644163866.823902,-0.011658,0.010315,-0.990295,0.129252,0.462901,-0.176794,51,281,571,5584
1644163866.872433,-0.012024,0.011902,-0.993835,0.007115,0.462901,0.12855,52,273,577,5584
1644163866.920668,-0.012695,0.009094,-0.991699,0.327725,0.478168,-0.161527,42,273,565,5648
1644163866.969074,-0.009094,0.009705,-0.994263,0.205588,0.447634,-0.069924,43,276,569,5632
1644163867.017464,-0.010986,0.007507,-0.993164,0.236122,0.340763,-0.024122,52,268,570,5536
1644163867.065994,-0.008484,0.009949,-0.991638,0.159786,0.371298,0.052214,54,268,584,5536
1644163867.11421,-0.011047,0.006287,-0.99292,0.175053,0.554504,-0.161527,57,268,570,5584
1644163867.162621,-0.011292,0.011292,-0.991272,0.266656,0.417099,-0.130992,45,273,572,5536
1644163867.210987,-0.010925,0.008728,-0.99115,0.129252,0.493435,-0.14626,46,281,569,5552
