epoch,acc_x,acc_y,acc_z,rot_x,rot_y,rot_z,mag_x,mag_y,mag_z,temp
1644153900.020027,-0.014099,0.005371,-0.990967,0.312458,0.478168,-0.115725,51,279,576,4480
1644153900.073615,-0.014282,0.007996,-0.993225,0.312458,0.401832,-0.115725,43,283,573,4496
1644153900.116769,-0.011108,0.008789,-0.992859,0.159786,0.508702,0.021679,45,270,572,4480
1644153900.165163,-0.009949,0.008179,-0.991211,0.251389,0.447634,-0.130992,47,277,572,4464
1644153900.213544,-0.011292,0.007629,-0.990845,0.327725,0.356031,-0.024122,48,264,566,4464
1644153900.261904,-0.013062,0.00946,-0.993591,0.052916,0.447634,-0.054656,45,275,579,4496
1644153900.310312,-0.011108,0.008301,-0.991699,0.388794,0.264427,-0.161527,55,279,569,4432
1644153900.358692,-0.010986,0.010437,-0.994019,0.266656,0.356031,-0.222595,57,275,570,4464
1644153900.40707,-0.012146,0.009583,-0.994263,0.220855,0.523969,0.067481,45,270,572,4464
1644153900.455465,-0.010254,0.007996,-0.992126,0.251389,0.478168,-0.176794,43,269,573,4528
1644153900.503824,-0.013184,0.007507,-0.993164,0.327725,0.401832,0.006412,52,270,582,4528
1644153900.552254,-0.013733,0.00824,-0.992432,0.327725,0.508702,-0.085191,54,263,577,4576
1644153900.60062,-0.011719,0.006592,-0.989075,0.113985,0.371298,-0.176794,51,276,573,4528
1644153900.649023,-0.013184,0.009216,-0.990112,0.327725,0.523969,-0.100458,40,260,575,4432
1644153900.697417,-0.009888,0.007446,-0.990601,0.129252,0.371298,-0.008855,51,262,573,4496
1644153900.746883,-0.012634,0.00769,-0.99176,0.312458,0.386565,-0.192061,61,273,579,4480
1644153900.797874,-0.01239,0.009216,-0.989502,0.266656,0.432366,-0.069924,45,280,577,4496
1644153900.84862,-0.011719,0.012512,-0.990845,0.068183,0.401832,-0.100458,51,276,578,4496
1644153900.892056,-0.01355,0.007446,-0.98999,0.175053,0.325496,-0.069924,54,255,570,4464
1644153900.987734,-0.01123,0.007202,-0.992371,0.175053,0.401832,-0.100458,45,280,570,4400
1644153901.036123,-0.011169,0.007019,-0.991333,0.266656,0.523969,-0.130992,46,276,573,4464
1644153901.084582,-0.011658,0.010315,-0.990906,0.312458,0.417099,-0.268397,61,275,582,4464
1644153901.132828,-0.011902,0.009399,-0.99176,0.281924,0.63084,-0.14626,59,273,577,4480
1644153901.181234,-0.014099,0.010254,-0.991394,0.266656,0.432366,-0.192061,43,281,569,4496
1644153901.229672,-0.016235,0.006653,-0.991455,0.312458,0.462901,-0.115725,48,271,571,4480
1644153901.277991,-0.012207,0.008423,-0.992371,0.312458,0.569771,-0.024122,49,275,563,4464
1644153901.326401,-0.012878,0.009216,-0.990112,0.342992,0.554504,-0.14626,55,274,564,4496
1644153901.374795,-0.010559,0.01123,-0.990234,0.281924,0.462901,-0.130992,43,281,583,4432
1644153901.423185,-0.01123,0.009949,-0.994019,0.220855,0.569771,0.006412,46,264,576,4464
1644153901.47156,-0.013,0.009399,-0.993713,0.190321,0.356031,-0.130992,52,277,565,4464
1644153901.519942,-0.012451,0.008301,-0.995117,0.281924,0.432366,-0.069924,57,280,568,4496
1644153901.568327,-0.011292,0.011414,-0.994873,0.205588,0.447634,0.12855,36,271,578,4496
1644153901.616688,-0.012451,0.01001,-0.991821,0.236122,0.371298,-0.085191,58,266,578,4464
1644153901.665143,-0.010925,0.007874,-0.991516,0.129252,0.432366,-0.130992,45,270,579,4432
1644153901.713489,-0.012695,0.007996,-0.991333,0.404061,0.447634,0.036947,46,274,571,4464
1644153901.762423,-0.012329,0.009521,-0.992004,0.327725,0.340763,-0.14626,48,274,571,4528
1644153901.810992,-0.010803,0.009644,-0.992737,0.205588,0.462901,-0.085191,38,280,563,4528
1644153901.860441,-0.010742,0.005493,-0.994324,0.251389,0.447634,-0.176794,52,273,572,4480
1644153901.910152,-0.009766,0.007935,-0.99176,0.175053,0.523969,-0.283664,51,262,564,4496
1644153901.96075,-0.013367,0.00885,-0.993774,0.175053,0.462901,-0.085191,58,271,566,4432
1644153902.068907,-0.014465,0.007446,-0.991211,0.251389,0.325496,-0.024122,60,276,571,4400
1644153902.107032,-0.013062,0.008362,-0.993713,0.312458,0.417099,0.052214,47,270,575,4432
1644153902.148943,-0.012756,0.009521,-0.994324,0.205588,0.371298,-0.192061,49,270,570,4464
1644153902.197341,-0.013,0.006348,-0.992126,0.205588,0.386565,-0.069924,51,274,571,4464
1644153902.245722,-0.011597,0.010071,-0.990479,0.266656,0.401832,-0.14626,49,280,572,4464
1644153902.29411,-0.012024,0.008667,-0.990417,0.281924,0.508702,-0.100458,49,275,570,4496
1644153902.342515,-0.009521,0.008057,-0.990356,0.35826,0.432366,-0.176794,59,277,572,4496
1644153902.390844,-0.013733,0.009644,-0.994568,0.144519,0.447634,0.021679,57,277,565,4496
1644153902.439727,-0.010437,0.009277,-0.993225,0.342992,0.371298,0.036947,54,270,572,4528
1644153902.488288,-0.010193,0.010925,-0.994263,0.205588,0.447634,-0.14626,47,280,577,4432
1644153902.53639,-0.012207,0.005615,-0.990662,0.297191,0.356031,-0.085191,58,276,571,4464
1644153902.586723,-0.015564,0.007874,-0.990723,0.281924,0.539237,-0.192061,48,271,576,4464
1644153902.63758,-0.010254,0.010376,-0.989014,0.159786,0.554504,0.036947,55,264,571,4464
1644153902.687115,-0.012024,0.007935,-0.991272,0.281924,0.371298,-0.207328,52,275,568,4464
1644153902.777973,-0.011108,0.009338,-0.990662,0.129252,0.523969,-0.161527,41,274,571,4496
1644153902.826493,-0.010925,0.009399,-0.990845,0.281924,0.462901,0.067481,51,276,571,4464
1644153902.874774,-0.008484,0.007141,-0.993774,0.251389,0.417099,-0.192061,51,274,566,4496
1644153902.923137,-0.015198,0.008972,-0.991211,0.35826,0.585038,-0.100458,54,273,565,4464
1644153902.971555,-0.013672,0.005127,-0.993591,0.251389,0.371298,-0.161527,53,271,576,4528
1644153903.019909,-0.009155,0.006226,-0.991516,0.35826,0.340763,-0.207328,53,274,569,4480
1644153903.071163,-0.013855,0.008484,-0.989014,0.266656,0.417099,-0.054656,58,271,580,4464
1644153903.11672,-0.012268,0.007446,-0.992065,0.46513,0.386565,0.006412,55,279,571,4464
1644153903.165177,-0.010986,0.010132,-0.991943,0.251389,0.264427,-0.039389,49,260,577,4496
1644153903.213454,-0.01178,0.008972,-0.990845,0.342992,0.447634,0.006412,58,271,566,4464
1644153903.261801,-0.011841,0.006775,-0.98999,0.205588,0.462901,-0.024122,40,275,570,4464
1644153903.310203,-0.013977,0.011108,-0.990967,0.205588,0.478168,-0.085191,49,275,577,4496
1644153903.358586,-0.011414,0.008301,-0.989807,0.434595,0.417099,-0.024122,53,281,571,4480
1644153903.406973,-0.012146,0.007629,-0.99115,0.190321,0.386565,-0.039389,49,270,570,4480
1644153903.455366,-0.013794,0.009766,-0.990967,0.251389,0.447634,-0.085191,49,275,577,4432
1644153903.503728,-0.008606,0.008911,-0.990906,0.205588,0.371298,-0.14626,52,270,582,4432
1644153903.55275,-0.011353,0.008606,-0.992676,0.266656,0.508702,-0.161527,53,264,578,4480
1644153903.600826,-0.013977,0.008484,-0.991516,0.236122,0.386565,-0.054656,48,269,571,4464
1644153903.64892,-0.010132,0.006775,-0.99231,0.037649,0.569771,-0.207328,51,274,578,4496
1644153903.699184,-0.013062,0.008423,-0.990906,0.312458,0.356031,-0.024122,46,274,578,4496
1644153903.749572,-0.01239,0.010864,-0.993042,0.266656,0.478168,-0.100458,54,273,572,4480
1644153903.79994,-0.012146,0.009888,-0.994934,0.236122,0.508702,-0.344733,35,275,570,4544
1644153903.890901,-0.009521,0.009155,-0.992126,0.129252,0.371298,-0.207328,53,274,571,4528
1644153903.939213,-0.012024,0.009949,-0.993591,0.281924,0.371298,-0.054656,42,273,570,4480
1644153903.987639,-0.012146,0.006531,-0.991943,0.251389,0.478168,-0.14626,52,273,561,4432
1644153904.035994,-0.012024,0.009949,-0.990112,0.312458,0.447634,-0.115725,53,269,573,4400
1644153904.093274,-0.012085,0.007874,-0.992859,0.144519,0.539237,-0.100458,54,282,577,4496
1644153904.132839,-0.014404,0.010925,-0.991516,0.251389,0.401832,-0.115725,52,265,577,4464
1644153904.181153,-0.01062,0.009644,-0.99176,0.159786,0.462901,-0.100458,41,276,578,4464
1644153904.229503,-0.010315,0.010315,-0.99231,0.236122,0.432366,0.036947,49,277,577,4432
1644153904.277883,-0.012695,0.013123,-0.991272,0.236122,0.386565,0.006412,53,271,580,4416
1644153904.326292,-0.009766,0.006836,-0.989014,0.205588,0.478168,0.036947,51,274,564,4464
1644153904.374715,-0.007263,0.008484,-0.992981,0.205588,0.462901,-0.115725,45,275,575,4496
1644153904.42309,-0.011169,0.011169,-0.994995,0.297191,0.386565,-0.085191,46,274,566,4464
1644153904.47146,-0.008728,0.008972,-0.990479,0.312458,0.462901,-0.024122,53,274,571,4432
1644153904.519821,-0.010193,0.006042,-0.9953,0.236122,0.569771,0.052214,52,277,572,4496
1644153904.568202,-0.008362,0.008972,-0.993896,0.129252,0.447634,-0.237863,43,276,566,4432
1644153904.61661,-0.013428,0.008179,-0.994446,0.251389,0.447634,-0.024122,47,270,582,4464
1644153904.665606,-0.012817,0.007935,-0.992798,0.312458,0.386565,-0.085191,53,269,573,4464
1644153904.714521,-0.011414,0.008118,-0.990295,0.220855,0.447634,-0.069924,53,269,571,4464
1644153904.76197,-0.010193,0.009094,-0.991272,0.220855,0.508702,-0.085191,46,271,564,4432
1644153904.813064,-0.011719,0.008301,-0.991333,0.205588,0.462901,-0.161527,45,270,563,4496
1644153904.864841,-0.010437,0.006653,-0.990845,0.327725,0.340763,-0.25313,48,271,569,4496
1644153904.908081,-0.013062,0.008545,-0.992432,0.373527,0.447634,-0.100458,49,277,572,4528
1644153905.003736,-0.011047,0.00647,-0.990295,0.281924,0.325496,-0.130992,53,266,571,4416
1644153905.062027,-0.012756,0.011047,-0.991211,0.373527,0.401832,-0.207328,45,268,575,4528
1644153905.106726,-0.01001,0.006592,-0.992188,0.251389,0.417099,-0.207328,51,271,576,4528
1644153905.148878,-0.012817,0.009521,-0.993469,0.220855,0.462901,-0.085191,51,279,569,4528
1644153905.197248,-0.010132,0.007507,-0.991089,0.373527,0.478168,-0.130992,49,282,572,4496
1644153905.245586,-0.011292,0.01062,-0.992126,0.08345,0.447634,0.067481,51,279,580,4464
1644153905.294025,-0.012756,0.010803,-0.99353,0.251389,0.310229,-0.25313,49,275,577,4528
1644153905.342375,-0.007507,0.006836,-0.992615,0.297191,0.478168,-0.14626,43,276,564,4464
1644153905.390794,-0.012146,0.011353,-0.994385,0.480397,0.493435,-0.085191,48,271,576,4528
1644153905.439166,-0.008911,0.003479,-0.992126,0.236122,0.371298,-0.069924,52,265,575,4480
1644153905.487551,-0.009399,0.00647,-0.991516,0.251389,0.401832,-0.024122,62,266,580,4496
1644153905.535948,-0.011841,0.008972,-0.992126,0.312458,0.478168,-0.329466,45,273,570,4480
1644153905.584307,-0.012207,0.009277,-0.992249,0.236122,0.417099,-0.25313,49,280,579,4464
1644153905.633301,-0.011475,0.00946,-0.990723,0.297191,0.493435,-0.069924,52,277,582,4400
1644153905.681132,-0.009583,0.006409,-0.98999,0.419328,0.569771,-0.085191,48,274,571,4480
1644153905.731254,-0.012024,0.010071,-0.989685,0.251389,0.371298,-0.130992,52,273,568,4432
1644153905.781879,-0.013245,0.01123,-0.989563,0.342992,0.417099,-0.115725,51,269,566,4480
1644153905.831612,-0.010193,0.006897,-0.988708,0.159786,0.447634,-0.25313,42,275,570,4432
1644153905.876304,-0.014648,0.008423,-0.993408,0.220855,0.508702,-0.14626,48,271,578,4576
1644153905.971418,-0.011597,0.008301,-0.992249,0.144519,0.401832,-0.039389,42,270,575,4528
1644153906.019828,-0.011902,0.012085,-0.991333,0.175053,0.554504,0.021679,46,279,580,4464
1644153906.069451,-0.009705,0.013489,-0.990417,0.175053,0.493435,-0.054656,52,277,572,4496
1644153906.11657,-0.011841,0.007812,-0.991333,0.327725,0.554504,-0.192061,52,270,582,4480
1644153906.164986,-0.009338,0.008728,-0.991882,0.281924,0.417099,-0.14626,51,274,569,4464
1644153906.213336,-0.01001,0.01178,-0.987061,0.266656,0.417099,-0.054656,57,273,572,4432
1644153906.261711,-0.010559,0.012634,-0.992004,0.159786,0.508702,0.052214,52,273,568,4496
1644153906.310075,-0.011475,0.011292,-0.992981,0.175053,0.371298,-0.14626,52,273,577,4496
1644153906.358497,-0.011169,0.010986,-0.9953,0.205588,0.24916,0.006412,48,274,571,4432
1644153906.406876,-0.012695,0.011536,-0.992432,0.220855,0.417099,-0.085191,51,264,576,4480
1644153906.455254,-0.010925,0.009399,-0.99231,0.373527,0.356031,-0.115725,39,281,573,4496
1644153906.50366,-0.009644,0.01001,-0.994019,0.129252,0.493435,-0.115725,46,271,571,4480
1644153906.552032,-0.014099,0.011108,-0.990479,0.404061,0.462901,-0.024122,54,277,577,4480
1644153906.600389,-0.009705,0.01001,-0.989868,0.312458,0.493435,-0.161527,51,279,573,4432
1644153906.648777,-0.011414,0.01416,-0.991516,0.281924,0.401832,-0.039389,46,276,576,4464
1644153906.69719,-0.013428,0.009888,-0.99176,0.129252,0.447634,0.189618,54,270,572,4400
1644153906.74559,-0.013672,0.009583,-0.992676,0.266656,0.386565,-0.268397,48,276,569,4432
1644153906.794516,-0.013977,0.009949,-0.992126,0.220855,0.401832,-0.115725,52,280,570,4496
1644153906.843331,-0.009338,0.007874,-0.99353,0.205588,0.493435,-0.008855,51,283,578,4464
1644153906.893954,-0.010742,0.008179,-0.992126,0.251389,0.539237,-0.130992,42,273,577,4496
1644153906.943957,-0.013367,0.008301,-0.991882,0.342992,0.310229,0.036947,49,270,575,4464
1644153906.99424,-0.009949,0.007935,-0.992065,0.342992,0.508702,-0.130992,52,268,565,4528
1644153907.08433,-0.012451,0.012878,-0.990967,0.388794,0.447634,-0.14626,47,277,579,4464
1644153907.132669,-0.01239,0.007751,-0.989685,0.297191,0.401832,-0.039389,53,259,569,4464
1644153907.181028,-0.014038,0.009827,-0.99176,0.419328,0.585038,-0.161527,53,271,580,4480
1644153907.229394,-0.011597,0.010498,-0.993042,0.297191,0.417099,-0.039389,52,275,579,4464
1644153907.277783,-0.010803,0.009155,-0.993042,0.404061,0.386565,-0.024122,57,275,565,4464
1644153907.326169,-0.011475,0.007629,-0.991943,0.190321,0.539237,-0.176794,53,269,566,4496
1644153907.374703,-0.013489,0.008057,-0.992065,0.113985,0.523969,-0.115725,47,270,575,4480
1644153907.422986,-0.01239,0.010254,-0.990051,0.373527,0.356031,-0.039389,52,282,568,4496
1644153907.471364,-0.013367,0.009521,-0.992615,0.404061,0.523969,-0.085191,48,271,569,4496
1644153907.519741,-0.012695,0.008362,-0.991272,0.327725,0.478168,-0.085191,53,264,566,4496
1644153907.568126,-0.013123,0.00824,-0.992676,0.327725,0.432366,-0.161527,40,263,568,4528
1644153907.616506,-0.014465,0.008423,-0.991821,0.190321,0.462901,-0.176794,60,271,576,4496
1644153907.664887,-0.011658,0.008972,-0.993713,0.251389,0.447634,-0.14626,48,274,566,4496
1644153907.713284,-0.013428,0.009033,-0.991577,0.266656,0.340763,-0.176794,68,282,575,4480
1644153907.761668,-0.010193,0.008911,-0.991882,0.419328,0.462901,0.021679,65,276,573,4496
1644153907.810091,-0.009644,0.010254,-0.992004,0.159786,0.478168,-0.008855,52,287,565,4480
1644153907.858476,-0.011597,0.008667,-0.993042,0.266656,0.417099,-0.130992,55,269,583,4464
1644153907.907258,-0.006348,0.009521,-0.992188,0.281924,0.539237,-0.176794,53,274,578,4432
1644153907.955501,-0.011414,0.01123,-0.993958,0.404061,0.478168,-0.054656,57,273,565,4496
1644153908.005879,-0.013062,0.009033,-0.990845,0.297191,0.447634,-0.069924,54,275,575,4464
1644153908.07371,-0.012329,0.00885,-0.990906,0.251389,0.310229,-0.207328,47,275,568,4480
1644153908.118134,-0.013611,0.006836,-0.991638,0.236122,0.432366,-0.283664,48,279,578,4464
1644153908.149053,-0.00885,0.008606,-0.989258,0.144519,0.417099,-0.176794,55,266,585,4528
1644153908.245498,-0.010498,0.01123,-0.989746,0.327725,0.462901,-0.130992,49,270,568,4496
1644153908.293912,-0.01001,0.009277,-0.987976,0.404061,0.325496,-0.054656,54,273,568,4528
1644153908.342277,-0.012512,0.008667,-0.991333,0.205588,0.539237,-0.100458,41,271,569,4432
1644153908.390671,-0.012573,0.007507,-0.993164,0.236122,0.493435,-0.100458,53,276,569,4480
1644153908.439043,-0.010437,0.010498,-0.990723,0.266656,0.432366,-0.192061,54,277,579,4432
1644153908.487423,-0.011963,0.008911,-0.992737,0.113985,0.356031,-0.14626,58,276,573,4496
1644153908.535819,-0.011169,0.005493,-0.991028,0.113985,0.508702,0.036947,57,270,561,4432
1644153908.584228,-0.013855,0.007141,-0.991943,0.190321,0.233893,-0.130992,55,274,571,4464
1644153908.632615,-0.012512,0.009827,-0.990356,0.190321,0.417099,-0.100458,58,262,571,4464
1644153908.680983,-0.010742,0.009583,-0.993896,0.220855,0.310229,-0.115725,57,265,589,4496
1644153908.729367,-0.008667,0.009583,-0.988464,0.373527,0.462901,-0.207328,58,269,571,4528
1644153908.777756,-0.013245,0.011353,-0.991699,0.281924,0.447634,0.006412,49,268,570,4480
1644153908.826187,-0.010559,0.01001,-0.993164,0.388794,0.401832,0.036947,53,274,569,4432
1644153908.874624,-0.013367,0.011108,-0.990234,0.190321,0.462901,-0.176794,47,268,579,4464
1644153908.922987,-0.009766,0.012451,-0.989685,0.312458,0.478168,-0.14626,49,273,575,4496
1644153908.971352,-0.011963,0.009399,-0.994019,0.35826,0.432366,-0.024122,54,270,572,4416
1644153909.019898,-0.007385,0.012085,-0.992615,0.342992,0.340763,-0.237863,49,275,568,4528
1644153909.084595,-0.012695,0.006226,-0.99176,0.190321,0.615573,0.036947,47,275,577,4432
1644153909.116882,-0.007385,0.009583,-0.990234,0.281924,0.371298,-0.039389,48,269,576,4464
1644153909.213246,-0.010437,0.007202,-0.991516,0.159786,0.585038,0.006412,57,268,572,4464
1644153909.261596,-0.009521,0.00885,-0.990906,0.266656,0.386565,-0.130992,52,275,575,4464
1644153909.310004,-0.010925,0.009827,-0.994629,0.113985,0.401832,0.006412,52,263,568,4464
1644153909.358378,-0.011963,0.00769,-0.993286,0.144519,0.447634,0.021679,48,276,566,4432
1644153909.40676,-0.010803,0.009521,-0.991333,0.236122,0.539237,-0.115725,49,275,568,4432
1644153909.455168,-0.013123,0.009583,-0.991089,0.266656,0.386565,-0.207328,48,271,571,4528
1644153909.503513,-0.011658,0.009644,-0.992554,0.175053,0.340763,0.006412,48,266,571,4464
1644153909.551938,-0.012878,0.008911,-0.99292,0.236122,0.371298,-0.192061,46,274,564,4464
1644153909.600318,-0.011536,0.00885,-0.993408,0.281924,0.447634,0.036947,51,283,580,4432
1644153909.648691,-0.01178,0.007751,-0.992249,0.190321,0.386565,-0.115725,51,274,578,4464
1644153909.697079,-0.009338,0.009705,-0.992126,0.251389,0.508702,-0.329466,52,275,568,4496
1644153909.745445,-0.011658,0.008362,-0.992004,0.327725,0.432366,-0.069924,52,268,577,4464
1644153909.79388,-0.014587,0.008362,-0.992859,0.266656,0.646107,-0.207328,53,271,573,4528
1644153909.842313,-0.010681,0.010376,-0.991699,0.281924,0.325496,-0.161527,57,273,584,4496
1644153909.890668,-0.00946,0.007812,-0.994202,0.312458,0.356031,-0.130992,54,275,577,4496
1644153909.93906,-0.008057,0.010132,-0.993225,0.113985,0.188092,-0.130992,46,286,573,4496
1644153909.98786,-0.014221,0.009827,-0.992615,0.342992,0.356031,-0.192061,51,271,571,4464
1644153910.036206,-0.011841,0.01123,-0.989014,0.251389,0.401832,-0.008855,51,266,576,4432
1644153910.093461,-0.013916,0.00885,-0.98999,0.205588,0.493435,0.006412,46,281,571,4480
1644153910.13573,-0.010925,0.009583,-0.989624,0.266656,0.478168,-0.039389,58,279,566,4528
1644153910.184429,-0.01062,0.009033,-0.988953,0.190321,0.432366,-0.054656,54,273,568,4496
1644153910.234811,-0.011475,0.006653,-0.993103,0.266656,0.417099,-0.054656,42,282,572,4480
1644153910.278839,-0.010559,0.009094,-0.990845,0.342992,0.417099,-0.054656,49,268,565,4464
1644153910.374486,-0.009766,0.009827,-0.992126,0.251389,0.539237,-0.14626,53,262,576,4432
1644153910.42289,-0.010132,0.00769,-0.991455,0.297191,0.462901,-0.054656,49,273,579,4464
1644153910.471253,-0.010376,0.009888,-0.988159,0.236122,0.417099,-0.100458,49,270,575,4496
1644153910.51964,-0.00885,0.009338,-0.993042,0.312458,0.417099,-0.14626,57,277,572,4528
1644153910.568021,-0.009766,0.010193,-0.992249,0.35826,0.478168,0.006412,52,275,575,4496
1644153910.616398,-0.013,0.009949,-0.991028,0.236122,0.462901,0.006412,42,275,572,4416
1644153910.66479,-0.010193,0.009583,-0.990723,0.373527,0.447634,0.036947,49,275,565,4432
1644153910.713193,-0.010071,0.010437,-0.991333,0.220855,0.432366,0.006412,58,271,569,4528
1644153910.761557,-0.013794,0.011475,-0.993408,0.327725,0.417099,-0.054656,58,271,573,4528
1644153910.809957,-0.014832,0.007812,-0.993042,0.373527,0.417099,0.006412,57,273,584,4416
1644153910.858383,-0.014282,0.007874,-0.991455,0.159786,0.585038,-0.130992,52,265,575,4496
1644153910.906777,-0.010681,0.008179,-0.989868,0.220855,0.356031,-0.100458,49,270,570,4432
1644153910.955197,-0.012146,0.010681,-0.990784,0.449863,0.356031,-0.054656,49,282,572,4496
1644153911.003516,-0.01355,0.01001,-0.988892,0.251389,0.523969,-0.161527,55,279,571,4432
1644153911.068223,-0.009827,0.012024,-0.990662,0.373527,0.356031,-0.085191,57,280,568,4432
1644153911.106739,-0.011414,0.011292,-0.992615,0.251389,0.417099,-0.115725,45,275,579,4576
1644153911.148875,-0.012146,0.009521,-0.990112,0.373527,0.401832,-0.161527,57,265,572,4496
1644153911.197577,-0.012573,0.010254,-0.992126,0.327725,0.646107,-0.024122,57,265,568,4464
1644153911.245449,-0.011414,0.011658,-0.992615,0.266656,0.447634,0.082748,48,269,573,4480
1644153911.29489,-0.009094,0.01062,-0.991699,0.281924,0.356031,-0.069924,53,264,576,4496
1644153911.345435,-0.01001,0.010376,-0.992371,0.159786,0.386565,-0.008855,51,269,578,4480
1644153911.395699,-0.012146,0.009644,-0.989258,0.373527,0.523969,0.021679,49,280,568,4464
1644153911.439737,-0.006531,0.007629,-0.988831,0.35826,0.523969,-0.222595,46,276,573,4464
1644153911.535716,-0.009644,0.007507,-0.990601,0.175053,0.417099,0.052214,52,273,575,4464
1644153911.584122,-0.011414,0.008423,-0.987854,0.373527,0.356031,-0.130992,58,283,559,4496
1644153911.635873,-0.009583,0.010254,-0.992432,0.297191,0.508702,-0.054656,42,265,568,4496
1644153911.680972,-0.011169,0.009094,-0.987854,0.068183,0.432366,-0.100458,52,280,582,4464
1644153911.729369,-0.01001,0.012024,-0.990662,0.236122,0.432366,-0.176794,53,283,573,4528
1644153911.777719,-0.013,0.011597,-0.993164,0.342992,0.539237,-0.085191,51,279,576,4496
1644153911.826126,-0.010254,0.01062,-0.990906,0.159786,0.508702,0.021679,55,281,571,4464
1644153911.874545,-0.01178,0.007446,-0.992615,0.113985,0.569771,0.006412,46,276,576,4544
1644153911.922972,-0.011658,0.008118,-0.990967,0.251389,0.24916,0.082748,49,268,570,4496
1644153911.971286,-0.012207,0.009766,-0.992004,0.113985,0.356031,0.143817,58,276,573,4496
1644153912.019565,-0.010315,0.010437,-0.990234,0.220855,0.294962,-0.054656,41,279,571,4592
1644153912.076293,-0.010254,0.008057,-0.989807,0.327725,0.417099,-0.161527,49,273,575,4480
1644153912.116364,-0.013428,0.009827,-0.989807,0.327725,0.569771,-0.069924,57,270,572,4464
1644153912.16477,-0.010193,0.009888,-0.992371,0.236122,0.508702,-0.039389,36,276,578,4496
1644153912.21316,-0.009277,0.008972,-0.990845,0.220855,0.523969,-0.039389,48,276,566,4464
1644153912.261485,-0.012573,0.009399,-0.990723,0.312458,0.523969,-0.100458,48,271,580,4464
1644153912.309924,-0.011719,0.007996,-0.992371,0.251389,0.508702,-0.008855,54,275,575,4528
1644153912.358316,-0.014282,0.011963,-0.992371,0.220855,0.356031,-0.207328,47,285,582,4480
1644153912.406696,-0.010498,0.008667,-0.991028,0.251389,0.569771,-0.085191,51,266,578,4432
1644153912.455122,-0.014038,0.009644,-0.99115,0.220855,0.478168,-0.069924,54,265,568,4464
1644153912.50454,-0.013062,0.007874,-0.992432,0.434595,0.371298,-0.192061,48,266,571,4496
1644153912.552397,-0.013733,0.009155,-0.988892,0.297191,0.493435,-0.100458,49,268,565,4432
1644153912.648603,-0.011719,0.010498,-0.991089,0.35826,0.401832,-0.024122,47,268,565,4464
1644153912.697031,-0.010498,0.012939,-0.989197,0.327725,0.493435,-0.115725,45,270,575,4432
1644153912.745414,-0.011475,0.008179,-0.989929,0.281924,0.447634,-0.130992,55,274,566,4400
1644153912.793829,-0.010315,0.011719,-0.992737,0.297191,0.447634,-0.054656,61,277,570,4432
1644153912.842211,-0.012207,0.00885,-0.990662,0.007115,0.478168,0.036947,48,276,569,4464
1644153912.891017,-0.017395,0.012695,-0.990356,0.205588,0.371298,0.021679,52,268,575,4464
1644153912.939056,-0.012817,0.009155,-0.990601,0.037649,0.386565,-0.100458,53,266,578,4480
1644153912.987377,-0.012207,0.009216,-0.994202,0.342992,0.401832,0.006412,53,271,573,4496
1644153913.035718,-0.009521,0.010315,-0.99408,0.327725,0.447634,-0.008855,45,268,570,4496
1644153913.087948,-0.010498,0.009521,-0.991821,0.281924,0.371298,-0.085191,47,277,570,4480
1644153913.132551,-0.013184,0.007507,-0.99115,0.297191,0.447634,-0.069924,55,281,576,4480
1644153913.180964,-0.012085,0.008484,-0.988525,0.236122,0.401832,-0.069924,48,269,566,4480
1644153913.229859,-0.013672,0.008484,-0.99054,0.312458,0.539237,0.036947,53,283,576,4464
1644153913.277606,-0.009644,0.012024,-0.992859,0.251389,0.493435,0.067481,47,273,565,4432
1644153913.326033,-0.013062,0.007385,-0.992249,0.251389,0.462901,-0.176794,53,269,569,4464
1644153913.374396,-0.013367,0.005188,-0.992493,0.251389,0.432366,-0.130992,54,277,568,4432
1644153913.422792,-0.010803,0.00708,-0.988953,0.297191,0.554504,-0.008855,49,277,570,4496
1644153913.471159,-0.012451,0.009277,-0.992676,0.236122,0.340763,-0.222595,54,265,568,4480
1644153913.5195,-0.013672,0.009644,-0.990784,0.190321,0.508702,-0.130992,52,270,568,4480
1644153913.569002,-0.011841,0.007385,-0.989075,0.373527,0.432366,-0.085191,47,275,568,4464
1644153913.616732,-0.015686,0.010193,-0.991089,0.205588,0.401832,0.021679,53,271,566,4496
1644153913.713146,-0.014343,0.007202,-0.993835,0.297191,0.340763,-0.14626,47,275,575,4496
1644153913.761472,-0.011169,0.008179,-0.993408,0.190321,0.554504,-0.207328,58,269,555,4496
1644153913.809889,-0.012878,0.006897,-0.991272,0.266656,0.554504,-0.085191,42,275,565,4496
1644153913.858281,-0.012085,0.011108,-0.990662,0.35826,0.417099,-0.161527,49,280,568,4432
1644153913.906663,-0.011658,0.010071,-0.993469,0.251389,0.523969,-0.039389,45,280,570,4432
1644153913.955076,-0.011719,0.008545,-0.992493,0.281924,0.371298,-0.008855,57,258,577,4576
1644153914.003422,-0.009705,0.008423,-0.992615,0.251389,0.523969,-0.176794,51,271,576,4480
1644153914.066793,-0.012573,0.006897,-0.98877,0.327725,0.432366,-0.069924,53,269,576,4480
1644153914.100147,-0.012512,0.008179,-0.990356,0.205588,0.478168,-0.14626,53,266,573,4528
1644153914.148615,-0.014343,0.009644,-0.992554,0.281924,0.386565,-0.161527,60,274,573,4496
1644153914.19702,-0.012451,0.00885,-0.989868,0.281924,0.417099,-0.069924,48,269,569,4528
1644153914.245394,-0.012024,0.009766,-0.994019,0.129252,0.371298,0.006412,46,279,578,4416
1644153914.293761,-0.013306,0.007019,-0.992004,0.35826,0.432366,0.052214,47,273,582,4496
1644153914.342172,-0.013916,0.008301,-0.992554,0.220855,0.432366,-0.024122,48,271,571,4432
1644153914.390543,-0.011169,0.010742,-0.990356,0.434595,0.554504,-0.176794,40,273,568,4496
1644153914.438925,-0.009399,0.007141,-0.991821,0.342992,0.432366,-0.268397,52,280,579,4464
1644153914.487306,-0.010315,0.011292,-0.993774,0.098718,0.417099,-0.024122,48,274,578,4464
1644153914.535691,-0.014038,0.006592,-0.990417,0.419328,0.523969,-0.14626,58,271,571,4416
1644153914.584076,-0.014282,0.007812,-0.991882,0.266656,0.585038,0.006412,54,280,570,4528
1644153914.632472,-0.012756,0.008911,-0.991455,0.08345,0.462901,-0.054656,49,273,572,4432
1644153914.68341,-0.009949,0.008484,-0.99176,0.175053,0.569771,-0.115725,52,280,572,4480
1644153914.729724,-0.011292,0.010193,-0.990356,0.388794,0.462901,-0.115725,49,280,575,4464
1644153914.826226,-0.010986,0.010864,-0.991211,0.281924,0.310229,0.067481,45,280,575,4480
1644153914.874337,-0.012634,0.010376,-0.988159,0.297191,0.401832,-0.100458,46,274,576,4432
1644153914.922736,-0.011414,0.005981,-0.991089,0.220855,0.462901,-0.069924,48,276,580,4496
1644153914.971134,-0.013062,0.01123,-0.992432,0.251389,0.386565,-0.085191,55,279,578,4432
1644153915.019478,-0.011536,0.009399,-0.992981,0.297191,0.417099,-0.085191,54,277,570,4496
1644153915.067955,-0.01416,0.009094,-0.993286,0.220855,0.279695,0.006412,59,265,582,4480
1644153915.116285,-0.013794,0.007874,-0.991516,0.251389,0.417099,-0.115725,52,273,570,4528
1644153915.164681,-0.014038,0.003174,-0.989258,0.052916,0.325496,-0.069924,53,266,569,4496
1644153915.213029,-0.009888,0.006836,-0.992004,0.266656,0.447634,-0.207328,47,277,575,4416
1644153915.261407,-0.015625,0.009155,-0.992798,0.312458,0.554504,0.082748,53,266,580,4464
1644153915.309854,-0.011597,0.01178,-0.991455,0.35826,0.417099,-0.192061,54,280,568,4464
1644153915.358226,-0.011108,0.009399,-0.99353,0.220855,0.264427,-0.054656,59,275,570,4496
1644153915.406572,-0.010376,0.007263,-0.99115,0.190321,0.417099,0.006412,48,264,566,4528
1644153915.455019,-0.012024,0.009583,-0.991577,0.251389,0.401832,-0.115725,52,270,579,4528
1644153915.503364,-0.013733,0.011719,-0.989624,0.35826,0.447634,-0.14626,52,277,575,4528
1644153915.551781,-0.01178,0.010071,-0.991028,0.220855,0.371298,-0.054656,49,275,575,4496
1644153915.600138,-0.015991,0.008179,-0.99176,0.266656,0.386565,-0.115725,57,287,563,4432
1644153915.648571,-0.009155,0.008606,-0.993774,0.159786,0.203359,-0.161527,47,277,572,4496
1644153915.696909,-0.010315,0.008728,-0.990479,0.266656,0.340763,-0.085191,47,273,577,4528
1644153915.745324,-0.014587,0.008362,-0.991272,0.312458,0.401832,-0.085191,46,274,566,4464
1644153915.799077,-0.014343,0.009216,-0.991577,0.297191,0.432366,-0.222595,51,281,573,4496
1644153915.844922,-0.01239,0.007019,-0.992676,0.251389,0.417099,-0.100458,48,269,566,4496
1644153915.938823,-0.01239,0.008484,-0.991638,0.312458,0.24916,-0.039389,51,271,566,4528
1644153915.98731,-0.011169,0.009521,-0.990234,0.404061,0.386565,-0.237863,39,271,583,4464
1644153916.035825,-0.013,0.011597,-0.990784,0.297191,0.417099,-0.085191,55,262,569,4464
1644153916.084477,-0.015015,0.006287,-0.993408,0.113985,0.310229,-0.237863,48,279,587,4480
1644153916.133895,-0.013306,0.010376,-0.991089,0.159786,0.371298,0.067481,51,271,583,4464
1644153916.180738,-0.010986,0.00885,-0.993042,0.281924,0.417099,0.113282,53,279,564,4480
1644153916.229145,-0.011414,0.008789,-0.990662,0.175053,0.462901,-0.192061,46,274,573,4464
1644153916.277515,-0.011169,0.009155,-0.990601,0.236122,0.493435,-0.192061,54,268,570,4432
1644153916.325935,-0.010071,0.008972,-0.992432,0.205588,0.539237,-0.14626,46,281,571,4416
1644153916.374312,-0.012146,0.008423,-0.988831,0.159786,0.508702,-0.054656,48,264,578,4464
1644153916.423104,-0.012573,0.008057,-0.994934,0.205588,0.493435,-0.039389,51,274,562,4496
1644153916.471039,-0.012573,0.010071,-0.993835,0.312458,0.340763,-0.161527,47,270,572,4480
1644153916.519447,-0.012268,0.009277,-0.995117,0.297191,0.340763,-0.069924,53,274,566,4480
1644153916.567872,-0.013123,0.010376,-0.991516,0.281924,0.371298,-0.237863,52,270,561,4496
1644153916.616265,-0.010864,0.007202,-0.989441,0.312458,0.569771,-0.161527,49,268,568,4576
1644153916.66467,-0.014526,0.010681,-0.990967,0.251389,0.356031,-0.054656,52,270,572,4464
1644153916.713026,-0.007263,0.00885,-0.993164,0.35826,0.294962,-0.100458,62,271,571,4464
1644153916.761424,-0.010742,0.007507,-0.992554,0.388794,0.447634,0.006412,51,281,571,4464
1644153916.809803,-0.010437,0.008911,-0.990967,0.312458,0.371298,-0.161527,41,264,573,4432
1644153916.858186,-0.012451,0.010742,-0.989319,0.236122,0.401832,-0.25313,47,273,572,4496
1644153916.908214,-0.011353,0.006531,-0.990967,0.434595,0.523969,-0.222595,49,268,568,4464
1644153916.955642,-0.011169,0.006897,-0.993103,0.251389,0.432366,-0.130992,51,283,571,4480
1644153917.06533,-0.011169,0.008545,-0.991455,0.327725,0.447634,-0.024122,48,274,566,4432
1644153917.100116,-0.009033,0.006409,-0.992065,0.297191,0.539237,-0.085191,53,274,571,4464
1644153917.148482,-0.011475,0.008179,-0.992737,0.251389,0.508702,0.143817,53,276,564,4464
1644153917.196873,-0.01178,0.007385,-0.994568,0.312458,0.493435,0.021679,49,273,572,4464
1644153917.245215,-0.010193,0.011902,-0.992371,0.281924,0.310229,-0.039389,52,277,575,4464
1644153917.293632,-0.015198,0.008606,-0.99292,0.175053,0.325496,-0.268397,49,275,568,4464
1644153917.342028,-0.01239,0.006714,-0.992676,0.404061,0.447634,-0.039389,48,281,576,4464
1644153917.390391,-0.010803,0.008667,-0.990479,0.144519,0.417099,-0.085191,49,273,563,4480
1644153917.438783,-0.011719,0.009155,-0.992249,0.388794,0.447634,-0.222595,58,276,571,4432
1644153917.487142,-0.010864,0.010193,-0.994202,0.175053,0.401832,0.006412,47,273,568,4480
1644153917.535563,-0.011902,0.011169,-0.991211,0.35826,0.356031,-0.14626,46,274,569,4480
1644153917.583935,-0.006531,0.008789,-0.992737,0.113985,0.401832,-0.207328,49,270,579,4464
1644153917.632329,-0.01062,0.007324,-0.994751,0.281924,0.523969,0.021679,48,271,569,4464
1644153917.685465,-0.008911,0.008301,-0.995178,0.388794,0.554504,-0.024122,48,281,583,4464
1644153917.740069,-0.01239,0.009399,-0.99231,0.236122,0.432366,-0.085191,51,271,571,4480
1644153917.778461,-0.012512,0.009521,-0.992859,0.312458,0.310229,-0.115725,49,275,575,4496
1644153917.874277,-0.015137,0.004883,-0.9953,0.205588,0.447634,-0.207328,47,273,572,4432
1644153917.92266,-0.011169,0.007996,-0.993469,0.281924,0.493435,-0.115725,57,280,577,4464
1644153917.971051,-0.012634,0.007019,-0.992371,0.190321,0.356031,-0.039389,40,270,572,4464
1644153918.019431,-0.010437,0.007446,-0.994568,0.08345,0.356031,-0.069924,53,274,571,4480
1644153918.068186,-0.013733,0.00824,-0.992615,0.373527,0.508702,-0.069924,57,268,575,4528
1644153918.116222,-0.009216,0.009399,-0.994019,0.281924,0.646107,-0.085191,62,271,571,4464
1644153918.164546,-0.012634,0.006775,-0.98999,0.190321,0.294962,-0.14626,45,268,558,4528
1644153918.212968,-0.011475,0.009888,-0.99292,0.220855,0.554504,-0.192061,53,264,566,4480
1644153918.26133,-0.013184,0.009277,-0.991516,0.190321,0.401832,-0.298931,55,271,571,4464
1644153918.309709,-0.015686,0.005676,-0.992065,0.342992,0.493435,-0.192061,51,281,576,4464
1644153918.358063,-0.011902,0.007996,-0.991699,0.342992,0.356031,-0.161527,45,275,572,4496
1644153918.406504,-0.014587,0.007812,-0.993042,0.205588,0.401832,-0.161527,43,276,576,4480
1644153918.454871,-0.012939,0.007874,-0.993103,0.190321,0.401832,-0.130992,46,276,566,4400
1644153918.503263,-0.013245,0.004761,-0.99115,0.220855,0.310229,-0.176794,42,277,575,4432
1644153918.55166,-0.011108,0.010681,-0.993042,0.46513,0.523969,-0.115725,46,269,566,4464
1644153918.600045,-0.014404,0.010437,-0.992676,0.266656,0.340763,-0.192061,49,285,570,4544
1644153918.64843,-0.016846,0.007751,-0.993774,0.404061,0.340763,0.036947,46,269,583,4480
1644153918.696808,-0.012756,0.006226,-0.995667,0.220855,0.508702,-0.024122,52,275,563,4528
1644153918.745184,-0.015015,0.009277,-0.992432,0.281924,0.432366,-0.237863,49,268,575,4432
1644153918.793556,-0.013672,0.011292,-0.990967,0.190321,0.462901,-0.161527,60,269,576,4464
1644153918.841913,-0.010925,0.008118,-0.99231,0.342992,0.417099,-0.039389,49,275,570,4480
1644153918.892441,-0.012756,0.008179,-0.991394,0.266656,0.417099,-0.314198,45,265,565,4528
1644153918.939964,-0.01178,0.007996,-0.989685,0.449863,0.447634,0.021679,46,259,564,4496
1644153919.035533,-0.011963,0.011047,-0.992249,0.342992,0.462901,-0.130992,48,276,569,4496
1644153919.083875,-0.010498,0.007202,-0.992859,0.297191,0.493435,0.052214,58,274,564,4464
1644153919.132333,-0.011414,0.007507,-0.990234,0.266656,0.386565,-0.085191,55,271,573,4528
1644153919.180694,-0.010681,0.009766,-0.992432,0.297191,0.523969,-0.069924,45,268,570,4480
1644153919.229083,-0.011169,0.01062,-0.994019,0.266656,0.432366,-0.039389,51,276,571,4480
1644153919.277582,-0.012146,0.006287,-0.992737,0.190321,0.523969,-0.054656,53,276,573,4464
1644153919.325942,-0.013489,0.007996,-0.992432,0.251389,0.478168,-0.024122,61,275,572,4480
1644153919.374176,-0.010254,0.009216,-0.992798,0.342992,0.371298,-0.100458,51,271,569,4464
1644153919.422577,-0.009338,0.010925,-0.993103,0.373527,0.325496,-0.176794,53,274,569,4432
1644153919.470953,-0.01416,0.009033,-0.990295,0.35826,0.523969,-0.069924,43,283,564,4480
1644153919.519354,-0.013977,0.007874,-0.991089,0.220855,0.356031,-0.024122,54,270,575,4432
1644153919.567733,-0.009827,0.008667,-0.990967,0.419328,0.447634,-0.25313,47,280,572,4464
1644153919.616096,-0.012573,0.007507,-0.993103,0.266656,0.279695,-0.207328,47,280,568,4464
1644153919.664509,-0.014526,0.007874,-0.995789,0.35826,0.356031,-0.024122,47,273,579,4496
1644153919.71292,-0.011047,0.009399,-0.99353,0.220855,0.432366,-0.085191,54,282,568,4496
1644153919.761273,-0.013794,0.00885,-0.988525,0.266656,0.447634,-0.008855,52,282,568,4432
1644153919.809653,-0.012207,0.008484,-0.994446,0.266656,0.401832,0.006412,52,273,568,4496
1644153919.858006,-0.011902,0.008362,-0.99115,0.220855,0.401832,-0.024122,43,281,559,4480
1644153919.906449,-0.012207,0.009705,-0.993835,0.404061,0.508702,-0.008855,46,279,562,4496
1644153919.956364,-0.010864,0.01062,-0.990417,0.35826,0.401832,0.052214,45,282,568,4464
1644153920.063243,-0.01178,0.009888,-0.993591,0.205588,0.417099,-0.024122,55,281,573,4480
1644153920.100043,-0.011841,0.009399,-0.993652,0.281924,0.325496,0.036947,47,280,577,4496
1644153920.148378,-0.013123,0.009583,-0.991882,0.327725,0.264427,-0.161527,57,270,572,4464
1644153920.196825,-0.012878,0.008728,-0.991821,0.251389,0.310229,-0.130992,60,271,576,4528
1644153920.245291,-0.012695,0.010315,-0.990845,0.266656,0.432366,-0.008855,42,275,568,4464
1644153920.293549,-0.011841,0.006042,-0.99115,0.297191,0.356031,0.036947,43,266,566,4480
1644153920.341958,-0.009827,0.008606,-0.992065,0.342992,0.447634,-0.069924,42,275,563,4496
1644153920.390357,-0.013794,0.007629,-0.990662,0.175053,0.447634,-0.008855,42,280,577,4464
1644153920.438732,-0.015808,0.007996,-0.989624,0.312458,0.523969,0.052214,46,274,578,4464
1644153920.487098,-0.011658,0.010925,-0.991333,0.220855,0.371298,-0.039389,51,271,573,4432
1644153920.535469,-0.01532,0.010132,-0.993591,0.312458,0.386565,-0.069924,53,279,578,4528
1644153920.583872,-0.012939,0.008057,-0.99353,0.480397,0.432366,-0.192061,47,275,570,4480
1644153920.63228,-0.009827,0.00531,-0.992554,0.297191,0.462901,-0.14626,46,279,578,4432
1644153920.680643,-0.011536,0.008423,-0.990723,0.08345,0.447634,-0.237863,38,265,568,4432
1644153920.729139,-0.008057,0.01001,-0.993347,0.220855,0.325496,-0.069924,53,274,576,4416
1644153920.779561,-0.012573,0.008911,-0.995483,0.327725,0.600305,-0.130992,46,283,566,4496
1644153920.826979,-0.010681,0.007263,-0.992126,0.404061,0.462901,-0.161527,54,273,575,4464
1644153920.922708,-0.011841,0.008606,-0.990967,0.266656,0.401832,-0.192061,59,268,575,4464
1644153920.970947,-0.01239,0.010864,-0.992493,0.08345,0.478168,-0.237863,48,276,569,4496
1644153921.0193,-0.012939,0.008484,-0.992493,0.297191,0.432366,0.006412,59,265,575,4480
1644153921.067775,-0.012146,0.008728,-0.990967,0.312458,0.386565,-0.085191,51,262,576,4432
1644153921.11606,-0.012329,0.010559,-0.990906,0.190321,0.447634,-0.237863,42,290,577,4432
1644153921.164459,-0.012024,0.007629,-0.991394,0.281924,0.447634,-0.130992,47,280,577,4496
1644153921.212867,-0.01178,0.00946,-0.991638,0.159786,0.417099,-0.115725,53,266,569,4496
1644153921.261208,-0.008789,0.007385,-0.990662,0.159786,0.462901,-0.14626,52,275,570,4432
1644153921.309595,-0.015137,0.010193,-0.994263,0.175053,0.554504,-0.024122,52,270,570,4432
1644153921.358023,-0.012573,0.009155,-0.991333,0.190321,0.340763,-0.25313,52,275,568,4480
1644153921.406384,-0.013306,0.006104,-0.990967,0.373527,0.569771,-0.039389,54,270,575,4528
1644153921.454776,-0.010132,0.009399,-0.991333,0.159786,0.432366,-0.069924,45,280,575,4480
1644153921.503189,-0.008789,0.007324,-0.994324,0.281924,0.356031,-0.14626,49,282,565,4416
1644153921.551528,-0.014832,0.010132,-0.993469,0.205588,0.462901,0.067481,59,268,577,4432
1644153921.599957,-0.013306,0.007141,-0.99115,0.266656,0.493435,0.021679,53,276,559,4480
1644153921.648334,-0.010864,0.009338,-0.99176,0.312458,0.447634,-0.039389,47,273,570,4464
1644153921.696768,-0.008545,0.009644,-0.990479,0.342992,0.493435,-0.115725,49,273,568,4464
1644153921.745166,-0.010681,0.009399,-0.99115,0.08345,0.417099,-0.130992,55,271,576,4432
1644153921.793512,-0.011353,0.010803,-0.989502,0.327725,0.310229,-0.039389,48,271,576,4464
1644153921.841891,-0.015503,0.008667,-0.992371,0.404061,0.462901,-0.100458,52,275,568,4464
1644153921.890824,-0.011414,0.006958,-0.994202,0.205588,0.233893,-0.222595,54,273,572,4464
1644153921.940914,-0.011475,0.007324,-0.991089,0.220855,0.462901,-0.054656,47,277,568,4464
1644153921.988475,-0.008911,0.008423,-0.989075,0.342992,0.417099,-0.192061,48,271,566,4432
1644153922.084929,-0.010864,0.009705,-0.990234,0.190321,0.432366,-0.222595,62,271,580,4464
1644153922.132283,-0.014343,0.006897,-0.995361,0.281924,0.508702,-0.115725,53,271,571,4496
1644153922.180567,-0.01123,0.007446,-0.993958,0.251389,0.523969,-0.222595,53,274,571,4496
1644153922.228932,-0.011475,0.006897,-0.992615,0.404061,0.401832,-0.100458,41,283,573,4496
1644153922.277302,-0.014587,0.009399,-0.991577,0.297191,0.264427,-0.237863,54,268,568,4496
1644153922.32568,-0.012024,0.009216,-0.989685,0.251389,0.523969,-0.25313,41,279,564,4528
1644153922.374092,-0.011292,0.012024,-0.992981,0.236122,0.432366,-0.222595,51,276,569,4496
1644153922.422498,-0.013184,0.008362,-0.993347,0.251389,0.401832,-0.207328,36,269,571,4480
1644153922.470882,-0.010437,0.007324,-0.991211,0.251389,0.493435,-0.161527,53,274,564,4416
1644153922.519217,-0.010193,0.010681,-0.990662,0.312458,0.417099,-0.176794,51,271,569,4480
1644153922.567623,-0.012512,0.007812,-0.991943,0.190321,0.447634,-0.207328,52,265,575,4496
1644153922.616034,-0.010986,0.011719,-0.993286,0.312458,0.615573,-0.14626,49,273,565,4464
1644153922.664433,-0.011108,0.00885,-0.991638,0.312458,0.417099,-0.176794,39,276,569,4432
1644153922.712821,-0.011719,0.006592,-0.992004,0.281924,0.462901,-0.115725,54,265,565,4432
1644153922.761139,-0.011658,0.006165,-0.992249,0.281924,0.401832,-0.024122,48,274,571,4496
1644153922.809621,-0.015808,0.009644,-0.993347,0.312458,0.340763,-0.100458,49,280,572,4496
1644153922.858009,-0.010132,0.011353,-0.993103,0.281924,0.340763,-0.192061,49,273,570,4496
1644153922.90636,-0.012268,0.009888,-0.992798,0.35826,0.508702,-0.069924,52,280,572,4464
1644153922.95492,-0.013489,0.010864,-0.992126,0.129252,0.386565,-0.161527,54,280,575,4496
1644153923.011853,-0.012939,0.009705,-0.991882,0.190321,0.493435,-0.14626,55,266,571,4496
1644153923.081946,-0.011414,0.008301,-0.990967,0.373527,0.371298,-0.100458,53,269,583,4480
1644153923.108419,-0.012085,0.010803,-0.991638,0.144519,0.539237,-0.237863,47,273,568,4464
1644153923.196715,-0.011719,0.00708,-0.989441,0.297191,0.417099,-0.115725,48,271,580,4480
1644153923.245162,-0.010681,0.004395,-0.99408,0.175053,0.539237,-0.14626,52,270,572,4464
1644153923.293479,-0.010071,0.011353,-0.990906,0.251389,0.478168,-0.085191,47,280,579,4432
1644153923.341883,-0.009766,0.010315,-0.993591,0.510931,0.417099,-0.130992,48,271,569,4464
1644153923.390288,-0.011658,0.009644,-0.990967,0.113985,0.386565,-0.008855,55,269,576,4432
1644153923.438649,-0.012268,0.010986,-0.992554,0.266656,0.371298,-0.192061,55,283,571,4464
1644153923.487028,-0.01178,0.006653,-0.992493,0.281924,0.356031,-0.130992,58,264,571,4480
1644153923.535395,-0.012878,0.008301,-0.990173,0.312458,0.401832,0.082748,53,274,576,4432
1644153923.583798,-0.010742,0.009705,-0.991638,0.297191,0.356031,-0.069924,53,259,578,4496
1644153923.632262,-0.011169,0.007996,-0.990112,0.236122,0.386565,-0.024122,51,271,578,4496
1644153923.680576,-0.011902,0.008545,-0.991516,0.342992,0.615573,-0.100458,49,280,577,4496
1644153923.728932,-0.009399,0.008972,-0.991699,0.35826,0.310229,0.036947,47,277,577,4432
1644153923.777318,-0.012329,0.009277,-0.992981,0.205588,0.264427,-0.024122,43,274,576,4464
1644153923.825683,-0.012268,0.010803,-0.990234,0.404061,0.325496,-0.130992,52,270,575,4496
1644153923.87409,-0.014282,0.010254,-0.992737,0.312458,0.233893,-0.024122,53,266,573,4544
1644153923.922605,-0.014954,0.009094,-0.990845,0.327725,0.386565,-0.192061,51,276,573,4528
1644153923.970953,-0.010376,0.008057,-0.989258,0.297191,0.447634,-0.115725,48,271,576,4432
1644153924.019322,-0.013184,0.008789,-0.994934,0.236122,0.417099,-0.024122,54,275,584,4464
1644153924.068957,-0.01062,0.007751,-0.992004,0.098718,0.371298,-0.130992,53,279,576,4480
1644153924.124829,-0.014282,0.010254,-0.992615,0.220855,0.371298,-0.024122,57,268,579,4496
1644153924.166055,-0.012268,0.009827,-0.992004,0.220855,0.432366,-0.085191,61,270,565,4496
1644153924.225309,-0.008789,0.008362,-0.991394,0.220855,0.462901,-0.192061,52,263,586,4480
1644153924.309599,-0.011963,0.008545,-0.99176,0.113985,0.310229,-0.039389,59,277,568,4480
1644153924.357939,-0.014832,0.010681,-0.990112,0.297191,0.432366,-0.161527,59,275,575,4432
1644153924.406359,-0.012695,0.00708,-0.993469,0.236122,0.462901,-0.268397,47,268,575,4528
1644153924.454812,-0.011902,0.008911,-0.990356,0.327725,0.523969,-0.161527,39,269,576,4496
1644153924.503121,-0.010437,0.009644,-0.991089,0.266656,0.356031,-0.100458,49,275,568,4480
1644153924.551463,-0.014282,0.008911,-0.991272,0.266656,0.462901,-0.085191,47,270,570,4480
1644153924.599888,-0.011169,0.01178,-0.994324,0.205588,0.493435,0.021679,45,265,577,4496
1644153924.648276,-0.012512,0.007263,-0.99054,0.144519,0.554504,-0.237863,49,273,577,4480
1644153924.69663,-0.008118,0.008057,-0.99353,0.419328,0.371298,-0.222595,42,268,570,4496
1644153924.745138,-0.01178,0.010803,-0.994385,0.281924,0.371298,-0.161527,54,273,577,4528
1644153924.793472,-0.010986,0.011963,-0.991943,0.404061,0.432366,-0.176794,53,269,576,4432
1644153924.841877,-0.016235,0.006897,-0.993774,0.404061,0.508702,0.006412,49,263,577,4576
1644153924.890213,-0.010925,0.006592,-0.992737,0.251389,0.401832,-0.161527,48,269,569,4432
1644153924.938603,-0.009399,0.009155,-0.992676,0.190321,0.325496,-0.25313,52,270,577,4400
1644153924.986964,-0.011719,0.009033,-0.987061,0.236122,0.523969,-0.192061,53,279,573,4464
1644153925.035747,-0.016296,0.003967,-0.991211,0.190321,0.478168,0.052214,55,279,578,4464
1644153925.083833,-0.006409,0.009033,-0.992981,0.251389,0.356031,-0.207328,46,279,573,4496
1644153925.132242,-0.010803,0.011108,-0.989746,0.342992,0.462901,-0.008855,53,279,576,4432
1644153925.180553,-0.009155,0.012085,-0.993286,0.205588,0.356031,-0.192061,49,268,572,4496
1644153925.234471,-0.014648,0.010315,-0.992981,0.190321,0.417099,-0.115725,53,269,571,4464
1644153925.285423,-0.016418,0.009644,-0.992615,0.281924,0.447634,0.098015,52,277,563,4464
1644153925.32831,-0.013428,0.007507,-0.98877,0.35826,0.356031,-0.192061,58,269,573,4432
1644153925.42249,-0.010925,0.008423,-0.991394,0.236122,0.340763,0.021679,46,269,566,4496
1644153925.4708,-0.010437,0.009827,-0.990723,0.175053,0.24916,-0.207328,43,266,573,4528
1644153925.519231,-0.01123,0.007324,-0.99176,0.327725,0.478168,-0.130992,55,274,571,4464
1644153925.567607,-0.014954,0.009949,-0.995422,0.404061,0.478168,0.006412,49,275,565,4496
1644153925.616006,-0.009949,0.008423,-0.992065,0.388794,0.493435,-0.069924,55,279,580,4464
1644153925.664371,-0.01123,0.009277,-0.991333,0.35826,0.585038,-0.100458,49,280,570,4496
1644153925.712759,-0.013062,0.011108,-0.992126,0.205588,0.554504,0.036947,55,271,573,4480
1644153925.761163,-0.011047,0.007019,-0.991394,-0.038687,0.218626,-0.14626,49,273,572,4480
1644153925.809539,-0.015015,0.009033,-0.991516,0.159786,0.417099,-0.039389,47,270,572,4496
1644153925.85795,-0.011963,0.00647,-0.991943,0.144519,0.218626,-0.176794,45,270,575,4464
1644153925.906308,-0.012329,0.010132,-0.994019,0.297191,0.417099,-0.222595,52,270,572,4480
1644153925.954776,-0.014038,0.007446,-0.992615,0.297191,0.356031,-0.222595,52,270,577,4464
1644153926.00306,-0.011414,0.008606,-0.992249,0.190321,0.585038,-0.268397,43,276,578,4496
1644153926.055969,-0.010437,0.01001,-0.990601,0.129252,0.325496,-0.069924,52,277,570,4480
1644153926.099828,-0.011108,0.010315,-0.994751,0.175053,0.615573,-0.115725,51,281,573,4496
1644153926.148227,-0.012695,0.009155,-0.991638,0.373527,0.478168,-0.085191,45,275,568,4480
1644153926.196595,-0.011658,0.009338,-0.993835,0.190321,0.371298,-0.054656,51,283,566,4528
1644153926.245118,-0.011719,0.010803,-0.991577,0.236122,0.508702,-0.039389,57,273,568,4496
1644153926.293461,-0.013794,0.010559,-0.98938,0.312458,0.386565,-0.14626,58,274,573,4464
1644153926.345313,-0.012268,0.009705,-0.990601,0.373527,0.264427,-0.054656,41,276,580,4464
1644153926.395868,-0.013,0.008606,-0.99115,0.327725,0.569771,-0.039389,52,275,582,4432
1644153926.443737,-0.013733,0.008667,-0.993225,0.327725,0.539237,0.113282,48,266,580,4544
1644153926.535951,-0.012939,0.010071,-0.989685,0.312458,0.447634,-0.161527,64,275,572,4528
1644153926.583633,-0.009766,0.011169,-0.991882,0.236122,0.24916,-0.024122,58,274,571,4464
1644153926.632011,-0.010437,0.009949,-0.994568,0.327725,0.462901,-0.130992,53,259,573,4464
1644153926.680368,-0.012939,0.009521,-0.991638,0.190321,0.432366,-0.176794,53,274,578,4480
1644153926.728768,-0.013916,0.011353,-0.992859,0.35826,0.432366,-0.054656,52,268,575,4496
1644153926.77717,-0.010864,0.008911,-0.993042,0.327725,0.447634,-0.130992,54,277,575,4544
1644153926.825561,-0.012878,0.010315,-0.99115,0.266656,0.386565,-0.085191,58,279,569,4528
1644153926.873958,-0.009766,0.012878,-0.995239,0.327725,0.462901,-0.207328,42,273,565,4496
1644153926.922344,-0.012695,0.009521,-0.991516,0.220855,0.310229,-0.039389,61,265,579,4528
1644153926.970686,-0.008545,0.006775,-0.993713,0.327725,0.386565,-0.085191,51,281,578,4528
1644153927.019105,-0.011597,0.011353,-0.99115,0.129252,0.356031,0.036947,61,275,570,4496
1644153927.073354,-0.009705,0.008545,-0.990295,0.281924,0.417099,-0.024122,58,279,580,4480
1644153927.115832,-0.010254,0.008179,-0.99176,0.113985,0.462901,-0.085191,54,270,577,4464
1644153927.164258,-0.012146,0.010559,-0.99176,0.35826,0.340763,0.067481,39,271,583,4496
1644153927.212655,-0.009277,0.013489,-0.995178,0.159786,0.371298,-0.100458,49,273,563,4496
1644153927.261046,-0.013672,0.010681,-0.993774,0.342992,0.493435,-0.130992,47,270,575,4528
1644153927.310045,-0.015442,0.006409,-0.989624,0.175053,0.417099,-0.024122,45,273,577,4496
1644153927.359256,-0.010559,0.006348,-0.989197,0.342992,0.569771,-0.054656,46,269,583,4480
1644153927.409848,-0.012695,0.008362,-0.992554,0.281924,0.356031,-0.008855,48,266,578,4496
1644153927.460053,-0.013916,0.010559,-0.98877,0.312458,0.462901,-0.207328,52,277,582,4528
1644153927.503553,-0.009277,0.006958,-0.99176,0.342992,0.478168,-0.14626,58,269,571,4464
1644153927.599744,-0.012634,0.011292,-0.989807,0.175053,0.371298,-0.14626,51,266,564,4496
1644153927.64815,-0.013123,0.008057,-0.993958,0.434595,0.417099,-0.069924,53,271,569,4480
1644153927.696528,-0.009216,0.009888,-0.994324,0.35826,0.569771,-0.069924,52,268,570,4496
1644153927.744921,-0.013306,0.009949,-0.993652,0.297191,0.356031,-0.115725,47,273,577,4496
1644153927.793313,-0.012024,0.005859,-0.993591,0.327725,0.386565,-0.008855,47,268,568,4528
1644153927.841705,-0.012207,0.01239,-0.991272,-0.02342,0.401832,-0.298931,53,266,569,4576
1644153927.890087,-0.012329,0.010986,-0.990601,0.297191,0.371298,-0.069924,52,280,565,4528
1644153927.938481,-0.010071,0.008545,-0.992798,0.327725,0.462901,0.021679,38,282,584,4464
1644153927.986856,-0.012756,0.008728,-0.991455,0.068183,0.371298,-0.161527,53,276,566,4464
1644153928.035312,-0.013245,0.010254,-0.99231,0.281924,0.371298,-0.237863,45,275,582,4496
1644153928.090722,-0.013306,0.011108,-0.990112,0.266656,0.432366,-0.100458,53,276,569,4480
1644153928.131967,-0.010925,0.006348,-0.994324,0.236122,0.340763,-0.207328,52,282,575,4496
1644153928.180352,-0.011292,0.008362,-0.990356,0.281924,0.417099,-0.039389,52,268,582,4576
1644153928.228743,-0.01001,0.008362,-0.992188,0.281924,0.508702,-0.054656,53,264,569,4432
1644153928.277648,-0.011658,0.009094,-0.99115,0.098718,0.523969,-0.161527,52,277,570,4544
1644153928.325542,-0.009827,0.008362,-0.991272,0.281924,0.417099,-0.130992,53,266,573,4576
1644153928.374907,-0.00946,0.007751,-0.993408,0.35826,0.432366,-0.024122,49,287,584,4400
1644153928.4256,-0.011658,0.007202,-0.988586,0.08345,0.508702,-0.024122,43,269,578,4464
1644153928.475256,-0.012207,0.007202,-0.99292,0.373527,0.478168,-0.14626,53,266,576,4528
1644153928.519247,-0.01123,0.00824,-0.990723,0.35826,0.676641,-0.008855,45,277,577,4496
1644153928.615794,-0.009094,0.009705,-0.989319,0.129252,0.401832,-0.161527,52,273,570,4528
1644153928.664207,-0.011597,0.009888,-0.990173,0.297191,0.325496,-0.14626,48,271,573,4528
1644153928.715743,-0.012268,0.004639,-0.992249,0.266656,0.401832,-0.115725,53,266,585,4464
1644153928.76108,-0.012756,0.008789,-0.991394,0.159786,0.432366,-0.024122,45,282,582,4432
1644153928.809459,-0.012329,0.008667,-0.991516,0.098718,0.539237,-0.207328,54,275,572,4480
1644153928.857809,-0.009827,0.012085,-0.990662,0.236122,0.432366,-0.115725,47,277,582,4496
1644153928.906134,-0.011169,0.00946,-0.991699,0.327725,0.386565,0.021679,51,271,583,4496
1644153928.954709,-0.011108,0.010193,-0.989014,0.159786,0.432366,-0.085191,52,275,568,4496
1644153929.00297,-0.00946,0.012939,-0.991211,0.35826,0.218626,0.036947,46,274,566,4576
1644153929.06796,-0.014954,0.005493,-0.993774,0.388794,0.447634,-0.130992,48,271,573,4496
1644153929.10162,-0.012268,0.005005,-0.993591,0.144519,0.432366,-0.14626,49,280,582,4496
1644153929.148072,-0.012268,0.012695,-0.995117,0.327725,0.401832,0.098015,55,269,573,4480
1644153929.196418,-0.010681,0.011597,-0.99469,0.35826,0.340763,-0.039389,51,271,576,4464
1644153929.244856,-0.013184,0.009583,-0.993408,0.312458,0.310229,-0.161527,62,279,580,4464
1644153929.293247,-0.011169,0.01001,-0.992615,0.236122,0.569771,-0.14626,42,263,572,4464
1644153929.342285,-0.010376,0.005005,-0.993225,0.266656,0.493435,-0.069924,58,266,578,4464
1644153929.390593,-0.014954,0.006897,-0.990356,0.220855,0.417099,-0.039389,57,265,575,4496
1644153929.438581,-0.011597,0.011841,-0.988647,0.144519,0.493435,-0.161527,52,271,583,4496
1644153929.489352,-0.015747,0.005066,-0.990723,0.35826,0.310229,-0.069924,51,271,576,4576
1644153929.539257,-0.013489,0.007874,-0.993652,0.281924,0.447634,-0.25313,48,269,573,4432
1644153929.589357,-0.010254,0.009521,-0.99054,0.281924,0.401832,-0.176794,52,273,577,4432
1644153929.680301,-0.010803,0.012268,-0.994202,0.266656,0.447634,-0.100458,57,263,577,4464
1644153929.729258,-0.010986,0.00824,-0.99231,0.327725,0.356031,0.021679,42,273,568,4464
1644153929.777069,-0.014526,0.009094,-0.990479,0.236122,0.356031,-0.25313,43,279,564,4496
1644153929.825493,-0.00885,0.007568,-0.991272,0.35826,0.417099,-0.039389,51,269,587,4496
1644153929.873893,-0.016296,0.00885,-0.99292,0.175053,0.508702,-0.054656,48,274,562,4480
1644153929.922289,-0.012451,0.010437,-0.994629,0.236122,0.417099,-0.069924,48,271,578,4480
1644153929.970668,-0.013245,0.003174,-0.986938,0.251389,0.508702,-0.024122,49,282,575,4544
1644153930.019035,-0.008911,0.007751,-0.993103,0.404061,0.432366,-0.192061,54,268,572,4528
1644153930.073382,-0.01178,0.012939,-0.992065,0.220855,0.417099,-0.085191,57,273,577,4496
1644153930.115735,-0.013062,0.009827,-0.990662,0.388794,0.478168,-0.100458,55,279,580,4464
1644153930.16416,-0.010681,0.013123,-0.990479,0.129252,0.478168,-0.085191,53,286,583,4432
1644153930.212568,-0.01123,0.008423,-0.99469,0.327725,0.417099,0.052214,57,275,579,4432
1644153930.260911,-0.012573,0.007812,-0.993958,0.312458,0.340763,0.021679,53,271,578,4528
1644153930.30932,-0.012451,0.009888,-0.992554,0.342992,0.478168,-0.130992,64,268,570,4496
1644153930.357701,-0.013733,0.007385,-0.990417,0.281924,0.340763,-0.130992,59,270,568,4528
1644153930.406092,-0.014526,0.010986,-0.990662,0.159786,0.356031,-0.024122,48,276,571,4496
1644153930.454483,-0.013062,0.007874,-0.989624,0.312458,0.401832,-0.130992,43,276,564,4496
1644153930.503083,-0.009583,0.007507,-0.991943,0.327725,0.432366,-0.14626,55,276,571,4464
1644153930.551379,-0.011047,0.007996,-0.992493,0.205588,0.325496,-0.115725,57,273,575,4496
1644153930.601646,-0.009399,0.006165,-0.991699,0.327725,0.462901,0.006412,41,269,583,4480
1644153930.652188,-0.012146,0.008179,-0.994629,0.297191,0.371298,-0.222595,46,274,576,4528
1644153930.702324,-0.013062,0.008301,-0.989319,0.205588,0.523969,-0.161527,43,269,580,4544
1644153930.793193,-0.009827,0.007568,-0.992004,0.342992,0.447634,-0.115725,45,280,565,4464
1644153930.841572,-0.008545,0.00885,-0.992126,0.297191,0.539237,-0.222595,51,279,571,4544
1644153930.889963,-0.009155,0.010315,-0.991821,0.373527,0.417099,-0.024122,57,275,572,4496
1644153930.938366,-0.012268,0.011902,-0.990112,0.068183,0.508702,-0.130992,51,276,566,4496
1644153930.986736,-0.012329,0.00885,-0.99054,0.312458,0.447634,0.098015,49,273,563,4464
1644153931.035152,-0.01001,0.010071,-0.991089,0.312458,0.432366,-0.054656,48,269,571,4480
1644153931.095323,-0.013794,0.009094,-0.994873,0.327725,0.172824,-0.039389,54,268,579,4480
1644153931.131866,-0.011047,0.011719,-0.993347,0.281924,0.523969,-0.069924,48,266,569,4432
1644153931.180559,-0.01239,0.008484,-0.993164,0.281924,0.401832,-0.192061,42,268,570,4480
1644153931.229475,-0.014709,0.009888,-0.990417,0.236122,0.600305,-0.054656,51,281,583,4528
1644153931.277049,-0.008545,0.009033,-0.993652,0.068183,0.447634,-0.100458,46,269,571,4480
1644153931.326588,-0.013062,0.007996,-0.988892,0.281924,0.356031,-0.039389,47,277,565,4464
1644153931.377893,-0.013428,0.008606,-0.990784,0.251389,0.508702,-0.069924,53,276,576,4496
1644153931.427949,-0.011475,0.010254,-0.992249,0.129252,0.554504,-0.069924,45,275,572,4528
1644153931.51897,-0.012817,0.006653,-0.992126,0.129252,0.386565,-0.14626,57,260,579,4496
1644153931.567332,-0.01532,0.009216,-0.993469,0.220855,0.478168,-0.024122,49,253,582,4528
1644153931.615714,-0.012878,0.010498,-0.991089,0.281924,0.600305,-0.054656,55,271,569,4464
1644153931.66412,-0.014587,0.008545,-0.99408,0.266656,0.523969,-0.207328,48,269,578,4464
1644153931.712508,-0.00946,0.006042,-0.990662,0.220855,0.447634,-0.069924,40,268,572,4480
1644153931.760888,-0.010559,0.010254,-0.991272,0.175053,0.371298,-0.192061,55,276,562,4432
1644153931.80924,-0.011169,0.00647,-0.990845,0.236122,0.325496,-0.176794,53,271,573,4464
1644153931.857686,-0.009216,0.008667,-0.993896,0.144519,0.462901,-0.14626,55,274,580,4432
1644153931.906054,-0.011841,0.008484,-0.992493,0.068183,0.417099,-0.314198,57,277,575,4496
1644153931.954462,-0.011169,0.007446,-0.992371,0.297191,0.447634,-0.085191,54,273,568,4496
1644153932.002868,-0.014221,0.009827,-0.992493,0.281924,0.585038,-0.085191,59,277,563,4464
1644153932.069479,-0.014771,0.011292,-0.990295,0.205588,0.432366,-0.192061,53,266,580,4496
1644153932.107727,-0.012634,0.010132,-0.99115,0.144519,0.432366,-0.283664,53,279,571,4480
1644153932.147966,-0.010925,0.008667,-0.992859,0.297191,0.508702,0.052214,54,277,589,4464
1644153932.196352,-0.014648,0.006104,-0.994263,0.281924,0.508702,-0.237863,52,270,577,4496
1644153932.244744,-0.012146,0.006409,-0.990234,0.327725,0.478168,-0.085191,52,273,584,4576
1644153932.293196,-0.013489,0.007019,-0.989624,0.35826,0.432366,0.067481,51,259,573,4528
1644153932.341529,-0.012207,0.009094,-0.991394,0.297191,0.325496,-0.039389,47,275,575,4464
1644153932.389913,-0.009521,0.010803,-0.993591,0.312458,0.447634,-0.024122,48,266,578,4480
1644153932.439387,-0.012512,0.010071,-0.990173,0.297191,0.417099,-0.008855,46,274,571,4432
1644153932.48972,-0.010864,0.009705,-0.990112,0.220855,0.340763,-0.161527,48,276,573,4480
1644153932.540133,-0.009583,0.009888,-0.991882,0.159786,0.264427,-0.085191,48,274,573,4416
1644153932.584318,-0.011597,0.007263,-0.994263,0.297191,0.401832,-0.115725,46,279,566,4496
1644153932.680215,-0.011841,0.007385,-0.991089,0.190321,0.417099,-0.25313,54,275,568,4496
1644153932.728576,-0.012146,0.008362,-0.993469,0.35826,0.371298,-0.024122,47,265,579,4480
1644153932.776981,-0.008606,0.009338,-0.994141,0.236122,0.432366,0.067481,45,273,563,4480
1644153932.82549,-0.008301,0.007263,-0.991028,0.190321,0.462901,0.006412,47,275,572,4496
1644153932.873806,-0.013672,0.007812,-0.989441,0.266656,0.508702,-0.115725,46,276,571,4464
1644153932.922246,-0.012695,0.009033,-0.992371,0.251389,0.371298,-0.069924,52,277,572,4464
1644153932.970572,-0.014832,0.010376,-0.992615,0.297191,0.386565,-0.069924,49,273,577,4496
1644153933.018923,-0.009338,0.009949,-0.993652,0.266656,0.447634,-0.100458,51,262,571,4432
1644153933.072576,-0.009216,0.006165,-0.988647,0.404061,0.462901,-0.130992,53,274,569,4464
1644153933.115687,-0.009338,0.005859,-0.992432,0.297191,0.356031,-0.085191,53,279,576,4496
1644153933.164082,-0.008118,0.009766,-0.993164,0.129252,0.294962,-0.054656,47,270,568,4576
1644153933.212467,-0.013367,0.008179,-0.993469,0.144519,0.493435,-0.14626,45,273,570,4464
1644153933.260809,-0.010925,0.010254,-0.991821,0.266656,0.523969,-0.085191,43,274,573,4496
1644153933.309227,-0.014343,0.013184,-0.992981,0.327725,0.386565,-0.130992,52,273,572,4496
1644153933.357581,-0.014221,0.01062,-0.993408,0.312458,0.386565,0.006412,51,276,583,4528
1644153933.405987,-0.012878,0.009827,-0.991455,0.220855,0.356031,-0.069924,49,265,582,4496
1644153933.454929,-0.013428,0.006836,-0.99292,0.266656,0.493435,-0.14626,55,283,576,4464
1644153933.503076,-0.013977,0.007874,-0.992859,0.327725,0.447634,-0.039389,52,270,577,4528
1644153933.551496,-0.014404,0.009155,-0.995239,0.342992,0.401832,-0.054656,49,265,572,4496
1644153933.601259,-0.016113,0.008606,-0.992188,0.312458,0.462901,-0.100458,55,271,580,4496
1644153933.651538,-0.009277,0.009277,-0.990417,0.190321,0.493435,-0.069924,43,274,580,4496
1644153933.702471,-0.015869,0.009644,-0.991943,0.220855,0.417099,0.021679,42,275,577,4496
1644153933.746028,-0.012512,0.008545,-0.991394,0.35826,0.585038,-0.14626,48,269,576,4496
1644153933.841477,-0.012146,0.009583,-0.992554,0.220855,0.325496,-0.192061,55,274,573,4432
1644153933.88988,-0.009583,0.010437,-0.992676,0.236122,0.371298,-0.222595,48,276,571,4496
1644153933.938234,-0.011658,0.007874,-0.992493,0.236122,0.447634,-0.008855,53,269,571,4464
1644153933.986666,-0.010193,0.010132,-0.990295,0.297191,0.478168,-0.085191,53,276,571,4496
1644153934.035147,-0.012573,0.005615,-0.993896,0.342992,0.371298,-0.085191,47,275,577,4464
1644153934.094944,-0.011536,0.008301,-0.994568,0.327725,0.523969,-0.100458,49,277,577,4496
1644153934.131799,-0.009888,0.009888,-0.991028,0.190321,0.447634,-0.069924,41,266,573,4480
1644153934.180176,-0.013672,0.01123,-0.994873,0.297191,0.523969,-0.100458,39,274,571,4496
1644153934.228541,-0.01001,0.009705,-0.992981,0.281924,0.478168,0.036947,43,262,576,4464
1644153934.276919,-0.014038,0.00885,-0.994446,0.297191,0.340763,-0.085191,48,269,571,4496
1644153934.325295,-0.014648,0.00824,-0.993042,0.266656,0.508702,-0.054656,48,274,566,4496
1644153934.373701,-0.013062,0.007568,-0.992981,0.312458,0.417099,-0.024122,49,270,570,4432
1644153934.422088,-0.010803,0.006775,-0.992676,0.312458,0.325496,-0.115725,54,275,582,4432
1644153934.470472,-0.01001,0.00885,-0.991333,0.266656,0.462901,-0.222595,46,281,576,4496
1644153934.518834,-0.011108,0.00647,-0.993225,0.35826,0.371298,-0.008855,43,264,580,4576
1644153934.567899,-0.013489,0.006653,-0.992371,0.251389,0.356031,-0.085191,46,274,580,4480
1644153934.615857,-0.012024,0.011475,-0.992249,0.144519,0.523969,-0.069924,42,275,568,4496
1644153934.665484,-0.012634,0.007935,-0.990906,0.342992,0.401832,-0.069924,53,262,578,4464
1644153934.715303,-0.012268,0.010925,-0.992493,0.220855,0.386565,-0.192061,55,269,585,4464
1644153934.76576,-0.013916,0.007996,-0.993591,0.220855,0.462901,-0.176794,48,266,583,4464
1644153934.809724,-0.012634,0.009644,-0.99176,0.297191,0.432366,-0.100458,41,271,566,4464
1644153934.905959,-0.013,0.007996,-0.992493,0.220855,0.478168,-0.085191,47,270,575,4528
1644153934.954338,-0.012573,0.009888,-0.993164,0.312458,0.432366,-0.008855,52,268,579,4480
1644153935.002754,-0.009521,0.011353,-0.99115,0.373527,0.356031,-0.115725,47,270,561,4496
1644153935.062591,-0.014771,0.009216,-0.991638,0.342992,0.493435,-0.192061,55,269,576,4432
1644153935.102437,-0.011719,0.007935,-0.992798,0.434595,0.600305,0.067481,57,275,582,4496
1644153935.14789,-0.013977,0.010559,-0.99231,0.220855,0.508702,-0.085191,49,265,575,4480
1644153935.196256,-0.010437,0.010071,-0.992432,0.327725,0.356031,-0.176794,46,279,569,4464
1644153935.244709,-0.014526,0.008118,-0.991638,0.297191,0.554504,-0.024122,53,279,566,4528
1644153935.293043,-0.011536,0.007812,-0.992249,0.35826,0.462901,-0.115725,48,269,564,4480
1644153935.341409,-0.011414,0.007812,-0.99176,0.35826,0.356031,-0.085191,47,275,572,4464
1644153935.389805,-0.011475,0.012512,-0.992188,0.236122,0.508702,0.006412,52,270,577,4496
1644153935.438182,-0.013184,0.007507,-0.992126,0.251389,0.432366,0.036947,54,275,570,4464
1644153935.486586,-0.009644,0.012817,-0.994385,0.373527,0.478168,-0.100458,47,273,570,4496
1644153935.535012,-0.011536,0.009583,-0.994385,0.144519,0.310229,-0.176794,41,271,580,4528
1644153935.584512,-0.013428,0.006348,-0.992676,0.342992,0.447634,0.082748,54,273,577,4480
1644153935.632193,-0.01239,0.011719,-0.990662,0.449863,0.401832,-0.130992,47,280,575,4528
1644153935.683467,-0.010925,0.010254,-0.991272,0.281924,0.539237,-0.14626,53,276,573,4496
1644153935.731477,-0.011658,0.008057,-0.991272,0.327725,0.63084,-0.085191,49,285,577,4480
1644153935.781888,-0.012207,0.007996,-0.991516,0.220855,0.417099,-0.054656,58,269,573,4496
1644153935.825779,-0.013184,0.013123,-0.990173,0.159786,0.310229,-0.085191,51,274,571,4528
1644153935.922069,-0.009644,0.007935,-0.992432,0.266656,0.493435,-0.054656,52,273,572,4528
1644153935.970461,-0.011902,0.006531,-0.992126,0.373527,0.401832,-0.115725,57,280,575,4432
1644153936.018844,-0.013367,0.010193,-0.990906,0.342992,0.661374,-0.085191,48,274,562,4432
1644153936.068391,-0.010925,0.007874,-0.99292,0.220855,0.569771,-0.100458,42,275,579,4464
1644153936.115552,-0.013245,0.010559,-0.98938,0.572,0.508702,0.021679,46,271,571,4496
1644153936.163964,-0.012207,0.007812,-0.991333,0.266656,0.447634,-0.115725,47,268,570,4480
1644153936.212368,-0.013794,0.009399,-0.990723,0.251389,0.600305,-0.115725,59,265,582,4528
1644153936.26074,-0.010376,0.01062,-0.993103,0.190321,0.462901,0.052214,51,276,578,4480
1644153936.309098,-0.010803,0.005188,-0.991272,0.281924,0.508702,0.12855,46,271,564,4496
1644153936.357502,-0.012024,0.00708,-0.991821,0.312458,0.478168,-0.298931,53,279,573,4432
1644153936.405873,-0.013428,0.007874,-0.992249,0.297191,0.417099,-0.161527,46,283,576,4480
1644153936.454292,-0.014648,0.00708,-0.993469,0.46513,0.432366,-0.268397,46,276,583,4464
1644153936.502688,-0.013245,0.00946,-0.995422,0.236122,0.554504,-0.039389,54,277,575,4464
1644153936.551056,-0.010986,0.005859,-0.991272,0.266656,0.539237,-0.237863,54,273,582,4464
1644153936.599416,-0.013367,0.008911,-0.99231,0.236122,0.233893,-0.14626,53,286,564,4496
1644153936.647831,-0.012634,0.010864,-0.991028,0.281924,0.523969,-0.069924,53,274,580,4528
1644153936.696856,-0.012878,0.007324,-0.988464,0.144519,0.493435,-0.085191,49,270,582,4528
1644153936.744662,-0.015198,0.00885,-0.993591,0.08345,0.371298,-0.192061,53,281,576,4528
1644153936.793868,-0.011536,0.006958,-0.993591,0.281924,0.478168,-0.024122,57,265,577,4432
1644153936.843932,-0.01123,0.006592,-0.992065,0.052916,0.401832,0.036947,49,277,568,4576
1644153936.894928,-0.011047,0.011719,-0.99231,0.098718,0.325496,-0.14626,58,281,571,4576
1644153936.945349,-0.012634,0.009705,-0.994019,0.297191,0.432366,-0.039389,51,283,569,4464
1644153936.988301,-0.010193,0.006531,-0.990784,0.220855,0.508702,-0.100458,58,286,562,4496
1644153937.083473,-0.014221,0.007019,-0.992432,0.35826,0.401832,0.006412,43,269,583,4496
1644153937.131662,-0.01416,0.005859,-0.992798,0.220855,0.447634,-0.14626,45,268,568,4464
1644153937.180057,-0.011169,0.009949,-0.994568,0.236122,0.432366,-0.100458,55,262,573,4464
1644153937.228442,-0.011963,0.011841,-0.992004,0.236122,0.539237,-0.054656,45,275,568,4480
1644153937.276803,-0.013184,0.009827,-0.991333,0.175053,0.478168,-0.024122,52,273,568,4464
1644153937.325248,-0.010925,0.007202,-0.991272,0.373527,0.508702,-0.100458,53,274,571,4528
1644153937.37361,-0.009888,0.007446,-0.990051,0.159786,0.447634,-0.008855,53,271,576,4432
1644153937.421997,-0.009033,0.008057,-0.99231,0.236122,0.447634,-0.039389,52,268,572,4576
1644153937.470378,-0.011475,0.009155,-0.991455,0.419328,0.417099,-0.008855,48,281,587,4480
1644153937.51876,-0.015564,0.006653,-0.993835,0.113985,0.432366,-0.192061,47,265,572,4464
1644153937.567155,-0.009949,0.00946,-0.992859,0.190321,0.432366,-0.130992,43,274,578,4480
1644153937.615538,-0.009705,0.008057,-0.990967,0.220855,0.401832,-0.130992,60,281,576,4432
1644153937.663934,-0.010559,0.009583,-0.992249,0.266656,0.294962,-0.192061,54,270,575,4416
1644153937.712299,-0.013184,0.008911,-0.990051,0.388794,0.508702,-0.054656,61,275,570,4528
1644153937.76069,-0.013245,0.007935,-0.993042,0.35826,0.401832,-0.130992,51,276,569,4496
1644153937.809118,-0.011353,0.008606,-0.994446,0.297191,0.508702,-0.14626,47,270,572,4544
1644153937.857848,-0.010986,0.011902,-0.992004,0.266656,0.386565,0.006412,53,269,564,4464
1644153937.906652,-0.010437,0.010376,-0.991394,0.312458,0.401832,-0.192061,58,266,576,4432
1644153937.955406,-0.012512,0.011414,-0.992493,0.190321,0.508702,-0.161527,52,268,582,4576
1644153938.005654,-0.008057,0.009399,-0.99115,0.342992,0.462901,-0.115725,43,274,578,4528
1644153938.072431,-0.010803,0.012085,-0.993042,0.342992,0.447634,-0.192061,53,269,573,4432
1644153938.104047,-0.013428,0.007935,-0.991272,0.220855,0.462901,-0.039389,53,266,583,4496
1644153938.196143,-0.013794,0.006897,-0.995056,0.266656,0.401832,-0.085191,57,270,568,4464
1644153938.244539,-0.013672,0.01062,-0.994019,0.297191,0.447634,-0.161527,47,280,568,4464
1644153938.292932,-0.012756,0.008301,-0.993164,0.266656,0.447634,-0.207328,48,269,573,4432
1644153938.34129,-0.012146,0.008667,-0.993103,0.449863,0.585038,-0.069924,57,268,577,4496
1644153938.389695,-0.013062,0.010803,-0.991211,0.327725,0.371298,-0.100458,57,275,584,4480
1644153938.438088,-0.01239,0.010803,-0.993347,0.312458,0.615573,-0.130992,51,269,569,4528
1644153938.486462,-0.009705,0.009827,-0.99054,0.266656,0.585038,-0.161527,52,270,563,4464
1644153938.534859,-0.012268,0.007446,-0.991821,0.251389,0.539237,-0.069924,54,282,570,4432
1644153938.583248,-0.011536,0.009033,-0.993042,0.312458,0.432366,-0.192061,46,276,573,4528
1644153938.631632,-0.011536,0.007874,-0.99054,0.220855,0.401832,-0.130992,48,286,571,4576
1644153938.680019,-0.013367,0.006836,-0.991699,0.251389,0.401832,-0.054656,46,281,578,4480
1644153938.728365,-0.012817,0.007935,-0.992493,0.205588,0.356031,-0.14626,58,276,576,4528
1644153938.776777,-0.012573,0.009521,-0.99176,0.113985,0.417099,-0.085191,55,279,578,4576
1644153938.825212,-0.012634,0.009155,-0.992065,0.175053,0.600305,-0.054656,52,273,572,4480
1644153938.873602,-0.010925,0.009216,-0.993225,0.281924,0.432366,-0.024122,47,265,572,4528
1644153938.922178,-0.014648,0.009644,-0.994446,0.266656,0.63084,-0.100458,42,265,570,4528
1644153938.970366,-0.010132,0.009827,-0.99353,0.205588,0.432366,0.006412,62,279,585,4480
1644153939.018783,-0.011108,0.00708,-0.993225,0.281924,0.432366,-0.039389,48,271,580,4528
1644153939.082877,-0.007202,0.009705,-0.992798,0.312458,0.371298,-0.024122,45,277,575,4576
1644153939.117837,-0.012085,0.009216,-0.991028,0.312458,0.523969,0.036947,46,274,578,4480
1644153939.212393,-0.010437,0.008789,-0.99353,0.159786,0.417099,0.006412,48,274,576,4480
1644153939.260614,-0.009705,0.011719,-0.992065,0.297191,0.417099,0.067481,48,266,569,4496
1644153939.309,-0.008057,0.00824,-0.993713,0.190321,0.447634,-0.069924,46,266,564,4496
1644153939.357375,-0.011719,0.007935,-0.991394,0.236122,0.462901,-0.207328,42,273,575,4496
1644153939.405792,-0.008362,0.009155,-0.992065,0.388794,0.478168,-0.039389,45,275,570,4528
1644153939.454189,-0.013733,0.008789,-0.992981,0.46513,0.493435,-0.069924,42,273,575,4528
1644153939.502555,-0.010254,0.008423,-0.992249,0.281924,0.478168,-0.008855,48,271,573,4432
1644153939.550963,-0.011292,0.011414,-0.990479,0.205588,0.600305,-0.161527,48,279,566,4496
1644153939.599336,-0.008667,0.007385,-0.991028,0.251389,0.340763,0.021679,49,270,570,4544
1644153939.64773,-0.012146,0.010559,-0.991943,0.129252,0.523969,-0.039389,55,269,569,4496
1644153939.696113,-0.013123,0.007019,-0.993286,0.327725,0.478168,-0.024122,49,270,565,4464
1644153939.744496,-0.013123,0.009705,-0.992432,0.266656,0.539237,-0.115725,55,276,566,4576
1644153939.792898,-0.011841,0.007202,-0.993225,0.312458,0.554504,-0.115725,42,270,575,4480
1644153939.84129,-0.011108,0.008606,-0.992798,0.297191,0.493435,0.067481,46,271,571,4464
1644153939.889704,-0.013916,0.011047,-0.991516,0.373527,0.356031,-0.268397,53,269,569,4432
1644153939.938089,-0.013855,0.008301,-0.991821,0.205588,0.447634,-0.039389,59,268,577,4480
1644153939.986611,-0.011902,0.00885,-0.994995,0.159786,0.508702,-0.024122,53,266,578,4528
1644153940.035259,-0.01239,0.00946,-0.991699,0.281924,0.417099,0.067481,53,271,569,4464
1644153940.094396,-0.011963,0.010254,-0.991211,0.236122,0.401832,-0.222595,43,286,578,4464
1644153940.13499,-0.009521,0.010376,-0.992371,0.312458,0.340763,-0.130992,57,280,570,4496
1644153940.183306,-0.010986,0.01001,-0.990967,0.236122,0.462901,-0.207328,52,268,570,4496
1644153940.233679,-0.011169,0.008423,-0.991455,0.342992,0.478168,-0.161527,46,279,569,4576
1644153940.277855,-0.010986,0.008667,-0.991211,0.419328,0.447634,-0.161527,49,265,572,4464
1644153940.373518,-0.009583,0.009827,-0.990723,0.144519,0.401832,-0.161527,52,273,572,4496
1644153940.421899,-0.010559,0.00885,-0.990906,0.281924,0.478168,-0.161527,42,275,577,4464
1644153940.47027,-0.011414,0.009521,-0.994995,0.388794,0.417099,0.067481,52,282,570,4464
1644153940.518663,-0.010986,0.009949,-0.993774,0.388794,0.417099,0.036947,53,271,580,4368
1644153940.567046,-0.012878,0.007935,-0.990173,0.297191,0.24916,-0.115725,47,282,572,4464
1644153940.615418,-0.01355,0.008789,-0.991638,0.281924,0.340763,-0.039389,47,268,572,4496
1644153940.663823,-0.01355,0.006714,-0.990234,0.510931,0.447634,-0.222595,52,268,572,4416
1644153940.712216,-0.009705,0.008606,-0.990723,0.281924,0.478168,-0.207328,47,275,577,4464
1644153940.761597,-0.011475,0.009094,-0.991272,0.251389,0.462901,-0.222595,53,276,571,4528
1644153940.808974,-0.014832,0.00769,-0.991394,0.388794,0.325496,-0.039389,48,276,583,4496
1644153940.857412,-0.012695,0.009521,-0.993286,0.327725,0.569771,-0.130992,46,276,583,4480
1644153940.90579,-0.01239,0.007568,-0.99231,0.312458,0.432366,-0.222595,42,275,577,4528
1644153940.954183,-0.012329,0.007507,-0.988708,0.342992,0.478168,-0.024122,51,286,576,4496
1644153941.002554,-0.012024,0.008606,-0.992188,0.342992,0.432366,0.021679,55,274,580,4496
1644153941.0722,-0.014038,0.010132,-0.991333,0.35826,0.264427,-0.130992,54,265,575,4464
1644153941.108311,-0.013855,0.006592,-0.991272,0.312458,0.63084,-0.298931,41,274,580,4496
1644153941.14766,-0.009583,0.009766,-0.991516,0.312458,0.585038,-0.14626,46,262,576,4496
1644153941.196079,-0.011108,0.010193,-0.992188,0.251389,0.325496,-0.14626,47,273,577,4432
1644153941.245872,-0.01239,0.005737,-0.99115,0.281924,0.417099,0.036947,52,275,570,4496
1644153941.29676,-0.01123,0.007874,-0.991882,0.266656,0.478168,-0.222595,55,266,573,4480
1644153941.346376,-0.01355,0.007751,-0.992188,0.373527,0.401832,-0.054656,46,271,573,4528
1644153941.390575,-0.012512,0.008789,-0.992615,0.281924,0.340763,-0.192061,49,268,568,4528
1644153941.486362,-0.009399,0.009216,-0.993225,0.404061,0.279695,-0.024122,46,281,573,4416
1644153941.534748,-0.012573,0.01001,-0.992859,0.175053,0.569771,-0.054656,48,286,569,4480
1644153941.583129,-0.009399,0.007874,-0.990479,0.159786,0.508702,-0.130992,43,269,576,4464
1644153941.631521,-0.012634,0.007019,-0.992188,0.46513,0.432366,-0.085191,45,260,577,4464
1644153941.67989,-0.010925,0.006897,-0.993896,0.388794,0.386565,-0.192061,51,279,564,4480
1644153941.728279,-0.014648,0.008301,-0.992798,0.113985,0.569771,-0.085191,49,270,575,4480
1644153941.77669,-0.010742,0.006042,-0.990967,0.129252,0.386565,0.113282,47,275,570,4496
1644153941.825194,-0.014526,0.008911,-0.991577,0.098718,0.447634,-0.069924,49,275,579,4496
1644153941.873523,-0.01178,0.007263,-0.990173,0.220855,0.462901,-0.024122,42,273,582,4368
1644153941.921893,-0.013062,0.006287,-0.991272,0.022382,0.493435,-0.115725,48,271,573,4496
1644153941.970277,-0.008301,0.007629,-0.995483,0.190321,0.478168,-0.008855,42,275,575,4528
1644153942.018694,-0.014221,0.012695,-0.991028,0.35826,0.401832,-0.207328,46,269,578,4496
1644153942.077948,-0.011108,0.007629,-0.991394,0.205588,0.508702,-0.130992,48,274,573,4496
1644153942.117927,-0.012756,0.009644,-0.992676,0.281924,0.493435,-0.069924,59,268,584,4576
1644153942.163771,-0.012085,0.00885,-0.989258,0.312458,0.523969,-0.054656,48,271,569,4432
1644153942.212173,-0.015015,0.005737,-0.993774,0.236122,0.447634,-0.069924,54,275,568,4464
1644153942.260558,-0.014221,0.010559,-0.990356,0.266656,0.340763,-0.130992,49,273,582,4528
1644153942.308957,-0.011536,0.007141,-0.991211,0.281924,0.478168,-0.054656,42,280,568,4528
1644153942.358165,-0.007935,0.010864,-0.99353,0.251389,0.432366,0.006412,51,269,583,4576
1644153942.406778,-0.010071,0.007996,-0.989258,0.404061,0.401832,-0.115725,49,273,570,4496
1644153942.457106,-0.013672,0.007629,-0.996216,0.205588,0.493435,-0.192061,47,270,570,4544
1644153942.507522,-0.013367,0.007385,-0.99054,0.037649,0.447634,0.098015,45,265,565,4496
1644153942.551587,-0.007996,0.009949,-0.992615,0.327725,0.493435,-0.115725,60,281,569,4528
1644153942.647602,-0.010132,0.009766,-0.992676,0.144519,0.447634,-0.069924,46,266,573,4464
1644153942.696002,-0.011963,0.007324,-0.993408,0.113985,0.417099,-0.069924,48,279,573,4528
1644153942.744407,-0.010193,0.009338,-0.990967,0.388794,0.569771,0.082748,48,283,569,4496
1644153942.792802,-0.008911,0.010864,-0.990234,0.388794,0.356031,0.12855,57,263,577,4432
1644153942.841157,-0.011292,0.008911,-0.991333,0.419328,0.310229,-0.054656,57,268,577,4480
1644153942.889597,-0.011108,0.011719,-0.993774,0.419328,0.493435,-0.085191,55,281,578,4496
1644153942.937993,-0.011963,0.010681,-0.990173,0.312458,0.447634,-0.100458,39,279,573,4480
1644153942.986366,-0.011108,0.007812,-0.992004,0.373527,0.401832,-0.024122,47,263,570,4480
1644153943.034786,-0.011414,0.008667,-0.992188,0.388794,0.340763,-0.222595,48,271,578,4416
1644153943.090576,-0.011108,0.011536,-0.993225,0.419328,0.478168,-0.115725,51,271,562,4464
1644153943.131481,-0.009216,0.009399,-0.992493,0.266656,0.218626,-0.222595,54,265,582,4496
1644153943.179862,-0.010071,0.009521,-0.991882,0.297191,0.462901,-0.100458,57,277,568,4464
1644153943.228284,-0.012329,0.008057,-0.990479,0.266656,0.432366,0.006412,47,275,568,4496
1644153943.27767,-0.010559,0.008118,-0.99115,0.190321,0.432366,-0.024122,46,269,578,4432
1644153943.327101,-0.013,0.008118,-0.989441,0.312458,0.325496,-0.115725,61,273,577,4464
1644153943.377382,-0.010803,0.010254,-0.994385,0.251389,0.371298,-0.268397,45,275,582,4528
1644153943.422416,-0.012451,0.009155,-0.991882,0.190321,0.279695,-0.36,48,288,569,4480
1644153943.518559,-0.01178,0.007202,-0.988281,0.266656,0.554504,0.021679,60,274,576,4432
1644153943.566928,-0.011963,0.010193,-0.990417,0.159786,0.417099,-0.14626,49,270,575,4496
1644153943.615308,-0.013794,0.010925,-0.994812,0.35826,0.432366,-0.069924,48,274,569,4432
1644153943.663719,-0.011414,0.01001,-0.993469,0.312458,0.417099,-0.069924,51,271,573,4464
1644153943.712151,-0.007263,0.010376,-0.991394,0.251389,0.554504,-0.085191,52,277,572,4576
1644153943.760478,-0.009155,0.007507,-0.992798,0.236122,0.401832,-0.115725,57,275,572,4432
1644153943.808882,-0.009949,0.00946,-0.989868,0.388794,0.371298,-0.054656,46,264,578,4464
1644153943.857268,-0.009949,0.008911,-0.992676,0.236122,0.386565,-0.069924,55,279,573,4528
1644153943.905701,-0.012756,0.008423,-0.992615,0.342992,0.554504,0.021679,51,274,578,4496
1644153943.954076,-0.014526,0.009338,-0.992615,0.266656,0.24916,-0.237863,53,269,564,4576
1644153944.002482,-0.013855,0.010254,-0.99292,0.236122,0.401832,-0.192061,48,269,571,4496
1644153944.061995,-0.012329,0.00824,-0.990723,0.220855,0.417099,-0.207328,51,276,573,4464
1644153944.104813,-0.01062,0.010925,-0.990051,0.144519,0.447634,-0.176794,55,264,576,4480
1644153944.147557,-0.011475,0.007874,-0.991821,0.220855,0.340763,-0.085191,55,276,573,4528
1644153944.19597,-0.009277,0.009216,-0.991211,0.190321,0.417099,-0.100458,49,268,570,4496
1644153944.244365,-0.011597,0.011902,-0.990845,0.236122,0.508702,-0.100458,48,264,576,4480
1644153944.293565,-0.012207,0.009338,-0.99231,0.175053,0.325496,-0.085191,54,277,572,4464
1644153944.341573,-0.011353,0.00708,-0.990295,0.35826,0.356031,-0.085191,41,262,576,4496
1644153944.389621,-0.010193,0.005127,-0.991333,0.327725,0.432366,-0.192061,43,266,571,4480
1644153944.440137,-0.012024,0.008667,-0.990845,0.266656,0.294962,0.006412,45,277,561,4496
1644153944.490482,-0.012573,0.01123,-0.992676,0.312458,0.523969,-0.024122,61,268,572,4480
1644153944.540526,-0.013,0.007202,-0.992249,0.281924,0.294962,-0.207328,52,280,570,4528
1644153944.631407,-0.008667,0.00824,-0.994019,0.434595,0.417099,-0.100458,47,277,572,4576
1644153944.679815,-0.01416,0.00769,-0.993225,0.08345,0.447634,-0.237863,48,264,564,4496
1644153944.728198,-0.011963,0.008545,-0.99176,0.35826,0.539237,-0.100458,51,264,571,4528
1644153944.776594,-0.011353,0.009644,-0.992432,0.251389,0.432366,-0.115725,46,281,562,4496
1644153944.825065,-0.013367,0.012939,-0.98999,0.098718,0.401832,0.036947,43,269,569,4528
1644153944.873386,-0.009827,0.008972,-0.990845,0.419328,0.462901,0.067481,57,270,570,4528
1644153944.921794,-0.011841,0.004456,-0.994141,0.373527,0.462901,-0.054656,49,270,575,4528
1644153944.970176,-0.01062,0.007141,-0.991333,0.251389,0.462901,0.052214,49,270,579,4464
1644153945.018542,-0.013306,0.009094,-0.990417,0.251389,0.493435,-0.008855,45,273,577,4528
1644153945.074228,-0.014832,0.006409,-0.993042,0.236122,0.493435,-0.054656,49,275,582,4464
1644153945.115832,-0.010498,0.008057,-0.992798,0.236122,0.417099,0.036947,51,283,576,4496
1644153945.163676,-0.012512,0.006531,-0.990051,0.159786,0.417099,0.189618,49,280,575,4496
1644153945.212073,-0.013489,0.008118,-0.992188,0.312458,0.417099,-0.024122,45,270,572,4416
1644153945.260431,-0.017029,0.007446,-0.994385,0.342992,0.340763,-0.130992,45,263,568,4480
1644153945.308845,-0.015686,0.008789,-0.991394,0.327725,0.478168,-0.222595,60,271,576,4496
1644153945.357227,-0.012634,0.009277,-0.991394,0.220855,0.386565,-0.069924,43,281,578,4496
1644153945.405612,-0.010254,0.009033,-0.993286,0.236122,0.478168,-0.237863,54,263,572,4464
1644153945.454032,-0.012329,0.00647,-0.989929,0.46513,0.508702,-0.115725,55,279,571,4496
1644153945.502605,-0.011597,0.008362,-0.993164,0.312458,0.432366,-0.024122,51,281,559,4496
1644153945.552865,-0.014893,0.005554,-0.992615,0.08345,0.539237,0.052214,57,265,570,4432
1644153945.603204,-0.015076,0.009338,-0.992493,0.220855,0.707176,-0.14626,55,281,573,4480
1644153945.653416,-0.013,0.010376,-0.992249,0.266656,0.401832,0.113282,47,273,565,4528
1644153945.744335,-0.009155,0.00946,-0.99176,0.342992,0.432366,0.006412,49,285,565,4544
1644153945.792702,-0.013428,0.007568,-0.992554,0.388794,0.401832,-0.069924,42,277,582,4464
1644153945.84109,-0.014404,0.008179,-0.991028,0.129252,0.478168,-0.130992,45,277,575,4576
1644153945.889499,-0.010559,0.010132,-0.992737,0.373527,0.447634,-0.085191,53,281,566,4480
1644153945.937895,-0.013611,0.010376,-0.991272,0.404061,0.661374,-0.176794,58,279,573,4496
1644153945.986247,-0.01001,0.009277,-0.992371,0.342992,0.310229,-0.100458,46,279,573,4496
1644153946.03466,-0.011963,0.008179,-0.992493,0.236122,0.462901,-0.115725,45,275,572,4528
1644153946.089171,-0.015137,0.008484,-0.990112,0.388794,0.569771,0.098015,52,275,568,4528
1644153946.131392,-0.009644,0.011597,-0.994202,0.251389,0.462901,-0.192061,51,279,576,4528
1644153946.179785,-0.01239,0.008728,-0.990845,0.388794,0.417099,-0.008855,49,275,575,4528
1644153946.228165,-0.011292,0.008606,-0.990173,0.113985,0.386565,0.021679,51,279,580,4432
1644153946.277722,-0.013428,0.008118,-0.992798,0.220855,0.447634,-0.130992,51,264,573,4496
1644153946.326072,-0.014282,0.00647,-0.993469,0.342992,0.585038,-0.207328,49,270,572,4528
1644153946.373714,-0.012878,0.00946,-0.990906,0.312458,0.523969,-0.054656,42,275,582,4528
1644153946.42478,-0.011536,0.008484,-0.990784,0.419328,0.371298,0.021679,53,276,571,4480
1644153946.475404,-0.013611,0.011292,-0.990051,0.236122,0.478168,-0.008855,48,266,573,4480
1644153946.524321,-0.012817,0.01062,-0.992615,0.480397,0.386565,-0.25313,49,258,570,4528
1644153946.615402,-0.011169,0.010681,-0.995789,0.297191,0.508702,-0.100458,52,275,579,4416
1644153946.66364,-0.013611,0.006653,-0.992371,0.297191,0.356031,-0.130992,45,270,561,4432
1644153946.71199,-0.010986,0.009338,-0.993835,0.175053,0.493435,-0.008855,48,274,573,4528
1644153946.760384,-0.008606,0.009644,-0.992859,0.281924,0.478168,-0.161527,49,280,556,4528
1644153946.808782,-0.013977,0.009399,-0.990967,0.342992,0.478168,-0.176794,51,264,569,4544
1644153946.857181,-0.008179,0.010864,-0.991943,0.205588,0.417099,-0.161527,46,276,569,4528
1644153946.905576,-0.011719,0.00946,-0.99054,0.297191,0.325496,-0.130992,45,270,563,4544
1644153946.954,-0.012085,0.009827,-0.99469,0.251389,0.539237,-0.085191,57,275,565,4496
1644153947.002384,-0.011658,0.011597,-0.991882,0.281924,0.569771,-0.14626,57,273,572,4464
1644153947.070986,-0.011108,0.009155,-0.993774,0.175053,0.539237,-0.100458,59,285,577,4544
1644153947.101003,-0.012024,0.007263,-0.990601,0.220855,0.615573,-0.115725,54,270,570,4464
1644153947.147489,-0.011475,0.00946,-0.992981,0.342992,0.554504,-0.054656,54,275,570,4496
1644153947.195878,-0.012268,0.008118,-0.992676,0.373527,0.493435,-0.085191,53,271,573,4464
1644153947.244267,-0.010986,0.008118,-0.992859,0.236122,0.386565,-0.161527,45,280,575,4432
1644153947.292665,-0.014465,0.006836,-0.990479,0.388794,0.417099,-0.085191,49,275,572,4432
1644153947.341064,-0.01062,0.007629,-0.992615,0.312458,0.63084,-0.192061,38,277,563,4496
1644153947.389436,-0.012573,0.011536,-0.991394,0.190321,0.264427,-0.054656,57,277,579,4464
1644153947.438053,-0.01239,0.00946,-0.993835,0.35826,0.478168,-0.008855,52,280,572,4496
1644153947.488292,-0.009216,0.006714,-0.992981,0.373527,0.478168,-0.039389,48,276,569,4480
1644153947.539134,-0.011414,0.010986,-0.99231,0.144519,0.371298,-0.222595,55,271,566,4576
1644153947.588767,-0.01239,0.009827,-0.990967,0.129252,0.493435,-0.085191,43,271,573,4464
1644153947.67973,-0.011841,0.011841,-0.992798,0.144519,0.401832,-0.207328,43,279,571,4528
1644153947.728106,-0.010559,0.008423,-0.991821,0.434595,0.539237,-0.008855,53,276,571,4432
1644153947.776498,-0.011353,0.007446,-0.990967,0.297191,0.386565,-0.008855,40,260,568,4480
1644153947.824885,-0.008545,0.009033,-0.994934,0.251389,0.478168,0.021679,48,274,573,4544
1644153947.87332,-0.011719,0.011047,-0.993958,0.251389,0.478168,-0.176794,43,271,580,4496
1644153947.9217,-0.014343,0.008362,-0.990906,0.220855,0.554504,-0.130992,46,276,569,4528
1644153947.970086,-0.013306,0.010498,-0.989868,0.327725,0.523969,-0.14626,48,271,571,4496
1644153948.01844,-0.011353,0.008728,-0.991943,0.251389,0.356031,0.052214,57,273,582,4480
1644153948.07637,-0.011536,0.010559,-0.992004,0.297191,0.401832,-0.069924,57,273,572,4496
1644153948.115971,-0.014099,0.010986,-0.992004,0.312458,0.615573,-0.115725,43,279,573,4528
1644153948.163562,-0.011658,0.011292,-0.991577,0.419328,0.417099,0.113282,58,274,573,4432
1644153948.211968,-0.014587,0.009949,-0.988159,0.205588,0.386565,-0.161527,54,282,577,4576
1644153948.260337,-0.011597,0.009033,-0.990356,0.220855,0.462901,0.082748,64,265,570,4464
1644153948.308742,-0.013733,0.008606,-0.99176,0.281924,0.371298,-0.161527,57,270,565,4432
1644153948.357125,-0.012939,0.010742,-0.992798,0.281924,0.310229,-0.237863,55,279,578,4496
1644153948.405515,-0.012024,0.009827,-0.991699,0.342992,0.417099,-0.25313,54,280,575,4496
1644153948.453944,-0.009705,0.006714,-0.995544,0.220855,0.493435,-0.069924,43,279,571,4496
1644153948.502429,-0.011108,0.009827,-0.992004,0.190321,0.493435,-0.14626,52,268,575,4496
1644153948.551106,-0.013062,0.009399,-0.993042,0.297191,0.279695,-0.14626,49,273,568,4528
1644153948.600507,-0.010193,0.008362,-0.993042,0.159786,0.523969,-0.085191,48,281,569,4528
1644153948.650883,-0.010681,0.009155,-0.990051,0.251389,0.569771,-0.115725,55,266,569,4496
1644153948.701048,-0.011597,0.007812,-0.993408,0.175053,0.340763,0.006412,54,280,565,4528
1644153948.745209,-0.013733,0.009155,-0.991516,0.205588,0.24916,-0.008855,52,268,572,4528
1644153948.840984,-0.012024,0.008728,-0.991821,0.297191,0.523969,-0.192061,46,271,566,4480
1644153948.889413,-0.012207,0.00708,-0.991638,0.205588,0.478168,-0.085191,47,273,561,4432
1644153948.937761,-0.008911,0.008728,-0.992859,0.144519,0.417099,0.067481,52,273,565,4496
1644153948.986174,-0.010559,0.005859,-0.990356,0.205588,0.401832,-0.054656,46,269,578,4464
1644153949.034608,-0.011963,0.009399,-0.993958,0.312458,0.386565,-0.069924,47,268,570,4496
1644153949.086829,-0.011047,0.007446,-0.99353,0.266656,0.508702,0.006412,47,273,579,4496
1644153949.131335,-0.010193,0.008972,-0.991943,0.281924,0.447634,-0.085191,53,271,566,4496
1644153949.179691,-0.011047,0.009521,-0.993774,0.251389,0.24916,-0.207328,51,276,566,4496
1644153949.228075,-0.00824,0.008789,-0.991943,0.35826,0.417099,-0.054656,51,274,590,4496
1644153949.276458,-0.010132,0.011047,-0.992065,0.312458,0.462901,-0.039389,40,282,570,4528
1644153949.324863,-0.012878,0.00769,-0.99231,0.373527,0.340763,-0.054656,51,279,573,4432
1644153949.373242,-0.011414,0.006836,-0.994141,0.342992,0.24916,-0.161527,49,268,561,4432
1644153949.421607,-0.010803,0.008301,-0.993103,0.312458,0.585038,-0.039389,46,274,569,4480
1644153949.469967,-0.010437,0.008545,-0.991821,0.098718,0.386565,-0.069924,54,268,582,4528
1644153949.518363,-0.009949,0.005859,-0.989929,0.35826,0.585038,-0.085191,41,276,580,4496
1644153949.567128,-0.013062,0.011597,-0.99408,0.312458,0.401832,-0.130992,59,273,577,4496
1644153949.615217,-0.011108,0.008301,-0.993896,0.266656,0.478168,0.082748,45,280,584,4528
1644153949.664132,-0.011475,0.012085,-0.992065,0.281924,0.432366,-0.069924,49,273,575,4496
1644153949.712375,-0.015259,0.005432,-0.99231,0.312458,0.615573,-0.14626,55,271,573,4496
1644153949.762691,-0.012878,0.006042,-0.992432,0.159786,0.585038,-0.054656,52,268,572,4528
1644153949.812951,-0.01239,0.009155,-0.993225,0.312458,0.554504,-0.115725,58,269,566,4496
1644153949.858121,-0.010437,0.009277,-0.991211,0.205588,0.478168,-0.008855,53,266,573,4480
1644153949.953885,-0.009766,0.011963,-0.992126,0.327725,0.417099,-0.024122,38,275,570,4464
1644153950.002421,-0.013,0.010376,-0.991272,0.251389,0.310229,-0.039389,52,277,579,4496
1644153950.061859,-0.012085,0.011719,-0.992188,0.251389,0.371298,0.006412,49,268,568,4496
1644153950.105358,-0.013794,0.009399,-0.989807,0.205588,0.508702,-0.054656,53,283,573,4480
1644153950.147438,-0.012329,0.007751,-0.993225,0.35826,0.523969,-0.039389,53,269,566,4464
1644153950.195781,-0.011108,0.009033,-0.992126,0.220855,0.432366,-0.161527,49,273,572,4528
1644153950.244177,-0.012817,0.011292,-0.990417,0.251389,0.493435,-0.085191,46,274,578,4576
1644153950.292582,-0.010925,0.011169,-0.99469,0.190321,0.478168,-0.024122,49,277,565,4496
1644153950.340942,-0.008484,0.007751,-0.992126,0.205588,0.508702,-0.115725,49,275,582,4464
1644153950.389328,-0.011047,0.008972,-0.991577,0.236122,0.386565,-0.100458,51,274,573,4528
1644153950.437683,-0.014404,0.007874,-0.991394,0.068183,0.539237,-0.130992,57,275,570,4496
1644153950.486063,-0.012146,0.009033,-0.991821,0.312458,0.676641,-0.14626,51,266,580,4528
1644153950.535094,-0.013428,0.006958,-0.993164,0.251389,0.356031,-0.237863,52,265,568,4496
1644153950.583114,-0.011292,0.00824,-0.992493,0.297191,0.386565,-0.130992,46,264,569,4528
1644153950.63144,-0.014526,0.008484,-0.99176,0.312458,0.508702,-0.176794,47,268,575,4464
1644153950.681654,-0.01123,0.010681,-0.990784,0.373527,0.585038,-0.069924,55,269,587,4496
1644153950.732412,-0.014343,0.00946,-0.994446,0.251389,0.462901,-0.192061,45,275,563,4432
1644153950.782225,-0.016296,0.007507,-0.995178,0.205588,0.432366,-0.085191,57,275,572,4464
1644153950.873225,-0.013184,0.00885,-0.989746,0.251389,0.432366,-0.130992,54,270,563,4496
1644153950.921583,-0.010559,0.008362,-0.993652,0.327725,0.432366,0.006412,42,280,570,4496
1644153950.969987,-0.01178,0.00824,-0.994324,0.205588,0.310229,-0.222595,51,274,566,4464
1644153951.01837,-0.013123,0.011108,-0.990479,0.312458,0.401832,-0.176794,48,274,566,4528
1644153951.074303,-0.012268,0.010681,-0.990479,0.281924,0.432366,-0.054656,52,275,572,4528
1644153951.115144,-0.010376,0.009216,-0.99115,0.236122,0.478168,0.006412,45,265,568,4480
1644153951.163499,-0.011414,0.009705,-0.991638,0.251389,0.508702,-0.161527,42,270,577,4528
1644153951.21188,-0.013611,0.008789,-0.99292,0.129252,0.340763,-0.054656,51,279,576,4432
1644153951.260262,-0.010742,0.009766,-0.99353,0.251389,0.371298,-0.069924,54,280,570,4528
1644153951.308624,-0.013428,0.008911,-0.991577,0.281924,0.340763,-0.237863,49,268,572,4464
1644153951.357005,-0.011597,0.009888,-0.992615,0.266656,0.340763,-0.085191,52,277,572,4480
1644153951.405458,-0.011047,0.008545,-0.992249,0.327725,0.417099,-0.268397,49,275,575,4528
1644153951.45382,-0.013306,0.011169,-0.993469,0.190321,0.417099,-0.039389,46,279,576,4464
1644153951.502222,-0.008484,0.009521,-0.989868,0.281924,0.417099,-0.085191,53,276,566,4480
1644153951.550574,-0.011414,0.007568,-0.987915,0.312458,0.432366,-0.100458,54,273,582,4480
1644153951.598972,-0.013916,0.011963,-0.993469,0.281924,0.462901,-0.039389,49,268,570,4528
1644153951.647935,-0.01123,0.010559,-0.992188,0.312458,0.508702,-0.130992,46,276,580,4528
1644153951.695947,-0.00946,0.008301,-0.993896,0.144519,0.432366,-0.054656,57,260,572,4496
1644153951.744541,-0.012268,0.008423,-0.992737,0.144519,0.493435,-0.024122,54,277,575,4464
1644153951.796674,-0.013184,0.007446,-0.991943,0.144519,0.417099,0.006412,45,277,563,4480
1644153951.84596,-0.015137,0.009094,-0.993896,0.236122,0.401832,-0.069924,46,279,576,4496
1644153951.89621,-0.01062,0.008606,-0.992004,0.190321,0.310229,0.036947,49,268,568,4464
1644153951.986095,-0.012695,0.007629,-0.993408,0.266656,0.386565,-0.100458,49,277,565,4528
1644153952.034469,-0.011902,0.011902,-0.991028,0.327725,0.615573,-0.024122,43,279,559,4528
1644153952.082967,-0.014282,0.011047,-0.99353,0.251389,0.417099,0.082748,36,279,580,4496
1644153952.13121,-0.009888,0.012146,-0.993896,0.251389,0.310229,-0.14626,54,268,572,4528
1644153952.179575,-0.014038,0.007751,-0.992615,0.266656,0.493435,-0.176794,53,266,564,4432
1644153952.22795,-0.011841,0.011169,-0.993042,0.35826,0.539237,-0.039389,48,274,573,4496
1644153952.276327,-0.011169,0.010071,-0.988464,0.342992,0.447634,-0.192061,46,271,573,4496
1644153952.324761,-0.012268,0.009583,-0.990601,0.205588,0.356031,0.052214,45,270,577,4464
1644153952.373142,-0.010681,0.006653,-0.989441,0.159786,0.294962,-0.298931,45,273,570,4496
1644153952.421521,-0.012451,0.009583,-0.991638,0.205588,0.356031,-0.14626,48,279,573,4576
1644153952.469898,-0.013367,0.008301,-0.991028,0.327725,0.600305,0.036947,51,276,571,4464
1644153952.518289,-0.009705,0.011597,-0.989563,0.312458,0.310229,-0.085191,46,283,569,4480
1644153952.566675,-0.013855,0.007507,-0.993774,0.434595,0.508702,-0.069924,43,283,569,4576
1644153952.615116,-0.013916,0.009705,-0.992737,0.281924,0.462901,0.006412,46,266,576,4496
1644153952.663455,-0.01239,0.005737,-0.991272,0.113985,0.371298,-0.207328,51,276,578,4496
1644153952.711833,-0.013123,0.005554,-0.990845,0.159786,0.523969,-0.054656,55,269,587,4480
1644153952.760621,-0.011414,0.008057,-0.991211,0.35826,0.615573,-0.130992,59,268,577,4464
1644153952.809028,-0.011414,0.011658,-0.992004,0.144519,0.386565,-0.130992,51,271,583,4496
1644153952.859572,-0.010803,0.008423,-0.99292,0.312458,0.417099,-0.192061,53,271,583,4576
1644153952.908414,-0.011047,0.007263,-0.990845,0.327725,0.401832,0.021679,54,275,589,4432
1644153952.958762,-0.01001,0.007446,-0.991638,0.220855,0.462901,-0.115725,43,269,559,4464
1644153953.069975,-0.010437,0.006775,-0.9953,0.342992,0.523969,-0.176794,53,271,571,4480
1644153953.104999,-0.014465,0.007935,-0.993164,0.342992,0.493435,-0.115725,42,277,575,4544
1644153953.147298,-0.013611,0.008911,-0.993042,0.495664,0.417099,0.006412,45,263,568,4528
1644153953.195655,-0.01001,0.010315,-0.99054,0.205588,0.462901,-0.085191,47,275,570,4432
1644153953.244072,-0.009277,0.007751,-0.989502,0.373527,0.325496,-0.176794,47,273,579,4432
1644153953.292721,-0.009949,0.008301,-0.991882,0.312458,0.508702,-0.161527,47,275,586,4496
1644153953.340858,-0.011963,0.008179,-0.991516,0.434595,0.462901,-0.100458,54,273,563,4544
1644153953.389409,-0.012634,0.008667,-0.990356,0.236122,0.432366,0.082748,52,287,575,4464
1644153953.438807,-0.010925,0.008545,-0.992554,0.190321,0.508702,-0.024122,48,283,578,4528
1644153953.489351,-0.014038,0.009033,-0.991516,0.251389,0.493435,-0.039389,46,271,573,4480
1644153953.539478,-0.009644,0.011292,-0.991333,0.236122,0.417099,0.082748,45,273,563,4464
1644153953.631182,-0.009033,0.009583,-0.98822,0.220855,0.386565,-0.085191,46,266,573,4464
1644153953.679532,-0.01062,0.006104,-0.991882,0.236122,0.401832,-0.054656,36,276,569,4528
1644153953.727923,-0.010925,0.007751,-0.990479,0.342992,0.447634,-0.069924,48,276,571,4480
1644153953.776299,-0.011292,0.008179,-0.99231,0.098718,0.447634,-0.054656,51,274,569,4496
1644153953.824738,-0.009338,0.008484,-0.991272,0.236122,0.417099,0.052214,48,269,564,4416
1644153953.873139,-0.009583,0.009155,-0.992126,0.312458,0.508702,-0.024122,40,270,570,4496
1644153953.921507,-0.013855,0.009094,-0.990417,0.281924,0.508702,-0.008855,54,270,577,4544
1644153953.969903,-0.010498,0.007874,-0.992249,0.312458,0.462901,-0.192061,42,270,570,4528
1644153954.018278,-0.009705,0.010742,-0.990967,0.297191,0.493435,-0.054656,47,263,575,4480
1644153954.069443,-0.013306,0.010132,-0.991394,0.342992,0.371298,-0.100458,46,279,576,4496
1644153954.115091,-0.009338,0.009338,-0.99115,0.281924,0.356031,-0.039389,52,273,579,4496
1644153954.163372,-0.01123,0.00824,-0.992737,0.266656,0.585038,-0.085191,54,265,577,4576
1644153954.211797,-0.015076,0.008972,-0.990356,0.327725,0.310229,-0.100458,45,270,577,4464
1644153954.260141,-0.007019,0.009705,-0.990479,0.297191,0.478168,-0.085191,58,276,578,4528
1644153954.308545,-0.013,0.004333,-0.990417,0.251389,0.401832,-0.14626,54,273,575,4464
1644153954.357016,-0.014343,0.007874,-0.99231,0.266656,0.508702,-0.039389,53,274,569,4496
1644153954.405349,-0.012451,0.009338,-0.990356,0.46513,0.340763,-0.085191,58,269,578,4528
1644153954.453747,-0.011414,0.006531,-0.990112,0.297191,0.508702,-0.130992,57,260,565,4464
1644153954.503308,-0.010925,0.00946,-0.992615,0.312458,0.462901,-0.130992,51,266,576,4464
1644153954.553676,-0.010803,0.009094,-0.990234,0.480397,0.63084,-0.161527,55,271,576,4432
1644153954.603973,-0.011536,0.00885,-0.992737,0.312458,0.447634,-0.176794,41,276,566,4480
1644153954.648081,-0.011108,0.008057,-0.99231,0.266656,0.585038,-0.085191,40,263,568,4528
1644153954.744019,-0.01178,0.010132,-0.991821,0.35826,0.462901,-0.115725,51,271,566,4576
1644153954.792418,-0.013489,0.011841,-0.989685,0.342992,0.371298,-0.069924,52,260,563,4496
1644153954.840821,-0.011108,0.011658,-0.990417,0.205588,0.401832,-0.130992,47,270,572,4576
1644153954.889211,-0.012695,0.006104,-0.990784,0.327725,0.554504,0.021679,47,270,579,4464
1644153954.937604,-0.01123,0.006226,-0.992615,0.251389,0.417099,0.036947,47,263,572,4432
1644153954.986006,-0.01123,0.007874,-0.991577,0.236122,0.188092,-0.024122,45,268,568,4464
1644153955.034384,-0.012024,0.009827,-0.994812,0.220855,0.462901,-0.176794,42,277,575,4496
1644153955.102374,-0.013794,0.007507,-0.992737,0.175053,0.233893,-0.069924,57,273,575,4496
1644153955.131104,-0.011597,0.00885,-0.994629,0.297191,0.386565,-0.024122,49,275,579,4528
1644153955.179502,-0.013611,0.009216,-0.992432,0.144519,0.554504,-0.100458,52,275,575,4464
1644153955.227898,-0.015991,0.009216,-0.992065,0.220855,0.417099,-0.161527,49,270,582,4496
1644153955.276278,-0.011292,0.009521,-0.99231,0.510931,0.447634,-0.161527,41,276,573,4464
1644153955.324707,-0.014221,0.007263,-0.992004,0.312458,0.478168,-0.130992,39,276,578,4496
1644153955.37489,-0.009949,0.006348,-0.994263,0.236122,0.371298,-0.130992,55,266,569,4432
1644153955.424891,-0.012085,0.011292,-0.994141,0.312458,0.401832,-0.14626,57,282,577,4576
1644153955.475337,-0.013,0.005005,-0.993774,0.327725,0.63084,-0.008855,41,266,571,4544
1644153955.519393,-0.013916,0.009521,-0.989929,0.08345,0.356031,-0.008855,47,273,579,4496
1644153955.615209,-0.012939,0.007202,-0.991821,0.327725,0.371298,-0.054656,57,275,568,4496
1644153955.663355,-0.009644,0.008301,-0.991943,0.342992,0.340763,0.006412,40,270,575,4480
1644153955.711716,-0.012207,0.009277,-0.99176,0.236122,0.386565,0.082748,54,275,577,4528
1644153955.760082,-0.01123,0.009705,-0.992554,0.266656,0.310229,-0.008855,52,270,570,4496
1644153955.808498,-0.008972,0.008423,-0.993774,0.342992,0.386565,-0.207328,52,282,572,4496
1644153955.856902,-0.011841,0.010071,-0.990112,0.266656,0.615573,-0.161527,48,274,573,4496
1644153955.905352,-0.010803,0.010803,-0.992249,0.236122,0.310229,0.036947,54,270,577,4480
1644153955.953679,-0.012573,0.008301,-0.992981,0.373527,0.523969,-0.115725,47,275,570,4496
1644153956.002089,-0.012329,0.011597,-0.992188,0.342992,0.432366,-0.008855,40,268,572,4432
1644153956.064448,-0.012878,0.008911,-0.992249,0.312458,0.585038,-0.054656,54,270,584,4480
1644153956.101398,-0.01355,0.010376,-0.990662,0.388794,0.493435,-0.069924,48,271,583,4528
1644153956.1472,-0.012512,0.010742,-0.993347,0.327725,0.386565,-0.069924,55,274,571,4432
1644153956.195584,-0.013916,0.00769,-0.990967,0.251389,0.401832,-0.008855,60,274,559,4528
1644153956.243973,-0.013672,0.008728,-0.992249,0.46513,0.493435,-0.100458,54,280,572,4496
1644153956.292384,-0.013123,0.008301,-0.992432,0.190321,0.294962,-0.085191,54,268,575,4576
1644153956.340745,-0.012268,0.01001,-0.993347,0.190321,0.417099,-0.14626,51,271,573,4496
1644153956.389121,-0.010925,0.007874,-0.991516,0.327725,0.508702,-0.115725,52,277,577,4464
1644153956.437683,-0.011719,0.007507,-0.992615,0.327725,0.447634,-0.054656,47,265,579,4528
1644153956.486929,-0.008972,0.007202,-0.992554,0.327725,0.401832,-0.283664,48,286,566,4496
1644153956.537862,-0.01178,0.008179,-0.989807,0.312458,0.462901,0.052214,48,269,573,4432
1644153956.58779,-0.008728,0.007751,-0.993164,0.373527,0.523969,0.143817,46,271,569,4464
1644153956.631666,-0.013794,0.008728,-0.993774,0.434595,0.401832,-0.024122,52,273,570,4528
1644153956.727824,-0.011047,0.006531,-0.990845,0.297191,0.508702,0.052214,42,258,565,4496
1644153956.776192,-0.013184,0.010925,-0.992554,0.281924,0.508702,-0.054656,51,279,576,4496
1644153956.824641,-0.014465,0.010315,-0.993164,0.434595,0.371298,-0.14626,52,270,568,4480
1644153956.873047,-0.013245,0.00531,-0.993652,0.266656,0.325496,-0.054656,59,275,579,4528
1644153956.921413,-0.013062,0.006836,-0.989319,0.205588,0.356031,-0.207328,46,271,571,4496
1644153956.969795,-0.01062,0.009094,-0.991577,0.35826,0.478168,-0.192061,52,282,582,4464
1644153957.018189,-0.011353,0.009949,-0.993286,0.327725,0.432366,-0.283664,47,280,575,4480
1644153957.071507,-0.014038,0.006348,-0.993774,0.175053,0.386565,-0.176794,52,270,570,4528
1644153957.114913,-0.014526,0.005066,-0.994751,0.434595,0.493435,-0.039389,46,269,578,4464
1644153957.16332,-0.013062,0.009216,-0.993896,0.175053,0.447634,-0.115725,41,276,571,4432
1644153957.211648,-0.01062,0.010193,-0.990295,0.434595,0.386565,-0.069924,58,274,571,4528
1644153957.260052,-0.012024,0.008362,-0.99353,0.297191,0.447634,-0.130992,54,277,568,4496
1644153957.308459,-0.013245,0.009216,-0.992737,0.144519,0.554504,-0.054656,48,281,573,4464
1644153957.356851,-0.014099,0.007385,-0.995544,0.159786,0.294962,-0.069924,46,271,585,4496
1644153957.405231,-0.014282,0.007996,-0.992126,0.281924,0.478168,-0.069924,49,268,577,4496
1644153957.453622,-0.01532,0.008057,-0.992981,0.144519,0.340763,-0.069924,49,273,575,4464
1644153957.501976,-0.011719,0.008057,-0.991394,0.419328,0.432366,0.021679,51,276,569,4496
1644153957.550404,-0.011414,0.008118,-0.993347,0.35826,0.401832,-0.039389,43,279,573,4464
1644153957.598768,-0.012939,0.007446,-0.992798,0.449863,0.340763,-0.054656,48,271,576,4432
1644153957.648878,-0.013062,0.010193,-0.99231,0.312458,0.478168,-0.054656,43,279,562,4480
1644153957.69854,-0.014587,0.008362,-0.991272,0.098718,0.356031,-0.085191,46,269,562,4528
1644153957.749791,-0.010559,0.009705,-0.990479,0.220855,0.432366,-0.130992,53,268,563,4528
1644153957.793064,-0.012451,0.006836,-0.990845,0.266656,0.478168,-0.14626,48,276,569,4528
1644153957.889112,-0.009094,0.010071,-0.993225,0.159786,0.462901,-0.207328,51,279,566,4544
1644153957.937516,-0.012878,0.008911,-0.992493,0.236122,0.493435,-0.115725,55,274,576,4528
1644153957.985886,-0.010681,0.006287,-0.994507,0.159786,0.447634,0.006412,47,265,572,4480
1644153958.034288,-0.012695,0.010681,-0.992188,0.129252,0.447634,-0.14626,58,271,571,4496
1644153958.085404,-0.011108,0.009521,-0.993713,0.236122,0.523969,-0.207328,48,257,576,4528
1644153958.131034,-0.013733,0.007751,-0.993774,0.35826,0.539237,-0.069924,58,281,571,4480
1644153958.179384,-0.007935,0.011047,-0.992188,0.266656,0.432366,0.052214,58,271,564,4480
1644153958.227782,-0.011658,0.008362,-0.990662,0.251389,0.401832,-0.039389,49,277,572,4576
1644153958.276169,-0.011597,0.008911,-0.992676,0.220855,0.432366,-0.25313,57,263,572,4480
1644153958.324529,-0.010376,0.008118,-0.993408,0.327725,0.310229,-0.176794,47,280,575,4496
1644153958.372962,-0.008606,0.008362,-0.992249,0.312458,0.371298,-0.283664,47,275,572,4528
1644153958.421332,-0.014465,0.008606,-0.992249,0.236122,0.417099,-0.176794,55,271,578,4432
1644153958.469684,-0.010193,0.010925,-0.991577,0.220855,0.523969,-0.008855,52,270,575,4496
1644153958.518099,-0.01062,0.011414,-0.992249,0.312458,0.432366,-0.069924,43,279,580,4496
1644153958.566501,-0.012146,0.007385,-0.99353,0.373527,0.508702,-0.176794,57,268,586,4480
1644153958.614877,-0.015503,0.009277,-0.991272,0.312458,0.462901,-0.283664,43,271,566,4528
1644153958.663247,-0.013855,0.01001,-0.992371,0.281924,0.447634,-0.085191,49,275,579,4544
1644153958.712192,-0.012024,0.008423,-0.99054,0.220855,0.462901,-0.115725,46,281,573,4528
1644153958.760301,-0.012207,0.008545,-0.991699,0.159786,0.432366,-0.192061,52,270,568,4480
1644153958.810078,-0.014038,0.009277,-0.99292,0.205588,0.356031,-0.176794,45,273,577,4464
1644153958.86163,-0.010315,0.00824,-0.992065,0.190321,0.386565,0.052214,53,271,566,4464
1644153958.911727,-0.01532,0.009399,-0.993469,0.266656,0.386565,-0.100458,49,277,570,4496
1644153959.001981,-0.010864,0.010498,-0.992554,0.281924,0.279695,-0.039389,43,276,573,4480
1644153959.001981,-0.010864,0.010498,-0.992554,0.281924,0.279695,-0.039389,43,276,573,4480
1644153959.102794,-0.013367,0.007874,-0.990234,0.190321,0.462901,-0.085191,49,290,577,4480
1644153959.147157,-0.009705,0.009766,-0.991028,0.297191,0.600305,-0.176794,52,280,572,4528
1644153959.195492,-0.011597,0.009949,-0.991516,0.236122,0.447634,-0.130992,48,264,578,4432
1644153959.243866,-0.013733,0.009094,-0.99408,0.312458,0.478168,-0.024122,53,276,576,4528
1644153959.292285,-0.012939,0.009766,-0.992065,0.220855,0.432366,-0.100458,49,275,575,4496
1644153959.340665,-0.01178,0.008728,-0.992554,0.113985,0.417099,-0.054656,59,268,572,4496
1644153959.389065,-0.010986,0.009583,-0.992981,0.266656,0.386565,-0.069924,39,274,573,4496
1644153959.437449,-0.013855,0.008728,-0.991638,0.190321,0.539237,-0.085191,59,263,584,4464
1644153959.485848,-0.013245,0.00769,-0.992188,0.449863,0.447634,-0.039389,45,268,568,4496
1644153959.53582,-0.01001,0.009338,-0.993958,0.281924,0.447634,-0.130992,43,271,566,4464
1644153959.586102,-0.012329,0.010376,-0.991333,0.144519,0.432366,-0.100458,52,282,575,4528
1644153959.636508,-0.009583,0.010803,-0.99231,0.220855,0.600305,-0.100458,42,275,572,4528
1644153959.680598,-0.007874,0.008728,-0.99292,0.175053,0.478168,-0.207328,52,275,575,4496
1644153959.776118,-0.01123,0.007812,-0.993286,0.297191,0.478168,-0.14626,42,275,577,4480
1644153959.824497,-0.011536,0.009216,-0.992981,0.159786,0.523969,0.036947,54,265,579,4464
1644153959.872921,-0.013489,0.008972,-0.990967,0.159786,0.417099,0.006412,45,270,570,4464
1644153959.921299,-0.016479,0.007874,-0.992981,0.281924,0.417099,0.006412,49,285,568,4496
1644153959.969708,-0.011108,0.005249,-0.992432,0.190321,0.478168,-0.237863,52,268,572,4576
1644153960.01809,-0.013062,0.00647,-0.993591,0.342992,0.340763,-0.115725,41,279,569,4528
1644153960.072533,-0.014404,0.007141,-0.990845,0.388794,0.447634,-0.100458,57,273,579,4576
1644153960.114803,-0.010803,0.006165,-0.991882,0.190321,0.432366,-0.115725,48,276,571,4496
1644153960.163211,-0.012878,0.007935,-0.992065,0.159786,0.523969,-0.024122,51,271,576,4496
1644153960.211591,-0.014709,0.007019,-0.992004,0.205588,0.432366,-0.115725,47,282,570,4432
1644153960.259959,-0.011658,0.009521,-0.994812,0.35826,0.508702,-0.115725,51,269,573,4576
1644153960.308361,-0.011902,0.008423,-0.99115,0.08345,0.417099,-0.14626,48,276,571,4496
1644153960.356715,-0.012207,0.007324,-0.993164,0.220855,0.462901,-0.100458,47,273,575,4496
1644153960.405168,-0.013245,0.008118,-0.990967,0.404061,0.294962,-0.008855,41,281,573,4496
1644153960.453527,-0.014465,0.010498,-0.992126,0.159786,0.569771,-0.14626,45,270,572,4464
1644153960.501882,-0.011414,0.00592,-0.993164,0.129252,0.462901,0.021679,51,276,562,4528
1644153960.55057,-0.012756,0.008667,-0.992737,0.327725,0.554504,-0.314198,49,258,582,4496
1644153960.598689,-0.015442,0.006287,-0.990967,0.159786,0.432366,-0.268397,43,264,569,4464
1644153960.647232,-0.012939,0.008667,-0.99292,0.220855,0.585038,-0.25313,51,264,569,4528
1644153960.696772,-0.013367,0.009338,-0.993225,0.281924,0.432366,-0.176794,52,273,575,4528
1644153960.74704,-0.013794,0.00769,-0.989197,0.220855,0.539237,-0.192061,57,273,570,4528
1644153960.798392,-0.010559,0.006287,-0.990723,0.098718,0.371298,-0.14626,41,269,564,4464
1644153960.84186,-0.008911,0.01178,-0.99292,0.159786,0.294962,-0.024122,45,270,575,4480
1644153960.937411,-0.011658,0.011902,-0.9953,0.251389,0.447634,-0.130992,43,276,564,4432
1644153960.985777,-0.009644,0.008972,-0.991821,0.205588,0.279695,-0.039389,51,276,566,4528
1644153961.03418,-0.013794,0.010132,-0.989868,0.35826,0.386565,-0.100458,58,269,571,4464
1644153961.082616,-0.010376,0.011475,-0.992065,0.327725,0.417099,-0.008855,54,280,572,4464
1644153961.130924,-0.009949,0.009338,-0.993958,0.236122,0.386565,-0.085191,48,283,566,4496
1644153961.179304,-0.012512,0.007263,-0.989807,0.175053,0.462901,-0.207328,54,280,563,4480
1644153961.227694,-0.015137,0.010193,-0.990295,0.236122,0.539237,0.006412,43,281,571,4496
1644153961.276056,-0.015076,0.00824,-0.994995,0.190321,0.310229,-0.069924,46,279,562,4416
1644153961.324475,-0.01178,0.007996,-0.99292,0.159786,0.554504,0.021679,42,273,579,4464
1644153961.372873,-0.013306,0.010498,-0.993591,0.251389,0.432366,-0.222595,49,282,579,4544
1644153961.421234,-0.010315,0.008667,-0.994873,0.281924,0.340763,-0.14626,54,280,577,4496
1644153961.469626,-0.012146,0.006958,-0.992554,0.236122,0.478168,0.021679,49,285,575,4528
1644153961.517973,-0.015259,0.009644,-0.992249,0.144519,0.447634,-0.329466,60,276,578,4480
1644153961.566387,-0.011353,0.010132,-0.993774,0.281924,0.401832,-0.069924,53,286,576,4528
1644153961.614768,-0.015442,0.008179,-0.994324,0.236122,0.371298,0.082748,54,275,563,4528
1644153961.663377,-0.012512,0.008057,-0.994019,0.266656,0.356031,-0.069924,54,273,577,4528
1644153961.711567,-0.012329,0.011841,-0.993286,0.281924,0.508702,-0.14626,53,279,571,4480
1644153961.760088,-0.009399,0.00708,-0.991211,0.236122,0.493435,-0.024122,46,269,573,4464
1644153961.810219,-0.01123,0.00708,-0.99115,0.281924,0.508702,-0.192061,51,279,571,4480
1644153961.861287,-0.009277,0.010681,-0.992981,0.327725,0.600305,-0.069924,51,276,578,4464
1644153961.912508,-0.013062,0.010498,-0.993591,0.266656,0.493435,-0.130992,47,285,570,4528
1644153961.954723,-0.01532,0.009216,-0.991089,0.297191,0.554504,-0.115725,45,277,565,4432
1644153962.06647,-0.012268,0.00946,-0.99469,0.281924,0.554504,-0.039389,55,269,585,4464
1644153962.104352,-0.014709,0.00769,-0.993774,0.266656,0.386565,-0.085191,54,277,570,4480
1644153962.147004,-0.011597,0.009155,-0.990479,0.342992,0.554504,0.006412,54,280,572,4480
1644153962.195369,-0.009338,0.009216,-0.992676,0.342992,0.508702,-0.100458,52,270,572,4480
1644153962.24377,-0.012268,0.009033,-0.991272,0.220855,0.646107,-0.130992,52,268,572,4432
1644153962.292197,-0.009338,0.009399,-0.990784,0.388794,0.447634,-0.222595,53,269,566,4528
1644153962.340704,-0.012634,0.009766,-0.992981,0.144519,0.569771,-0.161527,48,279,566,4464
1644153962.388975,-0.009644,0.009155,-0.992432,0.449863,0.356031,-0.085191,43,262,573,4496
1644153962.437471,-0.010193,0.00769,-0.992432,0.144519,0.569771,0.052214,41,276,571,4416
1644153962.487113,-0.011658,0.008179,-0.990173,0.373527,0.447634,0.006412,51,269,571,4432
1644153962.537537,-0.008423,0.006409,-0.990845,0.190321,0.386565,0.006412,49,263,572,4496
1644153962.587902,-0.011414,0.01001,-0.993103,0.205588,0.371298,-0.115725,43,276,576,4576
1644153962.631968,-0.008667,0.010254,-0.992676,0.342992,0.340763,-0.161527,48,279,573,4480
1644153962.727636,-0.014709,0.007324,-0.98938,0.342992,0.264427,0.067481,45,277,575,4480
1644153962.776027,-0.010071,0.006714,-0.994385,0.113985,0.417099,-0.054656,55,269,566,4528
1644153962.824419,-0.014038,0.006592,-0.99292,0.312458,0.493435,-0.039389,48,266,573,4496
1644153962.872829,-0.013,0.010986,-0.989075,0.342992,0.417099,-0.069924,48,274,569,4480
1644153962.921197,-0.010681,0.00769,-0.992065,0.419328,0.432366,-0.176794,52,273,572,4528
1644153962.969611,-0.014465,0.008362,-0.990234,0.297191,0.523969,-0.054656,47,273,572,4496
1644153963.017962,-0.012512,0.007996,-0.994629,0.266656,0.432366,-0.069924,42,273,577,4496
1644153963.071588,-0.014038,0.00885,-0.991821,0.205588,0.417099,-0.054656,57,275,570,4464
1644153963.114773,-0.013672,0.008972,-0.990967,0.236122,0.294962,-0.100458,55,279,578,4480
1644153963.163618,-0.013428,0.009705,-0.990967,0.404061,0.478168,-0.085191,48,271,580,4496
1644153963.213069,-0.011841,0.006104,-0.993896,0.159786,0.447634,-0.069924,47,270,575,4576
1644153963.263412,-0.011292,0.010803,-0.988586,0.35826,0.447634,-0.176794,51,274,566,4480
1644153963.314012,-0.011047,0.00769,-0.99176,0.159786,0.371298,-0.100458,48,264,576,4480
1644153963.357899,-0.011414,0.009521,-0.990967,0.175053,0.462901,0.006412,42,275,572,4416
1644153963.453436,-0.013306,0.009949,-0.991516,0.159786,0.340763,-0.161527,42,273,568,4496
1644153963.501807,-0.011108,0.009094,-0.990967,0.35826,0.554504,-0.130992,48,266,566,4496
1644153963.550181,-0.014771,0.009033,-0.992676,0.327725,0.478168,-0.130992,43,276,576,4480
1644153963.598572,-0.012756,0.005676,-0.991272,0.236122,0.417099,-0.115725,60,271,573,4496
1644153963.646956,-0.015076,0.011047,-0.992188,0.297191,0.417099,0.052214,54,270,570,4496
1644153963.695354,-0.012878,0.007019,-0.993347,0.220855,0.401832,-0.039389,52,270,577,4480
1644153963.743745,-0.011108,0.008301,-0.992859,0.297191,0.386565,-0.100458,43,276,566,4528
1644153963.792228,-0.011658,0.007263,-0.992371,0.205588,0.233893,-0.130992,52,275,572,4496
1644153963.840527,-0.01178,0.011719,-0.993652,0.251389,0.447634,-0.100458,51,271,569,4432
1644153963.888951,-0.011414,0.008972,-0.994202,0.205588,0.493435,-0.024122,46,266,578,4496
1644153963.937319,-0.01593,0.008667,-0.992859,0.266656,0.356031,0.067481,52,280,575,4480
1644153963.985713,-0.011719,0.009216,-0.993469,0.342992,0.188092,0.006412,52,280,577,4496
1644153964.034351,-0.008911,0.007812,-0.991638,0.373527,0.340763,-0.130992,61,275,572,4464
1644153964.094108,-0.012573,0.008118,-0.992981,0.388794,0.432366,-0.008855,49,275,570,4400
1644153964.1308,-0.007812,0.009399,-0.992493,0.159786,0.462901,-0.100458,54,268,579,4464
1644153964.179424,-0.013794,0.008484,-0.994202,0.297191,0.417099,-0.085191,47,280,563,4528
1644153964.228135,-0.012817,0.009644,-0.990356,0.312458,0.432366,-0.161527,46,266,573,4576
1644153964.276223,-0.011108,0.009033,-0.990417,0.220855,0.417099,0.021679,57,268,577,4496
1644153964.326551,-0.012939,0.005981,-0.990845,0.266656,0.569771,-0.192061,53,264,571,4464
1644153964.37689,-0.014709,0.00769,-0.990417,0.46513,0.356031,-0.130992,57,273,572,4464
1644153964.427178,-0.015015,0.008728,-0.990784,0.342992,0.386565,-0.237863,48,266,571,4496
1644153964.517879,-0.013184,0.009705,-0.992737,0.404061,0.493435,-0.008855,51,276,569,4464
1644153964.566269,-0.010681,0.006042,-0.992249,0.297191,0.493435,-0.085191,45,273,563,4544
1644153964.614684,-0.011658,0.008179,-0.990601,0.205588,0.493435,-0.054656,47,277,570,4496
1644153964.663043,-0.011658,0.007935,-0.991577,0.35826,0.432366,-0.100458,48,276,571,4432
1644153964.711452,-0.01123,0.006958,-0.991577,0.281924,0.508702,-0.085191,43,279,569,4496
1644153964.759818,-0.011047,0.009216,-0.990234,0.297191,0.386565,0.052214,57,280,563,4496
1644153964.808223,-0.011536,0.009155,-0.992554,0.266656,0.386565,-0.008855,42,273,570,4528
1644153964.856653,-0.012207,0.011414,-0.993958,0.251389,0.340763,-0.222595,51,274,566,4480
1644153964.905167,-0.011353,0.009338,-0.98877,0.281924,0.386565,-0.024122,41,274,569,4464
1644153964.953691,-0.010986,0.010376,-0.991638,0.266656,0.447634,-0.130992,46,262,576,4432
1644153965.001803,-0.008423,0.008179,-0.991882,0.251389,0.340763,-0.039389,52,277,572,4496
1644153965.070855,-0.012634,0.010498,-0.994019,0.281924,0.523969,-0.14626,52,273,568,4496
1644153965.10788,-0.012451,0.009094,-0.991394,0.220855,0.478168,-0.130992,52,275,579,4464
1644153965.146919,-0.011475,0.008484,-0.991272,0.312458,0.493435,-0.314198,51,269,580,4528
1644153965.195303,-0.012085,0.004883,-0.992249,0.144519,0.417099,-0.069924,52,275,570,4464
1644153965.243702,-0.01239,0.008667,-0.991272,0.281924,0.600305,0.052214,49,270,579,4480
1644153965.292079,-0.009277,0.009705,-0.992493,0.342992,0.371298,-0.25313,53,271,580,4464
1644153965.341122,-0.016174,0.010376,-0.992188,0.281924,0.401832,-0.054656,53,271,559,4576
1644153965.388865,-0.01178,0.008362,-0.98822,0.327725,0.447634,-0.176794,48,269,580,4496
1644153965.438509,-0.012329,0.007751,-0.992859,0.190321,0.417099,0.006412,51,279,571,4528
1644153965.489981,-0.011292,0.00708,-0.990601,0.373527,0.554504,-0.054656,45,277,570,4496
1644153965.539204,-0.013367,0.00946,-0.991455,0.251389,0.447634,-0.085191,48,274,566,4464
1644153965.583341,-0.012268,0.007141,-0.996155,0.251389,0.508702,-0.14626,51,274,562,4480
1644153965.67916,-0.01062,0.011108,-0.993591,0.129252,0.325496,-0.085191,46,271,562,4464
1644153965.727543,-0.013794,0.011475,-0.991455,0.388794,0.401832,0.052214,47,275,572,4496
1644153965.775922,-0.010925,0.010254,-0.991699,0.297191,0.356031,-0.008855,47,282,563,4496
1644153965.824321,-0.011658,0.009155,-0.993408,0.297191,0.478168,-0.085191,45,282,579,4528
1644153965.872733,-0.01062,0.007019,-0.991577,0.419328,0.340763,-0.115725,48,274,569,4464
1644153965.921126,-0.012756,0.009155,-0.992554,0.251389,0.508702,-0.100458,41,271,569,4576
1644153965.969509,-0.012451,0.007629,-0.994995,0.312458,0.493435,-0.100458,51,274,571,4464
1644153966.017872,-0.01239,0.005615,-0.991089,0.342992,0.493435,-0.024122,45,275,575,4432
1644153966.073989,-0.012268,0.009033,-0.991272,0.266656,0.386565,-0.069924,64,268,577,4400
1644153966.114702,-0.012756,0.007751,-0.992126,0.190321,0.401832,-0.176794,52,273,577,4416
1644153966.163038,-0.012817,0.00885,-0.990723,0.373527,0.569771,-0.283664,53,276,578,4576
1644153966.211409,-0.013916,0.011597,-0.99408,0.510931,0.371298,-0.008855,46,274,583,4592
1644153966.259768,-0.014832,0.010498,-0.991943,0.251389,0.523969,-0.130992,47,275,570,4464
1644153966.30818,-0.011963,0.008545,-0.991638,0.190321,0.539237,0.021679,55,276,583,4496
1644153966.356564,-0.012512,0.009583,-0.992737,0.251389,0.432366,-0.054656,49,275,568,4528
1644153966.405136,-0.012207,0.00708,-0.995056,0.327725,0.417099,-0.14626,57,280,579,4480
1644153966.453466,-0.015015,0.00769,-0.990662,0.281924,0.447634,0.021679,57,277,572,4432
1644153966.502195,-0.011414,0.010071,-0.991821,0.175053,0.401832,-0.085191,59,270,579,4528
1644153966.552018,-0.014282,0.009094,-0.98999,0.312458,0.386565,0.052214,49,263,572,4464
1644153966.602425,-0.009827,0.01001,-0.991882,0.46513,0.401832,-0.161527,57,280,570,4496
1644153966.652725,-0.010986,0.008911,-0.994934,0.159786,0.310229,-0.115725,46,274,576,4528
1644153966.696719,-0.011536,0.007263,-0.993408,0.190321,0.340763,0.036947,47,275,570,4432
1644153966.792009,-0.011292,0.008545,-0.992188,0.205588,0.386565,-0.100458,43,271,564,4496
1644153966.840406,-0.012268,0.007446,-0.990662,0.266656,0.554504,-0.115725,42,270,568,4528
1644153966.888829,-0.01416,0.007202,-0.992065,0.266656,0.386565,-0.14626,53,279,564,4496
1644153966.937212,-0.011353,0.008179,-0.991821,0.312458,0.340763,0.021679,52,275,565,4464
1644153966.985604,-0.011719,0.00769,-0.98938,0.220855,0.523969,-0.207328,38,270,570,4496
1644153967.034003,-0.008606,0.010254,-0.989929,0.281924,0.417099,-0.069924,48,271,571,4496
1644153967.095355,-0.009949,0.008423,-0.990112,0.251389,0.356031,-0.085191,48,274,571,4480
1644153967.130784,-0.011047,0.009216,-0.992188,0.404061,0.646107,-0.130992,36,274,573,4496
1644153967.179114,-0.013367,0.008545,-0.992676,0.159786,0.447634,-0.024122,47,270,570,4528
1644153967.227503,-0.016113,0.010376,-0.993774,0.129252,0.447634,-0.115725,52,280,572,4496
1644153967.275861,-0.015076,0.005737,-0.993774,0.129252,0.508702,-0.085191,45,273,568,4416
1644153967.324273,-0.012878,0.008179,-0.993164,0.266656,0.523969,-0.115725,43,274,578,4464
