epoch,acc_x,acc_y,acc_z,rot_x,rot_y,rot_z,mag_x,mag_y,mag_z,temp
1644156899.999792,-0.013672,0.009827,-0.992126,0.35826,0.554504,0.052214,55,271,571,5120
1644156900.096216,-0.010681,0.006714,-0.992737,0.205588,0.478168,-0.130992,48,266,573,5024
1644156900.143826,-0.011169,0.008728,-0.992065,0.312458,0.462901,-0.085191,41,271,578,5072
1644156900.192239,-0.010925,0.009277,-0.993408,0.281924,0.417099,-0.115725,51,276,566,5136
1644156900.240609,-0.007935,0.006836,-0.990601,0.327725,0.401832,-0.192061,47,277,565,5008
1644156900.289019,-0.012024,0.007751,-0.995544,0.220855,0.432366,-0.192061,52,277,568,5120
1644156900.337405,-0.013306,0.005188,-0.991943,0.220855,0.447634,-0.207328,42,280,568,5056
1644156900.385776,-0.01355,0.009827,-0.991333,0.205588,0.493435,-0.100458,62,279,580,5072
1644156900.434158,-0.01355,0.011108,-0.993286,0.144519,0.401832,-0.100458,57,273,565,5120
1644156900.482557,-0.012329,0.008362,-0.991333,0.388794,0.401832,-0.039389,47,268,568,5168
1644156900.530933,-0.009033,0.011047,-0.991882,0.098718,0.523969,-0.192061,52,270,577,5056
1644156900.579295,-0.011353,0.008179,-0.993286,0.419328,0.493435,-0.085191,57,280,577,5072
1644156900.628298,-0.012878,0.009888,-0.993408,0.175053,0.401832,-0.176794,48,271,571,5120
1644156900.678382,-0.011658,0.007751,-0.991028,0.190321,0.569771,-0.085191,48,271,569,5056
1644156900.772877,-0.010986,0.010376,-0.992798,0.251389,0.386565,-0.100458,48,276,573,5056
1644156900.821252,-0.012695,0.006836,-0.989929,0.144519,0.432366,-0.100458,38,275,565,5072
1644156900.869716,-0.012756,0.010925,-0.99176,0.266656,0.523969,-0.14626,45,277,563,5168
1644156900.918107,-0.013306,0.009521,-0.993896,0.251389,0.218626,-0.115725,43,262,564,5168
1644156900.966467,-0.011047,0.009094,-0.990601,0.190321,0.569771,-0.039389,55,276,566,5120
1644156901.01486,-0.012817,0.005798,-0.99115,0.266656,0.432366,-0.161527,55,276,576,5104
1644156901.063282,-0.011475,0.00885,-0.994019,0.236122,0.600305,-0.085191,51,279,578,5120
1644156901.111647,-0.00946,0.007324,-0.99292,0.190321,0.356031,-0.024122,38,273,568,5120
1644156901.159988,-0.010437,0.008057,-0.991028,0.342992,0.294962,-0.054656,47,275,575,5104
1644156901.208385,-0.012817,0.007019,-0.991821,0.129252,0.218626,-0.161527,59,277,570,5024
1644156901.256745,-0.012695,0.007874,-0.994568,0.342992,0.478168,0.052214,48,274,564,5104
1644156901.305176,-0.012573,0.010803,-0.992859,0.312458,0.478168,-0.024122,59,268,570,5168
1644156901.353541,-0.011841,0.006409,-0.992065,0.281924,0.310229,-0.222595,52,277,575,5056
1644156901.401929,-0.011047,0.008789,-0.993225,0.159786,0.417099,-0.039389,45,268,575,5072
1644156901.450327,-0.011292,0.011963,-0.993225,0.510931,0.615573,-0.100458,58,266,569,5168
1644156901.498692,-0.010559,0.008362,-0.994873,0.08345,0.600305,0.036947,54,270,572,5104
1644156901.547093,-0.011841,0.008057,-0.990784,0.205588,0.310229,-0.039389,49,275,563,5120
1644156901.595457,-0.011963,0.009033,-0.990601,0.327725,0.508702,-0.100458,46,271,569,5104
1644156901.643887,-0.010742,0.00885,-0.993225,0.068183,0.432366,-0.130992,57,277,579,5072
1644156901.692263,-0.013123,0.013367,-0.990112,0.052916,0.356031,-0.100458,54,268,582,5104
1644156901.740753,-0.009583,0.008789,-0.991638,0.190321,0.508702,-0.14626,52,275,577,5072
1644156901.791061,-0.011169,0.00647,-0.994019,0.205588,0.371298,-0.14626,42,285,572,5008
1644156901.885827,-0.014832,0.010193,-0.993164,0.175053,0.340763,-0.085191,47,270,563,5104
1644156901.934245,-0.01123,0.009827,-0.991272,0.388794,0.356031,-0.008855,48,274,573,5072
1644156901.982628,-0.00946,0.006775,-0.993103,0.297191,0.417099,-0.100458,57,270,565,5104
1644156902.030966,-0.011841,0.006958,-0.993774,0.266656,0.493435,-0.054656,49,260,575,5104
1644156902.079522,-0.012085,0.01123,-0.990173,0.342992,0.478168,-0.085191,55,266,569,5120
1644156902.127815,-0.009583,0.005493,-0.99176,0.175053,0.371298,-0.100458,52,273,572,5104
1644156902.176124,-0.011108,0.011475,-0.991882,0.220855,0.386565,-0.130992,46,271,562,5056
1644156902.224548,-0.010254,0.009094,-0.991699,0.068183,0.401832,-0.176794,53,271,562,5104
1644156902.272897,-0.010681,0.008484,-0.994446,0.205588,0.371298,-0.14626,48,274,580,5120
1644156902.321311,-0.010803,0.008423,-0.991028,0.251389,0.386565,-0.085191,41,274,571,5072
1644156902.369668,-0.013184,0.008301,-0.990906,0.159786,0.294962,-0.237863,45,277,570,5056
1644156902.418058,-0.009521,0.009216,-0.992188,0.419328,0.462901,-0.115725,59,268,568,5056
1644156902.466434,-0.009644,0.007996,-0.99115,0.175053,0.386565,-0.14626,58,269,566,5072
1644156902.514843,-0.010986,0.007874,-0.99231,0.251389,0.462901,-0.222595,51,271,576,5072
1644156902.563214,-0.013367,0.011353,-0.99408,0.129252,0.478168,-0.283664,47,265,570,5120
1644156902.611636,-0.012085,0.005432,-0.992065,0.205588,0.24916,-0.069924,45,277,575,5072
1644156902.660029,-0.012451,0.009155,-0.991699,0.098718,0.325496,-0.176794,46,279,562,5104
1644156902.708405,-0.013794,0.007812,-0.993286,0.144519,0.417099,-0.115725,51,269,571,5104
1644156902.756751,-0.011841,0.008972,-0.989502,0.205588,0.310229,-0.130992,47,268,577,5104
1644156902.805178,-0.010498,0.008484,-0.994324,0.236122,0.447634,-0.222595,36,274,583,5136
1644156902.853829,-0.013062,0.009521,-0.992737,0.159786,0.447634,-0.069924,52,268,570,5104
1644156902.950357,-0.007568,0.01001,-0.991089,0.388794,0.417099,0.067481,58,283,564,5104
1644156902.998753,-0.011108,0.007935,-0.992188,0.281924,0.615573,-0.085191,42,270,575,5104
1644156903.063383,-0.013367,0.008484,-0.990173,0.190321,0.325496,0.12855,48,274,578,5104
1644156903.095551,-0.011169,0.011475,-0.992126,0.327725,0.462901,-0.161527,59,270,568,5104
1644156903.143943,-0.011414,0.008728,-0.990417,0.281924,0.279695,-0.085191,41,274,576,5072
1644156903.1924,-0.012939,0.008545,-0.990417,0.220855,0.462901,-0.024122,47,270,575,5008
1644156903.240724,-0.013123,0.008972,-0.99054,0.190321,0.493435,-0.008855,51,266,571,5104
1644156903.289107,-0.010559,0.006653,-0.992493,0.266656,0.417099,-0.100458,49,273,577,5136
1644156903.337495,-0.011292,0.007935,-0.991394,0.236122,0.401832,-0.008855,49,275,582,5024
1644156903.385885,-0.014099,0.007446,-0.991028,0.327725,0.523969,-0.130992,42,273,572,5120
1644156903.434318,-0.013,0.008789,-0.99408,0.113985,0.432366,-0.115725,48,271,576,5120
1644156903.48266,-0.012695,0.007141,-0.99231,0.068183,0.508702,-0.085191,62,281,571,5168
1644156903.531029,-0.010864,0.008606,-0.99292,0.342992,0.218626,-0.207328,43,281,571,5120
1644156903.579414,-0.011475,0.008545,-0.993164,0.144519,0.447634,-0.054656,53,266,571,5056
1644156903.628858,-0.010681,0.009033,-0.992615,0.159786,0.539237,-0.069924,47,270,568,5072
1644156903.676224,-0.008728,0.008301,-0.993286,0.388794,0.493435,-0.024122,46,266,571,5104
1644156903.773,-0.010803,0.008545,-0.993958,0.220855,0.401832,-0.130992,41,271,566,5024
1644156903.821322,-0.011658,0.01123,-0.991516,0.159786,0.432366,-0.25313,53,269,578,5120
1644156903.869733,-0.010864,0.009277,-0.991821,0.297191,0.386565,-0.069924,46,274,576,5168
1644156903.91814,-0.012695,0.007141,-0.993408,0.251389,0.478168,-0.008855,41,274,576,5104
1644156903.966521,-0.012756,0.006226,-0.991638,0.220855,0.325496,-0.14626,58,279,573,5120
1644156904.014894,-0.011292,0.00946,-0.992249,0.281924,0.478168,0.067481,48,269,566,5104
1644156904.064066,-0.009888,0.010437,-0.991821,0.236122,0.462901,-0.161527,52,268,570,5184
1644156904.111652,-0.014099,0.006409,-0.993347,0.35826,0.539237,-0.054656,43,274,566,5056
1644156904.160011,-0.013062,0.007629,-0.995605,0.236122,0.279695,-0.237863,41,271,573,5024
1644156904.208427,-0.011414,0.005798,-0.993103,0.312458,0.371298,-0.14626,39,274,573,5120
1644156904.256768,-0.011963,0.008911,-0.992432,0.297191,0.432366,-0.192061,49,270,575,5104
1644156904.305194,-0.013123,0.010254,-0.99353,0.159786,0.356031,-0.069924,46,269,569,5120
1644156904.353608,-0.012085,0.009033,-0.993469,0.175053,0.462901,-0.192061,55,283,571,5104
1644156904.401959,-0.012207,0.007751,-0.992859,0.236122,0.447634,-0.085191,51,274,587,5136
1644156904.450381,-0.010803,0.007996,-0.994324,0.236122,0.340763,-0.161527,38,275,570,5024
1644156904.49872,-0.011292,0.007996,-0.992798,0.251389,0.401832,-0.176794,45,270,572,5120
1644156904.547123,-0.01239,0.007874,-0.994568,0.037649,0.340763,-0.237863,59,273,577,5056
1644156904.595543,-0.011047,0.009888,-0.989868,0.129252,0.356031,-0.192061,47,265,577,5024
1644156904.643917,-0.012024,0.00824,-0.990784,0.297191,0.264427,-0.237863,51,271,576,5136
1644156904.692315,-0.011597,0.009277,-0.992432,0.220855,0.417099,-0.207328,52,273,577,5136
1644156904.742142,-0.013489,0.009277,-0.991455,0.159786,0.462901,-0.237863,47,265,570,5072
1644156904.8375,-0.008911,0.009766,-0.993469,0.220855,0.356031,-0.100458,47,275,584,5136
1644156904.885897,-0.010071,0.010803,-0.990173,0.205588,0.401832,0.036947,49,273,568,5056
1644156904.934661,-0.011047,0.009583,-0.99231,0.251389,0.356031,-0.130992,46,281,576,5056
1644156904.982666,-0.013916,0.009277,-0.993103,0.205588,0.493435,-0.192061,48,276,571,5072
1644156905.031063,-0.010132,0.009277,-0.994873,0.098718,0.340763,-0.069924,53,271,573,5136
1644156905.079571,-0.014343,0.011169,-0.990479,0.297191,0.508702,-0.100458,39,276,562,5072
1644156905.127789,-0.01062,0.007324,-0.993042,0.098718,0.371298,-0.100458,46,281,569,5136
1644156905.176178,-0.012207,0.013306,-0.990784,0.144519,0.447634,-0.115725,52,268,586,5072
1644156905.224558,-0.012024,0.008423,-0.990784,0.175053,0.417099,-0.024122,49,277,570,5072
1644156905.272948,-0.01239,0.008972,-0.993469,0.236122,0.386565,-0.115725,57,263,568,5120
1644156905.321332,-0.009644,0.010498,-0.992859,0.312458,0.462901,0.082748,53,283,573,5056
1644156905.369742,-0.011414,0.009888,-0.990967,0.251389,0.279695,-0.085191,52,275,568,5072
1644156905.418412,-0.009521,0.007874,-0.993042,0.159786,0.401832,-0.039389,49,263,582,5072
1644156905.466492,-0.009766,0.009583,-0.98999,0.129252,0.478168,-0.085191,48,279,573,5072
1644156905.514885,-0.007446,0.00824,-0.992676,0.098718,0.462901,-0.054656,41,271,583,5072
1644156905.563309,-0.014038,0.006042,-0.992249,0.373527,0.356031,-0.130992,51,274,569,5104
1644156905.611712,-0.010864,0.008057,-0.992737,0.281924,0.417099,-0.024122,49,275,570,5056
1644156905.660043,-0.011047,0.008606,-0.99353,0.098718,0.325496,-0.008855,51,274,578,5120
1644156905.708465,-0.011475,0.010437,-0.994934,0.419328,0.371298,0.006412,58,266,580,5104
1644156905.75745,-0.012939,0.009888,-0.992004,0.175053,0.508702,-0.024122,54,273,577,5072
1644156905.806567,-0.01239,0.007935,-0.99408,0.144519,0.401832,-0.14626,51,276,571,5120
1644156905.854373,-0.011963,0.008301,-0.99353,0.281924,0.356031,-0.192061,47,275,582,5104
1644156905.950537,-0.010742,0.009705,-0.990906,0.068183,0.493435,-0.130992,54,275,577,5024
1644156905.998882,-0.012207,0.009399,-0.990601,0.190321,0.325496,-0.130992,52,277,575,5168
1644156906.051233,-0.009399,0.007385,-0.993958,0.281924,0.585038,-0.222595,52,275,575,5024
1644156906.095601,-0.010437,0.008911,-0.995667,0.175053,0.386565,-0.130992,51,279,573,5184
1644156906.143922,-0.01123,0.009338,-0.993103,0.159786,0.508702,-0.161527,49,280,572,5120
1644156906.192375,-0.013916,0.009949,-0.991943,0.08345,0.417099,-0.25313,48,283,585,5072
1644156906.240795,-0.013306,0.006897,-0.992249,0.266656,0.508702,0.021679,53,264,580,5136
1644156906.28917,-0.010559,0.005981,-0.992859,0.205588,0.386565,-0.024122,52,277,579,5136
1644156906.337556,-0.009644,0.008423,-0.992493,0.281924,0.554504,-0.115725,57,270,575,5072
1644156906.385957,-0.011902,0.007812,-0.99176,0.220855,0.371298,-0.207328,47,277,577,5056
1644156906.43433,-0.013123,0.007568,-0.99115,0.342992,0.523969,-0.039389,54,260,584,5056
1644156906.482719,-0.012939,0.009827,-0.993286,0.220855,0.386565,-0.115725,52,277,582,5072
1644156906.531105,-0.010803,0.009338,-0.992554,0.251389,0.462901,-0.069924,48,279,578,5136
1644156906.579484,-0.010315,0.009949,-0.991516,0.251389,0.478168,-0.085191,54,273,579,5104
1644156906.627917,-0.012756,0.007812,-0.99231,0.159786,0.264427,-0.115725,49,260,584,5072
1644156906.676252,-0.010864,0.008545,-0.995117,0.236122,0.493435,-0.161527,59,280,579,5136
1644156906.724982,-0.008728,0.008118,-0.992554,0.190321,0.233893,-0.085191,41,279,571,5104
1644156906.773122,-0.012695,0.007446,-0.994263,0.236122,0.523969,-0.069924,57,270,579,5104
1644156906.821572,-0.013794,0.009033,-0.993774,0.236122,0.294962,-0.115725,49,277,579,5120
1644156906.8824,-0.012695,0.010437,-0.994324,0.220855,0.432366,-0.008855,58,274,573,5104
1644156906.923791,-0.012512,0.006592,-0.993164,0.236122,0.340763,-0.115725,38,282,575,5104
1644156906.969503,-0.010132,0.011169,-0.991821,0.205588,0.417099,-0.085191,53,281,569,5200
1644156907.063689,-0.010864,0.008301,-0.993103,0.113985,0.432366,-0.039389,47,285,584,5072
1644156907.111782,-0.011292,0.006287,-0.993286,0.236122,0.417099,-0.100458,46,276,578,5168
1644156907.160033,-0.012756,0.007874,-0.995667,0.281924,0.325496,-0.100458,42,273,572,5136
1644156907.208434,-0.01123,0.008179,-0.993713,0.251389,0.432366,-0.054656,45,270,568,5072
1644156907.256818,-0.01355,0.008301,-0.989563,0.419328,0.417099,-0.054656,58,266,585,5056
1644156907.305743,-0.011841,0.00885,-0.99176,0.251389,0.401832,-0.085191,42,285,584,5072
1644156907.354367,-0.013184,0.007385,-0.99408,0.175053,0.539237,-0.024122,58,266,576,4992
1644156907.402084,-0.01532,0.007324,-0.994202,0.327725,0.371298,0.006412,52,270,582,5104
1644156907.450489,-0.01239,0.009094,-0.992371,0.144519,0.432366,0.021679,53,276,578,5136
1644156907.498889,-0.01062,0.012268,-0.991089,0.144519,0.478168,-0.192061,42,280,584,5056
1644156907.547272,-0.007874,0.00885,-0.99231,0.113985,0.356031,-0.100458,43,286,569,5104
1644156907.595553,-0.010925,0.007324,-0.994385,0.175053,0.493435,-0.039389,51,269,566,5056
1644156907.643991,-0.011475,0.008362,-0.99176,0.205588,0.417099,-0.085191,49,280,568,5168
1644156907.692374,-0.008728,0.011475,-0.99353,0.251389,0.401832,0.006412,47,282,575,5072
1644156907.740752,-0.013367,0.013062,-0.992371,0.236122,0.417099,-0.222595,48,264,564,5024
1644156907.789124,-0.009033,0.007935,-0.995544,0.205588,0.615573,-0.069924,51,276,569,5136
1644156907.837539,-0.011047,0.009155,-0.992126,0.220855,0.432366,-0.008855,53,259,583,5072
1644156907.885923,-0.012634,0.00708,-0.993286,0.175053,0.615573,-0.024122,53,269,580,5168
1644156907.934284,-0.013062,0.009888,-0.993469,0.281924,0.401832,-0.192061,53,271,583,5136
1644156907.982677,-0.013184,0.00946,-0.993225,0.159786,0.371298,-0.222595,52,275,579,5120
1644156908.03168,-0.011353,0.009094,-0.992676,0.266656,0.432366,-0.161527,48,274,573,5120
1644156908.08139,-0.013489,0.006348,-0.993652,0.175053,0.432366,-0.008855,47,275,572,5104
1644156908.17625,-0.011414,0.009705,-0.994324,0.266656,0.24916,0.006412,47,275,570,5104
1644156908.224698,-0.012268,0.006226,-0.994019,0.266656,0.417099,-0.024122,45,270,575,5104
1644156908.273057,-0.009399,0.010559,-0.9953,0.266656,0.279695,-0.14626,53,269,576,5072
1644156908.321447,-0.011169,0.006592,-0.991943,0.297191,0.447634,-0.100458,48,266,569,5104
1644156908.369823,-0.01001,0.009155,-0.993103,0.251389,0.417099,-0.100458,48,276,566,5056
1644156908.418203,-0.009338,0.010498,-0.991333,0.175053,0.356031,-0.130992,48,259,578,5136
1644156908.466618,-0.012878,0.005676,-0.990662,0.175053,0.386565,-0.085191,41,269,578,5056
1644156908.515044,-0.010925,0.009766,-0.990784,0.251389,0.371298,-0.085191,51,283,580,5072
1644156908.563379,-0.010803,0.010193,-0.994324,0.205588,0.432366,0.036947,48,276,571,5136
1644156908.611775,-0.008423,0.007996,-0.990662,0.159786,0.478168,-0.161527,43,271,571,5072
1644156908.660163,-0.012024,0.008972,-0.992371,0.342992,0.462901,-0.115725,40,282,570,5104
1644156908.708555,-0.010071,0.010803,-0.991821,0.236122,0.478168,-0.14626,54,275,579,5168
1644156908.756886,-0.01123,0.010132,-0.991089,0.281924,0.386565,-0.161527,48,276,569,5136
1644156908.805303,-0.010864,0.009216,-0.994446,0.266656,0.24916,-0.085191,52,277,568,5072
1644156908.85369,-0.01239,0.009399,-0.990173,0.159786,0.356031,-0.069924,52,273,586,5072
1644156908.902163,-0.009521,0.010681,-0.992798,0.236122,0.478168,-0.176794,61,277,582,5136
1644156908.950422,-0.013733,0.009766,-0.992371,0.190321,0.279695,-0.176794,51,271,571,5104
1644156908.998873,-0.012146,0.009338,-0.993225,0.190321,0.417099,-0.161527,43,281,578,5120
1644156909.062604,-0.011169,0.006042,-0.993042,0.236122,0.478168,0.021679,45,273,579,5072
1644156909.095667,-0.010376,0.007446,-0.993469,0.236122,0.508702,0.021679,52,282,584,5072
1644156909.144274,-0.012268,0.007874,-0.992981,0.266656,0.462901,0.036947,38,270,572,5104
1644156909.193957,-0.012146,0.008179,-0.992798,0.190321,0.279695,-0.115725,53,266,576,5072
1644156909.241692,-0.01062,0.007446,-0.994873,0.144519,0.462901,0.067481,45,275,577,5008
1644156909.337544,-0.010864,0.008911,-0.994019,0.281924,0.340763,-0.085191,54,275,575,5104
1644156909.385949,-0.01123,0.010376,-0.992859,0.266656,0.417099,-0.130992,54,270,579,5104
1644156909.434305,-0.011841,0.009216,-0.992188,0.236122,0.386565,-0.176794,52,275,565,5136
1644156909.482731,-0.012451,0.010437,-0.993225,0.281924,0.493435,-0.008855,49,268,577,5184
1644156909.531098,-0.011353,0.010132,-0.993896,0.175053,0.493435,-0.039389,52,275,572,5120
1644156909.579501,-0.013,0.007568,-0.991211,0.342992,0.417099,-0.054656,53,269,576,5168
1644156909.627866,-0.01239,0.00946,-0.992676,0.175053,0.493435,-0.085191,55,271,573,5072
1644156909.67629,-0.013062,0.00885,-0.992981,0.098718,0.371298,-0.161527,54,277,582,5056
1644156909.724657,-0.010376,0.008362,-0.992493,0.373527,0.523969,-0.008855,49,270,575,5072
1644156909.773053,-0.013245,0.010193,-0.990967,0.129252,0.478168,0.052214,36,271,580,5136
1644156909.821406,-0.011292,0.010254,-0.992798,0.190321,0.371298,-0.069924,46,274,578,5024
1644156909.869985,-0.009155,0.008667,-0.991394,0.266656,0.340763,-0.14626,58,269,569,5104
1644156909.9182,-0.010742,0.009644,-0.992065,0.08345,0.356031,-0.024122,45,270,577,5120
1644156909.966629,-0.012207,0.010376,-0.993103,0.190321,0.493435,-0.085191,49,268,579,5072
1644156910.015052,-0.013245,0.009949,-0.993042,0.113985,0.539237,-0.085191,48,269,566,5104
1644156910.075818,-0.013489,0.009888,-0.994324,0.205588,0.432366,-0.161527,47,285,575,5120
1644156910.160184,-0.009888,0.007385,-0.991333,0.190321,0.401832,-0.085191,53,276,571,5104
1644156910.208575,-0.010681,0.009399,-0.993103,0.35826,0.432366,-0.115725,59,268,568,5136
1644156910.256906,-0.01123,0.009644,-0.993774,0.08345,0.371298,-0.100458,47,277,575,5072
1644156910.305327,-0.011047,0.008423,-0.989807,0.312458,0.371298,-0.161527,41,276,576,5104
1644156910.353739,-0.012451,0.008789,-0.990601,0.236122,0.340763,-0.161527,46,264,569,5104
1644156910.402153,-0.011108,0.008545,-0.991272,0.312458,0.356031,0.006412,52,268,570,5008
1644156910.450502,-0.009888,0.009338,-0.993347,0.297191,0.600305,0.006412,62,269,578,5072
1644156910.498885,-0.013733,0.007996,-0.991821,0.190321,0.539237,-0.115725,51,274,580,5056
1644156910.547311,-0.01001,0.007019,-0.992493,0.266656,0.401832,-0.085191,49,268,572,5104
1644156910.595651,-0.014465,0.008911,-0.98999,0.236122,0.371298,-0.039389,46,269,571,5056
1644156910.644083,-0.013733,0.008545,-0.99353,0.205588,0.401832,-0.14626,66,273,572,5104
1644156910.692458,-0.011658,0.010376,-0.992737,0.190321,0.310229,-0.100458,51,281,576,5104
1644156910.740848,-0.01593,0.008667,-0.993408,0.297191,0.356031,-0.237863,45,270,575,5072
1644156910.78923,-0.008545,0.01001,-0.991516,0.159786,0.356031,-0.069924,55,274,580,5072
1644156910.837639,-0.011353,0.00824,-0.991394,0.342992,0.356031,-0.222595,61,270,582,5104
1644156910.886016,-0.010132,0.007141,-0.992615,0.236122,0.447634,-0.130992,51,274,573,5120
1644156910.934394,-0.013123,0.00708,-0.994141,0.113985,0.356031,-0.100458,58,274,578,5120
1644156910.982801,-0.012268,0.009155,-0.992493,0.266656,0.371298,-0.024122,57,280,577,5056
1644156911.031172,-0.013367,0.007202,-0.993835,0.190321,0.310229,0.021679,46,276,571,5120
1644156911.085733,-0.007263,0.009827,-0.993042,0.190321,0.508702,-0.14626,55,269,578,5120
1644156911.130028,-0.009766,0.008179,-0.992126,0.129252,0.432366,-0.222595,48,262,573,5120
1644156911.178303,-0.010376,0.006958,-0.99408,0.281924,0.462901,-0.039389,47,285,570,5120
1644156911.273113,-0.010498,0.01062,-0.991638,0.190321,0.447634,-0.176794,55,271,569,5104
1644156911.321464,-0.013062,0.010254,-0.993774,0.236122,0.356031,-0.100458,52,270,577,5120
1644156911.369902,-0.011963,0.007324,-0.99292,0.220855,0.371298,-0.024122,57,270,582,5104
1644156911.418269,-0.014099,0.007874,-0.99292,0.251389,0.356031,-0.100458,47,270,565,5008
1644156911.46666,-0.01001,0.008606,-0.989197,0.098718,0.371298,-0.085191,52,277,572,5120
1644156911.51527,-0.013794,0.008728,-0.994324,0.373527,0.493435,-0.100458,47,265,568,5104
1644156911.56345,-0.012085,0.006714,-0.992798,0.190321,0.447634,-0.085191,41,271,571,5072
1644156911.611839,-0.008972,0.007996,-0.990662,0.281924,0.432366,-0.100458,59,280,570,5056
1644156911.660237,-0.010986,0.010315,-0.992981,0.129252,0.340763,0.067481,51,271,569,5104
1644156911.708608,-0.010742,0.007874,-0.990295,0.220855,0.325496,-0.161527,45,275,570,5072
1644156911.756987,-0.009033,0.010925,-0.99408,0.251389,0.447634,-0.115725,49,275,582,5104
1644156911.805398,-0.011963,0.008423,-0.992554,0.113985,0.554504,-0.176794,43,276,564,5136
1644156911.853779,-0.013,0.006287,-0.99176,0.327725,0.432366,-0.024122,55,271,583,5104
1644156911.902179,-0.01355,0.00885,-0.991394,0.220855,0.493435,-0.024122,53,269,573,5136
1644156911.950556,-0.010986,0.006897,-0.99408,0.251389,0.401832,-0.130992,48,269,571,5056
1644156911.998929,-0.014221,0.009216,-0.993652,0.159786,0.462901,-0.024122,52,282,579,5104
1644156912.062364,-0.013062,0.010925,-0.990051,0.266656,0.325496,-0.024122,49,268,577,5024
1644156912.095721,-0.010071,0.007996,-0.992493,0.281924,0.340763,-0.130992,52,275,579,5120
1644156912.144021,-0.010742,0.011536,-0.992432,0.236122,0.24916,0.036947,53,266,576,5168
1644156912.192451,-0.010803,0.007385,-0.994141,0.327725,0.340763,-0.192061,49,277,570,5072
1644156912.240817,-0.012146,0.009399,-0.993774,0.129252,0.310229,-0.14626,48,274,580,5104
1644156912.291234,-0.01239,0.00885,-0.993286,0.236122,0.417099,-0.069924,42,277,575,5008
1644156912.338667,-0.01001,0.008606,-0.989929,0.190321,0.310229,-0.085191,48,269,583,5136
1644156912.434355,-0.011536,0.009094,-0.992126,0.236122,0.447634,-0.237863,52,270,570,5104
1644156912.482781,-0.011169,0.00946,-0.989563,0.297191,0.432366,-0.14626,54,277,572,5104
1644156912.531133,-0.011414,0.007507,-0.992126,0.175053,0.661374,-0.039389,49,277,582,5072
1644156912.579511,-0.008057,0.009277,-0.993652,0.220855,0.493435,-0.237863,48,271,571,5104
1644156912.627931,-0.009827,0.009277,-0.991333,0.266656,0.401832,-0.222595,52,277,575,5072
1644156912.676305,-0.010254,0.01001,-0.993958,0.251389,0.386565,-0.100458,47,273,586,5072
1644156912.724724,-0.010803,0.009094,-0.991943,0.220855,0.325496,-0.024122,60,279,569,5104
1644156912.773085,-0.010376,0.006531,-0.995483,0.266656,0.401832,-0.008855,49,277,577,5104
1644156912.821529,-0.011169,0.00946,-0.991333,0.220855,0.401832,-0.069924,51,266,571,5072
1644156912.869931,-0.011414,0.009949,-0.991333,0.388794,0.462901,-0.14626,48,264,580,5024
1644156912.918293,-0.010376,0.008972,-0.993042,0.327725,0.24916,-0.024122,57,280,575,5136
1644156912.966659,-0.010071,0.010132,-0.995117,0.037649,0.401832,-0.024122,54,270,565,5072
1644156913.015107,-0.010254,0.008545,-0.994812,0.251389,0.401832,-0.069924,48,274,566,5072
1644156913.078953,-0.012512,0.010986,-0.993225,0.312458,0.24916,0.006412,47,275,572,5104
1644156913.111789,-0.010925,0.009644,-0.99292,0.46513,0.264427,-0.14626,53,274,578,5120
1644156913.160163,-0.01178,0.010376,-0.993164,0.175053,0.325496,-0.039389,36,274,576,5056
1644156913.208608,-0.011902,0.007935,-0.99353,0.297191,0.401832,-0.115725,43,269,571,5072
1644156913.256968,-0.013611,0.007751,-0.993469,0.190321,0.401832,-0.024122,53,266,578,5120
1644156913.305357,-0.011902,0.008728,-0.992737,0.281924,0.325496,-0.085191,49,277,568,5072
1644156913.353735,-0.009094,0.008179,-0.993408,0.144519,0.447634,-0.161527,57,270,572,5184
1644156913.40325,-0.011902,0.009094,-0.993774,0.266656,0.462901,-0.192061,47,265,572,5072
1644156913.450846,-0.011353,0.010193,-0.993286,0.236122,0.508702,-0.054656,41,276,564,5008
1644156913.547274,-0.013184,0.010803,-0.994385,0.098718,0.401832,-0.314198,40,270,572,5008
1644156913.595645,-0.010742,0.01123,-0.994019,0.266656,0.294962,-0.085191,46,276,564,5024
1644156913.6441,-0.011108,0.00769,-0.99469,0.46513,0.340763,-0.192061,58,274,578,5120
1644156913.692477,-0.014282,0.009094,-0.993469,0.388794,0.554504,-0.161527,40,270,572,5104
1644156913.74087,-0.013977,0.010498,-0.990845,0.220855,0.478168,-0.115725,48,274,576,5168
1644156913.789242,-0.012878,0.00946,-0.990112,0.35826,0.401832,-0.14626,52,270,577,5104
1644156913.837663,-0.012024,0.007812,-0.992554,0.281924,0.539237,-0.054656,43,279,578,5104
1644156913.88608,-0.014404,0.006836,-0.991394,0.190321,0.401832,-0.085191,53,269,562,5136
1644156913.934444,-0.011292,0.005859,-0.993408,0.312458,0.386565,-0.237863,55,276,578,5120
1644156913.982835,-0.012085,0.008057,-0.994019,0.281924,0.401832,-0.039389,51,274,580,5136
1644156914.031183,-0.012329,0.008911,-0.99408,0.251389,0.585038,-0.069924,57,273,579,5056
1644156914.08001,-0.010681,0.007507,-0.993408,0.342992,0.417099,-0.008855,47,287,582,5120
1644156914.127935,-0.010864,0.00946,-0.991577,0.236122,0.386565,-0.039389,40,273,582,5168
1644156914.176338,-0.01239,0.010315,-0.992371,0.098718,0.386565,-0.039389,53,279,578,5072
1644156914.22474,-0.013672,0.006409,-0.991028,0.220855,0.325496,-0.085191,51,271,578,5072
1644156914.273138,-0.012207,0.008606,-0.98999,0.251389,0.325496,-0.039389,41,262,578,5184
1644156914.321468,-0.012573,0.010193,-0.993591,0.129252,0.493435,-0.14626,52,275,572,5168
1644156914.369895,-0.014282,0.007141,-0.993774,0.312458,0.493435,-0.069924,42,277,579,5184
1644156914.418277,-0.006653,0.006104,-0.992554,0.297191,0.554504,-0.100458,48,279,569,5104
1644156914.467218,-0.012878,0.00885,-0.991455,0.327725,0.356031,-0.176794,47,265,572,5072
1644156914.51781,-0.013672,0.009338,-0.991638,0.297191,0.462901,-0.176794,43,276,569,5120
1644156914.611822,-0.009338,0.009949,-0.994141,0.266656,0.310229,-0.039389,51,262,571,5056
1644156914.660177,-0.011047,0.007935,-0.990906,0.327725,0.447634,-0.176794,54,265,577,5168
1644156914.708614,-0.010986,0.011841,-0.991577,0.327725,0.340763,-0.024122,52,268,579,5072
1644156914.757341,-0.012634,0.007935,-0.991333,0.190321,0.356031,-0.085191,49,275,570,5104
1644156914.805359,-0.010742,0.008911,-0.989258,0.175053,0.401832,-0.069924,46,269,576,5120
1644156914.853833,-0.009705,0.009705,-0.992065,0.342992,0.340763,-0.039389,35,273,577,5120
1644156914.902245,-0.013367,0.009338,-0.992249,0.220855,0.371298,-0.176794,45,273,570,5168
1644156914.950572,-0.011292,0.010132,-0.991699,0.129252,0.417099,-0.14626,47,270,575,5104
1644156914.998974,-0.009949,0.008545,-0.990906,0.388794,0.432366,-0.283664,52,275,572,5104
1644156915.062707,-0.010498,0.008362,-0.990906,0.266656,0.264427,-0.054656,52,273,575,5104
1644156915.095725,-0.010681,0.009155,-0.993896,0.35826,0.462901,-0.100458,51,269,569,5104
1644156915.144116,-0.009155,0.007751,-0.992554,0.190321,0.310229,-0.069924,46,279,571,5072
1644156915.192519,-0.011536,0.007202,-0.993103,0.236122,0.432366,-0.130992,55,264,578,5136
1644156915.240898,-0.011475,0.008423,-0.991272,0.251389,0.401832,-0.069924,60,264,573,5104
1644156915.289241,-0.008301,0.009094,-0.990173,0.327725,0.340763,-0.161527,47,270,568,5056
1644156915.337679,-0.010864,0.008362,-0.992065,0.220855,0.462901,-0.054656,58,269,573,5104
1644156915.386063,-0.013367,0.008484,-0.991211,0.297191,0.417099,0.006412,52,263,572,5024
1644156915.434422,-0.01178,0.00885,-0.991882,0.404061,0.432366,-0.115725,61,265,572,5072
1644156915.482824,-0.010559,0.007385,-0.995239,0.144519,0.340763,-0.161527,48,264,573,5104
1644156915.531199,-0.009644,0.007996,-0.99231,0.373527,0.401832,-0.130992,39,262,566,5136
1644156915.579597,-0.01062,0.00946,-0.996826,0.297191,0.508702,-0.14626,48,274,585,5072
1644156915.629294,-0.011597,0.006226,-0.992004,0.312458,0.447634,-0.14626,53,269,576,5104
1644156915.677246,-0.010071,0.008118,-0.990234,0.35826,0.386565,-0.039389,49,282,572,5136
1644156915.773127,-0.012634,0.008667,-0.990845,0.220855,0.493435,-0.115725,45,277,568,5008
1644156915.821535,-0.008179,0.009338,-0.990479,0.08345,0.462901,-0.130992,57,265,582,5104
1644156915.869938,-0.009949,0.008911,-0.991272,0.434595,0.508702,-0.054656,52,280,570,5136
1644156915.918302,-0.010864,0.009583,-0.994019,0.281924,0.401832,-0.237863,55,279,580,5024
1644156915.966695,-0.010864,0.009033,-0.992249,0.342992,0.417099,-0.024122,43,271,573,5104
1644156916.015157,-0.009644,0.01001,-0.991394,0.297191,0.508702,-0.130992,47,277,570,5120
1644156916.063917,-0.011353,0.009033,-0.992188,0.220855,0.417099,-0.085191,59,273,582,5072
1644156916.111902,-0.010742,0.009277,-0.992004,0.068183,0.478168,-0.237863,51,274,573,5024
1644156916.160245,-0.012268,0.007874,-0.993042,0.190321,0.340763,-0.130992,54,273,577,5008
1644156916.20867,-0.011536,0.00885,-0.990601,0.266656,0.417099,-0.024122,52,270,563,5056
1644156916.25701,-0.009827,0.009705,-0.990295,0.266656,0.310229,-0.085191,53,266,583,5136
1644156916.305413,-0.010437,0.009888,-0.990845,0.373527,0.462901,-0.100458,48,269,566,5104
1644156916.353827,-0.011292,0.00769,-0.992188,0.190321,0.386565,-0.222595,51,271,573,5056
1644156916.402202,-0.011414,0.007751,-0.993347,0.037649,0.371298,0.006412,42,268,563,5104
1644156916.45059,-0.013306,0.009949,-0.992676,0.327725,0.447634,-0.069924,53,266,573,5104
1644156916.498956,-0.012146,0.009338,-0.991943,0.144519,0.417099,-0.008855,58,274,576,5072
1644156916.5473,-0.010132,0.009033,-0.991699,0.266656,0.508702,-0.115725,42,275,572,5104
1644156916.595759,-0.012573,0.013062,-0.991272,0.342992,0.539237,-0.161527,46,276,576,5104
1644156916.644134,-0.00708,0.00885,-0.993652,0.068183,0.386565,-0.039389,42,270,582,5104
1644156916.692533,-0.008362,0.010315,-0.99176,0.220855,0.340763,-0.130992,41,279,564,5136
1644156916.7409,-0.010376,0.009521,-0.993958,0.220855,0.432366,-0.085191,47,275,575,5104
1644156916.790458,-0.010681,0.011353,-0.99115,0.281924,0.401832,-0.14626,51,269,573,5136
1644156916.839384,-0.012024,0.009888,-0.991943,0.098718,0.508702,-0.130992,52,275,568,5104
1644156916.934572,-0.010132,0.010986,-0.991577,0.297191,0.539237,-0.100458,48,269,578,5056
1644156916.982943,-0.011841,0.009827,-0.992065,0.022382,0.508702,-0.085191,54,277,577,5024
1644156917.031341,-0.009949,0.00885,-0.99292,0.266656,0.432366,-0.008855,40,275,577,5056
1644156917.079779,-0.00946,0.005859,-0.993103,0.190321,0.508702,-0.085191,46,266,583,5104
1644156917.12808,-0.01062,0.009094,-0.991211,0.297191,0.310229,-0.008855,45,270,568,5104
1644156917.176449,-0.009949,0.009705,-0.991211,0.281924,0.401832,-0.039389,55,276,578,5056
1644156917.224845,-0.011169,0.008484,-0.990051,0.205588,0.447634,-0.069924,45,270,577,5104
1644156917.273232,-0.010559,0.008423,-0.992249,0.220855,0.462901,-0.085191,57,265,572,5120
1644156917.321641,-0.011719,0.010803,-0.989746,0.373527,0.447634,-0.176794,55,281,571,5120
1644156917.370017,-0.01178,0.007324,-0.990784,0.175053,0.371298,-0.222595,48,274,566,5104
1644156917.418401,-0.012756,0.008728,-0.991272,0.159786,0.447634,-0.054656,59,277,584,5168
1644156917.466767,-0.010193,0.00885,-0.992188,0.205588,0.569771,-0.237863,48,274,590,5104
1644156917.51522,-0.010925,0.007935,-0.991577,0.144519,0.340763,0.082748,54,273,575,5120
1644156917.563565,-0.012024,0.006104,-0.990662,0.113985,0.386565,-0.085191,58,271,580,5120
1644156917.611951,-0.012146,0.005981,-0.988403,0.312458,0.493435,-0.024122,54,270,586,5104
1644156917.660319,-0.011719,0.010498,-0.989807,0.312458,0.493435,-0.069924,53,283,578,5024
1644156917.708722,-0.011902,0.008911,-0.99115,0.312458,0.63084,-0.024122,40,273,575,5104
1644156917.757081,-0.010559,0.008789,-0.992798,0.220855,0.462901,-0.039389,45,270,575,5104
1644156917.805497,-0.012573,0.007996,-0.99115,0.251389,0.417099,-0.008855,53,274,585,5072
1644156917.859475,-0.012207,0.007019,-0.992371,0.113985,0.401832,-0.161527,55,274,573,5104
1644156917.915291,-0.009521,0.009583,-0.992676,0.266656,0.310229,-0.085191,51,279,585,5168
1644156917.955176,-0.011658,0.009338,-0.993042,0.159786,0.646107,-0.207328,46,274,571,5056
1644156918.052068,-0.012329,0.009216,-0.992554,0.251389,0.417099,-0.192061,58,283,573,5104
1644156918.095768,-0.009705,0.009949,-0.994507,0.373527,0.447634,-0.069924,52,277,579,5072
1644156918.144232,-0.009583,0.007812,-0.993408,0.220855,0.310229,-0.298931,52,265,575,5056
1644156918.192617,-0.009827,0.010986,-0.994141,0.129252,0.493435,-0.100458,45,275,572,5056
1644156918.240982,-0.012939,0.00769,-0.994568,0.190321,0.493435,-0.115725,51,266,578,5120
1644156918.289365,-0.01178,0.00531,-0.992615,0.098718,0.356031,-0.069924,57,273,591,5136
1644156918.337762,-0.013123,0.012207,-0.990845,0.159786,0.462901,-0.069924,45,285,570,5104
1644156918.386152,-0.010071,0.007751,-0.991028,0.068183,0.432366,-0.176794,52,275,584,5056
1644156918.434553,-0.009644,0.010132,-0.991211,0.068183,0.432366,-0.130992,53,276,578,5168
1644156918.482891,-0.010986,0.009644,-0.992859,0.266656,0.417099,-0.176794,51,279,578,5056
1644156918.531295,-0.009521,0.009766,-0.992249,0.205588,0.340763,-0.024122,54,277,582,5104
1644156918.579699,-0.010437,0.008423,-0.994568,0.236122,0.554504,-0.069924,55,276,576,5008
1644156918.628093,-0.00946,0.009155,-0.991089,0.312458,0.340763,0.006412,41,283,585,5120
1644156918.676483,-0.011475,0.009033,-0.99353,0.205588,0.493435,-0.024122,52,270,575,5024
1644156918.724917,-0.010376,0.007812,-0.992737,0.236122,0.340763,-0.039389,41,271,573,5056
1644156918.773341,-0.010986,0.010803,-0.992554,0.281924,0.417099,-0.100458,54,277,577,5072
1644156918.821713,-0.01001,0.008972,-0.990601,0.220855,0.539237,-0.039389,52,282,582,5136
1644156918.875312,-0.011353,0.007385,-0.990662,0.205588,0.310229,-0.100458,51,281,578,5120
1644156918.925303,-0.010071,0.007812,-0.992798,0.190321,0.508702,-0.069924,49,270,582,5168
1644156918.972745,-0.010986,0.005249,-0.992798,0.175053,0.340763,-0.14626,55,271,571,5072
1644156919.065031,-0.011047,0.008057,-0.99231,0.480397,0.340763,-0.100458,53,281,573,5120
1644156919.111966,-0.011841,0.008667,-0.994629,0.236122,0.523969,-0.039389,57,263,584,5120
1644156919.160379,-0.010925,0.008118,-0.992249,0.342992,0.508702,-0.069924,49,277,577,5072
1644156919.208731,-0.010315,0.007629,-0.993164,0.281924,0.462901,-0.192061,59,270,586,5120
1644156919.257135,-0.01123,0.009094,-0.993896,0.220855,0.371298,-0.161527,47,268,584,5104
1644156919.305558,-0.013977,0.008545,-0.991882,0.236122,0.294962,0.006412,49,268,575,5120
1644156919.353919,-0.012268,0.011169,-0.991394,0.144519,0.294962,-0.100458,53,274,569,5072
1644156919.402299,-0.011475,0.011414,-0.992432,0.297191,0.447634,0.052214,62,274,583,5008
1644156919.450708,-0.010559,0.012329,-0.991516,0.175053,0.356031,-0.085191,49,268,582,5168
1644156919.499092,-0.009338,0.010864,-0.991638,0.175053,0.325496,0.006412,52,270,577,5168
1644156919.547462,-0.010559,0.011108,-0.991699,0.327725,0.371298,-0.237863,41,266,571,5120
1644156919.595842,-0.011536,0.009888,-0.990417,0.297191,0.478168,-0.176794,53,271,569,5136
1644156919.644267,-0.009033,0.013794,-0.990112,0.205588,0.310229,-0.222595,43,276,578,5120
1644156919.692614,-0.011047,0.00824,-0.990784,0.35826,0.478168,-0.115725,46,271,569,5024
1644156919.74103,-0.009277,0.009216,-0.991821,0.266656,0.401832,-0.344733,46,271,576,5136
1644156919.789411,-0.008362,0.008728,-0.993042,0.297191,0.462901,-0.14626,36,269,564,5120
1644156919.837798,-0.010315,0.00885,-0.992188,0.129252,0.264427,-0.100458,49,260,570,5136
1644156919.886113,-0.011536,0.007812,-0.993896,0.205588,0.508702,-0.069924,48,276,590,5072
1644156919.934606,-0.010437,0.007263,-0.991211,0.236122,0.417099,-0.008855,47,265,582,5104
1644156919.995306,-0.010742,0.010437,-0.990967,0.159786,0.340763,0.021679,51,262,583,5136
1644156920.062918,-0.010925,0.008057,-0.992859,0.098718,0.508702,-0.024122,47,275,586,5072
1644156920.083749,-0.009827,0.011414,-0.991638,0.342992,0.493435,-0.130992,53,281,580,5104
1644156920.176519,-0.011658,0.008972,-0.9953,0.281924,0.356031,-0.085191,52,273,575,5024
1644156920.224905,-0.008484,0.006592,-0.990967,0.175053,0.447634,-0.130992,47,277,579,5072
1644156920.273453,-0.011597,0.006653,-0.993225,0.327725,0.432366,-0.176794,55,269,576,5072
1644156920.321663,-0.008911,0.010132,-0.99292,0.236122,0.447634,-0.008855,55,271,580,5104
1644156920.370025,-0.010376,0.008972,-0.993408,0.342992,0.340763,-0.054656,59,273,584,5072
1644156920.418813,-0.013062,0.009277,-0.993042,0.297191,0.310229,-0.130992,47,268,572,5104
1644156920.466873,-0.013123,0.010132,-0.990906,0.220855,0.401832,0.067481,51,262,578,5120
1644156920.515219,-0.012573,0.006653,-0.991272,0.052916,0.386565,0.006412,52,277,586,5056
1644156920.563568,-0.011536,0.007812,-0.993042,0.404061,0.371298,-0.085191,53,274,583,5072
1644156920.611941,-0.009521,0.009155,-0.991882,0.205588,0.432366,-0.161527,52,275,565,5136
1644156920.660336,-0.012817,0.009155,-0.991333,0.388794,0.386565,-0.085191,43,274,569,5120
1644156920.70872,-0.011047,0.00885,-0.988647,0.297191,0.493435,0.006412,48,276,583,5056
1644156920.757078,-0.009827,0.010376,-0.99231,0.190321,0.356031,-0.024122,53,276,580,5136
1644156920.805486,-0.010193,0.010742,-0.994446,0.175053,0.478168,-0.161527,55,276,578,5120
1644156920.85388,-0.01123,0.008484,-0.992737,0.037649,0.462901,-0.176794,46,281,580,5104
1644156920.902302,-0.010071,0.010803,-0.988525,0.35826,0.386565,-0.14626,46,281,573,5120
1644156920.951277,-0.009521,0.010681,-0.989502,0.281924,0.386565,-0.176794,46,279,576,5184
1644156921.000145,-0.011169,0.01178,-0.990845,0.144519,0.462901,-0.024122,52,275,575,5136
1644156921.066978,-0.010559,0.007812,-0.990417,0.251389,0.493435,-0.14626,53,270,579,5056
1644156921.106785,-0.009705,0.007935,-0.990784,0.297191,0.386565,-0.176794,51,276,583,5104
1644156921.151216,-0.012268,0.009888,-0.992798,0.251389,0.539237,-0.237863,52,270,584,5136
1644156921.192653,-0.012878,0.008911,-0.991089,0.35826,0.447634,-0.115725,43,271,573,5104
1644156921.289354,-0.010498,0.010254,-0.989868,0.281924,0.417099,-0.039389,42,275,577,5072
1644156921.337769,-0.008484,0.007812,-0.990051,0.297191,0.417099,-0.237863,41,276,576,5056
1644156921.386173,-0.012329,0.006958,-0.992676,0.342992,0.508702,-0.161527,47,280,572,5072
1644156921.434615,-0.011963,0.008667,-0.99054,0.144519,0.294962,0.006412,53,271,573,5056
1644156921.482982,-0.01123,0.008606,-0.991516,0.312458,0.325496,-0.207328,52,275,584,5072
1644156921.531356,-0.009705,0.009521,-0.992004,0.266656,0.401832,-0.161527,47,270,582,5120
1644156921.579715,-0.010315,0.00824,-0.991821,0.175053,0.371298,-0.069924,57,273,570,5136
1644156921.628126,-0.01001,0.01178,-0.990723,0.297191,0.462901,-0.085191,59,275,579,5120
1644156921.67652,-0.012085,0.010254,-0.993225,0.266656,0.447634,-0.115725,42,275,572,5072
1644156921.724908,-0.010437,0.011047,-0.990967,0.190321,0.401832,0.006412,57,273,579,5072
1644156921.773305,-0.012024,0.008545,-0.993835,0.251389,0.432366,0.006412,47,268,572,5104
1644156921.821672,-0.010254,0.010193,-0.994995,0.297191,0.462901,-0.054656,47,270,577,5120
1644156921.870055,-0.010864,0.012451,-0.992493,0.35826,0.356031,-0.329466,51,269,573,5072
1644156921.918424,-0.013306,0.006775,-0.990295,0.373527,0.325496,-0.207328,52,277,577,5168
1644156921.966844,-0.012756,0.010254,-0.992432,0.266656,0.447634,-0.039389,59,277,577,5104
1644156922.015226,-0.012024,0.008545,-0.992493,0.327725,0.478168,0.006412,65,271,571,4992
1644156922.087188,-0.011841,0.009644,-0.992004,0.236122,0.371298,-0.069924,60,276,571,5104
1644156922.160389,-0.013794,0.008911,-0.99231,0.175053,0.386565,-0.192061,48,269,569,5072
1644156922.208731,-0.008484,0.008789,-0.992188,0.113985,0.523969,-0.069924,54,277,570,4992
1644156922.25711,-0.012573,0.007812,-0.992126,0.205588,0.371298,-0.192061,47,275,575,5008
1644156922.305502,-0.008057,0.007385,-0.991882,0.281924,0.432366,-0.130992,46,283,585,5104
1644156922.353907,-0.015076,0.01001,-0.992615,0.281924,0.356031,-0.14626,47,270,575,5072
1644156922.402301,-0.011658,0.007202,-0.990295,0.281924,0.508702,-0.085191,49,273,579,5168
1644156922.450684,-0.01062,0.011841,-0.990417,0.297191,0.401832,-0.054656,60,276,573,5104
1644156922.499041,-0.010864,0.008789,-0.99176,0.159786,0.462901,-0.207328,53,279,580,5056
1644156922.547459,-0.009644,0.007202,-0.991211,0.098718,0.493435,-0.14626,57,263,575,5056
1644156922.595847,-0.010437,0.009155,-0.989441,0.220855,0.539237,0.006412,43,274,580,5104
1644156922.644217,-0.010681,0.00946,-0.992249,0.236122,0.356031,-0.14626,54,268,561,5136
1644156922.692647,-0.008606,0.008362,-0.98999,0.312458,0.432366,-0.283664,54,273,582,5104
1644156922.741007,-0.011963,0.006897,-0.990723,0.297191,0.569771,-0.085191,45,270,570,5104
1644156922.789394,-0.01123,0.007996,-0.990356,0.175053,0.401832,-0.237863,52,273,584,5104
1644156922.837824,-0.011353,0.009338,-0.992065,0.251389,0.432366,-0.161527,48,276,573,5072
1644156922.88622,-0.013428,0.008301,-0.992249,0.129252,0.310229,-0.085191,59,270,572,5056
1644156922.935474,-0.013306,0.008301,-0.992188,0.220855,0.340763,-0.14626,47,270,577,5136
1644156922.983583,-0.009399,0.009338,-0.989929,0.35826,0.432366,-0.069924,51,269,580,5104
1644156923.034734,-0.010925,0.008118,-0.992249,0.236122,0.401832,-0.069924,49,277,572,5104
1644156923.093892,-0.009155,0.011292,-0.992493,0.35826,0.310229,0.052214,54,275,577,5168
1644156923.135058,-0.009033,0.010193,-0.995911,0.220855,0.371298,-0.130992,47,270,575,5120
1644156923.182179,-0.00824,0.007507,-0.990417,0.205588,0.523969,0.021679,53,266,569,5056
1644156923.226061,-0.011963,0.010193,-0.991638,0.404061,0.401832,-0.069924,57,280,575,5136
1644156923.321641,-0.011963,0.008423,-0.990112,0.205588,0.417099,-0.054656,55,266,569,5168
1644156923.370031,-0.011292,0.011475,-0.993896,0.175053,0.310229,0.006412,49,273,572,5008
1644156923.418442,-0.014343,0.010437,-0.994934,0.266656,0.508702,-0.054656,48,286,573,5072
1644156923.46683,-0.010559,0.009827,-0.991333,0.312458,0.356031,-0.237863,58,271,569,5120
1644156923.515212,-0.012329,0.008911,-0.991272,0.144519,0.478168,0.006412,54,280,584,5136
1644156923.563611,-0.010193,0.006714,-0.990967,0.220855,0.417099,0.036947,48,269,576,5136
1644156923.611996,-0.013428,0.01001,-0.992371,0.281924,0.340763,-0.085191,52,265,570,5072
1644156923.660421,-0.012329,0.00647,-0.993591,0.373527,0.417099,0.082748,52,275,579,5008
1644156923.70876,-0.009949,0.011414,-0.992798,0.220855,0.462901,-0.100458,51,274,571,5072
1644156923.757148,-0.012146,0.01001,-0.991455,0.159786,0.279695,-0.222595,51,269,571,5120
1644156923.805547,-0.011353,0.010864,-0.992615,0.129252,0.401832,0.006412,54,275,577,5056
1644156923.853994,-0.011047,0.011658,-0.9953,0.251389,0.432366,-0.14626,51,274,576,5104
1644156923.902355,-0.012024,0.010437,-0.990845,0.281924,0.356031,-0.054656,61,270,582,5072
1644156923.950758,-0.012756,0.007812,-0.993835,0.312458,0.386565,-0.298931,51,252,583,5072
1644156924.00291,-0.009521,0.007385,-0.993042,0.35826,0.386565,-0.115725,42,268,586,5136
1644156924.051066,-0.010498,0.009155,-0.992249,0.312458,0.600305,-0.176794,52,265,579,5104
1644156924.096269,-0.011536,0.009766,-0.993225,0.220855,0.279695,-0.115725,49,282,579,5072
1644156924.144379,-0.012695,0.013062,-0.98999,0.175053,0.325496,-0.100458,49,263,577,5104
1644156924.192742,-0.011719,0.008423,-0.99176,0.190321,0.310229,-0.069924,57,275,582,5072
1644156924.245362,-0.011536,0.009094,-0.990601,0.297191,0.493435,-0.085191,49,273,582,5136
1644156924.29532,-0.009644,0.008789,-0.992493,0.190321,0.447634,-0.069924,59,273,577,5120
1644156924.344414,-0.011353,0.012268,-0.992371,0.205588,0.508702,-0.085191,52,273,575,5008
1644156924.434822,-0.009644,0.013306,-0.994812,0.342992,0.523969,0.036947,59,273,579,5072
1644156924.48301,-0.009949,0.009766,-0.989441,0.266656,0.401832,-0.085191,54,282,577,5136
1644156924.531329,-0.009277,0.007141,-0.990906,0.251389,0.356031,-0.161527,53,271,576,5104
1644156924.579762,-0.009766,0.010925,-0.989136,0.159786,0.447634,-0.14626,49,265,575,5136
1644156924.628136,-0.009766,0.010559,-0.98999,0.052916,0.478168,-0.176794,51,271,573,5104
1644156924.676543,-0.010437,0.010315,-0.993103,0.297191,0.386565,-0.130992,49,277,577,5104
1644156924.724918,-0.012146,0.008911,-0.993713,0.205588,0.325496,-0.054656,47,273,572,5136
1644156924.773312,-0.008972,0.010376,-0.993713,0.220855,0.447634,-0.115725,53,276,566,5104
1644156924.821704,-0.010498,0.00647,-0.990662,0.297191,0.325496,-0.192061,55,271,576,5072
1644156924.870122,-0.012756,0.006226,-0.991333,0.251389,0.325496,-0.085191,53,279,585,5136
1644156924.918499,-0.011475,0.01123,-0.99231,0.312458,0.417099,0.113282,60,271,583,5104
1644156924.966885,-0.013733,0.008667,-0.991821,0.449863,0.478168,-0.024122,45,280,577,5136
1644156925.015252,-0.01001,0.007629,-0.993164,0.35826,0.432366,-0.054656,49,268,577,5184
1644156925.069257,-0.012512,0.008728,-0.991638,0.190321,0.310229,0.067481,47,268,582,5056
1644156925.112046,-0.013123,0.009094,-0.992493,0.159786,0.478168,-0.14626,49,265,584,5120
1644156925.160382,-0.010437,0.009277,-0.992981,0.312458,0.340763,-0.100458,49,280,586,5136
1644156925.208808,-0.011719,0.01062,-0.991089,0.236122,0.478168,0.067481,59,275,582,5008
1644156925.25715,-0.009644,0.011292,-0.99292,0.266656,0.508702,-0.207328,47,265,572,5136
1644156925.305543,-0.009399,0.009888,-0.992737,0.251389,0.417099,-0.130992,39,286,583,5136
1644156925.353968,-0.010498,0.009521,-0.992676,0.251389,0.432366,-0.192061,52,268,565,5104
1644156925.402946,-0.011597,0.006958,-0.991821,0.129252,0.539237,-0.161527,53,274,571,5072
1644156925.453243,-0.009949,0.008484,-0.992249,0.113985,0.432366,-0.130992,53,276,571,5072
1644156925.548977,-0.013184,0.00769,-0.99231,0.175053,0.462901,-0.100458,46,279,573,5168
1644156925.595907,-0.009338,0.00885,-0.991577,0.220855,0.401832,-0.207328,45,273,570,5120
1644156925.644352,-0.011169,0.007996,-0.991394,0.373527,0.356031,-0.14626,61,273,570,5120
1644156925.692731,-0.009888,0.010986,-0.99231,0.220855,0.401832,-0.25313,45,265,575,5120
1644156925.741133,-0.010864,0.009644,-0.992554,0.144519,0.417099,-0.054656,49,280,584,5104
1644156925.789482,-0.009338,0.007446,-0.991821,0.220855,0.554504,-0.130992,55,281,578,5136
1644156925.837884,-0.009949,0.010437,-0.992126,0.266656,0.325496,0.036947,52,285,575,5184
1644156925.886267,-0.010681,0.008728,-0.992493,0.251389,0.371298,-0.115725,45,268,579,5072
1644156925.934685,-0.009888,0.009949,-0.99115,0.373527,0.432366,-0.237863,47,275,570,5104
1644156925.983065,-0.01355,0.007507,-0.991943,0.236122,0.447634,-0.115725,45,285,579,5136
1644156926.031469,-0.011414,0.010315,-0.991272,0.220855,0.356031,0.052214,49,270,565,5072
1644156926.081156,-0.011475,0.010986,-0.992798,0.327725,0.615573,0.067481,60,279,573,5024
1644156926.12823,-0.009338,0.010986,-0.991638,0.251389,0.417099,-0.268397,55,271,562,5072
1644156926.176596,-0.012451,0.00824,-0.993469,0.251389,0.401832,-0.008855,48,281,571,5136
1644156926.225037,-0.012512,0.005615,-0.990967,0.251389,0.493435,-0.039389,52,273,582,5104
1644156926.273359,-0.012268,0.00885,-0.990723,0.205588,0.386565,-0.130992,47,277,575,5072
1644156926.321737,-0.010742,0.009705,-0.991333,0.220855,0.462901,-0.008855,42,273,575,5104
1644156926.370326,-0.009216,0.008911,-0.989685,0.144519,0.523969,-0.176794,49,270,575,5120
1644156926.420744,-0.010681,0.01123,-0.991272,0.175053,0.447634,-0.115725,42,263,570,5072
1644156926.468135,-0.010254,0.010193,-0.991089,0.312458,0.493435,-0.024122,41,266,573,5104
1644156926.563721,-0.008057,0.008423,-0.990173,0.46513,0.340763,-0.024122,40,280,572,5120
1644156926.612073,-0.012695,0.009216,-0.992065,0.281924,0.340763,0.052214,49,268,579,5104
1644156926.660473,-0.010498,0.008057,-0.991272,0.190321,0.554504,-0.008855,60,271,562,5136
1644156926.709388,-0.013184,0.008606,-0.993286,0.220855,0.432366,-0.039389,54,273,579,5120
1644156926.757225,-0.013733,0.010376,-0.991638,0.35826,0.539237,-0.207328,42,270,572,5136
1644156926.805662,-0.010986,0.008911,-0.991882,0.190321,0.462901,-0.054656,55,269,576,5072
1644156926.854037,-0.008667,0.01178,-0.989807,0.098718,0.462901,-0.100458,48,274,562,5072
1644156926.902462,-0.010315,0.010864,-0.991089,0.190321,0.371298,0.052214,60,274,566,5056
1644156926.95081,-0.010437,0.010254,-0.991699,0.35826,0.462901,-0.024122,52,263,570,5072
1644156926.999163,-0.010986,0.008179,-0.990295,0.312458,0.310229,0.036947,51,271,578,5056
1644156927.061015,-0.010803,0.007446,-0.991272,0.175053,0.523969,-0.130992,57,273,575,5104
1644156927.096003,-0.010193,0.009766,-0.992493,0.312458,0.401832,-0.115725,55,259,573,5072
1644156927.144349,-0.010559,0.008728,-0.993774,0.281924,0.478168,-0.054656,48,283,585,5024
1644156927.192737,-0.01123,0.007324,-0.989746,0.251389,0.478168,-0.024122,61,275,579,5056
1644156927.241163,-0.012085,0.008179,-0.993164,0.175053,0.447634,-0.115725,49,277,582,5072
1644156927.289468,-0.009033,0.011597,-0.992432,0.113985,0.523969,-0.115725,45,263,572,5168
1644156927.337923,-0.009827,0.01123,-0.993164,0.373527,0.417099,-0.237863,49,270,579,5072
1644156927.386278,-0.011963,0.009216,-0.992615,0.236122,0.417099,-0.024122,49,270,579,5072
1644156927.434953,-0.013794,0.010437,-0.994019,0.052916,0.325496,-0.115725,46,257,580,5072
1644156927.485549,-0.011719,0.010498,-0.991638,0.342992,0.478168,-0.176794,57,275,575,5072
1644156927.532799,-0.01178,0.009277,-0.990417,0.205588,0.569771,-0.176794,52,270,570,5184
1644156927.628286,-0.009949,0.009888,-0.991028,0.404061,0.462901,-0.054656,55,266,580,5120
1644156927.676662,-0.011902,0.009949,-0.992493,0.190321,0.386565,-0.268397,38,275,584,5136
1644156927.725112,-0.010498,0.009216,-0.992371,0.159786,0.462901,-0.039389,42,268,582,5072
1644156927.773436,-0.012329,0.007996,-0.990906,0.190321,0.478168,-0.085191,54,273,579,5120
1644156927.821814,-0.009888,0.00946,-0.993469,0.297191,0.417099,-0.130992,58,276,587,5120
1644156927.870203,-0.011963,0.007996,-0.994202,0.022382,0.554504,-0.207328,57,270,582,5072
1644156927.91858,-0.009277,0.011719,-0.990784,0.281924,0.432366,-0.161527,58,266,585,5120
1644156927.966975,-0.013,0.007996,-0.991577,0.236122,0.386565,-0.115725,53,271,583,5008
1644156928.015373,-0.010193,0.00885,-0.988159,0.08345,0.340763,-0.100458,49,275,577,5104
1644156928.063818,-0.010254,0.010315,-0.990845,0.129252,0.447634,-0.054656,53,281,580,5104
1644156928.112215,-0.009583,0.010498,-0.990173,0.297191,0.447634,-0.008855,47,277,575,5168
1644156928.160528,-0.01178,0.011658,-0.992249,0.220855,0.401832,-0.054656,55,271,566,5072
1644156928.208893,-0.009094,0.011292,-0.989746,0.342992,0.417099,-0.008855,45,273,579,5024
1644156928.25731,-0.013123,0.007935,-0.990784,0.251389,0.539237,-0.176794,57,275,589,5072
1644156928.306029,-0.010498,0.00824,-0.99292,0.266656,0.340763,-0.115725,49,275,579,5056
1644156928.354112,-0.01239,0.010559,-0.989319,0.251389,0.417099,-0.237863,53,271,576,5136
1644156928.402497,-0.010498,0.006836,-0.993347,0.205588,0.417099,-0.039389,45,273,572,5104
1644156928.450819,-0.008667,0.009766,-0.990112,0.08345,0.432366,-0.069924,53,271,571,5104
1644156928.499289,-0.011353,0.00769,-0.992554,0.35826,0.417099,-0.024122,57,282,575,5072
1644156928.553235,-0.010254,0.009094,-0.989136,0.251389,0.478168,0.021679,46,266,578,5072
1644156928.60129,-0.013062,0.010498,-0.991333,0.236122,0.340763,-0.14626,51,281,578,5104
1644156928.692837,-0.011169,0.008301,-0.992188,0.251389,0.462901,-0.039389,45,275,589,5056
1644156928.741162,-0.010559,0.006897,-0.992249,0.266656,0.615573,-0.069924,48,269,576,5104
1644156928.789565,-0.012512,0.009521,-0.993103,0.388794,0.432366,-0.100458,59,268,582,5168
1644156928.837977,-0.012695,0.010315,-0.992493,0.220855,0.340763,-0.024122,52,277,579,5104
1644156928.886337,-0.011841,0.009827,-0.992554,0.236122,0.432366,-0.069924,58,276,573,5104
1644156928.934801,-0.011047,0.00824,-0.992188,0.220855,0.356031,-0.054656,48,274,580,5120
1644156928.983113,-0.010254,0.008423,-0.992188,0.220855,0.386565,0.006412,64,275,577,5056
1644156929.031564,-0.010742,0.009705,-0.989929,0.08345,0.264427,-0.115725,55,274,571,5104
1644156929.08481,-0.011169,0.01001,-0.992737,0.175053,0.676641,-0.069924,57,277,582,5072
1644156929.128241,-0.011047,0.01062,-0.991333,0.175053,0.401832,-0.14626,53,271,590,5104
1644156929.176662,-0.011047,0.008118,-0.993347,0.159786,0.371298,-0.283664,49,273,577,5104
1644156929.225139,-0.011475,0.008789,-0.990906,0.266656,0.233893,-0.054656,54,280,575,5024
1644156929.273457,-0.010681,0.012329,-0.992798,0.144519,0.417099,-0.085191,48,286,587,5072
1644156929.321857,-0.011536,0.009705,-0.99115,0.220855,0.508702,-0.130992,57,285,575,5072
1644156929.370239,-0.010681,0.010315,-0.993408,0.205588,0.401832,0.036947,43,276,576,5168
1644156929.418647,-0.01123,0.009338,-0.990662,0.159786,0.417099,0.067481,40,268,575,4992
1644156929.467012,-0.009705,0.008606,-0.988831,0.113985,0.401832,-0.237863,48,276,580,5072
1644156929.515448,-0.009155,0.011719,-0.991028,0.312458,0.386565,-0.024122,47,275,575,5072
1644156929.564875,-0.010193,0.009583,-0.99176,0.342992,0.447634,-0.069924,54,275,579,5008
1644156929.625312,-0.011597,0.01062,-0.994446,0.159786,0.356031,-0.069924,47,273,575,5120
1644156929.665166,-0.01001,0.00769,-0.991821,0.129252,0.294962,-0.130992,52,277,565,5120
1644156929.757355,-0.011475,0.008545,-0.991699,0.159786,0.493435,-0.054656,47,268,568,5120
1644156929.805721,-0.011169,0.009399,-0.992737,0.251389,0.310229,-0.130992,49,273,579,5136
1644156929.854116,-0.011841,0.009338,-0.993225,0.098718,0.340763,-0.237863,54,280,568,5056
1644156929.90248,-0.00824,0.010986,-0.992004,0.220855,0.478168,-0.100458,53,259,566,5104
1644156929.950891,-0.010437,0.00769,-0.989929,0.281924,0.432366,-0.130992,46,281,573,5184
1644156929.999286,-0.009949,0.007812,-0.990234,0.159786,0.386565,-0.085191,55,288,580,5184
1644156930.051254,-0.012329,0.011108,-0.992798,0.129252,0.478168,0.067481,41,266,571,5104
1644156930.097753,-0.01062,0.009338,-0.994446,0.373527,0.447634,0.021679,52,277,570,5072
1644156930.144444,-0.013123,0.009521,-0.989563,0.251389,0.371298,-0.176794,54,265,575,5056
1644156930.192819,-0.008362,0.011047,-0.99115,0.205588,0.447634,-0.085191,51,274,573,5104
1644156930.241202,-0.010498,0.009949,-0.991211,0.281924,0.554504,-0.298931,49,275,572,5168
1644156930.289598,-0.011536,0.008057,-0.988525,0.434595,0.401832,-0.130992,61,263,582,5072
1644156930.337979,-0.013855,0.007935,-0.98938,0.373527,0.356031,-0.024122,45,277,575,5104
1644156930.386365,-0.011353,0.009827,-0.993286,0.297191,0.447634,-0.130992,58,274,576,5136
1644156930.434849,-0.011841,0.005798,-0.992737,0.35826,0.462901,-0.130992,53,274,569,5104
1644156930.483185,-0.012207,0.007019,-0.993713,0.266656,0.203359,-0.344733,57,275,568,5120
1644156930.531529,-0.013367,0.012207,-0.990295,0.159786,0.478168,-0.054656,46,276,578,5072
1644156930.579954,-0.012329,0.009644,-0.992676,0.342992,0.478168,-0.14626,55,274,571,5136
1644156930.62835,-0.009827,0.009338,-0.993713,0.144519,0.432366,-0.283664,46,274,578,5104
1644156930.682345,-0.009216,0.009949,-0.98938,0.220855,0.432366,-0.115725,51,271,571,5104
1644156930.735313,-0.009094,0.009888,-0.992737,0.205588,0.340763,0.021679,52,280,577,5056
1644156930.779771,-0.012207,0.009705,-0.992065,0.281924,0.417099,-0.085191,49,280,579,5104
1644156930.870265,-0.010193,0.008362,-0.99054,0.251389,0.294962,-0.115725,48,281,569,5104
1644156930.918595,-0.011169,0.008789,-0.991699,0.068183,0.356031,-0.130992,61,285,565,5024
1644156930.967171,-0.010864,0.00824,-0.991577,0.159786,0.462901,-0.085191,54,270,575,5104
1644156931.015298,-0.010437,0.009338,-0.991394,0.327725,0.417099,-0.130992,46,288,583,5120
1644156931.063865,-0.012939,0.008728,-0.99408,0.266656,0.432366,-0.130992,49,265,575,5120
1644156931.112187,-0.01239,0.007507,-0.990845,0.220855,0.508702,-0.115725,47,277,570,5072
1644156931.160509,-0.010925,0.006531,-0.989624,0.281924,0.401832,-0.130992,45,270,582,5104
1644156931.20891,-0.011841,0.007568,-0.991699,0.113985,0.569771,-0.039389,53,274,564,5072
1644156931.257288,-0.010925,0.007507,-0.991394,0.236122,0.401832,-0.130992,53,269,569,5120
1644156931.30567,-0.014038,0.010986,-0.993042,0.113985,0.417099,0.082748,60,271,573,5104
1644156931.354084,-0.008667,0.009216,-0.99176,0.220855,0.523969,-0.039389,47,268,575,5072
1644156931.402466,-0.009827,0.008789,-0.992554,0.251389,0.401832,-0.207328,43,269,566,5056
1644156931.450837,-0.010437,0.008972,-0.992554,0.251389,0.417099,-0.283664,53,276,569,5024
1644156931.49924,-0.013184,0.008728,-0.996094,0.220855,0.554504,-0.039389,43,262,576,5104
1644156931.547605,-0.008972,0.00769,-0.994263,0.129252,0.371298,-0.100458,48,276,569,5104
1644156931.595985,-0.011414,0.009399,-0.992004,0.205588,0.294962,-0.161527,41,274,580,5104
1644156931.64439,-0.011108,0.01062,-0.993408,0.297191,0.356031,0.021679,53,276,580,5136
1644156931.692789,-0.010498,0.010925,-0.992371,0.236122,0.356031,-0.085191,46,276,573,5168
1644156931.741173,-0.012573,0.009094,-0.993225,0.281924,0.401832,-0.115725,49,273,570,5104
1644156931.789874,-0.011475,0.010376,-0.990906,0.236122,0.356031,-0.054656,53,279,580,5104
1644156931.840159,-0.010071,0.007202,-0.989868,0.342992,0.401832,-0.161527,48,274,578,5168
1644156931.890432,-0.012024,0.006897,-0.991638,0.373527,0.462901,-0.130992,54,265,577,5072
1644156931.936119,-0.011536,0.00946,-0.990662,0.35826,0.554504,-0.314198,40,268,572,5072
1644156932.031503,-0.009399,0.009277,-0.991577,0.251389,0.401832,-0.039389,49,263,579,5104
1644156932.081568,-0.008667,0.011047,-0.991455,0.312458,0.462901,0.052214,46,276,576,5024
1644156932.128311,-0.010864,0.007812,-0.989563,0.297191,0.478168,-0.192061,47,277,570,5136
1644156932.176655,-0.011963,0.01062,-0.993713,0.175053,0.417099,-0.069924,54,275,579,5104
1644156932.225087,-0.010742,0.01001,-0.991943,0.220855,0.401832,-0.054656,41,274,576,5104
1644156932.273415,-0.010864,0.007996,-0.992737,0.220855,0.417099,0.052214,59,273,584,5072
1644156932.32183,-0.012329,0.009766,-0.993408,0.327725,0.371298,-0.115725,46,276,573,5056
1644156932.370218,-0.011902,0.008606,-0.992126,0.281924,0.401832,0.052214,48,271,573,5056
1644156932.418605,-0.013733,0.008728,-0.994568,0.266656,0.417099,-0.161527,48,279,571,5168
1644156932.466988,-0.012146,0.006348,-0.994202,0.175053,0.432366,-0.14626,45,280,572,5072
1644156932.51536,-0.014404,0.008118,-0.990173,0.327725,0.447634,-0.069924,54,280,572,5072
1644156932.563773,-0.010315,0.01001,-0.989563,0.175053,0.356031,-0.085191,58,283,564,5136
1644156932.612225,-0.012512,0.009033,-0.990601,0.190321,0.447634,-0.008855,48,271,578,5104
1644156932.660533,-0.01239,0.008789,-0.991882,0.220855,0.493435,-0.008855,54,277,579,5072
1644156932.708924,-0.011108,0.010803,-0.991272,0.159786,0.432366,0.036947,51,274,576,5104
1644156932.757292,-0.007202,0.00885,-0.990723,0.236122,0.325496,-0.192061,46,279,569,5104
1644156932.805699,-0.008301,0.008118,-0.992249,0.236122,0.462901,-0.100458,40,265,568,5168
1644156932.854131,-0.012329,0.006714,-0.991699,0.175053,0.462901,-0.054656,48,264,571,5104
1644156932.902555,-0.011841,0.009399,-0.994202,0.327725,0.401832,-0.25313,57,273,579,5136
1644156932.952652,-0.010864,0.008423,-0.989441,0.449863,0.401832,-0.161527,51,266,578,5104
1644156933.002643,-0.011597,0.009399,-0.991272,0.190321,0.447634,-0.085191,43,274,569,5120
1644156933.067195,-0.00946,0.009399,-0.991882,0.281924,0.386565,0.006412,51,281,580,5136
1644156933.097443,-0.010681,0.008972,-0.991516,0.266656,0.508702,-0.085191,54,275,579,5120
1644156933.192813,-0.010498,0.011292,-0.991516,0.327725,0.371298,-0.069924,52,270,572,5120
1644156933.241193,-0.012024,0.009338,-0.993591,0.312458,0.478168,-0.085191,51,266,578,5056
1644156933.289577,-0.012329,0.010925,-0.994019,0.327725,0.386565,-0.130992,47,275,575,5104
1644156933.337968,-0.013123,0.010193,-0.989502,0.281924,0.493435,-0.085191,46,279,580,5104
1644156933.386399,-0.011353,0.008545,-0.990356,0.281924,0.325496,0.052214,43,271,569,5072
1644156933.43476,-0.010803,0.009827,-0.993347,0.327725,0.432366,-0.100458,46,271,578,5072
1644156933.483136,-0.00885,0.00885,-0.994629,0.205588,0.462901,-0.100458,53,274,569,5056
1644156933.531534,-0.015564,0.009094,-0.991882,0.312458,0.462901,-0.14626,55,271,562,5120
1644156933.57991,-0.011353,0.009583,-0.99353,0.251389,0.279695,-0.14626,58,264,566,5072
1644156933.628309,-0.010315,0.011536,-0.991638,0.419328,0.340763,-0.008855,52,275,572,5056
1644156933.676678,-0.010254,0.006836,-0.991394,0.205588,0.401832,-0.14626,52,285,570,5168
1644156933.725188,-0.011963,0.009338,-0.994019,0.251389,0.432366,-0.14626,49,273,572,5104
1644156933.773448,-0.012756,0.007324,-0.994873,0.236122,0.462901,-0.054656,42,260,570,5104
1644156933.821854,-0.010864,0.010071,-0.991943,0.190321,0.386565,-0.100458,52,280,579,5104
1644156933.870285,-0.008484,0.00592,-0.989136,0.175053,0.340763,-0.054656,47,270,572,5104
1644156933.918664,-0.009644,0.010681,-0.994202,0.327725,0.294962,-0.069924,47,275,575,5168
1644156933.967044,-0.010376,0.010193,-0.991516,0.220855,0.432366,0.006412,40,275,570,5072
1644156934.015446,-0.012329,0.008179,-0.989929,0.342992,0.401832,-0.115725,47,263,568,5104
1644156934.087461,-0.011597,0.010071,-0.991882,0.266656,0.371298,-0.268397,46,274,573,5008
1644156934.113806,-0.012146,0.008911,-0.991455,0.220855,0.386565,-0.100458,51,279,573,5184
1644156934.208941,-0.013672,0.01178,-0.992737,0.404061,0.478168,-0.069924,49,270,572,5136
1644156934.257325,-0.012878,0.008728,-0.994019,0.113985,0.432366,-0.207328,47,270,572,5072
1644156934.305709,-0.008911,0.009949,-0.991943,0.312458,0.356031,-0.130992,45,265,575,5104
1644156934.354125,-0.012695,0.009216,-0.988647,0.220855,0.294962,-0.268397,43,279,564,5104
1644156934.402479,-0.011353,0.010132,-0.992371,0.190321,0.447634,-0.085191,48,279,571,5184
1644156934.450882,-0.013062,0.012634,-0.992493,0.251389,0.432366,-0.115725,49,277,572,5136
1644156934.499281,-0.006836,0.008789,-0.993103,0.266656,0.523969,-0.039389,58,279,566,5104
1644156934.547671,-0.010193,0.008545,-0.988708,0.175053,0.340763,-0.192061,42,275,563,5136
1644156934.596027,-0.009521,0.01062,-0.990601,0.205588,0.386565,-0.054656,60,279,573,5056
1644156934.644456,-0.009338,0.007935,-0.993286,0.175053,0.447634,-0.14626,54,275,579,5072
1644156934.692849,-0.01178,0.010376,-0.992432,0.388794,0.432366,-0.207328,52,268,572,5056
1644156934.741233,-0.013916,0.009033,-0.990723,0.190321,0.386565,-0.192061,51,266,573,5120
1644156934.789603,-0.01416,0.009094,-0.99115,0.236122,0.386565,-0.100458,59,282,579,5072
1644156934.838009,-0.012634,0.011108,-0.992737,0.312458,0.508702,-0.085191,46,264,576,5136
1644156934.886425,-0.010254,0.009277,-0.994446,0.327725,0.432366,-0.176794,51,271,576,5104
1644156934.934829,-0.015076,0.01001,-0.992981,0.266656,0.310229,-0.008855,47,275,584,5024
1644156934.983195,-0.010132,0.009521,-0.99054,0.281924,0.432366,-0.100458,59,277,577,5200
1644156935.03158,-0.008728,0.008545,-0.992859,0.08345,0.447634,-0.161527,59,270,572,5104
1644156935.089291,-0.013062,0.011597,-0.990784,0.205588,0.554504,0.006412,55,279,585,5104
1644156935.129304,-0.009521,0.010681,-0.993347,0.297191,0.401832,-0.207328,51,269,573,5024
1644156935.179501,-0.005798,0.010376,-0.992371,0.068183,0.356031,-0.100458,54,268,579,5072
1644156935.229786,-0.010925,0.009827,-0.994202,0.159786,0.462901,-0.176794,45,265,570,5104
1644156935.274257,-0.011658,0.010071,-0.99292,0.098718,0.508702,-0.115725,54,273,570,5104
1644156935.370287,-0.009705,0.009949,-0.990662,0.159786,0.340763,-0.268397,51,274,573,5104
1644156935.418669,-0.008789,0.008362,-0.99115,0.312458,0.478168,-0.100458,43,279,569,5104
1644156935.467087,-0.009827,0.008606,-0.991821,0.388794,0.325496,-0.192061,40,273,572,5168
1644156935.515465,-0.013428,0.01123,-0.993164,0.342992,0.539237,-0.130992,53,274,578,5104
1644156935.563874,-0.012878,0.008423,-0.99176,0.251389,0.386565,-0.024122,49,268,568,5008
1644156935.612266,-0.011169,0.00824,-0.991882,0.281924,0.478168,-0.039389,53,281,573,5104
1644156935.660631,-0.008484,0.010437,-0.992493,0.236122,0.432366,-0.069924,48,269,571,5104
1644156935.709021,-0.013245,0.01001,-0.992554,0.129252,0.401832,-0.069924,48,286,573,5072
1644156935.75742,-0.012329,0.010681,-0.992371,0.220855,0.386565,0.006412,53,276,576,5104
1644156935.8058,-0.012268,0.009827,-0.993835,0.266656,0.356031,-0.008855,52,282,577,5136
1644156935.854207,-0.012146,0.007996,-0.988464,0.342992,0.325496,-0.054656,47,273,572,5104
1644156935.902581,-0.010376,0.009399,-0.990601,0.129252,0.325496,-0.039389,52,273,577,5120
1644156935.950961,-0.010315,0.008606,-0.991089,0.373527,0.417099,-0.207328,45,270,575,5072
1644156935.99934,-0.010925,0.009521,-0.992432,0.220855,0.493435,-0.008855,48,266,573,5104
1644156936.064786,-0.010132,0.008606,-0.992493,0.175053,0.310229,-0.176794,55,264,573,5120
1644156936.096067,-0.011658,0.009033,-0.992188,0.205588,0.569771,-0.100458,60,271,573,5120
1644156936.14448,-0.011047,0.006531,-0.992065,0.190321,0.386565,-0.069924,47,280,575,5104
1644156936.193113,-0.009644,0.01001,-0.989136,0.098718,0.523969,-0.115725,45,268,577,5104
1644156936.241957,-0.009705,0.009155,-0.993286,0.312458,0.447634,-0.192061,52,282,570,5072
1644156936.292535,-0.013977,0.006775,-0.992432,0.251389,0.462901,-0.130992,51,274,564,5072
1644156936.342769,-0.00824,0.008301,-0.990356,0.220855,0.447634,-0.14626,51,271,573,5120
1644156936.387702,-0.013916,0.008362,-0.992249,0.342992,0.401832,-0.14626,57,263,570,5136
1644156936.483178,-0.00946,0.010498,-0.990662,0.159786,0.432366,-0.039389,49,265,572,5072
1644156936.531553,-0.009033,0.008789,-0.99176,0.236122,0.371298,-0.25313,45,273,572,5008
1644156936.579954,-0.011719,0.010376,-0.990662,0.373527,0.539237,-0.085191,59,287,565,5120
1644156936.628334,-0.012024,0.008728,-0.994446,0.266656,0.478168,-0.039389,48,266,573,5072
1644156936.676732,-0.011719,0.009155,-0.991821,0.220855,0.371298,-0.176794,43,269,573,5024
1644156936.725152,-0.013794,0.012329,-0.991028,0.251389,0.340763,-0.069924,48,269,573,5072
1644156936.773527,-0.010376,0.008362,-0.994629,0.251389,0.508702,-0.161527,53,274,571,5104
1644156936.821945,-0.011169,0.010254,-0.992126,0.251389,0.325496,-0.054656,51,279,566,5120
1644156936.870332,-0.011902,0.011108,-0.991516,0.175053,0.340763,-0.100458,58,271,578,5072
1644156936.918713,-0.011292,0.010437,-0.990845,0.266656,0.417099,-0.115725,54,277,568,5120
1644156936.967115,-0.009766,0.011841,-0.991333,0.251389,0.294962,-0.14626,46,266,569,5120
1644156937.015501,-0.010803,0.012085,-0.988892,0.281924,0.523969,-0.14626,65,276,583,5120
1644156937.069164,-0.009583,0.00769,-0.992554,0.205588,0.386565,-0.069924,49,280,570,5056
1644156937.112257,-0.013733,0.010132,-0.992615,0.220855,0.356031,-0.207328,42,268,568,5072
1644156937.160628,-0.009949,0.010559,-0.990295,0.388794,0.508702,-0.039389,42,275,575,5120
1644156937.209011,-0.01001,0.010925,-0.990723,0.175053,0.508702,-0.176794,48,281,578,5104
1644156937.257379,-0.010803,0.010498,-0.99408,0.297191,0.478168,-0.222595,48,274,566,5120
1644156937.305748,-0.008179,0.010437,-0.991699,0.236122,0.417099,-0.054656,53,279,578,5136
1644156937.354553,-0.011475,0.009033,-0.990601,0.220855,0.462901,-0.100458,49,282,570,5072
1644156937.403418,-0.01123,0.008179,-0.995911,0.190321,0.493435,-0.161527,46,279,564,5120
1644156937.453957,-0.008667,0.009949,-0.99176,0.281924,0.493435,-0.130992,52,280,565,5120
1644156937.504453,-0.013916,0.010498,-0.990967,0.404061,0.493435,-0.176794,47,275,575,5072
1644156937.596135,-0.011353,0.008972,-0.992615,0.251389,0.539237,-0.008855,43,279,583,5104
1644156937.644503,-0.012573,0.007751,-0.995056,0.266656,0.523969,-0.085191,53,281,571,5104
1644156937.692885,-0.008057,0.006409,-0.991394,0.236122,0.371298,-0.161527,52,265,579,5120
1644156937.741266,-0.008301,0.008362,-0.992676,0.175053,0.432366,-0.237863,46,259,573,5104
1644156937.789647,-0.011047,0.007324,-0.989441,0.175053,0.554504,-0.100458,54,273,563,5104
1644156937.838073,-0.009155,0.012573,-0.991882,0.312458,0.447634,-0.069924,41,274,566,5024
1644156937.886465,-0.011353,0.007141,-0.99115,0.190321,0.447634,-0.100458,52,275,575,5120
1644156937.934893,-0.012451,0.008789,-0.990845,0.251389,0.508702,-0.130992,43,279,564,5104
1644156937.983264,-0.009705,0.009644,-0.99115,0.129252,0.493435,-0.024122,54,277,568,5104
1644156938.031642,-0.00946,0.010376,-0.99353,0.205588,0.401832,-0.069924,51,266,576,5120
1644156938.084898,-0.011597,0.009338,-0.989258,0.129252,0.356031,-0.115725,61,275,584,5072
1644156938.128392,-0.009949,0.009949,-0.99176,0.113985,0.356031,-0.085191,54,273,577,5056
1644156938.176734,-0.00946,0.008545,-0.990662,0.251389,0.523969,-0.085191,43,274,580,5120
1644156938.225191,-0.011169,0.009094,-0.993713,0.113985,0.462901,-0.161527,48,271,571,5120
1644156938.273537,-0.013062,0.009705,-0.992737,0.251389,0.356031,0.021679,41,266,569,5104
1644156938.322168,-0.01062,0.00769,-0.994446,0.342992,0.233893,-0.054656,57,277,575,5072
1644156938.370929,-0.009766,0.009583,-0.994202,0.266656,0.432366,-0.207328,57,270,563,5072
1644156938.421567,-0.01416,0.009644,-0.992249,0.236122,0.478168,0.067481,52,270,575,5072
1644156938.471889,-0.008728,0.007263,-0.991516,0.236122,0.386565,-0.161527,54,270,575,5104
1644156938.516783,-0.011536,0.008118,-0.992676,0.113985,0.417099,-0.054656,51,266,578,5120
1644156938.612395,-0.01178,0.009521,-0.990601,0.388794,0.340763,0.036947,49,275,565,5200
1644156938.660646,-0.011108,0.007935,-0.992371,0.129252,0.417099,-0.192061,58,279,578,5072
1644156938.709024,-0.010864,0.007996,-0.99115,0.175053,0.386565,-0.176794,53,276,571,5104
1644156938.7574,-0.00946,0.009827,-0.993225,0.342992,0.325496,-0.237863,54,270,568,5072
1644156938.805773,-0.010681,0.009033,-0.991577,0.190321,0.401832,-0.222595,59,270,579,5120
1644156938.854243,-0.010925,0.009094,-0.989319,0.281924,0.371298,-0.176794,53,271,564,5136
1644156938.902651,-0.01062,0.00946,-0.993591,0.236122,0.447634,-0.268397,41,271,576,5136
1644156938.950988,-0.012695,0.007385,-0.988586,0.205588,0.386565,-0.100458,49,268,570,5136
1644156938.999374,-0.007874,0.011169,-0.990479,0.312458,0.523969,-0.192061,49,273,572,5008
1644156939.064492,-0.014771,0.01123,-0.989685,0.098718,0.432366,-0.192061,58,281,569,5136
1644156939.096167,-0.01239,0.009583,-0.990845,0.190321,0.325496,-0.054656,52,270,568,5072
1644156939.144545,-0.01123,0.008606,-0.992493,0.388794,0.462901,0.052214,48,276,571,5072
1644156939.192933,-0.012268,0.009949,-0.994629,0.266656,0.539237,-0.085191,43,271,571,5072
1644156939.241296,-0.011902,0.007507,-0.992859,-0.02342,0.508702,-0.130992,52,270,568,5072
1644156939.289682,-0.011414,0.012329,-0.990601,0.159786,0.432366,-0.024122,51,276,583,5072
1644156939.338077,-0.012939,0.009216,-0.990112,0.373527,0.417099,-0.115725,46,269,573,5072
1644156939.386464,-0.011536,0.01178,-0.992615,0.220855,0.523969,0.021679,47,270,575,5136
1644156939.434834,-0.010864,0.010742,-0.989868,0.236122,0.447634,-0.008855,58,269,571,5104
1644156939.483263,-0.011047,0.010437,-0.989563,0.388794,0.447634,-0.192061,52,275,582,5120
1644156939.531755,-0.009399,0.008728,-0.991577,0.266656,0.508702,-0.054656,55,276,578,5136
1644156939.582079,-0.009033,0.00769,-0.995056,0.342992,0.447634,-0.085191,49,268,577,5104
1644156939.632361,-0.01062,0.01123,-0.990906,0.129252,0.325496,-0.207328,54,273,577,5008
1644156939.677475,-0.008728,0.009705,-0.990051,0.205588,0.417099,-0.14626,47,273,572,5104
1644156939.773579,-0.010742,0.011841,-0.992432,0.342992,0.417099,-0.25313,43,274,576,5120
1644156939.821943,-0.009888,0.010437,-0.990356,0.251389,0.371298,-0.100458,42,275,568,5072
1644156939.87038,-0.012207,0.008972,-0.992065,0.220855,0.600305,-0.130992,47,275,575,5104
1644156939.91877,-0.011292,0.008667,-0.993225,0.35826,0.462901,-0.192061,48,269,569,5120
1644156939.96717,-0.011719,0.006287,-0.991943,0.098718,0.325496,-0.100458,46,281,571,5104
1644156940.015745,-0.013,0.009705,-0.990051,0.205588,0.462901,-0.039389,55,271,573,5120
1644156940.064103,-0.010132,0.008423,-0.991577,0.297191,0.478168,-0.14626,51,279,573,5168
1644156940.112348,-0.011719,0.009399,-0.989502,0.327725,0.493435,-0.237863,51,259,576,5072
1644156940.160679,-0.009888,0.010071,-0.992615,0.266656,0.325496,-0.100458,55,269,576,5120
1644156940.209062,-0.012085,0.010376,-0.99176,0.251389,0.646107,-0.14626,48,266,576,5168
1644156940.257446,-0.009644,0.010681,-0.989929,0.144519,0.508702,-0.283664,43,274,571,5120
1644156940.305835,-0.008484,0.009155,-0.991089,0.220855,0.356031,-0.130992,47,287,570,5056
1644156940.354233,-0.012085,0.010193,-0.990173,0.236122,0.523969,-0.161527,51,269,578,5104
1644156940.402633,-0.009338,0.008667,-0.988342,0.251389,0.462901,-0.069924,57,273,575,5072
1644156940.451,-0.009827,0.010498,-0.992004,0.190321,0.417099,-0.085191,48,271,573,5056
1644156940.499385,-0.012085,0.007019,-0.989807,0.159786,0.386565,-0.192061,46,279,583,5104
1644156940.547779,-0.010193,0.007507,-0.992249,0.251389,0.585038,-0.100458,47,263,579,5120
1644156940.596167,-0.012146,0.008545,-0.991577,0.419328,0.432366,-0.115725,40,268,568,5072
1644156940.644706,-0.01001,0.009888,-0.99054,0.327725,0.310229,-0.039389,49,268,579,5104
1644156940.693259,-0.01001,0.011475,-0.991455,0.205588,0.386565,-0.069924,49,270,579,5104
1644156940.743765,-0.01062,0.009094,-0.99115,0.35826,0.447634,-0.100458,57,282,577,5072
1644156940.793902,-0.01123,0.008667,-0.992126,0.159786,0.386565,-0.085191,49,268,579,5072
1644156940.839087,-0.009033,0.007629,-0.989929,0.113985,0.462901,0.006412,47,282,570,5120
1644156940.934926,-0.013306,0.007324,-0.993286,0.236122,0.432366,0.036947,54,280,570,5104
1644156940.983335,-0.010803,0.010986,-0.992432,0.266656,0.371298,-0.192061,42,277,570,5072
1644156941.03169,-0.011963,0.01062,-0.990967,0.281924,0.447634,-0.14626,51,279,576,5104
1644156941.084842,-0.010986,0.010498,-0.993347,0.098718,0.493435,-0.069924,55,276,573,5072
1644156941.128456,-0.012878,0.008484,-0.992615,0.251389,0.233893,-0.130992,54,275,565,5104
1644156941.176819,-0.010437,0.008423,-0.991699,0.159786,0.401832,-0.054656,51,283,576,5072
1644156941.225195,-0.008118,0.007507,-0.990112,0.175053,0.356031,-0.14626,42,268,572,5120
1644156941.273567,-0.00946,0.009277,-0.990967,0.113985,0.371298,0.052214,49,275,572,5120
1644156941.321968,-0.011169,0.011353,-0.990112,0.205588,0.432366,-0.207328,55,281,576,5072
1644156941.370372,-0.009766,0.010498,-0.991943,0.175053,0.493435,-0.100458,53,271,566,5104
1644156941.418768,-0.010498,0.007507,-0.992554,0.190321,0.432366,-0.069924,49,275,570,5136
1644156941.467157,-0.008301,0.009216,-0.990295,0.281924,0.554504,-0.237863,54,275,570,5136
1644156941.51554,-0.012329,0.008789,-0.992493,0.190321,0.386565,-0.069924,48,276,569,5120
1644156941.56394,-0.011719,0.01178,-0.993286,0.159786,0.523969,0.006412,47,277,565,5104
1644156941.612326,-0.01239,0.009827,-0.99115,0.236122,0.417099,-0.085191,53,281,576,5056
1644156941.6607,-0.013,0.009094,-0.99469,0.144519,0.386565,-0.054656,57,287,572,5104
1644156941.709071,-0.011108,0.009705,-0.988586,0.312458,0.401832,-0.14626,51,279,569,5072
1644156941.757445,-0.012451,0.010315,-0.989258,0.251389,0.432366,-0.069924,47,277,570,5104
1644156941.805854,-0.011169,0.009094,-0.992493,0.220855,0.340763,-0.069924,45,275,572,5072
1644156941.855261,-0.012329,0.010803,-0.991821,0.175053,0.478168,-0.054656,54,270,577,5136
1644156941.905674,-0.012024,0.006409,-0.994446,0.236122,0.447634,-0.161527,58,276,578,5008
1644156941.956264,-0.009766,0.009277,-0.993164,0.297191,0.432366,-0.115725,52,282,577,5136
1644156942.066795,-0.011963,0.009949,-0.989258,0.205588,0.554504,-0.054656,58,274,566,5104
1644156942.098507,-0.010437,0.009399,-0.991028,0.190321,0.478168,-0.176794,57,285,582,5120
1644156942.144714,-0.010498,0.01062,-0.991699,0.266656,0.417099,-0.176794,53,276,559,5072
1644156942.192995,-0.011108,0.011719,-0.992676,0.342992,0.462901,-0.115725,53,271,585,5104
1644156942.241327,-0.007385,0.010864,-0.992004,0.205588,0.340763,-0.085191,49,275,579,5168
1644156942.289763,-0.009155,0.010986,-0.989136,0.175053,0.401832,-0.130992,57,263,568,5072
1644156942.33814,-0.010071,0.012085,-0.989929,0.220855,0.401832,-0.161527,54,273,584,5120
1644156942.386519,-0.009949,0.009155,-0.993469,0.190321,0.539237,-0.130992,52,280,570,5104
1644156942.434893,-0.011841,0.01178,-0.992065,0.434595,0.386565,-0.14626,39,279,585,5024
1644156942.483316,-0.013306,0.011414,-0.990784,0.312458,0.386565,-0.085191,52,268,568,5104
1644156942.532924,-0.013245,0.01001,-0.99054,0.297191,0.508702,-0.085191,45,263,577,5136
1644156942.583236,-0.009705,0.009644,-0.990295,0.098718,0.462901,-0.024122,51,269,576,5072
1644156942.633291,-0.009155,0.009644,-0.993103,0.297191,0.508702,-0.14626,54,273,568,5072
1644156942.725403,-0.009949,0.010376,-0.99115,0.205588,0.386565,-0.100458,48,264,571,5072
1644156942.77363,-0.010681,0.009094,-0.989929,0.236122,0.432366,-0.222595,54,273,577,5056
1644156942.822006,-0.012695,0.006592,-0.991882,0.205588,0.386565,-0.130992,49,277,568,5120
1644156942.870404,-0.008301,0.01123,-0.993164,0.281924,0.432366,-0.161527,46,271,564,5136
1644156942.918819,-0.010803,0.00824,-0.991394,0.251389,0.371298,-0.039389,43,276,562,5072
1644156942.967205,-0.011841,0.010193,-0.992065,0.312458,0.554504,-0.008855,53,281,571,5104
1644156943.0156,-0.010315,0.006958,-0.990112,0.342992,0.539237,-0.25313,49,270,572,5120
1644156943.065282,-0.008789,0.010925,-0.992737,0.037649,0.371298,-0.069924,49,273,577,5072
1644156943.112374,-0.012268,0.008118,-0.994446,0.205588,0.417099,-0.222595,51,266,573,5104
1644156943.160726,-0.010559,0.01178,-0.989807,0.220855,0.523969,-0.115725,48,274,559,5120
1644156943.209095,-0.010498,0.008667,-0.98999,0.205588,0.325496,-0.207328,51,266,576,5072
1644156943.257477,-0.006592,0.007996,-0.992432,0.281924,0.447634,-0.283664,48,274,576,5104
1644156943.305894,-0.009521,0.011597,-0.993164,0.175053,0.356031,-0.329466,52,275,579,5120
1644156943.354286,-0.009399,0.012146,-0.991577,0.098718,0.478168,-0.115725,58,281,571,5120
1644156943.402692,-0.007141,0.009766,-0.990356,0.098718,0.615573,-0.085191,54,268,572,5072
1644156943.451054,-0.012024,0.010925,-0.993103,0.236122,0.172824,-0.207328,48,271,580,5168
1644156943.499429,-0.01062,0.00708,-0.993591,0.175053,0.478168,-0.024122,57,277,568,5136
1644156943.547828,-0.009949,0.008362,-0.992432,0.190321,0.325496,-0.207328,47,280,575,5072
1644156943.596558,-0.011047,0.009888,-0.992676,0.236122,0.478168,-0.024122,46,271,571,5056
1644156943.645046,-0.012939,0.009033,-0.992554,0.236122,0.432366,0.006412,47,275,575,5104
1644156943.695183,-0.010315,0.008667,-0.99115,0.388794,0.310229,-0.024122,40,273,572,5104
1644156943.745531,-0.01062,0.008179,-0.990051,0.175053,0.325496,-0.222595,49,268,575,5056
1644156943.790733,-0.009827,0.006714,-0.993103,0.266656,0.539237,-0.115725,48,281,569,5072
1644156943.886571,-0.012878,0.008972,-0.992004,0.159786,0.386565,0.036947,46,276,571,5056
1644156943.935257,-0.010498,0.012451,-0.988281,0.281924,0.325496,0.006412,46,279,571,5072
1644156943.983373,-0.010559,0.007385,-0.989685,0.159786,0.462901,-0.085191,51,271,580,5104
1644156944.031759,-0.011292,0.009155,-0.993164,0.327725,0.462901,-0.222595,49,273,572,5104
1644156944.080231,-0.009399,0.008789,-0.992371,-0.008153,0.569771,-0.176794,61,268,577,5072
1644156944.128473,-0.010437,0.008484,-0.991577,0.342992,0.310229,-0.039389,60,279,571,5104
1644156944.176843,-0.011902,0.010498,-0.994568,0.312458,0.432366,-0.115725,46,266,576,5120
1644156944.225255,-0.013611,0.010193,-0.992188,0.190321,0.417099,0.113282,55,274,578,5056
1644156944.273627,-0.011658,0.004822,-0.992554,0.266656,0.386565,0.067481,53,276,573,5024
1644156944.322043,-0.010193,0.009399,-0.990112,0.297191,0.417099,-0.069924,55,269,571,5072
1644156944.370424,-0.008789,0.009888,-0.991882,0.266656,0.417099,0.067481,46,274,578,5072
1644156944.418808,-0.01001,0.012878,-0.990784,0.266656,0.356031,-0.130992,42,270,575,5104
1644156944.467205,-0.011353,0.008789,-0.991211,0.327725,0.462901,-0.130992,43,274,578,5104
1644156944.515599,-0.013184,0.01123,-0.991821,0.297191,0.417099,-0.069924,48,269,573,5072
1644156944.563977,-0.011902,0.00885,-0.993591,0.236122,0.447634,-0.14626,51,276,580,5120
1644156944.612381,-0.00946,0.01001,-0.992554,0.297191,0.493435,-0.085191,52,265,570,5104
1644156944.660757,-0.010437,0.008606,-0.99115,0.281924,0.462901,-0.115725,59,268,561,5120
1644156944.709141,-0.012695,0.00885,-0.990356,0.495664,0.356031,-0.100458,48,264,573,5008
1644156944.757541,-0.009216,0.010864,-0.99292,0.281924,0.386565,-0.100458,46,269,576,5104
1644156944.807304,-0.009827,0.007263,-0.994202,0.220855,0.401832,-0.008855,42,280,577,5120
1644156944.858275,-0.009644,0.009216,-0.99054,0.297191,0.325496,-0.176794,41,281,566,5056
1644156944.908249,-0.012817,0.01001,-0.993408,0.205588,0.554504,-0.115725,52,265,584,5120
1644156944.952614,-0.009827,0.008118,-0.990112,0.236122,0.508702,-0.024122,46,271,571,5104
1644156945.063321,-0.01239,0.011047,-0.990417,0.190321,0.310229,-0.039389,58,286,564,5120
1644156945.096969,-0.009583,0.009216,-0.992065,0.236122,0.340763,-0.039389,54,282,570,5072
1644156945.144712,-0.009399,0.00824,-0.993469,0.266656,0.462901,-0.100458,45,268,577,5104
1644156945.193049,-0.01001,0.009888,-0.989868,0.175053,0.386565,-0.14626,59,275,568,5056
1644156945.241435,-0.00885,0.010315,-0.991272,0.236122,0.432366,-0.115725,49,273,572,5104
1644156945.289814,-0.011475,0.011108,-0.994141,0.297191,0.417099,-0.024122,62,271,583,5136
1644156945.338188,-0.009521,0.009705,-0.991455,0.327725,0.569771,-0.085191,42,280,570,5136
1644156945.386576,-0.012329,0.00824,-0.991943,0.266656,0.417099,0.006412,45,265,570,5104
1644156945.435005,-0.009583,0.009827,-0.989746,0.220855,0.371298,-0.069924,55,269,571,5072
1644156945.483345,-0.010315,0.010315,-0.99231,0.205588,0.478168,-0.100458,59,268,582,5104
1644156945.532001,-0.011047,0.010681,-0.991211,0.281924,0.432366,-0.100458,55,269,578,5104
1644156945.580272,-0.011963,0.01062,-0.993347,0.297191,0.417099,-0.054656,42,275,556,5120
1644156945.630498,-0.01239,0.009033,-0.990906,0.281924,0.615573,-0.039389,49,275,566,5136
1644156945.681094,-0.012939,0.010559,-0.991455,0.144519,0.386565,-0.14626,43,274,580,5120
1644156945.726173,-0.009766,0.008545,-0.990906,0.129252,0.371298,0.036947,47,275,575,5072
1644156945.822062,-0.012451,0.010071,-0.99176,0.236122,0.279695,-0.100458,49,273,572,5056
1644156945.87049,-0.009399,0.007324,-0.991516,0.281924,0.417099,-0.14626,45,268,568,5104
1644156945.918888,-0.007874,0.009827,-0.99176,0.205588,0.401832,-0.024122,51,276,573,5072
1644156945.967273,-0.012573,0.011108,-0.989746,0.35826,0.508702,-0.268397,51,266,573,5072
1644156946.015644,-0.008423,0.009155,-0.992188,0.312458,0.554504,-0.176794,55,276,573,5168
1644156946.06787,-0.011658,0.009888,-0.991882,0.205588,0.523969,-0.100458,47,268,563,5024
1644156946.112414,-0.015015,0.008972,-0.990906,0.404061,0.462901,-0.176794,46,271,580,5072
1644156946.160775,-0.012634,0.007446,-0.99408,0.236122,0.493435,-0.298931,48,269,569,5104
1644156946.209153,-0.013428,0.00824,-0.994446,0.175053,0.325496,-0.085191,52,277,565,5200
1644156946.257564,-0.008667,0.009216,-0.994141,0.281924,0.447634,-0.085191,49,265,572,5120
1644156946.305928,-0.011902,0.009338,-0.98999,0.373527,0.340763,-0.192061,48,279,573,5072
1644156946.354337,-0.01123,0.009583,-0.99054,0.281924,0.310229,-0.115725,53,271,580,5056
1644156946.402744,-0.010498,0.011597,-0.989807,0.251389,0.356031,-0.207328,61,275,572,5072
1644156946.451118,-0.011597,0.007812,-0.992432,0.251389,0.432366,-0.14626,47,277,575,5104
1644156946.499501,-0.012756,0.007446,-0.992554,0.205588,0.462901,-0.115725,41,271,569,5104
1644156946.547876,-0.012756,0.012085,-0.992432,0.220855,0.432366,-0.268397,41,266,564,5072
1644156946.596263,-0.011108,0.009949,-0.99231,0.35826,0.600305,-0.024122,45,275,572,5104
1644156946.644674,-0.010986,0.008301,-0.993408,0.327725,0.478168,-0.176794,54,265,582,5120
1644156946.693077,-0.010864,0.006897,-0.994385,0.281924,0.539237,0.021679,55,266,578,5120
1644156946.742436,-0.013367,0.010071,-0.990723,0.159786,0.447634,-0.115725,48,279,566,5072
1644156946.792838,-0.012024,0.008911,-0.993652,0.190321,0.615573,-0.192061,52,273,572,5168
1644156946.843031,-0.013916,0.007629,-0.992432,0.08345,0.478168,-0.25313,52,285,575,5072
1644156946.888727,-0.008301,0.011597,-0.99176,0.266656,0.401832,-0.024122,53,264,569,5136
1644156946.983402,-0.008179,0.010437,-0.989868,0.159786,0.523969,-0.008855,52,273,572,5168
1644156947.031797,-0.011047,0.010315,-0.990906,0.35826,0.432366,-0.069924,49,270,570,5120
1644156947.080445,-0.011719,0.01123,-0.991638,0.220855,0.203359,-0.115725,53,271,576,5072
1644156947.128594,-0.01239,0.009888,-0.992126,0.037649,0.356031,-0.161527,52,277,582,5056
1644156947.176922,-0.010376,0.006531,-0.992126,0.312458,0.233893,-0.100458,48,264,564,5104
1644156947.225322,-0.008667,0.005493,-0.993347,0.236122,0.539237,-0.039389,53,271,576,5072
1644156947.273686,-0.01001,0.006348,-0.99231,0.220855,0.493435,-0.161527,46,279,564,5136
1644156947.322155,-0.00946,0.012695,-0.989624,0.220855,0.600305,-0.268397,46,269,569,5104
1644156947.370489,-0.01123,0.007629,-0.993652,0.251389,0.417099,-0.039389,47,270,568,5168
1644156947.418868,-0.011169,0.008118,-0.991272,0.098718,0.386565,0.036947,55,264,566,5072
1644156947.46729,-0.013977,0.009521,-0.991699,0.205588,0.447634,-0.192061,48,274,571,5120
1644156947.515632,-0.013428,0.008118,-0.991272,0.281924,0.371298,-0.069924,45,275,570,5072
1644156947.564016,-0.012695,0.009216,-0.993347,0.297191,0.447634,-0.100458,43,262,573,5056
1644156947.612428,-0.007812,0.009399,-0.991211,0.098718,0.585038,-0.069924,58,281,571,5120
1644156947.66081,-0.011963,0.006531,-0.991028,0.327725,0.401832,-0.069924,49,265,572,5104
1644156947.709202,-0.010437,0.008423,-0.992981,0.312458,0.447634,-0.14626,58,283,569,5136
1644156947.757558,-0.009583,0.008362,-0.990173,0.266656,0.478168,-0.130992,54,277,568,5120
1644156947.80597,-0.011108,0.010559,-0.991577,0.266656,0.462901,-0.14626,53,274,569,5104
1644156947.855018,-0.010742,0.009888,-0.991943,0.297191,0.493435,-0.222595,60,276,566,5104
1644156947.905578,-0.010193,0.008057,-0.991455,0.388794,0.371298,-0.039389,43,274,562,5120
1644156947.956058,-0.011169,0.009094,-0.991577,0.205588,0.523969,-0.054656,54,273,572,5104
1644156948.000524,-0.011353,0.010437,-0.992493,0.251389,0.523969,-0.25313,51,269,566,5104
1644156948.097361,-0.010315,0.007874,-0.989502,0.251389,0.523969,-0.130992,43,279,576,5072
1644156948.14474,-0.01001,0.009094,-0.993347,0.266656,0.371298,-0.176794,43,276,578,5120
1644156948.193096,-0.013367,0.011108,-0.991821,0.297191,0.325496,-0.161527,53,271,580,5072
1644156948.241466,-0.013,0.009094,-0.993347,0.08345,0.401832,-0.069924,42,287,579,5136
1644156948.28986,-0.012634,0.007568,-0.992432,0.251389,0.371298,-0.054656,49,280,577,5024
1644156948.338247,-0.010925,0.010864,-0.991577,0.190321,0.371298,-0.115725,54,282,570,5120
1644156948.386634,-0.009155,0.005432,-0.992371,0.175053,0.356031,-0.176794,53,274,578,5072
1644156948.435058,-0.008118,0.007874,-0.989807,0.46513,0.386565,-0.115725,48,274,571,5104
1644156948.483399,-0.009888,0.009827,-0.990601,0.404061,0.386565,-0.024122,35,282,575,5136
1644156948.531821,-0.009399,0.010803,-0.991272,0.205588,0.417099,-0.14626,60,274,573,5104
1644156948.580453,-0.01239,0.009216,-0.990173,0.159786,0.371298,-0.024122,46,266,573,5136
1644156948.630735,-0.00885,0.010559,-0.987305,0.312458,0.432366,-0.161527,48,271,576,5072
1644156948.681225,-0.01178,0.009216,-0.99054,0.068183,0.493435,0.067481,48,266,571,5056
1644156948.726285,-0.010559,0.007874,-0.992493,0.236122,0.615573,-0.115725,45,268,589,5168
1644156948.822366,-0.010681,0.01178,-0.99408,0.297191,0.417099,-0.069924,46,279,573,5104
1644156948.870534,-0.008118,0.010315,-0.993774,0.129252,0.417099,-0.222595,53,279,573,5056
1644156948.918932,-0.009399,0.01001,-0.99054,0.205588,0.63084,-0.161527,47,273,575,5120
1644156948.967288,-0.013245,0.009094,-0.990051,0.205588,0.340763,-0.069924,48,269,576,5104
1644156949.015711,-0.008545,0.01001,-0.991516,0.205588,0.447634,-0.039389,52,270,582,5104
1644156949.066915,-0.009277,0.010742,-0.991028,0.190321,0.523969,-0.008855,53,281,576,5168
1644156949.112495,-0.010925,0.007874,-0.993713,0.281924,0.432366,0.052214,46,269,571,5056
1644156949.16086,-0.009155,0.008667,-0.992676,0.175053,0.401832,-0.100458,58,274,580,5072
1644156949.20927,-0.011597,0.009033,-0.992249,0.190321,0.386565,-0.085191,49,277,582,5008
1644156949.257634,-0.008911,0.011536,-0.992859,0.312458,0.447634,-0.069924,62,276,564,5104
1644156949.306044,-0.010681,0.008606,-0.993408,0.35826,0.569771,-0.161527,49,273,575,5056
1644156949.354444,-0.010315,0.00824,-0.991455,0.236122,0.417099,-0.100458,49,275,577,5136
1644156949.402835,-0.010925,0.008728,-0.988342,0.251389,0.386565,-0.024122,49,275,565,5104
1644156949.451208,-0.009766,0.009155,-0.991577,0.281924,0.417099,-0.161527,58,274,569,5104
1644156949.499589,-0.008911,0.007935,-0.992798,0.388794,0.523969,-0.14626,43,269,573,5120
1644156949.547985,-0.012573,0.005859,-0.993103,0.190321,0.386565,-0.085191,48,266,564,5104
1644156949.596368,-0.00885,0.011536,-0.992188,0.388794,0.523969,-0.100458,46,276,578,5056
1644156949.645109,-0.011475,0.00824,-0.993164,0.342992,0.493435,-0.085191,52,277,561,5104
1644156949.693165,-0.007385,0.009399,-0.990356,0.281924,0.478168,-0.008855,49,268,570,5024
1644156949.743148,-0.008789,0.007202,-0.993713,0.205588,0.386565,-0.222595,46,262,576,5072
1644156949.793577,-0.010742,0.008484,-0.993408,0.159786,0.478168,-0.115725,52,280,572,5120
1644156949.843822,-0.011597,0.008972,-0.993347,0.205588,0.371298,-0.024122,47,268,572,5104
1644156949.888671,-0.009705,0.010681,-0.992004,0.312458,0.432366,-0.115725,53,266,566,5104
1644156949.983455,-0.015869,0.00824,-0.992615,0.205588,0.386565,-0.100458,46,271,573,5072
1644156950.031846,-0.011963,0.007507,-0.991394,0.419328,0.401832,-0.100458,46,276,578,5120
1644156950.08037,-0.008545,0.009094,-0.992188,0.449863,0.386565,-0.024122,60,276,576,5104
1644156950.128582,-0.01001,0.009766,-0.993713,0.190321,0.493435,-0.069924,58,266,580,5168
1644156950.176981,-0.011658,0.009338,-0.99231,0.220855,0.401832,-0.008855,59,280,579,5072
1644156950.225371,-0.010864,0.007141,-0.991577,0.373527,0.356031,-0.115725,47,277,570,5104
1644156950.273746,-0.010925,0.008484,-0.993286,0.098718,0.417099,0.036947,52,277,570,5120
1644156950.322168,-0.011169,0.008911,-0.99054,0.35826,0.447634,-0.207328,45,263,577,5104
1644156950.370535,-0.009644,0.009521,-0.992249,0.190321,0.356031,-0.054656,48,269,578,5120
1644156950.418927,-0.010376,0.007935,-0.990784,0.251389,0.386565,-0.069924,49,275,582,5072
1644156950.467306,-0.010254,0.007996,-0.991394,0.190321,0.63084,-0.085191,52,265,577,5072
1644156950.515702,-0.011353,0.009583,-0.994141,0.220855,0.432366,-0.100458,58,274,573,5072
1644156950.564112,-0.010681,0.010864,-0.990417,0.266656,0.386565,-0.176794,55,283,569,5104
1644156950.61249,-0.010376,0.008667,-0.990234,0.281924,0.279695,-0.100458,46,271,585,5168
1644156950.660873,-0.011169,0.009155,-0.990662,0.312458,0.478168,-0.176794,51,276,576,5120
1644156950.709234,-0.012451,0.00946,-0.98999,0.312458,0.356031,-0.085191,60,269,571,5056
1644156950.757646,-0.013489,0.007446,-0.993286,0.251389,0.432366,-0.039389,57,265,575,5104
1644156950.806092,-0.00946,0.009155,-0.99292,0.434595,0.386565,-0.115725,52,280,570,5056
1644156950.854866,-0.013245,0.007385,-0.991455,0.251389,0.340763,0.006412,43,274,580,5136
1644156950.904757,-0.010925,0.008484,-0.992126,0.251389,0.462901,-0.115725,49,265,579,5072
1644156950.954785,-0.01001,0.006226,-0.991394,0.205588,0.401832,-0.192061,53,271,585,5056
1644156951.063277,-0.010498,0.012329,-0.990295,0.236122,0.447634,-0.237863,51,274,573,5056
1644156951.096431,-0.009644,0.008545,-0.994446,0.312458,0.401832,-0.161527,49,277,579,5072
1644156951.144759,-0.013489,0.007141,-0.991272,0.297191,0.432366,-0.100458,38,277,582,5184
1644156951.193166,-0.012207,0.007751,-0.989807,0.220855,0.340763,-0.222595,64,277,577,5120
1644156951.241526,-0.008728,0.008667,-0.992859,0.342992,0.386565,-0.130992,48,271,571,5072
1644156951.289913,-0.013794,0.008972,-0.992249,0.159786,0.417099,-0.115725,47,277,577,5104
1644156951.3383,-0.010437,0.010193,-0.992371,0.281924,0.447634,-0.039389,55,269,576,5072
1644156951.386684,-0.010254,0.009949,-0.99115,0.220855,0.462901,-0.054656,49,273,565,5072
1644156951.435147,-0.012878,0.007446,-0.992493,0.236122,0.447634,-0.054656,51,281,573,5024
1644156951.483454,-0.012573,0.009827,-0.993408,0.266656,0.478168,-0.008855,66,275,579,5104
1644156951.532197,-0.012451,0.011902,-0.992737,0.342992,0.264427,-0.25313,53,274,573,5184
1644156951.580255,-0.008911,0.009766,-0.993103,0.220855,0.447634,-0.161527,45,270,572,5120
1644156951.630122,-0.01239,0.008972,-0.991699,0.190321,0.432366,-0.207328,52,273,572,5056
1644156951.680417,-0.009155,0.009094,-0.991028,0.236122,0.493435,-0.069924,54,270,586,5120
1644156951.725419,-0.01178,0.009033,-0.988586,0.419328,0.539237,-0.14626,51,269,571,5120
1644156951.822541,-0.010742,0.010193,-0.992432,0.205588,0.172824,-0.024122,48,281,571,5072
1644156951.870603,-0.013,0.007202,-0.993835,0.159786,0.356031,-0.069924,52,265,575,5120
1644156951.918951,-0.009033,0.01001,-0.993042,0.35826,0.539237,-0.100458,38,277,577,5072
1644156951.967377,-0.011963,0.010498,-0.993591,0.312458,0.539237,-0.192061,49,268,577,5072
1644156952.015723,-0.013611,0.006287,-0.993347,0.236122,0.447634,-0.100458,43,274,571,5120
1644156952.065321,-0.01178,0.009644,-0.992798,0.175053,0.523969,0.082748,58,266,576,5008
1644156952.112591,-0.009827,0.006775,-0.993347,0.373527,0.279695,-0.115725,45,277,579,5120
1644156952.1609,-0.012634,0.008484,-0.990906,0.312458,0.401832,-0.130992,66,273,579,5072
1644156952.209278,-0.011047,0.009949,-0.992371,0.312458,0.478168,0.006412,41,274,573,5072
1644156952.257653,-0.010864,0.009033,-0.990967,0.159786,0.432366,-0.024122,51,279,571,5104
1644156952.306069,-0.009338,0.010254,-0.992554,0.175053,0.340763,-0.115725,45,285,568,5136
1644156952.354435,-0.010193,0.012146,-0.991638,0.312458,0.539237,-0.039389,48,276,578,5104
1644156952.402845,-0.012085,0.009949,-0.993164,0.312458,0.340763,-0.008855,51,271,571,5072
1644156952.451215,-0.01239,0.008423,-0.990173,0.236122,0.554504,-0.039389,51,274,566,5104
1644156952.499615,-0.011353,0.009033,-0.991882,0.46513,0.493435,-0.100458,49,277,579,5136
1644156952.548005,-0.010254,0.007751,-0.992249,0.236122,0.478168,-0.176794,52,280,577,5136
1644156952.596385,-0.010376,0.00647,-0.992004,0.373527,0.401832,-0.115725,60,271,583,5136
1644156952.644778,-0.011047,0.010437,-0.991638,0.281924,0.432366,-0.054656,49,287,577,5056
1644156952.693179,-0.009521,0.008545,-0.993469,0.373527,0.447634,-0.192061,53,264,569,5104
1644156952.741889,-0.01178,0.009338,-0.99292,0.159786,0.432366,-0.161527,53,266,576,5024
1644156952.792926,-0.010742,0.008179,-0.994324,0.236122,0.447634,-0.085191,49,260,572,5072
1644156952.844203,-0.010315,0.008423,-0.991455,0.205588,0.447634,-0.176794,48,276,569,5072
1644156952.88838,-0.011658,0.009583,-0.992432,0.175053,0.340763,-0.069924,45,273,572,5104
1644156952.983524,-0.011536,0.01001,-0.993408,0.281924,0.417099,-0.161527,40,275,565,5120
1644156953.031914,-0.011841,0.009033,-0.993591,0.312458,0.447634,-0.176794,52,273,568,5136
1644156953.08233,-0.012939,0.007935,-0.989014,0.159786,0.539237,-0.14626,58,279,583,5072
1644156953.128667,-0.014221,0.008362,-0.991882,0.190321,0.356031,0.006412,47,275,575,5120
1644156953.177046,-0.010986,0.008301,-0.993225,0.312458,0.417099,-0.024122,58,269,580,5104
1644156953.225435,-0.011719,0.010071,-0.992126,0.266656,0.508702,-0.192061,48,271,569,5104
1644156953.27381,-0.011353,0.00885,-0.994019,0.220855,0.539237,-0.115725,53,276,573,5136
1644156953.322218,-0.011902,0.011047,-0.99115,0.281924,0.462901,0.067481,47,265,579,5024
1644156953.370596,-0.011108,0.008728,-0.992981,0.068183,0.432366,0.113282,49,277,572,5136
1644156953.418977,-0.012268,0.009705,-0.990295,0.251389,0.447634,-0.115725,48,279,576,5104
1644156953.467376,-0.012512,0.008423,-0.991943,0.190321,0.493435,-0.130992,53,274,573,5104
1644156953.515755,-0.010193,0.009521,-0.992493,0.098718,0.386565,-0.176794,46,281,573,5072
1644156953.56417,-0.012512,0.008179,-0.994019,0.236122,0.478168,-0.130992,49,260,572,5120
1644156953.612538,-0.010193,0.008423,-0.992065,0.266656,0.294962,-0.069924,53,283,571,5120
1644156953.660922,-0.012817,0.009521,-0.992676,0.236122,0.447634,-0.161527,45,282,579,5072
1644156953.709312,-0.01001,0.00769,-0.991028,0.373527,0.279695,-0.207328,51,264,580,5120
1644156953.757677,-0.008728,0.008301,-0.990173,0.312458,0.493435,-0.130992,47,273,586,5072
1644156953.806084,-0.012451,0.009644,-0.989441,0.404061,0.462901,-0.130992,51,274,569,5120
1644156953.854889,-0.011292,0.007263,-0.992065,0.266656,0.310229,-0.130992,45,275,568,5184
1644156953.904421,-0.011597,0.008789,-0.992249,0.266656,0.478168,-0.054656,51,271,578,5136
1644156953.954651,-0.011169,0.011475,-0.991333,0.236122,0.417099,-0.115725,46,283,573,5104
1644156954.063633,-0.013062,0.005371,-0.99231,0.113985,0.356031,-0.207328,58,271,576,5104
1644156954.096409,-0.010925,0.008789,-0.99292,0.297191,0.447634,-0.085191,53,279,571,5120
1644156954.145046,-0.009399,0.007812,-0.989441,0.251389,0.462901,-0.222595,48,286,573,5104
1644156954.193207,-0.010986,0.008118,-0.992249,0.327725,0.325496,-0.207328,46,269,571,5136
1644156954.241577,-0.01239,0.010376,-0.99115,0.297191,0.386565,-0.115725,57,270,575,5056
1644156954.289977,-0.014221,0.012451,-0.990662,0.159786,0.356031,0.067481,45,273,575,5120
1644156954.338347,-0.012207,0.010254,-0.993652,0.281924,0.462901,-0.039389,47,287,577,5008
1644156954.386704,-0.00946,0.008667,-0.992432,0.404061,0.417099,-0.054656,47,277,577,5072
1644156954.435167,-0.014771,0.010803,-0.992249,0.236122,0.417099,-0.115725,54,270,563,5008
1644156954.483519,-0.011536,0.008545,-0.992065,0.190321,0.401832,0.143817,41,276,576,5104
1644156954.531917,-0.009888,0.010315,-0.991333,0.297191,0.478168,-0.085191,48,259,580,5120
1644156954.580547,-0.011292,0.009949,-0.989685,0.113985,0.462901,-0.161527,55,266,571,5072
1644156954.630634,-0.013245,0.006897,-0.990845,0.190321,0.386565,-0.039389,48,269,578,5120
1644156954.680954,-0.013672,0.007507,-0.990967,0.098718,0.539237,-0.039389,47,268,577,5072
1644156954.726186,-0.009827,0.00946,-0.990173,-0.053954,0.432366,-0.283664,52,268,568,5136
1644156954.822386,-0.009827,0.007385,-0.992493,0.205588,0.417099,-0.008855,46,269,576,5120
1644156954.870629,-0.011353,0.009399,-0.993835,0.205588,0.264427,-0.039389,52,270,565,5168
1644156954.919052,-0.010559,0.011108,-0.991943,0.281924,0.386565,-0.161527,43,276,576,5120
1644156954.967405,-0.01062,0.011658,-0.993713,0.159786,0.325496,-0.024122,55,266,566,5104
1644156955.015831,-0.01178,0.010071,-0.988892,0.373527,0.432366,-0.207328,38,280,563,5104
1644156955.065385,-0.012512,0.010071,-0.992493,0.312458,0.294962,0.036947,57,270,570,5072
1644156955.112621,-0.01239,0.009155,-0.995483,0.190321,0.401832,-0.207328,47,265,570,5072
1644156955.160965,-0.01001,0.011108,-0.992493,0.007115,0.508702,-0.054656,57,270,575,5056
1644156955.209382,-0.012939,0.009338,-0.993958,0.08345,0.478168,-0.130992,51,276,580,5104
1644156955.257745,-0.012817,0.00885,-0.993164,0.281924,0.386565,-0.069924,55,266,573,5104
1644156955.306155,-0.010376,0.008484,-0.990356,0.144519,0.340763,-0.024122,53,271,578,5024
1644156955.354549,-0.009644,0.008911,-0.992004,0.144519,0.554504,-0.100458,55,266,576,5136
1644156955.402926,-0.008057,0.008789,-0.991272,0.35826,0.325496,0.006412,55,281,573,5120
1644156955.451308,-0.010498,0.008545,-0.991455,0.251389,0.417099,-0.237863,48,269,576,5008
1644156955.49968,-0.008423,0.008972,-0.990051,0.159786,0.417099,-0.054656,59,273,579,5136
1644156955.548091,-0.012573,0.008972,-0.99054,0.342992,0.340763,-0.161527,55,281,571,5136
1644156955.596486,-0.009705,0.006958,-0.991882,0.281924,0.310229,-0.100458,46,283,571,5072
1644156955.645128,-0.010254,0.008484,-0.99231,0.251389,0.325496,-0.222595,47,277,575,5104
1644156955.693289,-0.011963,0.011658,-0.991821,0.297191,0.523969,-0.054656,46,271,576,5168
1644156955.743319,-0.011414,0.010132,-0.991455,0.190321,0.356031,-0.069924,48,269,576,5104
1644156955.793556,-0.010498,0.008972,-0.989319,0.205588,0.371298,-0.039389,52,270,579,5120
1644156955.843623,-0.011902,0.011841,-0.992188,0.175053,0.356031,0.082748,43,276,573,5024
1644156955.888665,-0.014832,0.009155,-0.988953,0.327725,0.523969,-0.039389,53,274,569,5104
1644156955.983609,-0.009888,0.006897,-0.990845,0.404061,0.493435,-0.115725,45,287,568,5104
1644156956.031941,-0.015137,0.009766,-0.992737,0.220855,0.493435,-0.14626,47,275,570,5136
1644156956.08047,-0.007996,0.010254,-0.990112,0.35826,0.508702,-0.192061,53,271,573,5120
1644156956.128701,-0.012695,0.006836,-0.99231,0.205588,0.401832,-0.115725,47,268,570,5072
1644156956.177113,-0.010071,0.007385,-0.993774,0.312458,0.417099,-0.054656,45,273,575,5120
1644156956.225476,-0.008545,0.00708,-0.990967,0.144519,0.356031,-0.085191,51,274,571,5136
1644156956.273851,-0.010864,0.011169,-0.990784,0.236122,0.462901,-0.085191,49,263,575,5104
1644156956.322271,-0.010254,0.007996,-0.991211,0.342992,0.356031,-0.161527,54,273,572,5120
1644156956.370656,-0.012573,0.013367,-0.992188,0.220855,0.401832,0.204885,49,268,577,5120
1644156956.419019,-0.010437,0.010193,-0.992004,0.144519,0.310229,-0.008855,48,271,576,5120
1644156956.467425,-0.01355,0.009644,-0.99585,0.236122,0.462901,-0.085191,60,276,571,5120
1644156956.51581,-0.00769,0.007629,-0.989197,0.129252,0.325496,-0.069924,48,279,569,5104
1644156956.564203,-0.011658,0.007874,-0.993042,0.388794,0.462901,-0.100458,46,269,573,5056
1644156956.612614,-0.010986,0.009216,-0.992371,0.251389,0.493435,-0.161527,47,282,577,5104
1644156956.660947,-0.013245,0.009644,-0.993286,0.312458,0.432366,-0.130992,59,277,577,5104
1644156956.70936,-0.01355,0.010803,-0.993408,0.251389,0.371298,-0.054656,48,279,576,5104
1644156956.757717,-0.014038,0.01239,-0.990845,0.220855,0.554504,-0.161527,51,271,571,5120
1644156956.806208,-0.010376,0.009277,-0.993469,0.037649,0.417099,-0.161527,45,277,570,5120
1644156956.855106,-0.009888,0.006409,-0.989685,0.312458,0.386565,-0.008855,47,263,582,5072
1644156956.904799,-0.010437,0.008362,-0.990601,0.205588,0.646107,-0.268397,55,274,587,5168
1644156956.955329,-0.009766,0.009888,-0.989746,0.297191,0.417099,-0.14626,48,259,580,5072
1644156957.063538,-0.010437,0.008118,-0.989929,0.220855,0.539237,-0.039389,49,280,565,5072
1644156957.096507,-0.012573,0.008179,-0.993225,0.342992,0.371298,-0.039389,54,282,565,5072
1644156957.144866,-0.009827,0.00885,-0.990601,0.190321,0.417099,0.006412,52,273,577,5168
1644156957.193283,-0.00946,0.008728,-0.990723,0.312458,0.554504,-0.14626,55,271,578,5072
1644156957.241623,-0.010803,0.01001,-0.989807,0.236122,0.569771,-0.130992,46,283,578,5072
1644156957.289994,-0.010254,0.009521,-0.99292,0.205588,0.447634,-0.192061,53,279,578,5072
1644156957.338411,-0.009155,0.009216,-0.988892,0.327725,0.401832,-0.054656,54,270,568,5072
1644156957.386808,-0.010803,0.007935,-0.992737,0.297191,0.401832,-0.115725,48,269,578,5072
1644156957.435186,-0.007751,0.009705,-0.992188,0.190321,0.325496,-0.008855,47,277,565,5056
1644156957.483766,-0.011047,0.008606,-0.993713,0.220855,0.340763,-0.14626,49,265,572,5120
1644156957.532238,-0.010803,0.009949,-0.989075,0.220855,0.356031,-0.054656,47,265,563,5136
1644156957.58075,-0.009216,0.00946,-0.990173,0.113985,0.493435,-0.207328,48,274,576,5072
1644156957.630782,-0.008484,0.010071,-0.992859,0.190321,0.432366,-0.14626,49,265,577,5104
1644156957.681047,-0.013855,0.010681,-0.991821,0.419328,0.340763,-0.14626,47,275,586,5104
1644156957.726212,-0.008362,0.007202,-0.990479,0.281924,0.569771,-0.268397,45,275,572,5072
1644156957.822439,-0.010559,0.008179,-0.993774,0.251389,0.432366,-0.039389,54,265,568,5120
1644156957.870703,-0.01062,0.008606,-0.992432,0.190321,0.447634,-0.054656,48,269,569,5136
1644156957.919075,-0.013428,0.009827,-0.990967,0.205588,0.432366,-0.14626,42,273,575,5056
1644156957.967497,-0.010864,0.008606,-0.991089,0.190321,0.539237,-0.161527,54,273,577,5072
1644156958.015852,-0.012451,0.009827,-0.989746,0.327725,0.401832,-0.161527,55,274,571,5008
1644156958.068126,-0.008362,0.009338,-0.992249,0.266656,0.356031,-0.100458,48,274,571,5104
1644156958.112659,-0.010803,0.008545,-0.991211,0.419328,0.417099,-0.161527,53,269,569,5104
1644156958.161002,-0.007324,0.007507,-0.989136,0.266656,0.447634,-0.008855,59,277,570,5008
1644156958.209398,-0.01178,0.009338,-0.991821,0.236122,0.523969,-0.237863,59,275,575,5056
1644156958.257782,-0.01001,0.006714,-0.989868,0.205588,0.523969,-0.176794,55,279,576,5136
1644156958.306154,-0.012268,0.009094,-0.991943,0.266656,0.294962,-0.069924,57,282,575,5104
1644156958.354666,-0.012268,0.01001,-0.992065,0.129252,0.432366,-0.161527,46,269,578,5120
1644156958.402973,-0.009644,0.012207,-0.991394,0.190321,0.371298,0.082748,51,274,576,5104
1644156958.451332,-0.010498,0.007263,-0.991577,0.266656,0.478168,-0.069924,55,274,585,5072
1644156958.499746,-0.010681,0.009949,-0.992371,0.068183,0.417099,-0.176794,51,279,571,5072
1644156958.548083,-0.009216,0.012207,-0.992615,0.190321,0.356031,-0.024122,55,271,573,5136
1644156958.5965,-0.011719,0.008362,-0.989685,0.251389,0.325496,-0.130992,47,280,572,5008
1644156958.644873,-0.011841,0.009155,-0.991272,0.327725,0.325496,-0.100458,59,275,577,5024
1644156958.693267,-0.011536,0.009644,-0.994629,0.175053,0.462901,-0.054656,52,277,582,5056
1644156958.74179,-0.008667,0.00769,-0.992126,0.251389,0.386565,-0.176794,45,280,565,5136
1644156958.792287,-0.009766,0.009338,-0.990967,0.129252,0.401832,-0.069924,51,271,585,5184
1644156958.843864,-0.010925,0.009827,-0.993042,0.388794,0.493435,-0.14626,53,266,566,5072
1644156958.888241,-0.010437,0.01001,-0.990112,0.236122,0.356031,-0.130992,53,269,571,5056
1644156958.98364,-0.007935,0.01001,-0.990662,0.281924,0.325496,-0.176794,53,274,573,5072
1644156959.032029,-0.011108,0.009338,-0.992249,0.281924,0.462901,-0.054656,51,271,566,5056
1644156959.08424,-0.012756,0.010498,-0.990906,0.35826,0.432366,0.006412,51,276,576,5120
1644156959.128805,-0.012024,0.007629,-0.989319,0.281924,0.523969,-0.100458,53,274,571,5104
1644156959.177121,-0.012451,0.008667,-0.988403,0.236122,0.478168,-0.024122,43,274,571,5024
1644156959.225538,-0.013672,0.007751,-0.990723,0.342992,0.340763,-0.054656,45,268,565,5056
1644156959.273915,-0.011414,0.00885,-0.991028,0.266656,0.447634,-0.085191,46,276,576,5184
1644156959.322337,-0.009827,0.009644,-0.992981,0.312458,0.371298,0.052214,41,274,573,5104
1644156959.370706,-0.012634,0.008484,-0.991272,0.205588,0.432366,-0.039389,51,281,566,5072
1644156959.419104,-0.012146,0.00946,-0.99176,0.251389,0.493435,-0.100458,55,269,566,5072
1644156959.467489,-0.00647,0.010742,-0.993591,0.297191,0.462901,-0.100458,51,279,578,5136
1644156959.515876,-0.013428,0.009644,-0.989685,0.281924,0.386565,-0.161527,62,279,576,5072
1644156959.564265,-0.01123,0.012268,-0.98999,0.297191,0.417099,-0.054656,57,273,570,5072
1644156959.612671,-0.009094,0.009705,-0.990601,0.312458,0.417099,-0.115725,57,277,575,5072
1644156959.661029,-0.012085,0.009033,-0.992859,0.388794,0.493435,-0.14626,54,273,577,5104
1644156959.709427,-0.009338,0.007874,-0.992126,0.266656,0.523969,-0.024122,43,276,571,5104
1644156959.757786,-0.010803,0.011292,-0.989502,0.327725,0.386565,-0.130992,49,277,575,5072
1644156959.806171,-0.009705,0.009583,-0.992126,0.220855,0.447634,-0.130992,46,281,583,5104
1644156959.854691,-0.007446,0.009338,-0.99054,0.388794,0.340763,-0.085191,49,280,579,5168
1644156959.904357,-0.011047,0.01123,-0.993164,0.297191,0.554504,0.006412,54,270,577,5120
1644156959.954576,-0.008057,0.010254,-0.990417,0.251389,0.447634,-0.130992,48,271,576,5056
1644156960.004754,-0.006348,0.007935,-0.991089,0.266656,0.462901,-0.069924,54,270,577,5072
1644156960.098034,-0.009827,0.00647,-0.989868,0.327725,0.493435,-0.115725,42,270,575,5056
1644156960.144939,-0.009827,0.012329,-0.989014,0.297191,0.371298,0.052214,49,273,568,5136
1644156960.1933,-0.009827,0.010498,-0.992065,0.266656,0.508702,0.006412,57,273,572,5104
1644156960.241665,-0.010071,0.01062,-0.991516,0.190321,0.462901,-0.100458,60,264,578,5136
1644156960.290074,-0.010132,0.008362,-0.992676,0.113985,0.294962,-0.100458,53,269,573,5136
1644156960.338456,-0.009338,0.010376,-0.994141,0.236122,0.401832,-0.222595,51,269,566,5104
1644156960.38685,-0.008057,0.010925,-0.990723,0.312458,0.508702,-0.14626,52,277,575,5136
1644156960.435271,-0.010742,0.011353,-0.992065,0.266656,0.462901,-0.130992,54,270,570,5120
1644156960.483638,-0.009033,0.007751,-0.991699,0.190321,0.478168,-0.008855,53,281,569,5168
1644156960.532032,-0.010254,0.007996,-0.992432,0.190321,0.310229,-0.069924,52,268,572,5056
1644156960.580393,-0.012268,0.010254,-0.99115,0.251389,0.523969,-0.176794,49,277,572,5184
1644156960.62878,-0.015076,0.012634,-0.992493,0.098718,0.401832,-0.100458,52,273,584,5104
1644156960.677176,-0.009033,0.010254,-0.989868,0.220855,0.325496,0.12855,60,279,573,5104
1644156960.725562,-0.011414,0.011414,-0.990173,0.312458,0.569771,-0.100458,47,277,582,5120
1644156960.773956,-0.009521,0.010498,-0.990662,0.175053,0.371298,-0.14626,46,269,571,5056
1644156960.822366,-0.010986,0.00885,-0.990479,0.190321,0.371298,-0.176794,45,280,568,5136
1644156960.87078,-0.013,0.008179,-0.991516,0.144519,0.310229,-0.100458,47,263,572,5168
1644156960.91918,-0.010498,0.011658,-0.992249,0.388794,0.432366,-0.024122,53,279,576,5056
1644156960.967837,-0.01062,0.009949,-0.990356,0.327725,0.340763,-0.207328,52,268,586,5056
1644156961.018182,-0.01001,0.008118,-0.990234,0.220855,0.478168,-0.207328,46,276,578,5104
1644156961.085263,-0.009521,0.009583,-0.992126,0.281924,0.417099,-0.161527,53,276,583,5056
1644156961.11415,-0.010498,0.011536,-0.989624,0.266656,0.508702,-0.085191,48,276,583,5104
1644156961.209481,-0.009949,0.011658,-0.993835,0.35826,0.325496,-0.054656,43,264,580,5104
1644156961.257856,-0.009033,0.009949,-0.991943,0.342992,0.478168,-0.008855,45,265,577,5104
1644156961.30624,-0.013123,0.011658,-0.991028,0.266656,0.462901,-0.069924,42,275,572,5072
1644156961.354654,-0.009644,0.010437,-0.991394,0.281924,0.386565,-0.130992,46,276,580,5104
1644156961.40306,-0.010681,0.010376,-0.99231,0.266656,0.447634,-0.054656,51,271,580,5104
1644156961.451427,-0.010803,0.012573,-0.990356,0.190321,0.356031,0.052214,51,286,576,5072
1644156961.499791,-0.007324,0.010315,-0.992004,0.327725,0.310229,-0.115725,55,281,564,5120
1644156961.548216,-0.011292,0.008606,-0.995178,0.342992,0.432366,-0.100458,60,264,576,5104
1644156961.596591,-0.012451,0.009521,-0.991943,0.297191,0.386565,-0.161527,53,269,573,5072
1644156961.645109,-0.010437,0.009277,-0.992004,0.312458,0.539237,-0.192061,51,279,564,5120
1644156961.69338,-0.009888,0.007141,-0.991943,0.113985,0.447634,-0.039389,52,265,575,5168
1644156961.741754,-0.01239,0.009766,-0.992798,0.098718,0.432366,-0.085191,55,279,573,5184
1644156961.790147,-0.010498,0.008606,-0.992432,0.297191,0.508702,-0.130992,48,271,573,5072
1644156961.83854,-0.01062,0.009583,-0.989258,0.266656,0.493435,-0.14626,49,290,572,5104
1644156961.886925,-0.009094,0.012085,-0.991943,0.08345,0.417099,-0.115725,47,268,582,5168
1644156961.935308,-0.010864,0.009583,-0.991943,0.190321,0.356031,-0.161527,51,281,585,5120
1644156961.983696,-0.012268,0.010864,-0.991882,0.342992,0.432366,-0.085191,47,268,568,5120
1644156962.033104,-0.010986,0.008728,-0.992371,0.098718,0.371298,-0.085191,53,274,564,5120
1644156962.08729,-0.011475,0.005127,-0.993652,0.35826,0.371298,-0.161527,45,273,572,5104
1644156962.132277,-0.009949,0.011169,-0.991516,0.35826,0.417099,0.036947,51,269,571,5120
1644156962.182487,-0.011292,0.009766,-0.990967,0.175053,0.310229,-0.008855,47,277,575,5056
1644156962.227348,-0.012695,0.008728,-0.990356,0.342992,0.523969,-0.008855,53,279,580,5056
1644156962.322534,-0.011353,0.01001,-0.99115,0.159786,0.478168,-0.054656,53,271,571,5104
1644156962.370794,-0.012512,0.008789,-0.991577,0.159786,0.554504,-0.100458,57,268,575,5056
1644156962.419183,-0.011292,0.009766,-0.992615,0.129252,0.478168,-0.176794,57,275,575,5104
1644156962.467582,-0.008728,0.008362,-0.991455,0.175053,0.432366,-0.069924,57,277,579,5072
1644156962.515964,-0.011353,0.008911,-0.991455,0.236122,0.447634,0.036947,48,276,569,5104
1644156962.564351,-0.007324,0.008911,-0.988953,0.281924,0.539237,-0.008855,49,273,575,5072
1644156962.612743,-0.011841,0.007629,-0.992371,0.220855,0.310229,-0.14626,47,282,575,5120
1644156962.66112,-0.010681,0.010315,-0.992798,0.266656,0.432366,-0.161527,46,274,571,5120
1644156962.709518,-0.009888,0.007019,-0.992188,0.205588,0.401832,-0.054656,51,274,571,5120
1644156962.757907,-0.008728,0.008606,-0.992004,0.297191,0.310229,-0.069924,45,277,572,5120
1644156962.806296,-0.013123,0.010742,-0.991455,0.159786,0.462901,-0.176794,52,268,579,5024
1644156962.854741,-0.01062,0.01001,-0.990601,0.266656,0.417099,-0.192061,52,268,575,5136
1644156962.903092,-0.011414,0.008789,-0.991577,0.098718,0.493435,-0.115725,49,270,575,5136
1644156962.951442,-0.00769,0.008972,-0.992737,0.220855,0.371298,-0.069924,46,274,573,5072
1644156962.999836,-0.009705,0.007935,-0.991577,0.266656,0.478168,-0.115725,42,270,579,5168
1644156963.066987,-0.007996,0.012146,-0.987549,0.297191,0.401832,0.052214,52,277,584,5136
1644156963.096572,-0.011963,0.01355,-0.989929,0.312458,0.371298,0.006412,48,279,576,5136
1644156963.145279,-0.010132,0.009399,-0.991638,0.205588,0.386565,-0.054656,45,277,575,5184
1644156963.193965,-0.012146,0.009155,-0.991394,0.159786,0.386565,-0.024122,48,274,576,5072
1644156963.244514,-0.01123,0.011047,-0.992615,0.037649,0.478168,-0.192061,42,280,586,5072
1644156963.294645,-0.012146,0.007446,-0.992859,0.297191,0.554504,-0.161527,52,275,568,5120
1644156963.339866,-0.010132,0.012573,-0.992615,0.266656,0.401832,-0.115725,47,265,570,5120
1644156963.435412,-0.013123,0.010559,-0.99176,0.312458,0.432366,-0.008855,47,282,577,5120
1644156963.483697,-0.010986,0.008484,-0.99115,0.327725,0.386565,-0.161527,45,270,582,5120
1644156963.532072,-0.009888,0.00885,-0.992676,0.251389,0.523969,-0.14626,49,270,577,5056
1644156963.580449,-0.010437,0.012207,-0.991882,0.35826,0.432366,-0.115725,58,266,573,5200
1644156963.628836,-0.007141,0.011353,-0.98877,0.113985,0.478168,-0.069924,54,270,565,5072
1644156963.677225,-0.012146,0.00885,-0.993408,0.35826,0.447634,-0.069924,49,280,575,5072
1644156963.725614,-0.009094,0.012146,-0.99115,0.175053,0.554504,-0.14626,38,275,572,5120
1644156963.77402,-0.012146,0.009949,-0.992004,0.297191,0.371298,0.036947,58,269,573,5056
1644156963.822454,-0.009155,0.009888,-0.991638,0.220855,0.523969,-0.085191,51,276,569,5056
1644156963.870831,-0.010864,0.008301,-0.990479,0.251389,0.386565,-0.085191,59,273,561,5104
1644156963.919218,-0.011475,0.00946,-0.990173,0.236122,0.310229,-0.192061,49,280,568,5168
1644156963.967596,-0.010071,0.011047,-0.989685,0.281924,0.432366,-0.237863,53,283,578,5104
1644156964.015981,-0.010986,0.007751,-0.990784,0.129252,0.432366,-0.008855,53,271,566,5184
1644156964.079134,-0.008545,0.010681,-0.991089,0.35826,0.279695,-0.085191,51,271,578,5120
1644156964.112748,-0.010498,0.012939,-0.991699,0.205588,0.523969,-0.100458,49,280,579,5168
1644156964.161087,-0.015198,0.006897,-0.99054,0.159786,0.386565,-0.100458,51,269,578,5056
1644156964.209479,-0.014648,0.008667,-0.990112,0.266656,0.432366,-0.130992,52,273,568,5104
1644156964.257929,-0.009521,0.009277,-0.99054,0.205588,0.340763,-0.008855,55,262,578,5104
1644156964.308122,-0.008972,0.006165,-0.990112,0.190321,0.401832,0.082748,49,270,561,5072
1644156964.358469,-0.012024,0.010559,-0.994446,0.144519,0.462901,-0.115725,45,277,572,5072
1644156964.403613,-0.00885,0.00592,-0.990417,0.129252,0.432366,-0.024122,35,265,572,5072
1644156964.499815,-0.010559,0.009094,-0.990845,0.342992,0.493435,-0.024122,55,271,571,5104
1644156964.548198,-0.010315,0.008728,-0.991028,0.404061,0.432366,-0.130992,47,273,575,5056
1644156964.596581,-0.010925,0.009888,-0.992371,0.175053,0.417099,-0.115725,61,280,570,5104
1644156964.645244,-0.009888,0.010559,-0.99176,0.388794,0.508702,-0.054656,57,273,575,5104
1644156964.693386,-0.010132,0.013062,-0.990479,0.266656,0.386565,0.006412,61,273,577,5120
1644156964.741783,-0.009399,0.008423,-0.99231,0.342992,0.462901,-0.161527,49,265,577,5104
1644156964.790161,-0.009766,0.010071,-0.990295,0.205588,0.417099,-0.085191,55,266,578,5136
1644156964.838579,-0.009827,0.010071,-0.989075,0.190321,0.264427,-0.192061,47,282,584,5072
1644156964.88698,-0.010986,0.010742,-0.991394,0.205588,0.539237,-0.115725,53,271,576,5072
1644156964.935355,-0.009216,0.011047,-0.990723,0.190321,0.585038,0.006412,60,266,585,5024
1644156964.983757,-0.010315,0.009705,-0.993225,0.404061,0.401832,-0.161527,53,279,571,5120
1644156965.032246,-0.013794,0.008911,-0.992493,0.297191,0.417099,-0.14626,49,265,568,5072
1644156965.085538,-0.008484,0.008606,-0.991394,0.266656,0.539237,-0.024122,51,271,578,5120
1644156965.12888,-0.011841,0.008545,-0.992371,0.281924,0.447634,0.052214,42,268,579,5104
1644156965.17726,-0.009705,0.010498,-0.991394,0.190321,0.310229,-0.192061,42,270,570,5136
1644156965.225651,-0.009155,0.011963,-0.989624,0.281924,0.432366,-0.176794,51,266,576,5136
1644156965.274049,-0.010315,0.010681,-0.990295,0.266656,0.508702,-0.207328,52,275,570,5104
1644156965.32251,-0.012146,0.009155,-0.993225,0.342992,0.493435,-0.054656,52,268,577,5120
1644156965.37127,-0.011414,0.010132,-0.989197,0.266656,0.386565,-0.161527,62,274,578,5104
1644156965.421829,-0.010742,0.009155,-0.991943,0.190321,0.417099,-0.207328,53,283,576,5024
1644156965.471853,-0.007385,0.009399,-0.992188,0.236122,0.386565,-0.161527,52,280,584,5104
1644156965.517197,-0.009949,0.008118,-0.990723,0.205588,0.569771,-0.039389,57,265,577,5120
1644156965.612745,-0.009033,0.009583,-0.992249,0.281924,0.539237,-0.054656,49,273,570,5168
1644156965.661145,-0.008484,0.009521,-0.99115,0.098718,0.478168,-0.054656,54,275,579,5056
1644156965.709524,-0.010132,0.010193,-0.991455,0.266656,0.478168,-0.115725,54,270,568,5072
1644156965.757908,-0.01001,0.010986,-0.991638,0.175053,0.340763,-0.024122,47,273,565,5072
1644156965.806279,-0.011719,0.00824,-0.991028,0.159786,0.615573,0.021679,59,277,572,5104
1644156965.854749,-0.010925,0.009583,-0.990112,0.251389,0.462901,-0.085191,43,276,569,5120
1644156965.903147,-0.012878,0.008789,-0.989563,0.129252,0.462901,-0.039389,46,276,578,4960
1644156965.951525,-0.009033,0.010498,-0.98999,0.220855,0.386565,-0.14626,52,277,579,5184
1644156965.999865,-0.013855,0.007385,-0.99292,0.205588,0.554504,-0.100458,47,268,572,5072
1644156966.061671,-0.009155,0.012695,-0.992004,0.144519,0.294962,-0.054656,57,273,570,5072
1644156966.096663,-0.013489,0.011963,-0.991089,0.251389,0.691908,0.021679,49,270,582,5120
1644156966.145178,-0.010193,0.009949,-0.990417,0.144519,0.523969,-0.008855,47,285,584,5120
1644156966.193419,-0.012085,0.011047,-0.988647,0.159786,0.447634,-0.024122,58,276,573,5024
1644156966.241776,-0.01001,0.008362,-0.98999,0.129252,0.340763,-0.069924,57,275,577,5136
1644156966.290196,-0.007324,0.011108,-0.988464,0.281924,0.172824,-0.176794,48,274,571,5104
1644156966.338576,-0.012634,0.009338,-0.991516,0.342992,0.432366,-0.054656,52,268,586,5120
1644156966.386961,-0.012939,0.007446,-0.992371,0.449863,0.462901,-0.008855,41,281,573,5136
1644156966.435348,-0.010925,0.012268,-0.991211,0.297191,0.508702,-0.069924,47,265,570,5072
1644156966.483736,-0.011414,0.009644,-0.994568,0.205588,0.356031,-0.039389,51,276,573,5008
1644156966.532232,-0.011963,0.014832,-0.99176,0.297191,0.401832,-0.14626,47,265,572,5104
1644156966.582355,-0.012939,0.009705,-0.993225,0.159786,0.462901,-0.130992,59,273,575,5120
1644156966.632772,-0.009155,0.009583,-0.993225,0.327725,0.447634,-0.25313,47,277,570,5184
1644156966.677878,-0.008728,0.007935,-0.986267,0.113985,0.523969,-0.024122,47,273,565,5136
1644156966.774083,-0.010986,0.00946,-0.989197,0.281924,0.478168,-0.100458,57,270,572,5056
1644156966.82247,-0.012146,0.006897,-0.99408,0.175053,0.294962,-0.069924,60,274,576,5104
1644156966.870884,-0.009888,0.010681,-0.990112,0.327725,0.63084,-0.024122,52,268,565,5104
1644156966.919279,-0.008057,0.008118,-0.989258,0.220855,0.447634,-0.100458,51,266,576,5024
1644156966.967652,-0.01062,0.013489,-0.991943,0.35826,0.447634,-0.115725,48,271,566,5120
1644156967.016029,-0.010132,0.010376,-0.989624,0.205588,0.310229,-0.115725,51,264,578,5008
1644156967.064854,-0.011536,0.009216,-0.99176,0.159786,0.310229,-0.130992,47,280,577,5104
1644156967.112836,-0.010376,0.011841,-0.987305,0.312458,0.294962,-0.222595,49,268,570,5104
1644156967.161181,-0.01416,0.013428,-0.990051,0.419328,0.356031,-0.039389,42,268,579,5056
1644156967.209562,-0.012878,0.01062,-0.991455,0.312458,0.508702,-0.130992,45,263,572,5104
1644156967.257938,-0.009216,0.010376,-0.99353,0.297191,0.325496,-0.130992,51,271,562,5056
