epoch,acc_x,acc_y,acc_z,rot_x,rot_y,rot_z,mag_x,mag_y,mag_z,temp
1644188100.037741,-0.008789,0.00708,-0.992493,0.281924,0.310229,-0.161527,54,277,586,6240
1644188100.09185,-0.010376,0.011169,-0.988586,0.266656,0.371298,-0.039389,42,277,586,6224
1644188100.135808,-0.00885,0.008728,-0.990601,0.113985,0.462901,-0.069924,62,271,587,6192
1644188100.185741,-0.008789,0.007446,-0.993225,0.113985,0.294962,-0.25313,51,274,571,6224
1644188100.235828,-0.010071,0.008301,-0.990967,0.205588,0.401832,-0.130992,59,273,579,6256
1644188100.285352,-0.008301,0.010681,-0.991577,0.342992,0.264427,-0.176794,52,270,593,6224
1644188100.332967,-0.011047,0.010071,-0.992981,0.297191,0.417099,-0.14626,46,269,592,6224
1644188100.424908,-0.005676,0.009277,-0.994202,0.175053,0.218626,-0.024122,54,275,579,6256
1644188100.473267,-0.003967,0.009827,-0.993103,0.327725,0.493435,-0.039389,35,270,577,6256
1644188100.521625,-0.006897,0.008301,-0.993774,0.342992,0.539237,-0.192061,49,270,575,6224
1644188100.570022,-0.007935,0.010559,-0.992493,0.007115,0.508702,-0.192061,43,271,585,6192
1644188100.618389,-0.010254,0.011108,-0.990356,0.281924,0.386565,-0.024122,55,279,583,6256
1644188100.666801,-0.007202,0.009033,-0.993958,0.159786,0.447634,-0.054656,46,276,578,6240
1644188100.715187,-0.00647,0.010986,-0.989746,0.144519,0.371298,-0.237863,49,273,584,6224
1644188100.763582,-0.010132,0.01239,-0.988342,0.098718,0.371298,-0.130992,42,280,579,6240
1644188100.811999,-0.009827,0.007507,-0.990906,0.205588,0.279695,-0.161527,52,273,584,6224
1644188100.860421,-0.007141,0.009583,-0.989502,0.205588,0.386565,-0.176794,51,279,587,6256
1644188100.90882,-0.007446,0.009033,-0.987305,0.297191,0.371298,0.036947,52,275,579,6224
1644188100.957204,-0.00647,0.010254,-0.992004,0.327725,0.279695,-0.14626,48,276,585,6224
1644188101.005578,-0.008179,0.007812,-0.993408,0.236122,0.493435,-0.207328,48,286,578,6192
1644188101.060153,-0.010864,0.008911,-0.989624,0.236122,0.493435,0.052214,47,263,586,6240
1644188101.102423,-0.009521,0.007751,-0.993835,0.220855,0.401832,-0.039389,49,277,582,6224
1644188101.150735,-0.009521,0.008362,-0.991333,0.190321,0.386565,-0.069924,48,271,576,6224
1644188101.199126,-0.005859,0.00946,-0.990295,0.251389,0.569771,-0.100458,38,273,586,6224
1644188101.247497,-0.009949,0.009827,-0.991333,0.144519,0.279695,-0.024122,43,269,587,6224
1644188101.296246,-0.006836,0.008484,-0.989929,0.113985,0.462901,-0.054656,57,270,579,6176
1644188101.346682,-0.010986,0.010193,-0.991516,0.159786,0.432366,-0.100458,47,275,589,6224
1644188101.396763,-0.006104,0.011353,-0.99176,0.251389,0.417099,-0.130992,48,279,583,6240
1644188101.441828,-0.008545,0.012878,-0.991211,0.327725,0.356031,-0.130992,47,265,589,6192
1644188101.537868,-0.006653,0.007446,-0.990967,0.129252,0.432366,-0.14626,43,274,583,6128
1644188101.586261,-0.008667,0.010376,-0.990051,0.144519,0.417099,-0.085191,51,266,580,6256
1644188101.634891,-0.008179,0.011108,-0.991882,0.312458,0.554504,-0.283664,55,281,583,6160
1644188101.68306,-0.009827,0.01062,-0.991272,0.144519,0.432366,-0.069924,58,283,580,6256
1644188101.731454,-0.009399,0.005798,-0.994202,0.205588,0.417099,-0.130992,42,280,589,6256
1644188101.779842,-0.008728,0.006958,-0.991028,0.281924,0.523969,-0.176794,51,271,578,6176
1644188101.828236,-0.007996,0.011108,-0.990295,0.251389,0.218626,-0.130992,48,274,580,6256
1644188101.876678,-0.009705,0.006592,-0.991455,0.404061,0.432366,-0.039389,43,279,583,6160
1644188101.925198,-0.010925,0.008057,-0.990723,0.144519,0.371298,-0.100458,45,263,577,6240
1644188101.973482,-0.005859,0.008423,-0.990479,0.266656,0.462901,0.052214,54,282,579,6224
1644188102.021857,-0.01123,0.011536,-0.990112,0.098718,0.371298,-0.100458,49,277,591,6224
1644188102.092844,-0.009583,0.008118,-0.992554,0.205588,0.432366,-0.115725,47,270,584,6224
1644188102.12207,-0.009888,0.009033,-0.992126,0.113985,0.340763,0.067481,48,279,571,6256
1644188102.171297,-0.008423,0.007874,-0.992188,0.175053,0.478168,-0.085191,49,282,577,6224
1644188102.216448,-0.009583,0.009888,-0.992065,0.251389,0.432366,-0.115725,45,277,579,6224
1644188102.312247,-0.007874,0.009949,-0.992859,0.220855,0.218626,-0.054656,58,264,578,6256
1644188102.360542,-0.009644,0.008667,-0.989868,0.129252,0.371298,-0.192061,54,277,586,6224
1644188102.408951,-0.010315,0.008423,-0.990845,0.144519,0.417099,-0.100458,48,274,585,6240
1644188102.457345,-0.008972,0.007751,-0.994263,0.266656,0.447634,-0.115725,45,273,584,6224
1644188102.505719,-0.01001,0.009338,-0.991089,0.175053,0.585038,-0.130992,58,283,583,6240
1644188102.554129,-0.008728,0.009216,-0.991699,0.327725,0.432366,-0.069924,49,275,582,6160
1644188102.602585,-0.008728,0.007812,-0.988098,0.251389,0.493435,-0.14626,51,271,590,6224
1644188102.650894,-0.008545,0.01123,-0.991699,-0.069221,0.432366,0.006412,54,275,589,6224
1644188102.699321,-0.011292,0.007263,-0.990967,0.175053,0.325496,-0.054656,52,277,582,6224
1644188102.747691,-0.008789,0.008118,-0.992249,0.327725,0.432366,-0.039389,49,273,575,6192
1644188102.796091,-0.009766,0.009094,-0.991028,0.098718,0.585038,-0.039389,49,273,582,6288
1644188102.844511,-0.009216,0.007263,-0.991394,0.236122,0.417099,-0.039389,47,275,579,6256
1644188102.89296,-0.007202,0.008423,-0.991028,0.205588,0.325496,-0.069924,47,268,584,6176
1644188102.941317,-0.009766,0.009583,-0.989868,0.327725,0.432366,-0.207328,43,271,594,6224
1644188102.989723,-0.00592,0.010254,-0.991028,0.159786,0.356031,-0.085191,47,273,577,6240
1644188103.038112,-0.008667,0.01062,-0.991882,0.159786,0.340763,-0.130992,49,277,582,6240
1644188103.086554,-0.006775,0.007019,-0.990051,0.312458,0.340763,0.036947,55,271,587,6304
1644188103.134867,-0.009399,0.00885,-0.992249,0.281924,0.279695,-0.192061,48,279,578,6224
1644188103.183299,-0.009399,0.007019,-0.989502,0.266656,0.401832,-0.130992,42,270,582,6224
1644188103.232695,-0.008301,0.010986,-0.99292,0.129252,0.478168,-0.085191,53,281,583,6224
1644188103.283333,-0.00769,0.008179,-0.992554,0.236122,0.401832,-0.161527,48,274,583,6256
1644188103.333513,-0.008545,0.00885,-0.98999,0.236122,0.356031,-0.024122,65,274,587,6192
1644188103.378107,-0.008667,0.010864,-0.991089,0.312458,0.417099,-0.176794,43,279,583,6192
1644188103.473659,-0.010681,0.006226,-0.990479,0.144519,0.218626,-0.207328,40,268,584,6224
1644188103.522037,-0.012573,0.008545,-0.989563,0.251389,0.371298,-0.085191,43,279,585,6288
1644188103.570416,-0.009277,0.00531,-0.994141,0.281924,0.294962,0.006412,52,280,589,6224
1644188103.618817,-0.009521,0.010376,-0.991577,0.113985,0.264427,-0.039389,48,271,585,6256
1644188103.667212,-0.005554,0.008667,-0.990356,0.281924,0.432366,-0.024122,47,277,589,6192
1644188103.715611,-0.006897,0.007996,-0.992981,0.251389,0.279695,-0.161527,49,273,589,6256
1644188103.76398,-0.00885,0.00946,-0.989868,0.159786,0.417099,-0.008855,49,270,596,6240
1644188103.812416,-0.00708,0.011353,-0.99115,0.175053,0.386565,-0.161527,47,282,593,6160
1644188103.86079,-0.007935,0.009216,-0.991516,0.281924,0.478168,-0.024122,43,279,578,6240
1644188103.909197,-0.008728,0.011597,-0.99292,0.236122,0.325496,-0.237863,43,269,580,6224
1644188103.957577,-0.009583,0.009338,-0.991516,0.281924,0.401832,-0.100458,58,279,585,6192
1644188104.005978,-0.010254,0.006714,-0.994995,0.236122,0.554504,-0.176794,47,273,577,6224
1644188104.065529,-0.009521,0.011597,-0.99054,0.266656,0.371298,-0.222595,52,265,582,6192
1644188104.102741,-0.007751,0.00946,-0.994629,0.297191,0.325496,-0.039389,62,269,587,6240
1644188104.151102,-0.007446,0.009338,-0.990051,0.281924,0.417099,-0.14626,46,276,587,6240
1644188104.199505,-0.009094,0.01178,-0.992432,0.190321,0.340763,-0.115725,39,286,578,6240
1644188104.247899,-0.00708,0.007263,-0.992371,0.205588,0.401832,-0.069924,46,274,576,6192
1644188104.296272,-0.009155,0.010132,-0.990601,0.190321,0.386565,0.067481,49,270,586,6224
1644188104.344911,-0.006287,0.009949,-0.991333,0.205588,0.417099,-0.085191,48,274,585,6224
1644188104.39425,-0.008545,0.008911,-0.98938,0.281924,0.294962,-0.176794,49,277,579,6160
1644188104.444497,-0.009338,0.008667,-0.992981,0.205588,0.325496,-0.115725,45,270,586,6192
1644188104.495508,-0.009583,0.008667,-0.993958,0.159786,0.203359,0.036947,46,271,587,6256
1644188104.586622,-0.006042,0.009338,-0.992432,0.190321,0.325496,-0.008855,41,264,578,6256
1644188104.635606,-0.009521,0.006836,-0.992188,0.281924,0.310229,-0.024122,47,268,577,6176
1644188104.68343,-0.00708,0.009399,-0.991272,0.175053,0.508702,-0.207328,57,273,579,6176
1644188104.731822,-0.009033,0.011841,-0.992371,0.220855,0.371298,-0.14626,62,271,590,6192
1644188104.78021,-0.009277,0.010803,-0.993042,0.205588,0.264427,-0.085191,43,269,587,6128
1644188104.828641,-0.00708,0.012817,-0.990356,0.327725,0.417099,-0.130992,45,280,586,6224
1644188104.877017,-0.007751,0.00946,-0.992493,0.46513,0.386565,-0.161527,40,277,575,6176
1644188104.925431,-0.009827,0.00824,-0.992432,0.236122,0.493435,0.021679,46,274,594,6224
1644188104.973822,-0.008118,0.009216,-0.992065,0.144519,0.371298,-0.054656,45,280,577,6256
1644188105.022328,-0.008545,0.009399,-0.991577,0.236122,0.493435,-0.115725,48,274,573,6224
1644188105.08193,-0.00647,0.011414,-0.991028,0.175053,0.371298,0.036947,41,266,585,6224
1644188105.118987,-0.00946,0.007935,-0.993774,0.297191,0.24916,-0.161527,52,273,593,6256
1644188105.167363,-0.008728,0.009155,-0.993408,0.175053,0.417099,-0.115725,54,277,579,6304
1644188105.215746,-0.006714,0.011292,-0.993774,0.236122,0.432366,-0.054656,43,279,590,6224
1644188105.264147,-0.008057,0.007568,-0.991272,0.236122,0.417099,-0.100458,48,276,597,6128
1644188105.312555,-0.005737,0.010132,-0.993408,0.266656,0.462901,-0.054656,47,280,582,6224
1644188105.360922,-0.009216,0.013977,-0.989868,0.175053,0.417099,0.021679,47,273,589,6192
1644188105.409322,-0.00769,0.012146,-0.993164,0.266656,0.508702,-0.054656,49,280,586,6192
1644188105.457734,-0.009827,0.008606,-0.993713,0.068183,0.523969,-0.100458,42,273,579,6224
1644188105.507699,-0.007874,0.009399,-0.992493,0.190321,0.218626,0.082748,52,270,577,6240
1644188105.55793,-0.009583,0.007629,-0.991577,0.312458,0.340763,0.006412,47,277,584,6224
1644188105.608133,-0.008545,0.011108,-0.990051,0.251389,0.325496,-0.14626,55,271,578,6224
1644188105.699667,-0.009399,0.00824,-0.992126,0.144519,0.523969,0.021679,49,270,591,6224
1644188105.748071,-0.010437,0.00824,-0.993896,0.35826,0.356031,-0.25313,40,265,579,6192
1644188105.796441,-0.010559,0.010315,-0.993103,0.113985,0.508702,-0.024122,46,271,580,6256
1644188105.844892,-0.007507,0.011108,-0.98999,0.281924,0.340763,-0.069924,59,273,584,6176
1644188105.893295,-0.006958,0.008118,-0.991028,0.266656,0.24916,-0.298931,49,277,584,6256
1644188105.941691,-0.009705,0.009949,-0.989014,0.175053,0.417099,-0.176794,47,273,589,6160
1644188105.990075,-0.009583,0.007324,-0.989319,0.297191,0.401832,-0.192061,45,280,586,6176
1644188106.038467,-0.010803,0.009033,-0.992004,0.129252,0.508702,0.113282,53,276,585,6336
1644188106.091276,-0.009216,0.008057,-0.990784,0.327725,0.447634,-0.069924,46,271,594,6224
1644188106.135316,-0.006409,0.013062,-0.991577,0.220855,0.340763,-0.161527,61,277,586,6224
1644188106.183639,-0.009216,0.011108,-0.994995,0.129252,0.462901,-0.039389,52,285,579,6240
1644188106.232002,-0.011536,0.010864,-0.993469,0.190321,0.386565,-0.039389,39,279,585,6128
1644188106.280379,-0.009705,0.01001,-0.992493,0.205588,0.493435,-0.085191,43,279,583,6224
1644188106.328807,-0.010681,0.008484,-0.992126,0.113985,0.462901,-0.115725,42,275,586,6256
1644188106.377193,-0.007202,0.007507,-0.990662,0.251389,0.462901,0.036947,48,281,576,6192
1644188106.425598,-0.008423,0.009521,-0.991943,0.113985,0.462901,-0.054656,42,273,589,6288
1644188106.475561,-0.006897,0.01001,-0.989563,0.281924,0.539237,-0.024122,52,275,582,6240
1644188106.52594,-0.012024,0.009277,-0.991089,0.251389,0.462901,-0.14626,53,269,585,6224
1644188106.571065,-0.008179,0.008911,-0.992126,0.129252,0.447634,-0.039389,47,270,589,6240
1644188106.667527,-0.009766,0.008484,-0.990417,0.480397,0.310229,-0.039389,51,274,580,6192
1644188106.715919,-0.010742,0.010315,-0.991211,0.175053,0.432366,-0.115725,49,275,579,6192
1644188106.764314,-0.007935,0.008301,-0.995056,0.251389,0.340763,-0.024122,48,281,587,6256
1644188106.812736,-0.007324,0.01239,-0.993164,0.175053,0.188092,-0.161527,49,273,586,6256
1644188106.861144,-0.008118,0.011597,-0.990234,0.205588,0.386565,-0.14626,52,277,586,6240
1644188106.909528,-0.009094,0.012024,-0.989197,0.144519,0.294962,-0.207328,45,273,586,6240
1644188106.957931,-0.008301,0.010071,-0.991272,0.281924,0.310229,-0.207328,48,279,583,6224
1644188107.006329,-0.012085,0.010681,-0.992493,0.205588,0.417099,-0.115725,47,277,584,6224
1644188107.056919,-0.010376,0.00946,-0.99231,0.113985,0.264427,-0.008855,47,285,586,6240
1644188107.103121,-0.008423,0.011536,-0.992126,0.129252,0.356031,-0.054656,45,277,584,6256
1644188107.151474,-0.010742,0.009888,-0.993164,0.251389,0.478168,-0.100458,48,281,583,6224
1644188107.199859,-0.009155,0.01062,-0.991638,0.297191,0.417099,-0.085191,53,286,585,6192
1644188107.248231,-0.007446,0.010254,-0.993591,0.205588,0.294962,-0.069924,54,265,584,6192
1644188107.29665,-0.007446,0.008911,-0.992554,0.266656,0.371298,-0.176794,52,280,568,6256
1644188107.345082,-0.008179,0.009338,-0.990051,0.159786,0.294962,-0.115725,45,273,575,6240
1644188107.393418,-0.006592,0.009521,-0.991638,0.144519,0.401832,-0.130992,48,283,583,6176
1644188107.441827,-0.009094,0.010803,-0.992371,0.281924,0.371298,-0.115725,51,276,580,6224
1644188107.490233,-0.006836,0.010132,-0.99292,0.35826,0.310229,-0.115725,45,270,593,6176
1644188107.538657,-0.010193,0.009338,-0.990723,0.297191,0.294962,-0.176794,48,269,583,6240
1644188107.587575,-0.010315,0.007996,-0.992737,0.312458,0.310229,-0.192061,39,281,585,6240
1644188107.638151,-0.011597,0.009338,-0.994141,0.281924,0.432366,0.021679,43,283,597,6160
1644188107.688205,-0.010193,0.008606,-0.990662,0.190321,0.371298,-0.176794,49,280,575,6240
1644188107.733184,-0.008606,0.011902,-0.990784,0.236122,0.310229,-0.100458,51,281,573,6176
1644188107.828965,-0.006897,0.008057,-0.991699,0.266656,0.478168,-0.14626,52,280,579,6176
1644188107.877403,-0.009277,0.010437,-0.990967,0.312458,0.294962,-0.222595,47,263,575,6256
1644188107.925803,-0.008179,0.006958,-0.992615,0.236122,0.371298,-0.192061,41,279,585,6224
1644188107.974179,-0.008789,0.010803,-0.98938,-0.053954,0.279695,-0.176794,47,277,584,6224
1644188108.022595,-0.006775,0.011597,-0.98938,0.312458,0.371298,-0.176794,42,275,579,6176
1644188108.073663,-0.007385,0.011047,-0.990234,0.281924,0.371298,-0.130992,53,269,576,6256
1644188108.119402,-0.011414,0.010742,-0.991394,0.312458,0.508702,-0.14626,57,275,582,6240
1644188108.167717,-0.010132,0.010559,-0.993042,0.175053,0.539237,-0.176794,41,279,583,6224
1644188108.21612,-0.008362,0.009766,-0.991089,0.266656,0.24916,-0.192061,53,274,594,6224
1644188108.264513,-0.00885,0.010071,-0.990845,0.205588,0.386565,-0.085191,51,274,580,6240
1644188108.31292,-0.008301,0.008606,-0.992188,0.205588,0.417099,-0.268397,47,282,589,6240
1644188108.361313,-0.009521,0.00769,-0.992004,0.312458,0.386565,-0.100458,43,271,580,6176
1644188108.409689,-0.007751,0.010925,-0.993713,0.220855,0.447634,-0.069924,43,279,583,6240
1644188108.458079,-0.010376,0.007568,-0.99176,0.113985,0.371298,-0.008855,47,287,579,6240
1644188108.506451,-0.006409,0.009094,-0.98999,0.327725,0.386565,0.021679,51,276,583,6256
1644188108.554876,-0.008423,0.006775,-0.993103,0.297191,0.340763,-0.25313,46,286,583,6240
1644188108.603263,-0.00824,0.010132,-0.990112,0.312458,0.294962,-0.115725,38,280,579,6224
1644188108.651649,-0.008423,0.008606,-0.990234,0.327725,0.325496,-0.130992,47,287,589,6192
1644188108.700049,-0.007507,0.00946,-0.989563,0.175053,0.356031,0.036947,61,285,582,6224
1644188108.748471,-0.009766,0.01001,-0.992432,0.342992,0.356031,-0.100458,48,279,590,6304
1644188108.798774,-0.006531,0.009827,-0.99353,0.129252,0.539237,-0.268397,51,274,587,6240
1644188108.849265,-0.007629,0.01062,-0.989807,0.144519,0.371298,-0.161527,38,273,575,6240
1644188108.894466,-0.009338,0.009216,-0.990417,0.266656,0.325496,-0.100458,48,274,583,6240
1644188108.99043,-0.011353,0.010742,-0.98999,0.159786,0.401832,0.006412,48,269,583,6240
1644188109.038839,-0.006531,0.010376,-0.99231,0.129252,0.371298,-0.085191,49,273,579,6224
1644188109.089689,-0.011536,0.008362,-0.991333,0.220855,0.233893,-0.069924,51,276,580,6192
1644188109.135634,-0.006897,0.009094,-0.992798,0.251389,0.447634,-0.054656,43,283,578,6224
1644188109.183988,-0.010315,0.011414,-0.992981,0.266656,0.310229,-0.008855,55,283,578,6256
1644188109.232388,-0.007935,0.008972,-0.990234,0.007115,0.386565,-0.176794,45,275,579,6224
1644188109.280744,-0.011292,0.008606,-0.992493,0.327725,0.493435,-0.176794,53,274,585,6240
1644188109.329161,-0.008057,0.013,-0.992065,0.190321,0.417099,-0.207328,46,281,578,6176
1644188109.377559,-0.009033,0.010132,-0.99054,0.266656,0.523969,-0.069924,54,285,586,6192
1644188109.425914,-0.008423,0.010071,-0.99115,0.175053,0.264427,0.052214,48,279,587,6240
1644188109.474336,-0.009521,0.009521,-0.989136,0.266656,0.371298,-0.100458,53,274,576,6128
1644188109.522733,-0.010254,0.008423,-0.99353,0.159786,0.432366,-0.054656,45,273,579,6160
1644188109.571122,-0.010132,0.009583,-0.99292,0.159786,0.401832,-0.085191,53,286,585,6256
1644188109.61952,-0.008179,0.007996,-0.992737,0.281924,0.356031,-0.008855,51,276,587,6192
1644188109.667907,-0.006958,0.010986,-0.991699,0.327725,0.340763,-0.008855,48,274,592,6304
1644188109.716303,-0.011414,0.009277,-0.991211,0.098718,0.386565,0.036947,46,279,594,6240
1644188109.764703,-0.010315,0.009216,-0.992065,0.113985,0.569771,-0.085191,53,283,590,6240
1644188109.813109,-0.009521,0.008301,-0.99353,0.098718,0.417099,-0.268397,47,273,591,6240
1644188109.861515,-0.010925,0.008423,-0.99469,0.205588,0.432366,-0.054656,47,280,589,6240
1644188109.91116,-0.00885,0.010742,-0.992554,0.312458,0.386565,0.052214,43,276,583,6240
1644188109.96103,-0.007996,0.009033,-0.992249,0.190321,0.462901,-0.069924,54,273,575,6224
1644188110.061749,-0.009399,0.007141,-0.992737,0.159786,0.279695,-0.222595,57,282,591,6304
1644188110.106106,-0.008484,0.008179,-0.993958,0.281924,0.325496,-0.115725,47,275,584,6240
1644188110.151885,-0.005737,0.008423,-0.993225,0.159786,0.523969,-0.115725,36,276,578,6224
1644188110.200238,-0.006104,0.008545,-0.99115,0.220855,0.340763,-0.100458,55,266,592,6256
1644188110.248609,-0.010986,0.010193,-0.992737,0.373527,0.432366,-0.237863,49,275,582,6240
1644188110.296994,-0.008789,0.012634,-0.993835,0.220855,0.203359,-0.069924,48,279,580,6192
1644188110.345418,-0.006653,0.007751,-0.99054,0.175053,0.539237,-0.069924,45,275,586,6192
1644188110.3938,-0.008667,0.010193,-0.992798,0.144519,0.539237,0.082748,49,277,586,6224
1644188110.442236,-0.007019,0.009094,-0.99353,0.175053,0.432366,-0.100458,47,285,582,6160
1644188110.490574,-0.007874,0.009399,-0.990295,0.266656,0.371298,-0.024122,41,281,587,6224
1644188110.538977,-0.008972,0.010742,-0.991577,0.220855,0.508702,0.036947,39,291,583,6176
1644188110.587376,-0.008911,0.008362,-0.992676,0.144519,0.371298,-0.085191,53,279,597,6224
1644188110.63577,-0.011292,0.009033,-0.990479,0.129252,0.539237,0.036947,48,264,587,6128
1644188110.684156,-0.007324,0.010254,-0.992432,0.342992,0.356031,-0.024122,53,276,599,6224
1644188110.73257,-0.010681,0.007751,-0.991882,0.175053,0.401832,-0.008855,40,275,591,6256
1644188110.780962,-0.011169,0.008667,-0.992371,0.113985,0.508702,-0.192061,42,275,591,6224
1644188110.830175,-0.009094,0.012878,-0.990295,0.266656,0.386565,-0.085191,45,268,586,6240
1644188110.882157,-0.007385,0.00769,-0.991699,0.220855,0.294962,-0.054656,51,276,580,6192
1644188110.931671,-0.006409,0.005676,-0.99115,0.08345,0.24916,0.082748,47,285,580,6224
1644188111.023,-0.008606,0.009521,-0.99231,0.220855,0.386565,-0.192061,46,274,571,6224
1644188111.071371,-0.009033,0.00946,-0.993347,0.419328,0.447634,-0.130992,51,274,585,6288
1644188111.119651,-0.007568,0.006348,-0.991394,0.205588,0.432366,-0.14626,41,281,576,6224
1644188111.168069,-0.010193,0.008301,-0.993408,0.251389,0.478168,-0.039389,36,274,587,6224
1644188111.216477,-0.01001,0.010742,-0.992004,0.220855,0.646107,-0.008855,48,279,592,6256
1644188111.264886,-0.009766,0.008972,-0.992981,0.251389,0.478168,-0.161527,43,279,587,6160
1644188111.31326,-0.008423,0.00946,-0.986755,0.205588,0.508702,-0.237863,55,276,583,6192
1644188111.361676,-0.006836,0.01001,-0.991638,0.266656,0.340763,-0.207328,51,274,578,6304
1644188111.410052,-0.005127,0.010925,-0.992493,0.144519,0.371298,0.006412,41,279,580,6224
1644188111.458455,-0.010925,0.009338,-0.992615,0.220855,0.493435,-0.054656,43,276,578,6256
1644188111.50684,-0.007568,0.010254,-0.989929,0.251389,0.371298,0.006412,51,271,583,6224
1644188111.555313,-0.010437,0.007996,-0.989075,0.281924,0.310229,-0.100458,42,280,577,6224
1644188111.603639,-0.009094,0.009033,-0.992615,0.08345,0.554504,-0.039389,52,277,572,6192
1644188111.652038,-0.006775,0.011719,-0.990479,0.342992,0.356031,-0.008855,52,270,589,6304
1644188111.700411,-0.009888,0.010193,-0.989502,0.205588,0.462901,-0.115725,51,276,580,6176
1644188111.74878,-0.008545,0.009644,-0.98877,0.312458,0.310229,-0.130992,48,274,585,6176
1644188111.797248,-0.009705,0.008667,-0.988831,0.251389,0.600305,-0.085191,42,282,586,6192
1644188111.84591,-0.010132,0.010315,-0.991089,0.159786,0.417099,0.021679,47,277,577,6224
1644188111.894037,-0.00531,0.010132,-0.990784,0.297191,0.386565,-0.069924,48,274,592,6176
1644188111.943778,-0.006348,0.010498,-0.991333,0.175053,0.523969,0.021679,48,274,594,6224
1644188111.994526,-0.008972,0.009277,-0.992554,0.35826,0.493435,-0.054656,51,271,578,6224
1644188112.058882,-0.007812,0.009277,-0.989258,0.113985,0.523969,-0.069924,49,273,582,6256
1644188112.094363,-0.007751,0.010498,-0.993347,0.175053,0.371298,-0.176794,45,275,575,6224
1644188112.184351,-0.009155,0.010254,-0.993164,0.022382,0.356031,-0.054656,57,277,579,6240
1644188112.232753,-0.008728,0.006836,-0.993591,0.236122,0.356031,-0.054656,51,274,585,6160
1644188112.281114,-0.009949,0.008484,-0.991089,0.144519,0.493435,-0.100458,48,279,583,6176
1644188112.329556,-0.009216,0.006775,-0.993286,0.266656,0.401832,-0.130992,42,273,570,6192
1644188112.377877,-0.009216,0.008545,-0.989807,0.175053,0.386565,0.067481,43,276,585,6224
1644188112.426293,-0.005676,0.012329,-0.992798,0.113985,0.401832,-0.100458,45,280,579,6160
1644188112.474718,-0.010925,0.009705,-0.992004,0.144519,0.386565,0.006412,39,274,587,6240
1644188112.52311,-0.009888,0.009033,-0.990051,0.144519,0.462901,-0.024122,45,270,584,6224
1644188112.571501,-0.010925,0.011169,-0.991699,0.175053,0.523969,0.098015,48,279,580,6256
1644188112.619882,-0.008789,0.00885,-0.992188,0.129252,0.386565,0.098015,51,271,580,6224
1644188112.668285,-0.010254,0.008362,-0.990967,0.159786,0.432366,-0.237863,49,265,582,6240
1644188112.716675,-0.005249,0.010254,-0.991455,0.129252,0.493435,-0.115725,54,273,591,6256
1644188112.765169,-0.009827,0.008911,-0.991821,0.052916,0.371298,-0.130992,52,270,586,6240
1644188112.813502,-0.009277,0.008484,-0.993103,0.144519,0.462901,-0.268397,52,277,582,6224
1644188112.861894,-0.009155,0.008728,-0.989563,0.281924,0.371298,-0.085191,46,281,590,6224
1644188112.910275,-0.009033,0.009521,-0.991638,0.159786,0.294962,-0.100458,43,274,569,6192
1644188112.958679,-0.009644,0.007568,-0.989441,0.236122,0.294962,-0.039389,55,274,590,6240
1644188113.007296,-0.006836,0.009766,-0.992859,0.373527,0.462901,-0.024122,57,280,582,6224
1644188113.072515,-0.009583,0.011902,-0.99054,0.205588,0.417099,-0.100458,48,274,580,6176
1644188113.110616,-0.010986,0.007263,-0.992188,0.129252,0.523969,-0.25313,47,275,579,6256
1644188113.154795,-0.009827,0.009155,-0.988892,0.220855,0.462901,-0.130992,46,283,583,6224
1644188113.205046,-0.007874,0.009216,-0.992065,0.159786,0.401832,-0.14626,49,275,591,6224
1644188113.249962,-0.011841,0.010254,-0.990845,0.236122,0.539237,-0.069924,53,274,583,6240
1644188113.345748,-0.009521,0.010925,-0.99176,0.312458,0.417099,-0.115725,45,273,577,6240
1644188113.394168,-0.008728,0.009705,-0.99054,0.251389,0.417099,-0.085191,47,277,589,6240
1644188113.442567,-0.009766,0.011108,-0.992737,0.052916,0.310229,0.082748,48,286,583,6224
1644188113.490976,-0.009399,0.009338,-0.99054,0.144519,0.478168,-0.054656,41,259,587,6224
1644188113.539343,-0.01123,0.010315,-0.990662,0.297191,0.447634,-0.115725,55,266,583,6240
1644188113.587735,-0.009338,0.01001,-0.993042,0.129252,0.340763,-0.039389,40,277,586,6256
1644188113.636099,-0.009705,0.012085,-0.991272,0.220855,0.279695,-0.207328,55,271,583,6160
1644188113.684928,-0.008606,0.013184,-0.993225,0.236122,0.478168,-0.176794,52,275,579,6192
1644188113.732935,-0.009155,0.013184,-0.991333,0.129252,0.340763,-0.14626,47,268,591,6240
1644188113.781319,-0.008057,0.008179,-0.993103,0.297191,0.401832,-0.161527,58,274,585,6256
1644188113.829734,-0.012146,0.010803,-0.990356,0.236122,0.386565,-0.039389,49,273,582,6224
1644188113.87811,-0.009705,0.006226,-0.990601,0.159786,0.554504,-0.024122,55,281,585,6240
1644188113.926524,-0.008606,0.010437,-0.991028,0.220855,0.310229,-0.130992,60,271,590,6224
1644188113.974917,-0.00592,0.012329,-0.992432,0.281924,0.340763,-0.024122,47,270,584,6224
1644188114.023296,-0.008057,0.009155,-0.992371,0.297191,0.386565,-0.237863,40,275,582,6224
1644188114.081655,-0.012207,0.009583,-0.992126,0.342992,0.417099,-0.054656,48,274,592,6176
1644188114.120078,-0.007263,0.008057,-0.992493,0.266656,0.478168,-0.115725,43,279,583,6240
1644188114.168774,-0.008728,0.007385,-0.99054,0.098718,0.523969,-0.130992,46,279,583,6240
1644188114.217674,-0.010376,0.009155,-0.993591,0.129252,0.417099,-0.054656,49,273,586,6240
1644188114.268289,-0.004883,0.010498,-0.990417,0.373527,0.386565,-0.130992,45,270,582,6224
1644188114.318266,-0.007446,0.011536,-0.99231,0.297191,0.539237,-0.207328,53,283,592,6240
1644188114.410406,-0.007751,0.008789,-0.991394,0.449863,0.310229,-0.176794,43,259,585,6224
1644188114.458783,-0.008606,0.008301,-0.993713,0.312458,0.401832,0.052214,43,274,576,6224
1644188114.507188,-0.007812,0.00885,-0.990356,0.281924,0.462901,-0.176794,58,271,587,6176
1644188114.555587,-0.007019,0.007629,-0.990479,0.144519,0.356031,-0.054656,61,277,584,6256
1644188114.603999,-0.008545,0.010681,-0.989807,0.205588,0.401832,-0.085191,53,271,583,6192
1644188114.652411,-0.007507,0.007812,-0.992432,0.312458,0.417099,-0.069924,51,271,583,6240
1644188114.700776,-0.007629,0.008057,-0.990479,0.220855,0.386565,-0.085191,45,273,584,6192
1644188114.749148,-0.009277,0.008118,-0.994202,0.297191,0.478168,-0.176794,47,273,577,6288
1644188114.797562,-0.008728,0.006287,-0.99115,0.281924,0.447634,-0.207328,41,281,592,6224
1644188114.845992,-0.010437,0.010681,-0.991638,0.205588,0.386565,-0.130992,55,279,587,6224
1644188114.894401,-0.008301,0.009705,-0.990723,0.236122,0.493435,-0.161527,40,277,579,6192
1644188114.942792,-0.007141,0.011414,-0.99054,0.159786,0.356031,0.036947,48,276,590,6192
1644188114.991191,-0.009521,0.009216,-0.992004,0.251389,0.401832,-0.222595,45,280,584,6240
1644188115.039549,-0.009277,0.008362,-0.992188,0.312458,0.432366,-0.14626,42,285,584,6224
1644188115.091393,-0.005676,0.012329,-0.991882,0.266656,0.432366,-0.115725,41,279,590,6240
1644188115.13633,-0.005859,0.011902,-0.989746,0.052916,0.386565,-0.008855,52,270,598,6176
1644188115.184927,-0.005371,0.009827,-0.992188,0.236122,0.432366,-0.100458,60,279,594,6240
1644188115.233685,-0.007202,0.009583,-0.992615,0.113985,0.417099,0.082748,49,275,584,6176
1644188115.284292,-0.007446,0.009521,-0.990295,0.419328,0.264427,0.036947,49,282,586,6256
1644188115.334276,-0.006775,0.010803,-0.992004,0.251389,0.401832,-0.130992,49,275,589,6256
1644188115.379477,-0.010254,0.012939,-0.992004,0.236122,0.310229,-0.054656,47,277,582,6256
1644188115.475318,-0.007324,0.008545,-0.991577,0.35826,0.447634,-0.130992,55,274,578,6224
1644188115.523476,-0.006104,0.007385,-0.992432,0.35826,0.447634,0.067481,52,273,582,6160
1644188115.571853,-0.006958,0.012634,-0.989868,0.144519,0.569771,0.036947,48,281,585,6256
1644188115.620231,-0.007324,0.011169,-0.991577,0.129252,0.539237,-0.024122,59,285,584,6224
1644188115.668634,-0.007751,0.010864,-0.992065,0.190321,0.371298,-0.222595,48,279,585,6176
1644188115.717021,-0.007568,0.010376,-0.989563,0.190321,0.325496,0.006412,53,271,583,6256
1644188115.765409,-0.009033,0.010864,-0.990662,0.251389,0.294962,-0.161527,46,279,578,6224
1644188115.813823,-0.006042,0.010315,-0.993103,0.373527,0.325496,-0.039389,46,279,597,6192
1644188115.862267,-0.006775,0.009155,-0.992615,0.190321,0.310229,-0.115725,51,264,578,6224
1644188115.910621,-0.00946,0.009644,-0.991882,0.175053,0.569771,-0.176794,49,270,584,6240
1644188115.959031,-0.008728,0.009827,-0.992004,0.251389,0.310229,-0.069924,51,276,573,6240
1644188116.007412,-0.009338,0.011963,-0.989136,0.297191,0.432366,-0.008855,53,276,578,6224
1644188116.06581,-0.008301,0.006226,-0.994141,0.220855,0.401832,-0.100458,47,277,582,6240
1644188116.104244,-0.008118,0.007019,-0.990051,0.220855,0.386565,-0.085191,49,287,589,6224
1644188116.152566,-0.008057,0.010864,-0.989929,0.342992,0.279695,-0.283664,52,270,589,6256
1644188116.20097,-0.009338,0.009827,-0.991882,0.251389,0.294962,-0.192061,52,275,584,6224
1644188116.249339,-0.010864,0.010315,-0.992004,0.35826,0.417099,-0.085191,51,276,585,6224
1644188116.29775,-0.007324,0.010376,-0.990967,0.236122,0.462901,-0.039389,49,287,593,6224
1644188116.346154,-0.006409,0.009644,-0.993286,0.281924,0.447634,-0.024122,52,275,589,6256
1644188116.394914,-0.008545,0.012878,-0.992493,0.129252,0.371298,-0.085191,49,285,593,6240
1644188116.445007,-0.009277,0.009521,-0.991516,0.312458,0.417099,-0.054656,49,269,580,6240
1644188116.495654,-0.009399,0.010315,-0.989624,0.35826,0.310229,-0.085191,53,279,580,6240
1644188116.540322,-0.008911,0.008606,-0.991882,0.312458,0.340763,-0.039389,43,276,585,6240
1644188116.636482,-0.007507,0.013123,-0.989685,0.175053,0.264427,-0.054656,43,276,573,6176
1644188116.684902,-0.012024,0.00946,-0.987976,0.098718,0.325496,0.067481,54,275,589,6224
1644188116.733285,-0.009766,0.012512,-0.993164,0.205588,0.493435,0.067481,58,283,580,6176
1644188116.781672,-0.006287,0.009644,-0.990295,0.312458,0.340763,-0.100458,54,273,584,6256
1644188116.830062,-0.010315,0.005493,-0.990112,0.312458,0.325496,-0.054656,45,285,591,6288
1644188116.878495,-0.008362,0.010681,-0.992188,0.144519,0.386565,-0.069924,45,277,586,6256
1644188116.926898,-0.008911,0.01178,-0.992798,0.312458,0.386565,-0.039389,47,282,582,6304
1644188116.975331,-0.005981,0.009644,-0.98938,0.281924,0.462901,0.098015,42,282,586,6224
1644188117.023696,-0.008423,0.006226,-0.991516,0.251389,0.340763,0.006412,47,275,584,6240
1644188117.075877,-0.00946,0.009888,-0.987366,0.052916,0.340763,-0.161527,45,273,577,6240
1644188117.120409,-0.007751,0.006409,-0.989929,0.35826,0.401832,-0.161527,57,277,586,6176
1644188117.168818,-0.008484,0.012207,-0.991577,0.327725,0.447634,-0.085191,57,282,598,6224
1644188117.217198,-0.007935,0.011597,-0.99054,0.220855,0.432366,-0.039389,52,285,589,6224
1644188117.265593,-0.009766,0.012817,-0.991455,0.297191,0.401832,-0.039389,46,281,578,6240
1644188117.313998,-0.005432,0.009277,-0.991699,0.297191,0.417099,0.098015,47,277,596,6336
1644188117.362411,-0.008545,0.008911,-0.990356,0.175053,0.447634,-0.085191,41,279,583,6288
1644188117.410762,-0.007568,0.011536,-0.988342,0.175053,0.356031,0.052214,61,273,589,6240
1644188117.459179,-0.008423,0.009766,-0.989868,0.281924,0.371298,-0.085191,52,277,582,6192
1644188117.50757,-0.009033,0.009277,-0.993042,0.113985,0.386565,-0.161527,52,275,591,6256
1644188117.555995,-0.011047,0.010437,-0.990967,0.205588,0.401832,-0.039389,46,276,585,6256
1644188117.606238,-0.007446,0.005981,-0.992493,0.251389,0.478168,-0.130992,55,259,585,6192
1644188117.656603,-0.010376,0.010254,-0.990784,0.144519,0.401832,-0.14626,53,279,587,6240
1644188117.701674,-0.009583,0.006836,-0.990356,0.159786,0.432366,0.021679,48,269,583,6192
1644188117.797914,-0.009094,0.009521,-0.990051,0.159786,0.600305,-0.100458,53,276,583,6224
1644188117.846301,-0.008179,0.011475,-0.991699,0.236122,0.356031,-0.024122,57,282,572,6240
1644188117.894777,-0.009766,0.010742,-0.991821,0.266656,0.478168,-0.069924,46,281,590,6224
1644188117.943168,-0.008179,0.007446,-0.990967,0.190321,0.462901,-0.039389,57,277,586,6224
1644188117.991557,-0.007141,0.012146,-0.992676,0.281924,0.478168,-0.25313,45,275,579,6224
1644188118.039916,-0.008057,0.010315,-0.987976,0.327725,0.310229,-0.024122,51,279,580,6224
1644188118.096233,-0.00885,0.010437,-0.989197,0.220855,0.401832,-0.14626,46,276,585,6240
1644188118.136728,-0.005615,0.011047,-0.992737,0.35826,0.325496,-0.161527,48,271,578,6224
1644188118.185189,-0.009521,0.011414,-0.990417,0.266656,0.615573,-0.024122,42,273,582,6224
1644188118.23348,-0.009888,0.010925,-0.991028,0.35826,0.417099,-0.008855,54,277,579,6288
1644188118.281839,-0.010986,0.008179,-0.991821,0.144519,0.478168,-0.054656,55,276,583,6224
1644188118.330257,-0.00769,0.009949,-0.991089,0.266656,0.462901,-0.100458,53,274,587,6240
1644188118.378676,-0.00885,0.007874,-0.992737,0.327725,0.386565,-0.222595,45,275,582,6240
1644188118.427037,-0.008118,0.010193,-0.990784,0.281924,0.432366,-0.024122,40,277,577,6224
1644188118.475456,-0.009827,0.011292,-0.991638,0.175053,0.462901,-0.085191,40,285,584,6224
1644188118.524079,-0.005615,0.010071,-0.990051,0.342992,0.447634,-0.207328,47,275,586,6256
1644188118.574453,-0.010681,0.01062,-0.991821,0.297191,0.356031,-0.161527,40,275,579,6192
1644188118.624693,-0.00647,0.013184,-0.993286,0.190321,0.432366,-0.008855,49,282,579,6256
1644188118.669743,-0.010559,0.010315,-0.990967,0.144519,0.432366,0.021679,42,273,579,6256
1644188118.765775,-0.009155,0.006897,-0.992676,0.144519,0.386565,-0.085191,53,271,576,6176
1644188118.814202,-0.009827,0.009827,-0.990417,0.159786,0.371298,-0.222595,54,270,579,6192
1644188118.862651,-0.007446,0.009094,-0.99231,0.068183,0.188092,-0.039389,41,281,585,6240
1644188118.911014,-0.008667,0.009399,-0.993164,0.266656,0.63084,-0.130992,45,273,577,6224
1644188118.959405,-0.005371,0.007751,-0.991272,0.312458,0.340763,0.006412,53,281,587,6240
1644188119.007782,-0.010559,0.006348,-0.991272,0.236122,0.401832,-0.024122,47,282,582,6192
1644188119.062711,-0.007446,0.011108,-0.99054,0.220855,0.340763,-0.130992,38,277,586,6256
1644188119.104623,-0.007751,0.009766,-0.991821,0.419328,0.401832,-0.161527,52,270,589,6256
1644188119.152985,-0.010437,0.010071,-0.991638,0.205588,0.401832,-0.024122,48,276,583,6240
1644188119.201341,-0.009277,0.01123,-0.991028,0.236122,0.340763,-0.25313,54,273,593,6224
1644188119.249751,-0.008484,0.012024,-0.989746,0.175053,0.325496,0.006412,55,288,578,6176
1644188119.298143,-0.005737,0.009399,-0.990601,0.190321,0.447634,0.036947,49,270,582,6256
1644188119.346537,-0.012268,0.010254,-0.990723,0.068183,0.447634,-0.008855,43,286,587,6256
1644188119.394926,-0.011108,0.00946,-0.992126,0.068183,0.386565,-0.024122,48,279,585,6256
1644188119.443338,-0.009644,0.009094,-0.993408,0.281924,0.401832,-0.115725,49,277,584,6240
1644188119.491886,-0.00769,0.009888,-0.993286,0.388794,0.478168,-0.130992,53,264,580,6224
1644188119.540115,-0.010498,0.011963,-0.995544,0.175053,0.401832,-0.100458,49,268,586,6224
1644188119.589218,-0.011047,0.008911,-0.991943,0.266656,0.325496,-0.130992,47,275,579,6128
1644188119.637044,-0.008545,0.008179,-0.993591,0.190321,0.493435,-0.054656,59,287,598,6176
1644188119.687211,-0.010559,0.010437,-0.994507,0.220855,0.264427,-0.130992,47,285,586,6192
1644188119.737611,-0.008423,0.009155,-0.989624,0.266656,0.325496,-0.283664,60,271,590,6224
1644188119.788064,-0.007751,0.01123,-0.991516,0.297191,0.386565,-0.268397,48,266,594,6224
1644188119.87887,-0.009766,0.007996,-0.991516,0.388794,0.371298,-0.008855,46,269,583,6256
1644188119.927267,-0.007324,0.011292,-0.991638,0.220855,0.371298,-0.008855,51,274,592,6192
1644188119.975647,-0.009644,0.010254,-0.991516,0.08345,0.371298,-0.085191,58,274,592,6240
1644188120.024059,-0.008423,0.011414,-0.989075,0.113985,0.432366,-0.130992,52,273,593,6240
1644188120.072487,-0.006897,0.010498,-0.992004,0.251389,0.539237,0.052214,54,268,586,6256
1644188120.120806,-0.009277,0.008667,-0.993164,0.266656,0.493435,-0.130992,48,276,583,6224
1644188120.169184,-0.006958,0.00946,-0.990234,0.297191,0.203359,-0.115725,43,274,590,6160
1644188120.217577,-0.009888,0.011169,-0.993164,0.281924,0.417099,-0.268397,55,279,583,6256
1644188120.265987,-0.01001,0.009583,-0.994507,0.312458,0.310229,-0.039389,43,274,583,6224
1644188120.314396,-0.007385,0.010132,-0.991211,0.144519,0.462901,-0.268397,41,279,583,6224
1644188120.362767,-0.007812,0.00885,-0.989685,0.251389,0.447634,-0.161527,47,275,584,6256
1644188120.41116,-0.009949,0.009277,-0.991455,0.266656,0.462901,-0.100458,39,274,583,6192
1644188120.459547,-0.008118,0.009705,-0.991089,0.327725,0.371298,-0.14626,46,281,587,6160
1644188120.507919,-0.008362,0.008301,-0.990295,0.220855,0.417099,-0.115725,46,281,580,6224
1644188120.556337,-0.010498,0.009277,-0.990723,0.312458,0.417099,-0.207328,46,274,580,6224
1644188120.604736,-0.008972,0.009949,-0.99231,0.266656,0.279695,0.021679,49,273,582,6176
1644188120.65309,-0.007263,0.007141,-0.99292,0.419328,0.523969,0.006412,42,275,586,6240
1644188120.701499,-0.01001,0.008606,-0.99054,0.190321,0.325496,0.082748,48,271,576,6256
1644188120.749943,-0.007874,0.007507,-0.99408,0.190321,0.432366,-0.100458,46,279,592,6240
1644188120.799127,-0.006775,0.010925,-0.991577,0.159786,0.417099,-0.054656,47,285,584,6176
1644188120.85018,-0.009094,0.011353,-0.993286,0.266656,0.340763,-0.100458,49,282,579,6240
1644188120.900482,-0.00769,0.007629,-0.992432,0.266656,0.462901,0.006412,42,273,579,6192
1644188120.944952,-0.01062,0.012451,-0.990906,0.144519,0.447634,-0.207328,41,276,578,6224
1644188121.0403,-0.008118,0.008606,-0.993713,0.342992,0.325496,-0.069924,41,276,583,6192
1644188121.089174,-0.008545,0.010437,-0.993164,0.266656,0.432366,0.113282,53,281,583,6224
1644188121.137012,-0.00708,0.010742,-0.992554,0.159786,0.279695,-0.207328,46,271,590,6240
1644188121.185426,-0.008362,0.010498,-0.991882,0.266656,0.325496,0.021679,55,269,578,6176
1644188121.233848,-0.009827,0.007629,-0.990356,0.220855,0.386565,-0.085191,54,270,586,6224
1644188121.28224,-0.008484,0.00885,-0.989929,0.129252,0.432366,-0.130992,52,285,579,6240
1644188121.330628,-0.010803,0.011047,-0.991272,0.236122,0.417099,-0.176794,48,286,583,6240
1644188121.379014,-0.009521,0.010132,-0.991455,0.190321,0.310229,-0.192061,48,281,580,6240
1644188121.427416,-0.008911,0.010376,-0.989319,0.281924,0.447634,-0.14626,51,291,587,6256
1644188121.475801,-0.008118,0.010498,-0.991211,0.08345,0.554504,-0.024122,61,277,579,6192
1644188121.524217,-0.010254,0.009155,-0.991821,0.037649,0.356031,0.021679,52,277,589,6304
1644188121.572604,-0.009766,0.009888,-0.993652,0.144519,0.585038,-0.115725,52,275,593,6224
1644188121.620943,-0.008789,0.012512,-0.991211,0.266656,0.569771,0.021679,48,276,590,6224
1644188121.669363,-0.008728,0.00946,-0.991699,0.144519,0.386565,-0.161527,55,274,580,6192
1644188121.717768,-0.009583,0.012268,-0.994263,0.144519,0.371298,-0.024122,51,286,578,6224
1644188121.766158,-0.008667,0.009766,-0.986694,0.251389,0.462901,-0.085191,45,265,586,6176
1644188121.814648,-0.008118,0.009766,-0.992371,0.190321,0.508702,-0.054656,47,275,584,6224
1644188121.863008,-0.008972,0.012573,-0.989502,0.175053,0.508702,-0.085191,48,274,585,6240
1644188121.911712,-0.006836,0.010376,-0.991943,0.159786,0.417099,-0.054656,46,271,592,6240
1644188121.96138,-0.008545,0.01123,-0.990906,0.205588,0.279695,-0.085191,59,265,589,6288
1644188122.065427,-0.009888,0.011414,-0.99231,0.129252,0.493435,-0.039389,53,276,583,6256
1644188122.104989,-0.005554,0.009277,-0.989319,0.190321,0.478168,-0.100458,47,268,577,6224
1644188122.153301,-0.007446,0.010986,-0.992493,0.113985,0.432366,-0.161527,39,281,583,6304
1644188122.201698,-0.00946,0.009033,-0.992065,0.220855,0.294962,-0.024122,43,274,580,6176
1644188122.250057,-0.009338,0.009155,-0.992554,0.312458,0.279695,-0.14626,45,277,589,6128
1644188122.298474,-0.008179,0.008057,-0.990601,0.419328,0.462901,0.006412,55,274,585,6256
1644188122.346879,-0.008301,0.008301,-0.992188,0.251389,0.417099,-0.069924,54,285,579,6192
1644188122.395467,-0.008545,0.008667,-0.991516,0.327725,0.401832,-0.039389,54,280,582,6240
1644188122.443659,-0.007141,0.010986,-0.988708,0.052916,0.340763,-0.069924,53,276,585,6240
1644188122.492367,-0.008972,0.008179,-0.993896,0.175053,0.401832,-0.237863,43,271,583,6256
1644188122.540454,-0.005249,0.010681,-0.990784,0.205588,0.371298,0.021679,54,275,579,6288
1644188122.588834,-0.010315,0.009277,-0.990967,0.266656,0.401832,-0.008855,49,282,586,6224
1644188122.637228,-0.008362,0.011902,-0.991821,0.205588,0.386565,0.113282,53,276,585,6176
1644188122.685623,-0.007568,0.005798,-0.991089,0.312458,0.447634,-0.115725,47,275,584,6224
1644188122.734349,-0.008789,0.009888,-0.993103,0.144519,0.447634,-0.054656,49,275,582,6240
1644188122.783288,-0.008423,0.009644,-0.990784,0.205588,0.325496,-0.054656,41,274,585,6192
1644188122.835213,-0.00946,0.010864,-0.990479,0.175053,0.478168,-0.192061,43,276,587,6240
1644188122.884773,-0.007202,0.006348,-0.993225,0.205588,0.462901,-0.283664,53,288,585,6224
1644188122.976046,-0.008423,0.009888,-0.991638,0.175053,0.585038,-0.115725,47,277,584,6288
1644188123.024436,-0.010132,0.006409,-0.991089,0.220855,0.310229,-0.100458,36,279,587,6224
1644188123.072855,-0.008972,0.009949,-0.990906,0.266656,0.478168,-0.14626,45,277,586,6240
1644188123.121193,-0.009033,0.011108,-0.994324,0.281924,0.356031,-0.130992,47,270,584,6224
1644188123.169548,-0.00824,0.009583,-0.990417,0.159786,0.340763,-0.069924,54,273,579,6256
1644188123.217949,-0.006958,0.010986,-0.990845,0.404061,0.294962,-0.024122,45,287,582,6224
1644188123.266337,-0.007263,0.00824,-0.991516,0.098718,0.386565,0.036947,48,274,590,6224
1644188123.31471,-0.008484,0.006897,-0.993408,0.159786,0.462901,-0.085191,54,275,579,6288
1644188123.36314,-0.008484,0.009155,-0.990234,0.098718,0.371298,-0.085191,51,264,580,6224
1644188123.411519,-0.009705,0.008057,-0.994385,0.419328,0.310229,-0.054656,52,282,586,6224
1644188123.459913,-0.009033,0.010681,-0.99115,0.129252,0.401832,-0.115725,47,282,584,6224
1644188123.508298,-0.008911,0.010986,-0.992126,0.327725,0.508702,-0.115725,43,274,587,6192
1644188123.556667,-0.005371,0.010742,-0.993286,0.205588,0.478168,-0.069924,48,274,583,6240
1644188123.605185,-0.008667,0.008545,-0.990173,0.236122,0.447634,-0.222595,59,277,579,6240
1644188123.653473,-0.008972,0.00824,-0.99231,0.449863,0.371298,-0.161527,51,271,587,6240
1644188123.701879,-0.010437,0.008484,-0.991028,0.236122,0.447634,0.021679,34,276,585,6224
1644188123.750246,-0.007812,0.011108,-0.991943,0.281924,0.432366,-0.069924,45,265,584,6224
1644188123.798658,-0.01001,0.012146,-0.990723,0.144519,0.325496,-0.054656,53,276,594,6224
1644188123.847099,-0.007141,0.01001,-0.994324,0.373527,0.523969,-0.100458,52,275,586,6240
1644188123.897026,-0.008301,0.011475,-0.990784,0.144519,0.371298,-0.054656,58,271,583,6224
1644188123.948228,-0.012024,0.010437,-0.993286,0.220855,0.508702,-0.176794,48,269,585,6224
1644188123.99766,-0.00885,0.007629,-0.995178,0.297191,0.310229,-0.130992,39,271,578,6240
1644188124.04223,-0.010498,0.012268,-0.991455,0.297191,0.386565,-0.192061,46,281,578,6224
1644188124.137447,-0.009277,0.009949,-0.993347,0.144519,0.417099,-0.100458,52,270,579,6176
1644188124.185785,-0.008484,0.009766,-0.988647,0.236122,0.310229,-0.222595,47,282,591,6224
1644188124.234202,-0.007629,0.010193,-0.990967,0.220855,0.386565,-0.130992,49,260,586,6224
1644188124.282585,-0.008972,0.006958,-0.991089,0.236122,0.417099,0.067481,49,277,582,6240
1644188124.330981,-0.008423,0.010437,-0.992554,0.373527,0.279695,0.036947,47,277,579,6192
1644188124.379373,-0.00885,0.010498,-0.990784,0.144519,0.523969,-0.024122,41,264,578,6160
1644188124.427763,-0.00885,0.008911,-0.991638,0.251389,0.386565,-0.085191,48,276,580,6240
1644188124.476132,-0.011292,0.010681,-0.990601,0.327725,0.493435,-0.161527,52,277,584,6256
1644188124.524544,-0.008484,0.010193,-0.991699,0.205588,0.462901,-0.085191,43,279,580,6240
1644188124.572955,-0.00946,0.008423,-0.992981,0.266656,0.401832,-0.008855,42,280,579,6224
1644188124.621343,-0.008179,0.00769,-0.990967,0.175053,0.401832,0.006412,51,269,587,6304
1644188124.669739,-0.005798,0.011108,-0.991638,0.251389,0.462901,0.113282,52,273,575,6224
1644188124.718105,-0.008179,0.009399,-0.993347,0.251389,0.554504,-0.192061,42,275,582,6224
1644188124.766485,-0.009338,0.00824,-0.990967,0.373527,0.401832,-0.069924,45,268,579,6240
1644188124.814901,-0.008911,0.005554,-0.994446,0.281924,0.508702,-0.176794,54,285,586,6192
1644188124.863358,-0.009766,0.009766,-0.992004,0.297191,0.432366,-0.054656,51,276,592,6224
1644188124.91173,-0.00885,0.010986,-0.991882,0.312458,0.478168,-0.085191,41,271,583,6224
1644188124.960573,-0.008728,0.011658,-0.991089,0.266656,0.386565,-0.054656,49,280,589,6224
1644188125.062506,-0.008362,0.007874,-0.993652,0.312458,0.447634,-0.085191,51,283,590,6224
1644188125.105299,-0.006958,0.010071,-0.993835,0.373527,0.371298,-0.161527,51,264,580,6192
1644188125.153694,-0.008118,0.010376,-0.99292,0.312458,0.417099,-0.069924,48,276,583,6288
1644188125.202052,-0.005127,0.009155,-0.992249,0.297191,0.569771,-0.100458,40,280,591,6224
1644188125.25043,-0.006165,0.010132,-0.990845,0.388794,0.478168,-0.14626,42,280,582,6240
1644188125.29885,-0.005859,0.009827,-0.991821,0.190321,0.569771,-0.14626,45,277,586,6224
1644188125.347253,-0.008545,0.008057,-0.994202,0.236122,0.401832,-0.069924,53,271,587,6192
1644188125.395629,-0.009277,0.009033,-0.990967,0.052916,0.325496,-0.100458,52,285,586,6224
1644188125.444017,-0.008057,0.009399,-0.991882,0.175053,0.294962,-0.054656,58,279,587,6240
1644188125.492401,-0.009216,0.009949,-0.990112,0.404061,0.417099,-0.207328,41,274,585,6160
1644188125.540809,-0.006714,0.009094,-0.993958,0.175053,0.279695,0.036947,48,271,592,6224
1644188125.589203,-0.010437,0.011658,-0.991516,0.129252,0.447634,-0.039389,48,276,576,6240
1644188125.637591,-0.007935,0.008301,-0.992188,0.236122,0.325496,-0.085191,42,290,582,6224
1644188125.685985,-0.006958,0.010132,-0.993347,0.144519,0.462901,-0.100458,46,271,585,6240
1644188125.734387,-0.009521,0.008667,-0.992737,0.297191,0.585038,-0.100458,51,274,587,6224
1644188125.782791,-0.009277,0.012085,-0.992371,0.35826,0.371298,-0.100458,52,275,582,6240
1644188125.831179,-0.011536,0.009583,-0.99231,0.312458,0.325496,0.006412,48,269,583,6224
1644188125.882344,-0.009399,0.009888,-0.989563,0.236122,0.294962,-0.115725,42,273,596,6192
1644188125.932811,-0.007019,0.009644,-0.990906,0.129252,0.401832,-0.14626,35,270,579,6256
1644188125.977306,-0.007935,0.008118,-0.994446,0.068183,0.417099,-0.161527,59,277,570,6288
1644188126.073222,-0.00885,0.009155,-0.991943,0.236122,0.447634,-0.039389,52,282,582,6256
1644188126.121538,-0.007935,0.012695,-0.993103,0.404061,0.386565,-0.14626,48,276,585,6256
1644188126.169906,-0.006042,0.011169,-0.992859,0.205588,0.401832,-0.14626,53,274,585,6224
1644188126.218309,-0.008484,0.011047,-0.990173,0.159786,0.478168,-0.024122,52,265,577,6256
1644188126.266688,-0.00769,0.010498,-0.990784,0.08345,0.325496,-0.054656,48,274,587,6256
1644188126.315131,-0.009827,0.007507,-0.991882,0.266656,0.310229,-0.176794,47,265,589,6224
1644188126.3635,-0.00824,0.00708,-0.99292,0.327725,0.432366,-0.207328,45,280,575,6240
1644188126.411891,-0.010498,0.00885,-0.993164,0.190321,0.371298,-0.008855,58,266,576,6224
1644188126.460279,-0.007568,0.009827,-0.99353,0.205588,0.462901,-0.237863,49,270,584,6240
1644188126.50866,-0.009583,0.009338,-0.98938,0.236122,0.24916,0.036947,48,274,597,6256
1644188126.557052,-0.008728,0.009338,-0.990295,0.129252,0.417099,-0.100458,59,273,584,6160
1644188126.605463,-0.009155,0.008484,-0.991821,0.220855,0.539237,0.036947,45,273,584,6224
1644188126.653891,-0.009888,0.00824,-0.989563,0.266656,0.478168,-0.008855,39,274,594,6224
1644188126.702268,-0.007507,0.007874,-0.990479,0.236122,0.523969,-0.237863,39,279,592,6224
1644188126.750644,-0.005676,0.00946,-0.990417,0.281924,0.386565,-0.176794,48,274,580,6240
1644188126.799048,-0.008545,0.009949,-0.991821,0.113985,0.340763,-0.100458,53,283,587,6192
1644188126.847438,-0.007874,0.012451,-0.992798,0.190321,0.508702,-0.176794,49,275,589,6256
1644188126.895848,-0.01001,0.011597,-0.991821,0.35826,0.386565,-0.100458,55,279,590,6256
1644188126.944292,-0.0047,0.008545,-0.991272,0.312458,0.554504,-0.130992,55,276,592,6256
1644188126.994047,-0.011292,0.007263,-0.993958,0.266656,0.523969,0.036947,47,273,589,6192
1644188127.057837,-0.005981,0.008301,-0.991089,-0.02342,0.569771,0.036947,42,270,582,6240
1644188127.098926,-0.005676,0.008545,-0.991821,0.159786,0.523969,0.036947,51,283,580,6160
1644188127.138683,-0.009583,0.012329,-0.990479,0.327725,0.432366,-0.085191,53,274,592,6256
1644188127.234835,-0.006836,0.010925,-0.99231,0.251389,0.356031,-0.115725,47,277,586,6240
1644188127.282967,-0.010437,0.007812,-0.990295,0.098718,0.356031,-0.14626,51,269,587,6224
1644188127.331352,-0.010193,0.009338,-0.993652,0.312458,0.554504,-0.039389,46,281,583,6240
1644188127.37974,-0.008545,0.013794,-0.992737,0.144519,0.356031,-0.008855,41,286,580,6256
1644188127.428132,-0.009644,0.011536,-0.988586,0.373527,0.523969,-0.25313,53,281,585,6224
1644188127.47652,-0.008362,0.009827,-0.991943,0.281924,0.417099,0.067481,46,279,580,6176
1644188127.524902,-0.008972,0.007385,-0.993835,0.251389,0.356031,-0.130992,58,279,578,6192
1644188127.573328,-0.009949,0.008606,-0.992737,0.159786,0.478168,-0.176794,52,277,582,6240
1644188127.62171,-0.009033,0.009033,-0.994568,0.113985,0.417099,-0.130992,48,281,587,6240
1644188127.670112,-0.00647,0.010315,-0.990051,0.251389,0.401832,-0.054656,46,276,592,6192
1644188127.718498,-0.00769,0.010437,-0.993774,0.098718,0.417099,-0.100458,57,282,591,6224
1644188127.766906,-0.008667,0.010742,-0.992493,0.190321,0.310229,-0.008855,57,282,584,6224
1644188127.815319,-0.009338,0.006836,-0.994324,0.129252,0.386565,-0.115725,46,276,583,6240
1644188127.863727,-0.009766,0.010925,-0.990723,0.175053,0.523969,-0.115725,52,275,589,6304
1644188127.912081,-0.007568,0.007812,-0.990479,0.236122,0.401832,-0.130992,47,273,575,6160
1644188127.960511,-0.007385,0.008484,-0.993164,0.281924,0.340763,0.021679,53,274,585,6304
1644188128.008885,-0.010071,0.009888,-0.99353,0.297191,0.340763,-0.024122,58,276,585,6128
1644188128.069642,-0.007202,0.007996,-0.992065,0.159786,0.417099,-0.207328,48,283,592,6240
1644188128.109038,-0.010925,0.008179,-0.990479,0.113985,0.478168,-0.192061,46,271,587,6192
1644188128.154987,-0.008057,0.007751,-0.994507,0.220855,0.401832,-0.100458,42,273,586,6224
1644188128.205691,-0.007812,0.008972,-0.991272,0.159786,0.279695,0.006412,53,269,583,6224
1644188128.255342,-0.010193,0.007874,-0.992004,0.327725,0.432366,-0.069924,49,275,589,6224
1644188128.300298,-0.008972,0.009338,-0.990356,0.205588,0.523969,-0.100458,55,271,576,6256
1644188128.39598,-0.007507,0.009216,-0.989197,0.205588,0.432366,-0.069924,52,270,582,6240
1644188128.444394,-0.010437,0.010559,-0.99115,0.190321,0.447634,-0.130992,49,270,579,6224
1644188128.492775,-0.009705,0.010742,-0.992004,0.129252,0.386565,0.006412,54,273,577,6192
1644188128.541172,-0.006287,0.00946,-0.994934,0.404061,0.386565,-0.100458,51,279,583,6224
1644188128.589563,-0.008911,0.010742,-0.992371,0.220855,0.508702,-0.161527,47,282,577,6240
1644188128.637932,-0.009338,0.012146,-0.991882,0.052916,0.462901,-0.192061,47,282,572,6256
1644188128.686362,-0.008789,0.009399,-0.992859,0.190321,0.478168,-0.054656,39,264,587,6240
1644188128.734761,-0.009644,0.012756,-0.993103,0.342992,0.539237,-0.130992,54,275,584,6304
1644188128.783163,-0.010681,0.009338,-0.989624,0.175053,0.325496,-0.115725,46,274,592,6128
1644188128.831568,-0.007263,0.010071,-0.99231,0.205588,0.371298,-0.14626,59,280,584,6224
1644188128.879966,-0.006897,0.009216,-0.99176,0.281924,0.401832,-0.085191,53,283,578,6256
1644188128.928412,-0.008606,0.010193,-0.992798,0.312458,0.432366,-0.130992,55,276,583,6240
1644188128.976748,-0.00824,0.008606,-0.991028,0.175053,0.447634,-0.222595,49,268,584,6224
1644188129.025169,-0.009949,0.010132,-0.991272,0.190321,0.279695,-0.100458,46,279,587,6240
1644188129.083252,-0.009399,0.011841,-0.99292,0.297191,0.310229,-0.054656,47,275,586,6304
1644188129.122747,-0.009521,0.009277,-0.99231,0.281924,0.218626,-0.176794,53,271,592,6304
1644188129.173048,-0.010071,0.010498,-0.990967,0.113985,0.386565,-0.085191,55,269,585,6224
1644188129.22342,-0.010742,0.008972,-0.99231,0.281924,0.585038,-0.115725,52,280,584,6160
1644188129.268255,-0.007507,0.01001,-0.99115,0.236122,0.493435,-0.100458,38,290,582,6240
1644188129.363873,-0.00708,0.012085,-0.992371,0.144519,0.356031,-0.115725,42,280,593,6224
1644188129.412391,-0.01062,0.008057,-0.993469,0.327725,0.493435,-0.130992,57,268,586,6240
1644188129.460631,-0.00769,0.007446,-0.990723,0.312458,0.462901,0.036947,53,276,590,6224
1644188129.509012,-0.008362,0.010193,-0.993347,0.144519,0.417099,0.021679,53,281,580,6256
1644188129.557414,-0.008728,0.011597,-0.991699,0.297191,0.371298,-0.039389,41,279,585,6336
1644188129.605814,-0.009094,0.007385,-0.989197,0.205588,0.340763,-0.25313,52,280,586,6224
1644188129.654219,-0.009521,0.012085,-0.993896,0.236122,0.233893,-0.008855,45,277,586,6224
1644188129.702627,-0.008789,0.009094,-0.993774,0.281924,0.523969,-0.085191,46,279,571,6256
1644188129.750982,-0.011658,0.007935,-0.994812,0.144519,0.447634,-0.008855,51,269,583,6192
1644188129.799373,-0.009888,0.005066,-0.99231,0.144519,0.325496,0.006412,51,288,580,6224
1644188129.847831,-0.009338,0.011353,-0.994324,0.312458,0.462901,-0.100458,51,283,580,6176
1644188129.896221,-0.006958,0.008606,-0.992859,0.190321,0.325496,-0.130992,40,277,579,6224
1644188129.944713,-0.008606,0.009338,-0.992615,0.35826,0.401832,-0.176794,53,281,583,6240
1644188129.993021,-0.008972,0.01001,-0.994629,0.175053,0.432366,-0.024122,49,275,584,6224
1644188130.04137,-0.012146,0.009399,-0.993469,0.266656,0.294962,-0.054656,55,266,597,6192
1644188130.093189,-0.007629,0.008972,-0.993347,0.404061,0.493435,-0.054656,47,273,582,6240
1644188130.138165,-0.006287,0.011475,-0.992004,0.266656,0.356031,-0.161527,55,266,583,6256
1644188130.186536,-0.008911,0.009705,-0.993347,0.190321,0.493435,-0.100458,61,268,582,6256
1644188130.234922,-0.006226,0.008301,-0.990845,0.205588,0.447634,-0.069924,43,271,587,6192
1644188130.283641,-0.008911,0.009033,-0.991333,0.144519,0.600305,-0.085191,45,268,593,6176
1644188130.333983,-0.010742,0.008606,-0.989746,0.159786,0.401832,-0.115725,48,269,580,6176
1644188130.384423,-0.009521,0.008789,-0.99292,0.35826,0.432366,-0.100458,47,268,591,6224
1644188130.429264,-0.009949,0.008606,-0.993225,0.281924,0.432366,-0.069924,41,274,585,6192
1644188130.525418,-0.009644,0.01001,-0.99292,0.098718,0.462901,-0.008855,43,281,580,6224
1644188130.573698,-0.008484,0.010437,-0.990967,0.327725,0.478168,-0.069924,46,279,578,6240
1644188130.622067,-0.007507,0.01123,-0.991577,0.236122,0.447634,-0.054656,59,273,582,6240
1644188130.670458,-0.008423,0.009705,-0.993103,0.175053,0.386565,-0.192061,53,269,578,6256
1644188130.718838,-0.008972,0.009277,-0.993469,0.404061,0.432366,-0.237863,41,274,580,6240
1644188130.767258,-0.007141,0.009583,-0.98999,0.220855,0.310229,-0.100458,49,277,589,6192
1644188130.815646,-0.007812,0.01062,-0.991211,0.281924,0.279695,-0.100458,32,281,578,6192
1644188130.864076,-0.006775,0.010864,-0.990723,0.266656,0.417099,-0.039389,46,283,576,6176
1644188130.912484,-0.011292,0.010254,-0.991943,0.327725,0.417099,-0.100458,40,277,584,6176
1644188130.960864,-0.008118,0.008728,-0.993225,0.220855,0.356031,-0.222595,49,270,584,6224
1644188131.009234,-0.007935,0.010315,-0.991333,0.236122,0.417099,-0.14626,41,279,592,6224
1644188131.068893,-0.005859,0.009644,-0.992676,0.175053,0.310229,-0.100458,45,282,589,6240
1644188131.106099,-0.007385,0.009766,-0.993164,0.35826,0.356031,-0.130992,54,270,591,6256
1644188131.154406,-0.00824,0.011292,-0.992859,0.312458,0.462901,-0.176794,39,262,590,6256
1644188131.202824,-0.007568,0.009094,-0.99585,0.175053,0.432366,-0.085191,47,273,591,6224
1644188131.25116,-0.008301,0.008423,-0.992004,0.113985,0.462901,-0.192061,48,266,594,6240
1644188131.299568,-0.007507,0.007263,-0.990295,0.312458,0.539237,-0.100458,47,270,591,6224
1644188131.34796,-0.008484,0.008484,-0.991638,0.205588,0.462901,-0.069924,45,282,582,6288
1644188131.396706,-0.009094,0.011536,-0.993225,0.266656,0.432366,-0.222595,51,276,576,6192
1644188131.446909,-0.011292,0.009155,-0.993835,0.220855,0.478168,-0.176794,46,274,590,6192
1644188131.497514,-0.009277,0.007751,-0.992676,0.175053,0.340763,-0.14626,51,286,597,6224
1644188131.542194,-0.007263,0.009033,-0.991699,0.404061,0.294962,0.021679,47,277,579,6224
1644188131.638308,-0.006958,0.009766,-0.992065,0.266656,0.386565,-0.100458,41,269,576,6176
1644188131.686709,-0.010742,0.012268,-0.992249,0.205588,0.478168,-0.008855,38,273,582,6256
1644188131.735323,-0.009521,0.007385,-0.992615,0.175053,0.340763,0.082748,53,288,585,6240
1644188131.783517,-0.007446,0.010437,-0.991516,0.113985,0.386565,-0.176794,52,280,584,6160
1644188131.831885,-0.009399,0.009094,-0.990784,0.251389,0.401832,-0.069924,40,270,582,6256
1644188131.880333,-0.010498,0.012878,-0.992188,-0.084489,0.493435,0.036947,48,276,585,6224
1644188131.928868,-0.007385,0.012634,-0.992065,0.022382,0.371298,-0.069924,43,279,578,6256
1644188131.97712,-0.01001,0.008362,-0.991089,0.144519,0.356031,-0.039389,53,274,592,6288
1644188132.02551,-0.006409,0.009155,-0.988464,0.236122,0.432366,-0.008855,53,276,580,6192
1644188132.086665,-0.010193,0.008667,-0.992126,-0.008153,0.310229,-0.085191,53,274,583,6224
1644188132.122268,-0.008362,0.009583,-0.993347,0.190321,0.462901,-0.069924,46,274,590,6240
1644188132.17064,-0.009705,0.01416,-0.99176,0.388794,0.401832,-0.008855,55,276,573,6336
1644188132.219043,-0.011719,0.011292,-0.991394,0.297191,0.539237,-0.024122,58,276,585,6192
1644188132.267441,-0.010315,0.008728,-0.990845,0.220855,0.356031,0.021679,60,283,580,6176
1644188132.315799,-0.006958,0.010986,-0.991333,0.175053,0.462901,-0.130992,51,279,594,6224
1644188132.364215,-0.007935,0.010498,-0.991943,0.098718,0.478168,-0.085191,54,277,589,6240
1644188132.41263,-0.007935,0.008789,-0.992188,0.404061,0.432366,-0.039389,41,281,594,6224
1644188132.461006,-0.006653,0.010986,-0.992676,0.175053,0.417099,0.006412,48,281,583,6224
1644188132.509399,-0.010071,0.012695,-0.989868,0.251389,0.356031,-0.085191,57,277,579,6240
1644188132.55807,-0.010559,0.010254,-0.993469,0.098718,0.310229,-0.054656,45,273,579,6240
1644188132.608401,-0.008484,0.007629,-0.993835,0.297191,0.447634,-0.130992,55,264,580,6240
1644188132.658493,-0.008484,0.009521,-0.992981,0.205588,0.294962,-0.14626,48,288,583,6256
1644188132.703561,-0.009399,0.010437,-0.992004,0.297191,0.294962,-0.115725,55,283,592,6224
1644188132.799735,-0.006348,0.010864,-0.989807,0.266656,0.340763,-0.024122,55,262,583,6224
1644188132.848128,-0.008789,0.007629,-0.991455,0.297191,0.294962,-0.008855,48,269,566,6192
1644188132.896566,-0.009094,0.010925,-0.991943,0.098718,0.340763,0.052214,43,283,587,6224
1644188132.945031,-0.010254,0.009094,-0.993347,0.297191,0.310229,-0.024122,45,280,584,6224
1644188132.993383,-0.007507,0.010193,-0.992493,0.175053,0.340763,-0.14626,49,275,589,6240
1644188133.041767,-0.009155,0.00946,-0.991699,0.052916,0.218626,-0.054656,49,268,575,6224
1644188133.092861,-0.008972,0.010254,-0.991333,0.175053,0.386565,-0.130992,47,282,591,6176
1644188133.138543,-0.012878,0.008728,-0.992371,0.388794,0.356031,-0.008855,48,279,590,6240
1644188133.18695,-0.00946,0.00946,-0.992371,0.251389,0.218626,-0.085191,45,270,582,6240
1644188133.235353,-0.011841,0.009155,-0.991394,0.342992,0.462901,-0.207328,41,279,587,6288
1644188133.283701,-0.009888,0.010681,-0.991211,0.251389,0.325496,-0.024122,43,283,580,6176
1644188133.332153,-0.006165,0.010132,-0.992004,0.312458,0.233893,-0.054656,41,281,580,6224
1644188133.380497,-0.00824,0.009583,-0.992432,0.266656,0.401832,-0.100458,49,277,589,6224
1644188133.428907,-0.009827,0.01001,-0.992493,0.297191,0.539237,-0.085191,38,277,586,6224
1644188133.477296,-0.008728,0.012268,-0.992065,0.434595,0.417099,-0.085191,41,274,583,6224
1644188133.525728,-0.009644,0.008789,-0.991638,0.266656,0.417099,-0.008855,53,271,594,6224
1644188133.575094,-0.011658,0.007874,-0.992432,0.236122,0.600305,0.036947,55,276,585,6224
1644188133.625673,-0.007202,0.007568,-0.98999,0.327725,0.401832,-0.161527,57,275,586,6240
1644188133.675636,-0.00885,0.010864,-0.991089,0.205588,0.356031,-0.008855,52,277,582,6224
1644188133.720195,-0.009277,0.00708,-0.99115,0.35826,0.478168,-0.100458,49,275,589,6224
1644188133.816026,-0.007629,0.009277,-0.992126,0.144519,0.417099,-0.054656,51,266,585,6240
1644188133.864449,-0.008362,0.010742,-0.992493,0.175053,0.386565,-0.14626,57,270,593,6224
1644188133.912851,-0.010864,0.009399,-0.992798,0.220855,0.325496,-0.054656,58,274,585,6160
1644188133.961293,-0.008423,0.007385,-0.989807,0.266656,0.325496,-0.039389,49,273,582,6240
1644188134.009598,-0.010132,0.007507,-0.991272,0.144519,0.279695,-0.115725,45,285,593,6256
1644188134.065668,-0.010315,0.010864,-0.99353,0.144519,0.294962,-0.14626,43,276,590,6240
1644188134.107954,-0.009155,0.00647,-0.992981,0.251389,0.539237,0.052214,55,276,585,6224
1644188134.154833,-0.004639,0.009766,-0.992493,0.129252,0.310229,-0.054656,45,282,584,6160
1644188134.20318,-0.009216,0.007996,-0.990295,0.251389,0.447634,-0.039389,49,282,584,6224
1644188134.251546,-0.007568,0.010437,-0.99054,0.175053,0.386565,-0.115725,40,277,591,6256
1644188134.299946,-0.007935,0.006897,-0.99292,0.327725,0.447634,-0.085191,43,271,599,6240
1644188134.348317,-0.009583,0.009399,-0.987793,-0.008153,0.340763,-0.008855,47,263,586,6256
1644188134.396721,-0.007751,0.011536,-0.992371,0.251389,0.279695,-0.039389,49,292,586,6160
1644188134.44516,-0.010315,0.009399,-0.98999,0.190321,0.447634,-0.298931,46,271,578,6224
1644188134.493519,-0.008057,0.011658,-0.989624,0.297191,0.340763,-0.085191,52,265,586,6128
1644188134.541905,-0.007385,0.012451,-0.993225,0.236122,0.386565,-0.14626,46,279,599,6192
1644188134.5903,-0.00824,0.006653,-0.991821,0.144519,0.386565,-0.054656,45,270,582,6160
1644188134.638709,-0.009399,0.009033,-0.990906,0.312458,0.310229,-0.085191,58,271,583,6224
1644188134.688127,-0.010437,0.008301,-0.989197,0.159786,0.432366,0.006412,52,275,586,6240
1644188134.738518,-0.005371,0.009583,-0.989868,0.220855,0.340763,0.021679,55,264,580,6240
1644188134.788779,-0.009033,0.00946,-0.990723,0.266656,0.401832,-0.024122,40,280,584,6224
1644188134.880671,-0.009338,0.009216,-0.989624,0.281924,0.447634,-0.130992,48,266,583,6256
1644188134.929091,-0.005981,0.009766,-0.993042,0.220855,0.310229,-0.115725,55,274,578,6192
1644188134.977481,-0.008911,0.01001,-0.990051,0.297191,0.508702,-0.14626,46,279,585,6160
1644188135.025874,-0.010254,0.010437,-0.987183,0.297191,0.279695,-0.176794,55,283,578,6256
1644188135.074338,-0.007874,0.009583,-0.989319,0.190321,0.447634,-0.008855,59,280,593,6176
1644188135.122651,-0.008057,0.010376,-0.992798,0.281924,0.356031,0.036947,53,283,583,6176
1644188135.171019,-0.008667,0.006409,-0.98938,0.175053,0.447634,-0.039389,51,274,587,6256
1644188135.219423,-0.00769,0.008423,-0.990662,0.159786,0.264427,-0.100458,51,269,580,6240
1644188135.26777,-0.007507,0.01178,-0.991333,0.159786,0.203359,-0.039389,45,273,579,6160
1644188135.316189,-0.007874,0.010559,-0.988892,0.266656,0.371298,-0.054656,53,271,592,6224
1644188135.36471,-0.007507,0.007751,-0.992493,0.205588,0.462901,-0.100458,58,269,587,6288
1644188135.41301,-0.008423,0.011597,-0.99054,0.190321,0.447634,-0.024122,54,280,586,6224
1644188135.461376,-0.01123,0.007507,-0.991638,0.190321,0.340763,-0.222595,42,280,584,6288
1644188135.509753,-0.012512,0.008972,-0.992065,0.144519,0.417099,-0.161527,57,280,593,6224
1644188135.55816,-0.006653,0.009277,-0.992615,0.342992,0.340763,-0.237863,52,275,577,6176
1644188135.606555,-0.009094,0.008301,-0.993469,0.297191,0.432366,-0.008855,42,273,586,6192
1644188135.654993,-0.004395,0.012146,-0.991272,0.129252,0.386565,-0.115725,45,277,596,6224
1644188135.703342,-0.007629,0.010681,-0.993835,0.251389,0.401832,-0.039389,47,273,575,6224
1644188135.751724,-0.005859,0.006897,-0.991821,0.175053,0.371298,0.067481,52,273,582,6224
1644188135.802023,-0.01123,0.013123,-0.99292,0.129252,0.340763,-0.008855,42,282,582,6224
1644188135.851385,-0.009033,0.007935,-0.99115,0.144519,0.417099,-0.14626,47,277,579,6224
1644188135.902506,-0.010864,0.007812,-0.991272,0.281924,0.554504,-0.161527,42,275,584,6224
1644188135.946549,-0.010254,0.008545,-0.994263,0.35826,0.508702,0.006412,47,282,591,6224
1644188136.042411,-0.008423,0.007324,-0.992981,0.175053,0.432366,-0.054656,51,276,580,6256
1644188136.094397,-0.005127,0.006714,-0.990479,0.08345,0.340763,-0.039389,61,275,589,6224
1644188136.138862,-0.008545,0.008362,-0.99054,0.190321,0.401832,-0.130992,52,270,584,6176
1644188136.187263,-0.005676,0.009155,-0.993225,0.434595,0.356031,-0.085191,53,276,573,6240
1644188136.235647,-0.007385,0.01123,-0.993896,0.052916,0.523969,0.036947,45,273,577,6240
1644188136.284027,-0.010193,0.008545,-0.989929,0.281924,0.447634,-0.207328,53,283,587,6192
1644188136.33247,-0.003906,0.009155,-0.991821,0.236122,0.417099,0.021679,42,273,584,6224
1644188136.380845,-0.005188,0.008606,-0.992676,0.113985,0.340763,0.021679,45,282,579,6224
1644188136.42924,-0.009216,0.011292,-0.991211,0.129252,0.371298,-0.100458,48,276,578,6176
1644188136.477629,-0.008057,0.009766,-0.992798,0.251389,0.478168,-0.161527,47,285,586,6240
1644188136.526024,-0.006104,0.01001,-0.994751,0.236122,0.432366,-0.192061,49,277,579,6224
1644188136.574428,-0.009766,0.009338,-0.993103,0.068183,0.279695,-0.14626,54,268,589,6160
1644188136.62284,-0.009277,0.008423,-0.991516,0.037649,0.386565,-0.039389,58,264,583,6240
1644188136.671203,-0.010315,0.00885,-0.990356,0.205588,0.523969,-0.008855,40,277,589,6224
1644188136.719598,-0.009583,0.009827,-0.988708,0.175053,0.279695,0.006412,49,268,591,6224
1644188136.767977,-0.005737,0.009521,-0.989929,0.266656,0.264427,-0.069924,53,276,590,6192
1644188136.816572,-0.007629,0.009521,-0.989868,0.052916,0.325496,-0.024122,47,277,589,6192
1644188136.864835,-0.007202,0.009583,-0.993286,0.113985,0.478168,0.006412,41,283,592,6192
1644188136.914473,-0.007629,0.009399,-0.989624,0.327725,0.340763,-0.100458,46,274,587,6128
1644188136.964561,-0.007751,0.007812,-0.992554,0.175053,0.325496,-0.283664,52,273,586,6240
1644188137.06256,-0.009399,0.008911,-0.992676,0.236122,0.386565,-0.039389,61,280,591,6224
1644188137.10673,-0.009155,0.011536,-0.992004,0.297191,0.386565,-0.069924,61,290,582,6240
1644188137.155398,-0.011963,0.010315,-0.991394,0.190321,0.554504,-0.115725,40,270,582,6192
1644188137.203513,-0.006165,0.007629,-0.992432,0.388794,0.340763,-0.222595,48,279,587,6192
1644188137.251891,-0.007568,0.009705,-0.995422,0.388794,0.401832,-0.14626,46,281,587,6240
1644188137.300307,-0.009949,0.009583,-0.99292,0.190321,0.294962,-0.085191,55,281,592,6256
1644188137.348708,-0.010376,0.010986,-0.993042,0.205588,0.493435,-0.069924,55,262,587,6224
1644188137.397106,-0.011414,0.008423,-0.991089,0.052916,0.386565,-0.161527,46,279,594,6224
1644188137.445491,-0.008728,0.007141,-0.994812,0.190321,0.386565,0.052214,45,282,589,6224
1644188137.493866,-0.007385,0.007202,-0.993652,0.251389,0.401832,0.021679,47,277,582,6224
1644188137.542339,-0.00946,0.008667,-0.993958,0.297191,0.325496,-0.085191,49,282,584,6224
1644188137.590666,-0.008545,0.009827,-0.994446,0.08345,0.462901,-0.085191,53,288,576,6176
1644188137.639058,-0.010254,0.01239,-0.994629,0.297191,0.325496,-0.039389,42,270,586,6192
1644188137.687447,-0.008362,0.00885,-0.991638,0.190321,0.585038,-0.100458,51,269,585,6176
1644188137.73584,-0.009888,0.010071,-0.993713,0.190321,0.539237,-0.039389,57,282,591,6224
1644188137.78422,-0.01178,0.007019,-0.990173,0.526198,0.371298,-0.161527,46,281,599,6224
1644188137.832709,-0.008789,0.011353,-0.991821,0.159786,0.462901,-0.115725,49,282,584,6224
1644188137.882422,-0.009277,0.007019,-0.991638,0.297191,0.325496,-0.039389,48,286,580,6224
1644188137.932947,-0.008972,0.008911,-0.992859,0.190321,0.554504,0.143817,52,275,582,6192
1644188137.98277,-0.008362,0.008911,-0.993103,0.236122,0.356031,-0.100458,46,288,583,6256
1644188138.027757,-0.010254,0.008118,-0.992249,0.236122,0.508702,-0.222595,48,279,576,6160
1644188138.122992,-0.009277,0.013,-0.991638,0.144519,0.493435,-0.054656,49,280,584,6176
1644188138.171366,-0.007812,0.009827,-0.989502,0.312458,0.386565,-0.237863,43,281,587,6192
1644188138.219761,-0.009827,0.009949,-0.994324,0.388794,0.432366,-0.130992,51,269,580,6224
1644188138.268161,-0.010498,0.009888,-0.992554,0.175053,0.264427,-0.085191,45,285,579,6240
1644188138.316545,-0.010925,0.011047,-0.993164,0.281924,0.340763,-0.14626,52,277,582,6240
1644188138.365051,-0.01062,0.010498,-0.99054,0.205588,0.462901,-0.14626,40,282,579,6240
1644188138.413329,-0.008789,0.010315,-0.995789,0.190321,0.478168,-0.222595,48,279,580,6224
1644188138.461748,-0.008728,0.009644,-0.994507,0.159786,0.371298,0.021679,53,281,583,6176
1644188138.510133,-0.006409,0.006531,-0.990479,0.068183,0.310229,-0.054656,48,279,580,6224
1644188138.558523,-0.009705,0.011108,-0.992676,0.007115,0.417099,-0.14626,35,285,579,6240
1644188138.606917,-0.008972,0.010742,-0.991394,0.251389,0.294962,-0.008855,47,280,575,6160
1644188138.655312,-0.008545,0.009583,-0.992249,0.205588,0.417099,-0.008855,53,276,578,6192
1644188138.703707,-0.009949,0.00946,-0.991028,0.35826,0.371298,-0.161527,53,276,590,6240
1644188138.752211,-0.008728,0.011902,-0.990662,0.113985,0.294962,-0.100458,47,282,579,6224
1644188138.800495,-0.009155,0.009033,-0.993225,0.159786,0.356031,-0.054656,45,282,591,6256
1644188138.848924,-0.008911,0.008545,-0.991516,0.251389,0.401832,-0.024122,48,293,587,6240
1644188138.897318,-0.00885,0.007507,-0.992126,0.266656,0.264427,-0.100458,52,277,582,6160
1644188138.946058,-0.010315,0.008423,-0.992554,0.312458,0.462901,-0.176794,51,279,578,6112
1644188138.994129,-0.01062,0.010925,-0.990234,0.175053,0.356031,-0.054656,60,262,583,6240
1644188139.044114,-0.009766,0.008057,-0.991699,0.281924,0.417099,-0.14626,48,274,594,6192
1644188139.101759,-0.009399,0.010742,-0.992126,0.266656,0.386565,-0.161527,51,283,587,6192
1644188139.144238,-0.008484,0.008728,-0.992004,0.46513,0.493435,-0.222595,47,285,584,6192
1644188139.188586,-0.010254,0.00885,-0.992126,0.297191,0.417099,-0.008855,43,283,580,6160
1644188139.284416,-0.008301,0.010498,-0.990051,0.266656,0.539237,-0.161527,42,273,570,6192
1644188139.33284,-0.009521,0.008057,-0.991089,0.205588,0.325496,-0.069924,54,275,579,6224
1644188139.381184,-0.01239,0.009705,-0.993164,0.297191,0.432366,-0.130992,49,277,586,6256
1644188139.429596,-0.008606,0.008545,-0.994324,0.281924,0.432366,-0.069924,55,276,576,6224
1644188139.477986,-0.007751,0.009949,-0.993774,0.144519,0.279695,0.067481,46,283,580,6160
1644188139.526362,-0.009155,0.010498,-0.99292,0.08345,0.432366,-0.176794,54,277,577,6224
1644188139.574781,-0.008911,0.009949,-0.992371,-0.02342,0.447634,-0.069924,43,279,580,6256
1644188139.623185,-0.009888,0.009155,-0.990479,0.052916,0.432366,-0.024122,46,281,585,6224
1644188139.671538,-0.00708,0.008728,-0.992798,0.281924,0.462901,-0.054656,45,268,582,6176
1644188139.719959,-0.012207,0.012451,-0.991516,0.297191,0.356031,0.021679,55,279,590,6256
1644188139.768356,-0.010925,0.009094,-0.990784,0.327725,0.432366,-0.024122,47,273,577,6240
1644188139.816749,-0.009155,0.008789,-0.989441,0.297191,0.356031,-0.115725,47,280,577,6240
1644188139.865302,-0.007446,0.008728,-0.992493,0.236122,0.417099,0.036947,51,269,583,6224
1644188139.913594,-0.006653,0.008057,-0.990906,0.175053,0.386565,-0.130992,58,286,587,6240
1644188139.961965,-0.011719,0.008911,-0.992737,0.281924,0.462901,-0.039389,51,274,587,6288
1644188140.010361,-0.009521,0.010559,-0.989929,0.113985,0.432366,-0.115725,45,263,591,6224
1644188140.107125,-0.01001,0.01001,-0.992981,0.220855,0.539237,-0.069924,55,274,573,6240
1644188140.155505,-0.009583,0.008118,-0.993469,0.266656,0.432366,-0.024122,45,273,577,6224
1644188140.203885,-0.008728,0.010193,-0.988647,0.266656,0.539237,-0.039389,47,275,589,6176
1644188140.252396,-0.006775,0.008484,-0.989868,0.297191,0.356031,-0.192061,49,280,586,6256
1644188140.300669,-0.011841,0.007446,-0.990906,0.175053,0.371298,-0.14626,52,273,577,6256
1644188140.34907,-0.011292,0.009277,-0.993835,0.190321,0.401832,-0.100458,55,288,587,6224
1644188140.397456,-0.008423,0.008545,-0.991821,0.251389,0.447634,-0.161527,48,279,573,6288
1644188140.44586,-0.010315,0.009644,-0.993652,0.236122,0.569771,-0.100458,53,274,585,6240
1644188140.49426,-0.008545,0.011963,-0.990234,0.236122,0.325496,0.052214,42,275,586,6224
1644188140.542635,-0.010742,0.010681,-0.992493,0.052916,0.447634,-0.085191,43,276,590,6224
1644188140.591029,-0.009949,0.010254,-0.992798,0.35826,0.462901,0.006412,49,270,589,6288
1644188140.639417,-0.00885,0.008911,-0.990051,0.159786,0.340763,0.021679,47,268,582,6256
1644188140.687798,-0.009521,0.008057,-0.991333,0.251389,0.325496,-0.039389,48,288,583,6224
1644188140.736205,-0.007874,0.009338,-0.992737,0.266656,0.356031,-0.069924,54,282,586,6256
1644188140.784647,-0.009399,0.012634,-0.990906,0.312458,0.371298,-0.237863,47,273,582,6256
1644188140.833014,-0.009644,0.00824,-0.990356,0.251389,0.310229,-0.329466,45,273,579,6240
1644188140.881418,-0.008301,0.007446,-0.994324,0.113985,0.417099,-0.069924,48,279,583,6192
1644188140.92979,-0.011841,0.008667,-0.992676,0.175053,0.401832,0.006412,47,270,593,6128
1644188140.978234,-0.005249,0.011719,-0.989502,0.175053,0.508702,-0.069924,51,283,583,6240
1644188141.02796,-0.013,0.008301,-0.990112,0.220855,0.356031,-0.039389,47,275,596,6224
1644188141.093082,-0.007324,0.008362,-0.991638,0.175053,0.356031,-0.008855,53,271,580,6288
1644188141.128456,-0.009766,0.010315,-0.992004,0.113985,0.462901,0.006412,48,276,590,6240
1644188141.172845,-0.011841,0.007263,-0.994446,0.236122,0.24916,-0.024122,51,274,585,6288
1644188141.268575,-0.0047,0.010986,-0.993286,0.113985,0.447634,-0.14626,49,275,589,6304
1644188141.316948,-0.006897,0.011841,-0.990356,0.220855,0.417099,0.021679,54,280,577,6224
1644188141.365352,-0.010071,0.007141,-0.990417,0.190321,0.386565,-0.085191,51,271,583,6192
1644188141.413745,-0.006409,0.008545,-0.99115,0.175053,0.310229,-0.237863,46,279,585,6160
1644188141.462201,-0.008118,0.009338,-0.990906,0.35826,0.417099,-0.024122,49,277,582,6240
1644188141.510549,-0.011353,0.011475,-0.991821,0.266656,0.386565,-0.130992,51,269,576,6176
1644188141.558909,-0.008362,0.009399,-0.992859,0.251389,0.539237,-0.14626,53,274,592,6192
1644188141.607321,-0.010193,0.009155,-0.99054,0.342992,0.356031,-0.161527,55,281,576,6176
1644188141.655727,-0.008423,0.010254,-0.993042,0.220855,0.401832,-0.130992,35,273,579,6224
1644188141.704132,-0.008484,0.010437,-0.991699,0.251389,0.340763,-0.161527,43,271,580,6224
1644188141.752532,-0.00647,0.00824,-0.99176,0.388794,0.508702,-0.008855,53,276,578,6224
1644188141.800892,-0.011047,0.012939,-0.992493,0.236122,0.462901,-0.161527,45,270,584,6256
1644188141.849298,-0.010559,0.010376,-0.992493,0.297191,0.478168,-0.14626,55,279,590,6240
1644188141.897717,-0.010376,0.012207,-0.990295,0.159786,0.371298,-0.039389,52,270,589,6224
1644188141.946061,-0.010193,0.010681,-0.994263,0.327725,0.401832,-0.130992,52,273,584,6240
1644188141.99447,-0.009705,0.01001,-0.990051,0.312458,0.386565,0.006412,58,274,590,6224
1644188142.042882,-0.007751,0.009705,-0.990479,0.251389,0.432366,-0.069924,42,280,589,6176
1644188142.097246,-0.00824,0.007385,-0.991211,0.297191,0.325496,-0.207328,45,277,586,6224
1644188142.140429,-0.007812,0.012939,-0.991638,0.266656,0.386565,-0.100458,40,273,589,6224
1644188142.190244,-0.00592,0.011353,-0.99176,0.205588,0.417099,-0.130992,61,268,591,6224
1644188142.240411,-0.009888,0.005737,-0.990723,0.144519,0.585038,-0.115725,59,273,579,6192
1644188142.285633,-0.010864,0.007263,-0.997192,0.251389,0.279695,-0.100458,55,286,583,6288
1644188142.381574,-0.007446,0.009399,-0.989929,0.175053,0.356031,-0.054656,51,271,580,6224
1644188142.429957,-0.007812,0.00885,-0.991638,0.266656,0.233893,-0.237863,52,282,579,6192
1644188142.478353,-0.009521,0.008911,-0.991455,0.342992,0.310229,0.021679,54,275,584,6224
1644188142.526752,-0.009033,0.006958,-0.990356,0.342992,0.462901,0.021679,42,273,584,6128
1644188142.575169,-0.00824,0.009888,-0.989929,0.281924,0.386565,-0.069924,38,280,589,6160
1644188142.623525,-0.01001,0.011963,-0.990662,0.220855,0.401832,-0.130992,54,294,582,6288
1644188142.671944,-0.007935,0.010437,-0.990784,0.327725,0.340763,-0.161527,54,273,582,6240
1644188142.720324,-0.009705,0.006409,-0.992432,0.236122,0.356031,-0.115725,40,277,570,6224
1644188142.768735,-0.010315,0.00769,-0.99231,0.266656,0.294962,-0.069924,52,273,591,6240
1644188142.817129,-0.008789,0.008423,-0.990417,0.098718,0.417099,-0.329466,48,274,587,6160
1644188142.865551,-0.008423,0.008423,-0.99176,0.266656,0.447634,0.006412,54,275,577,6176
1644188142.913957,-0.01178,0.008423,-0.992188,0.144519,0.386565,-0.298931,48,276,576,6176
1644188142.962331,-0.009033,0.008301,-0.992615,0.342992,0.218626,-0.085191,55,276,590,6256
1644188143.010695,-0.009094,0.009766,-0.994141,0.236122,0.294962,0.036947,40,275,593,6256
1644188143.069983,-0.010864,0.007812,-0.991699,0.236122,0.585038,-0.024122,52,270,589,6192
1644188143.107462,-0.009155,0.00885,-0.993042,0.159786,0.478168,-0.283664,62,271,587,6192
1644188143.155864,-0.009338,0.008911,-0.991394,0.022382,0.508702,0.021679,55,269,592,6256
1644188143.204254,-0.010559,0.008057,-0.990906,0.205588,0.401832,-0.161527,42,277,584,6224
1644188143.252947,-0.00885,0.008972,-0.994141,0.236122,0.233893,-0.207328,51,274,578,6224
1644188143.301716,-0.007507,0.011169,-0.991516,-0.053954,0.523969,0.006412,35,282,589,6224
1644188143.352344,-0.010315,0.007935,-0.993042,0.404061,0.493435,-0.192061,42,287,575,6224
1644188143.402442,-0.009277,0.010986,-0.990051,0.190321,0.539237,-0.100458,55,276,583,6224
1644188143.447719,-0.012756,0.007263,-0.991943,0.220855,0.539237,-0.115725,51,279,585,6224
1644188143.543005,-0.010986,0.008545,-0.993835,0.281924,0.310229,-0.130992,48,274,573,6192
1644188143.591395,-0.006042,0.007507,-0.992737,0.129252,0.386565,-0.100458,38,265,593,6224
1644188143.639782,-0.009033,0.009094,-0.994202,0.266656,0.493435,-0.192061,53,266,580,6240
1644188143.688183,-0.006348,0.008179,-0.993591,0.297191,0.294962,-0.115725,41,279,578,6224
1644188143.73657,-0.007812,0.009583,-0.989441,0.373527,0.401832,0.067481,43,271,583,6240
1644188143.785022,-0.010864,0.008484,-0.991638,0.129252,0.417099,0.052214,45,270,572,6256
1644188143.833419,-0.009338,0.008423,-0.992065,0.266656,0.371298,-0.115725,48,281,580,6256
1644188143.881798,-0.009216,0.006531,-0.994141,0.251389,0.386565,-0.069924,52,282,582,6224
1644188143.9302,-0.01123,0.008667,-0.991882,0.312458,0.371298,-0.100458,52,280,584,6256
1644188143.978592,-0.011108,0.009521,-0.991089,0.144519,0.417099,-0.192061,51,276,578,6256
1644188144.026969,-0.006042,0.007996,-0.99353,0.251389,0.325496,-0.069924,42,280,586,6224
1644188144.084935,-0.008728,0.008545,-0.994812,0.297191,0.417099,-0.237863,57,280,593,6224
1644188144.123733,-0.008911,0.007385,-0.991333,0.266656,0.386565,-0.039389,60,276,585,6240
1644188144.172468,-0.008911,0.010681,-0.99353,0.175053,0.447634,-0.161527,38,287,586,6176
1644188144.221407,-0.009216,0.010925,-0.993591,0.098718,0.340763,-0.085191,55,274,592,6224
1644188144.271987,-0.008484,0.007141,-0.991943,0.236122,0.356031,-0.085191,48,279,578,6224
1644188144.322068,-0.00647,0.008362,-0.990295,0.373527,0.386565,0.006412,53,279,585,6192
1644188144.367171,-0.008606,0.007324,-0.990967,0.190321,0.24916,-0.085191,40,270,582,6224
1644188144.462478,-0.010132,0.009521,-0.9953,0.297191,0.462901,-0.085191,51,279,571,6224
1644188144.510823,-0.007446,0.00824,-0.990845,0.205588,0.401832,-0.008855,48,274,583,6224
1644188144.559246,-0.009277,0.008179,-0.992615,0.312458,0.447634,-0.008855,47,270,591,6224
1644188144.607648,-0.007202,0.007996,-0.993042,0.327725,0.432366,-0.115725,49,275,584,6192
1644188144.656037,-0.010132,0.011536,-0.991516,0.205588,0.493435,-0.085191,48,281,583,6256
1644188144.704445,-0.007019,0.012512,-0.990906,0.297191,0.539237,-0.14626,51,279,578,6224
1644188144.752816,-0.009521,0.01062,-0.99292,0.297191,0.432366,-0.024122,41,266,597,6256
1644188144.80123,-0.007935,0.009888,-0.99353,0.281924,0.462901,-0.008855,52,277,589,6256
1644188144.849665,-0.007935,0.010437,-0.993347,0.236122,0.371298,-0.008855,41,266,583,6192
1644188144.898053,-0.008057,0.007629,-0.991394,0.190321,0.401832,-0.130992,38,275,584,6240
1644188144.946457,-0.009705,0.008667,-0.991028,0.190321,0.340763,-0.161527,49,282,584,6256
1644188144.994798,-0.009949,0.00946,-0.989319,0.220855,0.417099,0.036947,60,266,578,6224
1644188145.043234,-0.010193,0.009644,-0.992798,0.251389,0.340763,-0.024122,52,275,586,6240
1644188145.097977,-0.00885,0.010254,-0.992065,0.251389,0.401832,0.021679,55,281,585,6224
1644188145.139937,-0.011353,0.006592,-0.993958,0.098718,0.356031,0.021679,53,279,580,6176
1644188145.18837,-0.007019,0.009094,-0.991699,0.297191,0.401832,-0.14626,51,274,583,6224
1644188145.236757,-0.006897,0.008118,-0.991089,0.205588,0.386565,-0.192061,53,271,590,6304
1644188145.285192,-0.007751,0.008423,-0.992188,0.297191,0.340763,-0.130992,47,277,579,6256
1644188145.333545,-0.009888,0.009888,-0.992004,0.205588,0.417099,-0.054656,48,274,583,6192
1644188145.381983,-0.012817,0.009399,-0.991882,0.205588,0.325496,0.006412,46,271,587,6240
1644188145.432229,-0.010193,0.008606,-0.99115,0.205588,0.340763,0.021679,60,286,578,6192
1644188145.482683,-0.00824,0.009644,-0.990967,0.205588,0.447634,-0.192061,48,271,571,6240
1644188145.52768,-0.010742,0.010437,-0.992371,0.251389,0.356031,-0.069924,57,270,582,6224
1644188145.62391,-0.010193,0.010376,-0.989319,0.022382,0.279695,0.052214,51,264,580,6224
1644188145.672395,-0.009644,0.009827,-0.992554,0.312458,0.356031,-0.192061,46,269,585,6224
1644188145.720685,-0.012695,0.009399,-0.992676,0.205588,0.478168,-0.115725,41,281,594,6176
1644188145.769055,-0.009583,0.008667,-0.991455,0.297191,0.493435,-0.14626,43,271,578,6240
1644188145.817467,-0.007812,0.011108,-0.992126,0.236122,0.310229,-0.085191,51,276,580,6224
1644188145.865908,-0.007446,0.008789,-0.992126,0.236122,0.356031,0.098015,47,273,584,6176
1644188145.914313,-0.010437,0.011719,-0.990723,0.373527,0.417099,-0.054656,46,276,580,6304
1644188145.962714,-0.009705,0.008423,-0.993896,0.144519,0.417099,0.052214,55,283,576,6192
1644188146.011094,-0.006531,0.008606,-0.990417,0.205588,0.356031,-0.176794,52,265,577,6224
1644188146.060961,-0.007996,0.008911,-0.993103,0.236122,0.447634,-0.085191,35,282,584,6240
1644188146.10786,-0.008667,0.011108,-0.99115,0.190321,0.661374,0.006412,46,286,583,6240
1644188146.156228,-0.008667,0.010376,-0.993652,0.236122,0.493435,0.143817,43,271,590,6224
1644188146.204723,-0.009033,0.009277,-0.989319,0.022382,0.447634,-0.039389,43,274,578,6256
1644188146.253019,-0.008484,0.008423,-0.99115,0.205588,0.508702,-0.405802,48,276,592,6240
1644188146.301407,-0.009338,0.009705,-0.990845,0.113985,0.218626,-0.161527,59,277,593,6192
1644188146.349806,-0.008606,0.009216,-0.993835,0.007115,0.279695,-0.176794,54,285,591,6224
1644188146.398165,-0.010254,0.009033,-0.98999,0.113985,0.539237,-0.085191,43,286,594,6192
1644188146.44658,-0.010071,0.006836,-0.989746,0.129252,0.447634,-0.008855,55,279,578,6160
1644188146.495018,-0.009338,0.009888,-0.994751,0.220855,0.24916,-0.161527,45,280,579,6240
1644188146.54369,-0.00824,0.009583,-0.991943,0.190321,0.386565,-0.130992,46,266,583,6224
1644188146.594059,-0.007812,0.007568,-0.993347,0.236122,0.447634,-0.039389,53,269,580,6256
1644188146.644194,-0.008667,0.009155,-0.989319,0.251389,0.432366,-0.161527,46,271,590,6240
1644188146.689359,-0.009644,0.010498,-0.992554,0.113985,0.493435,-0.161527,46,274,594,6224
1644188146.785413,-0.009277,0.008423,-0.991089,0.205588,0.340763,0.067481,57,270,584,6192
1644188146.833735,-0.007751,0.008789,-0.98938,0.46513,0.447634,-0.039389,42,270,579,6224
1644188146.882431,-0.009399,0.009155,-0.991882,0.144519,0.508702,-0.192061,53,279,578,6224
1644188146.930534,-0.011108,0.009338,-0.992432,0.052916,0.310229,-0.069924,57,280,577,6224
1644188146.978931,-0.006714,0.009216,-0.991333,0.175053,0.401832,-0.054656,42,273,591,6240
1644188147.027307,-0.007812,0.008484,-0.992615,0.266656,0.417099,-0.192061,53,276,585,6224
1644188147.075818,-0.008484,0.009399,-0.990906,0.052916,0.310229,-0.130992,49,265,591,6240
1644188147.124172,-0.008545,0.009216,-0.994324,0.098718,0.371298,-0.130992,45,277,582,6224
1644188147.172469,-0.009521,0.009949,-0.995911,0.007115,0.508702,-0.085191,52,277,579,6240
1644188147.220876,-0.010132,0.009399,-0.990967,0.220855,0.279695,-0.25313,49,270,591,6224
1644188147.269241,-0.005981,0.009338,-0.992615,0.08345,0.447634,-0.039389,46,274,578,6304
1644188147.317662,-0.010803,0.004883,-0.994507,0.190321,0.478168,-0.024122,52,275,582,6224
1644188147.36605,-0.01001,0.011047,-0.992615,0.175053,0.294962,-0.039389,51,281,576,6192
1644188147.414467,-0.006958,0.007874,-0.991211,0.281924,0.478168,-0.161527,49,277,577,6240
1644188147.463522,-0.009888,0.008057,-0.992676,0.175053,0.539237,-0.024122,58,279,587,6160
1644188147.5112,-0.010986,0.009644,-0.992188,0.312458,0.371298,-0.161527,55,283,583,6256
1644188147.559624,-0.007263,0.01001,-0.993835,0.220855,0.279695,-0.14626,55,274,587,6240
1644188147.608019,-0.009949,0.006287,-0.991882,0.175053,0.417099,-0.008855,45,277,589,6240
1644188147.656412,-0.009399,0.006836,-0.992249,0.190321,0.371298,-0.054656,55,281,587,6240
1644188147.705377,-0.01001,0.009888,-0.990234,0.129252,0.447634,-0.008855,47,277,593,6192
1644188147.756397,-0.009216,0.010986,-0.989807,0.175053,0.462901,-0.085191,46,283,578,6256
1644188147.806221,-0.007263,0.01001,-0.992737,0.35826,0.417099,-0.054656,45,277,589,6240
1644188147.851126,-0.00946,0.008301,-0.992615,0.281924,0.523969,-0.100458,45,273,586,6240
1644188147.9468,-0.009338,0.008667,-0.993713,0.236122,0.340763,-0.085191,46,279,585,6224
1644188147.9954,-0.00946,0.012268,-0.992981,0.419328,0.417099,-0.039389,48,286,578,6192
1644188148.0436,-0.007507,0.009399,-0.992737,0.220855,0.310229,-0.14626,49,270,579,6288
1644188148.093576,-0.00946,0.009644,-0.992737,0.266656,0.264427,-0.161527,52,280,591,6224
1644188148.140374,-0.008484,0.00885,-0.994507,0.113985,0.401832,0.006412,49,265,570,6224
1644188148.188712,-0.007446,0.012695,-0.990173,0.342992,0.294962,-0.161527,53,283,583,6224
1644188148.237126,-0.007629,0.011108,-0.994751,0.190321,0.294962,-0.069924,41,279,592,6224
1644188148.285514,-0.006897,0.010681,-0.994446,0.281924,0.310229,-0.085191,60,266,585,6240
1644188148.333928,-0.008301,0.011047,-0.992249,0.281924,0.447634,-0.069924,58,276,587,6224
1644188148.382874,-0.008606,0.008972,-0.991943,0.205588,0.432366,-0.115725,46,269,580,6224
1644188148.430689,-0.009216,0.011414,-0.991699,0.266656,0.310229,0.021679,41,281,576,6176
1644188148.479084,-0.009277,0.010437,-0.989197,0.220855,0.371298,-0.192061,46,279,580,6256
1644188148.527497,-0.009766,0.01239,-0.993408,0.297191,0.386565,-0.222595,58,274,592,6224
1644188148.575871,-0.009155,0.010254,-0.989563,0.129252,0.325496,-0.039389,46,279,585,6224
1644188148.624292,-0.010071,0.011108,-0.988647,0.159786,0.371298,-0.130992,54,275,579,6160
1644188148.674193,-0.008484,0.009094,-0.990234,0.175053,0.340763,-0.14626,57,268,584,6256
1644188148.724504,-0.007812,0.008118,-0.991821,0.236122,0.493435,-0.100458,43,279,585,6176
1644188148.774865,-0.009766,0.008606,-0.994995,0.098718,0.447634,-0.054656,47,270,589,6176
1644188148.866217,-0.009399,0.008362,-0.99408,0.281924,0.462901,-0.024122,58,274,585,6224
1644188148.91501,-0.011719,0.008911,-0.992188,0.205588,0.462901,0.098015,45,270,582,6240
1644188148.963344,-0.011414,0.007507,-0.99353,0.205588,0.478168,-0.14626,48,281,594,6240
1644188149.011432,-0.009888,0.009705,-0.99054,0.220855,0.340763,-0.024122,41,266,590,6176
1644188149.065446,-0.010071,0.008545,-0.992493,0.297191,0.356031,-0.176794,47,270,584,6176
1644188149.108201,-0.010864,0.009033,-0.989746,0.236122,0.447634,-0.069924,42,285,589,6304
1644188149.156626,-0.007812,0.008118,-0.994019,0.327725,0.371298,-0.039389,41,269,576,6288
1644188149.205164,-0.010986,0.009399,-0.991455,0.312458,0.432366,-0.039389,51,283,587,6224
1644188149.253428,-0.007751,0.009277,-0.99231,0.068183,0.401832,-0.100458,45,277,593,6224
1644188149.301825,-0.008301,0.007812,-0.990906,0.08345,0.447634,-0.069924,47,273,577,6240
1644188149.350197,-0.007263,0.008484,-0.990601,0.281924,0.310229,-0.100458,48,286,580,6240
1644188149.398596,-0.003479,0.009033,-0.993652,0.297191,0.386565,0.036947,46,279,585,6224
1644188149.446991,-0.006409,0.00946,-0.991577,0.190321,0.554504,-0.008855,53,257,578,6256
1644188149.49539,-0.006897,0.009521,-0.990417,0.175053,0.356031,-0.100458,41,281,583,6240
1644188149.543756,-0.008362,0.011658,-0.991211,0.236122,0.233893,0.036947,45,273,582,6240
1644188149.592188,-0.010803,0.010925,-0.99115,0.113985,0.417099,-0.100458,57,268,572,6224
1644188149.640629,-0.010071,0.009277,-0.993042,0.342992,0.371298,-0.085191,48,264,590,6224
1644188149.688975,-0.009949,0.010498,-0.993286,0.037649,0.462901,-0.085191,51,281,587,6224
1644188149.738594,-0.012451,0.010376,-0.98999,0.35826,0.462901,-0.085191,53,283,583,6176
1644188149.788859,-0.007751,0.009338,-0.989502,0.327725,0.340763,-0.085191,52,270,589,6224
1644188149.839266,-0.008484,0.008423,-0.991211,0.327725,0.432366,-0.176794,51,271,587,6224
1644188149.883596,-0.010559,0.010376,-0.991516,0.312458,0.24916,-0.085191,48,271,578,6192
1644188149.979312,-0.006531,0.007446,-0.990479,0.205588,0.493435,-0.039389,47,275,593,6224
1644188150.027699,-0.009033,0.007324,-0.991028,0.175053,0.356031,0.082748,43,288,587,6224
1644188150.076176,-0.01062,0.007751,-0.991394,0.190321,0.371298,-0.100458,52,287,586,6192
1644188150.124489,-0.010498,0.010193,-0.991516,0.266656,0.401832,0.036947,52,273,579,6224
1644188150.172853,-0.007629,0.010193,-0.991882,0.08345,0.371298,-0.14626,43,266,587,6240
1644188150.221252,-0.007568,0.00824,-0.990234,0.129252,0.478168,-0.039389,40,277,577,6240
1644188150.269611,-0.01001,0.00946,-0.991394,0.281924,0.325496,-0.207328,51,274,573,6160
1644188150.31804,-0.009277,0.006897,-0.991943,0.251389,0.294962,-0.085191,53,269,599,6240
1644188150.366411,-0.008667,0.007446,-0.992737,0.144519,0.432366,-0.130992,43,271,583,6288
1644188150.414829,-0.01239,0.008972,-0.992249,0.190321,0.432366,-0.054656,48,283,585,6224
1644188150.463209,-0.007141,0.010559,-0.990173,0.129252,0.401832,-0.085191,51,276,580,6160
1644188150.511584,-0.006775,0.008423,-0.99292,0.144519,0.447634,-0.14626,42,280,575,6176
1644188150.559996,-0.009338,0.008057,-0.992493,0.175053,0.386565,-0.161527,53,269,583,6160
1644188150.608392,-0.008179,0.007874,-0.990784,0.404061,0.447634,-0.176794,39,271,583,6192
1644188150.656781,-0.010803,0.009644,-0.991882,0.113985,0.340763,0.006412,48,264,573,6224
1644188150.705173,-0.011719,0.011292,-0.989746,0.220855,0.401832,0.143817,54,270,589,6240
1644188150.753538,-0.008423,0.008301,-0.994141,0.312458,0.371298,-0.207328,58,279,583,6224
1644188150.801993,-0.006836,0.00885,-0.993652,0.113985,0.417099,-0.161527,38,275,586,6224
1644188150.850405,-0.011719,0.009521,-0.992004,0.312458,0.508702,-0.100458,42,277,584,6224
1644188150.899592,-0.00824,0.011536,-0.992432,0.327725,0.371298,-0.176794,47,285,575,6224
1644188150.950366,-0.010437,0.009827,-0.989075,0.144519,0.508702,-0.222595,43,269,587,6240
1644188151.000752,-0.009277,0.011719,-0.991089,0.251389,0.508702,-0.100458,52,277,575,6128
1644188151.057533,-0.00708,0.011963,-0.990906,0.113985,0.340763,-0.192061,43,271,594,6224
1644188151.140698,-0.011292,0.007446,-0.991333,0.281924,0.401832,-0.192061,48,269,592,6224
1644188151.189101,-0.009399,0.009338,-0.991943,0.037649,0.569771,-0.054656,47,277,579,6256
1644188151.237485,-0.007202,0.011719,-0.991089,0.113985,0.386565,0.098015,46,276,587,6192
1644188151.285868,-0.011169,0.009521,-0.996277,0.205588,0.340763,-0.25313,45,270,584,6176
1644188151.334284,-0.007812,0.010925,-0.992371,0.205588,0.371298,-0.054656,36,274,580,6224
1644188151.382676,-0.006409,0.010681,-0.99115,0.190321,0.386565,-0.25313,46,276,573,6192
1644188151.431047,-0.007935,0.009521,-0.991516,0.281924,0.371298,-0.039389,45,270,579,6256
1644188151.479465,-0.009949,0.009277,-0.991211,0.342992,0.508702,0.174351,46,283,580,6224
1644188151.527851,-0.008057,0.010742,-0.993286,0.144519,0.356031,-0.14626,53,276,587,6224
1644188151.576253,-0.00946,0.009705,-0.990112,0.205588,0.279695,-0.069924,46,274,576,6192
1644188151.624772,-0.008301,0.007263,-0.991699,0.190321,0.585038,-0.192061,53,276,587,6192
1644188151.673047,-0.00885,0.010071,-0.990112,0.098718,0.356031,-0.207328,46,274,585,6240
1644188151.721438,-0.006409,0.01062,-0.987976,0.281924,0.386565,-0.054656,49,277,577,6224
1644188151.769794,-0.007202,0.008606,-0.994446,0.236122,0.356031,-0.130992,47,280,586,6240
1644188151.818259,-0.008606,0.00946,-0.992798,0.220855,0.478168,-0.14626,46,276,590,6192
1644188151.866642,-0.008179,0.010742,-0.991333,0.220855,0.432366,0.021679,51,271,583,6192
1644188151.915072,-0.008789,0.010254,-0.98938,0.205588,0.493435,-0.192061,43,274,583,6224
1644188151.963486,-0.006836,0.012146,-0.992432,0.175053,0.447634,-0.176794,36,281,578,6240
1644188152.061581,-0.010132,0.008484,-0.993164,0.052916,0.325496,-0.161527,53,266,590,6224
1644188152.108518,-0.00946,0.011841,-0.992615,0.007115,0.447634,-0.100458,46,286,585,6224
1644188152.156942,-0.009644,0.008301,-0.991394,0.251389,0.523969,-0.130992,48,283,583,6176
1644188152.205346,-0.007446,0.009705,-0.991699,0.175053,0.386565,-0.222595,53,279,578,6240
1644188152.253727,-0.00824,0.009216,-0.991211,0.281924,0.447634,-0.115725,42,277,582,6240
1644188152.302176,-0.007263,0.008484,-0.992249,0.236122,0.218626,-0.054656,53,281,592,6256
1644188152.350531,-0.011169,0.010864,-0.991028,0.190321,0.386565,-0.115725,46,281,580,6160
1644188152.398926,-0.008484,0.010315,-0.989685,0.236122,0.417099,-0.14626,41,264,590,6240
1644188152.447318,-0.012085,0.009705,-0.99054,0.327725,0.325496,-0.054656,52,270,584,6240
1644188152.495684,-0.008057,0.011963,-0.991455,0.281924,0.569771,-0.069924,40,275,579,6256
1644188152.544113,-0.009827,0.010254,-0.990662,0.297191,0.279695,0.098015,51,281,580,6256
1644188152.592514,-0.00885,0.007385,-0.990723,0.281924,0.371298,-0.115725,51,279,587,6192
1644188152.640863,-0.00824,0.008972,-0.993347,0.144519,0.356031,-0.100458,51,281,578,6240
1644188152.689284,-0.00824,0.010254,-0.993103,0.312458,0.478168,-0.054656,48,269,585,6224
1644188152.737676,-0.010925,0.009216,-0.991394,0.190321,0.340763,-0.085191,49,282,582,6256
1644188152.786036,-0.006042,0.008484,-0.993958,0.236122,0.386565,0.067481,54,275,586,6224
1644188152.834496,-0.007385,0.008545,-0.991272,0.159786,0.325496,-0.25313,49,280,582,6256
1644188152.882918,-0.006897,0.009521,-0.993225,0.129252,0.371298,0.036947,51,266,583,6240
1644188152.931787,-0.007935,0.008545,-0.992432,0.220855,0.356031,0.021679,40,280,584,6224
1644188152.982086,-0.008972,0.009399,-0.992188,0.251389,0.432366,-0.085191,48,274,578,6224
1644188153.032647,-0.009277,0.008545,-0.992981,0.312458,0.432366,-0.283664,62,279,585,6192
1644188153.084849,-0.008118,0.01001,-0.990295,0.236122,0.447634,-0.176794,47,275,586,6224
1644188153.173222,-0.010315,0.008057,-0.994263,0.175053,0.340763,-0.176794,53,257,585,6224
1644188153.221598,-0.008728,0.00946,-0.989441,0.129252,0.539237,-0.085191,54,275,589,6240
1644188153.269987,-0.007202,0.009766,-0.990967,0.175053,0.371298,-0.130992,48,269,583,6160
1644188153.31837,-0.01001,0.006958,-0.992432,0.037649,0.386565,-0.024122,48,274,580,6224
1644188153.366765,-0.006104,0.007019,-0.993225,0.190321,0.417099,-0.008855,48,271,585,6224
1644188153.415176,-0.00824,0.009644,-0.99176,0.251389,0.447634,-0.008855,35,275,570,6224
1644188153.463574,-0.007385,0.010315,-0.991089,0.205588,0.401832,-0.161527,43,271,587,6256
1644188153.511968,-0.010742,0.009705,-0.993713,0.113985,0.462901,0.021679,45,273,572,6240
1644188153.560361,-0.00708,0.007935,-0.992615,0.236122,0.462901,-0.237863,52,277,586,6224
1644188153.608743,-0.009949,0.008911,-0.993713,0.144519,0.401832,-0.222595,54,265,586,6256
1644188153.657145,-0.009766,0.008606,-0.990845,0.251389,0.447634,-0.176794,58,274,587,6192
1644188153.705531,-0.008179,0.011414,-0.991882,0.175053,0.340763,-0.008855,42,277,579,6192
1644188153.753904,-0.007629,0.008606,-0.992065,0.342992,0.508702,-0.14626,53,269,592,6192
1644188153.802321,-0.007935,0.009827,-0.991821,0.205588,0.340763,-0.115725,53,274,578,6240
1644188153.850719,-0.007935,0.010864,-0.993286,0.220855,0.401832,-0.100458,48,271,585,6224
1644188153.89915,-0.005676,0.013306,-0.991699,0.037649,0.447634,-0.024122,54,270,582,6224
1644188153.947514,-0.010315,0.011047,-0.993042,0.205588,0.493435,-0.237863,49,273,596,6240
1644188153.996109,-0.008728,0.012756,-0.989502,0.266656,0.401832,-0.069924,60,266,583,6192
1644188154.058595,-0.01062,0.010925,-0.989441,0.251389,0.401832,-0.176794,47,280,586,6304
1644188154.100263,-0.007446,0.009888,-0.991699,0.175053,0.462901,-0.008855,43,280,586,6240
1644188154.144243,-0.010681,0.011963,-0.989929,0.236122,0.340763,-0.161527,47,277,584,6256
1644188154.193756,-0.007568,0.011475,-0.991455,0.236122,0.401832,-0.069924,36,271,585,6192
1644188154.238593,-0.012024,0.011719,-0.99054,0.220855,0.523969,-0.054656,45,273,575,6224
1644188154.334882,-0.010498,0.009338,-0.991699,0.022382,0.462901,-0.115725,43,271,583,6224
1644188154.383028,-0.009827,0.011108,-0.991638,0.205588,0.340763,-0.283664,48,279,583,6192
1644188154.431404,-0.007751,0.012085,-0.990662,0.236122,0.432366,-0.069924,49,275,579,6176
1644188154.479812,-0.008972,0.010498,-0.992737,0.251389,0.432366,0.052214,60,271,590,6192
1644188154.528214,-0.006226,0.01001,-0.990051,0.190321,0.294962,-0.14626,49,275,598,6256
1644188154.576602,-0.008118,0.011841,-0.990906,0.297191,0.310229,-0.14626,51,279,585,6176
1644188154.62504,-0.006714,0.010498,-0.990295,0.159786,0.294962,-0.222595,51,271,599,6224
1644188154.673389,-0.006104,0.01123,-0.991028,0.129252,0.294962,0.021679,54,275,586,6256
1644188154.721784,-0.009949,0.009216,-0.98877,0.068183,0.462901,-0.130992,46,276,585,6192
1644188154.770176,-0.008301,0.008484,-0.991882,0.266656,0.462901,-0.237863,55,276,573,6192
1644188154.818547,-0.009827,0.00769,-0.991211,0.35826,0.371298,-0.100458,47,280,582,6224
1644188154.867004,-0.008057,0.009399,-0.990601,0.297191,0.264427,0.006412,54,277,593,6224
1644188154.915397,-0.008179,0.007751,-0.991577,0.129252,0.478168,-0.069924,57,270,582,6192
1644188154.963801,-0.005127,0.008179,-0.990295,0.159786,0.340763,-0.115725,58,288,597,6224
1644188155.012195,-0.00708,0.009766,-0.991272,0.159786,0.447634,0.006412,43,271,585,6288
1644188155.077146,-0.01062,0.009521,-0.992004,0.220855,0.340763,0.052214,41,274,585,6256
1644188155.116439,-0.006897,0.008545,-0.993042,0.236122,0.462901,-0.069924,51,281,590,6224
1644188155.157325,-0.009705,0.009155,-0.992065,0.190321,0.523969,-0.115725,52,273,593,6240
1644188155.206122,-0.009705,0.007751,-0.986389,0.190321,0.264427,-0.100458,46,271,576,6192
1644188155.256369,-0.007019,0.011475,-0.991089,0.159786,0.371298,-0.130992,49,275,579,6240
1644188155.306516,-0.009033,0.012634,-0.991028,0.404061,0.493435,-0.069924,51,269,592,6192
1644188155.351629,-0.009216,0.009888,-0.992554,0.266656,0.279695,-0.024122,49,280,586,6176
1644188155.447662,-0.006714,0.012024,-0.994324,0.175053,0.356031,-0.008855,51,279,573,6240
1644188155.49606,-0.006958,0.011414,-0.99353,0.205588,0.462901,0.036947,49,280,579,6240
1644188155.544482,-0.008728,0.008728,-0.992493,0.205588,0.356031,-0.100458,43,281,585,6224
1644188155.592874,-0.007996,0.009033,-0.989868,0.175053,0.493435,-0.176794,51,274,578,6192
1644188155.641229,-0.010681,0.010742,-0.989807,0.312458,0.401832,-0.115725,41,279,580,6224
1644188155.689641,-0.005676,0.009827,-0.991577,0.159786,0.356031,0.067481,45,282,591,6256
1644188155.738033,-0.007568,0.007385,-0.99176,0.327725,0.310229,-0.024122,35,273,582,6224
1644188155.786422,-0.008057,0.008606,-0.990234,0.175053,0.447634,-0.25313,36,279,578,6224
1644188155.834836,-0.007324,0.009155,-0.993347,0.175053,0.432366,-0.024122,51,279,587,6224
1644188155.883263,-0.008057,0.011292,-0.98999,0.266656,0.340763,-0.039389,45,280,586,6176
1644188155.931648,-0.003052,0.01178,-0.992737,0.327725,0.340763,-0.085191,53,269,580,6176
1644188155.980038,-0.006653,0.009827,-0.992798,0.144519,0.585038,-0.085191,52,275,575,6224
1644188156.028441,-0.011108,0.009827,-0.991394,0.281924,0.386565,0.113282,47,273,586,6240
1644188156.09068,-0.010193,0.007874,-0.990906,0.251389,0.371298,0.021679,49,275,596,6176
1644188156.125239,-0.010803,0.007507,-0.994324,0.175053,0.24916,-0.069924,52,282,589,6176
1644188156.173586,-0.00824,0.011536,-0.993469,0.220855,0.417099,0.036947,48,279,585,6192
1644188156.221966,-0.007996,0.009521,-0.99408,0.205588,0.340763,-0.100458,41,281,594,6240
1644188156.270427,-0.007385,0.008606,-0.99176,0.205588,0.493435,-0.176794,38,277,586,6224
1644188156.319069,-0.006226,0.011292,-0.989136,0.190321,0.325496,-0.069924,43,269,580,6240
1644188156.368636,-0.007568,0.011353,-0.990234,0.342992,0.356031,-0.054656,45,275,579,6224
1644188156.418641,-0.010254,0.008789,-0.991638,0.144519,0.310229,-0.115725,46,274,583,6240
1644188156.468947,-0.004639,0.009033,-0.990234,0.220855,0.371298,-0.130992,57,270,589,6176
1644188156.56073,-0.009888,0.010376,-0.990479,0.205588,0.447634,-0.222595,40,273,582,6224
1644188156.609108,-0.010254,0.011658,-0.99408,0.327725,0.417099,-0.069924,48,274,587,6224
1644188156.657512,-0.007019,0.008423,-0.992798,0.297191,0.386565,-0.008855,49,275,577,6304
1644188156.705883,-0.005371,0.011108,-0.990051,0.266656,0.417099,-0.115725,43,279,578,6240
1644188156.754276,-0.006348,0.009216,-0.992126,0.327725,0.432366,-0.115725,48,274,580,6224
1644188156.802704,-0.010071,0.010132,-0.992676,0.220855,0.508702,-0.192061,43,276,580,6256
1644188156.851095,-0.009888,0.008179,-0.99292,0.190321,0.325496,-0.100458,51,281,578,6240
1644188156.89952,-0.008118,0.008301,-0.993042,0.342992,0.447634,-0.115725,53,276,580,6224
1644188156.947911,-0.00824,0.009827,-0.99231,0.113985,0.401832,-0.100458,48,271,576,6224
1644188156.99627,-0.00708,0.010437,-0.993042,0.220855,0.371298,-0.054656,60,276,580,6224
1644188157.044744,-0.010681,0.010437,-0.990417,0.388794,0.539237,-0.161527,45,285,589,6224
1644188157.093225,-0.007141,0.013062,-0.992065,0.236122,0.24916,-0.161527,55,274,590,6288
1644188157.141488,-0.005127,0.010803,-0.991028,0.266656,0.325496,-0.115725,47,280,582,6240
1644188157.18983,-0.005615,0.010925,-0.992554,0.373527,0.340763,0.006412,40,273,586,6176
1644188157.238211,-0.006653,0.011841,-0.991394,0.113985,0.310229,-0.14626,53,281,601,6240
1644188157.286622,-0.003662,0.007629,-0.995178,0.113985,0.310229,-0.161527,47,277,586,6192
1644188157.335053,-0.009216,0.00885,-0.989868,0.190321,0.325496,-0.024122,49,280,582,6224
1644188157.383406,-0.009705,0.010071,-0.989929,0.159786,0.279695,-0.024122,47,277,593,6240
1644188157.432065,-0.006348,0.007141,-0.989868,0.190321,0.325496,0.006412,47,280,584,6288
1644188157.480882,-0.009583,0.010498,-0.990845,0.037649,0.386565,-0.008855,46,279,580,6192
1644188157.53165,-0.003845,0.009705,-0.992126,0.144519,0.462901,-0.207328,45,273,591,6256
1644188157.581998,-0.008057,0.009277,-0.99054,0.251389,0.371298,-0.039389,52,277,577,6240
1644188157.626557,-0.009155,0.012756,-0.990601,0.281924,0.523969,-0.054656,43,269,590,6160
1644188157.722192,-0.009033,0.011108,-0.990662,0.388794,0.401832,-0.024122,54,285,586,6224
1644188157.770548,-0.009155,0.00885,-0.992004,0.220855,0.401832,-0.192061,47,277,591,6160
1644188157.818936,-0.009888,0.009399,-0.991577,0.281924,0.447634,-0.115725,43,276,590,6160
1644188157.867341,-0.011902,0.008545,-0.991821,0.205588,0.356031,-0.130992,51,274,580,6160
1644188157.915767,-0.008911,0.010925,-0.991211,0.113985,0.539237,-0.176794,42,277,570,6224
1644188157.964175,-0.006348,0.012512,-0.991028,0.068183,0.356031,-0.115725,45,273,589,6224
1644188158.012575,-0.01001,0.012329,-0.989136,0.327725,0.432366,-0.039389,53,283,578,6304
1644188158.062457,-0.007751,0.009827,-0.988892,0.098718,0.386565,-0.115725,57,273,589,6240
1644188158.109327,-0.006653,0.008301,-0.99054,0.251389,0.493435,-0.100458,48,276,578,6240
1644188158.157687,-0.007935,0.00885,-0.99231,0.175053,0.401832,-0.161527,47,273,584,6240
1644188158.20608,-0.007874,0.01001,-0.990295,0.205588,0.539237,-0.161527,52,275,575,6160
1644188158.254457,-0.007141,0.008606,-0.98999,0.068183,0.356031,-0.054656,36,274,573,6240
1644188158.302877,-0.006775,0.010376,-0.989868,0.098718,0.508702,0.12855,57,270,582,6224
1644188158.351263,-0.008423,0.009094,-0.993896,0.007115,0.478168,-0.069924,51,281,585,6192
1644188158.399633,-0.005859,0.009033,-0.992615,0.373527,0.310229,-0.085191,46,276,569,6240
1644188158.448065,-0.00647,0.010254,-0.992981,0.159786,0.401832,-0.100458,52,275,589,6240
1644188158.496452,-0.006348,0.007141,-0.992065,0.205588,0.447634,-0.085191,48,279,585,6240
1644188158.544842,-0.00824,0.010193,-0.990356,0.052916,0.310229,-0.115725,58,288,599,6240
1644188158.59323,-0.007751,0.011414,-0.993652,0.220855,0.356031,-0.115725,39,276,583,6176
1644188158.64185,-0.011719,0.007751,-0.994507,0.190321,0.432366,-0.207328,51,276,585,6192
1644188158.692446,-0.007996,0.008301,-0.992004,0.220855,0.386565,-0.161527,54,275,582,6288
1644188158.742814,-0.007751,0.008911,-0.991577,0.236122,0.310229,-0.039389,43,281,587,6176
1644188158.788742,-0.008362,0.008911,-0.991699,0.281924,0.233893,-0.222595,51,286,585,6224
1644188158.883646,-0.00885,0.008789,-0.991211,0.312458,0.371298,-0.130992,45,277,575,6240
1644188158.932022,-0.008118,0.009094,-0.991516,0.236122,0.417099,-0.069924,48,264,585,6224
1644188158.980424,-0.010254,0.012329,-0.991089,0.159786,0.294962,-0.237863,49,280,586,6224
1644188159.028805,-0.005859,0.008606,-0.99231,0.175053,0.508702,-0.054656,51,283,587,6256
1644188159.077349,-0.00708,0.008789,-0.992432,0.220855,0.401832,-0.054656,59,275,589,6192
1644188159.12553,-0.007874,0.010132,-0.990601,0.388794,0.325496,-0.176794,46,281,585,6288
1644188159.173945,-0.010071,0.011719,-0.991516,0.205588,0.371298,-0.161527,35,275,586,6192
1644188159.222346,-0.007385,0.010559,-0.991699,0.236122,0.493435,-0.085191,36,274,583,6192
1644188159.270741,-0.009521,0.010437,-0.99292,0.251389,0.493435,-0.039389,47,270,579,6224
1644188159.319125,-0.008484,0.011719,-0.990051,0.251389,0.340763,-0.039389,47,265,577,6176
1644188159.367527,-0.00946,0.011963,-0.993347,0.236122,0.356031,-0.14626,46,279,578,6256
1644188159.415907,-0.008057,0.009644,-0.989868,0.129252,0.386565,-0.069924,46,293,580,6192
1644188159.464316,-0.006775,0.010132,-0.994324,0.098718,0.401832,-0.100458,52,280,584,6256
1644188159.512693,-0.00824,0.012085,-0.993408,0.175053,0.24916,-0.085191,51,271,594,6224
1644188159.561134,-0.007812,0.011658,-0.992432,0.144519,0.447634,-0.130992,55,276,585,6240
1644188159.609476,-0.006226,0.01123,-0.991272,0.159786,0.432366,-0.161527,45,275,591,6256
1644188159.657864,-0.009949,0.009766,-0.990723,0.373527,0.447634,-0.268397,49,277,589,6224
1644188159.706268,-0.011719,0.008667,-0.990601,0.175053,0.233893,0.052214,47,280,579,6224
1644188159.754696,-0.008728,0.008179,-0.988831,0.190321,0.279695,-0.115725,54,273,589,6256
1644188159.805453,-0.007141,0.010315,-0.991394,0.159786,0.493435,-0.375267,54,285,589,6240
1644188159.854952,-0.010559,0.011536,-0.992859,0.052916,0.417099,-0.161527,41,279,580,6192
1644188159.904965,-0.008423,0.012329,-0.996582,0.190321,0.233893,0.082748,43,266,590,6224
1644188159.94959,-0.009583,0.010132,-0.990723,0.175053,0.432366,-0.008855,41,286,583,6176
1644188160.057709,-0.00769,0.009705,-0.993042,0.159786,0.340763,-0.039389,51,279,578,6288
1644188160.096003,-0.010559,0.01123,-0.99054,0.251389,0.432366,0.067481,46,281,585,6288
1644188160.141796,-0.012634,0.010986,-0.992371,0.175053,0.478168,-0.115725,42,277,577,6192
1644188160.190192,-0.009644,0.00946,-0.993103,0.297191,0.294962,0.021679,49,280,584,6176
1644188160.238594,-0.007751,0.010681,-0.99054,0.327725,0.462901,-0.069924,58,274,576,6240
1644188160.287007,-0.010132,0.005859,-0.991516,0.159786,0.432366,-0.176794,45,268,584,6240
1644188160.335381,-0.007629,0.011169,-0.990112,0.220855,0.462901,-0.130992,45,292,582,6240
1644188160.383807,-0.007324,0.009949,-0.991638,0.175053,0.218626,-0.100458,41,281,585,6224
1644188160.432257,-0.007751,0.01239,-0.99353,0.205588,0.462901,-0.14626,59,273,586,6224
1644188160.480549,-0.008179,0.011047,-0.992737,0.190321,0.432366,0.082748,45,280,586,6240
1644188160.528932,-0.007996,0.005066,-0.99054,0.205588,0.386565,-0.100458,52,273,586,6240
1644188160.579067,-0.008972,0.008484,-0.992126,0.205588,0.310229,0.006412,52,282,591,6240
1644188160.625999,-0.007141,0.009399,-0.990723,0.236122,0.371298,-0.130992,57,268,582,6192
1644188160.675061,-0.008789,0.00769,-0.992004,0.266656,0.417099,-0.024122,51,274,585,6160
1644188160.72534,-0.009705,0.010681,-0.992737,0.144519,0.432366,0.021679,58,274,583,6192
1644188160.77547,-0.00647,0.008118,-0.992615,0.220855,0.294962,-0.192061,54,273,582,6224
1644188160.820499,-0.011414,0.010376,-0.991333,0.175053,0.401832,-0.054656,49,275,584,6224
1644188160.91611,-0.007629,0.010864,-0.990479,0.144519,0.447634,-0.161527,34,276,576,6240
1644188160.96453,-0.008484,0.007629,-0.991455,0.342992,0.401832,-0.100458,52,277,591,6240
1644188161.012917,-0.010559,0.011047,-0.993652,0.220855,0.508702,0.021679,52,268,577,6240
1644188161.065194,-0.009033,0.010193,-0.991516,0.190321,0.569771,0.052214,51,274,585,6176
1644188161.10967,-0.010132,0.009277,-0.99115,0.220855,0.264427,-0.069924,39,281,578,6256
1644188161.158045,-0.010376,0.01001,-0.992615,0.220855,0.417099,-0.008855,53,283,583,6240
1644188161.206447,-0.009827,0.010071,-0.991455,0.175053,0.417099,-0.192061,53,283,583,6224
1644188161.254824,-0.009033,0.008057,-0.988342,0.251389,0.493435,-0.069924,46,264,580,6160
1644188161.303227,-0.010986,0.007568,-0.990906,0.236122,0.417099,0.021679,35,280,582,6192
1644188161.351637,-0.007874,0.010437,-0.991394,0.281924,0.294962,-0.25313,53,266,585,6240
1644188161.400033,-0.006531,0.008728,-0.991394,0.220855,0.356031,-0.176794,52,287,582,6224
1644188161.448393,-0.005493,0.011353,-0.992676,0.342992,0.523969,-0.024122,53,279,580,6192
1644188161.496781,-0.009949,0.007935,-0.991089,0.236122,0.432366,-0.161527,46,274,587,6256
1644188161.545283,-0.009155,0.008667,-0.991333,0.068183,0.294962,-0.054656,47,270,586,6240
1644188161.593579,-0.007996,0.010132,-0.992798,0.144519,0.310229,-0.115725,38,275,579,6240
1644188161.641984,-0.008179,0.008667,-0.992859,0.281924,0.401832,-0.222595,47,280,577,6256
1644188161.69038,-0.007019,0.008484,-0.987976,0.236122,0.447634,-0.176794,46,286,578,6176
1644188161.73877,-0.009827,0.011658,-0.990723,0.281924,0.401832,0.021679,60,276,587,6240
1644188161.787176,-0.009766,0.01001,-0.992249,0.281924,0.356031,-0.039389,41,279,590,6240
1644188161.83639,-0.007507,0.010925,-0.991821,0.312458,0.386565,-0.024122,39,286,585,6160
1644188161.88726,-0.010132,0.010193,-0.992249,0.342992,0.523969,-0.008855,47,273,577,6240
1644188161.937613,-0.009888,0.010864,-0.991699,0.297191,0.417099,0.021679,45,273,586,6176
1644188161.981972,-0.010498,0.012268,-0.990173,0.449863,0.523969,0.021679,48,276,580,6224
1644188162.07764,-0.006897,0.009644,-0.992493,0.113985,0.432366,-0.085191,54,287,575,6160
1644188162.125954,-0.009644,0.008545,-0.991638,0.129252,0.432366,-0.008855,52,270,579,6240
1644188162.174313,-0.009583,0.009155,-0.99054,0.220855,0.417099,-0.008855,46,276,578,6240
1644188162.222707,-0.009949,0.009399,-0.995605,0.266656,0.432366,0.006412,53,274,590,6224
1644188162.271091,-0.008057,0.009888,-0.991882,0.327725,0.447634,-0.085191,52,282,575,6240
1644188162.31947,-0.008789,0.011108,-0.990295,0.144519,0.340763,0.036947,51,279,576,6192
1644188162.367873,-0.01001,0.010681,-0.992249,0.129252,0.386565,-0.054656,49,277,577,6224
1644188162.41627,-0.008667,0.005981,-0.993103,0.251389,0.401832,-0.039389,35,270,582,6256
1644188162.46467,-0.008484,0.010376,-0.993225,0.159786,0.447634,-0.069924,47,277,579,6192
1644188162.513089,-0.007385,0.011169,-0.989563,0.419328,0.386565,0.006412,52,268,589,6256
1644188162.561423,-0.00885,0.01062,-0.991516,0.098718,0.371298,-0.039389,41,266,583,6224
1644188162.609832,-0.006714,0.008423,-0.991028,0.022382,0.371298,-0.069924,47,280,586,6192
1644188162.658226,-0.011902,0.006348,-0.993591,0.251389,0.417099,-0.192061,43,274,583,6288
1644188162.706626,-0.008362,0.012085,-0.993408,0.144519,0.417099,-0.039389,49,277,582,6176
1644188162.755073,-0.012024,0.007324,-0.991699,0.129252,0.401832,-0.085191,48,271,583,6192
1644188162.803421,-0.008179,0.008362,-0.992554,0.266656,0.432366,-0.024122,48,279,585,6256
1644188162.851846,-0.008972,0.009033,-0.989075,0.08345,0.417099,-0.008855,49,282,575,6192
1644188162.900234,-0.008484,0.007751,-0.991089,0.327725,0.371298,-0.237863,59,265,577,6240
1644188162.948629,-0.007446,0.011536,-0.992676,0.297191,0.371298,-0.161527,29,271,585,6240
1644188162.998196,-0.00885,0.009827,-0.99231,0.144519,0.340763,-0.14626,45,282,584,6192
1644188163.067967,-0.010986,0.00769,-0.989685,0.251389,0.447634,-0.130992,48,269,585,6304
1644188163.10421,-0.008606,0.009338,-0.993164,0.190321,0.417099,-0.085191,52,285,593,6224
1644188163.143265,-0.009338,0.010925,-0.991943,0.281924,0.493435,-0.085191,43,276,583,6192
1644188163.238939,-0.01001,0.009766,-0.992676,0.220855,0.478168,-0.054656,42,275,579,6224
1644188163.28733,-0.008789,0.008911,-0.990967,0.251389,0.401832,-0.14626,51,271,580,6224
1644188163.335725,-0.007996,0.010193,-0.991577,0.281924,0.310229,0.021679,59,273,584,6240
1644188163.384135,-0.006958,0.008057,-0.993103,0.190321,0.478168,-0.115725,42,275,577,6240
1644188163.432531,-0.008911,0.01001,-0.991272,0.342992,0.432366,-0.222595,49,273,586,6240
1644188163.480914,-0.008606,0.009705,-0.990906,0.297191,0.294962,-0.14626,52,277,582,6224
1644188163.529304,-0.007812,0.009399,-0.991821,0.113985,0.371298,-0.069924,52,275,586,6224
1644188163.577703,-0.009216,0.009277,-0.995239,0.266656,0.447634,-0.069924,45,263,577,6176
1644188163.626096,-0.009583,0.009216,-0.991577,0.144519,0.417099,-0.100458,54,270,591,6176
1644188163.674502,-0.011169,0.007263,-0.991638,0.236122,0.356031,-0.069924,46,281,580,6192
1644188163.722917,-0.008667,0.006531,-0.989868,0.144519,0.386565,-0.085191,49,277,591,6240
1644188163.771279,-0.005798,0.009094,-0.991699,0.190321,0.279695,-0.085191,51,269,580,6256
1644188163.819676,-0.009583,0.00946,-0.993591,0.236122,0.325496,-0.008855,58,274,580,6224
1644188163.868116,-0.009827,0.009888,-0.991516,0.220855,0.401832,0.082748,49,277,579,6256
1644188163.916508,-0.012573,0.009644,-0.993469,0.35826,0.401832,0.006412,39,271,583,6192
1644188163.9649,-0.009827,0.010559,-0.990234,0.266656,0.264427,-0.100458,51,271,594,6304
1644188164.01328,-0.005554,0.010193,-0.991699,0.175053,0.523969,-0.176794,59,282,586,6304
1644188164.110093,-0.008789,0.010742,-0.993408,0.205588,0.356031,-0.192061,46,283,587,6240
1644188164.158435,-0.008667,0.010315,-0.991089,0.052916,0.386565,-0.054656,48,271,587,6192
1644188164.20682,-0.006775,0.012451,-0.990845,0.327725,0.447634,-0.115725,45,277,577,6176
1644188164.255232,-0.008789,0.01062,-0.990967,0.327725,0.294962,-0.130992,54,275,582,6288
1644188164.303623,-0.006775,0.01123,-0.991455,0.205588,0.356031,-0.008855,51,269,583,6224
1644188164.352001,-0.010315,0.010742,-0.990112,0.220855,0.294962,-0.207328,45,282,584,6224
1644188164.400382,-0.009644,0.01123,-0.990784,0.35826,0.493435,-0.039389,42,275,586,6240
1644188164.448761,-0.008423,0.012878,-0.992065,0.144519,0.432366,-0.054656,40,282,586,6240
1644188164.497142,-0.009094,0.010132,-0.98877,0.144519,0.386565,-0.130992,52,282,579,6240
1644188164.545564,-0.009583,0.00885,-0.992981,0.175053,0.493435,-0.054656,57,270,589,6304
1644188164.593975,-0.009827,0.008179,-0.992676,0.342992,0.386565,-0.192061,54,277,577,6224
1644188164.64237,-0.009888,0.009155,-0.992981,0.312458,0.462901,-0.039389,52,275,579,6192
1644188164.690753,-0.007141,0.010254,-0.992676,0.342992,0.432366,-0.100458,42,285,582,6224
1644188164.739136,-0.010986,0.011169,-0.991394,0.281924,0.478168,0.052214,45,270,586,6224
1644188164.787528,-0.006592,0.008484,-0.990906,0.251389,0.478168,0.067481,60,276,597,6256
1644188164.835926,-0.007385,0.010803,-0.989746,0.205588,0.478168,-0.130992,42,280,584,6256
1644188164.884364,-0.00769,0.009644,-0.990845,0.251389,0.569771,-0.161527,47,280,582,6240
1644188164.932784,-0.006653,0.009338,-0.992676,0.251389,0.478168,-0.237863,45,282,584,6224
1644188164.981594,-0.007263,0.009399,-0.990723,0.266656,0.523969,-0.14626,49,275,579,6176
1644188165.03045,-0.007385,0.011353,-0.991821,0.098718,0.356031,-0.100458,53,274,583,6224
1644188165.083766,-0.006531,0.010498,-0.991394,0.327725,0.462901,-0.054656,53,283,587,6288
1644188165.1317,-0.007202,0.00946,-0.992065,0.251389,0.264427,-0.207328,53,283,580,6336
1644188165.176225,-0.007507,0.010437,-0.99115,0.190321,0.401832,-0.024122,42,275,582,6256
1644188165.271503,-0.010071,0.010376,-0.988647,0.281924,0.386565,-0.222595,53,264,590,6224
1644188165.319876,-0.010132,0.008484,-0.993408,0.281924,0.462901,-0.100458,51,281,583,6224
1644188165.368282,-0.007324,0.010254,-0.990051,0.205588,0.417099,-0.100458,42,280,584,6224
1644188165.416683,-0.008057,0.011353,-0.992493,0.251389,0.508702,-0.024122,47,275,582,6256
1644188165.465104,-0.009583,0.011292,-0.99115,0.327725,0.432366,-0.115725,42,277,584,6288
1644188165.513471,-0.009216,0.011169,-0.993591,0.113985,0.585038,-0.115725,48,274,587,6240
1644188165.561857,-0.005798,0.009949,-0.990906,0.190321,0.340763,-0.039389,55,274,585,6224
1644188165.610267,-0.008179,0.008789,-0.98938,0.144519,0.417099,-0.054656,53,279,578,6288
1644188165.658644,-0.007874,0.008606,-0.98999,0.266656,0.432366,-0.054656,54,268,577,6240
1644188165.70702,-0.008728,0.011658,-0.992859,0.342992,0.462901,-0.192061,47,268,584,6224
1644188165.755436,-0.011536,0.011841,-0.989014,0.236122,0.386565,-0.069924,52,270,586,6224
1644188165.803841,-0.006714,0.008911,-0.989258,0.220855,0.462901,-0.069924,49,273,586,6224
1644188165.852406,-0.008545,0.011841,-0.991638,0.175053,0.508702,-0.054656,48,279,590,6224
1644188165.90058,-0.010376,0.010681,-0.98877,0.159786,0.478168,-0.100458,53,279,580,6160
1644188165.948997,-0.008484,0.011597,-0.989563,0.312458,0.523969,-0.100458,49,280,593,6256
1644188165.997386,-0.009094,0.009888,-0.990967,0.190321,0.386565,-0.100458,64,280,582,6304
1644188166.06303,-0.008301,0.011536,-0.994751,0.251389,0.432366,-0.085191,57,282,584,6224
1644188166.098797,-0.007141,0.010071,-0.992004,0.190321,0.371298,-0.024122,45,285,591,6256
1644188166.142908,-0.008118,0.009033,-0.991028,0.297191,0.493435,-0.100458,43,269,594,6240
1644188166.19282,-0.007507,0.012512,-0.990356,0.08345,0.401832,-0.14626,48,271,578,6240
1644188166.243098,-0.006042,0.009949,-0.991455,0.190321,0.356031,0.036947,46,274,592,6240
1644188166.288212,-0.007507,0.011108,-0.993408,0.205588,0.508702,-0.069924,52,273,582,6224
1644188166.384508,-0.00531,0.01123,-0.99231,0.327725,0.401832,-0.069924,40,270,591,6224
1644188166.43288,-0.005737,0.007629,-0.992371,0.236122,0.310229,0.006412,53,281,571,6224
1644188166.481273,-0.008118,0.008362,-0.990234,0.404061,0.523969,-0.100458,45,265,586,6176
1644188166.529679,-0.009033,0.009766,-0.991882,0.098718,0.447634,-0.069924,47,275,572,6224
1644188166.578058,-0.008423,0.009705,-0.989746,0.388794,0.401832,-0.222595,46,259,583,6224
1644188166.626476,-0.008423,0.011169,-0.98822,0.129252,0.325496,0.006412,47,275,582,6224
1644188166.67487,-0.006409,0.011658,-0.993896,0.281924,0.432366,-0.161527,47,280,584,6224
1644188166.723259,-0.006592,0.010681,-0.990479,0.144519,0.523969,-0.069924,49,287,579,6224
1644188166.77164,-0.007446,0.010376,-0.992432,0.205588,0.356031,-0.054656,45,280,586,6176
1644188166.820089,-0.00647,0.008118,-0.992188,0.297191,0.340763,-0.176794,52,270,582,6240
1644188166.868477,-0.007996,0.011169,-0.99176,0.35826,0.447634,0.021679,51,276,587,6256
1644188166.916872,-0.006592,0.012085,-0.990967,0.190321,0.371298,-0.176794,43,276,587,6192
1644188166.965283,-0.010986,0.010254,-0.990479,0.236122,0.371298,-0.069924,54,270,591,6256
1644188167.013656,-0.010742,0.012268,-0.992859,0.220855,0.340763,-0.024122,45,280,589,6256
1644188167.066868,-0.00769,0.009766,-0.988586,0.373527,0.539237,0.067481,53,276,583,6224
1644188167.111044,-0.010559,0.014648,-0.991882,0.297191,0.310229,-0.176794,52,282,596,6192
1644188167.158792,-0.008057,0.009216,-0.989746,0.129252,0.401832,-0.207328,47,287,591,6224
1644188167.207183,-0.00824,0.00824,-0.991882,0.175053,0.310229,-0.130992,42,275,589,6176
