epoch,acc_x,acc_y,acc_z,rot_x,rot_y,rot_z,mag_x,mag_y,mag_z,temp
1644168000.03339,-0.009277,0.009644,-0.991821,0.327725,0.279695,-0.25313,51,276,580,5600
1644168000.087195,-0.011169,0.011597,-0.991577,0.205588,0.310229,-0.161527,52,282,582,5648
1644168000.133205,-0.010132,0.011597,-0.992371,0.205588,0.508702,-0.085191,55,271,578,5648
1644168000.182328,-0.014954,0.009338,-0.994385,0.190321,0.310229,-0.039389,48,281,583,5696
1644168000.227465,-0.009216,0.00946,-0.990479,0.266656,0.478168,-0.069924,52,277,577,5600
1644168000.323678,-0.010376,0.009521,-0.991821,0.220855,0.447634,0.036947,52,282,575,5584
1644168000.372064,-0.006775,0.012146,-0.990295,0.08345,0.218626,-0.161527,46,274,571,5664
1644168000.42045,-0.008057,0.010742,-0.988647,0.342992,0.310229,-0.161527,41,281,576,5664
1644168000.468843,-0.009094,0.009521,-0.993286,0.312458,0.432366,-0.054656,54,270,579,5696
1644168000.517241,-0.010132,0.008972,-0.992981,0.08345,0.447634,-0.176794,54,268,570,5664
1644168000.565624,-0.009827,0.011108,-0.991211,0.266656,0.386565,-0.192061,53,269,583,5648
1644168000.614018,-0.010986,0.007263,-0.990967,0.236122,0.294962,-0.207328,52,275,575,5648
1644168000.662485,-0.011597,0.010132,-0.992859,0.190321,0.371298,-0.130992,47,270,568,5648
1644168000.71081,-0.010742,0.010315,-0.992004,0.220855,0.386565,-0.024122,52,275,582,5696
1644168000.759211,-0.011658,0.010925,-0.991943,0.220855,0.462901,0.006412,54,280,579,5584
1644168000.807587,-0.009888,0.008972,-0.992371,0.175053,0.523969,-0.222595,55,276,569,5584
1644168000.856014,-0.012451,0.008545,-0.993164,0.144519,0.310229,-0.085191,52,263,570,5664
1644168000.90442,-0.007996,0.009399,-0.990906,0.159786,0.356031,-0.085191,46,283,578,5584
1644168000.952813,-0.009766,0.008484,-0.992859,0.190321,0.432366,-0.222595,58,269,583,5600
1644168001.001159,-0.010986,0.007568,-0.993774,0.144519,0.294962,-0.14626,47,268,577,5664
1644168001.061976,-0.01239,0.008728,-0.992615,0.159786,0.462901,-0.085191,55,262,571,5600
1644168001.099267,-0.009827,0.009583,-0.992737,0.220855,0.386565,-0.100458,51,274,578,5648
1644168001.146317,-0.010498,0.00824,-0.990051,0.266656,0.432366,-0.085191,43,274,576,5664
1644168001.19485,-0.01062,0.010132,-0.990417,0.205588,0.539237,-0.176794,36,271,569,5648
1644168001.243378,-0.007996,0.010681,-0.990723,0.205588,0.432366,-0.14626,48,262,573,5664
1644168001.293905,-0.009888,0.009888,-0.991943,0.068183,0.569771,0.021679,47,270,575,5696
1644168001.343886,-0.01239,0.008972,-0.992432,0.266656,0.340763,0.006412,59,265,579,5584
1644168001.389116,-0.00946,0.008606,-0.991455,0.251389,0.432366,-0.115725,51,269,578,5696
1644168001.485298,-0.00946,0.006775,-0.991882,0.220855,0.279695,-0.069924,54,268,577,5632
1644168001.533457,-0.009583,0.009399,-0.990723,0.190321,0.386565,-0.115725,61,273,582,5600
1644168001.581848,-0.009949,0.01239,-0.990356,0.144519,0.401832,-0.115725,45,277,575,5600
1644168001.630218,-0.009033,0.00946,-0.991211,0.404061,0.310229,-0.069924,59,273,575,5648
1644168001.678607,-0.009521,0.011108,-0.991333,0.35826,0.417099,0.006412,46,262,576,5648
1644168001.727006,-0.013977,0.010742,-0.991211,0.327725,0.417099,-0.054656,42,268,575,5696
1644168001.77539,-0.010803,0.008362,-0.991516,0.236122,0.401832,0.067481,53,276,571,5696
1644168001.823781,-0.010864,0.009094,-0.993347,0.205588,0.493435,0.021679,57,273,577,5664
1644168001.872296,-0.008667,0.006165,-0.993103,0.281924,0.462901,-0.161527,42,282,575,5600
1644168001.9206,-0.007996,0.00885,-0.992188,0.175053,0.371298,-0.115725,53,279,569,5600
1644168001.969009,-0.010864,0.010193,-0.993286,0.129252,0.386565,-0.024122,47,265,575,5728
1644168002.017364,-0.010925,0.008972,-0.994141,0.404061,0.401832,-0.100458,61,277,572,5648
1644168002.079294,-0.010986,0.006897,-0.992188,0.35826,0.401832,-0.192061,53,262,578,5632
1644168002.114205,-0.010925,0.006409,-0.992615,0.266656,0.325496,-0.054656,51,274,576,5696
1644168002.162554,-0.012207,0.009094,-0.992188,0.129252,0.417099,-0.069924,39,283,583,5648
1644168002.210891,-0.012207,0.008301,-0.990723,0.159786,0.356031,-0.069924,42,275,565,5584
1644168002.259273,-0.012939,0.011475,-0.992249,0.266656,0.417099,-0.115725,60,264,580,5632
1644168002.307684,-0.010376,0.013306,-0.991943,0.144519,0.401832,-0.14626,51,269,583,5664
1644168002.35608,-0.009644,0.012573,-0.990906,0.205588,0.417099,-0.054656,41,271,578,5648
1644168002.404516,-0.011414,0.009277,-0.991638,0.236122,0.371298,-0.207328,48,266,580,5648
1644168002.456542,-0.009705,0.008789,-0.990234,0.251389,0.508702,-0.085191,48,259,580,5696
1644168002.506145,-0.012573,0.009338,-0.99176,0.190321,0.432366,-0.069924,58,264,585,5600
1644168002.550871,-0.013062,0.009583,-0.992371,0.220855,0.401832,-0.100458,42,265,575,5648
1644168002.646405,-0.012878,0.009155,-0.990723,0.159786,0.310229,-0.14626,47,265,577,5648
1644168002.694867,-0.011658,0.010254,-0.993042,0.190321,0.294962,-0.161527,53,266,573,5664
1644168002.743196,-0.011414,0.011047,-0.989929,0.251389,0.203359,-0.176794,53,274,580,5600
1644168002.791588,-0.012512,0.009033,-0.990723,0.236122,0.203359,-0.130992,36,271,580,5600
1644168002.839974,-0.008362,0.008362,-0.993103,0.236122,0.386565,-0.024122,57,268,570,5600
1644168002.888413,-0.012451,0.010193,-0.994202,0.08345,0.462901,-0.192061,47,275,568,5648
1644168002.936796,-0.009766,0.009399,-0.99408,0.175053,0.371298,-0.115725,47,275,584,5648
1644168002.985299,-0.011536,0.009705,-0.989563,0.175053,0.386565,-0.054656,53,276,578,5664
1644168003.0336,-0.01123,0.009949,-0.992554,0.175053,0.356031,-0.161527,51,271,583,5648
1644168003.082277,-0.010071,0.007507,-0.99115,0.297191,0.432366,-0.161527,42,273,584,5664
1644168003.130332,-0.010071,0.010559,-0.991211,0.373527,0.417099,-0.237863,49,273,572,5696
1644168003.178736,-0.012024,0.005859,-0.991333,0.220855,0.340763,-0.069924,58,274,578,5696
1644168003.227104,-0.008484,0.008972,-0.991577,0.388794,0.432366,-0.176794,46,269,576,5648
1644168003.275472,-0.011169,0.011414,-0.990967,0.098718,0.371298,-0.024122,51,271,583,5664
1644168003.323891,-0.013367,0.010925,-0.991333,0.404061,0.447634,0.021679,54,265,577,5664
1644168003.372308,-0.011414,0.010376,-0.992798,0.098718,0.478168,-0.054656,47,275,579,5664
1644168003.420669,-0.013123,0.009705,-0.993774,0.266656,0.401832,-0.069924,45,270,568,5600
1644168003.469068,-0.008972,0.007507,-0.993103,0.129252,0.401832,0.036947,58,269,583,5696
1644168003.517468,-0.011841,0.008728,-0.992737,0.281924,0.432366,0.052214,54,273,579,5712
1644168003.567557,-0.010315,0.009338,-0.991028,0.312458,0.386565,-0.115725,55,279,578,5600
1644168003.617942,-0.010742,0.011597,-0.990356,0.175053,0.417099,-0.283664,54,277,568,5664
1644168003.662899,-0.010559,0.007263,-0.992188,0.052916,0.294962,-0.115725,52,268,579,5584
1644168003.759389,-0.008667,0.009766,-0.992737,0.007115,0.432366,0.021679,51,274,578,5632
1644168003.807779,-0.008911,0.009705,-0.993164,0.175053,0.508702,-0.115725,49,277,572,5632
1644168003.856165,-0.013916,0.007385,-0.992615,0.266656,0.356031,-0.161527,49,273,582,5696
1644168003.904659,-0.011353,0.008972,-0.993042,0.251389,0.432366,-0.069924,49,268,575,5648
1644168003.953029,-0.008789,0.010071,-0.991028,0.35826,0.417099,-0.024122,51,274,569,5648
1644168004.001383,-0.009583,0.008301,-0.991882,0.220855,0.447634,-0.161527,51,271,576,5664
1644168004.060562,-0.00769,0.010925,-0.989868,0.297191,0.493435,0.006412,54,280,579,5648
1644168004.098127,-0.009155,0.008972,-0.989502,0.129252,0.279695,-0.054656,42,268,584,5696
1644168004.146576,-0.009949,0.00769,-0.989319,0.236122,0.432366,-0.207328,53,259,576,5696
1644168004.194939,-0.009888,0.012207,-0.991516,0.236122,0.264427,-0.100458,54,275,568,5648
1644168004.243353,-0.010864,0.009766,-0.989075,0.159786,0.310229,-0.237863,42,273,572,5664
1644168004.291743,-0.009827,0.010071,-0.989075,0.159786,0.371298,-0.039389,54,275,586,5584
1644168004.340128,-0.011597,0.009583,-0.99292,0.297191,0.417099,-0.085191,46,276,569,5584
1644168004.388525,-0.01062,0.006836,-0.991577,0.220855,0.417099,-0.115725,55,264,578,5696
1644168004.436903,-0.007996,0.011719,-0.991455,0.404061,0.356031,-0.222595,45,273,577,5632
1644168004.485302,-0.008606,0.013062,-0.991028,0.190321,0.401832,-0.176794,47,275,570,5648
1644168004.533937,-0.00708,0.011475,-0.991211,0.190321,0.310229,-0.054656,45,270,577,5648
1644168004.582174,-0.010803,0.008362,-0.990845,0.281924,0.356031,0.036947,41,264,578,5664
1644168004.632632,-0.010803,0.009766,-0.991577,0.236122,0.371298,-0.054656,48,271,576,5664
1644168004.682804,-0.00946,0.008972,-0.99408,0.327725,0.279695,-0.100458,51,279,578,5664
1644168004.733005,-0.011475,0.009583,-0.992432,0.190321,0.417099,-0.054656,54,270,582,5664
1644168004.824063,-0.00946,0.008423,-0.991394,0.159786,0.24916,-0.054656,52,275,575,5712
1644168004.872424,-0.009521,0.00769,-0.992432,0.312458,0.493435,-0.115725,54,277,568,5664
1644168004.92081,-0.011719,0.009644,-0.992004,0.220855,0.417099,-0.115725,48,286,571,5648
1644168004.969203,-0.01123,0.009583,-0.991638,0.129252,0.478168,-0.161527,52,265,575,5664
1644168005.017591,-0.009521,0.01355,-0.992004,0.022382,0.417099,-0.069924,53,266,573,5584
1644168005.066809,-0.009216,0.008972,-0.992371,0.190321,0.401832,-0.085191,55,279,578,5664
1644168005.11433,-0.011169,0.007751,-0.992554,0.205588,0.371298,-0.069924,48,276,587,5664
1644168005.162706,-0.008667,0.009399,-0.98938,0.297191,0.493435,-0.176794,49,277,568,5664
1644168005.211117,-0.01123,0.010803,-0.990967,0.190321,0.279695,-0.161527,47,275,577,5648
1644168005.25949,-0.012268,0.00708,-0.993774,0.113985,0.356031,-0.085191,42,282,582,5600
1644168005.307876,-0.011047,0.009766,-0.99353,0.373527,0.386565,-0.085191,51,266,578,5632
1644168005.356291,-0.008423,0.008423,-0.989868,0.175053,0.325496,-0.161527,54,263,572,5648
1644168005.404726,-0.009766,0.009766,-0.99231,0.144519,0.24916,0.098015,52,280,572,5584
1644168005.453059,-0.010559,0.009888,-0.992004,0.251389,0.432366,-0.085191,54,277,579,5648
1644168005.501461,-0.008789,0.007935,-0.993042,0.266656,0.233893,-0.085191,39,274,571,5696
1644168005.549853,-0.011902,0.010315,-0.992554,0.236122,0.523969,-0.130992,54,275,582,5648
1644168005.598207,-0.010132,0.007385,-0.990662,0.297191,0.447634,-0.054656,53,271,578,5664
1644168005.646624,-0.008606,0.008789,-0.991455,0.251389,0.24916,-0.14626,51,266,580,5696
1644168005.695085,-0.011658,0.012756,-0.991943,0.297191,0.417099,-0.14626,49,268,577,5696
1644168005.743799,-0.00824,0.010071,-0.990906,0.220855,0.233893,-0.039389,47,277,584,5648
1644168005.794308,-0.010376,0.011902,-0.989868,0.220855,0.462901,-0.207328,49,265,577,5696
1644168005.84543,-0.010864,0.009888,-0.991211,0.220855,0.447634,-0.085191,39,264,576,5632
1644168005.889966,-0.011841,0.010498,-0.990112,0.190321,0.539237,-0.008855,52,265,572,5648
1644168005.985455,-0.011597,0.010071,-0.989929,0.297191,0.340763,-0.085191,47,277,579,5648
1644168006.033794,-0.010803,0.009155,-0.990662,0.236122,0.432366,-0.085191,52,270,582,5664
1644168006.08231,-0.011658,0.010132,-0.993042,0.129252,0.340763,-0.161527,45,280,572,5584
1644168006.13052,-0.010437,0.01062,-0.99054,0.113985,0.294962,-0.054656,53,276,573,5584
1644168006.178913,-0.00769,0.01178,-0.993469,0.144519,0.371298,-0.054656,48,271,585,5664
1644168006.22732,-0.010071,0.008728,-0.992493,0.220855,0.417099,-0.14626,51,281,576,5632
1644168006.27569,-0.00824,0.010681,-0.990723,0.236122,0.417099,-0.115725,57,270,575,5648
1644168006.324101,-0.01001,0.008545,-0.990967,0.236122,0.356031,-0.024122,49,273,586,5584
1644168006.372513,-0.008667,0.01123,-0.990601,0.266656,0.508702,-0.115725,59,270,579,5648
1644168006.420889,-0.010559,0.00885,-0.99231,0.373527,0.432366,-0.14626,55,274,569,5648
1644168006.469272,-0.010193,0.01062,-0.992981,0.220855,0.310229,-0.008855,49,270,579,5664
1644168006.517666,-0.008667,0.007446,-0.991455,0.175053,0.340763,-0.192061,45,277,579,5696
1644168006.566055,-0.010376,0.012146,-0.994263,0.342992,0.401832,-0.161527,51,279,571,5648
1644168006.614429,-0.010193,0.012024,-0.991638,0.312458,0.523969,-0.130992,47,277,577,5696
1644168006.662844,-0.010681,0.009216,-0.993896,0.404061,0.386565,0.036947,46,281,585,5664
1644168006.711183,-0.008545,0.008545,-0.993835,0.190321,0.188092,-0.176794,53,271,587,5648
1644168006.759586,-0.008728,0.010315,-0.99353,0.327725,0.24916,-0.130992,48,269,576,5648
1644168006.80805,-0.010254,0.011719,-0.993591,0.281924,0.401832,-0.054656,51,279,573,5648
1644168006.856453,-0.005737,0.008545,-0.98938,0.373527,0.371298,0.006412,57,263,579,5696
1644168006.905888,-0.00946,0.010803,-0.988403,0.251389,0.371298,-0.008855,48,279,569,5648
1644168006.956146,-0.010071,0.010864,-0.988831,0.297191,0.340763,-0.130992,51,279,571,5696
1644168007.062909,-0.009583,0.008545,-0.990967,0.205588,0.325496,-0.161527,59,273,579,5696
1644168007.098521,-0.008667,0.010193,-0.989624,0.205588,0.310229,-0.176794,52,277,565,5648
1644168007.14672,-0.010193,0.009277,-0.995056,0.220855,0.356031,0.021679,52,273,584,5648
1644168007.195202,-0.010132,0.010315,-0.991211,0.236122,0.325496,-0.054656,48,269,580,5632
1644168007.243543,-0.011536,0.010071,-0.98999,0.281924,0.417099,-0.161527,54,275,575,5600
1644168007.291915,-0.010376,0.01001,-0.990356,0.312458,0.233893,-0.069924,47,268,582,5648
1644168007.340268,-0.012573,0.011719,-0.993164,0.251389,0.401832,-0.14626,48,276,573,5648
1644168007.388687,-0.009766,0.007019,-0.991516,0.251389,0.432366,-0.161527,58,274,585,5696
1644168007.437048,-0.008728,0.008667,-0.990112,0.159786,0.462901,-0.039389,55,279,576,5648
1644168007.48547,-0.010254,0.009705,-0.989136,0.205588,0.371298,-0.054656,55,271,573,5648
1644168007.533874,-0.010132,0.010925,-0.991638,0.312458,0.554504,-0.039389,47,270,577,5664
1644168007.582289,-0.011292,0.01001,-0.994019,0.236122,0.356031,-0.14626,49,273,572,5648
1644168007.630649,-0.014221,0.011108,-0.994812,0.129252,0.325496,-0.069924,47,273,575,5648
1644168007.680489,-0.007996,0.008545,-0.993958,0.052916,0.356031,0.021679,36,271,583,5664
1644168007.73071,-0.009399,0.011536,-0.992798,0.190321,0.493435,-0.054656,46,276,566,5648
1644168007.780975,-0.009766,0.007141,-0.99292,0.144519,0.386565,-0.130992,49,273,577,5696
1644168007.872645,-0.010315,0.011353,-0.991943,0.236122,0.371298,-0.085191,57,270,570,5648
1644168007.921024,-0.010559,0.011841,-0.989258,0.144519,0.539237,-0.237863,47,270,577,5648
1644168007.969388,-0.010132,0.008057,-0.989807,0.312458,0.447634,-0.176794,47,273,572,5632
1644168008.017812,-0.010498,0.010437,-0.990234,0.144519,0.432366,-0.069924,47,273,572,5584
1644168008.066233,-0.012146,0.008728,-0.994385,0.266656,0.462901,-0.207328,45,270,582,5600
1644168008.114724,-0.010681,0.01062,-0.993225,0.297191,0.310229,-0.054656,48,274,580,5600
1644168008.162948,-0.009521,0.010559,-0.994141,0.052916,0.371298,-0.14626,55,276,578,5648
1644168008.211347,-0.010803,0.009644,-0.992065,0.266656,0.432366,-0.085191,46,279,578,5664
1644168008.259722,-0.011658,0.010681,-0.98999,0.144519,0.294962,-0.161527,59,268,572,5664
1644168008.308127,-0.011719,0.010315,-0.990234,0.236122,0.371298,-0.024122,45,268,579,5648
1644168008.356509,-0.012695,0.01001,-0.993164,0.220855,0.233893,-0.054656,42,275,568,5648
1644168008.404921,-0.008911,0.009827,-0.99054,0.297191,0.371298,-0.222595,48,271,573,5648
1644168008.453295,-0.013367,0.01062,-0.991028,0.419328,0.325496,-0.176794,43,269,578,5776
1644168008.501689,-0.010803,0.009094,-0.989624,0.144519,0.417099,-0.14626,53,274,578,5648
1644168008.55007,-0.009521,0.008179,-0.988525,0.190321,0.493435,-0.222595,57,268,577,5664
1644168008.598456,-0.010803,0.009155,-0.992065,0.46513,0.417099,-0.069924,48,264,571,5648
1644168008.64681,-0.010315,0.006165,-0.993896,0.190321,0.371298,-0.314198,41,288,576,5584
1644168008.69523,-0.01123,0.008423,-0.995178,0.281924,0.523969,-0.069924,47,270,582,5632
1644168008.743763,-0.010681,0.007507,-0.989929,0.205588,0.432366,-0.237863,41,269,571,5584
1644168008.792599,-0.008362,0.009094,-0.992737,0.236122,0.478168,-0.176794,54,275,575,5696
1644168008.842957,-0.010437,0.009949,-0.991333,0.190321,0.356031,-0.039389,62,274,571,5648
1644168008.894209,-0.009033,0.012573,-0.991272,0.266656,0.417099,-0.069924,53,276,569,5648
1644168008.938917,-0.011108,0.011536,-0.991028,0.236122,0.279695,-0.054656,52,277,565,5664
1644168009.034017,-0.012268,0.009094,-0.992004,0.266656,0.417099,-0.192061,45,268,570,5664
1644168009.083861,-0.010071,0.010071,-0.991699,0.144519,0.569771,0.036947,58,286,573,5648
1644168009.130783,-0.012329,0.010498,-0.988586,0.373527,0.508702,-0.008855,42,270,575,5696
1644168009.179137,-0.00885,0.008118,-0.994263,0.08345,0.585038,-0.176794,53,279,573,5600
1644168009.227511,-0.012024,0.009521,-0.992676,0.190321,0.264427,-0.192061,43,269,573,5632
1644168009.276453,-0.009338,0.009277,-0.993347,0.022382,0.386565,-0.115725,57,275,575,5648
1644168009.324325,-0.011414,0.01123,-0.9953,0.175053,0.523969,-0.085191,59,270,577,5584
1644168009.372723,-0.011902,0.009583,-0.993042,0.205588,0.462901,0.036947,53,264,566,5584
1644168009.421099,-0.00946,0.010925,-0.991272,0.205588,0.432366,-0.207328,41,276,571,5696
1644168009.469486,-0.012146,0.008667,-0.991455,0.281924,0.279695,-0.268397,49,265,570,5696
1644168009.517878,-0.012024,0.009216,-0.99176,0.281924,0.310229,0.006412,45,277,579,5648
1644168009.566262,-0.011414,0.007996,-0.993896,0.281924,0.401832,-0.115725,55,279,578,5648
1644168009.614715,-0.009399,0.008057,-0.992859,0.220855,0.279695,-0.085191,52,275,575,5664
1644168009.663068,-0.007263,0.010437,-0.993591,0.205588,0.432366,-0.115725,54,277,568,5728
1644168009.711448,-0.007812,0.01062,-0.991333,0.068183,0.310229,-0.100458,52,280,577,5664
1644168009.759789,-0.011597,0.009338,-0.991211,0.297191,0.401832,-0.100458,48,266,573,5584
1644168009.808211,-0.00885,0.012024,-0.991028,0.251389,0.493435,-0.115725,47,260,572,5648
1644168009.856951,-0.010803,0.006897,-0.993103,0.251389,0.386565,-0.024122,48,274,573,5664
1644168009.905119,-0.010803,0.009155,-0.991821,0.205588,0.432366,-0.14626,51,274,566,5712
1644168009.954816,-0.009399,0.007751,-0.991699,0.281924,0.386565,0.052214,55,271,569,5696
1644168010.05951,-0.009705,0.008728,-0.992249,0.281924,0.386565,-0.039389,57,280,584,5600
1644168010.098545,-0.010498,0.008606,-0.99115,0.266656,0.356031,-0.039389,43,266,585,5712
1644168010.146979,-0.010315,0.012146,-0.993713,0.342992,0.386565,-0.085191,51,276,576,5664
1644168010.195337,-0.011292,0.008423,-0.993408,0.159786,0.493435,-0.069924,61,268,570,5664
1644168010.243745,-0.010742,0.009766,-0.990234,0.08345,0.279695,-0.100458,51,274,580,5648
1644168010.29221,-0.014038,0.006165,-0.99115,0.297191,0.447634,-0.115725,54,280,577,5664
1644168010.340505,-0.008789,0.010498,-0.990112,0.251389,0.386565,0.021679,58,269,587,5648
1644168010.3889,-0.010132,0.009399,-0.992188,0.129252,0.478168,-0.085191,49,280,577,5632
1644168010.437296,-0.008057,0.01062,-0.99176,0.190321,0.462901,-0.130992,47,280,572,5664
1644168010.485648,-0.012146,0.010315,-0.99176,0.159786,0.356031,-0.039389,52,280,572,5648
1644168010.53407,-0.012634,0.01062,-0.993347,0.236122,0.356031,-0.115725,61,273,582,5664
1644168010.582475,-0.011719,0.010498,-0.989807,0.327725,0.417099,-0.100458,39,276,573,5648
1644168010.630846,-0.010986,0.008484,-0.992859,0.190321,0.371298,-0.008855,47,268,570,5648
1644168010.679217,-0.009338,0.011108,-0.990784,0.08345,0.356031,-0.192061,47,270,575,5600
1644168010.727995,-0.010681,0.01062,-0.991272,0.190321,0.340763,0.036947,53,266,576,5648
1644168010.778162,-0.008484,0.007507,-0.992554,0.251389,0.462901,-0.085191,51,274,571,5664
1644168010.828298,-0.010498,0.010864,-0.994019,0.281924,0.401832,-0.130992,54,260,575,5648
1644168010.873462,-0.008484,0.010742,-0.991516,0.113985,0.386565,-0.25313,49,270,577,5664
1644168010.969624,-0.010132,0.009888,-0.993042,0.220855,0.447634,-0.130992,52,270,584,5600
1644168011.017999,-0.011475,0.01062,-0.992493,0.08345,0.340763,0.021679,61,275,570,5600
1644168011.066439,-0.010315,0.010803,-0.992737,0.312458,0.432366,0.067481,43,266,583,5664
1644168011.115419,-0.013184,0.006287,-0.99115,0.251389,0.325496,-0.130992,53,266,573,5648
1644168011.163129,-0.010742,0.012024,-0.99231,0.251389,0.310229,-0.100458,48,276,571,5664
1644168011.211537,-0.010986,0.011719,-0.992126,0.342992,0.447634,-0.115725,48,264,580,5632
1644168011.25991,-0.010376,0.010803,-0.990173,0.129252,0.539237,-0.039389,51,288,580,5648
1644168011.308321,-0.009033,0.006714,-0.991028,0.159786,0.264427,0.021679,57,273,577,5696
1644168011.356718,-0.009033,0.011475,-0.992188,0.419328,0.340763,0.036947,53,262,571,5648
1644168011.405217,-0.011169,0.007446,-0.991394,0.297191,0.401832,0.021679,48,269,578,5600
1644168011.453516,-0.010315,0.011841,-0.992737,0.129252,0.539237,-0.100458,66,270,579,5600
1644168011.501886,-0.010132,0.009277,-0.989197,0.266656,0.493435,-0.069924,51,269,564,5648
1644168011.550266,-0.008545,0.008484,-0.988953,0.190321,0.401832,-0.100458,55,271,580,5696
1644168011.598632,-0.011719,0.010193,-0.991028,0.236122,0.325496,-0.069924,59,268,584,5648
1644168011.647051,-0.010498,0.011047,-0.991394,0.220855,0.447634,-0.054656,49,280,575,5600
1644168011.695447,-0.00824,0.00885,-0.991821,0.205588,0.539237,-0.100458,55,274,576,5648
1644168011.74381,-0.009521,0.009827,-0.988892,0.175053,0.493435,0.021679,52,270,584,5648
1644168011.792245,-0.008728,0.007812,-0.991943,0.190321,0.340763,-0.14626,49,273,575,5648
1644168011.84068,-0.010376,0.010315,-0.993408,0.388794,0.447634,0.021679,45,275,575,5664
1644168011.890449,-0.007507,0.013611,-0.986633,0.35826,0.447634,-0.069924,53,274,580,5648
1644168011.940783,-0.009583,0.00946,-0.993103,0.159786,0.325496,-0.161527,60,266,576,5648
1644168011.991582,-0.010132,0.009277,-0.991638,0.175053,0.325496,-0.207328,62,271,583,5600
1644168012.035565,-0.008179,0.008362,-0.992371,0.159786,0.417099,-0.130992,53,262,580,5584
1644168012.130963,-0.011292,0.008667,-0.991333,0.266656,0.417099,-0.14626,47,273,570,5664
1644168012.179344,-0.009338,0.012634,-0.989746,0.236122,0.478168,-0.298931,57,287,565,5648
1644168012.227732,-0.011169,0.008362,-0.989441,0.251389,0.386565,-0.069924,45,273,570,5664
1644168012.276104,-0.010254,0.011841,-0.992371,0.007115,0.356031,-0.176794,54,275,579,5664
1644168012.324526,-0.00885,0.012268,-0.996338,0.312458,0.356031,-0.039389,54,280,568,5584
1644168012.3729,-0.013611,0.007629,-0.991394,0.159786,0.356031,-0.130992,52,277,572,5696
1644168012.421302,-0.010193,0.009888,-0.99231,0.266656,0.432366,-0.115725,49,277,575,5648
1644168012.469685,-0.010376,0.009888,-0.992126,0.175053,0.264427,-0.069924,43,271,576,5600
1644168012.518078,-0.008789,0.012634,-0.993164,0.205588,0.462901,-0.176794,57,275,577,5600
1644168012.566513,-0.007324,0.010559,-0.989441,0.251389,0.264427,-0.222595,47,282,577,5696
1644168012.61488,-0.011841,0.007874,-0.992065,0.297191,0.371298,-0.069924,57,273,568,5696
1644168012.663278,-0.009949,0.007935,-0.990601,0.175053,0.279695,-0.054656,43,266,569,5664
1644168012.71165,-0.011414,0.009827,-0.992859,0.251389,0.356031,-0.115725,58,283,571,5648
1644168012.760014,-0.009827,0.010132,-0.991028,0.236122,0.340763,-0.085191,57,277,568,5648
1644168012.808474,-0.010681,0.011414,-0.995605,0.236122,0.356031,-0.024122,53,279,576,5632
1644168012.856851,-0.011169,0.007446,-0.992615,0.113985,0.294962,-0.161527,55,266,580,5648
1644168012.905245,-0.009644,0.011108,-0.992493,0.327725,0.447634,-0.14626,43,276,569,5664
1644168012.953631,-0.010498,0.007996,-0.992004,0.190321,0.371298,-0.237863,38,273,582,5600
1644168013.00201,-0.010132,0.007141,-0.992676,0.266656,0.386565,-0.14626,47,273,570,5648
1644168013.079174,-0.013062,0.008484,-0.991455,0.236122,0.432366,-0.14626,42,263,577,5648
1644168013.109404,-0.009705,0.009521,-0.991821,0.190321,0.447634,-0.192061,49,292,589,5648
1644168013.147495,-0.010864,0.007568,-0.989746,0.281924,0.493435,-0.024122,46,269,585,5648
1644168013.243935,-0.006836,0.009827,-0.992004,0.08345,0.294962,-0.25313,40,285,572,5648
1644168013.292386,-0.011414,0.009094,-0.992249,0.236122,0.417099,-0.130992,48,276,573,5664
1644168013.340728,-0.012268,0.008728,-0.989868,0.220855,0.310229,-0.115725,53,259,566,5648
1644168013.389112,-0.011292,0.010071,-0.994141,0.297191,0.325496,-0.100458,55,269,566,5712
1644168013.43749,-0.012451,0.008545,-0.989014,0.327725,0.401832,-0.268397,54,282,570,5696
1644168013.485884,-0.009338,0.00885,-0.991455,0.35826,0.493435,-0.085191,49,277,568,5664
1644168013.534285,-0.010803,0.008057,-0.990906,0.266656,0.340763,-0.069924,46,271,564,5584
1644168013.582688,-0.008118,0.009277,-0.992859,0.098718,0.493435,0.052214,51,279,573,5632
1644168013.631041,-0.011963,0.008118,-0.992004,0.144519,0.356031,-0.085191,48,269,576,5664
1644168013.679456,-0.012573,0.01001,-0.99408,0.419328,0.417099,-0.161527,57,270,570,5648
1644168013.727849,-0.012268,0.007874,-0.990112,0.297191,0.401832,-0.054656,55,274,578,5648
1644168013.776235,-0.01001,0.009338,-0.992126,0.113985,0.432366,0.006412,53,281,573,5632
1644168013.824732,-0.008484,0.008728,-0.992126,0.175053,0.569771,-0.237863,57,265,570,5600
1644168013.873073,-0.009521,0.010986,-0.990601,0.205588,0.325496,0.036947,53,279,576,5664
1644168013.921972,-0.007751,0.009094,-0.992371,0.251389,0.340763,-0.039389,60,274,573,5632
1644168013.96983,-0.012146,0.009583,-0.993042,0.220855,0.508702,-0.008855,49,270,575,5696
1644168014.018227,-0.010498,0.010376,-0.988831,0.327725,0.24916,-0.054656,52,273,572,5648
1644168014.084312,-0.009766,0.010254,-0.992065,0.373527,0.294962,-0.207328,51,266,576,5664
1644168014.11502,-0.010681,0.012817,-0.991028,0.251389,0.447634,-0.222595,57,263,575,5600
1644168014.163387,-0.009827,0.009521,-0.988892,0.419328,0.447634,-0.008855,49,270,579,5648
1644168014.213545,-0.010071,0.01178,-0.991882,0.175053,0.386565,-0.130992,51,269,578,5648
1644168014.263821,-0.012634,0.006409,-0.99353,0.266656,0.508702,-0.207328,53,264,571,5696
1644168014.308904,-0.011292,0.009644,-0.994202,0.251389,0.371298,-0.130992,51,274,573,5648
1644168014.405399,-0.011047,0.007568,-0.989441,0.251389,0.447634,-0.008855,36,266,580,5664
1644168014.45371,-0.012207,0.00885,-0.993652,0.342992,0.157557,-0.054656,54,273,582,5664
1644168014.502091,-0.010376,0.009338,-0.992737,0.144519,0.447634,-0.054656,54,277,577,5648
1644168014.550486,-0.009766,0.007507,-0.992371,0.159786,0.432366,-0.314198,46,274,583,5728
1644168014.598873,-0.011719,0.01123,-0.991882,0.388794,0.447634,-0.207328,53,271,573,5696
1644168014.647281,-0.010315,0.009399,-0.992798,0.281924,0.508702,-0.085191,47,273,570,5584
1644168014.695637,-0.008301,0.009705,-0.993347,0.266656,0.447634,-0.115725,52,260,577,5664
1644168014.744061,-0.009705,0.005859,-0.99176,0.236122,0.447634,-0.039389,54,268,579,5632
1644168014.792455,-0.011047,0.009644,-0.991882,0.190321,0.432366,-0.192061,57,277,575,5648
1644168014.840872,-0.009399,0.008972,-0.992676,0.266656,0.401832,-0.14626,58,279,573,5648
1644168014.889244,-0.011108,0.009521,-0.991333,0.159786,0.371298,-0.085191,49,275,577,5648
1644168014.937633,-0.011841,0.008972,-0.989075,0.190321,0.478168,-0.130992,59,268,577,5648
1644168014.986019,-0.009827,0.007874,-0.989014,0.113985,0.478168,-0.085191,41,269,578,5648
1644168015.034429,-0.010132,0.011841,-0.993896,0.236122,0.447634,-0.237863,55,283,571,5600
1644168015.083117,-0.010071,0.012756,-0.990967,0.220855,0.294962,-0.085191,42,275,579,5664
1644168015.131147,-0.011475,0.01001,-0.993408,0.266656,0.447634,-0.268397,52,273,575,5648
1644168015.179557,-0.010559,0.010315,-0.991028,0.373527,0.279695,-0.054656,52,275,570,5664
1644168015.227954,-0.011414,0.009888,-0.991028,0.236122,0.386565,-0.085191,57,280,572,5696
1644168015.276342,-0.013916,0.009521,-0.991577,0.236122,0.401832,-0.085191,53,279,580,5664
1644168015.325335,-0.011475,0.007629,-0.994263,0.129252,0.554504,-0.25313,46,276,573,5648
1644168015.375802,-0.008911,0.007568,-0.992981,0.251389,0.585038,-0.237863,52,280,575,5600
1644168015.425836,-0.013611,0.008545,-0.994507,0.190321,0.340763,-0.069924,51,276,576,5648
1644168015.470947,-0.012512,0.009583,-0.992126,0.113985,0.432366,0.052214,45,275,568,5648
1644168015.56667,-0.009399,0.011597,-0.990173,0.236122,0.493435,-0.176794,46,266,573,5600
1644168015.615307,-0.010864,0.010559,-0.989502,0.068183,0.340763,-0.207328,59,268,572,5664
1644168015.663477,-0.009216,0.006531,-0.989624,0.175053,0.386565,-0.039389,55,279,573,5648
1644168015.711846,-0.011597,0.009155,-0.992065,0.281924,0.478168,-0.054656,59,268,575,5664
1644168015.760214,-0.011902,0.01239,-0.991943,0.35826,0.432366,-0.176794,52,275,563,5632
1644168015.808628,-0.012268,0.010193,-0.993835,0.144519,0.279695,-0.14626,54,275,568,5648
1644168015.857066,-0.012878,0.008423,-0.990479,0.144519,0.523969,-0.100458,55,281,573,5632
1644168015.90543,-0.011536,0.011353,-0.991455,0.220855,0.401832,-0.100458,52,273,570,5664
1644168015.953825,-0.008972,0.008789,-0.990295,0.388794,0.478168,-0.161527,49,277,565,5696
1644168016.002263,-0.006897,0.010986,-0.99408,0.205588,0.462901,-0.176794,42,275,572,5664
1644168016.052333,-0.00885,0.009277,-0.989746,0.312458,0.432366,-0.130992,45,277,579,5648
1644168016.099004,-0.006531,0.007263,-0.990173,0.327725,0.356031,-0.085191,57,280,577,5696
1644168016.14737,-0.010254,0.008118,-0.991638,0.281924,0.371298,0.052214,47,277,582,5648
1644168016.195755,-0.009399,0.008972,-0.993347,0.251389,0.478168,0.021679,53,266,580,5600
1644168016.244157,-0.010376,0.010132,-0.989929,0.190321,0.478168,-0.176794,57,275,572,5696
1644168016.292525,-0.010925,0.009216,-0.991516,0.052916,0.432366,-0.283664,51,281,576,5648
1644168016.340928,-0.010803,0.00946,-0.992004,0.220855,0.493435,-0.14626,54,277,575,5696
1644168016.389314,-0.011658,0.009644,-0.992188,0.35826,0.462901,-0.161527,52,268,575,5696
1644168016.437703,-0.012146,0.007507,-0.991089,0.175053,0.356031,-0.161527,47,268,575,5584
1644168016.486485,-0.006958,0.010071,-0.991699,0.236122,0.478168,-0.161527,53,269,571,5696
1644168016.537271,-0.00885,0.009338,-0.99231,0.266656,0.401832,-0.115725,58,266,569,5696
1644168016.587198,-0.009338,0.009521,-0.992004,0.175053,0.325496,-0.085191,58,271,580,5648
1644168016.63219,-0.010559,0.010559,-0.992188,0.251389,0.447634,-0.14626,47,265,582,5664
1644168016.728038,-0.011475,0.013367,-0.991821,0.129252,0.386565,-0.100458,47,273,577,5664
1644168016.776433,-0.008057,0.009094,-0.992981,0.251389,0.508702,-0.024122,65,271,583,5712
1644168016.824862,-0.012085,0.010986,-0.992859,0.190321,0.325496,-0.100458,58,269,578,5600
1644168016.87327,-0.010254,0.010498,-0.989258,0.190321,0.508702,-0.130992,58,276,576,5664
1644168016.921647,-0.011719,0.006409,-0.992188,0.205588,0.386565,-0.085191,60,276,566,5664
1644168016.970053,-0.012207,0.009216,-0.993713,0.281924,0.447634,-0.100458,43,276,573,5600
1644168017.01844,-0.008728,0.00708,-0.991943,0.236122,0.478168,-0.100458,62,276,571,5664
1644168017.068051,-0.009216,0.008972,-0.991455,0.251389,0.539237,-0.115725,46,274,578,5696
1644168017.115338,-0.01001,0.009216,-0.989807,0.190321,0.417099,-0.039389,43,269,571,5664
1644168017.163594,-0.008179,0.008911,-0.989258,0.190321,0.294962,-0.329466,46,274,576,5696
1644168017.211929,-0.011719,0.009094,-0.993774,0.190321,0.371298,0.036947,47,282,570,5600
1644168017.260325,-0.010315,0.008423,-0.990845,0.113985,0.432366,-0.008855,46,274,578,5648
1644168017.308748,-0.008423,0.009827,-0.990356,0.205588,0.371298,-0.100458,57,275,575,5584
1644168017.357126,-0.010498,0.011536,-0.99115,0.098718,0.417099,-0.192061,54,277,577,5712
1644168017.40549,-0.009155,0.010864,-0.99231,0.205588,0.478168,-0.069924,59,287,579,5664
1644168017.453916,-0.010498,0.011047,-0.994812,0.236122,0.432366,-0.237863,43,274,580,5664
1644168017.50261,-0.009827,0.009338,-0.989746,0.312458,0.508702,-0.130992,55,274,576,5648
1644168017.550999,-0.011353,0.009277,-0.991333,0.251389,0.417099,-0.069924,41,266,585,5696
1644168017.60005,-0.011536,0.009521,-0.991211,0.220855,0.478168,-0.054656,54,265,568,5648
1644168017.650418,-0.012085,0.010986,-0.990845,0.281924,0.340763,-0.069924,45,275,565,5600
1644168017.700535,-0.012024,0.008362,-0.992798,0.205588,0.386565,-0.192061,54,270,582,5648
1644168017.745625,-0.011414,0.00824,-0.993896,0.159786,0.417099,-0.115725,53,274,573,5712
1644168017.841007,-0.012695,0.009094,-0.990723,0.281924,0.447634,-0.161527,54,275,579,5696
1644168017.889456,-0.014404,0.012573,-0.990723,-0.038687,0.294962,-0.207328,52,273,584,5632
1644168017.937851,-0.010132,0.009033,-0.99054,0.220855,0.447634,-0.207328,41,276,573,5696
1644168017.986248,-0.008667,0.011353,-0.99231,0.297191,0.386565,-0.100458,49,273,582,5712
1644168018.034642,-0.01123,0.009827,-0.992371,0.175053,0.325496,-0.115725,45,282,577,5664
1644168018.083071,-0.010193,0.009583,-0.991394,0.220855,0.539237,-0.268397,47,275,575,5696
1644168018.131423,-0.010925,0.009949,-0.990845,0.236122,0.264427,-0.222595,53,279,564,5648
1644168018.179783,-0.010315,0.01001,-0.990417,0.159786,0.279695,-0.207328,49,280,572,5600
1644168018.228159,-0.008484,0.010681,-0.990417,0.068183,0.508702,-0.161527,57,290,572,5632
1644168018.276538,-0.009705,0.009705,-0.99231,0.266656,0.401832,-0.054656,58,271,585,5632
1644168018.324956,-0.012268,0.008057,-0.989807,0.312458,0.585038,-0.130992,48,266,583,5648
1644168018.373339,-0.00708,0.010437,-0.990601,0.205588,0.386565,-0.039389,46,276,571,5648
1644168018.421692,-0.009216,0.010498,-0.98999,0.312458,0.325496,-0.008855,46,279,571,5664
1644168018.470364,-0.008179,0.006897,-0.994263,0.266656,0.432366,-0.130992,43,274,566,5696
1644168018.518667,-0.009277,0.009583,-0.992188,0.159786,0.401832,0.006412,53,269,573,5696
1644168018.569132,-0.008606,0.00824,-0.990601,0.205588,0.279695,-0.054656,57,265,577,5632
1644168018.619307,-0.010071,0.008728,-0.992249,0.297191,0.356031,-0.069924,52,270,568,5696
1644168018.66433,-0.011475,0.009155,-0.991394,0.281924,0.386565,-0.100458,60,276,571,5648
1644168018.760442,-0.010864,0.009583,-0.989929,0.190321,0.356031,-0.069924,59,270,575,5584
1644168018.808825,-0.012512,0.007568,-0.99176,0.297191,0.478168,-0.069924,58,276,573,5696
1644168018.857217,-0.010437,0.008728,-0.99054,0.129252,0.340763,-0.100458,43,276,578,5696
1644168018.905654,-0.01062,0.007019,-0.992493,0.327725,0.279695,-0.314198,53,269,578,5648
1644168018.954068,-0.008667,0.009766,-0.99054,0.113985,0.417099,-0.207328,53,276,578,5712
1644168019.002442,-0.01178,0.009705,-0.994446,0.266656,0.325496,-0.085191,49,265,568,5600
1644168019.05481,-0.008789,0.01178,-0.988708,0.113985,0.417099,0.006412,52,273,579,5600
1644168019.099172,-0.010742,0.007812,-0.992615,0.251389,0.325496,0.052214,49,277,572,5648
1644168019.147617,-0.009888,0.008972,-0.992615,0.175053,0.417099,0.052214,48,276,573,5648
1644168019.196007,-0.009399,0.008789,-0.992188,0.251389,0.386565,-0.14626,46,269,580,5648
1644168019.244393,-0.009521,0.011475,-0.99176,0.190321,0.417099,-0.207328,51,279,576,5664
1644168019.292794,-0.008545,0.006348,-0.993103,0.327725,0.371298,-0.207328,54,280,570,5664
1644168019.341186,-0.010193,0.01001,-0.99115,0.297191,0.478168,0.052214,58,271,569,5600
1644168019.389579,-0.012512,0.009155,-0.992432,0.266656,0.340763,-0.024122,47,273,579,5600
1644168019.437962,-0.012207,0.010071,-0.991943,0.144519,0.417099,-0.039389,45,273,579,5600
1644168019.48635,-0.010071,0.009033,-0.99054,0.175053,0.386565,-0.207328,47,277,584,5664
1644168019.534745,-0.00824,0.011108,-0.99408,0.266656,0.447634,-0.192061,45,273,579,5600
1644168019.583381,-0.012939,0.00708,-0.990112,0.159786,0.417099,-0.14626,48,274,576,5696
1644168019.631546,-0.007935,0.00592,-0.990601,0.236122,0.493435,-0.115725,46,283,578,5600
1644168019.681322,-0.009705,0.011047,-0.992432,0.251389,0.386565,0.006412,47,270,579,5728
1644168019.731598,-0.010681,0.007935,-0.990967,0.220855,0.325496,-0.069924,45,277,582,5600
1644168019.781828,-0.00946,0.008423,-0.992188,0.251389,0.264427,-0.054656,45,265,575,5584
1644168019.826261,-0.009094,0.01178,-0.993042,0.129252,0.325496,0.021679,57,285,565,5664
1644168019.921843,-0.008606,0.011719,-0.990295,0.190321,0.386565,-0.115725,55,271,571,5648
1644168019.970254,-0.012756,0.008667,-0.99292,0.190321,0.371298,-0.237863,52,273,568,5664
1644168020.018652,-0.010559,0.009827,-0.991699,0.312458,0.508702,0.113282,43,271,573,5648
1644168020.067105,-0.010986,0.007874,-0.992371,0.190321,0.417099,-0.14626,48,271,576,5696
1644168020.11543,-0.006165,0.010742,-0.990479,0.037649,0.386565,-0.237863,53,271,578,5664
1644168020.16378,-0.012085,0.011902,-0.991699,0.281924,0.554504,-0.054656,53,271,569,5648
1644168020.21218,-0.012573,0.007935,-0.991943,0.236122,0.432366,-0.024122,47,280,565,5632
1644168020.260562,-0.012939,0.009277,-0.991089,0.342992,0.279695,-0.024122,46,271,580,5632
1644168020.308947,-0.010376,0.008423,-0.991882,0.190321,0.432366,-0.039389,52,273,577,5696
1644168020.357339,-0.012817,0.010559,-0.991943,0.220855,0.447634,-0.192061,41,271,576,5664
1644168020.405736,-0.009949,0.008545,-0.991211,0.251389,0.554504,-0.069924,51,274,583,5664
1644168020.454128,-0.011169,0.009521,-0.992798,0.404061,0.386565,-0.100458,58,266,566,5664
1644168020.502527,-0.010742,0.008057,-0.994995,0.236122,0.356031,-0.115725,52,282,575,5600
1644168020.550902,-0.008972,0.009094,-0.992493,0.327725,0.462901,-0.100458,51,269,576,5664
1644168020.599294,-0.014221,0.010437,-0.990723,0.342992,0.340763,-0.161527,58,274,590,5632
1644168020.647688,-0.006836,0.013367,-0.990479,0.190321,0.310229,-0.100458,45,280,575,5664
1644168020.69607,-0.009277,0.00769,-0.98999,0.205588,0.386565,-0.085191,46,276,590,5648
1644168020.744453,-0.010132,0.009033,-0.993591,0.159786,0.386565,-0.054656,43,286,576,5648
1644168020.792923,-0.011108,0.008179,-0.99176,0.190321,0.447634,0.021679,40,275,582,5648
1644168020.842928,-0.011047,0.008057,-0.991943,0.342992,0.462901,-0.207328,52,273,575,5648
1644168020.893336,-0.008179,0.012146,-0.991455,0.236122,0.447634,0.082748,54,275,586,5584
1644168020.943945,-0.007996,0.006775,-0.991943,0.190321,0.462901,0.006412,47,275,577,5648
1644168020.988235,-0.00885,0.011963,-0.991638,0.190321,0.417099,-0.085191,43,271,564,5664
1644168021.083683,-0.009094,0.010559,-0.98999,0.35826,0.417099,-0.161527,46,274,585,5584
1644168021.131538,-0.011047,0.007263,-0.991577,0.159786,0.417099,-0.130992,51,262,573,5664
1644168021.17997,-0.00946,0.00885,-0.988708,0.297191,0.356031,-0.176794,49,270,575,5696
1644168021.228355,-0.008606,0.009949,-0.991028,0.159786,0.356031,-0.115725,54,275,579,5648
1644168021.276753,-0.005798,0.010986,-0.99176,0.327725,0.417099,-0.085191,54,277,572,5600
1644168021.32517,-0.009766,0.01001,-0.991211,0.251389,0.401832,-0.054656,54,265,568,5696
1644168021.373548,-0.011536,0.009338,-0.992065,0.220855,0.539237,-0.283664,42,270,572,5584
1644168021.421938,-0.012634,0.010864,-0.993164,0.251389,0.386565,-0.069924,57,270,572,5648
1644168021.470327,-0.009216,0.009583,-0.992615,0.190321,0.371298,-0.024122,54,277,565,5648
1644168021.518714,-0.01178,0.010864,-0.989319,0.236122,0.401832,-0.024122,53,276,569,5600
1644168021.567101,-0.011353,0.012207,-0.991577,0.312458,0.417099,-0.14626,53,274,578,5696
1644168021.61549,-0.009888,0.009277,-0.989746,0.236122,0.539237,-0.207328,52,270,579,5632
1644168021.663883,-0.012207,0.010132,-0.993103,0.144519,0.493435,-0.222595,59,270,575,5632
1644168021.712284,-0.011841,0.01001,-0.992676,0.281924,0.371298,-0.176794,52,280,575,5664
1644168021.760637,-0.012451,0.008667,-0.993958,0.251389,0.432366,-0.115725,62,266,576,5664
1644168021.809095,-0.008362,0.009094,-0.990479,0.327725,0.447634,-0.085191,60,271,576,5664
1644168021.857484,-0.00824,0.008789,-0.989746,0.373527,0.539237,0.021679,43,269,576,5648
1644168021.90588,-0.011047,0.012573,-0.991028,0.175053,0.447634,0.021679,52,270,577,5648
1644168021.954315,-0.010132,0.014038,-0.990784,0.373527,0.401832,0.006412,57,270,570,5600
1644168022.004558,-0.01178,0.009888,-0.989624,0.129252,0.523969,-0.161527,51,274,580,5664
1644168022.080774,-0.009827,0.006287,-0.991455,0.129252,0.233893,-0.054656,46,276,576,5552
1644168022.110034,-0.009583,0.00946,-0.989807,0.129252,0.386565,-0.329466,58,269,585,5600
1644168022.19616,-0.011597,0.008423,-0.989441,0.129252,0.401832,-0.085191,54,275,575,5648
1644168022.244552,-0.01062,0.007568,-0.99231,0.35826,0.371298,-0.069924,54,268,575,5696
1644168022.292971,-0.01001,0.010254,-0.993774,0.236122,0.279695,-0.207328,49,270,572,5648
1644168022.341343,-0.00824,0.012146,-0.989624,0.35826,0.462901,-0.207328,51,286,576,5648
1644168022.389729,-0.011658,0.008545,-0.99176,0.175053,0.401832,-0.085191,46,264,566,5584
1644168022.438143,-0.010193,0.008789,-0.993103,0.159786,0.447634,-0.039389,55,283,569,5600
1644168022.486508,-0.010437,0.010559,-0.994202,0.159786,0.340763,-0.085191,51,276,571,5648
1644168022.534903,-0.01239,0.009583,-0.992432,0.129252,0.508702,-0.192061,47,273,577,5712
1644168022.583308,-0.010254,0.012573,-0.993103,0.007115,0.554504,-0.054656,47,273,577,5648
1644168022.631697,-0.009766,0.010742,-0.990479,0.342992,0.386565,-0.14626,55,271,569,5632
1644168022.680081,-0.01123,0.012268,-0.99176,0.037649,0.356031,-0.176794,47,273,568,5600
1644168022.72847,-0.010315,0.010376,-0.993896,0.220855,0.356031,-0.069924,53,269,573,5648
1644168022.776869,-0.014709,0.009644,-0.992126,0.190321,0.356031,-0.024122,46,281,569,5600
1644168022.825294,-0.011169,0.008789,-0.990967,0.175053,0.325496,-0.054656,51,271,585,5664
1644168022.873665,-0.008057,0.010193,-0.990784,0.312458,0.386565,-0.14626,46,279,573,5664
1644168022.922039,-0.012634,0.009521,-0.99176,0.144519,0.447634,-0.085191,53,279,573,5632
1644168022.97046,-0.010559,0.010864,-0.994446,0.281924,0.508702,-0.054656,47,265,572,5664
1644168023.018857,-0.011169,0.009155,-0.993713,0.129252,0.539237,-0.039389,59,268,577,5664
1644168023.080041,-0.010742,0.010925,-0.993835,0.297191,0.447634,-0.161527,52,277,579,5584
1644168023.119443,-0.012573,0.009949,-0.990479,0.281924,0.386565,-0.100458,59,273,570,5648
1644168023.16805,-0.010986,0.00824,-0.991821,0.297191,0.325496,-0.192061,48,271,569,5632
1644168023.213142,-0.008667,0.009766,-0.991089,0.297191,0.462901,-0.161527,52,275,575,5712
1644168023.309149,-0.010132,0.008545,-0.993042,0.205588,0.264427,-0.008855,43,274,571,5648
1644168023.357527,-0.010498,0.010986,-0.991821,0.297191,0.554504,0.006412,61,268,577,5696
1644168023.405928,-0.010559,0.009705,-0.991211,0.098718,0.325496,-0.161527,52,273,575,5600
1644168023.45434,-0.009705,0.008606,-0.990906,0.068183,0.310229,-0.176794,49,270,570,5648
1644168023.502743,-0.009155,0.011658,-0.991821,0.220855,0.417099,-0.100458,48,274,571,5696
1644168023.551106,-0.010498,0.011047,-0.991089,0.129252,0.386565,-0.192061,48,271,578,5584
1644168023.599503,-0.009705,0.008911,-0.993103,0.022382,0.340763,-0.161527,52,282,572,5648
1644168023.647892,-0.010559,0.009155,-0.990112,0.266656,0.401832,-0.008855,51,276,566,5600
1644168023.696285,-0.008789,0.007019,-0.99054,0.220855,0.340763,-0.069924,48,283,564,5664
1644168023.744703,-0.008301,0.010986,-0.989319,0.297191,0.356031,-0.069924,54,273,582,5648
1644168023.793092,-0.010803,0.008789,-0.991211,0.205588,0.508702,-0.115725,42,268,570,5648
1644168023.841513,-0.008484,0.010437,-0.989563,0.266656,0.371298,-0.161527,51,276,571,5584
1644168023.889889,-0.008606,0.008972,-0.990906,0.297191,0.447634,-0.085191,49,277,584,5600
1644168023.938284,-0.009827,0.010559,-0.994812,0.251389,0.325496,-0.176794,38,265,572,5664
1644168023.986669,-0.01178,0.010254,-0.993286,0.297191,0.386565,-0.237863,48,283,580,5632
1644168024.035119,-0.008484,0.007874,-0.987915,0.129252,0.340763,-0.14626,42,275,586,5712
1644168024.085199,-0.009338,0.01062,-0.990845,0.175053,0.310229,0.036947,53,271,583,5584
1644168024.132245,-0.007263,0.010925,-0.992859,0.08345,0.447634,-0.039389,46,269,583,5648
1644168024.180181,-0.008545,0.009583,-0.990662,0.129252,0.432366,-0.085191,48,266,569,5648
1644168024.228595,-0.009888,0.009583,-0.992798,0.205588,0.279695,-0.024122,52,273,570,5664
1644168024.278788,-0.00946,0.007629,-0.992371,0.373527,0.462901,-0.085191,46,274,585,5632
1644168024.329135,-0.011108,0.005493,-0.99115,0.144519,0.478168,-0.039389,45,275,575,5648
1644168024.374165,-0.012451,0.008972,-0.995605,0.159786,0.24916,-0.344733,35,275,570,5696
1644168024.470526,-0.010132,0.010071,-0.990784,0.342992,0.432366,-0.008855,55,279,566,5648
1644168024.518924,-0.007751,0.010559,-0.989014,0.297191,0.401832,-0.130992,48,266,576,5584
1644168024.567306,-0.010986,0.008179,-0.99469,0.08345,0.417099,0.082748,47,270,572,5632
1644168024.6157,-0.010071,0.009827,-0.990234,0.281924,0.432366,-0.100458,45,273,568,5584
1644168024.664095,-0.009766,0.008423,-0.991333,0.327725,0.233893,-0.054656,55,271,583,5696
1644168024.712503,-0.008728,0.009888,-0.992004,0.098718,0.432366,-0.100458,54,263,572,5600
1644168024.760849,-0.01062,0.010986,-0.992004,0.220855,0.432366,-0.024122,48,271,571,5696
1644168024.809267,-0.011108,0.00885,-0.990662,0.159786,0.432366,-0.039389,47,275,570,5584
1644168024.857716,-0.009705,0.007507,-0.989868,0.205588,0.340763,-0.176794,52,277,570,5648
1644168024.906093,-0.01062,0.010376,-0.991455,0.022382,0.294962,0.036947,51,274,580,5648
1644168024.954485,-0.009888,0.008789,-0.993958,0.236122,0.264427,0.006412,59,277,582,5648
1644168025.002885,-0.007141,0.009949,-0.989136,0.144519,0.478168,-0.054656,53,274,580,5632
1644168025.059675,-0.009277,0.010925,-0.993469,0.312458,0.401832,-0.161527,53,269,573,5696
1644168025.0996,-0.010925,0.008911,-0.989624,0.297191,0.386565,-0.008855,57,268,584,5664
1644168025.147994,-0.011658,0.010132,-0.990356,0.113985,0.356031,-0.115725,42,282,572,5664
1644168025.19638,-0.01001,0.010437,-0.991028,0.373527,0.386565,-0.237863,48,269,573,5648
1644168025.244792,-0.011108,0.009888,-0.99115,0.205588,0.356031,-0.039389,47,273,579,5664
1644168025.293188,-0.011536,0.009216,-0.993347,0.190321,0.523969,-0.069924,48,266,580,5648
1644168025.341625,-0.007202,0.006531,-0.993774,0.236122,0.462901,-0.054656,40,277,582,5648
1644168025.390442,-0.007629,0.009766,-0.98999,0.251389,0.325496,-0.115725,62,274,559,5696
1644168025.441168,-0.008728,0.011108,-0.991943,0.251389,0.401832,-0.25313,52,270,572,5632
1644168025.491305,-0.011963,0.009949,-0.992859,0.205588,0.401832,-0.039389,52,265,577,5696
1644168025.536322,-0.010803,0.009705,-0.991028,0.159786,0.386565,-0.115725,47,268,575,5712
1644168025.631911,-0.010498,0.010742,-0.991272,0.098718,0.462901,-0.176794,45,282,565,5664
1644168025.680284,-0.010071,0.006531,-0.993164,0.037649,0.356031,-0.069924,46,274,573,5664
1644168025.728692,-0.012695,0.009155,-0.989746,0.297191,0.401832,-0.069924,42,282,577,5648
1644168025.777069,-0.012329,0.010986,-0.993896,0.251389,0.432366,-0.268397,48,276,571,5712
1644168025.825462,-0.01001,0.01062,-0.993164,0.266656,0.585038,-0.25313,45,268,568,5664
1644168025.873903,-0.011658,0.009644,-0.992126,0.236122,0.447634,-0.085191,53,276,573,5664
1644168025.922324,-0.011658,0.010132,-0.991821,0.342992,0.417099,0.006412,53,276,573,5712
1644168025.970679,-0.010803,0.009277,-0.990906,0.35826,0.340763,-0.008855,42,282,579,5648
1644168026.019046,-0.009888,0.010437,-0.993774,0.144519,0.478168,-0.161527,52,265,579,5664
1644168026.070878,-0.007507,0.007568,-0.991455,0.220855,0.447634,-0.14626,42,275,577,5664
1644168026.115868,-0.011292,0.010559,-0.99292,0.312458,0.493435,-0.130992,46,274,583,5648
1644168026.164175,-0.010254,0.008606,-0.994263,0.190321,0.386565,0.021679,49,270,572,5648
1644168026.212607,-0.008728,0.012146,-0.992004,0.144519,0.447634,-0.085191,51,271,585,5664
1644168026.260961,-0.013245,0.008301,-0.992737,0.205588,0.310229,-0.207328,53,276,580,5648
1644168026.309364,-0.011536,0.011658,-0.993774,0.08345,0.417099,-0.069924,57,277,575,5584
1644168026.357768,-0.011902,0.010193,-0.99353,0.35826,0.447634,-0.008855,48,269,569,5664
1644168026.406146,-0.011719,0.006531,-0.992371,0.35826,0.264427,-0.054656,42,275,572,5632
1644168026.454538,-0.011353,0.008545,-0.992554,0.419328,0.356031,-0.115725,48,262,578,5664
1644168026.502911,-0.011902,0.011108,-0.992493,0.205588,0.447634,0.021679,46,274,578,5664
1644168026.551519,-0.01062,0.009521,-0.994629,0.113985,0.432366,-0.115725,49,280,572,5648
1644168026.60198,-0.010803,0.008606,-0.991882,0.35826,0.432366,-0.176794,57,273,584,5632
1644168026.652308,-0.011719,0.011536,-0.990784,0.297191,0.462901,-0.192061,52,277,579,5664
1644168026.697349,-0.011536,0.010254,-0.991577,0.144519,0.371298,-0.024122,61,275,584,5648
1644168026.793303,-0.012146,0.012817,-0.991516,0.037649,0.417099,-0.085191,45,273,582,5632
1644168026.841668,-0.009644,0.007446,-0.99176,0.266656,0.371298,-0.115725,47,270,575,5664
1644168026.890094,-0.009277,0.01001,-0.990784,0.35826,0.478168,-0.024122,54,270,579,5664
1644168026.938494,-0.011475,0.010193,-0.992126,0.159786,0.24916,-0.115725,51,281,576,5712
1644168026.986873,-0.011047,0.008911,-0.992126,0.236122,0.356031,-0.176794,47,268,575,5648
1644168027.035285,-0.009521,0.011108,-0.992981,0.220855,0.310229,-0.237863,54,270,575,5664
1644168027.083754,-0.010315,0.007751,-0.99231,0.297191,0.279695,0.036947,52,275,584,5632
1644168027.132061,-0.010498,0.013428,-0.991333,0.205588,0.615573,-0.207328,49,273,572,5584
1644168027.18041,-0.011169,0.008728,-0.991089,0.190321,0.417099,-0.085191,52,277,582,5600
1644168027.228802,-0.010376,0.01001,-0.993347,0.220855,0.233893,-0.054656,46,264,571,5712
1644168027.277161,-0.012268,0.009949,-0.99176,0.159786,0.585038,-0.039389,55,269,571,5664
1644168027.325579,-0.006226,0.008972,-0.992126,0.205588,0.569771,-0.130992,40,265,577,5664
1644168027.373965,-0.009399,0.009583,-0.992126,0.068183,0.447634,0.006412,47,273,572,5584
1644168027.422369,-0.014587,0.009644,-0.992981,0.190321,0.493435,-0.069924,46,276,573,5584
1644168027.471131,-0.013916,0.008057,-0.991394,0.190321,0.432366,-0.024122,52,265,584,5696
1644168027.521539,-0.010559,0.010437,-0.991577,0.144519,0.447634,-0.039389,60,269,587,5648
1644168027.571512,-0.011292,0.009216,-0.99292,0.129252,0.539237,-0.054656,51,276,576,5648
1644168027.616671,-0.010986,0.010071,-0.991699,0.297191,0.432366,-0.237863,46,269,576,5664
1644168027.712689,-0.013,0.007996,-0.992493,0.251389,0.401832,-0.069924,58,269,583,5648
1644168027.761063,-0.010498,0.01001,-0.991455,0.312458,0.310229,0.021679,60,264,578,5664
1644168027.809477,-0.010254,0.006531,-0.993103,0.266656,0.294962,-0.161527,59,275,570,5584
1644168027.857872,-0.009155,0.009155,-0.992615,0.297191,0.371298,-0.115725,40,268,570,5664
1644168027.906299,-0.012451,0.010254,-0.992065,0.08345,0.310229,-0.008855,57,263,579,5648
1644168027.954697,-0.009216,0.010559,-0.991821,0.113985,0.340763,-0.14626,57,270,572,5632
1644168028.003061,-0.008423,0.010498,-0.992859,0.190321,0.233893,-0.115725,54,270,577,5648
1644168028.06596,-0.014343,0.009949,-0.990295,0.236122,0.539237,-0.222595,52,275,572,5584
1644168028.099845,-0.012695,0.009583,-0.992188,0.159786,0.371298,-0.024122,49,275,579,5712
1644168028.14826,-0.009277,0.008911,-0.99231,0.312458,0.371298,0.082748,49,280,579,5648
1644168028.196641,-0.009766,0.01178,-0.993408,0.190321,0.478168,-0.069924,58,274,576,5584
1644168028.245358,-0.012024,0.011475,-0.991028,0.144519,0.356031,0.067481,58,274,576,5584
1644168028.293425,-0.012024,0.009766,-0.991577,0.022382,0.508702,-0.115725,53,269,566,5664
1644168028.341785,-0.012207,0.010132,-0.98877,0.297191,0.310229,-0.100458,48,279,573,5648
1644168028.390211,-0.008423,0.010254,-0.994324,0.312458,0.417099,0.052214,51,271,576,5696
1644168028.43861,-0.009399,0.009094,-0.991272,0.281924,0.325496,-0.039389,54,268,579,5664
1644168028.487372,-0.010803,0.009766,-0.994446,0.312458,0.432366,-0.024122,54,275,577,5648
1644168028.535358,-0.009644,0.008667,-0.990051,0.190321,0.417099,-0.115725,52,268,586,5712
1644168028.584696,-0.007751,0.011414,-0.991516,0.175053,0.432366,-0.054656,55,269,576,5664
1644168028.634672,-0.010925,0.008728,-0.99408,0.342992,0.432366,-0.14626,51,269,573,5648
1644168028.684784,-0.010193,0.010376,-0.990601,0.205588,0.447634,-0.100458,49,280,570,5760
1644168028.729475,-0.009827,0.010132,-0.993896,0.449863,0.310229,-0.192061,47,273,572,5664
1644168028.825702,-0.014282,0.007263,-0.996338,0.297191,0.340763,0.036947,42,268,584,5584
1644168028.874114,-0.010925,0.007568,-0.993347,0.220855,0.462901,-0.176794,48,266,578,5648
1644168028.922503,-0.011169,0.007202,-0.991699,0.281924,0.325496,0.021679,46,281,569,5664
1644168028.970853,-0.01062,0.008545,-0.991028,0.266656,0.371298,0.021679,43,276,580,5664
1644168029.019271,-0.01123,0.009155,-0.991028,0.327725,0.447634,-0.14626,48,264,576,5664
1644168029.067713,-0.010071,0.009827,-0.994446,0.266656,0.371298,0.021679,57,275,577,5552
1644168029.116018,-0.010986,0.011414,-0.992188,0.251389,0.493435,0.052214,54,273,568,5664
1644168029.164421,-0.009827,0.007874,-0.993286,0.220855,0.325496,-0.176794,47,277,565,5664
1644168029.212824,-0.008301,0.011169,-0.992249,0.312458,0.417099,-0.207328,46,279,580,5600
1644168029.26118,-0.009827,0.010498,-0.99115,0.342992,0.417099,-0.069924,57,275,570,5696
1644168029.309562,-0.011658,0.010681,-0.990906,0.35826,0.447634,-0.14626,38,280,584,5712
1644168029.357975,-0.009155,0.010315,-0.988953,0.236122,0.264427,-0.069924,55,269,571,5584
1644168029.406369,-0.012024,0.010742,-0.990784,0.113985,0.386565,-0.069924,48,276,571,5648
1644168029.454773,-0.010376,0.008728,-0.993591,0.175053,0.401832,-0.176794,46,281,576,5712
1644168029.503119,-0.010132,0.011536,-0.992615,0.129252,0.432366,-0.008855,54,275,579,5696
1644168029.551508,-0.008423,0.011353,-0.988708,0.266656,0.478168,-0.115725,59,268,579,5664
1644168029.599923,-0.008667,0.008911,-0.990845,0.312458,0.340763,-0.115725,57,275,582,5664
1644168029.648324,-0.009338,0.00824,-0.989746,0.236122,0.233893,-0.054656,42,277,579,5648
1644168029.697016,-0.008606,0.009033,-0.990173,0.251389,0.523969,-0.069924,43,269,585,5696
1644168029.745973,-0.011536,0.013,-0.989868,0.297191,0.356031,-0.130992,43,276,580,5632
1644168029.797199,-0.009888,0.009399,-0.990662,0.175053,0.447634,-0.054656,54,277,582,5632
1644168029.84818,-0.010132,0.008972,-0.994202,0.327725,0.462901,-0.115725,46,276,576,5696
1644168029.93872,-0.01062,0.008972,-0.989868,0.220855,0.386565,-0.085191,57,273,575,5648
1644168029.987073,-0.006958,0.01062,-0.991089,0.327725,0.417099,-0.207328,49,268,572,5696
1644168030.035453,-0.011475,0.012817,-0.990234,0.266656,0.447634,-0.161527,38,273,570,5664
1644168030.084919,-0.01001,0.010193,-0.991089,0.052916,0.371298,-0.008855,51,271,573,5648
1644168030.132238,-0.011047,0.01001,-0.991577,0.373527,0.371298,-0.329466,45,277,565,5648
1644168030.180604,-0.011902,0.01062,-0.992126,0.236122,0.554504,-0.069924,42,270,563,5696
1644168030.228977,-0.010559,0.01001,-0.992798,0.35826,0.386565,-0.14626,54,280,570,5696
1644168030.277397,-0.013245,0.009277,-0.994751,0.281924,0.493435,-0.237863,49,282,577,5696
1644168030.325785,-0.010925,0.010254,-0.990906,0.327725,0.264427,-0.161527,45,270,582,5696
1644168030.374187,-0.007019,0.008362,-0.991394,0.205588,0.462901,-0.069924,45,275,570,5600
1644168030.422565,-0.009705,0.009216,-0.991821,0.388794,0.523969,-0.054656,53,274,578,5648
1644168030.47095,-0.010864,0.009949,-0.992004,0.236122,0.417099,-0.161527,55,279,566,5664
1644168030.519331,-0.008911,0.010742,-0.990906,0.175053,0.233893,-0.207328,47,275,575,5648
1644168030.567737,-0.013916,0.00769,-0.991638,0.297191,0.417099,-0.069924,49,270,568,5648
1644168030.616131,-0.011169,0.010864,-0.992126,0.190321,0.508702,-0.100458,46,271,566,5664
1644168030.664492,-0.010376,0.008118,-0.993652,0.159786,0.340763,-0.085191,52,280,577,5664
1644168030.712922,-0.010803,0.007751,-0.992859,0.236122,0.417099,-0.069924,59,270,579,5664
1644168030.761296,-0.011047,0.008118,-0.991333,0.297191,0.294962,-0.100458,45,273,577,5584
1644168030.809899,-0.011902,0.011414,-0.989807,0.266656,0.508702,-0.054656,62,266,576,5600
1644168030.859797,-0.011658,0.009827,-0.991882,0.022382,0.417099,-0.069924,47,273,582,5664
1644168030.910123,-0.008545,0.010315,-0.990479,0.098718,0.386565,-0.207328,49,268,568,5664
1644168030.960494,-0.009338,0.009949,-0.991028,0.159786,0.447634,-0.192061,51,276,576,5648
1644168031.064602,-0.01001,0.008728,-0.993591,0.220855,0.356031,-0.024122,49,275,575,5600
1644168031.101357,-0.009644,0.007812,-0.99469,0.113985,0.478168,-0.25313,52,277,579,5664
1644168031.148418,-0.010254,0.007019,-0.99115,0.068183,0.417099,0.006412,45,270,575,5696
1644168031.196811,-0.009033,0.007385,-0.992737,0.342992,0.447634,-0.100458,54,268,579,5696
1644168031.245275,-0.009155,0.007446,-0.991821,0.159786,0.478168,-0.130992,58,274,580,5584
1644168031.293607,-0.01062,0.009827,-0.991272,0.236122,0.401832,-0.039389,49,280,577,5632
1644168031.341988,-0.009888,0.009094,-0.99176,0.236122,0.447634,-0.039389,45,273,575,5632
1644168031.390367,-0.007141,0.00885,-0.987976,0.251389,0.462901,-0.176794,49,270,582,5664
1644168031.438758,-0.010071,0.009949,-0.989197,0.220855,0.462901,-0.100458,53,271,583,5664
1644168031.48711,-0.010498,0.010376,-0.993347,0.190321,0.371298,-0.161527,51,276,576,5648
1644168031.535537,-0.008301,0.009583,-0.991699,0.236122,0.417099,-0.161527,48,279,573,5648
1644168031.583929,-0.008301,0.010193,-0.989563,0.175053,0.432366,-0.069924,58,276,576,5712
1644168031.632517,-0.012329,0.010742,-0.990906,0.220855,0.462901,-0.207328,54,277,579,5696
1644168031.681798,-0.010193,0.011902,-0.99054,0.175053,0.401832,-0.130992,59,273,568,5648
1644168031.732183,-0.009705,0.010132,-0.990051,0.144519,0.386565,-0.207328,52,275,577,5648
1644168031.782496,-0.009155,0.010742,-0.993286,0.159786,0.233893,-0.100458,53,264,576,5696
1644168031.874376,-0.009277,0.010132,-0.992249,0.175053,0.371298,-0.14626,42,268,577,5728
1644168031.922723,-0.015381,0.011108,-0.993958,0.266656,0.233893,-0.161527,51,269,580,5648
1644168031.971095,-0.010742,0.011292,-0.990845,0.342992,0.401832,-0.161527,45,273,582,5664
1644168032.019486,-0.008118,0.00885,-0.992432,0.297191,0.447634,-0.008855,53,259,569,5696
1644168032.067935,-0.011108,0.006897,-0.99115,0.35826,0.523969,-0.085191,55,274,583,5696
1644168032.116268,-0.00824,0.008789,-0.993286,0.144519,0.294962,-0.192061,55,279,566,5584
1644168032.164637,-0.011597,0.00885,-0.990723,0.220855,0.447634,-0.130992,55,262,571,5664
1644168032.213027,-0.009521,0.009705,-0.992371,0.159786,0.386565,-0.192061,46,279,573,5696
1644168032.261411,-0.009277,0.009888,-0.992065,0.297191,0.447634,-0.130992,52,275,568,5664
1644168032.309793,-0.008423,0.01178,-0.990906,0.068183,0.386565,-0.100458,47,273,570,5600
1644168032.358188,-0.008362,0.009033,-0.991638,0.236122,0.264427,-0.130992,55,274,569,5584
1644168032.406569,-0.010254,0.009888,-0.992188,0.327725,0.310229,-0.100458,57,268,570,5648
1644168032.455084,-0.01355,0.007019,-0.994385,0.175053,0.294962,-0.069924,46,279,578,5648
1644168032.503339,-0.010315,0.01062,-0.992493,0.327725,0.585038,-0.085191,55,274,569,5664
1644168032.55176,-0.011414,0.009033,-0.99176,0.068183,0.386565,-0.130992,53,274,580,5600
1644168032.600142,-0.01062,0.008179,-0.989563,0.220855,0.508702,-0.192061,53,276,576,5696
1644168032.648521,-0.00885,0.011292,-0.989258,0.251389,0.401832,0.021679,54,270,586,5632
1644168032.696891,-0.010803,0.009827,-0.990662,0.098718,0.508702,-0.207328,48,276,578,5696
1644168032.745577,-0.008667,0.008606,-0.991577,0.098718,0.233893,-0.024122,57,280,577,5584
1644168032.795257,-0.008423,0.010986,-0.992737,0.373527,0.356031,-0.130992,45,270,577,5664
1644168032.845991,-0.008911,0.00769,-0.993103,0.281924,0.356031,-0.100458,51,276,569,5648
1644168032.897061,-0.009705,0.008057,-0.99115,0.190321,0.371298,-0.054656,53,283,578,5648
1644168032.987275,-0.009399,0.00885,-0.991638,0.205588,0.539237,-0.237863,51,264,580,5584
1644168033.035666,-0.009399,0.008911,-0.991821,0.08345,0.294962,-0.054656,59,255,577,5648
1644168033.084275,-0.008179,0.011841,-0.992004,0.236122,0.432366,-0.14626,53,274,585,5664
1644168033.132491,-0.011108,0.008972,-0.992004,0.220855,0.386565,-0.024122,48,266,571,5648
1644168033.180822,-0.010376,0.009338,-0.991394,0.159786,0.325496,-0.008855,48,271,583,5664
1644168033.22921,-0.010376,0.010803,-0.989868,0.266656,0.493435,-0.115725,41,266,580,5664
1644168033.277582,-0.010681,0.010376,-0.989502,0.327725,0.462901,-0.100458,46,276,573,5664
1644168033.325989,-0.012146,0.009094,-0.991089,0.312458,0.294962,-0.192061,42,263,577,5648
1644168033.374375,-0.009949,0.008972,-0.992188,0.175053,0.371298,-0.192061,54,270,584,5648
1644168033.422783,-0.009399,0.01001,-0.991455,0.098718,0.401832,0.006412,61,273,570,5600
1644168033.471159,-0.010681,0.009521,-0.990173,0.113985,0.554504,-0.024122,52,268,572,5696
1644168033.519546,-0.010559,0.01001,-0.994324,0.08345,0.447634,-0.085191,45,273,577,5696
1644168033.567938,-0.009766,0.010803,-0.990967,0.144519,0.539237,-0.161527,55,276,583,5632
1644168033.616326,-0.010071,0.011658,-0.992493,0.068183,0.325496,-0.192061,58,279,585,5696
1644168033.664739,-0.008972,0.010742,-0.993042,0.236122,0.447634,-0.237863,46,281,571,5696
1644168033.713134,-0.010986,0.009583,-0.991577,0.297191,0.417099,-0.054656,49,277,575,5664
1644168033.761499,-0.009399,0.011108,-0.993652,0.175053,0.356031,-0.024122,48,271,571,5600
1644168033.809893,-0.010925,0.008362,-0.991394,0.220855,0.386565,-0.024122,45,270,570,5664
1644168033.858371,-0.008728,0.008728,-0.991394,0.175053,0.310229,-0.192061,52,270,572,5648
1644168033.907944,-0.009583,0.01001,-0.99231,0.251389,0.386565,-0.115725,47,277,577,5696
1644168033.958032,-0.011841,0.008118,-0.989258,0.144519,0.401832,-0.039389,60,266,578,5648
1644168034.064158,-0.007568,0.007751,-0.991333,0.297191,0.462901,-0.115725,42,270,575,5664
1644168034.104117,-0.009155,0.007812,-0.992432,0.052916,0.371298,-0.14626,59,277,577,5648
1644168034.148669,-0.009644,0.009094,-0.990906,0.35826,0.310229,-0.176794,53,269,569,5632
1644168034.197036,-0.012329,0.00824,-0.995239,0.052916,0.356031,-0.100458,46,281,576,5664
1644168034.245389,-0.011292,0.010742,-0.989563,0.068183,0.371298,-0.130992,58,266,576,5648
1644168034.293816,-0.011963,0.011963,-0.991272,0.205588,0.356031,-0.115725,58,274,580,5664
1644168034.342234,-0.010742,0.009644,-0.990479,0.251389,0.386565,-0.039389,53,283,566,5648
1644168034.390584,-0.009888,0.009521,-0.993591,0.342992,0.356031,-0.14626,42,270,575,5664
1644168034.438961,-0.009827,0.010376,-0.989929,0.129252,0.294962,-0.192061,52,268,584,5648
1644168034.487368,-0.009338,0.009827,-0.992126,0.190321,0.386565,-0.115725,53,279,585,5648
1644168034.535754,-0.012024,0.010193,-0.99115,0.281924,0.325496,-0.222595,38,270,579,5664
1644168034.584143,-0.009583,0.012573,-0.993225,0.281924,0.279695,-0.161527,61,273,584,5648
1644168034.632584,-0.012817,0.007324,-0.992737,0.037649,0.356031,-0.085191,52,282,577,5632
1644168034.681466,-0.014221,0.008545,-0.992188,0.251389,0.539237,0.036947,51,271,573,5648
1644168034.73199,-0.009766,0.007324,-0.99054,0.312458,0.432366,-0.115725,41,269,583,5648
1644168034.782159,-0.016174,0.009521,-0.991455,0.220855,0.447634,-0.100458,47,265,572,5696
1644168034.82718,-0.010559,0.008728,-0.992371,0.159786,0.447634,-0.024122,43,271,571,5648
1644168034.922918,-0.010071,0.009705,-0.991638,0.251389,0.356031,-0.039389,39,274,578,5648
1644168034.971301,-0.01001,0.010254,-0.993225,0.098718,0.340763,-0.039389,52,275,565,5648
1644168035.019699,-0.009644,0.009399,-0.993896,0.175053,0.417099,-0.054656,45,275,577,5648
1644168035.06868,-0.012085,0.008911,-0.994446,0.251389,0.478168,-0.024122,59,280,579,5648
1644168035.116394,-0.011108,0.007507,-0.993164,0.373527,0.478168,-0.237863,54,280,572,5648
1644168035.16481,-0.009094,0.011353,-0.991272,0.220855,0.371298,-0.054656,42,275,577,5664
1644168035.213232,-0.010498,0.00708,-0.989075,0.159786,0.310229,0.067481,46,286,569,5664
1644168035.261594,-0.009155,0.00531,-0.993408,-0.008153,0.447634,0.082748,54,275,565,5664
1644168035.309981,-0.010742,0.009521,-0.992126,0.312458,0.447634,0.006412,52,287,575,5648
1644168035.358392,-0.009277,0.008301,-0.992188,0.327725,0.401832,-0.161527,53,276,578,5648
1644168035.406778,-0.008301,0.01062,-0.989624,0.251389,0.539237,-0.115725,43,271,576,5648
1644168035.455258,-0.012573,0.009155,-0.992004,0.205588,0.279695,-0.069924,51,274,569,5696
1644168035.503572,-0.011353,0.006653,-0.992004,0.129252,0.294962,-0.100458,57,275,563,5696
1644168035.551955,-0.01062,0.008667,-0.991577,0.220855,0.417099,-0.14626,48,276,578,5600
1644168035.600349,-0.007141,0.010376,-0.992798,0.190321,0.371298,-0.268397,53,271,573,5648
1644168035.648731,-0.011353,0.006348,-0.990784,0.297191,0.356031,-0.192061,47,268,575,5648
1644168035.697132,-0.012756,0.011536,-0.991821,0.205588,0.279695,0.052214,49,270,575,5664
1644168035.745521,-0.009949,0.012207,-0.989136,0.281924,0.523969,-0.192061,46,281,566,5584
1644168035.79397,-0.010437,0.008545,-0.992371,0.144519,0.478168,-0.192061,51,276,587,5648
1644168035.843724,-0.010376,0.008423,-0.991394,0.129252,0.386565,-0.069924,55,269,583,5648
1644168035.894576,-0.009888,0.009766,-0.992004,0.144519,0.310229,-0.100458,41,276,569,5552
1644168035.944247,-0.011963,0.008606,-0.990295,0.297191,0.523969,-0.039389,52,282,572,5696
1644168035.988836,-0.010925,0.007996,-0.991699,0.205588,0.279695,0.006412,42,273,575,5648
1644168036.085451,-0.010742,0.009155,-0.989136,0.388794,0.356031,-0.207328,61,273,575,5696
1644168036.132644,-0.008728,0.009216,-0.990234,0.266656,0.432366,-0.054656,55,274,576,5664
1644168036.181017,-0.007385,0.011292,-0.992249,0.144519,0.386565,-0.115725,45,275,570,5584
1644168036.229411,-0.00946,0.011841,-0.991516,0.159786,0.493435,-0.085191,54,275,579,5664
1644168036.277797,-0.012207,0.008789,-0.991272,-0.038687,0.493435,0.036947,49,270,584,5696
1644168036.326182,-0.012634,0.009888,-0.992249,0.388794,0.447634,-0.100458,52,263,568,5648
1644168036.374637,-0.008301,0.007996,-0.989502,0.449863,0.371298,-0.192061,41,286,571,5648
1644168036.422996,-0.010498,0.009521,-0.992676,0.342992,0.447634,-0.085191,52,273,579,5648
1644168036.471368,-0.007629,0.009705,-0.990784,0.236122,0.356031,-0.14626,52,277,570,5696
1644168036.519768,-0.008545,0.009338,-0.989502,0.266656,0.462901,-0.14626,49,273,570,5648
1644168036.568148,-0.008911,0.010681,-0.990906,0.404061,0.371298,-0.130992,41,271,569,5696
1644168036.616537,-0.011597,0.009827,-0.988892,0.35826,0.24916,-0.085191,54,265,584,5648
1644168036.66492,-0.009399,0.006897,-0.991028,0.175053,0.356031,-0.054656,48,274,576,5696
1644168036.713327,-0.013611,0.00946,-0.992065,0.236122,0.493435,0.113282,48,283,592,5648
1644168036.761724,-0.010681,0.008545,-0.991638,0.266656,0.340763,-0.039389,54,270,577,5648
1644168036.810147,-0.010559,0.009155,-0.990051,0.236122,0.386565,-0.14626,51,279,583,5664
1644168036.85854,-0.008057,0.010071,-0.993591,0.251389,0.462901,-0.161527,43,276,583,5664
1644168036.907784,-0.012329,0.00708,-0.992676,0.312458,0.447634,-0.115725,45,270,582,5648
1644168036.958155,-0.011719,0.008911,-0.993103,0.236122,0.325496,-0.176794,45,265,575,5664
1644168037.063997,-0.01178,0.009155,-0.993408,0.35826,0.447634,0.006412,42,268,589,5648
1644168037.104176,-0.009644,0.007812,-0.991577,0.159786,0.569771,-0.069924,55,279,573,5648
1644168037.148812,-0.013672,0.010803,-0.991699,0.205588,0.310229,-0.024122,51,269,571,5584
1644168037.19722,-0.007935,0.010986,-0.989868,0.266656,0.401832,0.067481,62,276,585,5728
1644168037.245602,-0.010254,0.009094,-0.992615,0.144519,0.432366,-0.14626,48,274,578,5664
1644168037.294012,-0.012024,0.009216,-0.993652,0.159786,0.386565,-0.085191,58,283,576,5712
1644168037.342411,-0.009338,0.008667,-0.993103,0.266656,0.371298,-0.069924,52,277,577,5648
1644168037.390791,-0.010376,0.007324,-0.991455,0.281924,0.279695,-0.115725,59,275,572,5664
1644168037.439185,-0.008667,0.009094,-0.993164,0.297191,0.447634,-0.207328,49,273,575,5664
1644168037.487574,-0.01001,0.01178,-0.991943,0.220855,0.325496,-0.130992,49,275,584,5584
1644168037.535968,-0.009705,0.007507,-0.993042,0.236122,0.340763,0.021679,41,269,578,5664
1644168037.584349,-0.010315,0.014587,-0.987793,0.220855,0.539237,-0.054656,49,268,572,5696
1644168037.63277,-0.010498,0.009094,-0.992554,0.08345,0.356031,-0.161527,52,270,577,5600
1644168037.681183,-0.009766,0.009949,-0.993591,0.220855,0.417099,-0.14626,51,271,578,5648
1644168037.731601,-0.011169,0.009155,-0.993164,0.159786,0.340763,-0.024122,46,269,576,5632
1644168037.78181,-0.010803,0.009949,-0.992188,0.35826,0.356031,-0.069924,58,279,564,5552
1644168037.827751,-0.010681,0.009827,-0.992432,0.190321,0.401832,-0.054656,46,269,571,5696
1644168037.923155,-0.011841,0.010925,-0.993652,0.236122,0.371298,-0.161527,42,277,582,5632
1644168037.971508,-0.008972,0.011353,-0.990784,0.159786,0.539237,-0.024122,49,263,563,5584
1644168038.019911,-0.012207,0.008789,-0.991516,0.297191,0.401832,-0.100458,51,266,580,5648
1644168038.068362,-0.009155,0.005676,-0.993225,0.266656,0.447634,-0.207328,45,277,570,5600
1644168038.116649,-0.009949,0.010437,-0.990906,0.190321,0.447634,-0.008855,48,269,573,5664
1644168038.165123,-0.009338,0.00946,-0.992493,0.266656,0.356031,-0.222595,55,274,580,5648
1644168038.213432,-0.011597,0.011169,-0.990601,0.281924,0.401832,-0.100458,46,271,571,5664
1644168038.261827,-0.013062,0.009094,-0.990967,0.190321,0.493435,-0.024122,49,275,582,5648
1644168038.31019,-0.009949,0.008789,-0.989014,0.129252,0.508702,-0.115725,47,270,572,5664
1644168038.358603,-0.010925,0.009094,-0.991455,0.251389,0.356031,-0.14626,53,276,573,5552
1644168038.406977,-0.01062,0.007446,-0.991577,0.342992,0.508702,-0.085191,49,277,568,5648
1644168038.45538,-0.011047,0.008911,-0.988159,0.251389,0.386565,-0.039389,55,271,576,5648
1644168038.503798,-0.012451,0.011108,-0.991882,0.236122,0.523969,-0.115725,45,280,568,5584
1644168038.552246,-0.010681,0.005188,-0.99231,0.251389,0.493435,-0.14626,51,276,580,5648
1644168038.600556,-0.011169,0.01001,-0.990784,0.35826,0.294962,-0.008855,45,273,577,5664
1644168038.648942,-0.009827,0.009033,-0.993958,0.113985,0.356031,-0.085191,45,263,579,5664
1644168038.697345,-0.010559,0.010559,-0.990417,0.175053,0.401832,-0.14626,55,264,576,5664
1644168038.745718,-0.010498,0.00769,-0.993896,0.220855,0.401832,-0.069924,42,268,577,5632
1644168038.794108,-0.011292,0.009949,-0.98999,0.281924,0.462901,-0.115725,55,266,566,5648
1644168038.842794,-0.012268,0.008118,-0.992249,0.449863,0.432366,0.006412,46,271,583,5664
1644168038.894465,-0.014343,0.009338,-0.990662,0.098718,0.462901,-0.192061,51,269,583,5664
1644168038.944512,-0.009338,0.008728,-0.991394,0.419328,0.340763,-0.115725,39,266,571,5664
1644168038.989042,-0.010376,0.010071,-0.989868,0.266656,0.356031,-0.176794,48,269,571,5584
1644168039.085219,-0.009827,0.010437,-0.992065,0.297191,0.325496,0.036947,39,281,580,5584
1644168039.132917,-0.009399,0.010681,-0.989441,0.113985,0.478168,-0.192061,39,271,569,5664
1644168039.18124,-0.010681,0.006958,-0.992065,0.190321,0.493435,-0.207328,46,266,576,5648
1644168039.229624,-0.007629,0.010864,-0.992737,0.251389,0.417099,-0.115725,55,269,573,5696
1644168039.277997,-0.00885,0.009644,-0.992432,0.251389,0.478168,-0.176794,47,265,568,5664
1644168039.32641,-0.009033,0.00946,-0.991882,0.220855,0.462901,-0.176794,48,271,571,5664
1644168039.37481,-0.008423,0.007812,-0.992126,0.251389,0.478168,-0.222595,49,277,575,5600
1644168039.423209,-0.013,0.009399,-0.99054,0.251389,0.508702,-0.085191,49,263,579,5664
1644168039.471576,-0.009644,0.008362,-0.992004,0.251389,0.432366,-0.161527,52,275,568,5664
1644168039.519985,-0.010437,0.009338,-0.991882,0.190321,0.600305,-0.024122,60,283,573,5552
1644168039.56837,-0.008179,0.011292,-0.995544,0.113985,0.432366,0.006412,47,280,579,5664
1644168039.616762,-0.009583,0.011414,-0.9953,0.35826,0.340763,-0.176794,45,273,570,5696
1644168039.665238,-0.012207,0.007996,-0.992493,0.236122,0.340763,0.021679,59,268,565,5648
1644168039.713544,-0.010132,0.008789,-0.993469,0.251389,0.356031,-0.054656,48,271,566,5648
1644168039.761899,-0.011475,0.011841,-0.990479,0.281924,0.432366,-0.176794,49,270,577,5664
1644168039.810313,-0.011902,0.010376,-0.993652,0.220855,0.417099,-0.054656,59,277,586,5648
1644168039.858745,-0.009216,0.008057,-0.98999,0.342992,0.386565,-0.115725,57,268,575,5664
1644168039.907678,-0.011353,0.00885,-0.991028,0.312458,0.233893,-0.283664,46,271,583,5696
1644168039.955821,-0.011169,0.00769,-0.99176,0.113985,0.371298,-0.161527,39,269,580,5664
1644168040.061341,-0.010193,0.009827,-0.993225,0.205588,0.432366,-0.100458,52,273,579,5696
1644168040.103084,-0.009155,0.011658,-0.993286,0.175053,0.386565,-0.130992,52,270,565,5696
1644168040.149038,-0.009766,0.011902,-0.992371,0.159786,0.493435,-0.222595,55,269,578,5696
1644168040.197436,-0.007507,0.007141,-0.991272,0.190321,0.554504,-0.100458,47,280,577,5696
1644168040.245805,-0.009521,0.006042,-0.992676,0.175053,0.569771,-0.207328,51,271,566,5632
1644168040.294223,-0.011108,0.01123,-0.994568,0.510931,0.554504,-0.054656,49,277,586,5712
1644168040.342614,-0.009583,0.009216,-0.99054,0.190321,0.569771,-0.283664,53,279,578,5584
1644168040.39101,-0.008301,0.008545,-0.991638,0.388794,0.264427,-0.176794,57,290,579,5584
1644168040.439401,-0.008728,0.007324,-0.990845,0.404061,0.386565,-0.176794,45,280,572,5696
1644168040.487778,-0.007751,0.008911,-0.99231,0.144519,0.340763,-0.192061,47,275,577,5696
1644168040.536176,-0.012634,0.007385,-0.992859,0.220855,0.325496,-0.054656,55,266,578,5648
1644168040.584612,-0.012573,0.006897,-0.988647,0.251389,0.371298,-0.069924,55,276,573,5600
1644168040.632974,-0.012817,0.007446,-0.992432,0.236122,0.447634,-0.100458,53,274,578,5664
1644168040.681337,-0.010376,0.006653,-0.992981,0.159786,0.356031,0.006412,51,269,578,5664
1644168040.729763,-0.010864,0.009766,-0.993164,0.236122,0.325496,-0.085191,52,265,589,5664
1644168040.779737,-0.008728,0.009949,-0.993591,0.08345,0.294962,-0.192061,64,270,584,5664
1644168040.829804,-0.008972,0.011047,-0.99408,0.327725,0.340763,-0.207328,57,260,575,5648
1644168040.880491,-0.010254,0.007141,-0.990417,0.251389,0.417099,-0.054656,58,274,571,5600
1644168040.971728,-0.010681,0.009216,-0.991028,0.236122,0.24916,-0.237863,49,268,563,5664
1644168041.020118,-0.010559,0.009033,-0.991089,0.113985,0.340763,-0.085191,52,282,572,5664
1644168041.068676,-0.010437,0.009277,-0.990723,0.098718,0.371298,-0.024122,55,271,578,5760
1644168041.116814,-0.01062,0.010071,-0.990967,0.175053,0.493435,-0.085191,57,282,570,5648
1644168041.165404,-0.010376,0.009155,-0.990662,0.220855,0.417099,-0.069924,53,269,576,5648
1644168041.213636,-0.010071,0.00708,-0.99054,0.068183,0.310229,-0.054656,57,268,579,5664
1644168041.262036,-0.012085,0.010559,-0.989075,0.052916,0.417099,-0.100458,48,269,585,5600
1644168041.3104,-0.00946,0.008789,-0.990112,0.175053,0.371298,-0.161527,35,273,577,5648
1644168041.358798,-0.009521,0.011902,-0.991211,0.190321,0.493435,0.021679,54,280,565,5696
1644168041.407205,-0.010193,0.01178,-0.992004,0.388794,0.401832,-0.024122,48,274,566,5648
1644168041.455591,-0.010437,0.006287,-0.990295,0.190321,0.401832,-0.100458,51,271,573,5648
1644168041.504009,-0.010925,0.008423,-0.993652,0.281924,0.371298,-0.222595,53,281,566,5648
1644168041.552385,-0.009277,0.005981,-0.991028,0.175053,0.340763,-0.115725,45,273,575,5664
1644168041.600764,-0.007874,0.009094,-0.990417,0.236122,0.371298,-0.207328,46,269,562,5600
1644168041.649152,-0.012695,0.012207,-0.989929,0.220855,0.371298,-0.069924,58,276,576,5648
1644168041.697536,-0.010742,0.006531,-0.994324,0.236122,0.386565,-0.039389,48,274,576,5664
1644168041.745926,-0.011108,0.012329,-0.991943,0.342992,0.386565,-0.207328,55,271,580,5648
1644168041.79441,-0.010315,0.009521,-0.991089,0.312458,0.539237,-0.176794,45,285,577,5600
1644168041.842796,-0.008057,0.008545,-0.988892,0.297191,0.447634,-0.069924,51,271,571,5584
1644168041.893117,-0.012817,0.010376,-0.991272,0.175053,0.462901,0.021679,52,270,572,5648
1644168041.943518,-0.009399,0.00885,-0.989929,0.144519,0.432366,-0.115725,52,273,570,5664
1644168041.993438,-0.009216,0.01178,-0.992371,0.404061,0.325496,-0.130992,52,263,568,5664
1644168042.038121,-0.011047,0.01001,-0.992981,0.144519,0.432366,-0.085191,49,270,568,5600
1644168042.133124,-0.008972,0.011597,-0.992798,0.312458,0.294962,0.006412,51,269,580,5648
1644168042.181428,-0.009216,0.011658,-0.989014,0.220855,0.401832,0.036947,43,271,562,5584
1644168042.229827,-0.011047,0.009155,-0.990723,0.297191,0.386565,-0.268397,47,273,575,5600
1644168042.278212,-0.012878,0.008606,-0.98999,0.251389,0.478168,-0.130992,51,276,585,5648
1644168042.326616,-0.007629,0.008362,-0.992188,0.281924,0.462901,-0.100458,64,268,568,5600
1644168042.375049,-0.008423,0.009155,-0.993774,0.129252,0.356031,-0.008855,51,276,585,5664
1644168042.423407,-0.009827,0.008911,-0.993896,0.190321,0.264427,-0.054656,53,266,569,5664
1644168042.4718,-0.011414,0.008728,-0.99115,0.190321,0.340763,-0.14626,49,275,575,5648
1644168042.520193,-0.009888,0.010803,-0.991272,0.08345,0.294962,-0.024122,39,271,569,5648
1644168042.568576,-0.00946,0.010254,-0.992371,0.159786,0.371298,-0.161527,42,270,568,5584
1644168042.616965,-0.010925,0.010986,-0.989075,0.113985,0.508702,-0.130992,52,265,584,5648
1644168042.665349,-0.00946,0.010376,-0.991272,0.175053,0.417099,-0.008855,51,269,576,5696
1644168042.713753,-0.010498,0.009705,-0.991516,0.144519,0.478168,-0.222595,52,275,570,5600
1644168042.762213,-0.008301,0.01001,-0.992432,0.312458,0.462901,-0.100458,51,269,569,5696
1644168042.810565,-0.01239,0.010803,-0.99231,0.297191,0.386565,-0.085191,49,280,582,5648
1644168042.858954,-0.009583,0.008972,-0.991699,0.312458,0.386565,-0.024122,45,273,575,5632
1644168042.907323,-0.010681,0.010071,-0.98938,0.190321,0.569771,-0.207328,55,276,585,5648
1644168042.955736,-0.010132,0.010803,-0.992737,0.373527,0.462901,-0.100458,42,275,577,5632
1644168043.004139,-0.007202,0.008911,-0.994385,0.205588,0.462901,0.098015,47,270,563,5632
1644168043.071216,-0.010193,0.008423,-0.989258,0.312458,0.386565,-0.069924,51,274,585,5728
1644168043.108969,-0.008972,0.009033,-0.990967,0.113985,0.523969,-0.100458,58,266,566,5696
1644168043.153304,-0.00769,0.012573,-0.993225,0.113985,0.356031,0.021679,47,277,572,5664
1644168043.198243,-0.011658,0.006897,-0.988647,0.281924,0.401832,0.036947,46,271,569,5664
1644168043.294442,-0.009521,0.011169,-0.991882,0.312458,0.340763,-0.14626,52,275,565,5584
1644168043.342846,-0.007263,0.010376,-0.989319,0.35826,0.340763,0.006412,51,269,578,5648
1644168043.391205,-0.010315,0.013367,-0.992615,0.297191,0.462901,-0.100458,51,266,573,5696
1644168043.439619,-0.010742,0.012329,-0.992371,0.327725,0.356031,-0.024122,43,276,576,5600
1644168043.487986,-0.01001,0.008545,-0.991638,0.08345,0.417099,-0.039389,49,265,570,5664
1644168043.536375,-0.008728,0.009949,-0.991089,0.281924,0.493435,-0.130992,39,279,578,5648
1644168043.584783,-0.00592,0.009521,-0.989746,0.342992,0.340763,-0.069924,49,277,577,5600
1644168043.63318,-0.009583,0.011047,-0.989868,0.266656,0.325496,-0.085191,46,274,576,5696
1644168043.68155,-0.009827,0.009277,-0.989319,0.297191,0.432366,-0.069924,46,269,576,5728
1644168043.729946,-0.008545,0.00824,-0.993164,0.281924,0.386565,-0.085191,51,276,578,5648
1644168043.778337,-0.007996,0.011536,-0.990295,0.175053,0.401832,-0.069924,51,266,580,5664
1644168043.826739,-0.008057,0.010681,-0.990051,0.220855,0.539237,-0.222595,48,271,573,5664
1644168043.875322,-0.008423,0.011108,-0.990601,0.312458,0.417099,-0.039389,46,274,578,5696
1644168043.923537,-0.009705,0.010925,-0.992432,0.175053,0.523969,-0.130992,52,273,577,5600
1644168043.971939,-0.008789,0.009216,-0.991638,0.342992,0.401832,-0.222595,57,273,577,5648
1644168044.020335,-0.009277,0.011841,-0.988892,0.205588,0.340763,-0.161527,54,275,582,5664
1644168044.081206,-0.010193,0.009888,-0.99054,0.144519,0.386565,0.036947,41,262,578,5648
1644168044.119089,-0.009644,0.008972,-0.988831,0.266656,0.325496,-0.085191,60,279,569,5664
1644168044.167865,-0.009216,0.006531,-0.988831,0.266656,0.371298,-0.100458,48,269,576,5664
1644168044.217867,-0.008911,0.009705,-0.990967,0.251389,0.447634,0.052214,48,271,580,5648
1644168044.263063,-0.011169,0.008972,-0.992737,0.175053,0.523969,-0.069924,59,273,577,5648
1644168044.359016,-0.008301,0.012756,-0.990662,0.175053,0.325496,-0.161527,51,281,578,5696
1644168044.407392,-0.007629,0.008179,-0.991516,0.236122,0.340763,-0.054656,49,273,577,5664
1644168044.455785,-0.009766,0.009399,-0.990601,0.220855,0.417099,-0.069924,59,275,582,5600
1644168044.504206,-0.008545,0.011414,-0.992981,0.08345,0.356031,-0.115725,48,274,569,5664
1644168044.552603,-0.011108,0.010132,-0.991516,0.312458,0.401832,-0.100458,47,275,575,5664
1644168044.600963,-0.011108,0.012939,-0.991943,0.266656,0.294962,-0.115725,48,279,566,5648
1644168044.649359,-0.010437,0.011841,-0.992432,0.098718,0.325496,-0.222595,52,275,572,5600
1644168044.697762,-0.010803,0.013245,-0.992188,0.08345,0.325496,-0.115725,45,280,572,5632
1644168044.746131,-0.010864,0.009094,-0.992126,0.159786,0.554504,-0.192061,52,275,577,5648
1644168044.794549,-0.010315,0.007996,-0.991394,0.388794,0.462901,-0.100458,55,269,573,5664
1644168044.842975,-0.010315,0.009216,-0.98999,0.266656,0.432366,-0.054656,57,277,572,5664
1644168044.891358,-0.01001,0.007446,-0.991699,0.327725,0.401832,-0.100458,45,275,568,5648
1644168044.939754,-0.00885,0.009888,-0.989502,0.251389,0.340763,-0.14626,54,275,577,5648
1644168044.988145,-0.010437,0.008362,-0.990845,0.175053,0.371298,-0.130992,59,275,558,5584
1644168045.036533,-0.008789,0.00946,-0.99292,0.342992,0.432366,0.052214,43,276,585,5584
1644168045.085061,-0.012024,0.010498,-0.991089,0.220855,0.264427,-0.024122,52,277,577,5664
1644168045.133246,-0.010071,0.010864,-0.990601,0.236122,0.539237,-0.008855,58,276,573,5600
1644168045.181657,-0.008789,0.011169,-0.993286,0.281924,0.417099,-0.237863,51,269,578,5664
1644168045.230069,-0.013062,0.010986,-0.990479,0.251389,0.539237,-0.14626,47,270,575,5648
1644168045.278483,-0.008545,0.010864,-0.992249,0.220855,0.417099,-0.085191,57,270,572,5696
1644168045.328883,-0.010376,0.010742,-0.991943,0.236122,0.462901,-0.039389,49,270,575,5664
1644168045.37903,-0.008606,0.010071,-0.993103,0.327725,0.478168,-0.237863,51,274,580,5648
1644168045.424048,-0.012085,0.01123,-0.991821,0.266656,0.447634,-0.054656,46,271,566,5648
1644168045.520399,-0.008606,0.009338,-0.991821,0.220855,0.264427,-0.207328,51,274,576,5664
1644168045.568753,-0.012329,0.009338,-0.988708,0.205588,0.493435,-0.039389,52,277,572,5712
1644168045.617154,-0.010437,0.00885,-0.990601,0.205588,0.508702,-0.085191,53,266,576,5648
1644168045.66557,-0.009583,0.008545,-0.989929,0.205588,0.523969,-0.100458,46,264,580,5648
1644168045.713962,-0.010376,0.011963,-0.991028,0.159786,0.310229,-0.100458,51,279,564,5648
1644168045.762345,-0.010681,0.010864,-0.99176,0.266656,0.401832,-0.008855,42,270,577,5648
1644168045.810737,-0.011292,0.011597,-0.9953,0.327725,0.417099,-0.130992,41,279,578,5664
1644168045.859186,-0.012695,0.008667,-0.989319,0.205588,0.340763,-0.130992,46,266,573,5648
1644168045.907532,-0.01062,0.009338,-0.993774,0.129252,0.371298,-0.115725,58,269,571,5584
1644168045.955931,-0.010742,0.010254,-0.98999,0.251389,0.447634,-0.024122,52,268,586,5664
1644168046.004355,-0.011597,0.010681,-0.993225,0.297191,0.432366,0.006412,53,274,569,5600
1644168046.058806,-0.009705,0.008972,-0.990112,0.312458,0.432366,-0.176794,53,283,585,5600
1644168046.101159,-0.011475,0.009521,-0.992737,0.236122,0.417099,0.006412,48,279,576,5664
1644168046.149484,-0.005737,0.009338,-0.991089,0.144519,0.325496,-0.069924,49,275,582,5648
1644168046.197855,-0.010742,0.00885,-0.991577,0.419328,0.401832,-0.039389,51,274,578,5600
1644168046.246256,-0.00769,0.009399,-0.991943,0.190321,0.401832,-0.085191,54,270,577,5664
1644168046.294647,-0.008118,0.011292,-0.992126,0.236122,0.539237,-0.054656,45,275,577,5648
1644168046.343054,-0.007507,0.008911,-0.993835,0.098718,0.386565,0.036947,48,264,585,5648
1644168046.391391,-0.009155,0.008606,-0.991516,0.251389,0.371298,-0.054656,52,270,582,5600
1644168046.439861,-0.011536,0.00592,-0.992432,0.312458,0.325496,-0.024122,55,279,573,5648
1644168046.49026,-0.009766,0.009521,-0.991699,0.220855,0.417099,-0.039389,58,281,573,5648
1644168046.540371,-0.01062,0.010559,-0.995117,0.220855,0.310229,-0.14626,48,271,573,5648
1644168046.585492,-0.012817,0.007202,-0.991577,0.251389,0.325496,-0.069924,52,268,577,5648
1644168046.681764,-0.007324,0.008118,-0.992676,0.220855,0.462901,-0.176794,57,273,565,5648
1644168046.730147,-0.00946,0.009399,-0.993408,0.236122,0.447634,-0.130992,46,279,569,5664
1644168046.77855,-0.009216,0.010864,-0.990662,0.266656,0.340763,0.052214,42,270,572,5648
1644168046.826924,-0.011536,0.010986,-0.991089,0.251389,0.447634,-0.039389,46,276,578,5664
1644168046.875371,-0.010376,0.00885,-0.99115,0.098718,0.432366,0.021679,54,273,584,5696
1644168046.923764,-0.009705,0.009766,-0.992676,0.281924,0.386565,0.021679,52,273,572,5664
1644168046.972167,-0.009888,0.00885,-0.991699,0.190321,0.554504,-0.130992,47,270,577,5664
1644168047.020509,-0.010193,0.009338,-0.990662,0.144519,0.508702,-0.085191,51,279,562,5600
1644168047.070949,-0.010742,0.006165,-0.991699,0.144519,0.356031,-0.054656,53,271,576,5648
1644168047.117352,-0.007568,0.008301,-0.991699,0.144519,0.508702,-0.069924,55,279,576,5664
1644168047.165677,-0.009583,0.009033,-0.992981,0.205588,0.371298,-0.25313,55,271,583,5696
1644168047.214082,-0.009277,0.007812,-0.993103,0.159786,0.417099,-0.14626,59,277,579,5632
1644168047.26245,-0.008728,0.007629,-0.990967,0.144519,0.539237,-0.054656,49,275,568,5648
1644168047.310837,-0.009644,0.008728,-0.990051,0.129252,0.401832,-0.069924,52,273,579,5664
1644168047.359234,-0.01239,0.010437,-0.991577,0.220855,0.432366,-0.192061,51,274,576,5648
1644168047.407601,-0.007751,0.008545,-0.992371,0.251389,0.462901,-0.130992,49,277,577,5664
1644168047.456016,-0.010803,0.010376,-0.990845,0.098718,0.478168,-0.069924,59,270,586,5712
1644168047.504372,-0.01062,0.007446,-0.990417,0.251389,0.417099,0.006412,52,282,575,5648
1644168047.55313,-0.010986,0.008789,-0.990356,0.251389,0.478168,0.067481,59,268,572,5648
1644168047.602014,-0.012085,0.010681,-0.991699,0.098718,0.371298,-0.085191,47,265,577,5536
1644168047.652556,-0.01123,0.010925,-0.988647,0.327725,0.401832,-0.14626,49,273,572,5584
1644168047.702876,-0.00824,0.012817,-0.991455,0.098718,0.417099,-0.024122,47,273,582,5664
1644168047.747705,-0.009827,0.008545,-0.990723,0.251389,0.569771,-0.100458,60,271,576,5664
1644168047.843152,-0.009338,0.009888,-0.990112,0.266656,0.447634,-0.100458,51,271,576,5648
1644168047.891569,-0.007019,0.008972,-0.992554,0.175053,0.294962,0.021679,55,283,569,5696
1644168047.939956,-0.01178,0.011047,-0.992249,0.144519,0.447634,-0.283664,45,275,572,5648
1644168047.988343,-0.00946,0.009888,-0.991211,0.297191,0.508702,-0.069924,61,275,572,5648
1644168048.036727,-0.009766,0.008606,-0.989929,0.251389,0.294962,-0.176794,47,275,579,5648
1644168048.08529,-0.008972,0.007263,-0.99292,-0.038687,0.401832,-0.115725,49,273,582,5648
1644168048.133515,-0.007935,0.008972,-0.992249,0.312458,0.371298,0.021679,45,273,577,5648
1644168048.181888,-0.008423,0.00885,-0.992065,0.373527,0.508702,-0.222595,52,275,568,5648
1644168048.230262,-0.00885,0.009277,-0.992676,0.297191,0.447634,-0.069924,48,266,576,5600
1644168048.278652,-0.011108,0.012695,-0.99231,0.159786,0.340763,-0.008855,58,266,580,5664
1644168048.327049,-0.011963,0.010864,-0.990173,0.342992,0.233893,-0.100458,51,279,569,5600
1644168048.375447,-0.010498,0.010986,-0.99054,0.190321,0.539237,-0.161527,41,279,578,5584
1644168048.423804,-0.013855,0.006775,-0.99054,0.175053,0.478168,0.021679,52,277,568,5600
1644168048.472228,-0.012146,0.01062,-0.991211,0.190321,0.356031,-0.115725,46,274,580,5664
1644168048.520594,-0.009399,0.007202,-0.990723,0.327725,0.325496,-0.039389,55,276,578,5648
1644168048.569009,-0.010132,0.010132,-0.990295,0.098718,0.386565,-0.207328,51,276,573,5584
1644168048.617883,-0.009949,0.013245,-0.990845,0.236122,0.432366,-0.130992,54,275,563,5664
1644168048.668641,-0.010498,0.01239,-0.988403,0.251389,0.523969,0.052214,58,269,571,5696
1644168048.718512,-0.009644,0.008057,-0.993103,0.35826,0.325496,-0.115725,57,265,570,5664
1644168048.763488,-0.008789,0.010864,-0.990234,0.312458,0.401832,-0.222595,53,266,564,5664
1644168048.859329,-0.011108,0.008911,-0.991882,0.46513,0.417099,-0.115725,47,290,572,5696
1644168048.907764,-0.010315,0.010071,-0.989929,0.342992,0.264427,-0.100458,40,273,577,5648
1644168048.95614,-0.011536,0.009705,-0.992126,0.220855,0.356031,-0.069924,57,275,575,5648
1644168049.00453,-0.010315,0.010376,-0.992859,0.113985,0.310229,-0.115725,53,283,569,5648
1644168049.06009,-0.00824,0.009155,-0.99115,0.190321,0.462901,-0.008855,51,274,566,5648
1644168049.101312,-0.010254,0.01062,-0.99231,0.098718,0.203359,-0.054656,49,268,577,5696
1644168049.149714,-0.011719,0.007507,-0.991821,0.281924,0.493435,-0.130992,45,280,570,5648
1644168049.198153,-0.011047,0.008911,-0.993042,0.144519,0.432366,-0.115725,43,281,576,5664
1644168049.246436,-0.008972,0.008179,-0.992554,0.281924,0.523969,-0.161527,51,274,566,5664
1644168049.294863,-0.011169,0.008118,-0.991882,0.08345,0.386565,-0.085191,43,264,566,5664
1644168049.343237,-0.011169,0.005859,-0.991821,0.297191,0.294962,-0.054656,42,275,577,5648
1644168049.391649,-0.012512,0.007874,-0.991394,0.190321,0.432366,-0.222595,49,275,572,5648
1644168049.440028,-0.011108,0.01178,-0.994995,0.251389,0.462901,-0.069924,51,274,569,5648
1644168049.488416,-0.010681,0.008301,-0.993408,0.342992,0.356031,-0.14626,43,276,571,5664
1644168049.536776,-0.009705,0.008179,-0.990479,0.052916,0.264427,-0.176794,52,280,582,5600
1644168049.585197,-0.010559,0.010193,-0.99231,0.037649,0.493435,-0.008855,51,281,569,5632
1644168049.633589,-0.013733,0.010437,-0.989319,0.236122,0.554504,-0.008855,48,269,576,5696
1644168049.681998,-0.009888,0.00824,-0.989807,0.113985,0.310229,-0.192061,40,280,563,5664
1644168049.730362,-0.008728,0.011536,-0.990906,0.190321,0.508702,-0.085191,54,273,575,5648
1644168049.779072,-0.009338,0.010559,-0.99176,0.251389,0.310229,-0.069924,61,273,577,5648
1644168049.829396,-0.010132,0.010193,-0.990051,0.190321,0.386565,-0.176794,49,282,565,5648
1644168049.880276,-0.011169,0.009094,-0.994385,0.404061,0.569771,-0.130992,47,275,572,5584
1644168049.925313,-0.010925,0.009766,-0.991882,0.266656,0.478168,-0.100458,46,269,580,5696
1644168050.020735,-0.010864,0.013489,-0.992188,0.266656,0.401832,-0.100458,48,276,576,5712
1644168050.069254,-0.007629,0.009827,-0.992615,0.175053,0.279695,-0.100458,47,277,586,5648
1644168050.117486,-0.00885,0.008423,-0.992065,0.297191,0.310229,-0.085191,46,269,585,5648
1644168050.165871,-0.010132,0.009094,-0.993164,0.312458,0.310229,-0.054656,43,279,576,5696
1644168050.214276,-0.011169,0.007324,-0.991272,0.266656,0.462901,0.036947,47,268,582,5632
1644168050.262649,-0.010864,0.008606,-0.99115,0.266656,0.356031,-0.024122,54,277,570,5648
1644168050.311058,-0.010803,0.011047,-0.991638,0.098718,0.447634,-0.008855,49,273,575,5648
1644168050.359444,-0.009277,0.009949,-0.993042,0.220855,0.493435,-0.100458,46,276,573,5648
1644168050.407836,-0.011841,0.010559,-0.992126,0.266656,0.325496,-0.130992,48,274,569,5648
1644168050.456199,-0.009094,0.009277,-0.993164,0.205588,0.279695,-0.039389,45,270,565,5648
1644168050.504705,-0.013,0.007874,-0.990479,0.266656,0.401832,-0.024122,49,273,570,5664
1644168050.553024,-0.010559,0.009338,-0.99292,0.190321,0.24916,-0.130992,55,286,573,5648
1644168050.601364,-0.009094,0.008789,-0.990906,0.251389,0.386565,-0.14626,42,273,577,5632
1644168050.649786,-0.010132,0.011963,-0.989929,0.236122,0.371298,-0.192061,55,271,580,5664
1644168050.698181,-0.012085,0.011047,-0.991394,0.35826,0.325496,-0.085191,41,276,566,5648
1644168050.746571,-0.012268,0.009277,-0.98877,0.297191,0.493435,-0.008855,47,273,572,5664
1644168050.79505,-0.009888,0.010742,-0.991638,0.312458,0.340763,-0.25313,57,273,579,5648
1644168050.84341,-0.011841,0.010742,-0.992859,0.312458,0.401832,-0.069924,57,277,577,5664
1644168050.891981,-0.011597,0.008545,-0.993286,0.449863,0.386565,-0.054656,51,274,578,5648
1644168050.942228,-0.010376,0.007019,-0.993164,0.312458,0.493435,-0.115725,45,275,565,5696
1644168050.992657,-0.009705,0.008911,-0.991699,0.159786,0.523969,0.006412,45,277,570,5696
1644168051.051508,-0.010681,0.009583,-0.98999,0.236122,0.462901,-0.054656,47,270,579,5632
1644168051.133693,-0.010803,0.007568,-0.989258,0.266656,0.24916,-0.25313,53,276,573,5632
1644168051.182076,-0.00885,0.009094,-0.993164,0.35826,0.447634,-0.176794,49,280,572,5648
1644168051.230442,-0.011719,0.010498,-0.989136,0.159786,0.356031,-0.069924,48,276,576,5648
1644168051.278863,-0.009949,0.010193,-0.992493,0.281924,0.340763,-0.085191,66,277,568,5712
1644168051.327247,-0.010864,0.010254,-0.991943,0.404061,0.462901,-0.054656,45,280,563,5664
1644168051.375633,-0.009949,0.00885,-0.989502,0.068183,0.447634,-0.115725,58,281,566,5696
1644168051.42403,-0.010742,0.010193,-0.990356,0.190321,0.401832,-0.222595,46,279,573,5664
1644168051.472428,-0.009644,0.007874,-0.993286,0.190321,0.386565,-0.100458,58,279,578,5696
1644168051.520814,-0.009521,0.011963,-0.995605,0.236122,0.478168,-0.14626,43,269,571,5664
1644168051.569177,-0.011108,0.007507,-0.993103,0.236122,0.432366,-0.024122,51,276,566,5664
1644168051.617604,-0.008362,0.010132,-0.992188,0.251389,0.386565,-0.039389,52,268,572,5632
1644168051.665987,-0.012024,0.008484,-0.991882,0.175053,0.493435,-0.207328,55,269,566,5664
1644168051.71439,-0.01001,0.007935,-0.993103,0.068183,0.188092,-0.024122,51,279,573,5536
1644168051.762769,-0.010071,0.009277,-0.990051,0.236122,0.493435,-0.192061,54,273,579,5728
1644168051.811198,-0.010681,0.009888,-0.992249,0.175053,0.356031,-0.14626,55,259,573,5648
1644168051.8596,-0.00946,0.010681,-0.991272,0.129252,0.401832,-0.085191,55,271,569,5648
1644168051.907973,-0.009399,0.009521,-0.989746,0.327725,0.401832,-0.100458,54,273,579,5648
1644168051.956521,-0.010803,0.008362,-0.991577,0.312458,0.508702,-0.176794,43,276,578,5648
1644168052.004784,-0.007019,0.008911,-0.989868,0.297191,0.462901,0.098015,40,270,568,5696
1644168052.101467,-0.010681,0.010986,-0.989441,0.35826,0.447634,-0.085191,46,274,590,5696
1644168052.149879,-0.009583,0.008057,-0.988403,0.312458,0.386565,-0.054656,46,271,576,5632
1644168052.198278,-0.00885,0.009888,-0.991211,0.220855,0.401832,-0.039389,48,276,576,5648
1644168052.246658,-0.010254,0.010071,-0.993286,0.342992,0.432366,-0.192061,53,262,576,5648
1644168052.295156,-0.011658,0.009094,-0.989807,0.220855,0.462901,-0.237863,52,275,577,5728
1644168052.343459,-0.005981,0.011536,-0.990601,0.220855,0.356031,0.006412,47,263,565,5648
1644168052.391836,-0.009094,0.012146,-0.989624,0.312458,0.432366,-0.14626,52,275,582,5648
1644168052.440225,-0.010132,0.011108,-0.990845,0.113985,0.264427,-0.115725,42,265,575,5584
1644168052.48859,-0.009277,0.008423,-0.991821,0.281924,0.539237,-0.024122,45,275,579,5648
1644168052.537019,-0.009521,0.010193,-0.99115,0.098718,0.310229,-0.069924,45,275,575,5648
1644168052.585411,-0.01239,0.01001,-0.993835,0.373527,0.340763,0.036947,49,265,570,5648
1644168052.633799,-0.009888,0.012756,-0.992615,0.175053,0.340763,-0.130992,51,269,576,5664
1644168052.682201,-0.008728,0.010864,-0.992737,0.220855,0.386565,-0.14626,52,282,572,5664
1644168052.730574,-0.008362,0.01062,-0.990967,0.220855,0.310229,-0.161527,49,268,577,5664
1644168052.779289,-0.008423,0.009583,-0.990601,0.266656,0.432366,-0.130992,49,268,579,5696
1644168052.829167,-0.011353,0.009827,-0.988342,0.113985,0.264427,-0.100458,53,283,571,5648
1644168052.87937,-0.008606,0.007324,-0.987305,0.342992,0.386565,0.036947,55,279,576,5648
1644168052.92955,-0.010498,0.008606,-0.99115,0.236122,0.401832,-0.008855,53,262,569,5648
1644168053.020947,-0.00885,0.009033,-0.992676,0.327725,0.508702,-0.115725,53,271,573,5648
1644168053.069429,-0.012085,0.013672,-0.990234,0.190321,0.539237,-0.130992,52,270,575,5664
1644168053.117713,-0.007507,0.01062,-0.991455,0.404061,0.325496,-0.054656,57,277,575,5600
1644168053.166092,-0.007935,0.011108,-0.99176,0.220855,0.478168,-0.115725,55,264,576,5648
1644168053.214497,-0.010376,0.010803,-0.991272,0.312458,0.493435,-0.085191,52,275,572,5664
1644168053.262864,-0.010803,0.007385,-0.991638,0.281924,0.356031,-0.161527,47,280,563,5664
1644168053.311274,-0.007629,0.007263,-0.992004,0.175053,0.417099,-0.14626,55,274,569,5584
1644168053.359632,-0.011108,0.007629,-0.99231,0.266656,0.24916,-0.25313,52,268,584,5632
1644168053.408048,-0.012268,0.008484,-0.991699,0.251389,0.447634,-0.069924,52,275,565,5696
1644168053.45644,-0.008667,0.00824,-0.992126,0.205588,0.554504,-0.085191,52,273,582,5600
1644168053.50485,-0.009521,0.01001,-0.991516,0.236122,0.539237,0.082748,59,275,572,5728
1644168053.55323,-0.010925,0.009766,-0.992065,0.35826,0.493435,-0.069924,47,287,572,5696
1644168053.601607,-0.008362,0.010376,-0.990234,0.159786,0.554504,-0.161527,52,268,572,5664
1644168053.650001,-0.008484,0.01001,-0.993225,0.342992,0.233893,-0.222595,48,274,566,5696
1644168053.698385,-0.00946,0.008606,-0.992859,0.08345,0.493435,0.052214,58,281,571,5600
1644168053.746743,-0.010376,0.01062,-0.990906,0.373527,0.264427,-0.100458,60,269,576,5648
1644168053.795173,-0.010315,0.009399,-0.993164,0.205588,0.417099,-0.100458,48,274,587,5664
1644168053.843874,-0.006592,0.011658,-0.990112,0.266656,0.279695,-0.161527,45,270,575,5664
1644168053.892004,-0.011719,0.009338,-0.99231,0.297191,0.401832,-0.100458,43,276,569,5584
1644168053.942682,-0.012085,0.009033,-0.993347,0.281924,0.310229,-0.100458,42,268,568,5600
1644168053.992458,-0.011475,0.010681,-0.994141,0.236122,0.462901,-0.115725,62,274,583,5696
1644168054.061723,-0.011353,0.00946,-0.990234,0.251389,0.493435,-0.176794,47,268,582,5696
1644168054.091654,-0.009827,0.009155,-0.99408,0.281924,0.371298,-0.115725,57,273,577,5648
1644168054.182392,-0.009216,0.010315,-0.992065,0.373527,0.493435,-0.161527,54,270,572,5664
1644168054.230685,-0.008972,0.00946,-0.990723,0.144519,0.462901,-0.069924,39,276,580,5648
1644168054.279061,-0.009766,0.012634,-0.992432,0.281924,0.386565,0.006412,48,269,571,5648
1644168054.327447,-0.009705,0.006409,-0.992859,0.190321,0.432366,-0.069924,48,271,566,5648
1644168054.375815,-0.008118,0.01001,-0.989746,0.266656,0.447634,0.036947,57,280,579,5648
1644168054.424257,-0.009949,0.010315,-0.990784,0.144519,0.279695,-0.085191,52,280,565,5648
1644168054.472652,-0.013306,0.006592,-0.992493,0.266656,0.386565,-0.161527,54,273,572,5648
1644168054.521034,-0.012207,0.010742,-0.991394,0.297191,0.569771,-0.176794,53,276,569,5648
1644168054.569426,-0.009399,0.009888,-0.990356,0.327725,0.371298,-0.115725,58,274,564,5728
1644168054.617815,-0.012878,0.009033,-0.991089,0.175053,0.386565,-0.130992,51,279,566,5648
1644168054.666202,-0.009216,0.011414,-0.991455,0.175053,0.371298,-0.085191,55,266,580,5712
1644168054.714708,-0.009949,0.007812,-0.990356,0.327725,0.356031,-0.207328,45,268,577,5664
1644168054.762982,-0.011658,0.011108,-0.993652,0.144519,0.264427,-0.115725,45,270,572,5696
1644168054.811351,-0.012451,0.00946,-0.990784,0.35826,0.218626,-0.192061,59,275,563,5648
1644168054.859795,-0.010742,0.008118,-0.992554,0.220855,0.340763,-0.207328,59,277,572,5648
1644168054.908193,-0.009521,0.010742,-0.990601,0.175053,0.447634,-0.237863,49,277,572,5696
1644168054.95658,-0.007385,0.011169,-0.99231,0.175053,0.386565,-0.192061,54,282,572,5696
1644168055.05791,-0.010254,0.009094,-0.991455,0.297191,0.432366,0.021679,52,260,577,5536
1644168055.101729,-0.008972,0.012146,-0.993042,0.220855,0.508702,0.021679,60,281,578,5648
1644168055.15012,-0.009949,0.008789,-0.98999,0.297191,0.371298,-0.14626,53,271,569,5648
1644168055.198499,-0.013977,0.010315,-0.990967,0.281924,0.447634,0.036947,54,263,582,5664
1644168055.246888,-0.012817,0.00647,-0.996094,0.007115,0.264427,-0.314198,40,275,575,5648
1644168055.295257,-0.009705,0.009705,-0.99176,0.236122,0.325496,-0.069924,58,271,578,5664
1644168055.34366,-0.008911,0.011597,-0.992126,0.312458,0.310229,-0.14626,45,277,575,5632
1644168055.392061,-0.008728,0.009583,-0.99054,0.144519,0.279695,-0.054656,52,275,575,5648
1644168055.440447,-0.011658,0.009705,-0.992188,0.205588,0.356031,-0.100458,48,274,571,5696
1644168055.488826,-0.008606,0.010498,-0.992004,0.159786,0.356031,-0.100458,48,266,580,5696
1644168055.537219,-0.010742,0.010315,-0.992615,0.342992,0.325496,-0.069924,55,274,571,5664
1644168055.585617,-0.009705,0.008118,-0.99292,0.175053,0.401832,-0.176794,45,280,575,5664
1644168055.633997,-0.010315,0.009949,-0.993286,0.052916,0.264427,-0.14626,55,269,573,5664
1644168055.682415,-0.009644,0.008057,-0.992188,0.297191,0.417099,-0.222595,49,268,565,5648
1644168055.730783,-0.006714,0.008728,-0.989624,0.175053,0.432366,-0.222595,43,279,585,5600
1644168055.779173,-0.011047,0.009521,-0.990906,0.220855,0.371298,-0.024122,49,285,579,5552
1644168055.827868,-0.009155,0.010254,-0.992004,0.190321,0.325496,0.082748,57,273,582,5648
1644168055.87794,-0.011841,0.006836,-0.991211,0.144519,0.493435,-0.039389,52,280,572,5648
1644168055.928487,-0.008728,0.011536,-0.992188,0.373527,0.462901,-0.115725,51,266,578,5664
1644168055.972821,-0.008057,0.007935,-0.992798,0.205588,0.371298,-0.008855,52,277,570,5600
1644168056.069621,-0.011475,0.010071,-0.992554,0.175053,0.356031,-0.115725,49,268,582,5600
1644168056.117899,-0.007996,0.010742,-0.991943,0.35826,0.523969,-0.039389,49,265,577,5584
1644168056.166278,-0.012207,0.011292,-0.991089,0.175053,0.569771,0.036947,53,271,566,5664
1644168056.214857,-0.011292,0.010681,-0.989929,0.266656,0.294962,-0.008855,48,279,571,5648
1644168056.263073,-0.013245,0.008179,-0.98999,0.220855,0.508702,-0.207328,53,271,571,5648
1644168056.311446,-0.011353,0.009949,-0.990356,0.281924,0.417099,-0.100458,41,279,569,5664
1644168056.359871,-0.008972,0.010925,-0.991516,0.190321,0.386565,-0.222595,42,268,568,5552
1644168056.408254,-0.012146,0.011414,-0.992676,0.037649,0.340763,0.082748,45,268,584,5648
1644168056.456649,-0.006592,0.012085,-0.98999,0.327725,0.371298,-0.054656,57,277,568,5648
1644168056.505176,-0.009949,0.01062,-0.990417,0.266656,0.340763,-0.069924,51,276,576,5664
1644168056.553442,-0.008545,0.009644,-0.992004,0.175053,0.401832,-0.176794,54,260,575,5648
1644168056.60181,-0.009338,0.008972,-0.993286,0.281924,0.447634,-0.207328,57,275,572,5664
1644168056.650216,-0.010315,0.006165,-0.989746,0.220855,0.462901,-0.192061,59,275,584,5664
1644168056.698601,-0.00946,0.009888,-0.99054,0.205588,0.432366,-0.069924,41,276,571,5648
1644168056.746984,-0.010498,0.011597,-0.992371,0.190321,0.417099,-0.069924,53,274,583,5696
1644168056.795411,-0.012085,0.00885,-0.991943,0.175053,0.340763,-0.192061,58,281,578,5648
1644168056.843815,-0.012695,0.013306,-0.991089,0.251389,0.432366,-0.192061,53,274,576,5648
1644168056.892306,-0.007874,0.009705,-0.988831,0.342992,0.523969,-0.024122,48,271,571,5664
1644168056.940603,-0.011902,0.009399,-0.992676,0.297191,0.432366,-0.039389,40,273,577,5632
1644168056.990394,-0.01062,0.01123,-0.992981,0.297191,0.401832,-0.192061,57,273,582,5648
1644168057.051915,-0.009766,0.008179,-0.99408,0.220855,0.310229,-0.115725,53,274,580,5696
1644168057.0969,-0.008789,0.007751,-0.991699,0.098718,0.417099,-0.024122,55,274,578,5648
1644168057.134935,-0.010437,0.009277,-0.989502,0.388794,0.462901,-0.222595,52,268,570,5600
1644168057.230886,-0.011475,0.01001,-0.991089,0.205588,0.401832,-0.130992,46,274,576,5632
1644168057.279478,-0.010681,0.007446,-0.990784,0.037649,0.462901,0.036947,36,274,573,5664
1644168057.327655,-0.011353,0.008057,-0.99231,0.129252,0.386565,-0.115725,42,273,572,5664
1644168057.376054,-0.010498,0.008728,-0.991333,0.129252,0.294962,-0.176794,53,266,566,5664
1644168057.424458,-0.011353,0.010437,-0.988098,0.251389,0.386565,-0.008855,47,277,582,5696
1644168057.472867,-0.011169,0.007812,-0.993835,0.190321,0.432366,-0.085191,51,264,569,5648
1644168057.521212,-0.007385,0.007629,-0.99115,0.175053,0.294962,-0.14626,54,275,570,5664
1644168057.569622,-0.008301,0.006287,-0.990906,0.098718,0.386565,-0.054656,49,275,575,5696
1644168057.618066,-0.009338,0.007935,-0.990479,0.419328,0.325496,0.006412,36,281,571,5648
1644168057.666407,-0.007996,0.00885,-0.992004,0.190321,0.462901,-0.069924,49,270,572,5600
1644168057.714815,-0.011108,0.011414,-0.992798,0.327725,0.432366,-0.115725,55,271,576,5664
1644168057.763182,-0.011414,0.009583,-0.991882,0.35826,0.493435,-0.130992,55,264,569,5600
1644168057.811617,-0.010559,0.010864,-0.993286,0.327725,0.462901,-0.100458,51,276,571,5648
1644168057.860014,-0.009583,0.010132,-0.991211,0.052916,0.340763,-0.085191,38,285,575,5648
1644168057.908403,-0.010803,0.01178,-0.991577,0.220855,0.432366,-0.14626,51,274,583,5664
1644168057.956791,-0.01355,0.010376,-0.990845,0.236122,0.371298,0.006412,49,277,577,5648
1644168058.005244,-0.009583,0.007324,-0.991943,0.236122,0.493435,-0.176794,54,273,582,5696
1644168058.064547,-0.012756,0.009827,-0.989868,0.266656,0.356031,-0.039389,55,274,578,5648
1644168058.109603,-0.009094,0.009827,-0.990417,0.220855,0.447634,-0.054656,46,271,573,5696
1644168058.152523,-0.009216,0.010559,-0.988892,0.098718,0.401832,0.052214,43,269,576,5632
1644168058.20254,-0.010437,0.010437,-0.990295,-0.053954,0.325496,-0.176794,52,263,568,5632
1644168058.247385,-0.009644,0.009155,-0.991455,0.220855,0.325496,-0.161527,51,266,583,5648
1644168058.343891,-0.009827,0.009644,-0.994202,0.175053,0.600305,-0.130992,55,266,573,5664
1644168058.392557,-0.008423,0.008301,-0.991089,0.404061,0.233893,-0.039389,46,286,569,5648
1644168058.440657,-0.007019,0.009949,-0.991638,0.220855,0.508702,-0.130992,53,274,578,5600
1644168058.489324,-0.007446,0.010803,-0.991516,0.281924,0.401832,0.082748,42,268,579,5632
1644168058.537433,-0.012573,0.008667,-0.99176,0.205588,0.279695,-0.024122,52,265,582,5632
1644168058.585823,-0.010986,0.009155,-0.989502,0.327725,0.371298,-0.008855,43,262,580,5664
1644168058.634218,-0.009583,0.012329,-0.990479,0.35826,0.264427,-0.085191,52,273,575,5776
1644168058.682616,-0.010193,0.011597,-0.990723,0.251389,0.401832,-0.115725,52,275,579,5600
1644168058.730988,-0.005127,0.01178,-0.990601,0.236122,0.371298,-0.069924,51,274,585,5664
1644168058.779362,-0.009888,0.008789,-0.989746,0.129252,0.310229,-0.085191,45,277,568,5648
1644168058.827826,-0.009155,0.010559,-0.992798,0.113985,0.340763,-0.161527,51,274,576,5632
1644168058.87621,-0.012268,0.009888,-0.992188,0.266656,0.432366,-0.085191,49,273,570,5664
1644168058.924729,-0.009705,0.008606,-0.991394,0.251389,0.325496,-0.161527,43,274,578,5648
1644168058.973006,-0.011841,0.008484,-0.991882,0.175053,0.432366,-0.008855,41,281,576,5648
1644168059.021384,-0.009705,0.008606,-0.990601,0.175053,0.279695,-0.192061,46,269,573,5632
1644168059.070767,-0.008057,0.011108,-0.990723,0.129252,0.417099,0.021679,58,269,585,5664
1644168059.118132,-0.010315,0.010376,-0.992371,0.113985,0.340763,-0.192061,46,279,573,5648
1644168059.166506,-0.008362,0.011536,-0.991333,0.205588,0.432366,-0.14626,51,276,571,5664
1644168059.214887,-0.007996,0.011047,-0.989746,0.373527,0.432366,-0.024122,57,270,582,5696
1644168059.263542,-0.011658,0.008606,-0.991211,0.327725,0.523969,-0.024122,52,285,575,5648
1644168059.313754,-0.009216,0.009399,-0.99176,0.404061,0.493435,-0.283664,53,271,573,5696
1644168059.36398,-0.009766,0.009583,-0.99292,0.159786,0.417099,0.098015,57,273,582,5696
1644168059.409062,-0.012207,0.008423,-0.993286,0.327725,0.310229,-0.008855,45,268,575,5600
1644168059.505444,-0.008667,0.008179,-0.99054,0.129252,0.432366,-0.130992,49,270,591,5696
1644168059.553663,-0.011353,0.009155,-0.989807,0.205588,0.386565,-0.054656,45,287,575,5648
1644168059.602024,-0.007385,0.008972,-0.990906,0.266656,0.294962,-0.054656,49,273,572,5712
1644168059.650394,-0.010803,0.008179,-0.992249,0.098718,0.264427,-0.085191,53,266,580,5648
1644168059.698795,-0.008118,0.01062,-0.991638,0.129252,0.417099,-0.115725,54,265,579,5664
1644168059.747187,-0.012451,0.011719,-0.990112,0.098718,0.401832,-0.161527,60,266,569,5648
1644168059.795589,-0.011719,0.010254,-0.989685,0.266656,0.310229,-0.054656,54,265,568,5728
1644168059.844019,-0.009155,0.010193,-0.992493,0.129252,0.279695,-0.237863,58,274,571,5584
1644168059.892426,-0.007141,0.012573,-0.98877,0.220855,0.340763,-0.207328,52,273,570,5648
1644168059.940818,-0.009155,0.007996,-0.988892,0.220855,0.554504,-0.085191,60,276,576,5648
1644168059.98919,-0.007935,0.011902,-0.989807,0.144519,0.340763,-0.039389,46,276,578,5648
1644168060.037579,-0.013245,0.01062,-0.99176,0.08345,0.417099,-0.130992,54,280,577,5584
1644168060.086072,-0.009216,0.010071,-0.992188,0.236122,0.386565,-0.024122,53,279,573,5648
1644168060.134304,-0.008301,0.008301,-0.995972,0.175053,0.417099,-0.054656,45,285,577,5664
1644168060.182729,-0.009949,0.008911,-0.992676,0.068183,0.523969,-0.100458,58,279,583,5648
1644168060.231098,-0.008301,0.009155,-0.996399,0.327725,0.325496,-0.008855,43,279,583,5648
1644168060.279485,-0.009338,0.011292,-0.993469,0.175053,0.447634,-0.161527,45,270,572,5664
1644168060.327885,-0.008667,0.011536,-0.988525,0.266656,0.417099,-0.130992,49,265,582,5664
1644168060.376297,-0.009216,0.009338,-0.993774,0.266656,0.462901,-0.14626,57,275,582,5696
1644168060.426488,-0.013367,0.008545,-0.991516,0.220855,0.462901,-0.14626,53,274,569,5664
1644168060.476996,-0.009827,0.012268,-0.993591,0.236122,0.386565,-0.039389,48,274,580,5664
1644168060.521859,-0.013367,0.011902,-0.994507,0.205588,0.356031,-0.222595,48,271,578,5712
1644168060.618212,-0.011047,0.011047,-0.992126,0.373527,0.356031,-0.054656,58,266,576,5648
1644168060.666598,-0.009155,0.009827,-0.990845,0.022382,0.401832,-0.161527,52,273,579,5600
1644168060.715245,-0.010315,0.008545,-0.99231,0.251389,0.279695,0.006412,58,279,578,5728
1644168060.763396,-0.011841,0.011963,-0.992371,0.113985,0.310229,-0.054656,54,270,568,5600
1644168060.811782,-0.009644,0.010071,-0.991516,0.297191,0.523969,-0.054656,43,276,580,5696
1644168060.860228,-0.008911,0.00708,-0.990845,0.220855,0.325496,-0.115725,48,269,569,5696
1644168060.908611,-0.012573,0.01001,-0.992371,0.35826,0.523969,-0.207328,55,266,573,5696
1644168060.957016,-0.006226,0.012268,-0.991638,0.098718,0.386565,0.006412,39,264,569,5664
1644168061.005394,-0.010925,0.011108,-0.991882,0.327725,0.493435,-0.100458,48,266,571,5664
1644168061.054935,-0.009277,0.010864,-0.989258,0.373527,0.447634,-0.130992,51,262,566,5648
1644168061.102214,-0.009888,0.008911,-0.98999,0.312458,0.340763,-0.039389,59,275,565,5648
1644168061.150522,-0.010315,0.010803,-0.99292,0.251389,0.325496,-0.100458,43,283,573,5664
1644168061.19891,-0.009094,0.00769,-0.993408,0.419328,0.356031,0.021679,53,274,583,5696
1644168061.247306,-0.011719,0.008789,-0.990479,0.342992,0.447634,-0.176794,47,273,586,5648
1644168061.295691,-0.008362,0.009766,-0.992798,0.113985,0.508702,-0.008855,45,273,577,5600
1644168061.344082,-0.010437,0.011719,-0.991699,0.175053,0.417099,-0.100458,46,274,576,5632
1644168061.392497,-0.009033,0.011292,-0.993958,0.205588,0.523969,0.036947,46,271,578,5600
1644168061.440873,-0.007874,0.008423,-0.992249,0.08345,0.356031,-0.161527,57,270,577,5632
1644168061.489332,-0.010193,0.009094,-0.993835,0.220855,0.264427,-0.054656,52,275,582,5600
1644168061.538153,-0.01062,0.013184,-0.990784,0.342992,0.478168,-0.207328,51,269,578,5648
1644168061.588742,-0.01062,0.008667,-0.992676,0.144519,0.493435,-0.130992,57,275,570,5584
1644168061.638708,-0.010864,0.01062,-0.990845,0.159786,0.401832,0.021679,52,280,575,5664
1644168061.683802,-0.009399,0.009155,-0.989685,0.342992,0.24916,0.021679,54,270,572,5696
1644168061.779585,-0.009277,0.009277,-0.994141,0.388794,0.523969,-0.130992,57,277,565,5648
1644168061.827975,-0.012939,0.010498,-0.992249,0.098718,0.478168,-0.024122,57,275,568,5600
1644168061.876415,-0.011414,0.010254,-0.991333,0.205588,0.356031,-0.161527,42,275,575,5600
1644168061.924811,-0.010681,0.009827,-0.989624,0.190321,0.417099,0.006412,53,266,569,5648
1644168061.97322,-0.00647,0.008972,-0.992554,0.220855,0.554504,-0.054656,41,276,573,5600
1644168062.021594,-0.01062,0.011353,-0.993408,0.388794,0.462901,-0.176794,57,265,570,5632
1644168062.070147,-0.00824,0.009216,-0.992981,0.144519,0.356031,-0.161527,53,281,566,5664
1644168062.118376,-0.006958,0.009338,-0.992188,0.190321,0.401832,-0.085191,42,277,577,5648
1644168062.16673,-0.009033,0.013428,-0.989807,0.251389,0.294962,-0.115725,47,275,577,5600
1644168062.215221,-0.009766,0.011536,-0.990234,0.159786,0.279695,-0.237863,46,274,573,5664
1644168062.263495,-0.010986,0.011536,-0.992432,0.312458,0.462901,0.082748,43,271,573,5664
1644168062.311898,-0.010925,0.008911,-0.99408,0.236122,0.356031,-0.207328,54,285,586,5664
1644168062.360261,-0.009155,0.008972,-0.989319,0.129252,0.310229,-0.039389,48,274,580,5648
1644168062.408672,-0.007629,0.013489,-0.991577,0.190321,0.523969,-0.115725,57,273,584,5648
1644168062.457067,-0.008423,0.009216,-0.992126,0.297191,0.24916,-0.054656,52,273,575,5696
1644168062.505442,-0.009094,0.008484,-0.991394,0.251389,0.371298,-0.039389,62,269,569,5648
1644168062.553864,-0.012085,0.012085,-0.992676,0.007115,0.447634,-0.069924,46,269,578,5696
1644168062.602263,-0.011658,0.010986,-0.992554,0.312458,0.508702,-0.069924,55,266,576,5648
1644168062.650639,-0.010498,0.008118,-0.990723,0.342992,0.462901,-0.054656,48,276,573,5696
1644168062.69998,-0.007263,0.009888,-0.988708,0.281924,0.401832,-0.176794,47,265,575,5664
1644168062.750287,-0.011658,0.009216,-0.992432,0.266656,0.401832,-0.008855,45,275,577,5648
1644168062.800952,-0.012268,0.008057,-0.993103,0.129252,0.340763,-0.100458,52,265,577,5648
1644168062.845984,-0.012146,0.010437,-0.991638,0.281924,0.386565,-0.100458,52,265,568,5584
1644168062.941006,-0.009155,0.010376,-0.989502,0.190321,0.478168,-0.069924,48,276,571,5648
1644168062.989374,-0.009216,0.008118,-0.991699,0.190321,0.264427,-0.207328,47,275,572,5696
1644168063.037793,-0.01062,0.011108,-0.989868,0.113985,0.310229,0.021679,47,275,565,5648
1644168063.088934,-0.010376,0.00946,-0.992798,0.159786,0.356031,-0.054656,52,277,579,5664
1644168063.13469,-0.010376,0.010681,-0.993591,0.205588,0.386565,-0.100458,62,271,580,5648
1644168063.182952,-0.009155,0.009521,-0.994873,0.220855,0.325496,-0.008855,47,273,575,5648
1644168063.231315,-0.008423,0.010986,-0.991821,0.190321,0.340763,-0.176794,51,266,573,5664
1644168063.279692,-0.00946,0.00946,-0.990845,0.144519,0.325496,-0.069924,46,281,573,5664
1644168063.328132,-0.012024,0.011353,-0.991272,0.190321,0.569771,-0.054656,45,277,575,5600
1644168063.376506,-0.010803,0.009094,-0.991943,0.175053,0.264427,-0.161527,43,281,571,5584
1644168063.424883,-0.009338,0.009033,-0.992371,0.312458,0.432366,-0.222595,59,273,577,5648
1644168063.473278,-0.010437,0.007385,-0.990967,0.098718,0.401832,-0.008855,47,270,572,5648
1644168063.521672,-0.005554,0.010803,-0.99176,0.175053,0.569771,-0.130992,46,271,573,5664
1644168063.570403,-0.009583,0.007629,-0.990173,0.113985,0.264427,-0.085191,42,268,575,5664
1644168063.621098,-0.012268,0.007446,-0.988586,0.35826,0.417099,-0.161527,66,277,570,5664
1644168063.67108,-0.011047,0.009033,-0.991821,0.281924,0.447634,-0.176794,53,269,578,5648
1644168063.71616,-0.011475,0.010498,-0.992676,0.220855,0.325496,-0.085191,58,269,569,5648
1644168063.812003,-0.007568,0.009827,-0.993896,0.266656,0.401832,-0.039389,51,276,564,5664
1644168063.860387,-0.011719,0.012207,-0.99353,0.342992,0.447634,-0.085191,59,273,572,5664
1644168063.908818,-0.009155,0.008972,-0.993103,0.251389,0.371298,-0.130992,46,276,569,5600
1644168063.957205,-0.008423,0.010559,-0.992493,0.342992,0.432366,0.021679,57,277,579,5760
1644168064.005581,-0.010742,0.011475,-0.991272,0.251389,0.401832,-0.085191,48,266,578,5664
1644168064.059379,-0.012695,0.007568,-0.989929,0.113985,0.371298,-0.100458,57,275,577,5664
1644168064.102364,-0.010071,0.009338,-0.993042,0.266656,0.478168,-0.115725,59,280,572,5664
1644168064.150758,-0.009705,0.011414,-0.993103,0.236122,0.325496,-0.024122,45,268,568,5632
1644168064.199168,-0.01001,0.006348,-0.990845,0.113985,0.386565,-0.039389,60,274,569,5664
1644168064.247522,-0.00946,0.008057,-0.991028,0.251389,0.432366,-0.008855,45,282,570,5664
1644168064.295932,-0.009277,0.009583,-0.992859,0.205588,0.417099,-0.161527,47,277,570,5648
1644168064.344347,-0.011658,0.010742,-0.992859,0.098718,0.371298,-0.039389,58,274,580,5632
1644168064.392749,-0.010437,0.009033,-0.989258,0.281924,0.401832,-0.054656,51,269,566,5664
1644168064.441118,-0.008545,0.011047,-0.993347,0.205588,0.493435,-0.054656,51,271,569,5664
1644168064.489539,-0.010925,0.008179,-0.990784,0.220855,0.356031,-0.100458,51,274,580,5632
1644168064.537887,-0.00946,0.011658,-0.991455,0.312458,0.508702,-0.054656,47,273,577,5664
1644168064.586282,-0.010132,0.010925,-0.991272,0.144519,0.417099,-0.130992,53,271,566,5696
1644168064.634958,-0.010071,0.009033,-0.990845,0.236122,0.401832,-0.054656,46,274,566,5632
1644168064.683461,-0.009277,0.011047,-0.991455,0.052916,0.401832,-0.039389,49,270,570,5648
1644168064.73386,-0.01123,0.011963,-0.989624,0.068183,0.478168,-0.14626,55,288,569,5648
1644168064.784222,-0.009094,0.009033,-0.990295,0.419328,0.294962,-0.130992,42,277,579,5648
1644168064.828794,-0.010498,0.011719,-0.99292,0.08345,0.63084,-0.130992,54,277,568,5600
1644168064.925327,-0.013,0.010864,-0.992493,0.129252,0.325496,0.021679,48,281,564,5600
1644168064.973415,-0.009888,0.011353,-0.993347,0.190321,0.371298,-0.14626,43,274,576,5648
1644168065.021791,-0.010864,0.008301,-0.991577,0.144519,0.386565,-0.085191,58,276,569,5712
1644168065.070264,-0.012756,0.007385,-0.993164,0.205588,0.386565,-0.024122,49,273,572,5648
1644168065.118529,-0.007812,0.011292,-0.992676,0.327725,0.356031,-0.024122,54,273,565,5696
1644168065.166929,-0.01123,0.00824,-0.992065,0.327725,0.279695,-0.115725,42,280,570,5664
1644168065.215318,-0.010742,0.007874,-0.990173,0.236122,0.310229,-0.069924,49,270,570,5648
1644168065.263714,-0.011658,0.008423,-0.989075,0.434595,0.310229,-0.069924,46,276,571,5648
1644168065.312146,-0.009644,0.010071,-0.98999,0.08345,0.294962,-0.069924,46,271,571,5648
1644168065.360501,-0.01355,0.009399,-0.99054,0.266656,0.264427,-0.283664,55,266,573,5600
1644168065.408898,-0.009216,0.010254,-0.990051,0.144519,0.447634,-0.039389,41,264,569,5664
1644168065.457278,-0.013306,0.010132,-0.990173,0.205588,0.386565,-0.192061,57,280,575,5664
1644168065.505647,-0.007385,0.00946,-0.989746,0.281924,0.294962,-0.100458,59,263,575,5600
1644168065.554079,-0.00946,0.011963,-0.991638,0.266656,0.340763,-0.100458,53,269,576,5664
1644168065.602461,-0.008728,0.010071,-0.989319,0.373527,0.401832,-0.085191,53,269,587,5664
1644168065.650837,-0.007996,0.01123,-0.992188,0.236122,0.233893,-0.085191,53,283,559,5648
1644168065.699208,-0.012634,0.009338,-0.991577,0.373527,0.294962,-0.039389,47,270,577,5648
1644168065.747595,-0.010559,0.009949,-0.991455,0.312458,0.417099,-0.161527,42,265,575,5664
1644168065.796214,-0.009766,0.012207,-0.989746,0.266656,0.478168,-0.100458,54,282,584,5648
1644168065.845717,-0.008972,0.010071,-0.992004,0.159786,0.310229,-0.054656,47,270,575,5648
1644168065.896138,-0.010986,0.009094,-0.990601,0.297191,0.462901,-0.130992,47,275,589,5600
1644168065.946446,-0.00946,0.009949,-0.993347,0.159786,0.447634,-0.085191,53,281,585,5728
1644168065.99076,-0.009644,0.009705,-0.993164,0.312458,0.539237,-0.069924,43,274,571,5600
1644168066.086463,-0.010681,0.010254,-0.991028,0.144519,0.310229,0.006412,54,277,586,5552
1644168066.134768,-0.012939,0.010803,-0.993347,0.251389,0.340763,-0.130992,57,273,579,5552
1644168066.183138,-0.008911,0.011475,-0.991638,0.175053,0.279695,-0.14626,51,271,578,5712
1644168066.231516,-0.011536,0.009888,-0.992981,0.297191,0.325496,-0.176794,49,277,572,5648
1644168066.279897,-0.012512,0.011169,-0.990967,0.251389,0.447634,-0.100458,42,270,565,5664
1644168066.328297,-0.010254,0.011353,-0.991089,0.220855,0.401832,-0.115725,48,269,564,5696
1644168066.376692,-0.011902,0.007141,-0.990906,0.312458,0.432366,-0.14626,48,274,573,5648
1644168066.425108,-0.010681,0.010437,-0.989197,0.266656,0.432366,-0.039389,54,265,568,5664
1644168066.473469,-0.008728,0.010437,-0.990662,0.129252,0.493435,-0.039389,54,277,570,5584
1644168066.521865,-0.011658,0.013611,-0.993225,0.266656,0.462901,-0.237863,43,279,571,5552
1644168066.570252,-0.010071,0.009888,-0.993835,0.190321,0.356031,-0.14626,45,273,575,5664
1644168066.618648,-0.009888,0.007935,-0.990662,0.220855,0.539237,-0.130992,60,271,564,5600
1644168066.667039,-0.008728,0.009521,-0.990234,0.236122,0.417099,0.052214,39,269,587,5584
1644168066.715407,-0.009949,0.009766,-0.992981,0.220855,0.371298,-0.039389,49,280,570,5648
1644168066.76381,-0.01178,0.010437,-0.993591,0.205588,0.432366,-0.268397,47,282,575,5664
1644168066.812274,-0.006958,0.013184,-0.992859,0.129252,0.340763,-0.085191,47,282,570,5696
1644168066.860635,-0.008911,0.01239,-0.990051,0.159786,0.310229,-0.100458,48,266,571,5648
1644168066.909025,-0.006897,0.007996,-0.991577,0.159786,0.462901,-0.054656,55,266,566,5600
1644168066.957434,-0.00824,0.01062,-0.990601,0.342992,0.356031,-0.130992,53,274,580,5712
1644168067.056298,-0.010193,0.007446,-0.99353,0.144519,0.310229,-0.100458,52,280,577,5648
1644168067.102564,-0.011658,0.007629,-0.99231,0.175053,0.447634,-0.069924,59,270,582,5648
1644168067.150933,-0.012024,0.01123,-0.992859,0.190321,0.203359,-0.176794,59,277,579,5664
1644168067.199317,-0.012024,0.010315,-0.990601,0.312458,0.371298,-0.039389,51,269,569,5648
1644168067.247725,-0.011597,0.010437,-0.991638,0.281924,0.569771,-0.039389,52,273,584,5648
