epoch,acc_x,acc_y,acc_z,rot_x,rot_y,rot_z,mag_x,mag_y,mag_z,temp
1644185700.036784,-0.005859,0.008484,-0.991882,0.251389,0.493435,0.052214,49,273,584,6160
1644185700.087613,-0.00708,0.01062,-0.992371,0.266656,0.340763,-0.069924,48,286,578,6224
1644185700.133606,-0.009033,0.00885,-0.990479,0.251389,0.386565,-0.069924,53,276,585,6240
1644185700.181927,-0.005493,0.007446,-0.991943,0.098718,0.356031,-0.085191,52,277,586,6176
1644185700.230324,-0.007629,0.010742,-0.991455,0.159786,0.325496,-0.207328,40,287,575,6192
1644185700.278698,-0.00824,0.011169,-0.992676,0.312458,0.447634,-0.207328,52,277,586,6176
1644185700.327075,-0.010193,0.009949,-0.989868,0.129252,0.371298,-0.054656,45,280,584,6240
1644185700.375488,-0.006836,0.011536,-0.990845,0.052916,0.447634,-0.100458,47,280,582,6224
1644185700.424279,-0.006653,0.010437,-0.991577,0.190321,0.401832,0.021679,59,268,572,6224
1644185700.474884,-0.007324,0.010254,-0.990479,0.08345,0.371298,-0.130992,41,288,587,6240
1644185700.524699,-0.007202,0.010254,-0.989746,0.266656,0.569771,-0.085191,47,270,579,6240
1644185700.569815,-0.007874,0.009827,-0.990051,0.342992,0.401832,-0.039389,51,281,587,6224
1644185700.665838,-0.007324,0.01123,-0.98938,0.251389,0.340763,-0.176794,48,281,569,6240
1644185700.714239,-0.010315,0.009033,-0.992493,0.113985,0.523969,-0.024122,47,275,584,6240
1644185700.762639,-0.008362,0.010071,-0.990906,0.236122,0.340763,-0.039389,46,281,573,6128
1644185700.811005,-0.009583,0.01062,-0.992371,0.281924,0.294962,-0.085191,41,281,587,6256
1644185700.859415,-0.007019,0.011414,-0.99115,0.297191,0.432366,0.006412,52,277,582,6224
1644185700.90785,-0.009521,0.010681,-0.991455,0.312458,0.386565,-0.085191,47,277,584,6224
1644185700.956507,-0.009644,0.008667,-0.989319,0.205588,0.279695,-0.161527,55,279,580,6224
1644185701.004683,-0.011047,0.008301,-0.990356,0.113985,0.478168,-0.115725,53,271,590,6240
1644185701.065086,-0.007568,0.009216,-0.991028,0.037649,0.523969,-0.130992,51,281,594,6224
1644185701.10442,-0.010498,0.010559,-0.991089,0.266656,0.401832,-0.207328,49,275,586,6240
1644185701.149818,-0.010498,0.012756,-0.991333,0.236122,0.615573,-0.130992,40,277,582,6192
1644185701.198184,-0.006775,0.011047,-0.992981,0.175053,0.417099,-0.115725,52,270,582,6112
1644185701.246608,-0.009949,0.01001,-0.990784,0.205588,0.447634,-0.130992,52,273,579,6224
1644185701.295039,-0.008606,0.011047,-0.987,0.220855,0.432366,-0.14626,57,270,584,6160
1644185701.343391,-0.00592,0.007935,-0.991394,0.327725,0.371298,0.021679,41,276,578,6224
1644185701.391771,-0.005615,0.011414,-0.990295,0.281924,0.417099,0.006412,57,287,589,6224
1644185701.440192,-0.007751,0.009827,-0.991699,0.175053,0.478168,-0.085191,52,273,589,6240
1644185701.488725,-0.00708,0.011292,-0.990173,0.220855,0.386565,-0.024122,54,275,591,6240
1644185701.536992,-0.007507,0.011597,-0.990601,0.022382,0.310229,-0.054656,58,276,587,6240
1644185701.586714,-0.00885,0.00946,-0.989807,0.068183,0.340763,-0.008855,55,286,576,6240
1644185701.636921,-0.007202,0.012939,-0.990234,0.159786,0.356031,-0.024122,40,265,577,6176
1644185701.687095,-0.007507,0.008484,-0.990173,0.220855,0.279695,-0.100458,52,280,579,6256
1644185701.73175,-0.008667,0.009277,-0.989807,0.220855,0.417099,-0.008855,39,274,580,6192
1644185701.827309,-0.006592,0.011108,-0.989624,0.312458,0.279695,0.006412,49,280,577,6224
1644185701.875698,-0.006714,0.011414,-0.990906,0.327725,0.264427,-0.192061,53,281,583,6240
1644185701.924116,-0.009094,0.00885,-0.992859,0.312458,0.371298,-0.14626,52,275,579,6240
1644185701.972522,-0.006531,0.010925,-0.989685,0.144519,0.279695,-0.085191,42,275,589,6224
1644185702.02089,-0.007324,0.010315,-0.991211,0.052916,0.417099,-0.25313,49,275,593,6256
1644185702.071472,-0.007874,0.011169,-0.994263,0.113985,0.371298,-0.069924,49,275,584,6224
1644185702.117647,-0.007996,0.009033,-0.991272,0.144519,0.493435,-0.130992,48,274,580,6224
1644185702.166038,-0.00769,0.010559,-0.991577,0.327725,0.24916,-0.085191,52,280,579,6160
1644185702.214427,-0.007874,0.010559,-0.98999,0.220855,0.447634,-0.115725,49,270,579,6240
1644185702.262811,-0.006897,0.009399,-0.989197,0.205588,0.569771,-0.130992,48,276,585,6192
1644185702.311177,-0.008728,0.010376,-0.992432,0.129252,0.386565,-0.192061,47,280,589,6224
1644185702.359606,-0.008423,0.010254,-0.989868,0.388794,0.462901,-0.069924,43,269,590,6240
1644185702.407972,-0.007812,0.010376,-0.990417,0.434595,0.371298,-0.069924,45,273,582,6240
1644185702.456385,-0.008972,0.010559,-0.990845,0.144519,0.447634,-0.192061,57,275,593,6240
1644185702.504767,-0.007202,0.010071,-0.989441,0.251389,0.417099,0.021679,60,276,592,6176
1644185702.553193,-0.008667,0.011353,-0.99231,0.297191,0.401832,-0.237863,49,275,586,6240
1644185702.601569,-0.008118,0.009277,-0.990295,0.113985,0.417099,-0.130992,53,276,592,6256
1644185702.649964,-0.007019,0.010498,-0.990234,0.129252,0.340763,-0.14626,47,277,598,6240
1644185702.69835,-0.008484,0.013794,-0.990601,0.190321,0.462901,-0.176794,40,282,589,6176
1644185702.748369,-0.009521,0.011047,-0.990295,0.220855,0.371298,-0.008855,52,273,577,6176
1644185702.797302,-0.006836,0.010193,-0.990967,0.129252,0.310229,-0.100458,51,264,594,6160
1644185702.848392,-0.009033,0.008057,-0.991333,0.281924,0.386565,-0.14626,54,277,584,6176
1644185702.892901,-0.006592,0.009094,-0.991333,0.205588,0.325496,-0.085191,57,275,589,6224
1644185702.988746,-0.007446,0.010925,-0.993225,0.220855,0.294962,-0.176794,43,276,587,6256
1644185703.037121,-0.00769,0.009033,-0.991394,0.190321,0.417099,-0.054656,48,276,587,6176
1644185703.087168,-0.009399,0.010071,-0.994324,0.327725,0.371298,-0.207328,53,279,576,6160
1644185703.133892,-0.011963,0.009277,-0.990479,0.419328,0.386565,-0.069924,51,266,587,6256
1644185703.182303,-0.010681,0.009827,-0.988403,0.266656,0.325496,-0.115725,41,274,594,6256
1644185703.230667,-0.009766,0.010193,-0.990112,0.236122,0.417099,-0.192061,54,285,582,6224
1644185703.279042,-0.008789,0.01062,-0.990173,0.205588,0.401832,-0.130992,48,281,583,6224
1644185703.327466,-0.008545,0.008484,-0.989746,0.220855,0.24916,-0.130992,52,282,582,6160
1644185703.375851,-0.008972,0.008301,-0.989868,0.220855,0.386565,-0.207328,39,271,583,6112
1644185703.424265,-0.008362,0.012756,-0.992493,0.251389,0.356031,-0.100458,54,273,591,6240
1644185703.472657,-0.009583,0.009705,-0.99176,0.281924,0.279695,-0.039389,45,273,598,6240
1644185703.521046,-0.007935,0.009766,-0.990906,0.236122,0.386565,-0.130992,48,279,585,6224
1644185703.569431,-0.008118,0.010681,-0.991882,0.297191,0.279695,-0.054656,55,281,592,6240
1644185703.617803,-0.008911,0.010437,-0.992554,0.312458,0.462901,-0.085191,45,280,584,6192
1644185703.666184,-0.007935,0.013306,-0.991028,0.113985,0.294962,-0.039389,51,283,583,6192
1644185703.714648,-0.007019,0.010132,-0.990845,0.388794,0.401832,-0.085191,47,280,584,6192
1644185703.762966,-0.006958,0.010193,-0.992065,0.236122,0.462901,-0.024122,54,285,584,6160
1644185703.811429,-0.009521,0.011047,-0.991577,0.144519,0.401832,-0.14626,47,275,582,6224
1644185703.861267,-0.011353,0.01239,-0.992126,0.281924,0.264427,-0.039389,43,276,573,6192
1644185703.911698,-0.008423,0.010681,-0.989685,0.190321,0.417099,-0.130992,51,279,585,6224
1644185703.962017,-0.008362,0.009583,-0.990356,0.251389,0.325496,-0.130992,53,276,583,6224
1644185704.006346,-0.007629,0.009399,-0.989746,0.220855,0.493435,-0.085191,45,273,589,6176
1644185704.102314,-0.008606,0.011169,-0.98999,0.312458,0.386565,-0.039389,42,273,582,6176
1644185704.150145,-0.007507,0.011597,-0.991516,0.098718,0.340763,-0.161527,60,286,580,6192
1644185704.198539,-0.009277,0.010254,-0.992004,0.175053,0.386565,0.006412,48,281,580,6224
1644185704.246902,-0.006165,0.010315,-0.99292,0.388794,0.462901,-0.25313,49,280,586,6192
1644185704.295332,-0.006104,0.008728,-0.988159,0.144519,0.356031,-0.161527,62,274,583,6240
1644185704.343726,-0.007568,0.012085,-0.99115,0.251389,0.417099,-0.222595,47,277,593,6224
1644185704.392212,-0.007507,0.012512,-0.988953,0.205588,0.325496,-0.161527,65,279,590,6192
1644185704.440501,-0.005798,0.013428,-0.991028,0.205588,0.447634,-0.130992,43,276,580,6256
1644185704.48926,-0.005981,0.010925,-0.990662,0.175053,0.371298,-0.115725,46,288,592,6224
1644185704.537285,-0.009155,0.010254,-0.991272,0.327725,0.310229,0.098015,52,280,577,6176
1644185704.585687,-0.008179,0.009827,-0.990601,0.266656,0.447634,-0.069924,54,285,593,6224
1644185704.634051,-0.007507,0.008972,-0.988586,0.297191,0.432366,-0.039389,55,269,594,6256
1644185704.682841,-0.010559,0.00769,-0.989868,0.297191,0.432366,-0.115725,52,282,591,6192
1644185704.732716,-0.007202,0.012878,-0.989502,0.419328,0.356031,-0.283664,43,274,587,6224
1644185704.78296,-0.007507,0.008362,-0.99054,0.144519,0.325496,-0.008855,54,280,579,6224
1644185704.829374,-0.007507,0.010742,-0.991089,0.281924,0.493435,-0.130992,45,277,579,6176
1644185704.924484,-0.00708,0.010315,-0.99115,0.098718,0.447634,0.067481,45,277,579,6176
1644185704.972895,-0.005615,0.011108,-0.989014,0.342992,0.371298,-0.039389,53,279,583,6192
1644185705.021253,-0.006348,0.013489,-0.991577,0.205588,0.462901,-0.039389,53,283,590,6256
1644185705.072918,-0.009521,0.011108,-0.988037,0.220855,0.386565,-0.176794,43,276,580,6192
1644185705.118029,-0.007996,0.012085,-0.992615,0.190321,0.386565,-0.192061,57,270,586,6224
1644185705.166402,-0.007202,0.009216,-0.988647,0.190321,0.478168,-0.069924,57,275,584,6224
1644185705.21479,-0.005432,0.010742,-0.990723,0.388794,0.462901,-0.069924,51,266,590,6224
1644185705.263197,-0.006958,0.009094,-0.990479,0.297191,0.356031,0.036947,59,282,584,6192
1644185705.311615,-0.008057,0.008972,-0.989807,0.297191,0.493435,-0.024122,39,283,583,6240
1644185705.35997,-0.010498,0.010986,-0.989136,0.266656,0.447634,-0.008855,55,283,587,6256
1644185705.408363,-0.009949,0.009949,-0.989563,0.342992,0.401832,-0.100458,48,274,580,6224
1644185705.456757,-0.007202,0.010559,-0.991455,0.098718,0.218626,-0.25313,43,281,583,6240
1644185705.505263,-0.007874,0.010742,-0.99054,0.297191,0.432366,-0.100458,58,274,587,6240
1644185705.553559,-0.009644,0.012451,-0.991272,0.251389,0.585038,-0.100458,49,275,584,6176
1644185705.601936,-0.007751,0.012695,-0.992004,0.220855,0.401832,-0.222595,54,282,575,6224
1644185705.650318,-0.003845,0.011536,-0.993469,0.205588,0.371298,-0.207328,43,274,578,6240
1644185705.698705,-0.006836,0.011963,-0.990173,0.113985,0.340763,-0.237863,49,253,589,6192
1644185705.747097,-0.009094,0.008728,-0.991272,0.175053,0.447634,-0.069924,46,276,573,6176
1644185705.795499,-0.007263,0.008545,-0.989258,0.175053,0.294962,-0.008855,54,273,589,6240
1644185705.845532,-0.00885,0.008972,-0.99231,0.35826,0.371298,0.006412,45,275,591,6224
1644185705.895562,-0.00708,0.011963,-0.993042,0.297191,0.417099,-0.054656,51,283,580,6224
1644185705.945797,-0.008301,0.009766,-0.993164,0.251389,0.432366,-0.054656,48,279,590,6176
1644185705.990305,-0.006592,0.011108,-0.990845,0.159786,0.462901,-0.039389,46,276,585,6176
1644185706.085966,-0.008484,0.009644,-0.991943,0.312458,0.417099,-0.100458,43,271,594,6160
1644185706.134291,-0.007446,0.014038,-0.989075,0.251389,0.356031,-0.130992,45,277,586,6240
1644185706.182649,-0.007446,0.010132,-0.989685,0.297191,0.432366,-0.039389,51,281,585,6224
1644185706.231024,-0.011475,0.009705,-0.991089,0.068183,0.294962,-0.176794,54,270,589,6176
1644185706.279437,-0.007385,0.011047,-0.99292,0.129252,0.432366,0.12855,46,281,590,6224
1644185706.32782,-0.008606,0.010559,-0.991821,0.266656,0.340763,-0.069924,51,279,592,6160
1644185706.376222,-0.008545,0.012329,-0.992371,0.281924,0.356031,-0.008855,52,277,589,6192
1644185706.424656,-0.008118,0.009888,-0.991882,0.220855,0.417099,-0.054656,45,285,582,6224
1644185706.473039,-0.008118,0.010925,-0.990112,0.251389,0.462901,-0.115725,64,270,572,6240
1644185706.521403,-0.009033,0.011353,-0.991272,0.404061,0.371298,-0.100458,48,279,578,6240
1644185706.569784,-0.009888,0.010315,-0.988464,0.236122,0.340763,-0.207328,55,281,583,6160
1644185706.618178,-0.009583,0.00769,-0.991272,0.312458,0.386565,-0.085191,52,275,584,6240
1644185706.666546,-0.006531,0.010437,-0.991638,0.236122,0.447634,-0.100458,51,276,585,6224
1644185706.715085,-0.008789,0.013245,-0.987488,0.266656,0.493435,-0.100458,54,273,584,6176
1644185706.763355,-0.006287,0.009705,-0.991394,0.266656,0.325496,-0.054656,46,291,594,6224
1644185706.811732,-0.008667,0.011047,-0.991028,0.46513,0.508702,-0.161527,61,282,598,6192
1644185706.86015,-0.007935,0.007935,-0.989136,0.068183,0.340763,-0.130992,48,283,583,6240
1644185706.908581,-0.005737,0.01178,-0.98999,0.007115,0.462901,-0.115725,55,276,590,6192
1644185706.956992,-0.006897,0.009277,-0.989319,0.175053,0.386565,-0.176794,47,270,584,6256
1644185707.006701,-0.005798,0.011353,-0.989563,0.205588,0.386565,0.052214,66,275,586,6192
1644185707.074404,-0.006531,0.007996,-0.990601,0.129252,0.447634,-0.039389,55,279,583,6240
1644185707.11374,-0.007141,0.013,-0.991211,0.281924,0.325496,-0.130992,41,283,587,6256
1644185707.151696,-0.008484,0.011597,-0.990295,0.266656,0.340763,-0.024122,51,281,583,6240
1644185707.247275,-0.007263,0.010925,-0.991577,0.205588,0.371298,-0.176794,58,266,592,6176
1644185707.29567,-0.00946,0.010498,-0.991211,0.144519,0.401832,-0.237863,45,270,579,6224
1644185707.344062,-0.007263,0.012329,-0.990112,0.175053,0.478168,-0.100458,47,275,586,6240
1644185707.392488,-0.007446,0.011108,-0.990601,0.052916,0.447634,-0.192061,55,281,573,6224
1644185707.440831,-0.006165,0.010132,-0.990845,0.205588,0.447634,0.098015,48,276,585,6176
1644185707.489342,-0.007446,0.010925,-0.990845,0.327725,0.279695,-0.008855,53,266,564,6192
1644185707.537639,-0.007385,0.012329,-0.993774,0.129252,0.462901,-0.039389,49,275,577,6160
1644185707.58605,-0.009827,0.009705,-0.990356,0.113985,0.294962,-0.024122,49,273,582,6128
1644185707.635432,-0.007751,0.007812,-0.990784,0.236122,0.325496,-0.192061,46,283,580,6160
1644185707.682842,-0.007324,0.014038,-0.990723,0.159786,0.340763,-0.176794,65,279,580,6256
1644185707.731225,-0.00769,0.010376,-0.990234,0.205588,0.523969,-0.207328,40,277,584,6224
1644185707.779623,-0.006531,0.011047,-0.988892,0.281924,0.325496,-0.039389,48,281,590,6192
1644185707.828002,-0.00824,0.011658,-0.990417,0.35826,0.371298,-0.176794,49,273,593,6224
1644185707.876436,-0.007568,0.008728,-0.991516,0.236122,0.523969,-0.100458,46,276,578,6224
1644185707.924843,-0.009338,0.008667,-0.991516,0.266656,0.417099,-0.192061,51,276,583,6256
1644185707.973228,-0.010132,0.010437,-0.991821,0.205588,0.401832,-0.085191,49,273,586,6192
1644185708.021623,-0.007568,0.013,-0.990295,0.205588,0.386565,0.082748,45,273,584,6192
1644185708.089834,-0.00708,0.005371,-0.990845,0.129252,0.401832,-0.085191,58,283,587,6224
1644185708.120442,-0.010193,0.013367,-0.993042,0.205588,0.478168,-0.100458,54,287,589,6192
1644185708.171012,-0.007629,0.011414,-0.988342,0.281924,0.264427,-0.008855,47,282,579,6112
1644185708.220181,-0.007202,0.010254,-0.992493,0.434595,0.356031,-0.314198,43,254,580,6224
1644185708.311932,-0.005127,0.011108,-0.987854,0.342992,0.432366,-0.130992,52,273,579,6176
1644185708.360312,-0.006287,0.00946,-0.992004,0.190321,0.432366,-0.176794,53,279,585,6256
1644185708.408718,-0.007019,0.011353,-0.992004,0.266656,0.432366,-0.14626,47,273,582,6240
1644185708.45711,-0.010315,0.009094,-0.991699,0.205588,0.417099,-0.115725,49,277,598,6240
1644185708.505488,-0.006653,0.010803,-0.991272,0.068183,0.462901,0.036947,42,270,584,6240
1644185708.553907,-0.007812,0.010925,-0.989868,0.205588,0.615573,-0.192061,58,274,580,6160
1644185708.602309,-0.006531,0.009766,-0.989197,0.098718,0.523969,-0.100458,36,279,576,6192
1644185708.650682,-0.005859,0.009399,-0.991272,0.190321,0.401832,-0.085191,51,279,578,6240
1644185708.699064,-0.004333,0.008545,-0.993103,0.266656,0.523969,0.098015,47,275,589,6288
1644185708.74745,-0.008545,0.011292,-0.99115,0.327725,0.401832,-0.008855,49,280,584,6176
1644185708.795869,-0.008972,0.010071,-0.990723,0.251389,0.417099,-0.100458,45,282,579,6160
1644185708.84427,-0.004395,0.012451,-0.989502,0.175053,0.508702,-0.130992,43,281,594,6240
1644185708.892723,-0.009338,0.009338,-0.987305,0.037649,0.24916,-0.176794,46,276,580,6224
1644185708.941081,-0.00885,0.012085,-0.990234,0.281924,0.523969,-0.161527,42,280,586,6256
1644185708.989491,-0.004395,0.01062,-0.987549,0.327725,0.554504,-0.085191,46,276,590,6288
1644185709.037869,-0.006409,0.011169,-0.991272,0.144519,0.325496,-0.329466,48,281,583,6192
1644185709.094281,-0.009521,0.013184,-0.987671,0.175053,0.432366,-0.069924,48,269,583,6176
1644185709.13467,-0.006226,0.011658,-0.993408,0.144519,0.508702,-0.085191,52,280,582,6224
1644185709.183086,-0.009277,0.009399,-0.988953,0.342992,0.401832,-0.024122,53,276,587,6224
1644185709.23283,-0.007324,0.012939,-0.991028,0.236122,0.585038,-0.085191,57,275,579,6192
1644185709.28325,-0.008484,0.010254,-0.989929,0.205588,0.447634,-0.054656,59,277,582,6192
1644185709.333453,-0.006226,0.009583,-0.98999,0.373527,0.356031,-0.115725,51,283,583,6224
1644185709.378106,-0.008545,0.012756,-0.990967,0.281924,0.386565,-0.008855,43,274,590,6240
1644185709.473426,-0.005798,0.007996,-0.99176,0.236122,0.493435,-0.085191,51,276,578,6160
1644185709.521775,-0.009216,0.010559,-0.991455,0.281924,0.417099,-0.115725,48,269,587,6224
1644185709.570174,-0.00647,0.010315,-0.992859,0.220855,0.371298,-0.039389,49,277,591,6224
1644185709.618573,-0.009766,0.009766,-0.992676,0.175053,0.432366,-0.069924,49,275,582,6176
1644185709.667013,-0.007446,0.012207,-0.99176,0.022382,0.462901,-0.176794,47,282,582,6160
1644185709.715371,-0.00885,0.012573,-0.990173,0.175053,0.447634,-0.085191,51,274,585,6224
1644185709.763768,-0.007935,0.009827,-0.993347,0.159786,0.432366,-0.115725,46,288,580,6256
1644185709.812181,-0.010071,0.011475,-0.989258,0.251389,0.508702,-0.130992,49,268,586,6192
1644185709.860554,-0.006165,0.00946,-0.990784,0.159786,0.340763,0.067481,42,282,589,6224
1644185709.908952,-0.007996,0.011292,-0.991516,0.190321,0.356031,-0.192061,46,276,583,6240
1644185709.957314,-0.009644,0.011597,-0.991455,0.175053,0.310229,-0.039389,53,283,578,6224
1644185710.005733,-0.009277,0.008484,-0.990112,0.342992,0.356031,-0.069924,57,277,589,6240
1644185710.070135,-0.010559,0.009888,-0.988953,0.113985,0.233893,-0.14626,46,271,580,6176
1644185710.104902,-0.009888,0.009888,-0.993469,0.175053,0.417099,-0.100458,49,270,586,6224
1644185710.15088,-0.00708,0.007202,-0.99115,0.205588,0.569771,-0.14626,52,285,579,6192
1644185710.199265,-0.008362,0.007629,-0.993103,0.190321,0.310229,-0.085191,57,280,582,6224
1644185710.247627,-0.005188,0.006775,-0.992371,0.098718,0.340763,-0.130992,45,275,589,6176
1644185710.296051,-0.00708,0.012146,-0.990662,0.129252,0.417099,-0.085191,60,288,585,6224
1644185710.34444,-0.004517,0.013855,-0.991577,0.236122,0.417099,-0.130992,45,290,575,6240
1644185710.393078,-0.009094,0.009766,-0.99231,0.205588,0.310229,-0.054656,49,275,586,6224
1644185710.443689,-0.009399,0.008728,-0.990356,0.251389,0.432366,-0.14626,59,285,586,6256
1644185710.494123,-0.006714,0.008301,-0.988525,0.220855,0.432366,-0.130992,55,274,578,6240
1644185710.538714,-0.008118,0.010986,-0.99115,0.068183,0.310229,-0.14626,40,287,575,6192
1644185710.634953,-0.00946,0.010559,-0.992859,0.266656,0.432366,0.052214,48,266,585,6256
1644185710.683198,-0.007568,0.010254,-0.99292,0.266656,0.554504,-0.115725,55,279,583,6192
1644185710.731579,-0.008789,0.010803,-0.990051,0.052916,0.325496,-0.130992,48,264,578,6256
1644185710.779974,-0.008118,0.010132,-0.991211,0.236122,0.447634,-0.14626,41,279,587,6160
1644185710.829177,-0.008118,0.01123,-0.987915,0.190321,0.310229,0.006412,52,280,570,6256
1644185710.876796,-0.007202,0.010132,-0.989685,0.251389,0.386565,-0.069924,40,280,577,6304
1644185710.925224,-0.007996,0.008423,-0.990356,0.098718,0.523969,-0.176794,51,279,590,6176
1644185710.9736,-0.009155,0.010193,-0.988953,0.098718,0.310229,-0.207328,48,291,578,6160
1644185711.021974,-0.00531,0.00885,-0.989014,0.327725,0.523969,-0.039389,52,280,589,6224
1644185711.078859,-0.007874,0.012573,-0.989624,0.312458,0.523969,-0.069924,51,286,585,6176
1644185711.118711,-0.006287,0.009338,-0.989075,0.190321,0.478168,-0.192061,52,280,598,6240
1644185711.167118,-0.005798,0.012268,-0.988159,0.327725,0.432366,-0.100458,47,275,579,6240
1644185711.215501,-0.00885,0.01001,-0.991089,0.190321,0.417099,-0.207328,53,271,583,6224
1644185711.263899,-0.007629,0.009521,-0.988281,0.175053,0.356031,-0.039389,46,266,597,6176
1644185711.312315,-0.005798,0.01178,-0.988342,0.175053,0.325496,-0.161527,48,276,587,6256
1644185711.360686,-0.007568,0.012329,-0.992676,0.251389,0.401832,-0.069924,40,287,593,6192
1644185711.409094,-0.008301,0.00946,-0.990845,0.175053,0.340763,-0.14626,53,283,594,6304
1644185711.457493,-0.00885,0.01001,-0.991455,0.251389,0.493435,-0.283664,46,276,578,6192
1644185711.50585,-0.009216,0.011292,-0.988403,0.098718,0.432366,-0.069924,51,281,583,6160
1644185711.554623,-0.00592,0.008423,-0.988281,0.35826,0.478168,-0.100458,62,269,585,6256
1644185711.605157,-0.00647,0.011902,-0.992554,0.251389,0.432366,-0.192061,47,270,577,6192
1644185711.655313,-0.008423,0.012268,-0.992432,0.129252,0.203359,-0.268397,43,274,576,6160
1644185711.700392,-0.007446,0.012451,-0.992065,0.236122,0.493435,-0.085191,48,271,590,6224
1644185711.796206,-0.009827,0.010986,-0.992249,0.373527,0.569771,-0.192061,46,288,585,6128
1644185711.844905,-0.007141,0.010864,-0.987976,0.129252,0.432366,-0.130992,46,276,580,6256
1644185711.893059,-0.003662,0.011353,-0.99054,0.236122,0.340763,-0.115725,58,276,587,6224
1644185711.941442,-0.010193,0.011841,-0.991638,0.022382,0.371298,-0.085191,43,281,585,6112
1644185711.989838,-0.007568,0.007568,-0.987976,0.159786,0.508702,-0.222595,46,279,590,6224
1644185712.03822,-0.007446,0.013367,-0.990173,0.205588,0.218626,0.021679,47,277,589,6240
1644185712.093765,-0.008301,0.011292,-0.989746,0.205588,0.508702,-0.207328,46,281,583,6240
1644185712.135123,-0.007385,0.009216,-0.989014,0.236122,0.508702,-0.237863,48,293,576,6240
1644185712.183378,-0.009033,0.009583,-0.989441,0.342992,0.264427,-0.115725,47,275,586,6224
1644185712.231764,-0.005798,0.013306,-0.99054,0.327725,0.554504,-0.024122,45,277,584,6224
1644185712.280128,-0.006104,0.01178,-0.990723,0.312458,0.493435,-0.069924,47,260,584,6240
1644185712.328547,-0.006653,0.011475,-0.990112,0.129252,0.371298,-0.085191,52,275,586,6192
1644185712.377067,-0.007385,0.009338,-0.990723,0.129252,0.447634,-0.085191,55,274,592,6240
1644185712.425926,-0.006531,0.009827,-0.991394,0.144519,0.447634,-0.069924,54,280,589,6192
1644185712.476484,-0.00708,0.012085,-0.989563,0.098718,0.478168,-0.024122,55,286,585,6256
1644185712.526549,-0.006409,0.011047,-0.991272,0.419328,0.386565,-0.207328,58,279,583,6224
1644185712.571621,-0.010681,0.011475,-0.992126,0.220855,0.264427,-0.25313,49,270,586,6224
1644185712.667281,-0.00824,0.009827,-0.993164,0.068183,0.432366,-0.024122,51,279,590,6224
1644185712.715671,-0.004639,0.010437,-0.990845,0.205588,0.279695,-0.008855,60,271,592,6240
1644185712.764082,-0.009277,0.010376,-0.992188,0.190321,0.447634,-0.207328,51,276,583,6256
1644185712.81267,-0.007751,0.010193,-0.990845,0.449863,0.371298,-0.130992,45,273,584,6240
1644185712.860904,-0.007385,0.010498,-0.99054,0.190321,0.432366,-0.054656,58,274,576,6288
1644185712.909298,-0.00824,0.010681,-0.98999,0.342992,0.218626,-0.100458,46,271,585,6288
1644185712.957691,-0.009888,0.008972,-0.992554,0.297191,0.432366,-0.054656,39,269,580,6176
1644185713.006097,-0.005737,0.009644,-0.99115,0.342992,0.417099,-0.161527,43,262,585,6240
1644185713.067451,-0.009644,0.008057,-0.992493,0.327725,0.462901,-0.069924,60,274,578,6192
1644185713.103533,-0.00885,0.00885,-0.987366,0.342992,0.523969,-0.298931,61,282,579,6240
1644185713.151227,-0.00769,0.008057,-0.990845,0.144519,0.371298,0.052214,55,276,585,6240
1644185713.199623,-0.008667,0.009583,-0.992859,0.251389,0.340763,-0.039389,57,287,589,6176
1644185713.248029,-0.009033,0.012573,-0.992615,0.266656,0.279695,-0.130992,51,271,583,6224
1644185713.296407,-0.008301,0.010986,-0.989807,0.236122,0.340763,-0.192061,52,277,582,6224
1644185713.344806,-0.007263,0.012573,-0.989319,0.236122,0.325496,-0.130992,54,280,582,6240
1644185713.393191,-0.007568,0.009277,-0.990479,0.175053,0.508702,-0.161527,42,270,579,6160
1644185713.441583,-0.008728,0.009827,-0.990906,0.113985,0.325496,-0.054656,45,277,584,6176
1644185713.48999,-0.008423,0.01062,-0.989929,0.373527,0.523969,-0.207328,42,273,577,6240
1644185713.538656,-0.005676,0.012146,-0.990051,0.098718,0.325496,-0.192061,43,274,576,6176
1644185713.589113,-0.008484,0.011475,-0.988403,0.297191,0.585038,-0.14626,57,275,589,6192
1644185713.639383,-0.005432,0.010986,-0.991211,0.190321,0.432366,-0.069924,55,276,580,6224
1644185713.68426,-0.006042,0.01062,-0.990601,0.281924,0.356031,-0.176794,61,275,586,6176
1644185713.78033,-0.005371,0.012451,-0.991516,0.404061,0.447634,-0.100458,54,275,582,6240
1644185713.828718,-0.007507,0.013184,-0.991516,0.312458,0.417099,-0.008855,54,273,589,6224
1644185713.877157,-0.00769,0.011353,-0.98877,0.190321,0.386565,-0.100458,53,279,587,6128
1644185713.92556,-0.008362,0.01001,-0.989746,0.220855,0.523969,-0.054656,55,283,585,6240
1644185713.973958,-0.007507,0.010315,-0.989685,0.266656,0.462901,-0.085191,42,273,596,6240
1644185714.02237,-0.009766,0.009888,-0.99176,0.144519,0.371298,-0.161527,43,283,580,6192
1644185714.073286,-0.003052,0.009827,-0.990479,0.08345,0.386565,0.021679,52,270,582,6192
1644185714.119117,-0.009705,0.009766,-0.989258,0.159786,0.279695,-0.069924,59,273,586,6224
1644185714.167477,-0.006775,0.009705,-0.988098,0.113985,0.325496,-0.069924,48,262,590,6224
1644185714.215879,-0.00647,0.010742,-0.989441,0.251389,0.508702,-0.192061,51,279,573,6256
1644185714.264261,-0.004517,0.012207,-0.992004,0.281924,0.417099,-0.130992,51,281,592,6224
1644185714.312667,-0.007874,0.011658,-0.99054,0.297191,0.218626,-0.008855,46,264,585,6288
1644185714.361055,-0.006836,0.013,-0.989929,0.312458,0.478168,-0.130992,46,283,573,6160
1644185714.409448,-0.009705,0.011902,-0.989807,0.266656,0.233893,-0.130992,55,276,578,6176
1644185714.457828,-0.008972,0.010437,-0.992432,-0.008153,0.386565,-0.207328,45,270,593,6240
1644185714.506198,-0.007935,0.011414,-0.989197,0.190321,0.462901,-0.115725,43,279,580,6256
1644185714.55475,-0.006653,0.012512,-0.992004,0.297191,0.615573,-0.161527,47,268,584,6224
1644185714.603031,-0.008972,0.011536,-0.991638,0.236122,0.325496,-0.008855,57,275,586,6288
1644185714.651419,-0.006409,0.010376,-0.990234,0.327725,0.508702,-0.192061,39,271,580,6224
1644185714.699841,-0.005493,0.012817,-0.993225,0.281924,0.386565,-0.069924,53,274,576,6192
1644185714.750173,-0.008423,0.011536,-0.992004,0.159786,0.478168,-0.115725,47,270,584,6192
1644185714.800584,-0.005127,0.008667,-0.991699,0.220855,0.371298,0.006412,45,280,582,6224
1644185714.846102,-0.007751,0.008423,-0.989929,0.007115,0.371298,-0.130992,42,270,593,6176
1644185714.941808,-0.004883,0.00946,-0.98999,0.220855,0.462901,-0.176794,52,273,584,6224
1644185714.990169,-0.006836,0.01062,-0.990784,0.266656,0.294962,-0.024122,47,280,586,6256
1644185715.038592,-0.009827,0.014771,-0.989197,0.312458,0.310229,-0.192061,58,276,580,6240
1644185715.087232,-0.009949,0.010803,-0.988464,0.327725,0.447634,-0.14626,48,286,590,6240
1644185715.135385,-0.006836,0.01239,-0.991028,0.205588,0.462901,-0.069924,52,273,584,6160
1644185715.183743,-0.007385,0.011719,-0.993164,0.144519,0.508702,-0.130992,43,264,590,6176
1644185715.232172,-0.006042,0.009094,-0.99231,0.266656,0.478168,-0.054656,47,265,586,6256
1644185715.280518,-0.008972,0.010315,-0.991699,0.220855,0.417099,-0.100458,39,279,576,6176
1644185715.328914,-0.010559,0.011169,-0.988525,0.098718,0.447634,-0.069924,52,282,582,6256
1644185715.377303,-0.008057,0.01001,-0.991516,0.159786,0.462901,-0.207328,48,276,585,6192
1644185715.425693,-0.008728,0.010498,-0.992859,0.129252,0.432366,-0.115725,48,281,578,6224
1644185715.474095,-0.006409,0.011597,-0.991882,-0.099756,0.310229,-0.283664,46,279,583,6240
1644185715.522498,-0.009094,0.011963,-0.989685,0.342992,0.417099,-0.222595,54,275,584,6256
1644185715.570875,-0.007629,0.009583,-0.98938,0.236122,0.478168,-0.130992,54,292,582,6224
1644185715.619268,-0.008118,0.010559,-0.989685,0.190321,0.493435,-0.192061,60,276,594,6224
1644185715.667657,-0.004883,0.012939,-0.992615,0.449863,0.478168,-0.130992,55,283,573,6224
1644185715.716053,-0.008057,0.007751,-0.990051,0.205588,0.371298,-0.100458,51,281,583,6128
1644185715.764446,-0.005981,0.011169,-0.986572,0.144519,0.325496,-0.130992,45,277,575,6224
1644185715.812859,-0.007874,0.011841,-0.989929,0.144519,0.325496,-0.222595,57,277,577,6288
1644185715.861638,-0.010559,0.012695,-0.991455,0.312458,0.279695,-0.069924,39,271,597,6192
1644185715.912939,-0.00647,0.009827,-0.993286,0.404061,0.371298,-0.130992,54,268,591,6224
1644185715.963416,-0.008118,0.010559,-0.991943,0.236122,0.417099,-0.085191,45,277,577,6224
1644185716.069858,-0.006531,0.011169,-0.989441,0.205588,0.356031,-0.344733,57,282,582,6176
1644185716.105539,-0.009644,0.011963,-0.992004,0.205588,0.386565,-0.176794,58,288,585,6176
1644185716.151632,-0.007202,0.012085,-0.994141,-0.069221,0.401832,-0.039389,54,273,596,6224
1644185716.199981,-0.00769,0.010376,-0.989502,0.190321,0.508702,-0.085191,51,276,597,6224
1644185716.248388,-0.010376,0.012329,-0.992065,0.205588,0.157557,-0.069924,48,274,576,6240
1644185716.296768,-0.008728,0.010071,-0.991516,0.068183,0.386565,-0.085191,52,273,591,6176
1644185716.345174,-0.008545,0.009888,-0.990112,0.251389,0.462901,-0.069924,42,270,577,6224
1644185716.393559,-0.006958,0.011475,-0.992981,0.129252,0.340763,-0.161527,40,282,591,6192
1644185716.441952,-0.01001,0.012512,-0.98822,0.251389,0.356031,-0.100458,40,275,589,6240
1644185716.490354,-0.010986,0.012085,-0.992981,0.297191,0.340763,-0.115725,57,275,584,6176
1644185716.538741,-0.011536,0.010559,-0.992126,0.113985,0.523969,-0.25313,46,266,590,6224
1644185716.587358,-0.006958,0.00946,-0.994324,0.404061,0.523969,0.036947,45,277,586,6224
1644185716.637591,-0.007996,0.010132,-0.991577,0.007115,0.294962,-0.069924,49,277,572,6192
1644185716.687884,-0.011414,0.010437,-0.990173,0.236122,0.493435,-0.100458,43,271,590,6256
1644185716.73277,-0.004517,0.011353,-0.991272,0.281924,0.356031,-0.039389,46,269,583,6192
1644185716.829066,-0.010559,0.011169,-0.993347,-0.038687,0.356031,-0.100458,52,273,575,6224
1644185716.877457,-0.01001,0.012085,-0.990662,0.297191,0.325496,-0.054656,51,269,590,6224
1644185716.925906,-0.005615,0.007812,-0.990784,0.190321,0.478168,-0.222595,45,268,584,6240
1644185716.974312,-0.006042,0.008667,-0.990601,0.236122,0.340763,-0.237863,48,276,580,6176
1644185717.02268,-0.009033,0.007935,-0.993347,0.129252,0.325496,-0.130992,48,274,580,6128
1644185717.074712,-0.011353,0.009766,-0.989441,0.190321,0.432366,-0.130992,53,274,590,6224
1644185717.119426,-0.009827,0.008972,-0.98877,0.037649,0.417099,-0.115725,54,280,591,6240
1644185717.167856,-0.006714,0.008057,-0.988892,0.251389,0.310229,-0.14626,52,273,582,6224
1644185717.216244,-0.008118,0.010254,-0.989807,0.129252,0.401832,-0.14626,47,287,586,6224
1644185717.264702,-0.006653,0.012329,-0.992798,0.236122,0.386565,-0.069924,64,282,577,6224
1644185717.313006,-0.005859,0.010132,-0.99115,0.129252,0.401832,-0.039389,47,275,586,6224
1644185717.361416,-0.010864,0.00946,-0.993896,0.159786,0.508702,-0.100458,45,287,577,6176
1644185717.409803,-0.008728,0.008972,-0.990295,0.449863,0.462901,-0.100458,42,280,591,6240
1644185717.458207,-0.006775,0.008728,-0.989502,0.220855,0.264427,-0.130992,47,280,586,6176
1644185717.506566,-0.005066,0.010742,-0.992188,0.113985,0.401832,0.006412,53,286,580,6192
1644185717.555031,-0.006165,0.009888,-0.990723,0.297191,0.325496,-0.085191,46,271,580,6224
1644185717.603419,-0.006409,0.012085,-0.988037,0.266656,0.508702,-0.008855,39,274,592,6192
1644185717.651772,-0.009094,0.011719,-0.99054,0.098718,0.340763,-0.176794,46,279,583,6192
1644185717.700164,-0.008728,0.013062,-0.989807,0.190321,0.279695,0.036947,60,271,590,6192
1644185717.748582,-0.00769,0.012512,-0.991028,0.236122,0.417099,-0.298931,41,271,590,6224
1644185717.799108,-0.007385,0.010803,-0.988647,0.159786,0.447634,-0.024122,52,277,596,6224
1644185717.850059,-0.008911,0.008667,-0.992859,0.205588,0.325496,0.098015,48,271,580,6304
1644185717.894809,-0.007446,0.010254,-0.992798,0.175053,0.371298,0.006412,41,281,573,6160
1644185717.990553,-0.007874,0.011475,-0.989319,0.266656,0.417099,-0.024122,48,269,590,6240
1644185718.038944,-0.007996,0.009521,-0.990479,0.129252,0.233893,-0.085191,43,279,585,6128
1644185718.087659,-0.008301,0.009705,-0.989319,0.205588,0.340763,-0.085191,52,282,586,6224
1644185718.135699,-0.007935,0.013672,-0.992065,0.113985,0.371298,-0.237863,41,279,580,6224
1644185718.184094,-0.007507,0.012329,-0.988342,0.159786,0.432366,-0.115725,46,276,580,6224
1644185718.232502,-0.006165,0.010803,-0.990784,0.236122,0.432366,-0.237863,52,273,577,6224
1644185718.280863,-0.007751,0.012512,-0.991577,0.251389,0.493435,-0.161527,51,281,590,6128
1644185718.329266,-0.008911,0.008972,-0.988892,0.098718,0.401832,-0.039389,58,283,571,6224
1644185718.377656,-0.005981,0.014954,-0.989014,0.373527,0.401832,0.067481,40,280,582,6176
1644185718.426059,-0.007141,0.010315,-0.988831,0.175053,0.356031,-0.069924,53,276,587,6176
1644185718.474469,-0.008972,0.009094,-0.990967,0.297191,0.417099,-0.222595,45,275,591,6128
1644185718.52286,-0.009705,0.012634,-0.990417,0.190321,0.386565,-0.130992,47,280,584,6192
1644185718.571252,-0.008606,0.010132,-0.989319,0.144519,0.233893,-0.100458,41,281,580,6160
1644185718.619628,-0.007385,0.007874,-0.99054,0.144519,0.493435,-0.100458,59,275,582,6224
1644185718.668021,-0.008911,0.011841,-0.990967,0.297191,0.539237,-0.298931,48,279,583,6224
1644185718.716421,-0.009766,0.008606,-0.989807,0.144519,0.493435,-0.054656,46,271,585,6128
1644185718.764816,-0.006958,0.010071,-0.992859,0.220855,0.554504,-0.207328,48,283,585,6160
1644185718.81325,-0.008118,0.00946,-0.988647,0.175053,0.432366,-0.085191,47,275,582,6192
1644185718.861647,-0.007324,0.010803,-0.99353,0.297191,0.417099,-0.085191,47,258,577,6176
1644185718.91075,-0.007812,0.009155,-0.989441,0.220855,0.523969,0.021679,53,271,587,6192
1644185718.9614,-0.006348,0.011841,-0.992737,0.236122,0.539237,-0.100458,49,273,596,6192
1644185719.064833,-0.006836,0.009338,-0.987366,0.190321,0.462901,-0.130992,41,276,587,6224
1644185719.105319,-0.007324,0.008423,-0.991516,0.190321,0.356031,-0.069924,57,277,598,6240
1644185719.151952,-0.008484,0.011292,-0.989746,0.251389,0.386565,-0.207328,39,274,592,6176
1644185719.200327,-0.007202,0.011353,-0.988647,0.175053,0.417099,-0.039389,42,270,582,6224
1644185719.248712,-0.009583,0.010132,-0.991211,0.281924,0.294962,-0.069924,52,285,582,6224
1644185719.297123,-0.007446,0.010681,-0.992432,0.297191,0.401832,-0.100458,54,287,582,6160
1644185719.345518,-0.008606,0.009766,-0.989868,0.251389,0.386565,-0.176794,58,291,592,6128
1644185719.393938,-0.00592,0.010071,-0.991455,0.205588,0.447634,-0.115725,46,281,594,6224
1644185719.442324,-0.007263,0.008545,-0.991394,0.144519,0.340763,-0.100458,46,288,585,6128
1644185719.490717,-0.009155,0.009399,-0.990967,0.220855,0.432366,-0.039389,46,274,585,6224
1644185719.539091,-0.007446,0.010376,-0.990173,0.175053,0.340763,-0.100458,45,280,589,6192
1644185719.587489,-0.005859,0.01178,-0.989075,0.281924,0.447634,-0.024122,47,282,582,6224
1644185719.635882,-0.007935,0.011475,-0.992554,0.297191,0.401832,-0.024122,41,274,585,6224
1644185719.684274,-0.006042,0.012329,-0.992126,0.266656,0.279695,-0.130992,58,283,585,6224
1644185719.732924,-0.007874,0.010925,-0.990173,0.144519,0.478168,-0.14626,52,265,584,6192
1644185719.783579,-0.006836,0.011536,-0.99054,0.175053,0.401832,-0.161527,47,280,582,6240
1644185719.83499,-0.006897,0.008179,-0.991516,0.220855,0.340763,-0.054656,48,269,583,6256
1644185719.879084,-0.006775,0.009521,-0.991943,0.220855,0.386565,-0.100458,54,275,577,6224
1644185719.974895,-0.009399,0.009277,-0.989624,0.281924,0.478168,-0.115725,48,283,583,6192
1644185720.023078,-0.004883,0.009399,-0.986877,0.175053,0.371298,0.067481,48,266,578,6240
1644185720.075301,-0.008606,0.009277,-0.988525,0.022382,0.24916,-0.100458,51,276,585,6224
1644185720.119842,-0.008484,0.013062,-0.989807,0.190321,0.508702,-0.130992,43,276,594,6160
1644185720.168212,-0.006287,0.009644,-0.99054,0.068183,0.585038,0.052214,49,280,582,6240
1644185720.216592,-0.006836,0.009644,-0.988892,0.159786,0.478168,-0.039389,47,280,577,6224
1644185720.265035,-0.006165,0.009949,-0.990356,0.190321,0.432366,-0.100458,49,273,579,6224
1644185720.313384,-0.00531,0.011475,-0.988586,0.159786,0.401832,-0.130992,49,273,593,6256
1644185720.36177,-0.007385,0.009521,-0.992554,0.327725,0.325496,-0.207328,47,285,579,6176
1644185720.410172,-0.00824,0.011658,-0.989868,0.159786,0.111756,-0.039389,52,277,582,6240
1644185720.45854,-0.008057,0.00946,-0.992798,0.220855,0.310229,0.052214,57,273,579,6192
1644185720.506953,-0.008667,0.009827,-0.990112,0.35826,0.523969,-0.024122,51,286,583,6256
1644185720.555356,-0.00769,0.010803,-0.991089,0.190321,0.493435,-0.207328,49,282,591,6176
1644185720.603727,-0.01178,0.011292,-0.988953,0.190321,0.325496,-0.069924,53,274,580,6176
1644185720.652234,-0.008423,0.013184,-0.989868,0.068183,0.432366,-0.207328,49,275,589,6224
1644185720.700528,-0.007446,0.010742,-0.993347,0.342992,0.356031,-0.054656,43,271,592,6128
1644185720.748921,-0.005493,0.010681,-0.989197,0.144519,0.279695,-0.25313,46,274,580,6256
1644185720.797318,-0.007507,0.013245,-0.990295,0.281924,0.493435,0.006412,43,269,585,6240
1644185720.84581,-0.008118,0.010986,-0.991821,0.144519,0.523969,-0.008855,47,270,584,6224
1644185720.896088,-0.00592,0.012207,-0.988953,0.35826,0.325496,-0.237863,45,275,584,6224
1644185720.947079,-0.007812,0.011292,-0.991516,0.251389,0.371298,-0.039389,47,270,596,6176
1644185720.996267,-0.006409,0.009949,-0.991089,0.327725,0.371298,-0.024122,49,270,577,6224
1644185721.040679,-0.006775,0.012451,-0.990051,0.373527,0.462901,-0.192061,38,285,593,6224
1644185721.136106,-0.006348,0.010742,-0.990967,0.190321,0.401832,-0.237863,49,275,582,6224
1644185721.184471,-0.008301,0.009338,-0.988098,0.236122,0.493435,-0.207328,46,274,587,6176
1644185721.232851,-0.006348,0.012695,-0.990417,0.266656,0.233893,0.036947,57,280,579,6128
1644185721.281237,-0.00885,0.010437,-0.99054,0.159786,0.401832,-0.14626,45,280,589,6176
1644185721.329613,-0.006226,0.012268,-0.989929,0.205588,0.417099,-0.130992,51,276,580,6192
1644185721.378033,-0.008911,0.012268,-0.990601,0.175053,0.417099,-0.069924,49,275,582,6240
1644185721.426408,-0.00885,0.012329,-0.989502,0.220855,0.432366,-0.161527,49,277,579,6240
1644185721.474833,-0.006653,0.011414,-0.992004,0.251389,0.432366,0.052214,52,265,586,6224
1644185721.523205,-0.006409,0.00769,-0.989868,0.251389,0.432366,-0.069924,57,285,582,6224
1644185721.571614,-0.006836,0.011536,-0.991821,0.236122,0.371298,0.067481,53,279,585,6192
1644185721.619994,-0.007324,0.010437,-0.991089,0.098718,0.325496,-0.054656,49,270,575,6224
1644185721.668388,-0.006592,0.01001,-0.989807,0.236122,0.24916,-0.100458,55,276,587,6128
1644185721.716761,-0.006714,0.012146,-0.990356,0.08345,0.478168,-0.008855,46,271,587,6240
1644185721.765216,-0.007263,0.011536,-0.990295,0.251389,0.432366,-0.130992,51,274,578,6192
1644185721.813565,-0.005554,0.011292,-0.989868,0.08345,0.478168,0.052214,51,279,585,6160
1644185721.86198,-0.008667,0.011719,-0.989502,0.35826,0.325496,-0.130992,61,282,593,6224
1644185721.910389,-0.004272,0.010803,-0.990967,0.327725,0.432366,-0.207328,54,273,582,6224
1644185721.9591,-0.005188,0.010498,-0.989807,0.190321,0.478168,-0.115725,48,279,580,6224
1644185722.007189,-0.007263,0.013,-0.988953,0.526198,0.508702,-0.222595,52,275,591,6224
1644185722.08101,-0.009399,0.010437,-0.990417,0.007115,0.462901,-0.069924,58,266,585,6240
1644185722.114292,-0.006897,0.009766,-0.992371,0.266656,0.417099,-0.192061,43,271,583,6192
1644185722.152783,-0.003052,0.010437,-0.989624,0.175053,0.264427,-0.25313,59,275,579,6240
1644185722.249076,-0.008789,0.014038,-0.991089,0.129252,0.447634,-0.069924,46,281,583,6240
1644185722.297471,-0.006226,0.011414,-0.988159,0.144519,0.401832,-0.115725,45,273,586,6288
1644185722.345861,-0.007996,0.012634,-0.990479,0.190321,0.569771,-0.054656,49,277,593,6240
1644185722.394286,-0.006592,0.012146,-0.991455,0.052916,0.310229,-0.298931,39,276,585,6192
1644185722.442677,-0.005188,0.011963,-0.99054,0.205588,0.417099,-0.008855,49,277,584,6240
1644185722.491066,-0.005371,0.011841,-0.987549,0.205588,0.462901,-0.192061,47,275,579,6240
1644185722.539459,-0.006165,0.010071,-0.990173,0.052916,0.340763,-0.192061,47,280,582,6224
1644185722.587857,-0.006165,0.011475,-0.988159,0.205588,0.401832,-0.069924,42,275,593,6240
1644185722.636252,-0.002319,0.011414,-0.989746,0.312458,0.401832,-0.100458,42,277,586,6224
1644185722.684709,-0.008972,0.012512,-0.988953,0.327725,0.447634,-0.024122,48,271,580,6176
1644185722.733041,-0.005371,0.009705,-0.992493,0.159786,0.279695,-0.207328,49,280,575,6224
1644185722.78139,-0.009644,0.01062,-0.988586,0.373527,0.386565,-0.222595,53,279,583,6192
1644185722.829829,-0.005981,0.011475,-0.990295,0.113985,0.310229,-0.054656,51,276,580,6176
1644185722.878253,-0.00647,0.010803,-0.990356,0.297191,0.356031,-0.25313,57,277,586,6224
1644185722.926643,-0.006409,0.010742,-0.990173,0.327725,0.386565,-0.14626,41,269,592,6224
1644185722.975073,-0.006836,0.01178,-0.988342,0.312458,0.401832,-0.14626,51,279,585,6192
1644185723.023428,-0.005554,0.010986,-0.990723,0.251389,0.447634,-0.130992,49,277,586,6240
1644185723.095484,-0.00824,0.01123,-0.989624,0.08345,0.478168,-0.130992,52,277,591,6224
1644185723.125312,-0.006775,0.008545,-0.990662,0.159786,0.325496,-0.069924,47,275,593,6224
1644185723.169821,-0.008118,0.010803,-0.991089,0.159786,0.493435,-0.115725,53,281,592,6224
1644185723.265379,-0.00824,0.011597,-0.992371,0.266656,0.386565,-0.039389,55,281,578,6160
1644185723.313757,-0.00824,0.009705,-0.98938,0.175053,0.417099,-0.024122,49,277,579,6224
1644185723.362385,-0.007874,0.011841,-0.989502,0.190321,0.356031,-0.024122,43,269,583,6224
1644185723.410503,-0.006897,0.01062,-0.989136,0.266656,0.310229,-0.024122,39,276,587,6224
1644185723.458917,-0.009033,0.009827,-0.989014,0.297191,0.478168,-0.054656,42,285,577,6192
1644185723.507294,-0.007751,0.009338,-0.993958,0.175053,0.432366,-0.36,45,277,582,6192
1644185723.5557,-0.006958,0.013367,-0.991638,0.388794,0.264427,0.052214,45,277,579,6192
1644185723.604106,-0.007935,0.011475,-0.989014,0.236122,0.386565,-0.192061,51,271,590,6224
1644185723.652484,-0.006104,0.009155,-0.994934,0.220855,0.462901,-0.100458,52,277,584,6192
1644185723.700886,-0.006714,0.010559,-0.991333,0.129252,0.401832,-0.237863,52,280,586,6176
1644185723.749258,-0.009521,0.009583,-0.989319,0.236122,0.478168,-0.069924,55,274,580,6240
1644185723.797678,-0.00592,0.010864,-0.991516,0.190321,0.432366,-0.100458,42,275,582,6224
1644185723.846071,-0.006592,0.012451,-0.989258,0.266656,0.508702,-0.054656,40,275,577,6176
1644185723.894512,-0.006714,0.009949,-0.992126,0.205588,0.310229,-0.14626,60,276,599,6224
1644185723.942897,-0.005981,0.00824,-0.990417,0.297191,0.493435,-0.115725,52,280,582,6224
1644185723.991291,-0.006592,0.007629,-0.990662,0.434595,0.462901,0.006412,42,265,593,6240
1644185724.039671,-0.007141,0.012207,-0.992126,0.175053,0.508702,-0.192061,53,281,580,6224
1644185724.090609,-0.009705,0.008728,-0.98761,0.251389,0.401832,-0.130992,57,270,586,6240
1644185724.136439,-0.008484,0.010193,-0.992004,0.236122,0.340763,-0.069924,55,276,590,6240
1644185724.185405,-0.00708,0.011047,-0.991272,0.281924,0.401832,0.006412,48,274,597,6224
1644185724.236079,-0.007812,0.009277,-0.992249,0.35826,0.371298,-0.054656,52,273,577,6224
1644185724.286217,-0.007568,0.009216,-0.991394,0.098718,0.386565,-0.176794,53,274,580,6160
1644185724.331204,-0.006104,0.009827,-0.991394,0.297191,0.462901,-0.085191,39,276,578,6224
1644185724.426778,-0.007751,0.010254,-0.990051,0.220855,0.310229,-0.115725,41,279,583,6224
1644185724.475368,-0.009705,0.01123,-0.992737,0.205588,0.447634,-0.085191,52,273,586,6224
1644185724.523579,-0.008118,0.011841,-0.99054,0.175053,0.264427,-0.192061,55,271,580,6240
1644185724.57195,-0.004456,0.009216,-0.989441,0.297191,0.417099,-0.100458,46,274,587,6304
1644185724.62035,-0.00592,0.010315,-0.988708,0.220855,0.523969,-0.207328,48,279,569,6240
1644185724.668718,-0.008484,0.009949,-0.989319,0.220855,0.462901,-0.115725,47,277,589,6240
1644185724.717139,-0.007935,0.011169,-0.990356,0.297191,0.462901,-0.14626,47,277,586,6256
1644185724.765519,-0.010437,0.009705,-0.993713,0.220855,0.264427,-0.14626,51,271,576,6256
1644185724.813975,-0.009277,0.011292,-0.990723,0.236122,0.386565,-0.161527,48,274,583,6224
1644185724.862359,-0.005676,0.011963,-0.987854,0.220855,0.386565,-0.100458,49,270,591,6224
1644185724.910758,-0.007324,0.008728,-0.992981,0.098718,0.417099,-0.054656,60,279,573,6304
1644185724.959139,-0.009521,0.013,-0.991455,0.266656,0.371298,0.143817,41,286,594,6176
1644185725.00752,-0.007385,0.011169,-0.988342,0.419328,0.325496,0.052214,62,271,597,6224
1644185725.068394,-0.005005,0.011902,-0.991455,0.129252,0.279695,-0.130992,46,266,583,6240
1644185725.104313,-0.00824,0.011475,-0.992065,0.266656,0.447634,-0.054656,52,282,582,6192
1644185725.152677,-0.004272,0.01178,-0.988892,0.205588,0.493435,-0.069924,46,276,583,6224
1644185725.201071,-0.004456,0.013,-0.990784,0.022382,0.325496,-0.222595,53,281,597,6240
1644185725.249431,-0.009583,0.011047,-0.990906,0.175053,0.264427,-0.115725,62,276,580,6192
1644185725.298271,-0.009644,0.008301,-0.988953,0.297191,0.417099,-0.130992,58,274,583,6192
1644185725.346751,-0.006958,0.011169,-0.990723,0.190321,0.188092,-0.192061,54,277,579,6256
1644185725.3973,-0.006592,0.011475,-0.990601,0.388794,0.386565,-0.130992,54,273,586,6240
1644185725.447392,-0.00769,0.010315,-0.991272,0.220855,0.401832,0.006412,52,265,579,6176
1644185725.492904,-0.008728,0.011108,-0.989746,0.220855,0.493435,-0.192061,58,286,585,6192
1644185725.588192,-0.006958,0.012207,-0.989624,0.205588,0.417099,0.067481,52,270,582,6192
1644185725.636582,-0.007385,0.009827,-0.989197,0.144519,0.325496,0.021679,58,276,592,6192
1644185725.685245,-0.005249,0.010498,-0.990845,0.190321,0.356031,-0.298931,53,281,585,6240
1644185725.73338,-0.00946,0.011658,-0.989868,0.113985,0.447634,-0.054656,43,279,583,6160
1644185725.781781,-0.007507,0.008606,-0.99054,0.251389,0.478168,-0.008855,49,273,582,6288
1644185725.830222,-0.006042,0.014648,-0.989197,0.236122,0.417099,-0.024122,51,269,580,6176
1644185725.87861,-0.005798,0.014343,-0.995178,0.113985,0.539237,-0.130992,51,271,585,6176
1644185725.927004,-0.008789,0.010193,-0.991028,0.251389,0.447634,-0.115725,48,264,585,6224
1644185725.975384,-0.00824,0.012573,-0.991638,0.251389,0.294962,-0.039389,48,286,573,6176
1644185726.023803,-0.008728,0.012451,-0.992126,0.312458,0.600305,-0.115725,45,273,582,6192
1644185726.075981,-0.008362,0.014832,-0.989868,0.175053,0.325496,-0.100458,46,274,585,6256
1644185726.120548,-0.006104,0.012329,-0.990601,0.312458,0.462901,-0.054656,51,283,578,6176
1644185726.168917,-0.011475,0.012024,-0.990112,0.190321,0.417099,-0.085191,48,266,585,6192
1644185726.217325,-0.005859,0.014648,-0.991638,0.159786,0.462901,-0.039389,45,273,589,6256
1644185726.265711,-0.00885,0.010742,-0.989563,0.129252,0.447634,-0.054656,49,287,589,6224
1644185726.314109,-0.006714,0.01178,-0.990234,0.113985,0.356031,-0.024122,53,281,587,6224
1644185726.362518,-0.00769,0.009705,-0.990356,0.236122,0.401832,-0.039389,42,273,591,6160
1644185726.41089,-0.007446,0.012024,-0.990112,0.327725,0.294962,-0.039389,55,283,592,6224
1644185726.459288,-0.005981,0.01178,-0.992615,0.098718,0.340763,-0.008855,43,274,583,6176
1644185726.507881,-0.00592,0.010132,-0.989075,0.175053,0.340763,-0.054656,47,282,579,6224
1644185726.55846,-0.009033,0.011902,-0.991455,0.068183,0.432366,-0.14626,53,279,587,6224
1644185726.608438,-0.006531,0.009338,-0.989563,0.266656,0.478168,-0.14626,48,283,583,6176
1644185726.653491,-0.010071,0.010986,-0.989563,0.205588,0.432366,-0.222595,54,265,586,6256
1644185726.749629,-0.008911,0.011658,-0.991821,0.236122,0.340763,-0.008855,54,273,591,6224
1644185726.798011,-0.005676,0.01239,-0.989563,0.175053,0.294962,-0.268397,51,276,587,6176
1644185726.846445,-0.006897,0.011108,-0.99176,0.068183,0.371298,-0.054656,52,273,575,6176
1644185726.894862,-0.008972,0.013733,-0.98999,0.266656,0.401832,-0.069924,54,280,575,6224
1644185726.943266,-0.007324,0.013733,-0.991821,0.281924,0.325496,-0.237863,54,285,584,6224
1644185726.991655,-0.009521,0.011353,-0.991577,0.236122,0.386565,-0.14626,49,268,577,6240
1644185727.040045,-0.008301,0.012451,-0.989136,0.251389,0.371298,-0.054656,49,275,584,6224
1644185727.094176,-0.008301,0.010254,-0.988831,0.175053,0.264427,-0.176794,55,276,590,6224
1644185727.136793,-0.008179,0.007507,-0.993835,0.052916,0.279695,-0.039389,39,274,578,6128
1644185727.185251,-0.006042,0.011719,-0.991089,0.251389,0.325496,-0.161527,47,282,586,6160
1644185727.233566,-0.007507,0.012573,-0.990356,0.129252,0.478168,-0.039389,43,274,594,6256
1644185727.281962,-0.007568,0.012085,-0.990967,0.312458,0.417099,-0.207328,54,280,586,6224
1644185727.330408,-0.006897,0.009705,-0.990356,0.251389,0.462901,-0.192061,43,286,587,6240
1644185727.378749,-0.006226,0.013794,-0.989136,0.251389,0.523969,-0.069924,49,282,579,6160
1644185727.427362,-0.00647,0.010864,-0.99115,0.175053,0.386565,-0.207328,51,279,578,6240
1644185727.477922,-0.008972,0.010071,-0.988037,0.205588,0.432366,-0.207328,47,277,584,6192
1644185727.528042,-0.007935,0.011353,-0.988342,0.113985,0.493435,0.021679,57,273,584,6160
1644185727.5731,-0.007568,0.009094,-0.99176,0.190321,0.371298,-0.024122,57,282,584,6224
1644185727.669084,-0.007141,0.010315,-0.992859,0.266656,0.325496,-0.085191,48,276,576,6160
1644185727.717487,-0.008118,0.009888,-0.988586,0.251389,0.356031,-0.161527,51,274,583,6192
1644185727.765872,-0.005005,0.012634,-0.989075,0.205588,0.478168,-0.14626,53,286,578,6240
1644185727.814302,-0.008118,0.010071,-0.990112,0.159786,0.417099,-0.161527,42,268,584,6224
1644185727.862734,-0.007568,0.01239,-0.990112,0.052916,0.447634,-0.054656,45,275,586,6192
1644185727.911114,-0.007751,0.009521,-0.988647,0.098718,0.279695,0.021679,54,280,577,6224
1644185727.959513,-0.00531,0.011475,-0.987671,0.251389,0.478168,-0.069924,48,279,576,6224
1644185728.007907,-0.008728,0.01178,-0.991211,0.251389,0.264427,-0.130992,45,265,584,6224
1644185728.069085,-0.008301,0.010315,-0.990723,0.281924,0.24916,-0.054656,51,276,583,6192
1644185728.107769,-0.009155,0.010193,-0.99231,0.159786,0.447634,-0.115725,53,279,594,6224
1644185728.153045,-0.007324,0.010925,-0.989807,0.08345,0.63084,0.006412,59,282,584,6256
1644185728.201428,-0.010376,0.011658,-0.991638,0.190321,0.401832,-0.100458,48,269,578,6192
1644185728.249796,-0.00885,0.010498,-0.989563,0.175053,0.24916,-0.192061,47,280,586,6240
1644185728.298215,-0.010315,0.01123,-0.992493,0.190321,0.386565,-0.14626,49,282,582,6256
1644185728.346607,-0.006531,0.013306,-0.989868,0.312458,0.417099,-0.085191,51,281,590,6176
1644185728.39504,-0.007935,0.009216,-0.990845,0.434595,0.447634,-0.054656,48,279,592,6160
1644185728.443374,-0.006409,0.012573,-0.991943,0.312458,0.447634,-0.130992,46,279,576,6240
1644185728.492186,-0.006775,0.00824,-0.993591,0.175053,0.203359,-0.039389,47,270,591,6192
1644185728.540172,-0.005676,0.01123,-0.990967,0.175053,0.432366,-0.085191,52,277,586,6224
1644185728.588937,-0.005737,0.011536,-0.992004,0.205588,0.401832,0.021679,54,273,584,6160
1644185728.639686,-0.007324,0.012573,-0.990662,0.342992,0.478168,-0.085191,48,276,587,6192
1644185728.689626,-0.009033,0.011047,-0.990967,0.129252,0.401832,-0.237863,57,273,582,6176
1644185728.734722,-0.008057,0.009155,-0.990479,0.236122,0.493435,-0.25313,48,271,585,6192
1644185728.830546,-0.005371,0.011841,-0.990967,0.388794,0.508702,-0.100458,55,274,576,6192
1644185728.878971,-0.007751,0.01178,-0.992065,0.129252,0.432366,-0.024122,47,280,579,6224
1644185728.927371,-0.005554,0.008606,-0.990967,0.190321,0.24916,-0.115725,48,279,594,6224
1644185728.975755,-0.006592,0.010559,-0.990051,0.220855,0.462901,-0.176794,43,279,587,6224
1644185729.024173,-0.009583,0.009399,-0.992554,0.113985,0.478168,-0.100458,46,283,576,6240
1644185729.072561,-0.010498,0.009644,-0.989075,0.175053,0.493435,-0.207328,46,276,583,6176
1644185729.120943,-0.008667,0.009094,-0.990479,0.144519,0.417099,-0.192061,49,275,598,6224
1644185729.169292,-0.006714,0.011597,-0.992859,0.251389,0.279695,-0.100458,48,271,583,6192
1644185729.217688,-0.008606,0.008972,-0.99115,0.312458,0.325496,-0.237863,45,277,589,6160
1644185729.266053,-0.007629,0.01239,-0.990051,0.205588,0.478168,-0.008855,53,274,594,6240
1644185729.314481,-0.009216,0.007935,-0.992249,0.129252,0.386565,-0.283664,49,277,579,6192
1644185729.362875,-0.006836,0.009216,-0.989929,0.052916,0.340763,-0.161527,48,271,578,6240
1644185729.411252,-0.008545,0.012085,-0.993347,0.205588,0.447634,-0.161527,59,277,584,6192
1644185729.459645,-0.00647,0.008362,-0.992798,0.297191,0.493435,-0.008855,52,285,577,6240
1644185729.50803,-0.00885,0.010437,-0.991699,0.342992,0.462901,0.021679,43,269,580,6224
1644185729.556427,-0.008118,0.012756,-0.991272,0.175053,0.294962,-0.25313,57,273,577,6240
1644185729.604826,-0.005676,0.008911,-0.992798,0.236122,0.356031,-0.130992,46,274,587,6240
1644185729.653215,-0.006592,0.012512,-0.990845,0.175053,0.447634,-0.14626,59,277,596,6224
1644185729.701598,-0.008972,0.00708,-0.991028,0.236122,0.417099,-0.161527,49,277,586,6192
1644185729.750145,-0.008545,0.009277,-0.991028,0.236122,0.447634,-0.085191,52,280,582,6176
1644185729.80052,-0.009155,0.008423,-0.98999,0.281924,0.417099,0.159084,48,286,590,6240
1644185729.852386,-0.010071,0.010742,-0.993286,0.159786,0.447634,-0.069924,48,291,590,6256
1644185729.896389,-0.006409,0.00946,-0.992004,0.266656,0.523969,-0.069924,46,269,590,6240
1644185729.991992,-0.005798,0.008545,-0.99176,0.220855,0.340763,-0.161527,59,277,579,6240
1644185730.040399,-0.007507,0.01178,-0.990723,-0.053954,0.371298,-0.115725,59,270,589,6224
1644185730.092343,-0.006836,0.006714,-0.990784,0.373527,0.417099,-0.085191,54,270,589,6256
1644185730.137157,-0.008362,0.010071,-0.992126,0.342992,0.523969,-0.100458,53,274,583,6224
1644185730.185539,-0.008545,0.012207,-0.989685,0.129252,0.340763,-0.176794,38,285,586,6224
1644185730.233948,-0.007263,0.00946,-0.991821,0.159786,0.356031,-0.115725,55,286,592,6240
1644185730.282315,-0.007751,0.008301,-0.990479,0.266656,0.386565,0.036947,53,274,578,6176
1644185730.3307,-0.006104,0.010864,-0.99176,0.251389,0.356031,-0.115725,47,277,586,6224
1644185730.379116,-0.009766,0.011719,-0.990906,0.327725,0.233893,-0.024122,59,285,572,6192
1644185730.427506,-0.007202,0.012451,-0.991394,0.220855,0.371298,0.036947,45,275,582,6160
1644185730.475893,-0.007935,0.010437,-0.991394,0.373527,0.386565,-0.085191,52,277,582,6240
1644185730.52437,-0.006897,0.01062,-0.991516,0.175053,0.401832,-0.069924,54,280,586,6224
1644185730.572754,-0.008911,0.013062,-0.990662,0.251389,0.447634,-0.222595,54,287,584,6240
1644185730.621186,-0.007751,0.010681,-0.990845,0.190321,0.401832,-0.283664,46,269,587,6192
1644185730.669432,-0.008606,0.009827,-0.992126,0.129252,0.325496,-0.14626,47,273,593,6224
1644185730.717876,-0.005371,0.009766,-0.990295,0.251389,0.447634,-0.039389,51,281,592,6256
1644185730.766253,-0.009033,0.010376,-0.990295,0.251389,0.371298,-0.115725,53,281,594,6240
1644185730.814663,-0.005798,0.010986,-0.991211,0.190321,0.294962,-0.192061,46,274,585,6224
1644185730.863429,-0.00946,0.010803,-0.990784,0.159786,0.371298,-0.008855,46,283,587,6160
1644185730.913776,-0.007202,0.010193,-0.990723,0.175053,0.340763,-0.115725,59,280,586,6224
1644185730.964051,-0.005737,0.011719,-0.993042,0.129252,0.508702,-0.069924,46,269,590,6176
1644185731.068465,-0.009949,0.011047,-0.990112,0.190321,0.493435,-0.085191,54,273,582,6224
1644185731.107214,-0.00769,0.010315,-0.989563,0.236122,0.24916,-0.100458,54,290,584,6224
1644185731.153426,-0.012634,0.010437,-0.99231,0.281924,0.24916,-0.283664,43,279,573,6224
1644185731.201796,-0.006042,0.00885,-0.989563,0.144519,0.447634,-0.115725,43,276,597,6176
1644185731.25017,-0.008728,0.012939,-0.991455,0.373527,0.462901,0.021679,54,285,579,6192
1644185731.298572,-0.007507,0.009521,-0.990601,0.327725,0.279695,-0.115725,58,281,580,6240
1644185731.346974,-0.004761,0.009888,-0.989563,0.113985,0.386565,-0.14626,51,271,590,6176
1644185731.395355,-0.008057,0.011353,-0.987366,0.281924,0.432366,-0.207328,57,277,589,6224
1644185731.44377,-0.007019,0.013062,-0.98999,0.113985,0.432366,-0.130992,42,285,579,6224
1644185731.492379,-0.006104,0.011536,-0.989685,0.175053,0.478168,-0.130992,52,280,575,6256
1644185731.540521,-0.004517,0.011841,-0.993652,0.113985,0.401832,-0.14626,45,280,586,6224
1644185731.58891,-0.008545,0.008301,-0.990662,0.175053,0.432366,-0.130992,55,274,578,6224
1644185731.637313,-0.009949,0.008606,-0.990845,0.144519,0.371298,-0.085191,45,273,586,6160
1644185731.686295,-0.010864,0.010925,-0.988403,0.098718,0.432366,-0.298931,41,264,580,6256
1644185731.736581,-0.005981,0.009399,-0.989136,0.251389,0.401832,0.036947,59,270,591,6240
1644185731.786737,-0.006348,0.011108,-0.989258,0.236122,0.401832,0.021679,46,266,594,6192
1644185731.831738,-0.008301,0.010437,-0.993042,0.190321,0.417099,-0.130992,49,282,586,6224
1644185731.927726,-0.007812,0.009094,-0.992371,0.190321,0.340763,-0.008855,47,273,591,6256
1644185731.976094,-0.006653,0.009949,-0.990479,0.190321,0.401832,-0.085191,55,279,580,6224
1644185732.024485,-0.010681,0.01001,-0.988953,0.449863,0.401832,-0.207328,47,275,591,6176
1644185732.073931,-0.010132,0.010315,-0.992554,0.236122,0.294962,0.006412,42,274,585,6240
1644185732.121261,-0.005615,0.008606,-0.990479,0.08345,0.401832,-0.069924,49,280,575,6176
1644185732.169651,-0.009155,0.011902,-0.991516,0.266656,0.294962,-0.25313,48,283,578,6224
1644185732.218043,-0.007874,0.009644,-0.99231,0.35826,0.478168,-0.024122,47,270,584,6240
1644185732.266441,-0.005676,0.008911,-0.99054,0.175053,0.401832,-0.100458,52,277,589,6256
1644185732.314813,-0.009949,0.008972,-0.991516,0.159786,0.264427,-0.130992,53,269,583,6224
1644185732.363235,-0.007568,0.012573,-0.991943,0.327725,0.417099,-0.069924,45,273,582,6240
1644185732.411611,-0.00946,0.010864,-0.992859,0.327725,0.508702,-0.130992,54,270,586,6192
1644185732.460007,-0.007507,0.010376,-0.988403,0.175053,0.310229,-0.069924,55,279,580,6192
1644185732.508378,-0.00885,0.012756,-0.992859,0.434595,0.340763,0.021679,53,274,583,6192
1644185732.556807,-0.008606,0.009399,-0.990967,0.068183,0.447634,0.067481,48,266,583,6256
1644185732.605189,-0.008545,0.011902,-0.992249,0.175053,0.417099,-0.130992,48,271,587,6224
1644185732.65359,-0.011719,0.011536,-0.992249,0.220855,0.478168,0.006412,55,274,585,6256
1644185732.701972,-0.008545,0.009155,-0.992981,0.251389,0.325496,-0.130992,48,274,594,6192
1644185732.75035,-0.005737,0.006958,-0.989502,0.236122,0.508702,-0.115725,46,283,583,6240
1644185732.798806,-0.009827,0.010864,-0.991333,0.46513,0.493435,-0.024122,42,277,577,6224
1644185732.848652,-0.008667,0.011658,-0.992004,0.266656,0.462901,-0.054656,53,279,592,6240
1644185732.898911,-0.007629,0.008789,-0.992188,0.342992,0.325496,0.006412,48,274,578,6224
1644185732.948621,-0.007324,0.011536,-0.991821,0.449863,0.462901,-0.283664,54,280,584,6240
1644185732.993103,-0.008484,0.010498,-0.992249,0.281924,0.386565,-0.100458,46,274,583,6240
1644185733.090771,-0.005249,0.008301,-0.992798,0.388794,0.462901,-0.024122,49,280,598,6240
1644185733.137498,-0.004272,0.012146,-0.992432,0.175053,0.279695,-0.207328,53,283,583,6192
1644185733.185899,-0.005676,0.010071,-0.992065,0.327725,0.310229,-0.25313,46,279,580,6160
1644185733.234293,-0.005615,0.010559,-0.989685,0.281924,0.325496,0.098015,52,285,575,6192
1644185733.282701,-0.00885,0.013794,-0.990295,0.190321,0.523969,-0.069924,51,274,573,6192
1644185733.331085,-0.008911,0.007202,-0.990417,0.08345,0.356031,-0.039389,55,276,578,6224
1644185733.379467,-0.007263,0.011536,-0.992432,0.113985,0.264427,-0.14626,52,270,575,6192
1644185733.427841,-0.004272,0.009766,-0.990906,0.281924,0.508702,-0.069924,58,274,583,6224
1644185733.476251,-0.006775,0.009094,-0.989441,0.190321,0.371298,-0.039389,42,273,593,6224
1644185733.52471,-0.007812,0.009338,-0.992126,0.342992,0.294962,-0.14626,49,273,593,6176
1644185733.573064,-0.011475,0.008301,-0.990723,0.281924,0.325496,-0.130992,49,265,575,6256
1644185733.621437,-0.009705,0.010864,-0.992493,0.251389,0.218626,-0.085191,49,270,575,6240
1644185733.66983,-0.01062,0.009216,-0.991211,0.175053,0.310229,0.006412,47,273,575,6224
1644185733.718232,-0.00824,0.009033,-0.992493,0.251389,0.310229,-0.100458,55,274,585,6224
1644185733.766614,-0.007568,0.006958,-0.992004,0.236122,0.462901,-0.085191,53,283,597,6256
1644185733.815094,-0.008484,0.008972,-0.990784,0.08345,0.386565,-0.192061,51,264,590,6240
1644185733.863788,-0.00885,0.008118,-0.991882,0.449863,0.401832,-0.130992,51,286,583,6192
1644185733.911849,-0.004578,0.010193,-0.991333,0.297191,0.340763,-0.161527,41,271,573,6224
1644185733.961591,-0.009949,0.009827,-0.989685,0.113985,0.554504,0.006412,52,270,572,6176
1644185734.062545,-0.010864,0.007202,-0.990906,0.205588,0.462901,-0.069924,41,286,583,6288
1644185734.105444,-0.009338,0.01123,-0.990173,0.190321,0.279695,0.036947,54,277,589,6240
1644185734.153759,-0.006775,0.008667,-0.99292,0.220855,0.310229,-0.130992,55,276,597,6176
1644185734.202172,-0.007263,0.011353,-0.991577,0.098718,0.539237,0.052214,54,275,591,6256
1644185734.250527,-0.005493,0.012146,-0.990173,0.08345,0.356031,-0.283664,49,268,584,6240
1644185734.298947,-0.007202,0.008789,-0.991516,0.236122,0.401832,0.036947,48,266,578,6112
1644185734.347334,-0.007629,0.010864,-0.991028,0.175053,0.294962,-0.115725,45,285,577,6160
1644185734.395729,-0.008423,0.011475,-0.992859,0.266656,0.356031,0.006412,54,282,586,6240
1644185734.444126,-0.008789,0.013184,-0.993713,0.205588,0.386565,-0.130992,41,274,578,6224
1644185734.49249,-0.00824,0.010681,-0.991882,0.190321,0.340763,-0.115725,43,279,578,6176
1644185734.540865,-0.010681,0.009949,-0.991516,0.251389,0.356031,-0.100458,38,270,586,6224
1644185734.589295,-0.006653,0.011902,-0.990723,0.327725,0.462901,-0.192061,53,279,585,6128
1644185734.637695,-0.008118,0.008789,-0.99115,0.007115,0.417099,0.036947,53,274,594,6224
1644185734.686084,-0.009216,0.010437,-0.991821,0.190321,0.432366,-0.100458,52,275,589,6240
1644185734.734476,-0.011108,0.007996,-0.991272,0.144519,0.325496,-0.085191,48,279,597,6224
1644185734.782885,-0.009583,0.009216,-0.993042,0.236122,0.371298,-0.115725,51,269,590,6176
1644185734.832263,-0.009766,0.011169,-0.993103,0.159786,0.432366,-0.100458,48,281,583,6224
1644185734.882195,-0.010071,0.010803,-0.991455,0.159786,0.310229,-0.039389,45,282,589,6128
1644185734.932517,-0.00824,0.011719,-0.991089,0.205588,0.325496,-0.024122,51,279,599,6224
1644185734.977057,-0.008301,0.007812,-0.992371,0.297191,0.432366,-0.100458,48,279,573,6224
1644185735.073358,-0.008667,0.00885,-0.989502,0.175053,0.310229,-0.100458,58,286,594,6176
1644185735.121676,-0.009399,0.012329,-0.991638,0.144519,0.508702,-0.161527,52,282,582,6224
1644185735.169991,-0.007996,0.012512,-0.989929,0.175053,0.417099,0.006412,47,282,572,6176
1644185735.218403,-0.00824,0.009338,-0.989136,0.113985,0.356031,-0.008855,52,268,582,6160
1644185735.266793,-0.009399,0.007202,-0.990601,0.266656,0.401832,-0.14626,52,273,577,6192
1644185735.315207,-0.010498,0.007874,-0.991394,0.312458,0.218626,-0.054656,41,274,576,6160
1644185735.363587,-0.009033,0.00885,-0.991089,0.220855,0.462901,-0.069924,53,274,590,6224
1644185735.411973,-0.009521,0.009216,-0.990112,0.098718,0.386565,-0.100458,47,270,584,6176
1644185735.460365,-0.005615,0.009583,-0.990784,0.129252,0.340763,-0.054656,48,281,580,6192
1644185735.508742,-0.006104,0.009521,-0.992065,0.220855,0.310229,-0.024122,52,280,577,6176
1644185735.557155,-0.008118,0.008301,-0.99176,0.297191,0.340763,-0.222595,47,277,579,6224
1644185735.605544,-0.010254,0.009216,-0.992371,0.327725,0.401832,-0.039389,47,273,577,6224
1644185735.653947,-0.007385,0.011353,-0.991333,0.251389,0.325496,-0.192061,55,271,594,6240
1644185735.702347,-0.008911,0.010681,-0.988403,0.266656,0.386565,0.006412,52,275,575,6224
1644185735.750702,-0.009766,0.010193,-0.991272,0.220855,0.493435,-0.024122,52,270,582,6240
1644185735.799092,-0.007202,0.011047,-0.992249,0.220855,0.432366,-0.085191,42,280,591,6240
1644185735.847554,-0.008301,0.008911,-0.991333,0.068183,0.401832,-0.161527,53,269,585,6224
1644185735.896205,-0.007568,0.01001,-0.992554,0.175053,0.310229,-0.25313,52,270,582,6160
1644185735.944358,-0.007568,0.010193,-0.987305,0.144519,0.493435,-0.161527,52,277,584,6176
1644185735.994807,-0.011108,0.009155,-0.990173,0.068183,0.294962,-0.054656,60,283,580,6224
1644185736.04432,-0.006958,0.008789,-0.992554,0.159786,0.325496,-0.25313,41,266,580,6224
1644185736.102717,-0.005249,0.010071,-0.991577,0.220855,0.493435,-0.14626,45,287,589,6288
1644185736.139189,-0.00708,0.007385,-0.992188,0.220855,0.325496,-0.024122,52,280,584,6224
1644185736.234914,-0.009155,0.011719,-0.991638,0.236122,0.462901,-0.039389,51,281,583,6224
1644185736.283081,-0.006714,0.011841,-0.991272,0.281924,0.371298,-0.085191,57,280,575,6224
1644185736.33143,-0.007629,0.010437,-0.990662,0.175053,0.340763,0.098015,41,271,585,6192
1644185736.379836,-0.007629,0.014282,-0.990784,0.159786,0.401832,0.052214,46,281,585,6192
1644185736.42819,-0.010742,0.01178,-0.98938,0.068183,0.386565,0.052214,45,280,577,6176
1644185736.47662,-0.009338,0.011475,-0.99176,0.251389,0.493435,-0.085191,53,276,583,6176
1644185736.525044,-0.00647,0.011475,-0.991394,0.190321,0.462901,-0.192061,53,286,585,6224
1644185736.57341,-0.010437,0.008545,-0.988892,-0.008153,0.417099,-0.039389,42,275,584,6256
1644185736.621803,-0.00769,0.009827,-0.991638,0.190321,0.340763,-0.054656,51,266,580,6192
1644185736.670195,-0.009644,0.010864,-0.992859,0.129252,0.310229,-0.161527,53,283,578,6256
1644185736.718591,-0.007812,0.010193,-0.991272,0.373527,0.203359,-0.100458,46,281,580,6224
1644185736.766982,-0.008423,0.008911,-0.992554,0.236122,0.325496,-0.024122,51,279,587,6160
1644185736.815378,-0.010986,0.013611,-0.990723,0.205588,0.462901,-0.008855,53,286,578,6192
1644185736.863822,-0.008484,0.013123,-0.992981,0.144519,0.386565,-0.176794,45,273,584,6224
1644185736.912346,-0.00946,0.008911,-0.994812,0.266656,0.508702,-0.100458,51,269,576,6240
1644185736.960589,-0.01178,0.009399,-0.990295,0.098718,0.523969,-0.085191,52,268,591,6224
1644185737.008983,-0.009094,0.010742,-0.99231,0.220855,0.356031,-0.100458,42,285,591,6176
1644185737.070492,-0.009155,0.009033,-0.992615,0.175053,0.462901,-0.130992,51,276,594,6160
1644185737.109485,-0.009399,0.009705,-0.992615,0.281924,0.371298,-0.207328,49,270,582,6224
1644185737.156668,-0.009705,0.009277,-0.989807,0.175053,0.356031,0.021679,54,275,596,6192
1644185737.205723,-0.008362,0.008972,-0.993469,0.281924,0.432366,-0.024122,47,282,582,6176
1644185737.255849,-0.004822,0.009216,-0.990479,0.342992,0.646107,-0.039389,43,269,594,6240
1644185737.347705,-0.009399,0.013733,-0.989624,0.251389,0.325496,-0.100458,51,271,585,6224
1644185737.396074,-0.011169,0.010315,-0.989563,0.175053,0.356031,-0.176794,55,266,592,6240
1644185737.444475,-0.008423,0.011658,-0.989624,0.281924,0.493435,-0.14626,51,274,578,6224
1644185737.492864,-0.007935,0.012573,-0.989136,0.175053,0.478168,-0.14626,55,269,578,6224
1644185737.541258,-0.006897,0.008362,-0.991882,0.205588,0.386565,-0.161527,41,264,578,6128
1644185737.589671,-0.010864,0.00769,-0.992615,0.281924,0.401832,-0.008855,47,270,593,6256
1644185737.638042,-0.008118,0.010498,-0.991943,0.08345,0.539237,-0.054656,53,276,583,6240
1644185737.686472,-0.005005,0.010864,-0.991211,0.159786,0.401832,-0.192061,58,281,587,6192
1644185737.734837,-0.00647,0.009094,-0.989868,0.08345,0.554504,-0.14626,40,270,582,6288
1644185737.783224,-0.006531,0.008728,-0.989929,0.388794,0.401832,-0.024122,45,273,586,6192
1644185737.83162,-0.005737,0.010315,-0.990662,0.190321,0.356031,0.021679,42,268,572,6224
1644185737.880059,-0.008179,0.010376,-0.991638,0.144519,0.462901,-0.085191,52,280,584,6176
1644185737.928447,-0.009338,0.009521,-0.993713,0.159786,0.401832,0.052214,51,283,585,6192
1644185737.976838,-0.006897,0.008667,-0.990967,0.175053,0.401832,0.006412,48,276,583,6304
1644185738.02523,-0.01062,0.010681,-0.992798,0.08345,0.386565,-0.115725,59,280,584,6192
1644185738.08535,-0.00885,0.009521,-0.992493,0.281924,0.478168,-0.161527,53,279,594,6192
1644185738.123437,-0.007751,0.011719,-0.99115,0.220855,0.417099,-0.14626,57,285,582,6224
1644185738.17337,-0.00769,0.012512,-0.994263,0.281924,0.447634,-0.192061,43,276,585,6192
1644185738.222763,-0.006775,0.012268,-0.991211,0.098718,0.264427,0.021679,55,279,585,6192
1644185738.267872,-0.007202,0.010742,-0.991699,0.175053,0.356031,-0.100458,49,280,572,6224
1644185738.363949,-0.012573,0.008728,-0.993347,0.205588,0.356031,-0.024122,38,282,589,6224
1644185738.412387,-0.01001,0.010925,-0.99176,0.373527,0.600305,-0.054656,46,269,587,6160
1644185738.460724,-0.008545,0.011414,-0.993103,0.297191,0.508702,-0.054656,48,269,580,6192
1644185738.509106,-0.009827,0.008057,-0.993896,0.113985,0.371298,-0.054656,42,275,584,6256
1644185738.557505,-0.006531,0.007507,-0.991516,0.159786,0.401832,0.006412,49,277,582,6240
1644185738.605915,-0.008972,0.008301,-0.99231,0.236122,0.356031,-0.176794,54,273,575,6256
1644185738.654304,-0.007324,0.009766,-0.991577,0.327725,0.462901,0.021679,40,273,579,6224
1644185738.702716,-0.008118,0.010071,-0.993896,0.266656,0.386565,0.113282,58,286,587,6224
1644185738.751062,-0.008484,0.01001,-0.994751,0.342992,0.371298,-0.237863,47,273,582,6224
1644185738.799456,-0.00769,0.011047,-0.993958,0.190321,0.432366,-0.024122,52,275,582,6192
1644185738.847879,-0.009583,0.012146,-0.993042,0.251389,0.294962,0.082748,49,277,584,6224
1644185738.896317,-0.007812,0.011658,-0.991211,0.159786,0.356031,-0.054656,38,270,565,6240
1644185738.944813,-0.008606,0.00708,-0.98938,0.175053,0.401832,0.082748,52,277,586,6224
1644185738.993077,-0.007996,0.011292,-0.990845,0.266656,0.447634,-0.14626,48,264,587,6192
1644185739.041493,-0.009216,0.008118,-0.991577,0.220855,0.356031,-0.14626,41,276,580,6224
1644185739.09375,-0.00946,0.007874,-0.991272,0.205588,0.478168,0.006412,48,271,594,6256
1644185739.138287,-0.006653,0.010559,-0.987671,0.220855,0.478168,-0.039389,57,285,593,6224
1644185739.186834,-0.010437,0.007935,-0.992126,0.190321,0.401832,-0.130992,53,276,578,6224
1644185739.235196,-0.009155,0.01001,-0.99292,0.159786,0.325496,-0.329466,52,275,589,6192
1644185739.28484,-0.007751,0.00946,-0.990479,0.312458,0.523969,-0.130992,58,262,592,6224
1644185739.335025,-0.008179,0.008118,-0.988586,0.129252,0.417099,-0.054656,39,279,573,6224
1644185739.385328,-0.009277,0.009705,-0.992554,0.236122,0.447634,-0.130992,55,283,583,6240
1644185739.429894,-0.011536,0.00946,-0.990906,0.266656,0.615573,-0.115725,51,266,594,6224
1644185739.525469,-0.005676,0.01001,-0.992188,0.220855,0.432366,-0.207328,47,277,582,6224
1644185739.573815,-0.005798,0.009583,-0.991455,0.175053,0.386565,-0.130992,54,280,591,6224
1644185739.622408,-0.006958,0.010071,-0.988281,0.037649,0.279695,0.021679,51,276,583,6240
1644185739.67058,-0.007935,0.008728,-0.991882,0.342992,0.294962,-0.069924,48,288,590,6128
1644185739.71899,-0.009399,0.01001,-0.994141,0.144519,0.447634,-0.222595,51,283,566,6192
1644185739.767392,-0.008606,0.010315,-0.991821,0.251389,0.264427,0.006412,46,281,585,6224
1644185739.815767,-0.006836,0.010986,-0.994141,0.007115,0.356031,-0.024122,40,280,589,6224
1644185739.864166,-0.006836,0.00708,-0.992188,0.281924,0.356031,-0.085191,51,271,576,6256
1644185739.912583,-0.005432,0.01178,-0.992981,0.175053,0.417099,-0.054656,39,279,580,6192
1644185739.960953,-0.010071,0.00946,-0.991455,0.098718,0.432366,-0.161527,53,276,580,6224
1644185740.009332,-0.007812,0.010559,-0.99408,0.159786,0.401832,-0.237863,46,286,580,6128
1644185740.062306,-0.007507,0.010315,-0.992554,0.373527,0.508702,-0.024122,49,287,584,6224
1644185740.106113,-0.006104,0.013306,-0.994202,0.144519,0.569771,-0.008855,52,273,600,6160
1644185740.154505,-0.009827,0.009094,-0.98999,0.297191,0.340763,-0.069924,52,282,579,6240
1644185740.202911,-0.00885,0.008911,-0.992981,0.220855,0.478168,0.036947,47,277,598,6176
1644185740.251239,-0.008789,0.010071,-0.989624,0.312458,0.539237,-0.115725,54,273,584,6192
1644185740.299676,-0.008057,0.012695,-0.990845,0.175053,0.432366,-0.130992,53,283,587,6192
1644185740.348046,-0.009033,0.007263,-0.990295,0.220855,0.264427,0.021679,51,279,580,6176
1644185740.396447,-0.011292,0.010559,-0.992004,0.205588,0.401832,0.067481,58,266,587,6176
1644185740.445091,-0.009827,0.009155,-0.990784,0.251389,0.340763,-0.069924,49,275,586,6192
1644185740.495941,-0.008972,0.009033,-0.992249,0.068183,0.401832,-0.085191,57,265,584,6240
1644185740.545716,-0.008301,0.007812,-0.989197,0.098718,0.279695,-0.039389,51,279,592,6224
1644185740.590729,-0.006836,0.009521,-0.991821,0.35826,0.462901,-0.039389,52,270,577,6240
1644185740.686788,-0.008972,0.012085,-0.992126,0.373527,0.386565,-0.130992,49,285,586,6240
1644185740.735396,-0.010254,0.013,-0.990784,0.35826,0.356031,-0.130992,52,273,582,6224
1644185740.783591,-0.007751,0.011658,-0.989685,0.297191,0.325496,-0.039389,51,283,590,6224
1644185740.832652,-0.011475,0.009583,-0.99231,0.159786,0.523969,-0.100458,48,271,576,6192
1644185740.880406,-0.008179,0.010254,-0.98999,0.144519,0.401832,-0.085191,48,269,583,6240
1644185740.928806,-0.007385,0.009705,-0.989807,0.144519,0.432366,-0.130992,42,277,586,6240
1644185740.977202,-0.013733,0.008179,-0.989136,0.159786,0.493435,0.006412,51,266,587,6224
1644185741.025661,-0.010986,0.008362,-0.993958,0.190321,0.325496,-0.054656,52,277,584,6224
1644185741.077013,-0.009766,0.008606,-0.990173,0.022382,0.386565,0.052214,52,273,589,6160
1644185741.122335,-0.008301,0.010315,-0.992249,0.068183,0.371298,-0.100458,36,279,583,6160
1644185741.17074,-0.008789,0.011841,-0.992554,0.251389,0.462901,-0.130992,51,274,583,6192
1644185741.219136,-0.007812,0.008484,-0.990967,0.175053,0.386565,-0.054656,49,277,586,6176
1644185741.267515,-0.005371,0.010437,-0.988403,0.281924,0.523969,-0.192061,54,280,591,6192
1644185741.315913,-0.007324,0.011169,-0.994568,0.251389,0.462901,-0.130992,45,275,586,6128
1644185741.36431,-0.011108,0.009338,-0.991577,0.312458,0.325496,-0.069924,55,281,578,6256
1644185741.412733,-0.009399,0.010559,-0.991821,0.297191,0.447634,-0.176794,51,264,583,6192
1644185741.46106,-0.006653,0.011719,-0.991638,0.175053,0.386565,-0.054656,43,276,576,6240
1644185741.509489,-0.008789,0.009644,-0.990967,0.159786,0.371298,-0.207328,53,271,585,6224
1644185741.55788,-0.008179,0.009827,-0.990234,0.068183,0.493435,-0.192061,60,274,585,6192
1644185741.606657,-0.005798,0.010681,-0.991455,0.251389,0.523969,-0.176794,54,280,584,6240
1644185741.656928,-0.01062,0.01062,-0.991577,0.281924,0.386565,-0.130992,46,269,587,6304
1644185741.707018,-0.007874,0.009094,-0.99176,0.220855,0.447634,-0.161527,52,277,584,6224
1644185741.752084,-0.00592,0.012634,-0.992615,0.159786,0.310229,-0.100458,55,279,573,6256
1644185741.84827,-0.00531,0.010315,-0.992676,0.205588,0.493435,-0.192061,43,271,583,6224
1644185741.896656,-0.006287,0.012573,-0.992981,0.022382,0.569771,-0.069924,52,282,591,6288
1644185741.945095,-0.009827,0.009583,-0.991089,0.220855,0.340763,-0.14626,49,273,577,6224
1644185741.993454,-0.007202,0.00647,-0.992065,0.220855,0.432366,-0.115725,49,273,577,6192
1644185742.041847,-0.006409,0.012451,-0.98999,0.404061,0.462901,-0.192061,48,271,578,6288
1644185742.094964,-0.005859,0.010803,-0.992798,0.175053,0.401832,-0.085191,55,276,583,6224
1644185742.138593,-0.007385,0.007629,-0.989746,0.236122,0.508702,0.021679,47,277,586,6224
1644185742.186998,-0.01062,0.009766,-0.990417,0.190321,0.432366,-0.054656,61,282,589,6240
1644185742.235381,-0.007874,0.011475,-0.990417,0.297191,0.264427,-0.115725,48,271,580,6224
1644185742.283781,-0.009583,0.009888,-0.994324,0.388794,0.325496,-0.085191,54,268,589,6224
1644185742.33223,-0.005737,0.006958,-0.993591,0.373527,0.401832,0.036947,49,273,582,6256
1644185742.380562,-0.009338,0.012512,-0.992615,0.236122,0.432366,-0.207328,52,263,586,6304
1644185742.428954,-0.007446,0.009827,-0.992432,0.129252,0.508702,0.082748,54,273,586,6224
1644185742.47734,-0.010071,0.010437,-0.99176,0.08345,0.188092,-0.054656,54,287,582,6176
1644185742.52602,-0.010498,0.009583,-0.993713,0.266656,0.523969,0.098015,43,276,587,6224
1644185742.575686,-0.008362,0.012024,-0.993958,0.190321,0.493435,-0.085191,40,273,596,6128
1644185742.625908,-0.008057,0.00885,-0.991333,0.205588,0.401832,-0.054656,45,273,593,6240
1644185742.676216,-0.007812,0.009216,-0.990723,0.190321,0.264427,-0.054656,59,275,586,6256
1644185742.767708,-0.008362,0.009094,-0.987976,0.205588,0.417099,-0.237863,48,271,578,6256
1644185742.816077,-0.004944,0.007996,-0.988892,0.205588,0.447634,-0.115725,45,282,572,6192
1644185742.864533,-0.009033,0.010437,-0.990967,0.327725,0.371298,-0.268397,48,279,578,6240
1644185742.912919,-0.008057,0.011292,-0.990112,0.159786,0.371298,-0.069924,52,275,579,6304
1644185742.961306,-0.009766,0.012329,-0.992371,0.175053,0.325496,-0.008855,47,275,575,6240
1644185743.009716,-0.00592,0.008728,-0.991394,0.129252,0.462901,-0.024122,48,274,580,6176
1644185743.070687,-0.009094,0.008423,-0.990723,0.129252,0.508702,-0.268397,34,274,592,6224
1644185743.108332,-0.009766,0.009644,-0.99054,0.205588,0.356031,-0.130992,60,269,583,6224
1644185743.154847,-0.009094,0.008057,-0.992737,0.251389,0.417099,-0.054656,43,281,576,6176
1644185743.203243,-0.009888,0.00885,-0.991821,0.205588,0.554504,-0.192061,47,275,584,6240
1644185743.251627,-0.008667,0.010437,-0.99292,0.266656,0.432366,0.067481,57,287,584,6240
1644185743.30003,-0.007446,0.011108,-0.991516,0.037649,0.325496,-0.115725,47,280,582,6224
1644185743.348415,-0.009949,0.012085,-0.991333,0.129252,0.386565,-0.14626,48,271,587,6256
1644185743.396785,-0.008728,0.009094,-0.992737,0.190321,0.325496,-0.115725,61,273,579,6240
1644185743.44521,-0.006958,0.008301,-0.993164,0.175053,0.417099,-0.039389,45,268,579,6256
1644185743.493603,-0.008667,0.01062,-0.991943,0.08345,0.325496,-0.14626,51,269,576,6192
1644185743.541966,-0.008301,0.01123,-0.992615,0.312458,0.462901,-0.115725,46,279,578,6240
1644185743.590383,-0.008179,0.008667,-0.992432,0.281924,0.417099,-0.085191,47,282,584,6192
1644185743.638789,-0.010193,0.007507,-0.98999,0.08345,0.401832,-0.024122,59,280,591,6256
1644185743.688487,-0.007019,0.011353,-0.990906,0.144519,0.447634,-0.207328,53,274,590,6224
1644185743.738792,-0.006836,0.007507,-0.988098,0.144519,0.447634,-0.024122,57,268,584,6160
1644185743.788981,-0.009949,0.010132,-0.991699,0.205588,0.340763,-0.14626,48,276,569,6224
1644185743.88079,-0.007996,0.009094,-0.991028,0.113985,0.340763,-0.176794,53,276,578,6176
1644185743.929175,-0.008362,0.008423,-0.991699,0.190321,0.371298,-0.207328,60,283,578,6224
1644185743.977568,-0.006287,0.011597,-0.990967,0.159786,0.356031,-0.100458,53,281,578,6192
1644185744.025974,-0.007507,0.010559,-0.993103,0.190321,0.478168,-0.085191,43,281,580,6224
1644185744.074418,-0.00824,0.009094,-0.99054,0.281924,0.233893,-0.069924,49,275,584,6224
1644185744.122774,-0.008118,0.008423,-0.99115,0.342992,0.325496,-0.069924,43,271,580,6160
1644185744.171106,-0.00769,0.00946,-0.992798,0.297191,0.432366,-0.130992,46,279,583,6192
1644185744.219487,-0.007141,0.009888,-0.990845,0.205588,0.401832,-0.039389,43,279,583,6256
1644185744.267859,-0.007385,0.009583,-0.989624,0.205588,0.432366,-0.085191,57,282,584,6176
1644185744.316276,-0.008118,0.008179,-0.99353,0.266656,0.340763,0.021679,51,281,573,6192
1644185744.364718,-0.00824,0.011963,-0.99408,0.312458,0.493435,-0.054656,48,281,585,6224
1644185744.413054,-0.008118,0.010132,-0.99115,0.266656,0.218626,-0.207328,43,274,576,6192
1644185744.461447,-0.010864,0.005554,-0.991943,0.144519,0.386565,-0.085191,43,281,594,6224
1644185744.509826,-0.00769,0.007507,-0.991699,0.480397,0.417099,-0.024122,42,277,586,6224
1644185744.558237,-0.007385,0.00885,-0.989624,0.281924,0.325496,-0.161527,48,279,585,6224
1644185744.60664,-0.008972,0.010498,-0.99292,0.007115,0.340763,-0.115725,46,283,590,6176
1644185744.655057,-0.012634,0.011475,-0.990417,0.312458,0.508702,-0.039389,46,279,580,6256
1644185744.703412,-0.008484,0.008118,-0.99292,0.342992,0.356031,-0.161527,64,275,579,6224
1644185744.751804,-0.008972,0.011169,-0.99176,0.144519,0.371298,-0.054656,54,265,593,6192
1644185744.800608,-0.007996,0.010681,-0.992432,0.312458,0.523969,-0.207328,47,282,582,6192
1644185744.852892,-0.009949,0.009338,-0.991577,0.251389,0.310229,-0.100458,49,275,577,6160
1644185744.902202,-0.006653,0.010681,-0.989441,0.190321,0.401832,-0.085191,51,279,590,6224
1644185744.946876,-0.005432,0.010071,-0.991577,0.205588,0.447634,0.159084,62,276,580,6192
1644185745.042484,-0.010803,0.010681,-0.993591,0.281924,0.493435,-0.069924,45,273,582,6240
1644185745.094207,-0.008179,0.006836,-0.994263,0.190321,0.340763,-0.176794,51,281,585,6192
1644185745.138992,-0.007935,0.008484,-0.989075,0.251389,0.310229,0.098015,49,275,589,6192
1644185745.187339,-0.00946,0.009216,-0.991028,0.144519,0.371298,-0.115725,49,268,582,6176
1644185745.235745,-0.006836,0.008911,-0.991394,0.052916,0.462901,-0.207328,46,276,576,6224
1644185745.284123,-0.005432,0.013245,-0.992554,0.190321,0.401832,-0.14626,52,270,572,6256
1644185745.332548,-0.006409,0.013733,-0.992493,0.144519,0.310229,-0.115725,40,282,596,6224
1644185745.380926,-0.006104,0.010986,-0.990967,0.236122,0.493435,-0.176794,58,276,580,6224
1644185745.429296,-0.007385,0.009216,-0.99115,0.08345,0.432366,-0.130992,52,275,572,6240
1644185745.477698,-0.009521,0.008057,-0.991882,0.342992,0.462901,-0.176794,54,270,575,6224
1644185745.526102,-0.01123,0.010559,-0.99115,0.113985,0.386565,-0.008855,45,270,575,6240
1644185745.574494,-0.008179,0.01123,-0.992737,0.236122,0.371298,-0.085191,46,279,585,6192
1644185745.6229,-0.006958,0.009338,-0.991211,0.205588,0.401832,-0.085191,49,287,577,6224
1644185745.671237,-0.007263,0.009949,-0.991821,0.297191,0.279695,-0.161527,48,276,578,6240
1644185745.719672,-0.009277,0.009033,-0.991699,0.342992,0.356031,-0.069924,39,279,578,6240
1644185745.768062,-0.007812,0.009583,-0.994019,0.297191,0.432366,0.036947,57,282,586,6176
1644185745.816451,-0.006775,0.009583,-0.991577,0.129252,0.447634,-0.054656,51,281,580,6256
1644185745.8649,-0.009094,0.010925,-0.992065,0.251389,0.401832,-0.024122,49,263,579,6256
1644185745.914038,-0.008728,0.009644,-0.98938,0.312458,0.417099,-0.14626,41,279,594,6160
1644185745.964356,-0.009705,0.011292,-0.993286,0.220855,0.325496,-0.100458,53,286,587,6176
1644185746.065236,-0.007568,0.007568,-0.990173,0.281924,0.478168,-0.161527,55,269,590,6224
1644185746.106797,-0.007446,0.012268,-0.993164,0.236122,0.554504,-0.100458,57,280,584,6192
1644185746.155242,-0.010742,0.008667,-0.992249,0.297191,0.325496,-0.115725,59,275,579,6240
1644185746.203609,-0.007263,0.009521,-0.989563,0.266656,0.417099,-0.222595,42,282,579,6128
1644185746.251977,-0.008789,0.010193,-0.992188,0.281924,0.554504,0.006412,43,276,580,6224
1644185746.300379,-0.007751,0.008972,-0.990112,0.281924,0.371298,-0.130992,43,269,583,6224
1644185746.348785,-0.006836,0.006104,-0.993896,0.342992,0.417099,-0.085191,55,286,587,6240
1644185746.397173,-0.006714,0.013977,-0.990601,0.220855,0.371298,-0.130992,52,280,589,6192
1644185746.445551,-0.007568,0.007629,-0.991089,0.266656,0.356031,-0.085191,48,281,587,6176
1644185746.493945,-0.010254,0.010376,-0.989258,0.251389,0.401832,-0.054656,51,271,592,6176
1644185746.542381,-0.009888,0.00885,-0.99176,0.190321,0.24916,-0.054656,54,287,589,6240
1644185746.590737,-0.008911,0.009155,-0.991516,0.159786,0.508702,-0.008855,49,282,579,6224
1644185746.63913,-0.010254,0.009216,-0.990845,0.205588,0.386565,-0.008855,47,275,579,6128
1644185746.687522,-0.008484,0.009338,-0.991394,0.266656,0.401832,-0.024122,43,274,590,6240
1644185746.736258,-0.006958,0.011108,-0.991211,0.159786,0.447634,-0.024122,46,286,594,6240
1644185746.784339,-0.008972,0.012573,-0.992249,0.007115,0.493435,-0.024122,46,276,585,6224
1644185746.833571,-0.007874,0.009521,-0.989563,0.113985,0.279695,-0.222595,53,257,573,6304
1644185746.885325,-0.006348,0.007996,-0.993347,-0.008153,0.401832,-0.192061,58,286,585,6192
1644185746.935401,-0.007812,0.010742,-0.988098,0.312458,0.447634,-0.100458,47,260,582,6160
1644185747.026345,-0.005737,0.011292,-0.99353,0.35826,0.447634,-0.008855,41,279,587,6288
1644185747.074943,-0.008484,0.010376,-0.99054,0.266656,0.401832,-0.085191,57,275,589,6192
1644185747.123084,-0.010254,0.010559,-0.991272,0.297191,0.386565,-0.069924,46,276,592,6224
1644185747.171448,-0.009399,0.011902,-0.988892,0.312458,0.417099,-0.130992,43,274,583,6288
1644185747.219845,-0.006897,0.011536,-0.991333,0.236122,0.279695,-0.069924,46,286,585,6176
1644185747.268243,-0.007385,0.011414,-0.992676,0.175053,0.478168,-0.130992,52,275,582,6224
1644185747.316613,-0.010193,0.012024,-0.992615,0.297191,0.401832,0.052214,47,275,582,6224
1644185747.365069,-0.007324,0.013855,-0.991272,0.205588,0.417099,-0.237863,54,280,589,6224
1644185747.413434,-0.008179,0.010376,-0.991211,0.205588,0.356031,-0.314198,54,277,584,6240
1644185747.461824,-0.00885,0.00824,-0.992126,0.297191,0.310229,-0.069924,51,274,587,6224
1644185747.510213,-0.007507,0.010254,-0.992493,0.281924,0.264427,-0.054656,49,275,582,6224
1644185747.558602,-0.00769,0.006714,-0.990112,0.190321,0.417099,-0.161527,41,274,576,6160
1644185747.606995,-0.007202,0.012024,-0.990417,0.129252,0.356031,-0.100458,54,275,579,6160
1644185747.655393,-0.01062,0.01001,-0.990723,0.205588,0.371298,-0.130992,49,280,586,6224
1644185747.703769,-0.007568,0.011047,-0.991272,0.327725,0.447634,-0.14626,49,280,586,6160
1644185747.752222,-0.007629,0.010315,-0.990112,0.113985,0.432366,-0.115725,47,285,589,6224
1644185747.800615,-0.00647,0.010498,-0.994385,-0.115023,0.462901,-0.100458,59,273,593,6160
1644185747.849209,-0.004761,0.011047,-0.993103,0.098718,0.340763,0.006412,43,279,585,6192
1644185747.897407,-0.009399,0.01123,-0.991211,0.098718,0.356031,-0.008855,49,282,596,6256
1644185747.947321,-0.008057,0.011719,-0.990417,0.129252,0.508702,-0.130992,61,273,591,6176
1644185747.997157,-0.010437,0.010681,-0.992371,0.129252,0.447634,-0.25313,51,266,594,6224
1644185748.067088,-0.007385,0.011292,-0.989929,0.190321,0.478168,-0.008855,53,276,578,6192
1644185748.095441,-0.010315,0.009216,-0.991272,0.281924,0.356031,-0.039389,57,270,589,6160
1644185748.187689,-0.005554,0.009766,-0.990417,0.052916,0.417099,-0.100458,48,276,583,6224
1644185748.236088,-0.007568,0.010925,-0.990601,0.312458,0.386565,-0.069924,54,275,591,6224
1644185748.28449,-0.009705,0.008118,-0.992798,0.342992,0.24916,-0.14626,60,269,585,6224
1644185748.332903,-0.00885,0.011902,-0.992737,0.098718,0.356031,-0.008855,42,270,579,6176
1644185748.381282,-0.00824,0.010132,-0.99054,0.129252,0.340763,-0.14626,47,277,584,6192
1644185748.429671,-0.006042,0.007751,-0.99115,0.35826,0.417099,-0.054656,51,276,590,6288
1644185748.478069,-0.010315,0.008423,-0.993591,0.251389,0.310229,-0.024122,46,279,580,6240
1644185748.526453,-0.009094,0.010437,-0.990479,0.175053,0.294962,-0.115725,45,270,582,6224
1644185748.574866,-0.00824,0.01001,-0.989807,0.175053,0.340763,-0.207328,49,273,582,6256
1644185748.62324,-0.010437,0.010254,-0.990234,0.251389,0.325496,-0.130992,52,268,582,6192
1644185748.671649,-0.007324,0.011169,-0.990112,0.327725,0.508702,-0.100458,41,279,590,6176
1644185748.720028,-0.009827,0.009277,-0.990906,0.342992,0.447634,-0.054656,53,274,585,6224
1644185748.768435,-0.007874,0.010437,-0.989868,0.266656,0.386565,-0.130992,40,270,582,6176
1644185748.817409,-0.009033,0.007019,-0.991455,0.297191,0.386565,-0.085191,47,280,591,6240
1644185748.865258,-0.00885,0.009644,-0.990723,0.175053,0.233893,-0.207328,48,276,587,6192
1644185748.913647,-0.004944,0.009277,-0.989563,0.205588,0.356031,-0.100458,45,282,577,6160
1644185748.962157,-0.011536,0.010986,-0.99408,0.175053,0.371298,-0.024122,47,275,582,6224
1644185749.010423,-0.007812,0.010742,-0.993225,0.159786,0.264427,-0.130992,53,279,587,6256
1644185749.080673,-0.011047,0.008301,-0.992798,0.175053,0.539237,-0.192061,39,266,587,6224
1644185749.115763,-0.00824,0.00824,-0.990295,0.190321,0.417099,-0.14626,62,274,587,6176
1644185749.158878,-0.007812,0.009644,-0.992249,0.190321,0.493435,-0.085191,59,273,579,6256
1644185749.208994,-0.008484,0.01239,-0.992371,0.266656,0.371298,-0.008855,40,270,575,6160
1644185749.300745,-0.008423,0.010132,-0.988647,0.205588,0.264427,-0.161527,54,277,582,6224
1644185749.349134,-0.005676,0.012146,-0.991028,0.205588,0.401832,-0.024122,54,275,591,6256
1644185749.397523,-0.007874,0.012207,-0.993347,0.129252,0.371298,0.006412,43,271,573,6224
1644185749.445899,-0.006653,0.008301,-0.988831,0.159786,0.371298,-0.039389,54,282,579,6224
1644185749.494331,-0.008667,0.009705,-0.991455,0.312458,0.478168,0.021679,48,274,583,6192
1644185749.542729,-0.006836,0.007812,-0.990051,0.159786,0.279695,-0.115725,55,276,583,6240
1644185749.591101,-0.008606,0.009277,-0.99176,0.098718,0.386565,-0.069924,47,282,589,6240
1644185749.639504,-0.007446,0.012329,-0.988831,0.404061,0.432366,-0.069924,47,282,579,6240
1644185749.687891,-0.006775,0.009399,-0.990906,0.312458,0.432366,-0.100458,42,275,577,6224
1644185749.736284,-0.007751,0.010437,-0.99054,0.236122,0.432366,0.006412,51,281,585,6224
1644185749.78472,-0.007507,0.008972,-0.989075,0.419328,0.462901,-0.192061,54,280,591,6224
1644185749.833143,-0.005981,0.009338,-0.990051,0.129252,0.462901,-0.085191,58,281,587,6192
1644185749.881503,-0.006775,0.009399,-0.988037,0.251389,0.386565,-0.100458,51,274,583,6224
1644185749.929899,-0.006958,0.011719,-0.992371,0.175053,0.508702,-0.25313,51,279,580,6176
1644185749.978291,-0.009888,0.007996,-0.992798,0.129252,0.279695,-0.100458,55,286,587,6176
1644185750.026642,-0.00769,0.008484,-0.990417,0.205588,0.310229,0.006412,49,270,584,6192
1644185750.093549,-0.010742,0.010498,-0.992065,0.281924,0.417099,-0.085191,55,286,594,6224
1644185750.124927,-0.00885,0.010681,-0.99231,0.205588,0.401832,-0.039389,39,288,597,6192
1644185750.174104,-0.008484,0.008545,-0.989807,0.388794,0.493435,-0.085191,48,266,583,6240
1644185750.224185,-0.005798,0.010925,-0.990906,0.35826,0.493435,-0.100458,47,277,577,6224
1644185750.269403,-0.00708,0.010925,-0.99176,0.266656,0.325496,-0.069924,40,268,579,6224
1644185750.365381,-0.009888,0.010925,-0.992554,0.266656,0.417099,0.036947,58,283,580,6224
1644185750.413797,-0.008545,0.007874,-0.991943,0.175053,0.447634,-0.130992,47,270,584,6224
1644185750.462382,-0.010071,0.011047,-0.99115,0.236122,0.401832,-0.100458,47,282,582,6240
1644185750.510547,-0.006836,0.007935,-0.989319,0.236122,0.356031,-0.161527,55,274,587,6240
1644185750.558949,-0.00708,0.011719,-0.991211,0.220855,0.233893,-0.008855,51,281,580,6224
1644185750.607348,-0.01062,0.009705,-0.992554,0.312458,0.462901,0.067481,46,276,583,6224
1644185750.655738,-0.009094,0.012024,-0.991089,0.190321,0.371298,-0.054656,51,276,580,6224
1644185750.704122,-0.009277,0.010254,-0.99115,0.190321,0.310229,-0.161527,57,273,584,6224
1644185750.752523,-0.010986,0.009521,-0.992493,0.129252,0.386565,-0.130992,48,262,580,6192
1644185750.800925,-0.011719,0.009583,-0.9953,0.327725,0.264427,0.036947,41,283,580,6224
1644185750.849356,-0.00824,0.009705,-0.988708,0.205588,0.371298,-0.085191,54,290,584,6224
1644185750.897749,-0.007385,0.011658,-0.991638,0.220855,0.417099,-0.115725,47,282,579,6288
1644185750.946144,-0.008728,0.008667,-0.992249,0.251389,0.493435,-0.100458,47,280,577,6176
1644185750.994527,-0.010742,0.009216,-0.990112,0.144519,0.554504,0.036947,47,270,586,6224
1644185751.0429,-0.008301,0.008667,-0.990967,0.236122,0.432366,-0.069924,51,276,580,6192
1644185751.092649,-0.008179,0.008545,-0.989441,0.327725,0.356031,-0.115725,48,283,592,6240
1644185751.139657,-0.007263,0.01123,-0.990662,0.159786,0.310229,-0.069924,52,280,582,6160
1644185751.188051,-0.007629,0.012573,-0.991943,0.419328,0.432366,-0.176794,59,280,589,6192
1644185751.236465,-0.01001,0.010071,-0.990906,0.113985,0.386565,-0.024122,58,286,585,6224
1644185751.285262,-0.007507,0.010559,-0.991333,0.281924,0.523969,-0.008855,55,276,587,6224
1644185751.335894,-0.007385,0.010376,-0.99408,0.251389,0.569771,-0.069924,51,271,583,6176
1644185751.385905,-0.008667,0.010376,-0.990356,0.129252,0.386565,-0.054656,48,276,585,6224
1644185751.430964,-0.007446,0.010681,-0.993164,0.08345,0.371298,-0.069924,42,285,575,6256
1644185751.526805,-0.010559,0.012695,-0.989441,0.144519,0.233893,-0.085191,57,275,591,6128
1644185751.575402,-0.008057,0.008179,-0.991821,0.266656,0.462901,-0.024122,55,269,587,6224
1644185751.623615,-0.009155,0.011292,-0.994141,0.175053,0.386565,-0.161527,48,279,585,6256
1644185751.671996,-0.007751,0.011047,-0.989441,0.220855,0.554504,-0.054656,41,276,578,6256
1644185751.720388,-0.008789,0.011475,-0.988953,0.327725,0.478168,-0.14626,60,279,599,6224
1644185751.768773,-0.009094,0.01123,-0.989258,0.297191,0.508702,-0.054656,55,281,585,6224
1644185751.817173,-0.007629,0.010803,-0.991028,0.220855,0.356031,-0.024122,48,274,585,6256
1644185751.865616,-0.00824,0.013,-0.993408,0.251389,0.371298,-0.130992,41,281,583,6192
1644185751.914011,-0.009705,0.011902,-0.993225,0.052916,0.478168,-0.192061,39,274,583,6224
1644185751.962407,-0.009399,0.006165,-0.991516,0.266656,0.462901,-0.069924,49,275,575,6128
1644185752.010759,-0.012573,0.008301,-0.99231,0.388794,0.386565,-0.085191,47,275,586,6192
1644185752.06988,-0.009216,0.010376,-0.991516,0.251389,0.340763,-0.054656,46,276,576,6224
1644185752.107566,-0.007629,0.010498,-0.989746,0.052916,0.585038,-0.008855,57,292,586,6176
1644185752.15593,-0.007568,0.010559,-0.991943,0.129252,0.539237,-0.039389,64,285,589,6192
1644185752.204325,-0.009583,0.012512,-0.992065,0.404061,0.233893,0.006412,48,271,580,6192
1644185752.252699,-0.00885,0.011292,-0.991394,0.281924,0.63084,0.082748,47,280,586,6224
1644185752.301106,-0.012024,0.009705,-0.992798,0.098718,0.371298,-0.054656,52,273,589,6256
1644185752.349503,-0.012939,0.008667,-0.990906,0.190321,0.356031,-0.085191,49,285,591,6240
1644185752.397928,-0.005737,0.01001,-0.990356,0.205588,0.554504,-0.130992,48,274,580,6224
1644185752.446696,-0.00824,0.009338,-0.992371,0.297191,0.646107,0.021679,51,269,585,6224
1644185752.498126,-0.00647,0.010315,-0.990051,0.205588,0.401832,-0.161527,58,276,583,6224
1644185752.547495,-0.007751,0.009216,-0.991699,0.205588,0.356031,-0.039389,55,257,590,6192
1644185752.592459,-0.009644,0.010376,-0.991333,0.052916,0.462901,0.036947,61,282,586,6128
1644185752.688244,-0.009705,0.006165,-0.991577,0.175053,0.294962,-0.024122,36,276,587,6224
1644185752.736626,-0.010193,0.007996,-0.992188,0.388794,0.310229,-0.207328,48,279,578,6224
1644185752.785289,-0.008362,0.01001,-0.991455,0.175053,0.401832,-0.161527,47,282,598,6224
1644185752.833435,-0.009033,0.009827,-0.989624,0.144519,0.371298,-0.069924,41,274,587,6256
1644185752.881873,-0.008301,0.008728,-0.99408,0.175053,0.432366,-0.176794,42,277,582,6224
1644185752.930263,-0.008728,0.011536,-0.992493,0.175053,0.325496,-0.207328,49,270,577,6240
1644185752.978642,-0.008057,0.009766,-0.990662,0.236122,0.462901,-0.115725,49,275,579,6240
1644185753.027044,-0.00769,0.009766,-0.99292,0.190321,0.279695,-0.130992,46,274,590,6224
1644185753.084889,-0.007996,0.009827,-0.991699,0.404061,0.417099,0.021679,42,273,591,6240
1644185753.123858,-0.008118,0.011963,-0.99054,0.175053,0.340763,-0.008855,48,276,578,6192
1644185753.172234,-0.008301,0.014526,-0.992188,0.220855,0.401832,-0.130992,49,275,584,6224
1644185753.220577,-0.005066,0.008911,-0.992126,0.281924,0.462901,-0.14626,53,276,583,6176
1644185753.268977,-0.007141,0.007141,-0.992798,0.281924,0.371298,0.006412,52,275,575,6224
1644185753.317361,-0.006714,0.009766,-0.988647,0.205588,0.417099,0.006412,42,277,586,6240
1644185753.365748,-0.010437,0.011963,-0.992249,0.175053,0.447634,-0.115725,41,271,571,6288
1644185753.414145,-0.009216,0.008423,-0.989624,0.022382,0.264427,0.021679,46,281,578,6160
1644185753.462558,-0.007996,0.010193,-0.993347,0.190321,0.401832,-0.100458,46,286,583,6192
1644185753.510943,-0.009277,0.00885,-0.991516,0.404061,0.432366,-0.054656,53,271,587,6160
1644185753.560276,-0.008545,0.009033,-0.99115,0.220855,0.508702,-0.069924,47,280,584,6224
1644185753.610834,-0.010803,0.008423,-0.989563,0.266656,0.417099,-0.085191,47,285,589,6240
1644185753.661015,-0.008423,0.008545,-0.991882,0.251389,0.279695,-0.024122,41,269,573,6240
1644185753.752917,-0.00824,0.009216,-0.990784,0.236122,0.432366,0.067481,43,274,580,6224
1644185753.801285,-0.008545,0.011597,-0.990173,0.251389,0.340763,0.036947,29,279,580,6224
1644185753.849674,-0.011108,0.008911,-0.991089,0.175053,0.371298,-0.14626,49,277,577,6192
1644185753.898128,-0.009155,0.010193,-0.992737,0.144519,0.340763,-0.085191,42,277,586,6224
1644185753.946501,-0.006897,0.010315,-0.98999,0.388794,0.432366,-0.130992,52,270,582,6224
1644185753.994899,-0.010193,0.011353,-0.992065,0.342992,0.462901,-0.100458,40,280,589,6224
1644185754.043303,-0.007874,0.010193,-0.993469,0.266656,0.294962,-0.085191,48,279,585,6256
1644185754.093786,-0.007812,0.010742,-0.993591,0.190321,0.447634,-0.130992,49,270,586,6192
1644185754.140078,-0.007812,0.010254,-0.989563,0.297191,0.401832,-0.115725,54,287,579,6176
1644185754.18843,-0.009583,0.011963,-0.990479,0.266656,0.386565,-0.069924,47,280,579,6192
1644185754.236796,-0.004883,0.011475,-0.992798,0.419328,0.325496,-0.192061,55,283,585,6128
1644185754.28521,-0.007629,0.008423,-0.990723,0.205588,0.371298,-0.039389,45,265,589,6160
1644185754.333617,-0.010681,0.010254,-0.994507,0.113985,0.401832,-0.008855,48,274,587,6192
1644185754.381999,-0.007874,0.009827,-0.992188,0.327725,0.493435,0.006412,51,269,576,6240
1644185754.43039,-0.005737,0.010071,-0.992004,0.220855,0.493435,0.036947,36,269,587,6224
1644185754.47876,-0.011047,0.008545,-0.991333,0.327725,0.340763,-0.054656,43,269,585,6224
1644185754.527446,-0.00769,0.010559,-0.99115,0.159786,0.264427,-0.161527,43,276,583,6160
1644185754.576862,-0.010254,0.009338,-0.991028,0.220855,0.386565,-0.130992,47,273,591,6224
1644185754.627723,-0.007324,0.008911,-0.990295,0.312458,0.325496,-0.130992,48,274,590,6224
1644185754.677513,-0.00769,0.012024,-0.989563,0.449863,0.432366,-0.100458,42,282,584,6240
1644185754.769133,-0.009644,0.009399,-0.993286,0.266656,0.356031,-0.130992,55,279,585,6192
1644185754.817522,-0.00769,0.008301,-0.992615,0.159786,0.356031,-0.115725,49,277,586,6160
1644185754.865979,-0.009033,0.010376,-0.989807,0.098718,0.356031,0.021679,58,274,580,6176
1644185754.914343,-0.005554,0.010376,-0.991333,0.190321,0.294962,-0.054656,48,281,573,6240
1644185754.962745,-0.00647,0.011292,-0.994934,0.281924,0.417099,-0.237863,46,281,580,6256
1644185755.011148,-0.009705,0.010742,-0.988892,0.205588,0.447634,-0.085191,52,282,589,6288
1644185755.061016,-0.00708,0.007874,-0.994141,0.373527,0.356031,-0.024122,52,270,582,6224
1644185755.107907,-0.010376,0.010864,-0.992371,0.159786,0.417099,-0.008855,48,279,580,6192
1644185755.156329,-0.008789,0.008484,-0.992188,0.388794,0.508702,-0.130992,48,274,578,6224
1644185755.204754,-0.007629,0.006531,-0.992004,0.113985,0.417099,-0.115725,52,282,584,6176
1644185755.253139,-0.007263,0.008789,-0.992676,0.236122,0.386565,-0.100458,48,274,576,6160
1644185755.301516,-0.01123,0.006592,-0.990479,0.190321,0.417099,-0.14626,47,273,582,6224
1644185755.349907,-0.009216,0.010376,-0.990051,0.205588,0.401832,-0.222595,48,276,585,6192
1644185755.398296,-0.012512,0.009338,-0.99115,0.220855,0.523969,-0.14626,48,281,592,6192
1644185755.446685,-0.006897,0.011658,-0.99176,0.327725,0.432366,-0.085191,48,281,580,6176
1644185755.495132,-0.008484,0.008362,-0.99176,0.113985,0.585038,-0.115725,52,280,584,6160
1644185755.543482,-0.010742,0.009094,-0.992004,0.129252,0.340763,-0.085191,48,271,587,6192
1644185755.592053,-0.008667,0.011597,-0.991699,0.08345,0.417099,-0.192061,55,281,585,6240
1644185755.640268,-0.008118,0.008057,-0.992371,0.35826,0.493435,-0.161527,57,285,579,6240
1644185755.689719,-0.009766,0.008301,-0.98999,0.113985,0.447634,-0.039389,34,271,583,6224
1644185755.740212,-0.006836,0.01001,-0.989929,0.327725,0.356031,-0.207328,43,269,590,6160
1644185755.790579,-0.009033,0.007751,-0.991089,0.08345,0.539237,-0.207328,54,275,577,6160
1644185755.835097,-0.00824,0.006897,-0.99054,0.220855,0.386565,0.082748,52,280,575,6240
1644185755.930614,-0.009888,0.011841,-0.991455,0.205588,0.356031,-0.115725,48,271,583,6224
1644185755.979002,-0.006226,0.008057,-0.989929,0.266656,0.478168,-0.069924,48,262,578,6192
1644185756.02741,-0.005981,0.01062,-0.991455,0.327725,0.417099,-0.207328,48,288,585,6240
1644185756.075878,-0.007751,0.009888,-0.990845,0.342992,0.356031,-0.085191,46,279,587,6176
1644185756.124164,-0.00946,0.01123,-0.990906,0.175053,0.310229,-0.008855,40,270,586,6192
1644185756.172556,-0.006897,0.012207,-0.992004,0.205588,0.417099,-0.054656,55,271,585,6256
1644185756.220942,-0.006958,0.008789,-0.99231,0.266656,0.325496,-0.024122,48,279,583,6240
1644185756.26931,-0.01001,0.009705,-0.991272,0.175053,0.447634,-0.222595,48,279,587,6224
1644185756.31773,-0.009644,0.010376,-0.991943,0.129252,0.386565,-0.039389,52,273,586,6256
1644185756.366087,-0.007751,0.009766,-0.98938,0.175053,0.493435,-0.024122,41,276,583,6192
1644185756.414525,-0.009033,0.010376,-0.989502,0.266656,0.401832,-0.039389,42,275,586,6176
1644185756.462919,-0.007812,0.009155,-0.988953,0.190321,0.356031,0.036947,57,285,596,6240
1644185756.51128,-0.007324,0.011597,-0.99054,0.052916,0.447634,-0.085191,45,280,575,6224
1644185756.559688,-0.007629,0.012268,-0.992432,0.190321,0.447634,-0.192061,61,263,586,6240
1644185756.608087,-0.006836,0.007935,-0.98999,0.113985,0.371298,-0.115725,45,277,586,6176
1644185756.65645,-0.008118,0.007874,-0.991638,0.266656,0.493435,-0.268397,48,279,578,6192
1644185756.704865,-0.010498,0.010437,-0.990173,0.251389,0.24916,-0.176794,53,276,599,6192
1644185756.753236,-0.008179,0.008911,-0.990906,0.098718,0.233893,-0.14626,54,270,582,6256
1644185756.801676,-0.008484,0.012085,-0.988098,0.266656,0.569771,-0.054656,54,282,589,6224
1644185756.85169,-0.006287,0.009766,-0.990723,0.159786,0.417099,0.021679,58,271,576,6224
1644185756.901741,-0.008911,0.00824,-0.99176,0.281924,0.432366,-0.008855,54,273,586,6224
1644185756.952211,-0.010315,0.008972,-0.991638,0.159786,0.356031,-0.008855,43,271,590,6224
1644185756.996588,-0.011475,0.009338,-0.991577,0.205588,0.24916,-0.14626,46,276,580,6192
1644185757.092201,-0.009399,0.008362,-0.992065,0.159786,0.386565,0.006412,43,276,587,6176
1644185757.140394,-0.009216,0.007935,-0.991516,0.297191,0.340763,-0.085191,60,264,580,6192
1644185757.188792,-0.00647,0.010132,-0.993225,0.266656,0.340763,-0.161527,59,285,589,6224
1644185757.237182,-0.007141,0.007568,-0.989502,0.281924,0.386565,-0.25313,34,279,580,6176
1644185757.285586,-0.008972,0.008911,-0.99115,0.342992,0.478168,-0.192061,51,271,585,6288
1644185757.333975,-0.007568,0.009827,-0.990356,0.388794,0.401832,-0.176794,53,283,576,6176
1644185757.382377,-0.006165,0.009949,-0.988159,0.266656,0.310229,-0.024122,46,269,590,6192
1644185757.430762,-0.008118,0.012512,-0.990784,0.205588,0.310229,-0.161527,48,274,587,6240
1644185757.479146,-0.009216,0.011902,-0.992981,0.251389,0.615573,-0.008855,49,282,577,6192
1644185757.527555,-0.006287,0.011292,-0.989197,0.205588,0.386565,0.006412,46,281,585,6224
1644185757.575937,-0.013123,0.009705,-0.991455,0.190321,0.340763,-0.100458,48,262,590,6256
1644185757.624343,-0.006531,0.012268,-0.989685,0.144519,0.294962,-0.069924,53,281,576,6176
1644185757.672734,-0.008789,0.01062,-0.99115,0.175053,0.386565,-0.039389,52,275,577,6224
1644185757.721126,-0.007568,0.010803,-0.991516,0.281924,0.523969,-0.069924,48,283,585,6160
1644185757.769511,-0.009521,0.009399,-0.994141,0.190321,0.432366,-0.237863,53,281,585,6192
1644185757.817951,-0.009521,0.010986,-0.988647,0.419328,0.386565,-0.008855,47,277,584,6160
1644185757.866323,-0.008606,0.011414,-0.98938,0.327725,0.478168,-0.039389,43,276,599,6160
1644185757.915098,-0.00885,0.010925,-0.991333,0.190321,0.493435,-0.161527,51,269,585,6224
1644185757.963133,-0.011841,0.00708,-0.991272,0.144519,0.417099,-0.024122,53,276,590,6224
1644185758.069907,-0.008362,0.013794,-0.988586,0.144519,0.447634,-0.069924,53,286,592,6224
1644185758.108309,-0.008423,0.009338,-0.992554,0.190321,0.325496,-0.237863,54,277,589,6224
1644185758.15664,-0.006775,0.00946,-0.990662,0.220855,0.294962,-0.100458,39,279,578,6224
1644185758.205153,-0.007507,0.011292,-0.993713,0.266656,0.508702,-0.115725,42,282,591,6224
1644185758.253443,-0.006714,0.011414,-0.992737,0.266656,0.401832,-0.054656,51,274,578,6192
1644185758.301821,-0.009338,0.009644,-0.990295,0.190321,0.325496,-0.100458,42,285,584,6192
1644185758.350213,-0.00946,0.008972,-0.993164,0.449863,0.462901,-0.14626,58,281,573,6256
1644185758.39859,-0.009033,0.012512,-0.992798,0.342992,0.554504,-0.14626,48,266,578,6224
1644185758.447011,-0.008606,0.011841,-0.991821,0.098718,0.233893,-0.115725,60,269,580,6176
1644185758.495413,-0.009583,0.009705,-0.990295,0.297191,0.432366,-0.069924,47,282,591,6224
1644185758.543803,-0.008179,0.008423,-0.990173,0.113985,0.462901,-0.069924,36,276,583,6176
1644185758.592205,-0.006104,0.008667,-0.988831,0.327725,0.417099,-0.024122,46,283,594,6256
1644185758.640575,-0.007812,0.009521,-0.992737,0.175053,0.539237,-0.069924,46,276,576,6160
1644185758.688977,-0.010132,0.006775,-0.991028,0.022382,0.279695,-0.176794,45,275,579,6240
1644185758.737762,-0.00824,0.009888,-0.990845,0.281924,0.356031,-0.130992,54,277,582,6192
1644185758.788357,-0.007324,0.010498,-0.989502,0.266656,0.279695,-0.130992,49,273,586,6256
1644185758.83872,-0.008911,0.011292,-0.990906,0.266656,0.294962,0.12855,52,277,575,6176
1644185758.883824,-0.007446,0.009033,-0.991699,0.220855,0.447634,-0.222595,47,275,572,6160
1644185758.979365,-0.009094,0.009155,-0.991638,0.281924,0.569771,-0.207328,46,286,580,6192
1644185759.027779,-0.007568,0.009644,-0.988708,0.342992,0.432366,-0.069924,55,281,590,6224
1644185759.079865,-0.007202,0.008606,-0.991333,-0.02342,0.523969,-0.100458,49,280,593,6224
1644185759.124559,-0.00647,0.011108,-0.991211,0.266656,0.523969,-0.100458,49,265,575,6224
1644185759.172923,-0.008484,0.01239,-0.989136,0.281924,0.417099,-0.161527,51,279,583,6192
1644185759.221305,-0.009338,0.010559,-0.992493,0.159786,0.294962,-0.039389,51,276,583,6240
1644185759.269666,-0.011719,0.009766,-0.989014,0.281924,0.401832,-0.161527,57,277,584,6128
1644185759.318069,-0.003967,0.009521,-0.991455,0.205588,0.264427,-0.100458,49,273,582,6288
1644185759.366484,-0.010437,0.010498,-0.990112,0.205588,0.462901,-0.024122,48,281,587,6256
1644185759.414881,-0.007812,0.009644,-0.990845,0.281924,0.508702,-0.085191,47,275,589,6288
1644185759.463261,-0.007629,0.011597,-0.992065,0.113985,0.356031,-0.008855,57,280,582,6256
1644185759.511634,-0.009216,0.010681,-0.990356,0.342992,0.233893,-0.085191,52,277,589,6256
1644185759.560053,-0.01001,0.010803,-0.990356,0.205588,0.523969,-0.069924,46,271,585,6176
1644185759.608439,-0.011597,0.010742,-0.99176,0.297191,0.417099,-0.176794,47,273,586,6288
1644185759.656837,-0.009094,0.010986,-0.989136,0.159786,0.508702,-0.161527,49,275,582,6192
1644185759.70523,-0.007141,0.012268,-0.991821,0.205588,0.386565,-0.161527,55,274,585,6240
1644185759.753595,-0.009094,0.01001,-0.990601,0.220855,0.493435,-0.237863,51,296,592,6128
1644185759.802007,-0.009766,0.010254,-0.990906,0.113985,0.264427,-0.100458,52,275,593,6240
1644185759.850452,-0.006042,0.008667,-0.990967,0.144519,0.386565,0.052214,47,285,582,6224
1644185759.899981,-0.007324,0.009521,-0.989685,0.251389,0.447634,-0.115725,45,273,577,6240
1644185759.950473,-0.005554,0.009949,-0.992493,0.205588,0.356031,-0.25313,55,276,576,6240
1644185760.000752,-0.005798,0.013489,-0.989258,0.35826,0.340763,-0.100458,46,276,590,6224
1644185760.045315,-0.008179,0.012207,-0.990784,0.022382,0.493435,0.082748,53,288,576,6224
1644185760.14081,-0.007202,0.011902,-0.990479,0.251389,0.371298,-0.069924,42,277,575,6240
1644185760.18915,-0.008728,0.011841,-0.990356,0.266656,0.356031,-0.008855,51,276,573,6240
1644185760.237559,-0.007141,0.008789,-0.99115,0.236122,0.401832,-0.130992,58,291,580,6176
1644185760.285918,-0.005859,0.011047,-0.991638,0.175053,0.432366,-0.085191,53,274,583,6192
1644185760.334345,-0.006714,0.008423,-0.98877,0.281924,0.462901,-0.115725,48,271,583,6176
1644185760.382738,-0.009033,0.009094,-0.990417,0.129252,0.294962,0.006412,59,273,586,6224
1644185760.431128,-0.007507,0.010437,-0.991943,0.129252,0.401832,-0.130992,46,279,592,6224
1644185760.479515,-0.008179,0.008667,-0.990784,0.190321,0.356031,-0.085191,45,285,577,6240
1644185760.527912,-0.008545,0.010437,-0.99054,0.35826,0.554504,-0.085191,57,270,582,6176
1644185760.576298,-0.007812,0.007751,-0.98761,0.266656,0.340763,-0.115725,48,279,587,6304
1644185760.624726,-0.009155,0.009827,-0.989258,0.236122,0.569771,-0.100458,39,276,578,6256
1644185760.673099,-0.007751,0.010498,-0.991028,0.236122,0.294962,-0.192061,48,274,590,6224
1644185760.721473,-0.009949,0.010803,-0.995178,0.205588,0.310229,-0.115725,52,280,589,6240
1644185760.769871,-0.008423,0.008118,-0.987732,0.266656,0.447634,0.113282,48,276,592,6176
1644185760.818272,-0.006226,0.007629,-0.993286,0.205588,0.233893,-0.054656,47,268,579,6256
1644185760.866694,-0.00824,0.008301,-0.990295,0.251389,0.539237,-0.024122,51,276,580,6240
1644185760.915129,-0.009399,0.00946,-0.990845,0.342992,0.340763,-0.100458,45,268,586,6240
1644185760.963492,-0.007629,0.010315,-0.991821,0.281924,0.371298,-0.054656,54,277,591,6224
1644185761.011898,-0.005615,0.010071,-0.990967,0.35826,0.340763,-0.115725,36,281,587,6160
1644185761.108696,-0.006592,0.011353,-0.990295,0.052916,0.432366,-0.14626,47,277,584,6192
1644185761.157037,-0.007385,0.010742,-0.99176,0.022382,0.493435,-0.085191,62,274,587,6256
1644185761.20546,-0.006897,0.007629,-0.992859,0.144519,0.310229,-0.207328,43,283,585,6256
1644185761.253791,-0.00531,0.011475,-0.991333,0.159786,0.447634,-0.054656,30,280,579,6192
1644185761.302374,-0.008545,0.008911,-0.99054,0.373527,0.310229,-0.100458,43,279,571,6224
1644185761.350587,-0.006531,0.01062,-0.988037,0.236122,0.508702,-0.25313,59,273,579,6192
1644185761.398967,-0.007751,0.008423,-0.991638,0.236122,0.478168,0.021679,52,282,582,6224
1644185761.447384,-0.009216,0.00824,-0.992004,0.266656,0.371298,-0.008855,54,282,593,6240
1644185761.495748,-0.004272,0.009705,-0.989258,0.205588,0.432366,-0.192061,46,274,587,6224
1644185761.544172,-0.007751,0.010559,-0.989929,0.220855,0.63084,-0.024122,35,287,579,6224
1644185761.592561,-0.009827,0.013123,-0.992798,0.236122,0.417099,0.006412,49,280,575,6192
1644185761.640943,-0.008667,0.010254,-0.990417,0.098718,0.386565,-0.130992,45,273,582,6224
1644185761.68934,-0.010803,0.010803,-0.990601,0.281924,0.386565,-0.115725,49,282,584,6240
1644185761.737724,-0.009033,0.009155,-0.989563,0.190321,0.432366,0.052214,46,264,590,6256
1644185761.786118,-0.009094,0.01062,-0.989014,0.205588,0.356031,-0.176794,53,259,590,6224
1644185761.834496,-0.008301,0.010925,-0.990784,0.113985,0.478168,-0.14626,45,275,589,6160
1644185761.882978,-0.012024,0.010254,-0.993347,0.236122,0.401832,0.113282,58,276,587,6240
1644185761.93134,-0.012268,0.005676,-0.990051,0.236122,0.554504,-0.024122,51,286,585,6240
1644185761.979762,-0.009888,0.009338,-0.987915,0.190321,0.310229,-0.161527,51,279,583,6224
1644185762.029477,-0.009216,0.009583,-0.992798,0.144519,0.462901,-0.130992,53,281,587,6224
1644185762.084135,-0.01001,0.007446,-0.989441,0.297191,0.462901,0.036947,52,275,589,6240
1644185762.129794,-0.005737,0.010864,-0.99231,0.327725,0.478168,-0.130992,51,274,590,6240
1644185762.17421,-0.00885,0.009399,-0.989929,0.098718,0.447634,-0.130992,52,282,577,6176
1644185762.270067,-0.009338,0.009766,-0.994019,0.281924,0.279695,-0.069924,59,270,584,6240
1644185762.318463,-0.008606,0.008057,-0.992004,0.419328,0.279695,-0.069924,45,268,589,6224
1644185762.366881,-0.007935,0.00885,-0.989807,0.312458,0.432366,-0.024122,55,283,590,6192
1644185762.41528,-0.008728,0.010193,-0.990845,0.175053,0.371298,-0.207328,45,277,586,6224
1644185762.463651,-0.008057,0.008789,-0.990601,0.266656,0.264427,-0.161527,42,285,584,6128
1644185762.512065,-0.007568,0.009155,-0.990723,0.327725,0.371298,0.021679,49,268,582,6224
1644185762.560465,-0.007324,0.009644,-0.993347,0.373527,0.417099,-0.008855,59,275,577,6224
1644185762.608849,-0.008301,0.009033,-0.992493,0.404061,0.371298,-0.069924,46,283,580,6160
1644185762.657251,-0.00824,0.009216,-0.990723,0.190321,0.264427,-0.100458,58,274,580,6224
1644185762.705632,-0.006714,0.008362,-0.991699,0.327725,0.462901,-0.069924,45,275,579,6224
1644185762.754039,-0.007019,0.011841,-0.990784,0.327725,0.371298,-0.039389,52,268,579,6224
1644185762.802434,-0.007996,0.013489,-0.989197,0.068183,0.371298,-0.054656,49,290,584,6176
1644185762.850822,-0.007385,0.012207,-0.989136,0.220855,0.401832,-0.054656,45,275,586,6224
1644185762.899213,-0.008484,0.008545,-0.99353,0.404061,0.447634,-0.024122,51,288,583,6224
1644185762.94759,-0.00885,0.008911,-0.993408,0.327725,0.264427,-0.115725,54,277,584,6240
1644185762.995992,-0.004944,0.008789,-0.989807,0.159786,0.417099,-0.115725,51,276,583,6240
1644185763.057731,-0.006958,0.010254,-0.991028,0.281924,0.310229,-0.085191,55,279,590,6192
1644185763.092788,-0.007324,0.008789,-0.990173,0.175053,0.310229,0.006412,48,274,592,6224
1644185763.141137,-0.00647,0.009583,-0.990234,0.220855,0.279695,-0.100458,43,274,590,6192
1644185763.190253,-0.007874,0.011536,-0.992249,0.297191,0.386565,-0.176794,48,279,587,6224
1644185763.240627,-0.007507,0.011719,-0.990417,0.404061,0.340763,0.006412,46,271,583,6256
1644185763.290897,-0.010437,0.01001,-0.990356,0.205588,0.294962,-0.054656,48,279,587,6224
1644185763.335944,-0.007141,0.00946,-0.994385,0.266656,0.523969,0.052214,61,277,579,6240
1644185763.431482,-0.007019,0.010376,-0.988831,0.312458,0.310229,-0.130992,58,274,583,6224
1644185763.479878,-0.011414,0.010864,-0.992859,0.144519,0.447634,-0.024122,47,290,582,6224
1644185763.528258,-0.010132,0.009338,-0.990601,0.220855,0.478168,-0.085191,51,279,578,6256
1644185763.576656,-0.008545,0.009949,-0.991699,0.297191,0.325496,-0.14626,45,270,582,6224
1644185763.625075,-0.009705,0.01178,-0.990417,0.281924,0.356031,-0.039389,45,273,575,6256
1644185763.673451,-0.011353,0.010193,-0.992676,0.281924,0.356031,-0.192061,42,282,579,6192
1644185763.721814,-0.011292,0.011597,-0.992249,0.175053,0.386565,-0.176794,60,279,587,6224
1644185763.770242,-0.010132,0.008667,-0.992432,0.297191,0.432366,-0.008855,48,274,573,6192
1644185763.818668,-0.008301,0.009338,-0.99292,0.175053,0.386565,-0.069924,47,287,582,6160
1644185763.867062,-0.008667,0.009766,-0.991089,0.342992,0.462901,-0.008855,57,263,582,6224
1644185763.915464,-0.00647,0.010986,-0.990906,0.129252,0.539237,-0.161527,52,282,577,6256
1644185763.963874,-0.008911,0.011292,-0.990723,0.419328,0.401832,0.067481,49,280,586,6192
1644185764.012259,-0.007996,0.012146,-0.990662,0.373527,0.432366,-0.176794,49,277,572,6224
1644185764.071104,-0.007202,0.008728,-0.990601,0.052916,0.294962,-0.039389,42,270,586,6240
1644185764.108998,-0.007874,0.008667,-0.992065,0.159786,0.401832,-0.298931,53,269,590,6224
1644185764.157383,-0.006958,0.009399,-0.991394,0.220855,0.401832,-0.115725,42,277,584,6192
1644185764.205766,-0.007996,0.011108,-0.993774,0.144519,0.554504,-0.069924,59,277,582,6224
1644185764.254136,-0.010193,0.010681,-0.990417,0.144519,0.478168,0.036947,45,287,582,6176
1644185764.302536,-0.008301,0.006836,-0.990234,0.159786,0.264427,-0.054656,51,271,585,6224
1644185764.351216,-0.009766,0.012146,-0.991516,0.205588,0.447634,-0.024122,43,276,578,6128
1644185764.401929,-0.007324,0.010803,-0.991638,0.312458,0.417099,-0.192061,51,266,583,6224
1644185764.451885,-0.008118,0.009888,-0.992065,0.236122,0.325496,-0.161527,41,269,590,6240
1644185764.496987,-0.008118,0.009521,-0.99292,0.281924,0.371298,0.021679,42,277,589,6256
1644185764.592932,-0.009094,0.01062,-0.990356,0.404061,0.432366,-0.054656,53,281,583,6224
1644185764.641274,-0.009155,0.011475,-0.992676,0.159786,0.417099,0.113282,42,275,582,6224
1644185764.68969,-0.008179,0.007202,-0.993958,0.312458,0.356031,-0.237863,48,269,578,6160
1644185764.738089,-0.009888,0.010315,-0.99292,0.220855,0.447634,-0.008855,40,280,582,6224
1644185764.786479,-0.007568,0.009644,-0.990967,0.205588,0.264427,-0.161527,53,279,580,6224
1644185764.835005,-0.008545,0.010437,-0.99054,0.190321,0.310229,-0.161527,48,281,585,6224
1644185764.883326,-0.007507,0.007263,-0.990845,0.266656,0.325496,0.082748,54,277,582,6224
1644185764.93171,-0.01001,0.011292,-0.991455,0.037649,0.432366,-0.024122,60,279,578,6176
1644185764.98008,-0.010071,0.013611,-0.991943,0.129252,0.523969,-0.069924,43,298,583,6304
1644185765.028481,-0.006897,0.00946,-0.991516,0.113985,0.401832,0.098015,45,273,584,6192
1644185765.084086,-0.007507,0.009888,-0.993774,0.251389,0.417099,-0.298931,54,277,591,6160
1644185765.125245,-0.009277,0.009827,-0.991333,0.373527,0.447634,-0.100458,49,280,577,6224
1644185765.173669,-0.004944,0.01239,-0.990723,0.190321,0.294962,-0.130992,45,275,586,6176
1644185765.222795,-0.010071,0.009583,-0.989502,0.205588,0.24916,-0.100458,48,259,587,6256
1644185765.273092,-0.009583,0.010864,-0.991638,0.236122,0.371298,-0.039389,46,281,583,6192
1644185765.323204,-0.007507,0.010071,-0.991821,0.098718,0.508702,-0.115725,54,270,579,6176
1644185765.36836,-0.009705,0.010254,-0.992554,0.159786,0.356031,-0.100458,58,281,580,6224
1644185765.464003,-0.009644,0.010071,-0.990845,0.190321,0.356031,-0.039389,40,285,582,6336
1644185765.512403,-0.00885,0.008057,-0.991638,0.175053,0.462901,-0.130992,51,279,587,6176
1644185765.560767,-0.007935,0.01062,-0.990601,0.281924,0.325496,-0.069924,47,277,575,6240
1644185765.609154,-0.007629,0.009705,-0.992432,0.312458,0.508702,-0.039389,53,276,587,6256
1644185765.657542,-0.011108,0.011047,-0.991699,0.236122,0.325496,-0.024122,51,283,573,6192
1644185765.705935,-0.006592,0.009583,-0.990906,0.098718,0.401832,-0.069924,53,271,583,6224
1644185765.754327,-0.007996,0.010498,-0.991455,0.098718,0.401832,-0.115725,57,273,579,6128
1644185765.802751,-0.009277,0.008972,-0.990295,0.037649,0.417099,-0.222595,51,279,576,6192
1644185765.851177,-0.008362,0.012207,-0.993103,0.312458,0.310229,-0.115725,43,271,580,6224
1644185765.899563,-0.011169,0.012207,-0.991333,0.190321,0.279695,-0.115725,46,274,594,6224
1644185765.947963,-0.008972,0.008789,-0.990601,0.190321,0.600305,-0.054656,47,285,579,6224
1644185765.996324,-0.007141,0.007751,-0.992371,0.129252,0.478168,0.021679,54,285,584,6160
1644185766.057168,-0.009521,0.010193,-0.989014,0.251389,0.417099,-0.008855,52,282,586,6176
1644185766.093435,-0.009644,0.009399,-0.992981,0.251389,0.493435,-0.054656,45,287,586,6224
1644185766.141494,-0.00824,0.009338,-0.988831,0.297191,0.539237,0.036947,62,274,585,6224
1644185766.189878,-0.00946,0.009583,-0.990784,0.190321,0.539237,-0.130992,41,269,580,6240
1644185766.238279,-0.008118,0.009521,-0.99469,0.190321,0.325496,-0.085191,52,273,589,6240
1644185766.286666,-0.009888,0.01062,-0.991516,0.205588,0.447634,-0.268397,57,277,584,6192
1644185766.335095,-0.008362,0.008728,-0.991516,0.068183,0.386565,-0.161527,46,271,585,6224
1644185766.3838,-0.008057,0.009399,-0.991211,0.205588,0.493435,-0.008855,47,268,586,6224
1644185766.43408,-0.005554,0.009644,-0.988708,0.129252,0.447634,0.006412,46,279,585,6176
1644185766.484225,-0.008606,0.008667,-0.989075,0.205588,0.417099,-0.024122,52,277,586,6176
1644185766.529423,-0.006348,0.009705,-0.992249,0.144519,0.356031,-0.161527,65,279,573,6224
1644185766.625435,-0.009155,0.006531,-0.991333,0.220855,0.493435,-0.054656,52,277,577,6240
1644185766.673796,-0.007629,0.010498,-0.991882,0.190321,0.279695,-0.069924,51,274,585,6224
1644185766.722399,-0.010681,0.008972,-0.988098,0.220855,0.417099,-0.161527,57,290,584,6224
1644185766.770592,-0.00946,0.01062,-0.990662,0.175053,0.386565,-0.130992,42,282,586,6224
1644185766.818984,-0.007263,0.009338,-0.993042,0.037649,0.569771,-0.161527,47,280,579,6240
1644185766.867416,-0.006653,0.007935,-0.990173,0.251389,0.401832,-0.069924,42,273,579,6256
1644185766.915804,-0.008423,0.009644,-0.990601,0.266656,0.401832,-0.130992,42,273,591,6256
1644185766.96422,-0.009155,0.009827,-0.99231,0.297191,0.432366,-0.161527,52,273,586,6192
1644185767.012627,-0.009827,0.007507,-0.993652,0.159786,0.432366,0.021679,42,275,577,6192
1644185767.066365,-0.009705,0.009521,-0.991455,0.144519,0.356031,-0.207328,54,287,584,6192
1644185767.109365,-0.006897,0.009705,-0.991333,0.129252,0.523969,-0.115725,53,288,590,6176
1644185767.157728,-0.012268,0.01062,-0.99231,0.205588,0.478168,-0.207328,48,279,590,6224
1644185767.206136,-0.009216,0.01123,-0.992188,0.144519,0.264427,-0.039389,39,269,583,6160
