epoch,acc_x,acc_y,acc_z,rot_x,rot_y,rot_z,mag_x,mag_y,mag_z,temp
1644180900.001046,-0.006165,0.009827,-0.991638,0.113985,0.325496,-0.130992,51,276,580,6112
1644180900.060506,-0.006104,0.012207,-0.990784,0.068183,0.493435,-0.14626,58,274,583,6160
1644180900.102088,-0.006104,0.010559,-0.989441,0.251389,0.310229,0.021679,53,274,590,6160
1644180900.146184,-0.009094,0.007385,-0.990479,0.159786,0.356031,-0.161527,45,282,582,6160
1644180900.194693,-0.006775,0.008789,-0.98999,0.220855,0.478168,-0.008855,54,270,591,6128
1644180900.243039,-0.007019,0.010193,-0.992188,0.220855,0.401832,0.006412,48,271,590,6080
1644180900.291344,-0.007385,0.008911,-0.994263,0.144519,0.417099,-0.100458,51,281,583,6112
1644180900.339769,-0.008545,0.012024,-0.992371,0.175053,0.462901,-0.161527,51,279,585,6128
1644180900.388149,-0.011475,0.010132,-0.992004,0.266656,0.340763,-0.085191,54,277,593,6192
1644180900.43652,-0.008911,0.010742,-0.989563,0.129252,0.417099,-0.069924,42,280,584,6128
1644180900.485193,-0.010132,0.00824,-0.992432,0.251389,0.493435,-0.100458,51,276,592,6160
1644180900.533894,-0.01239,0.009338,-0.991882,0.220855,0.401832,-0.130992,41,269,597,6128
1644180900.584473,-0.009033,0.008728,-0.993164,0.159786,0.24916,-0.008855,47,287,589,6080
1644180900.634732,-0.008179,0.008057,-0.992432,0.220855,0.340763,-0.14626,40,273,593,6128
1644180900.679672,-0.00769,0.009766,-0.990051,0.434595,0.447634,-0.192061,42,282,586,6176
1644180900.775416,-0.01001,0.008545,-0.991272,0.113985,0.447634,-0.161527,53,276,580,6128
1644180900.823716,-0.008606,0.010132,-0.991638,0.08345,0.432366,-0.237863,62,271,576,6016
1644180900.87238,-0.007935,0.010315,-0.990662,0.312458,0.356031,0.036947,41,279,590,6048
1644180900.920503,-0.009216,0.01001,-0.990479,0.113985,0.462901,-0.054656,55,269,580,6112
1644180900.968905,-0.007629,0.008667,-0.992126,0.297191,0.508702,-0.054656,53,283,597,6176
1644180901.017297,-0.005859,0.011841,-0.992493,0.098718,0.294962,-0.069924,53,279,576,6192
1644180901.071118,-0.010925,0.012512,-0.991028,0.281924,0.432366,-0.130992,60,276,587,6080
1644180901.114043,-0.009949,0.009155,-0.991699,0.190321,0.63084,-0.054656,54,285,586,6112
1644180901.16244,-0.011292,0.006897,-0.990723,0.342992,0.386565,-0.039389,47,277,582,6112
1644180901.210832,-0.00824,0.009216,-0.994446,0.144519,0.417099,0.067481,48,288,578,6112
1644180901.259225,-0.008606,0.009338,-0.99353,0.388794,0.478168,-0.14626,54,273,589,6112
1644180901.307608,-0.007812,0.011047,-0.992859,0.281924,0.325496,-0.024122,51,283,590,6128
1644180901.355992,-0.009521,0.008606,-0.993225,0.251389,0.508702,-0.039389,43,281,573,6112
1644180901.404394,-0.010132,0.01178,-0.992859,0.190321,0.310229,-0.222595,57,275,589,6160
1644180901.452816,-0.007019,0.010132,-0.990662,0.236122,0.462901,-0.039389,49,275,591,6128
1644180901.501177,-0.008484,0.010071,-0.992004,0.251389,0.417099,0.006412,57,265,584,6064
1644180901.549558,-0.010803,0.011536,-0.990906,0.190321,0.356031,-0.130992,43,276,590,6128
1644180901.597953,-0.010193,0.009399,-0.991638,0.297191,0.401832,-0.115725,64,280,598,6048
1644180901.646359,-0.00946,0.010925,-0.993774,0.404061,0.279695,-0.039389,46,276,580,6080
1644180901.69522,-0.007568,0.009827,-0.990723,0.251389,0.417099,-0.14626,49,275,586,6128
1644180901.745233,-0.008484,0.00824,-0.992004,0.266656,0.478168,-0.024122,55,269,585,6080
1644180901.795594,-0.006287,0.007874,-0.991089,0.129252,0.356031,-0.161527,48,286,587,6112
1644180901.840597,-0.008301,0.00885,-0.99292,0.297191,0.493435,-0.054656,54,280,584,6080
1644180901.936728,-0.010437,0.008362,-0.99115,0.35826,0.462901,0.159084,53,281,583,6112
1644180901.985405,-0.010681,0.009644,-0.991943,0.236122,0.447634,-0.085191,52,280,582,6160
1644180902.033584,-0.010925,0.010376,-0.990295,0.052916,0.569771,-0.25313,57,275,596,6080
1644180902.081994,-0.008789,0.010071,-0.990417,0.281924,0.508702,-0.100458,45,277,586,6112
1644180902.130319,-0.008118,0.010132,-0.992615,0.281924,0.493435,-0.024122,52,280,579,6128
1644180902.178666,-0.008545,0.009399,-0.991577,0.220855,0.600305,-0.085191,46,274,580,6128
1644180902.227054,-0.010559,0.010864,-0.993042,0.190321,0.386565,-0.054656,40,275,582,6160
1644180902.275462,-0.009521,0.010437,-0.991089,0.236122,0.356031,-0.054656,41,274,592,6224
1644180902.323853,-0.008057,0.006165,-0.991455,0.175053,0.569771,-0.069924,49,277,579,6112
1644180902.372268,-0.008118,0.010559,-0.990601,0.129252,0.539237,0.006412,48,274,585,6160
1644180902.42064,-0.009277,0.007751,-0.991821,0.144519,0.462901,-0.390534,48,281,585,6224
1644180902.469013,-0.01001,0.006836,-0.990601,0.251389,0.417099,-0.130992,58,283,590,6112
1644180902.517422,-0.010864,0.009705,-0.990051,0.08345,0.401832,0.006412,47,282,584,6112
1644180902.565807,-0.00885,0.011841,-0.993408,0.205588,0.417099,-0.069924,51,276,583,6128
1644180902.614188,-0.009705,0.009583,-0.992737,0.159786,0.447634,-0.008855,46,281,592,6080
1644180902.66262,-0.008362,0.014038,-0.990417,0.266656,0.310229,-0.100458,43,286,590,6128
1644180902.710995,-0.00946,0.01123,-0.990417,0.327725,0.447634,-0.069924,35,270,596,6080
1644180902.759394,-0.00885,0.009766,-0.99115,0.08345,0.371298,-0.283664,38,273,584,6128
1644180902.807771,-0.009827,0.011353,-0.992554,0.220855,0.401832,-0.14626,57,282,589,6080
1644180902.85657,-0.006836,0.006897,-0.99176,0.404061,0.508702,-0.14626,49,273,577,6112
1644180902.907395,-0.008606,0.008728,-0.990051,0.342992,0.24916,-0.069924,54,280,593,6176
1644180902.958708,-0.008667,0.009216,-0.990723,0.266656,0.340763,-0.14626,48,274,594,6128
1644180903.002379,-0.01123,0.010071,-0.992188,0.251389,0.478168,-0.054656,46,276,583,6128
1644180903.099632,-0.010376,0.007629,-0.987976,0.175053,0.432366,-0.130992,40,285,582,6128
1644180903.146671,-0.011169,0.008911,-0.99176,0.205588,0.646107,-0.192061,47,277,591,6112
1644180903.195078,-0.008057,0.009583,-0.992004,0.35826,0.356031,-0.069924,49,285,596,6128
1644180903.243321,-0.009277,0.013733,-0.98999,0.205588,0.600305,-0.008855,42,270,579,6112
1644180903.291686,-0.007446,0.008789,-0.990662,0.251389,0.279695,-0.008855,51,269,585,6016
1644180903.340109,-0.01001,0.009338,-0.990295,0.129252,0.386565,-0.192061,46,274,597,6128
1644180903.388501,-0.008362,0.011108,-0.989868,0.08345,0.371298,-0.100458,46,283,583,6176
1644180903.436877,-0.010193,0.009949,-0.988831,0.281924,0.417099,0.006412,49,280,593,6080
1644180903.485267,-0.00769,0.010193,-0.993286,0.373527,0.325496,-0.008855,45,282,582,6112
1644180903.533671,-0.00708,0.011047,-0.98938,0.419328,0.462901,-0.085191,52,268,586,6112
1644180903.582059,-0.011047,0.012268,-0.991577,0.251389,0.371298,0.052214,60,283,592,6160
1644180903.630457,-0.011414,0.011108,-0.99231,0.281924,0.371298,-0.069924,46,281,587,6128
1644180903.67881,-0.007385,0.010498,-0.989075,0.281924,0.325496,0.052214,54,273,589,6128
1644180903.727243,-0.008362,0.009094,-0.993652,0.236122,0.432366,-0.024122,41,274,583,6192
1644180903.775634,-0.010559,0.008911,-0.990112,0.113985,0.417099,-0.115725,48,276,590,6080
1644180903.824017,-0.008057,0.006836,-0.993591,0.190321,0.294962,-0.130992,47,280,579,6128
1644180903.872478,-0.008057,0.008911,-0.992188,0.190321,0.585038,-0.039389,47,280,586,6192
1644180903.920862,-0.009338,0.010864,-0.99054,0.419328,0.432366,-0.130992,48,288,573,6160
1644180903.969862,-0.009766,0.010376,-0.991211,0.205588,0.462901,-0.100458,55,271,583,6160
1644180904.0201,-0.008118,0.01001,-0.991577,0.266656,0.356031,-0.100458,49,277,582,6128
1644180904.114394,-0.007568,0.00885,-0.990479,0.388794,0.417099,-0.085191,42,273,593,6128
1644180904.162828,-0.00708,0.009277,-0.989685,0.205588,0.371298,-0.008855,53,271,585,6160
1644180904.21116,-0.00824,0.008972,-0.991882,0.312458,0.371298,-0.161527,48,281,583,6224
1644180904.259525,-0.010437,0.011475,-0.992188,0.312458,0.432366,-0.14626,48,271,585,6160
1644180904.307917,-0.007141,0.010742,-0.990356,0.175053,0.478168,-0.039389,48,276,580,6112
1644180904.35634,-0.009033,0.007263,-0.989136,0.129252,0.401832,-0.130992,47,280,572,6192
1644180904.404739,-0.007385,0.010132,-0.99231,0.35826,0.554504,-0.085191,54,277,586,6160
1644180904.453137,-0.009705,0.010681,-0.992859,0.236122,0.340763,0.021679,48,281,585,6112
1644180904.501489,-0.009888,0.007324,-0.989868,0.175053,0.417099,-0.069924,46,279,587,6128
1644180904.549904,-0.01123,0.007812,-0.992981,0.236122,0.432366,-0.085191,59,290,591,6112
1644180904.59831,-0.009827,0.010742,-0.99054,0.281924,0.386565,-0.130992,41,279,587,6080
1644180904.646669,-0.007996,0.011169,-0.989502,0.281924,0.401832,-0.100458,52,273,584,6128
1644180904.695202,-0.009155,0.008728,-0.99231,0.220855,0.386565,0.052214,42,285,584,6048
1644180904.74349,-0.008057,0.009399,-0.99408,0.434595,0.447634,-0.115725,51,281,580,6080
1644180904.791876,-0.00531,0.010071,-0.99176,0.175053,0.279695,-0.054656,57,290,582,6160
1644180904.840274,-0.009705,0.010498,-0.991638,0.266656,0.325496,-0.039389,46,274,585,6160
1644180904.8887,-0.008606,0.007385,-0.99292,0.08345,0.447634,-0.237863,48,264,585,6176
1644180904.937087,-0.009094,0.006775,-0.991211,0.251389,0.432366,-0.024122,46,271,594,6080
1644180904.985518,-0.009521,0.010193,-0.991089,0.159786,0.447634,-0.039389,59,275,589,6160
1644180905.035262,-0.007019,0.011902,-0.989746,0.281924,0.447634,0.067481,52,280,591,6128
1644180905.094042,-0.006958,0.01123,-0.989258,0.251389,0.279695,-0.054656,49,273,589,6080
1644180905.179028,-0.008484,0.010071,-0.990967,0.266656,0.386565,-0.130992,51,274,590,6080
1644180905.227388,-0.007324,0.007751,-0.991028,0.175053,0.294962,-0.085191,48,279,583,6080
1644180905.275777,-0.008667,0.008972,-0.990112,0.281924,0.523969,-0.054656,47,273,589,6176
1644180905.324194,-0.007385,0.010925,-0.990662,0.266656,0.386565,-0.100458,49,273,584,6112
1644180905.372596,-0.009644,0.007324,-0.989868,0.327725,0.340763,-0.054656,52,285,582,6080
1644180905.420972,-0.006897,0.012573,-0.99469,0.113985,0.432366,-0.085191,51,274,587,6160
1644180905.469357,-0.010925,0.009888,-0.993713,0.098718,0.356031,-0.192061,57,275,586,6128
1644180905.517752,-0.008423,0.010864,-0.992676,0.068183,0.493435,-0.008855,55,279,587,6080
1644180905.566152,-0.011108,0.006104,-0.991577,0.35826,0.478168,-0.069924,47,277,579,6064
1644180905.61466,-0.007935,0.00885,-0.990295,0.159786,0.569771,0.021679,52,273,579,6192
1644180905.662959,-0.009888,0.012329,-0.990601,0.220855,0.478168,-0.192061,45,270,589,6128
1644180905.711332,-0.009888,0.012756,-0.990723,0.159786,0.310229,0.021679,57,268,584,6128
1644180905.759696,-0.00708,0.009399,-0.993408,0.281924,0.493435,-0.039389,55,283,590,6160
1644180905.808168,-0.008423,0.008606,-0.989746,0.190321,0.371298,0.006412,52,282,584,6080
1644180905.856552,-0.008789,0.008057,-0.992493,0.251389,0.417099,-0.14626,43,274,587,6160
1644180905.904935,-0.009155,0.008179,-0.991272,0.35826,0.371298,0.052214,52,268,591,6160
1644180905.953337,-0.00592,0.011597,-0.993103,0.175053,0.539237,0.006412,60,276,592,6064
1644180906.001698,-0.009827,0.007263,-0.994019,0.297191,0.371298,-0.069924,41,269,585,6080
1644180906.06099,-0.009949,0.010559,-0.991638,0.220855,0.356031,-0.100458,46,281,587,6080
1644180906.107728,-0.011963,0.01001,-0.992493,0.205588,0.508702,-0.039389,47,270,586,6080
1644180906.151743,-0.007812,0.008545,-0.992249,0.434595,0.523969,-0.222595,46,264,583,6112
1644180906.196672,-0.009094,0.010315,-0.99176,0.251389,0.493435,-0.039389,49,270,579,6112
1644180906.292034,-0.007812,0.009338,-0.992859,0.236122,0.432366,-0.130992,48,276,590,6160
1644180906.340428,-0.010376,0.006226,-0.991943,0.113985,0.478168,-0.069924,41,281,583,6192
1644180906.38883,-0.009033,0.012085,-0.992188,0.327725,0.508702,-0.054656,40,280,582,6080
1644180906.437211,-0.00708,0.010437,-0.992554,0.266656,0.508702,-0.069924,54,275,577,6112
1644180906.485609,-0.010864,0.008789,-0.991028,0.342992,0.356031,-0.237863,45,275,589,6080
1644180906.534019,-0.009216,0.009766,-0.990723,0.266656,0.371298,-0.192061,52,277,593,6128
1644180906.582424,-0.009888,0.010132,-0.991882,0.190321,0.310229,-0.100458,55,283,583,6192
1644180906.630792,-0.007141,0.009766,-0.991638,0.144519,0.447634,-0.115725,55,274,587,6160
1644180906.679187,-0.009827,0.008789,-0.99231,0.098718,0.371298,0.006412,52,280,593,6080
1644180906.72758,-0.009033,0.008972,-0.992737,0.205588,0.417099,-0.115725,47,268,589,6160
1644180906.775975,-0.009338,0.010864,-0.993286,0.175053,0.447634,-0.130992,53,283,587,6128
1644180906.824432,-0.007507,0.010803,-0.992554,0.281924,0.294962,-0.085191,52,280,591,6240
1644180906.872811,-0.007446,0.007996,-0.994446,0.236122,0.386565,-0.14626,48,276,578,6160
1644180906.921189,-0.010193,0.013611,-0.993591,0.373527,0.340763,-0.130992,39,274,578,6176
1644180906.969572,-0.006531,0.008118,-0.995544,0.281924,0.417099,-0.054656,45,275,586,6016
1644180907.017973,-0.011108,0.00708,-0.992188,0.144519,0.371298,-0.085191,51,283,592,6128
1644180907.114755,-0.00946,0.009277,-0.990479,0.205588,0.417099,0.052214,48,279,597,6192
1644180907.163115,-0.008301,0.010742,-0.990784,0.297191,0.462901,-0.115725,40,282,593,6128
1644180907.211489,-0.008667,0.01062,-0.990845,0.251389,0.279695,-0.024122,42,280,582,6048
1644180907.259865,-0.010376,0.011475,-0.991394,0.281924,0.401832,-0.039389,48,274,580,6160
1644180907.308296,-0.006958,0.012024,-0.993347,0.098718,0.432366,0.006412,54,285,586,6080
1644180907.356646,-0.009338,0.012878,-0.990723,0.327725,0.585038,-0.039389,51,279,580,6128
1644180907.405098,-0.010681,0.012024,-0.989807,0.190321,0.523969,-0.069924,43,281,583,6080
1644180907.453445,-0.009155,0.009277,-0.990906,0.35826,0.356031,-0.100458,48,271,590,6176
1644180907.501839,-0.00946,0.011719,-0.995544,0.144519,0.462901,-0.100458,47,277,586,6128
1644180907.55026,-0.008118,0.011536,-0.989746,0.144519,0.386565,-0.100458,48,279,578,6192
1644180907.598651,-0.007263,0.008301,-0.990967,0.266656,0.508702,-0.008855,45,275,582,6128
1644180907.647034,-0.009949,0.012085,-0.990234,0.220855,0.371298,-0.100458,51,276,585,6160
1644180907.695439,-0.009033,0.010864,-0.992065,0.327725,0.401832,0.006412,51,283,592,6112
1644180907.743832,-0.011108,0.008972,-0.992126,0.373527,0.386565,-0.069924,52,277,579,6160
1644180907.792244,-0.010193,0.010376,-0.990356,0.297191,0.371298,-0.207328,46,283,583,6112
1644180907.840647,-0.00769,0.010437,-0.990417,0.175053,0.218626,-0.024122,51,274,587,6112
1644180907.889037,-0.007874,0.00885,-0.991943,0.159786,0.386565,0.067481,54,268,589,6128
1644180907.937505,-0.008362,0.005981,-0.992126,0.449863,0.356031,0.052214,54,277,586,6176
1644180907.985856,-0.008423,0.009521,-0.992249,0.205588,0.539237,-0.176794,53,288,590,6112
1644180908.034971,-0.009033,0.010071,-0.992126,0.342992,0.462901,0.052214,51,276,590,6112
1644180908.0868,-0.006042,0.011658,-0.991516,0.281924,0.432366,-0.085191,59,275,589,6128
1644180908.136876,-0.009705,0.00769,-0.994568,0.205588,0.401832,0.067481,51,269,585,6160
1644180908.179963,-0.005554,0.01239,-0.992249,0.281924,0.356031,-0.130992,52,285,589,6112
1644180908.27612,-0.007202,0.009644,-0.990173,0.251389,0.340763,-0.222595,47,275,584,6112
1644180908.324532,-0.008911,0.01062,-0.992249,0.434595,0.356031,-0.14626,46,269,583,6128
1644180908.372931,-0.010864,0.007812,-0.991882,0.220855,0.508702,-0.069924,41,274,583,6224
1644180908.421306,-0.009766,0.013123,-0.992676,0.281924,0.462901,-0.130992,54,280,582,6112
1644180908.469708,-0.009155,0.010376,-0.990662,0.159786,0.294962,-0.14626,55,283,571,6080
1644180908.518087,-0.006165,0.011475,-0.991699,0.144519,0.371298,-0.024122,58,276,587,6128
1644180908.566492,-0.009521,0.011108,-0.991272,0.35826,0.493435,-0.222595,43,264,585,6128
1644180908.614879,-0.007629,0.012573,-0.990601,0.297191,0.371298,-0.069924,41,279,583,6064
1644180908.663289,-0.007507,0.01239,-0.991394,0.190321,0.340763,0.12855,49,282,579,6128
1644180908.711658,-0.007629,0.008545,-0.991516,0.266656,0.478168,0.006412,43,281,594,6080
1644180908.760069,-0.005676,0.006653,-0.990112,0.205588,0.264427,-0.176794,43,283,583,6128
1644180908.808468,-0.008179,0.006348,-0.99176,0.266656,0.371298,-0.008855,55,269,578,6192
1644180908.856888,-0.009521,0.009521,-0.991211,0.205588,0.356031,-0.207328,49,285,584,6128
1644180908.905282,-0.011536,0.008118,-0.991028,0.297191,0.447634,0.036947,51,274,585,6160
1644180908.953677,-0.006592,0.008972,-0.991943,0.159786,0.325496,-0.161527,53,283,587,6176
1644180909.002052,-0.008179,0.010132,-0.990234,0.342992,0.325496,-0.039389,54,270,577,6080
1644180909.067916,-0.008728,0.009827,-0.989685,0.205588,0.478168,-0.085191,45,273,586,6160
1644180909.100641,-0.009094,0.010193,-0.989502,0.144519,0.356031,-0.14626,49,280,584,6176
1644180909.147219,-0.008911,0.006531,-0.992004,0.297191,0.508702,-0.008855,38,292,579,6080
1644180909.195956,-0.009277,0.011658,-0.992737,0.159786,0.432366,-0.237863,49,273,600,6176
1644180909.246207,-0.00769,0.010132,-0.991943,0.113985,0.386565,-0.008855,48,269,590,6128
1644180909.296346,-0.007568,0.010681,-0.992249,0.35826,0.340763,-0.085191,48,279,583,6080
1644180909.341424,-0.00708,0.007935,-0.992188,0.327725,0.508702,-0.024122,46,274,583,6160
1644180909.437535,-0.009399,0.010132,-0.993469,0.297191,0.310229,-0.054656,54,285,589,6128
1644180909.485939,-0.009155,0.009644,-0.990662,0.205588,0.493435,0.006412,54,280,584,6160
1644180909.534354,-0.006348,0.007385,-0.991882,0.236122,0.478168,-0.14626,51,271,594,6128
1644180909.582745,-0.009827,0.010132,-0.99231,0.220855,0.340763,-0.115725,59,275,582,6064
1644180909.631132,-0.012085,0.007812,-0.992554,0.312458,0.401832,-0.161527,54,282,572,6160
1644180909.679522,-0.008301,0.006836,-0.991577,0.236122,0.417099,-0.130992,47,290,582,6112
1644180909.72792,-0.008667,0.011719,-0.990173,0.312458,0.478168,-0.008855,49,277,586,6112
1644180909.776305,-0.007812,0.011841,-0.992126,0.251389,0.462901,-0.069924,53,274,583,6080
1644180909.824709,-0.007141,0.010925,-0.989136,0.388794,0.447634,-0.115725,46,264,580,6224
1644180909.87314,-0.012024,0.007507,-0.993408,0.190321,0.386565,-0.161527,53,281,583,6128
1644180909.921493,-0.006958,0.008118,-0.990723,0.251389,0.325496,0.036947,40,285,589,6224
1644180909.969927,-0.007874,0.012207,-0.991699,0.205588,0.432366,0.021679,54,270,593,6112
1644180910.018318,-0.008667,0.007385,-0.990417,0.159786,0.447634,-0.130992,49,282,589,6128
1644180910.077097,-0.007019,0.00946,-0.991394,0.190321,0.310229,-0.130992,51,274,594,6160
1644180910.115594,-0.011169,0.008606,-0.992676,0.342992,0.569771,-0.100458,47,277,589,6176
1644180910.163459,-0.008606,0.011108,-0.992249,0.113985,0.432366,0.006412,51,274,592,6112
1644180910.211848,-0.009583,0.011353,-0.993896,0.159786,0.462901,-0.176794,49,282,584,6128
1644180910.26021,-0.008057,0.010925,-0.992065,0.327725,0.356031,0.052214,52,263,593,6080
1644180910.308946,-0.006287,0.007751,-0.991272,0.159786,0.371298,-0.14626,55,274,576,6160
1644180910.35799,-0.007812,0.009766,-0.990662,0.220855,0.462901,-0.176794,40,268,584,6112
1644180910.408343,-0.009216,0.009277,-0.993042,0.144519,0.523969,-0.176794,49,282,582,6176
1644180910.458452,-0.008301,0.00769,-0.992676,0.175053,0.340763,-0.207328,57,275,591,6160
1644180910.503491,-0.007446,0.010315,-0.992065,0.312458,0.478168,0.067481,47,290,591,6080
1644180910.598972,-0.008118,0.008972,-0.992371,0.205588,0.417099,-0.237863,61,280,584,6112
1644180910.647361,-0.007263,0.009644,-0.994202,0.35826,0.508702,-0.039389,53,276,587,6080
1644180910.695751,-0.010376,0.010803,-0.990601,0.373527,0.432366,-0.024122,58,266,578,6224
1644180910.744162,-0.010193,0.008911,-0.993713,0.312458,0.294962,-0.085191,42,292,582,6112
1644180910.792554,-0.012634,0.009216,-0.990723,0.404061,0.386565,-0.054656,46,271,583,6224
1644180910.840932,-0.007141,0.009827,-0.992371,0.327725,0.386565,-0.024122,47,268,582,6160
1644180910.88938,-0.008545,0.011353,-0.989502,0.35826,0.401832,-0.130992,60,283,590,6160
1644180910.937779,-0.010376,0.010559,-0.992615,0.098718,0.386565,-0.085191,49,268,584,6224
1644180910.986166,-0.006592,0.010071,-0.99054,0.35826,0.417099,0.052214,53,276,594,6176
1644180911.034546,-0.007141,0.010681,-0.989929,0.190321,0.462901,-0.176794,49,277,586,6128
1644180911.09655,-0.011475,0.010925,-0.99231,0.281924,0.432366,-0.069924,53,274,590,6128
1644180911.131324,-0.008484,0.009827,-0.99408,0.068183,0.447634,-0.192061,57,268,579,6176
1644180911.179696,-0.009705,0.007812,-0.990662,0.404061,0.539237,0.052214,52,268,577,6160
1644180911.228059,-0.009094,0.005615,-0.99115,0.190321,0.447634,0.006412,55,271,578,6160
1644180911.277127,-0.011108,0.009705,-0.991028,0.220855,0.356031,0.036947,46,269,592,6112
1644180911.330292,-0.013428,0.011414,-0.992432,0.342992,0.523969,-0.054656,54,275,598,6224
1644180911.37644,-0.008667,0.007874,-0.994385,0.327725,0.310229,-0.100458,48,274,590,6192
1644180911.426637,-0.007751,0.010803,-0.992981,0.129252,0.478168,0.006412,59,280,586,6160
1644180911.518431,-0.007141,0.011841,-0.990356,0.297191,0.371298,-0.100458,41,281,583,6112
1644180911.566808,-0.01123,0.009644,-0.991882,0.129252,0.310229,-0.085191,46,271,580,6128
1644180911.615264,-0.009705,0.008911,-0.992188,0.175053,0.462901,-0.024122,49,277,584,6160
1644180911.663592,-0.010376,0.008179,-0.991638,0.281924,0.447634,-0.054656,54,270,584,6080
1644180911.712018,-0.01178,0.010071,-0.991272,0.297191,0.294962,-0.100458,53,286,585,6080
1644180911.760435,-0.008545,0.011047,-0.990967,0.266656,0.401832,-0.130992,38,280,586,6128
1644180911.808783,-0.008423,0.010254,-0.991516,0.144519,0.447634,-0.115725,47,277,584,6192
1644180911.857165,-0.009521,0.010071,-0.992676,0.327725,0.508702,-0.115725,49,287,582,6128
1644180911.905627,-0.009766,0.008667,-0.991638,0.419328,0.508702,-0.115725,53,269,587,6112
1644180911.954034,-0.009094,0.009888,-0.991455,0.190321,0.401832,-0.039389,41,283,578,6080
1644180912.002394,-0.009949,0.007019,-0.990662,0.327725,0.508702,-0.161527,48,271,583,6080
1644180912.067602,-0.008301,0.009827,-0.990967,0.205588,0.523969,-0.14626,47,265,584,6160
1644180912.100147,-0.009949,0.01001,-0.989807,0.297191,0.462901,0.036947,48,286,594,6192
1644180912.147591,-0.007446,0.008484,-0.990112,0.113985,0.310229,-0.100458,49,270,584,6080
1644180912.195987,-0.00946,0.007935,-0.993591,0.312458,0.401832,-0.024122,48,274,580,6176
1644180912.244384,-0.010132,0.009766,-0.993164,0.205588,0.386565,-0.024122,48,279,578,6080
1644180912.292772,-0.011414,0.009155,-0.99231,0.327725,0.462901,0.067481,54,268,593,6176
1644180912.341142,-0.007385,0.011719,-0.99231,0.480397,0.356031,-0.176794,49,275,575,6112
1644180912.389561,-0.008179,0.009827,-0.992493,0.220855,0.401832,-0.100458,45,275,575,6192
1644180912.439051,-0.009094,0.009705,-0.99115,0.220855,0.417099,-0.130992,53,281,587,6160
1644180912.489618,-0.007446,0.010498,-0.992676,0.144519,0.417099,-0.039389,52,282,584,6176
1644180912.539808,-0.005432,0.01001,-0.99353,0.190321,0.462901,-0.069924,46,276,580,6160
1644180912.584102,-0.011292,0.01001,-0.990051,0.266656,0.310229,0.113282,43,279,580,6080
1644180912.679889,-0.006592,0.010986,-0.992249,0.312458,0.417099,-0.069924,51,274,583,6128
1644180912.728292,-0.008484,0.009705,-0.992493,0.236122,0.432366,-0.069924,40,277,586,6128
1644180912.776676,-0.007385,0.00824,-0.989563,0.190321,0.447634,0.067481,40,273,575,6128
1644180912.82512,-0.007324,0.010376,-0.991089,0.236122,0.386565,-0.25313,45,285,579,6176
1644180912.873485,-0.007202,0.009583,-0.991333,0.404061,0.356031,-0.130992,60,274,576,6160
1644180912.921876,-0.010986,0.011047,-0.992493,0.312458,0.539237,0.021679,57,282,589,6064
1644180912.970265,-0.007568,0.009888,-0.990112,0.236122,0.539237,-0.176794,45,277,596,6128
1644180913.018654,-0.010559,0.00769,-0.991516,0.068183,0.401832,-0.069924,49,275,589,6176
1644180913.070056,-0.007751,0.008301,-0.988403,0.312458,0.554504,-0.024122,55,274,592,6128
1644180913.115351,-0.008545,0.008362,-0.992004,0.419328,0.371298,-0.100458,53,264,583,6128
1644180913.163816,-0.010376,0.010681,-0.993713,0.297191,0.478168,-0.069924,48,279,580,6160
1644180913.212237,-0.009583,0.008728,-0.990662,0.220855,0.294962,-0.069924,53,274,583,6192
1644180913.260551,-0.011475,0.01123,-0.993896,0.205588,0.417099,0.067481,42,277,596,6160
1644180913.308964,-0.006287,0.009155,-0.99292,0.266656,0.401832,-0.161527,49,280,579,6160
1644180913.35736,-0.007812,0.008972,-0.989807,0.281924,0.432366,-0.222595,49,280,591,6128
1644180913.405756,-0.009949,0.012756,-0.991821,0.113985,0.371298,-0.130992,42,282,591,6128
1644180913.454148,-0.007935,0.01062,-0.993042,0.236122,0.447634,-0.161527,39,279,578,6128
1644180913.502936,-0.010437,0.009583,-0.991821,0.404061,0.432366,-0.176794,54,270,586,6080
1644180913.550942,-0.006226,0.009216,-0.993164,0.205588,0.417099,-0.085191,59,275,579,6112
1644180913.599912,-0.009766,0.007996,-0.990845,0.190321,0.432366,-0.024122,58,276,580,6112
1644180913.651433,-0.009521,0.014038,-0.989319,0.327725,0.508702,0.021679,52,275,577,6160
1644180913.700349,-0.008667,0.009277,-0.991211,0.266656,0.447634,-0.085191,46,264,594,6080
1644180913.745422,-0.00708,0.011108,-0.992493,0.190321,0.523969,-0.192061,48,276,585,6160
1644180913.841315,-0.008057,0.01178,-0.993164,0.144519,0.386565,-0.039389,60,281,580,6080
1644180913.889712,-0.010986,0.008484,-0.991089,0.175053,0.417099,-0.176794,62,274,587,6064
1644180913.938128,-0.007446,0.012207,-0.991516,0.129252,0.371298,-0.100458,54,277,577,6128
1644180913.986495,-0.008789,0.010315,-0.990417,0.388794,0.401832,-0.024122,46,274,580,6112
1644180914.034906,-0.007996,0.009705,-0.991699,0.236122,0.401832,-0.130992,51,279,587,6128
1644180914.083461,-0.008667,0.009155,-0.994812,0.266656,0.310229,-0.222595,53,283,583,6080
1644180914.131624,-0.00824,0.009155,-0.991394,0.35826,0.401832,-0.115725,64,263,579,6176
1644180914.180043,-0.007935,0.010864,-0.989624,0.373527,0.386565,-0.008855,51,276,587,6176
1644180914.228425,-0.007751,0.01123,-0.990051,0.190321,0.523969,-0.008855,49,277,589,6128
1644180914.276822,-0.009644,0.011658,-0.98999,0.205588,0.417099,-0.100458,57,270,579,6128
1644180914.325316,-0.008667,0.009827,-0.990479,0.159786,0.356031,-0.115725,51,271,587,6160
1644180914.373611,-0.007935,0.008362,-0.991089,-0.008153,0.386565,-0.085191,48,276,587,6160
1644180914.422003,-0.005859,0.010071,-0.988464,0.281924,0.24916,-0.130992,49,273,579,6160
1644180914.470392,-0.008911,0.009399,-0.990845,0.251389,0.432366,-0.039389,55,283,585,6176
1644180914.518785,-0.011536,0.010071,-0.991699,0.159786,0.493435,0.021679,46,266,590,6176
1644180914.567176,-0.010376,0.010315,-0.991333,0.205588,0.462901,-0.069924,49,282,582,6160
1644180914.615569,-0.010864,0.011353,-0.99292,0.205588,0.447634,-0.130992,61,277,584,6112
1644180914.663962,-0.007812,0.010803,-0.992554,0.251389,0.417099,-0.054656,45,273,586,6160
1644180914.712401,-0.009033,0.009766,-0.993103,0.205588,0.523969,-0.161527,48,271,578,6128
1644180914.761058,-0.007996,0.010071,-0.991882,0.434595,0.523969,-0.100458,48,281,590,6128
1644180914.813141,-0.010132,0.009094,-0.99353,0.236122,0.569771,-0.085191,51,276,583,6112
1644180914.862935,-0.008545,0.010071,-0.992004,0.342992,0.340763,0.006412,53,271,587,6112
1644180914.907669,-0.00708,0.011658,-0.990479,0.144519,0.386565,0.006412,48,283,580,6224
1644180915.00276,-0.007874,0.007324,-0.993164,0.190321,0.386565,-0.085191,48,281,583,6128
1644180915.06843,-0.011108,0.009033,-0.992249,0.220855,0.294962,-0.130992,64,273,596,6160
1644180915.101424,-0.008423,0.009216,-0.990112,0.251389,0.356031,-0.176794,49,277,591,6128
1644180915.147892,-0.009766,0.010254,-0.991272,0.266656,0.340763,-0.14626,36,274,580,6128
1644180915.196278,-0.007385,0.01062,-0.991211,0.281924,0.386565,0.052214,52,273,586,6160
1644180915.244704,-0.006958,0.009583,-0.992859,0.297191,0.417099,-0.008855,57,268,586,6128
1644180915.293076,-0.008911,0.007812,-0.991455,0.175053,0.401832,0.006412,55,271,583,6160
1644180915.341472,-0.008118,0.009277,-0.990234,0.342992,0.447634,-0.100458,45,273,586,6176
1644180915.389847,-0.007324,0.01001,-0.992126,0.113985,0.325496,-0.130992,47,277,582,6112
1644180915.438247,-0.010559,0.009338,-0.992371,0.175053,0.493435,-0.024122,58,281,580,6128
1644180915.486621,-0.010742,0.007385,-0.991028,0.144519,0.340763,-0.054656,52,280,591,6160
1644180915.535709,-0.01001,0.011597,-0.989197,0.236122,0.325496,-0.207328,46,276,583,6160
1644180915.586422,-0.008179,0.006714,-0.993286,0.312458,0.569771,-0.161527,52,275,579,6160
1644180915.636786,-0.008545,0.009521,-0.992065,0.35826,0.325496,-0.130992,47,268,600,6160
1644180915.72859,-0.006592,0.00824,-0.993042,0.098718,0.447634,-0.115725,53,276,576,6080
1644180915.776977,-0.006836,0.008667,-0.992737,0.220855,0.569771,-0.054656,45,273,572,6064
1644180915.825379,-0.007996,0.01062,-0.990417,0.08345,0.569771,-0.069924,54,270,589,6160
1644180915.873808,-0.010864,0.011292,-0.992493,0.175053,0.386565,-0.085191,39,283,585,6080
1644180915.922227,-0.010376,0.009155,-0.991089,0.159786,0.279695,-0.130992,48,279,583,6176
1644180915.970608,-0.008728,0.009216,-0.991882,0.35826,0.539237,0.036947,40,275,582,6128
1644180916.019,-0.008667,0.008423,-0.993164,0.266656,0.417099,-0.069924,49,273,591,6176
1644180916.071487,-0.010132,0.008362,-0.992493,0.175053,0.554504,0.082748,54,275,591,6112
1644180916.11576,-0.008484,0.006714,-0.990417,0.220855,0.447634,-0.100458,59,277,584,6160
1644180916.164116,-0.009827,0.008545,-0.992981,0.266656,0.279695,-0.085191,51,276,580,6160
1644180916.212537,-0.011292,0.009827,-0.994141,0.281924,0.462901,-0.100458,41,269,580,6080
1644180916.260902,-0.007874,0.007446,-0.991333,0.220855,0.523969,0.082748,57,285,584,6112
1644180916.309317,-0.010559,0.009338,-0.99292,0.205588,0.508702,-0.161527,43,279,580,6192
1644180916.357715,-0.011475,0.011597,-0.991028,0.342992,0.447634,0.052214,41,269,587,6080
1644180916.406094,-0.010254,0.007935,-0.990479,0.297191,0.508702,-0.115725,48,269,580,6080
1644180916.454504,-0.008728,0.01123,-0.990967,0.220855,0.493435,-0.069924,47,280,593,6176
1644180916.502869,-0.008606,0.009583,-0.989807,0.297191,0.447634,-0.192061,57,275,586,6128
1644180916.551294,-0.003662,0.00946,-0.991028,0.251389,0.539237,-0.024122,49,273,584,6112
1644180916.599926,-0.008667,0.012512,-0.991699,0.251389,0.554504,-0.024122,52,268,579,6128
1644180916.648643,-0.008911,0.009338,-0.991638,0.205588,0.356031,-0.054656,48,271,583,6192
1644180916.698994,-0.008423,0.008667,-0.992493,0.190321,0.417099,-0.100458,64,282,586,6112
1644180916.749333,-0.008789,0.010376,-0.990784,0.266656,0.554504,-0.069924,49,275,579,6064
1644180916.794358,-0.006653,0.010803,-0.991211,0.281924,0.340763,0.067481,47,268,589,6080
1644180916.890061,-0.008118,0.010071,-0.994995,0.281924,0.508702,-0.100458,49,277,579,6176
1644180916.938443,-0.007874,0.007446,-0.994507,0.312458,0.401832,-0.100458,52,265,579,6080
1644180916.98684,-0.008301,0.007751,-0.993103,0.312458,0.478168,-0.054656,51,279,585,6128
1644180917.035237,-0.008301,0.009216,-0.989502,0.129252,0.356031,-0.100458,54,280,579,6160
1644180917.083672,-0.004211,0.008118,-0.994202,0.129252,0.401832,-0.192061,46,266,592,6160
1644180917.132015,-0.009277,0.010803,-0.992004,0.175053,0.447634,0.036947,52,280,582,6128
1644180917.180378,-0.007812,0.011963,-0.988953,0.205588,0.340763,-0.283664,51,266,583,6112
1644180917.228767,-0.008362,0.008911,-0.990112,0.297191,0.554504,-0.100458,51,276,590,6128
1644180917.277171,-0.008118,0.005737,-0.990051,0.281924,0.417099,-0.100458,49,282,584,6080
1644180917.325552,-0.009338,0.007935,-0.993347,0.251389,0.493435,-0.100458,46,279,576,6160
1644180917.373961,-0.008667,0.009338,-0.991638,0.266656,0.325496,-0.085191,53,269,590,6112
1644180917.422352,-0.008362,0.010986,-0.992126,0.190321,0.371298,-0.024122,49,275,577,6080
1644180917.470742,-0.008057,0.009644,-0.989685,0.098718,0.478168,-0.008855,46,283,587,6160
1644180917.519128,-0.011597,0.008728,-0.991455,0.251389,0.447634,-0.085191,47,282,572,6128
1644180917.567522,-0.009094,0.008545,-0.989502,0.190321,0.401832,-0.176794,53,269,583,6160
1644180917.61591,-0.010803,0.00946,-0.992004,0.266656,0.325496,0.036947,55,276,585,6080
1644180917.664315,-0.01001,0.009033,-0.993774,0.205588,0.386565,-0.192061,54,280,582,6112
1644180917.712704,-0.008423,0.007812,-0.989136,0.205588,0.432366,-0.054656,42,275,584,6080
1644180917.761126,-0.008728,0.009583,-0.992004,0.327725,0.386565,-0.069924,54,268,591,6160
1644180917.811129,-0.011414,0.012817,-0.992798,0.251389,0.340763,0.006412,59,282,586,6080
1644180917.862744,-0.008972,0.008728,-0.994751,0.281924,0.386565,-0.008855,54,275,584,6192
1644180917.907301,-0.007812,0.011719,-0.990845,0.342992,0.432366,-0.069924,40,275,579,6080
1644180918.003101,-0.00769,0.009277,-0.990784,0.327725,0.371298,0.036947,33,270,582,6080
1644180918.064942,-0.004211,0.009766,-0.990051,0.297191,0.356031,-0.130992,52,273,589,6048
1644180918.10105,-0.008545,0.009277,-0.991882,0.297191,0.371298,-0.207328,55,276,587,6160
1644180918.148253,-0.010437,0.012207,-0.992737,0.113985,0.508702,-0.115725,53,279,580,6064
1644180918.19662,-0.008484,0.012024,-0.994202,0.098718,0.356031,-0.14626,49,282,572,6160
1644180918.245101,-0.007751,0.008057,-0.993347,0.205588,0.478168,-0.054656,53,274,592,6128
1644180918.293401,-0.007385,0.008301,-0.991638,0.266656,0.310229,-0.069924,62,276,587,6128
1644180918.341805,-0.010071,0.010498,-0.993103,0.251389,0.462901,-0.024122,53,274,580,6112
1644180918.390197,-0.009888,0.010376,-0.991821,0.251389,0.508702,-0.039389,51,274,592,6112
1644180918.438584,-0.008118,0.010376,-0.993103,0.46513,0.523969,-0.024122,55,281,578,6112
1644180918.48697,-0.008118,0.009155,-0.989502,0.205588,0.478168,-0.115725,47,290,575,6080
1644180918.535368,-0.00824,0.012512,-0.99292,0.113985,0.310229,-0.069924,52,273,582,6128
1644180918.58375,-0.006287,0.009155,-0.991455,0.129252,0.386565,-0.115725,47,268,586,6128
1644180918.632484,-0.009399,0.010071,-0.99292,0.281924,0.478168,-0.207328,48,288,580,6112
1644180918.683191,-0.006897,0.01062,-0.992676,0.312458,0.386565,-0.069924,51,269,592,6080
1644180918.733318,-0.008911,0.011292,-0.99176,0.297191,0.371298,-0.054656,52,285,582,6080
1644180918.778472,-0.005737,0.010864,-0.991394,0.266656,0.508702,-0.054656,47,277,579,6176
1644180918.874161,-0.012024,0.011902,-0.99231,0.220855,0.523969,0.006412,55,271,583,6192
1644180918.922563,-0.009277,0.011658,-0.99231,0.342992,0.294962,-0.130992,54,285,579,6160
1644180918.970945,-0.008972,0.008606,-0.992065,0.251389,0.371298,-0.085191,47,277,582,6128
1644180919.019336,-0.009216,0.009583,-0.993103,0.098718,0.493435,-0.069924,47,280,582,6128
1644180919.069664,-0.007141,0.008179,-0.992554,0.388794,0.417099,-0.14626,57,275,584,6176
1644180919.116057,-0.008118,0.008057,-0.99176,0.297191,0.233893,0.082748,39,274,583,6128
1644180919.164511,-0.009338,0.008301,-0.991821,0.144519,0.523969,-0.115725,47,275,579,6048
1644180919.212889,-0.008911,0.01123,-0.993835,0.220855,0.493435,-0.192061,52,268,579,6048
1644180919.261296,-0.00885,0.00824,-0.987976,0.266656,0.417099,-0.054656,38,277,589,6080
1644180919.309669,-0.009216,0.00946,-0.99231,0.266656,0.371298,-0.024122,57,285,591,6112
1644180919.358089,-0.009338,0.007874,-0.991272,0.297191,0.554504,0.021679,55,283,587,6160
1644180919.40648,-0.010498,0.010437,-0.99353,0.281924,0.356031,-0.039389,43,276,580,6112
1644180919.454875,-0.011047,0.009949,-0.99292,0.342992,0.417099,-0.069924,53,276,583,6128
1644180919.503247,-0.011108,0.008972,-0.992981,0.190321,0.432366,0.036947,52,265,589,6128
1644180919.55165,-0.008972,0.008606,-0.991089,0.205588,0.539237,-0.130992,48,283,592,6112
1644180919.600018,-0.007812,0.008057,-0.991272,0.236122,0.462901,0.082748,58,276,580,6176
1644180919.648429,-0.006165,0.009277,-0.990051,0.266656,0.447634,-0.069924,43,276,585,6128
1644180919.697002,-0.011108,0.009766,-0.990906,0.297191,0.279695,-0.024122,49,285,582,6128
1644180919.745275,-0.006165,0.009399,-0.991577,0.144519,0.417099,-0.085191,57,282,586,6080
1644180919.795256,-0.007141,0.013184,-0.992371,0.098718,0.386565,0.006412,47,282,586,6080
1644180919.845606,-0.010071,0.009338,-0.995605,0.236122,0.478168,-0.100458,43,279,587,6128
1644180919.895663,-0.008606,0.009399,-0.99176,0.281924,0.401832,-0.024122,51,269,578,6160
1644180919.940213,-0.007751,0.010925,-0.993103,0.266656,0.356031,-0.100458,49,282,596,6160
1644180920.035566,-0.009705,0.008362,-0.993225,0.236122,0.432366,-0.161527,57,275,579,6080
1644180920.085327,-0.007507,0.010071,-0.990967,0.251389,0.600305,-0.069924,51,279,594,6080
1644180920.132386,-0.008484,0.009216,-0.994751,0.251389,0.432366,-0.14626,53,269,583,6128
1644180920.180721,-0.010925,0.012512,-0.991394,0.281924,0.294962,-0.130992,46,286,585,6112
1644180920.229106,-0.007568,0.009033,-0.992188,0.266656,0.417099,-0.130992,52,275,591,6160
1644180920.277507,-0.004272,0.007874,-0.991699,0.236122,0.279695,-0.161527,58,281,576,6128
1644180920.325868,-0.007507,0.010437,-0.988281,0.419328,0.417099,-0.130992,43,262,580,6112
1644180920.374304,-0.00946,0.011169,-0.992981,0.251389,0.356031,-0.222595,48,271,587,6128
1644180920.422705,-0.008545,0.00946,-0.993591,0.281924,0.63084,-0.054656,60,271,585,6128
1644180920.471054,-0.004578,0.00946,-0.991943,0.144519,0.417099,-0.085191,53,281,576,6160
1644180920.519464,-0.008911,0.008728,-0.99176,0.266656,0.417099,-0.039389,46,286,592,6128
1644180920.567854,-0.009949,0.006165,-0.990356,0.236122,0.340763,0.036947,57,282,584,6128
1644180920.616246,-0.007019,0.010559,-0.994446,0.35826,0.447634,-0.115725,59,280,577,6112
1644180920.664711,-0.009216,0.009583,-0.99231,0.251389,0.417099,0.052214,45,282,584,6128
1644180920.713056,-0.006226,0.009827,-0.991394,0.144519,0.356031,-0.100458,42,277,584,6256
1644180920.761406,-0.007874,0.008606,-0.993347,0.098718,0.386565,0.052214,51,274,583,6080
1644180920.809865,-0.010559,0.007812,-0.989136,0.342992,0.554504,-0.085191,48,283,580,6128
1644180920.858254,-0.007568,0.011536,-0.991699,0.068183,0.401832,-0.069924,54,273,584,6192
1644180920.906666,-0.00885,0.006042,-0.994141,0.297191,0.340763,0.067481,61,277,589,6112
1644180920.955874,-0.00824,0.008423,-0.989502,0.113985,0.478168,-0.14626,46,269,587,6080
1644180921.006373,-0.007507,0.00824,-0.995422,0.129252,0.371298,-0.024122,49,273,579,6224
1644180921.077047,-0.00824,0.007996,-0.989746,0.342992,0.371298,-0.130992,54,285,589,6080
1644180921.103814,-0.008728,0.008972,-0.989685,0.281924,0.417099,-0.130992,48,274,580,6112
1644180921.196967,-0.008484,0.009644,-0.992615,0.205588,0.356031,-0.100458,57,285,586,6160
1644180921.245439,-0.009155,0.009705,-0.990479,0.220855,0.417099,-0.176794,53,286,576,6080
1644180921.293766,-0.008118,0.008667,-0.991943,0.373527,0.493435,0.006412,45,280,579,6128
1644180921.342409,-0.006348,0.008118,-0.991089,0.068183,0.310229,-0.192061,49,280,589,6160
1644180921.390535,-0.005981,0.011719,-0.989685,0.052916,0.447634,-0.100458,54,273,598,6160
1644180921.4389,-0.010437,0.009705,-0.991638,0.312458,0.340763,-0.115725,43,271,576,6160
1644180921.487308,-0.007263,0.01123,-0.99292,0.236122,0.554504,-0.222595,47,273,584,6080
1644180921.535707,-0.008728,0.008789,-0.991882,0.190321,0.386565,-0.130992,41,266,587,6176
1644180921.584113,-0.005798,0.010315,-0.995178,0.175053,0.493435,-0.069924,58,279,580,6176
1644180921.633075,-0.007446,0.009949,-0.989014,0.129252,0.447634,-0.024122,46,276,569,6016
1644180921.68088,-0.00885,0.007385,-0.992981,0.175053,0.386565,-0.130992,54,280,577,6160
1644180921.729261,-0.008362,0.009338,-0.99115,0.327725,0.478168,-0.100458,47,277,589,6128
1644180921.777675,-0.007812,0.009216,-0.992188,0.175053,0.386565,-0.085191,48,283,585,6128
1644180921.826115,-0.006104,0.014709,-0.989868,0.175053,0.24916,-0.039389,53,276,576,6160
1644180921.874514,-0.00885,0.010986,-0.989075,0.236122,0.417099,-0.054656,60,286,585,6112
1644180921.922907,-0.007507,0.013367,-0.991638,0.08345,0.401832,0.052214,52,277,586,6160
1644180921.971284,-0.009216,0.012451,-0.988525,0.144519,0.554504,0.098015,54,277,575,6128
1644180922.019666,-0.011047,0.013367,-0.990112,0.281924,0.401832,-0.207328,46,283,578,6160
1644180922.085241,-0.009766,0.00885,-0.991577,0.251389,0.401832,-0.176794,47,277,591,6112
1644180922.164905,-0.009216,0.008484,-0.990662,0.190321,0.432366,-0.054656,46,281,576,6128
1644180922.213226,-0.008667,0.007812,-0.993103,0.327725,0.371298,0.052214,49,273,584,6112
1644180922.261582,-0.009033,0.010071,-0.990967,0.098718,0.462901,-0.054656,42,275,575,6080
1644180922.310004,-0.008606,0.004333,-0.99176,0.251389,0.371298,0.052214,53,281,583,6128
1644180922.358374,-0.006348,0.015747,-0.989807,0.205588,0.432366,-0.130992,48,283,580,6080
1644180922.406776,-0.008484,0.010132,-0.99231,0.297191,0.401832,-0.024122,55,274,583,6080
1644180922.45516,-0.01001,0.012085,-0.989136,0.068183,0.401832,-0.024122,42,287,582,6112
1644180922.503541,-0.009033,0.011963,-0.992737,0.205588,0.371298,-0.008855,60,269,587,6080
1644180922.551947,-0.006775,0.009827,-0.991333,0.251389,0.493435,0.098015,52,275,591,6128
1644180922.600354,-0.007141,0.008301,-0.989258,0.404061,0.401832,-0.161527,51,279,583,6128
1644180922.648752,-0.00708,0.010376,-0.994568,0.297191,0.340763,0.052214,51,271,580,6112
1644180922.697144,-0.007141,0.010559,-0.989807,0.327725,0.493435,-0.085191,60,281,571,6112
1644180922.7455,-0.010315,0.011414,-0.990601,0.113985,0.676641,-0.039389,39,281,576,6128
1644180922.793911,-0.008667,0.008362,-0.992249,0.236122,0.417099,-0.024122,57,273,591,6112
1644180922.842372,-0.007385,0.011658,-0.990173,0.342992,0.447634,-0.039389,48,276,592,6112
1644180922.890756,-0.005127,0.011108,-0.990356,0.266656,0.462901,-0.008855,48,281,580,6128
1644180922.93914,-0.011658,0.010742,-0.991699,0.266656,0.447634,-0.222595,47,275,589,6128
1644180922.987538,-0.010681,0.010071,-0.991455,0.266656,0.340763,-0.192061,53,283,592,6112
1644180923.035932,-0.008301,0.012756,-0.99292,0.281924,0.447634,0.052214,52,275,586,6112
1644180923.092,-0.010559,0.011963,-0.994751,0.312458,0.401832,-0.115725,57,270,589,6128
1644180923.135888,-0.009521,0.011169,-0.989258,0.297191,0.447634,-0.115725,45,282,586,6128
1644180923.184689,-0.009949,0.007568,-0.99231,0.312458,0.63084,-0.008855,45,275,577,6176
1644180923.229795,-0.007935,0.009888,-0.993835,0.266656,0.401832,-0.115725,43,288,580,6160
1644180923.326229,-0.009033,0.007446,-0.994324,0.113985,0.478168,-0.130992,47,277,579,6112
1644180923.374856,-0.008789,0.011658,-0.99353,0.388794,0.447634,-0.115725,41,266,573,6080
1644180923.423008,-0.011475,0.012085,-0.991699,0.098718,0.417099,-0.161527,54,277,575,6128
1644180923.471399,-0.007324,0.012695,-0.992554,0.129252,0.371298,-0.207328,41,276,580,6160
1644180923.519803,-0.009766,0.010254,-0.991455,0.159786,0.386565,-0.069924,51,269,590,6016
1644180923.568196,-0.010498,0.009644,-0.992126,0.236122,0.478168,-0.054656,53,279,578,6192
1644180923.616584,-0.01001,0.006226,-0.994263,0.175053,0.401832,-0.207328,55,271,578,6160
1644180923.665031,-0.01123,0.009338,-0.99408,0.236122,0.493435,-0.085191,46,269,583,6160
1644180923.713379,-0.008179,0.009521,-0.991211,0.342992,0.478168,-0.115725,52,268,575,6112
1644180923.761776,-0.011353,0.010986,-0.992493,0.327725,0.462901,0.036947,60,276,592,6080
1644180923.810167,-0.005981,0.010071,-0.991394,0.419328,0.371298,-0.115725,45,275,575,6160
1644180923.8586,-0.009277,0.00946,-0.990662,0.327725,0.523969,-0.100458,52,280,579,6160
1644180923.907005,-0.006592,0.010254,-0.992004,0.297191,0.371298,-0.069924,39,279,583,6112
1644180923.955373,-0.010254,0.008606,-0.991699,0.327725,0.447634,-0.100458,47,285,589,6128
1644180924.003753,-0.008118,0.009888,-0.991516,0.327725,0.279695,0.006412,52,280,586,6160
1644180924.067774,-0.007324,0.010071,-0.992676,0.08345,0.447634,-0.069924,51,281,583,6064
1644180924.103511,-0.008362,0.008484,-0.991333,0.220855,0.401832,-0.085191,53,271,583,6160
1644180924.148909,-0.008667,0.007874,-0.992737,0.327725,0.356031,-0.14626,55,271,587,6160
1644180924.197337,-0.009705,0.007751,-0.99115,0.480397,0.386565,-0.085191,53,279,578,6128
1644180924.247247,-0.01001,0.010071,-0.990845,0.327725,0.356031,-0.008855,48,266,578,6064
1644180924.297829,-0.010742,0.010132,-0.989197,0.312458,0.432366,0.052214,48,271,587,6176
1644180924.347602,-0.009644,0.006531,-0.993103,0.205588,0.417099,-0.085191,43,274,585,6080
1644180924.439281,-0.006958,0.009094,-0.993042,0.159786,0.462901,-0.024122,43,279,576,6048
1644180924.487626,-0.009705,0.007507,-0.991516,0.342992,0.432366,-0.130992,51,283,583,6112
1644180924.536019,-0.007324,0.010803,-0.990906,0.08345,0.371298,0.021679,52,270,577,6048
1644180924.584445,-0.00647,0.007996,-0.990417,0.175053,0.325496,0.082748,49,285,579,6112
1644180924.632844,-0.008179,0.009399,-0.992798,0.236122,0.417099,-0.161527,49,277,584,6176
1644180924.681197,-0.008972,0.011658,-0.990234,0.281924,0.417099,-0.024122,52,275,582,6128
1644180924.729619,-0.007324,0.00885,-0.992737,0.220855,0.554504,-0.069924,59,277,584,6128
1644180924.778019,-0.009583,0.010254,-0.992493,0.312458,0.401832,0.021679,49,273,591,6128
1644180924.826414,-0.008728,0.009949,-0.990051,0.144519,0.417099,-0.054656,51,274,583,6176
1644180924.874846,-0.009277,0.009888,-0.990662,0.113985,0.539237,0.052214,53,276,578,6160
1644180924.923227,-0.005066,0.010193,-0.989929,0.175053,0.264427,-0.100458,59,280,584,6128
1644180924.971619,-0.005676,0.013916,-0.991333,0.297191,0.401832,-0.054656,47,268,584,6112
1644180925.020019,-0.005737,0.008118,-0.991882,0.220855,0.340763,-0.039389,48,283,583,6128
1644180925.082701,-0.01178,0.007507,-0.991638,0.08345,0.447634,-0.024122,52,277,586,6160
1644180925.12025,-0.008545,0.009644,-0.991882,0.266656,0.401832,0.067481,46,274,592,6128
1644180925.171017,-0.010559,0.011902,-0.991699,0.159786,0.554504,-0.085191,45,273,575,6160
1644180925.214524,-0.00946,0.01001,-0.98999,0.281924,0.478168,0.113282,51,279,585,6128
1644180925.310316,-0.009033,0.010864,-0.991028,0.159786,0.508702,0.021679,42,275,584,6128
1644180925.358716,-0.008789,0.011169,-0.988586,0.205588,0.523969,-0.207328,58,269,578,6176
1644180925.4071,-0.009521,0.008362,-0.991333,0.266656,0.554504,0.067481,55,283,587,6128
1644180925.455492,-0.00824,0.010071,-0.990417,0.129252,0.325496,-0.176794,47,280,572,6160
1644180925.503879,-0.007202,0.008057,-0.992004,0.312458,0.386565,0.036947,58,279,587,6192
1644180925.552309,-0.009644,0.007996,-0.99408,0.434595,0.340763,0.006412,52,280,577,6128
1644180925.600692,-0.006653,0.010071,-0.990662,0.373527,0.386565,-0.054656,42,280,575,6080
1644180925.649082,-0.008667,0.007996,-0.992188,0.251389,0.264427,-0.039389,43,281,587,6128
1644180925.69748,-0.009583,0.00708,-0.991089,0.175053,0.401832,0.006412,35,282,582,6080
1644180925.745845,-0.009338,0.008606,-0.98877,0.129252,0.325496,-0.039389,52,280,579,6160
1644180925.794284,-0.005859,0.009094,-0.994141,0.236122,0.478168,0.006412,61,282,586,6128
1644180925.842668,-0.010193,0.010803,-0.991943,0.327725,0.340763,-0.085191,49,277,584,6080
1644180925.891089,-0.009705,0.011536,-0.991516,0.190321,0.539237,-0.115725,48,286,585,6128
1644180925.939445,-0.009949,0.011902,-0.991394,0.190321,0.340763,-0.100458,57,280,584,6128
1644180925.987862,-0.010437,0.010559,-0.990356,0.159786,0.371298,-0.069924,46,281,585,6048
1644180926.03626,-0.006592,0.009888,-0.992981,0.159786,0.432366,-0.100458,55,286,585,6128
1644180926.092826,-0.009277,0.009033,-0.990845,0.404061,0.417099,-0.069924,52,294,582,6160
1644180926.133075,-0.007324,0.009644,-0.991028,0.297191,0.447634,-0.008855,51,266,580,6112
1644180926.181463,-0.007446,0.013062,-0.991821,0.205588,0.432366,0.036947,64,287,579,6128
1644180926.231678,-0.010193,0.010925,-0.991455,0.312458,0.493435,-0.054656,47,280,582,6128
1644180926.281747,-0.006897,0.008301,-0.991333,0.327725,0.325496,-0.039389,48,271,587,6176
1644180926.331969,-0.006897,0.010193,-0.989441,0.281924,0.371298,-0.176794,49,282,579,6160
1644180926.376554,-0.009644,0.008484,-0.991394,0.342992,0.432366,-0.054656,39,288,585,6080
1644180926.471784,-0.009766,0.009399,-0.994873,0.190321,0.371298,-0.100458,40,277,584,6128
1644180926.520198,-0.005798,0.008972,-0.993896,0.404061,0.371298,-0.161527,58,269,576,6128
1644180926.568555,-0.009338,0.010315,-0.992371,0.236122,0.371298,-0.008855,46,283,580,6160
1644180926.616979,-0.00824,0.009949,-0.992126,0.266656,0.371298,-0.039389,53,271,576,6080
1644180926.665358,-0.008484,0.009949,-0.991882,0.205588,0.340763,-0.024122,40,268,582,6160
1644180926.713763,-0.007751,0.009644,-0.991516,0.129252,0.493435,0.006412,52,282,575,6112
1644180926.762171,-0.010498,0.010498,-0.990601,0.068183,0.401832,-0.115725,49,273,579,6112
1644180926.81055,-0.009399,0.010498,-0.990906,0.190321,0.462901,-0.115725,45,275,577,6128
1644180926.858939,-0.01001,0.010498,-0.990723,0.08345,0.462901,-0.115725,47,268,572,6128
1644180926.907326,-0.011292,0.008301,-0.992737,0.297191,0.432366,-0.222595,52,277,591,6080
1644180926.956047,-0.008362,0.009155,-0.99176,0.281924,0.539237,-0.100458,45,268,584,6112
1644180927.00412,-0.007263,0.00769,-0.994873,0.159786,0.24916,0.098015,54,287,582,6080
1644180927.068929,-0.006775,0.007874,-0.992737,0.205588,0.432366,-0.176794,47,270,586,6080
1644180927.103074,-0.01062,0.011963,-0.990723,0.068183,0.386565,-0.176794,57,277,589,6176
1644180927.149256,-0.009399,0.006836,-0.993896,0.266656,0.432366,0.052214,48,279,590,6112
1644180927.19761,-0.005554,0.011597,-0.992615,0.35826,0.417099,-0.085191,61,270,586,6080
1644180927.246045,-0.01062,0.010864,-0.992981,0.159786,0.447634,0.036947,51,279,576,6128
1644180927.29443,-0.010071,0.010681,-0.990906,0.251389,0.432366,-0.192061,38,273,577,6064
1644180927.343082,-0.010681,0.009583,-0.99115,0.297191,0.432366,-0.100458,48,269,576,6128
1644180927.391812,-0.008301,0.008179,-0.992981,0.312458,0.432366,-0.024122,57,270,577,6192
1644180927.442864,-0.005737,0.009949,-0.992126,0.251389,0.340763,0.052214,55,271,580,6112
1644180927.493323,-0.010681,0.009888,-0.991699,0.144519,0.340763,0.052214,48,276,578,6224
1644180927.537798,-0.008423,0.012207,-0.990723,0.297191,0.478168,-0.25313,47,280,579,6112
1644180927.633198,-0.00708,0.010925,-0.991394,0.297191,0.447634,-0.161527,53,283,592,6192
1644180927.681547,-0.009827,0.009155,-0.994568,0.251389,0.340763,-0.069924,53,269,590,6160
1644180927.729948,-0.008179,0.009949,-0.992615,0.236122,0.310229,-0.024122,52,275,577,6112
1644180927.778351,-0.008118,0.009644,-0.991394,0.281924,0.386565,-0.054656,49,273,582,6080
1644180927.826774,-0.009888,0.008545,-0.989929,0.220855,0.417099,-0.176794,54,273,584,6128
1644180927.875194,-0.00708,0.013306,-0.990784,0.236122,0.386565,-0.100458,65,279,578,6128
1644180927.923574,-0.008606,0.008606,-0.99231,0.312458,0.462901,-0.192061,47,275,575,6160
1644180927.971938,-0.007874,0.011536,-0.993347,0.220855,0.493435,-0.161527,45,287,582,6128
1644180928.020391,-0.008484,0.00824,-0.99115,0.175053,0.356031,0.006412,52,270,582,6080
1644180928.07275,-0.009155,0.008972,-0.99176,0.251389,0.325496,-0.14626,39,276,594,6192
1644180928.117112,-0.010864,0.012512,-0.991882,0.205588,0.371298,-0.283664,53,286,592,6160
1644180928.165493,-0.00769,0.007385,-0.990845,0.205588,0.294962,0.036947,39,271,585,6080
1644180928.213902,-0.008545,0.010132,-0.989746,0.281924,0.340763,-0.085191,55,286,587,6128
1644180928.26227,-0.007019,0.01239,-0.990967,0.159786,0.356031,-0.115725,48,279,590,6080
1644180928.310656,-0.010193,0.009338,-0.993164,0.312458,0.493435,-0.14626,53,274,580,6128
1644180928.359058,-0.009094,0.007446,-0.992676,0.297191,0.447634,-0.069924,53,286,583,6176
1644180928.407433,-0.008057,0.009277,-0.993591,0.175053,0.401832,-0.14626,52,280,586,6160
1644180928.455848,-0.009216,0.009338,-0.994446,0.312458,0.493435,-0.14626,59,270,579,6080
1644180928.504261,-0.013062,0.011658,-0.992859,0.175053,0.294962,-0.085191,41,271,576,6192
1644180928.554488,-0.009216,0.008606,-0.991943,0.297191,0.493435,-0.268397,64,275,586,6176
1644180928.605008,-0.011719,0.01001,-0.990173,0.175053,0.432366,-0.024122,45,280,586,6176
1644180928.649941,-0.013245,0.008179,-0.992676,0.144519,0.462901,-0.069924,41,271,573,6128
1644180928.7462,-0.009766,0.009949,-0.98999,0.251389,0.554504,-0.008855,51,269,576,6160
1644180928.794875,-0.011292,0.008972,-0.993286,0.281924,0.539237,-0.100458,51,269,585,6112
1644180928.84304,-0.00885,0.010376,-0.994629,0.159786,0.325496,0.052214,48,281,585,6112
1644180928.891407,-0.012024,0.011719,-0.98999,0.220855,0.432366,0.021679,52,270,575,6080
1644180928.939821,-0.009766,0.009338,-0.990356,0.281924,0.432366,-0.024122,60,269,580,6112
1644180928.988202,-0.007324,0.010437,-0.991394,0.098718,0.432366,-0.008855,45,263,586,6080
1644180929.036608,-0.006775,0.006287,-0.992676,0.220855,0.432366,0.159084,42,282,586,6160
1644180929.095008,-0.01239,0.011108,-0.992798,0.312458,0.478168,-0.100458,53,271,585,6128
1644180929.133384,-0.009766,0.011353,-0.990906,0.113985,0.340763,-0.207328,46,279,592,6160
1644180929.181747,-0.010498,0.010376,-0.99176,0.297191,0.432366,-0.008855,58,281,585,6128
1644180929.230133,-0.010498,0.007812,-0.992188,0.236122,0.508702,0.006412,46,279,587,6160
1644180929.278496,-0.009216,0.010071,-0.993774,0.434595,0.539237,0.098015,54,285,589,6192
1644180929.326906,-0.00824,0.00824,-0.990784,0.144519,0.462901,-0.085191,43,276,578,6080
1644180929.375649,-0.008423,0.00647,-0.994446,0.404061,0.478168,-0.100458,47,282,575,6160
1644180929.424669,-0.010498,0.007202,-0.992126,0.159786,0.386565,0.036947,57,275,579,6160
1644180929.475166,-0.007874,0.009277,-0.992126,0.251389,0.294962,-0.054656,47,273,582,6112
1644180929.525399,-0.008606,0.008362,-0.990173,0.08345,0.371298,0.036947,55,274,580,6160
1644180929.617353,-0.006592,0.012146,-0.99176,0.281924,0.340763,-0.14626,45,275,579,6112
1644180929.665644,-0.008606,0.008728,-0.991211,0.236122,0.493435,-0.069924,42,280,579,6112
1644180929.714072,-0.010498,0.010071,-0.990723,0.205588,0.340763,-0.130992,53,276,587,6128
1644180929.762452,-0.011536,0.011719,-0.990784,0.266656,0.462901,-0.237863,45,285,577,6080
1644180929.810834,-0.008484,0.014587,-0.991577,0.08345,0.462901,-0.054656,49,282,582,6128
1644180929.859284,-0.008118,0.013916,-0.990662,0.312458,0.417099,-0.192061,52,282,577,6160
1644180929.907671,-0.007812,0.00824,-0.991882,0.144519,0.264427,-0.039389,48,281,583,6128
1644180929.95607,-0.009033,0.007812,-0.991211,0.190321,0.386565,-0.130992,49,287,582,6160
1644180930.00445,-0.010071,0.011047,-0.994568,0.312458,0.447634,-0.039389,49,270,582,6080
1644180930.062696,-0.009644,0.007385,-0.991638,0.098718,0.432366,-0.054656,47,275,579,6128
1644180930.101534,-0.007202,0.010254,-0.990479,0.08345,0.386565,-0.161527,45,285,596,6128
1644180930.149616,-0.008545,0.009766,-0.991089,0.388794,0.401832,-0.069924,59,277,593,6128
1644180930.197976,-0.009705,0.008911,-0.990845,0.236122,0.233893,-0.085191,39,279,583,6048
1644180930.246385,-0.010681,0.011108,-0.992798,0.266656,0.386565,-0.222595,47,277,570,6080
1644180930.294778,-0.008179,0.013306,-0.989868,0.266656,0.401832,-0.161527,55,271,580,6160
1644180930.343159,-0.011353,0.008972,-0.990601,0.297191,0.462901,-0.161527,54,275,584,6160
1644180930.391548,-0.008667,0.007263,-0.991272,0.236122,0.386565,-0.085191,45,277,586,6128
1644180930.439959,-0.006226,0.012451,-0.990356,0.236122,0.401832,-0.054656,53,274,594,6080
1644180930.488662,-0.009521,0.008728,-0.987488,0.251389,0.356031,-0.130992,52,270,577,6080
1644180930.537624,-0.009399,0.010254,-0.993652,0.312458,0.478168,-0.085191,48,281,571,6160
1644180930.588297,-0.00824,0.009094,-0.99115,0.205588,0.478168,-0.039389,46,283,578,6128
1644180930.638268,-0.007202,0.010742,-0.99115,0.068183,0.356031,-0.14626,51,274,585,6112
1644180930.730294,-0.006226,0.009521,-0.992126,0.159786,0.432366,-0.085191,43,274,573,6160
1644180930.778676,-0.008118,0.012085,-0.990417,0.175053,0.218626,0.052214,45,285,582,6160
1644180930.827072,-0.009338,0.006958,-0.993286,0.205588,0.432366,-0.115725,47,277,586,6112
1644180930.875514,-0.010559,0.012573,-0.991211,0.205588,0.218626,-0.176794,41,276,576,6112
1644180930.92392,-0.005066,0.009583,-0.990417,0.190321,0.24916,-0.115725,58,269,573,6160
1644180930.972313,-0.008911,0.008118,-0.993347,0.266656,0.447634,-0.054656,41,283,578,6192
1644180931.020703,-0.008362,0.008606,-0.991028,0.297191,0.432366,-0.161527,51,279,578,6160
1644180931.069325,-0.010559,0.008972,-0.991089,0.159786,0.294962,-0.14626,55,279,587,6080
1644180931.11746,-0.008911,0.009216,-0.992249,0.175053,0.493435,0.021679,51,288,585,6112
1644180931.165825,-0.007385,0.008606,-0.992981,0.205588,0.340763,-0.024122,47,280,577,6080
1644180931.214245,-0.013306,0.007935,-0.990845,0.144519,0.417099,-0.085191,55,279,592,6080
1644180931.26261,-0.008789,0.011719,-0.991394,0.220855,0.493435,-0.192061,45,280,591,6128
1644180931.311007,-0.009705,0.008118,-0.99176,0.373527,0.294962,0.021679,57,277,586,6160
1644180931.359407,-0.010986,0.01355,-0.99176,0.098718,0.447634,0.052214,45,265,586,6160
1644180931.407804,-0.006714,0.009583,-0.992676,0.098718,0.356031,-0.161527,51,271,576,6128
1644180931.456205,-0.005371,0.011108,-0.990662,0.297191,0.417099,0.082748,49,273,589,6080
1644180931.50463,-0.01062,0.009644,-0.989685,0.281924,0.371298,-0.100458,51,276,580,6128
1644180931.553001,-0.010315,0.010132,-0.990601,0.251389,0.447634,-0.008855,43,269,583,6048
1644180931.601371,-0.010193,0.009766,-0.991577,0.144519,0.310229,0.036947,54,277,589,6192
1644180931.65003,-0.007019,0.008667,-0.991089,0.159786,0.417099,-0.192061,47,277,582,6112
1644180931.700514,-0.00708,0.00824,-0.990967,0.159786,0.340763,-0.039389,59,277,586,6080
1644180931.750689,-0.009399,0.009705,-0.993774,0.220855,0.279695,-0.115725,55,274,590,6128
1644180931.795851,-0.007141,0.009277,-0.990784,0.175053,0.386565,-0.069924,36,274,585,6128
1644180931.89177,-0.01062,0.011597,-0.991821,0.220855,0.294962,-0.024122,55,281,587,6224
1644180931.940156,-0.010498,0.013184,-0.994995,0.251389,0.325496,-0.008855,55,281,580,6080
1644180931.988547,-0.009033,0.011658,-0.992126,0.175053,0.371298,0.021679,54,280,577,6080
1644180932.036938,-0.008301,0.007202,-0.993774,0.220855,0.310229,-0.207328,43,276,583,6080
1644180932.091576,-0.008301,0.01123,-0.990234,0.327725,0.356031,-0.024122,48,281,580,6160
1644180932.133751,-0.010071,0.006714,-0.990295,0.205588,0.371298,-0.176794,43,283,580,6160
1644180932.182136,-0.011536,0.010498,-0.990112,0.175053,0.310229,-0.069924,51,274,585,6192
1644180932.230445,-0.007629,0.009338,-0.990967,0.113985,0.508702,-0.008855,43,279,583,6160
1644180932.278866,-0.009033,0.010132,-0.992188,0.327725,0.218626,-0.039389,52,285,582,6176
1644180932.32725,-0.010498,0.011169,-0.990784,0.052916,0.325496,-0.130992,36,288,599,6080
1644180932.375659,-0.00885,0.01355,-0.991089,0.251389,0.371298,0.098015,48,271,585,6128
1644180932.424064,-0.006348,0.009277,-0.990417,0.297191,0.310229,-0.176794,48,283,585,6176
1644180932.472455,-0.009521,0.007629,-0.98877,0.220855,0.493435,-0.14626,45,282,582,6128
1644180932.520828,-0.010742,0.011108,-0.989746,0.35826,0.356031,-0.100458,58,274,578,6176
1644180932.569206,-0.008667,0.007812,-0.990845,0.327725,0.371298,-0.176794,48,281,578,6080
1644180932.617615,-0.010803,0.011108,-0.99408,0.220855,0.401832,-0.207328,38,285,596,6160
1644180932.666014,-0.006104,0.010132,-0.991516,0.220855,0.447634,-0.085191,54,275,589,6128
1644180932.714401,-0.011108,0.010193,-0.992737,0.297191,0.233893,-0.207328,46,279,585,6080
1644180932.763213,-0.008301,0.008545,-0.991028,0.342992,0.386565,-0.115725,54,277,575,6080
1644180932.813464,-0.007141,0.007385,-0.99054,0.266656,0.401832,0.006412,38,268,589,6128
1644180932.865923,-0.010498,0.010071,-0.992188,0.144519,0.478168,-0.069924,49,277,579,6160
1644180932.909228,-0.010193,0.010803,-0.992859,0.220855,0.432366,-0.237863,52,290,586,6112
1644180933.004903,-0.009399,0.01123,-0.994324,0.144519,0.310229,-0.192061,46,279,585,6176
1644180933.004903,-0.009399,0.01123,-0.994324,0.144519,0.310229,-0.192061,46,279,585,6176
1644180933.102351,-0.006653,0.006958,-0.99231,0.281924,0.356031,-0.115725,41,266,597,6080
1644180933.149973,-0.008667,0.011963,-0.99469,0.236122,0.340763,-0.054656,47,275,589,6064
1644180933.198325,-0.009766,0.008972,-0.989075,0.251389,0.493435,-0.130992,48,279,583,6064
1644180933.246692,-0.009155,0.012146,-0.995056,0.205588,0.401832,-0.130992,46,271,583,6160
1644180933.295181,-0.00885,0.010132,-0.989258,0.220855,0.493435,-0.115725,42,280,575,6160
1644180933.34351,-0.008667,0.008911,-0.991638,0.312458,0.340763,-0.115725,45,285,591,6080
1644180933.391896,-0.007751,0.010193,-0.990662,0.205588,0.539237,-0.14626,51,281,585,6160
1644180933.440284,-0.006836,0.007568,-0.990234,0.159786,0.371298,-0.130992,53,283,585,6176
1644180933.488679,-0.007568,0.011597,-0.991333,0.297191,0.447634,-0.161527,45,280,584,6160
1644180933.537076,-0.009827,0.010742,-0.990784,0.373527,0.401832,-0.085191,48,276,585,6128
1644180933.585443,-0.00885,0.009766,-0.99054,0.266656,0.539237,-0.054656,55,269,578,6080
1644180933.633874,-0.007935,0.009338,-0.990051,0.266656,0.401832,-0.008855,47,275,584,6128
1644180933.682598,-0.010132,0.01062,-0.991577,0.251389,0.432366,-0.14626,40,282,586,6080
1644180933.73138,-0.006897,0.008972,-0.992188,0.312458,0.356031,-0.130992,46,271,578,6176
1644180933.782054,-0.009399,0.010437,-0.990723,0.281924,0.447634,-0.14626,51,274,585,6128
1644180933.831983,-0.012512,0.010071,-0.991211,0.236122,0.478168,-0.298931,48,276,571,6112
1644180933.878036,-0.008057,0.008606,-0.991882,0.144519,0.356031,0.021679,43,266,580,6112
1644180933.972681,-0.009521,0.011475,-0.992188,0.266656,0.447634,-0.207328,43,279,576,6080
1644180934.021041,-0.007507,0.011658,-0.990051,0.129252,0.432366,-0.069924,58,279,583,6160
1644180934.073581,-0.007263,0.010132,-0.993774,0.220855,0.310229,-0.176794,45,285,582,6240
1644180934.117813,-0.003906,0.009705,-0.98938,0.190321,0.371298,-0.115725,39,288,587,6128
1644180934.166218,-0.009033,0.011658,-0.99176,0.419328,0.462901,-0.085191,51,283,587,6128
1644180934.214605,-0.008911,0.007385,-0.993958,0.312458,0.401832,0.067481,52,282,584,6160
1644180934.262971,-0.007935,0.012024,-0.993652,0.205588,0.508702,0.021679,47,275,570,6160
1644180934.311358,-0.009399,0.009277,-0.990845,0.205588,0.432366,-0.069924,48,276,583,6080
1644180934.359748,-0.00824,0.008789,-0.990173,0.327725,0.401832,-0.130992,49,270,582,6112
1644180934.40814,-0.007568,0.010864,-0.990417,0.281924,0.447634,-0.115725,54,290,582,6160
1644180934.456532,-0.010132,0.008301,-0.990967,0.175053,0.294962,-0.192061,55,271,590,6080
1644180934.505033,-0.008118,0.010742,-0.989014,0.052916,0.279695,-0.054656,57,273,577,6224
1644180934.553305,-0.011108,0.010986,-0.991943,0.35826,0.554504,-0.176794,51,279,590,6160
1644180934.601717,-0.008423,0.011841,-0.991638,0.297191,0.371298,-0.192061,51,279,594,6080
1644180934.65011,-0.008423,0.01178,-0.992249,0.113985,0.462901,-0.207328,53,269,580,6112
1644180934.698499,-0.010864,0.010193,-0.992676,0.205588,0.371298,-0.008855,53,276,576,6128
1644180934.746859,-0.008667,0.01062,-0.991028,0.220855,0.356031,-0.176794,48,288,578,6112
1644180934.795274,-0.007629,0.010376,-0.992371,0.236122,0.508702,-0.237863,55,276,587,6128
1644180934.843686,-0.007202,0.007874,-0.989685,0.266656,0.447634,-0.069924,53,276,590,6080
1644180934.893989,-0.010803,0.009155,-0.993408,0.266656,0.325496,-0.130992,43,264,578,6080
1644180934.943987,-0.008484,0.010681,-0.987549,0.144519,0.401832,-0.100458,42,275,586,6080
1644180934.994285,-0.007324,0.01062,-0.988342,0.297191,0.371298,-0.161527,60,274,576,6112
1644180935.03877,-0.010498,0.008362,-0.990845,0.236122,0.310229,-0.130992,58,276,587,6176
1644180935.134041,-0.006592,0.01062,-0.991882,0.297191,0.432366,-0.085191,55,271,585,6112
1644180935.182413,-0.007324,0.011841,-0.992981,0.220855,0.447634,-0.14626,49,280,577,6080
1644180935.230799,-0.009033,0.009338,-0.991455,0.312458,0.432366,-0.069924,47,282,584,6112
1644180935.279195,-0.009399,0.010559,-0.991577,0.144519,0.401832,-0.069924,55,274,583,6080
1644180935.327594,-0.008972,0.008972,-0.991943,0.113985,0.508702,-0.222595,53,276,578,6112
1644180935.375987,-0.010437,0.010315,-0.991211,0.342992,0.356031,-0.024122,48,276,578,6160
1644180935.424387,-0.009277,0.009216,-0.993042,0.175053,0.447634,-0.14626,60,271,585,6128
1644180935.472795,-0.009155,0.00824,-0.989685,0.175053,0.356031,-0.176794,52,275,579,6112
1644180935.521168,-0.007935,0.009094,-0.993408,0.266656,0.386565,0.067481,48,279,590,6160
1644180935.569568,-0.007996,0.009094,-0.992615,0.342992,0.493435,-0.085191,43,288,578,6064
1644180935.617937,-0.007324,0.010803,-0.991394,0.098718,0.447634,0.113282,46,283,587,6128
1644180935.666333,-0.008362,0.008972,-0.99231,0.159786,0.432366,-0.069924,47,275,577,6176
1644180935.714757,-0.009399,0.01178,-0.991089,0.205588,0.432366,-0.14626,60,288,578,6080
1644180935.76313,-0.00885,0.008484,-0.991821,0.159786,0.325496,-0.085191,46,281,585,6080
1644180935.811565,-0.007568,0.007019,-0.990845,0.342992,0.447634,-0.085191,52,273,582,6128
1644180935.859955,-0.010132,0.012268,-0.991882,0.266656,0.554504,-0.069924,48,276,576,6128
1644180935.908351,-0.010437,0.00885,-0.993835,0.220855,0.340763,-0.100458,55,286,585,6112
1644180935.956744,-0.008118,0.011414,-0.992065,0.098718,0.478168,-0.14626,57,275,584,6128
1644180936.005224,-0.007996,0.010132,-0.992554,0.129252,0.356031,-0.024122,51,279,587,6192
1644180936.071146,-0.007263,0.012817,-0.991089,0.281924,0.478168,0.021679,54,280,589,6160
1644180936.112384,-0.008301,0.007385,-0.992004,0.205588,0.356031,-0.115725,53,274,590,6176
1644180936.154485,-0.010437,0.006592,-0.992188,0.312458,0.340763,-0.054656,60,274,580,6112
1644180936.19971,-0.008972,0.009705,-0.992065,0.190321,0.218626,-0.024122,47,270,586,6128
1644180936.295439,-0.010681,0.010864,-0.992859,0.220855,0.264427,-0.130992,40,277,582,6048
1644180936.343851,-0.00885,0.00647,-0.990295,0.342992,0.447634,-0.069924,47,275,593,6160
1644180936.392398,-0.008057,0.009094,-0.990601,0.113985,0.371298,-0.161527,55,274,578,6080
1644180936.4406,-0.008728,0.009277,-0.991577,0.312458,0.356031,-0.054656,49,282,586,6064
1644180936.489323,-0.007263,0.00824,-0.992493,0.35826,0.310229,-0.192061,36,281,587,6112
1644180936.537408,-0.008728,0.008972,-0.992737,0.297191,0.417099,-0.100458,52,273,575,6128
1644180936.585821,-0.007202,0.011902,-0.994263,0.35826,0.417099,-0.085191,57,275,586,6128
1644180936.634193,-0.00647,0.010559,-0.993164,0.35826,0.371298,0.052214,52,275,579,6080
1644180936.682602,-0.007568,0.011475,-0.992126,0.297191,0.462901,-0.14626,54,265,584,6080
1644180936.73099,-0.007263,0.012695,-0.991699,0.342992,0.417099,-0.085191,52,275,582,6224
1644180936.779357,-0.010193,0.011414,-0.993347,0.388794,0.371298,-0.115725,52,275,589,6128
1644180936.827806,-0.006714,0.008972,-0.992126,0.388794,0.401832,0.036947,42,273,586,6128
1644180936.876193,-0.009216,0.00824,-0.991211,0.159786,0.340763,-0.14626,45,280,582,6128
1644180936.924652,-0.009399,0.009155,-0.991272,0.297191,0.462901,-0.085191,55,283,583,6160
1644180936.973004,-0.00824,0.007996,-0.995544,0.144519,0.294962,-0.115725,49,275,586,6128
1644180937.021379,-0.009216,0.011047,-0.993225,0.236122,0.493435,-0.054656,43,279,587,6128
1644180937.080466,-0.007446,0.010315,-0.991211,0.052916,0.371298,-0.130992,52,277,575,6080
1644180937.124048,-0.012146,0.013,-0.993164,0.35826,0.294962,-0.237863,42,277,582,6160
1644180937.214942,-0.008179,0.008789,-0.991882,0.205588,0.310229,-0.115725,45,277,579,6192
1644180937.263299,-0.009583,0.009827,-0.992554,0.190321,0.340763,-0.161527,45,275,579,6112
1644180937.311699,-0.007935,0.007812,-0.990662,0.281924,0.371298,0.113282,46,276,590,6080
1644180937.360085,-0.007324,0.009277,-0.992981,0.312458,0.386565,-0.024122,57,275,582,6176
1644180937.408481,-0.006714,0.012024,-0.992371,0.404061,0.218626,-0.237863,55,276,583,6176
1644180937.456861,-0.010254,0.010742,-0.991211,0.251389,0.569771,-0.100458,48,283,580,6176
1644180937.50525,-0.010986,0.012085,-0.987732,0.205588,0.462901,-0.161527,41,269,583,6160
1644180937.553663,-0.008789,0.008484,-0.991699,0.098718,0.417099,-0.161527,45,280,575,6160
1644180937.602057,-0.008728,0.011169,-0.991211,0.175053,0.478168,-0.176794,55,281,583,6128
1644180937.650442,-0.007568,0.00769,-0.98999,0.281924,0.310229,-0.207328,45,275,593,6112
1644180937.698836,-0.009644,0.012146,-0.993958,0.113985,0.554504,-0.085191,49,275,582,6112
1644180937.747253,-0.010559,0.01178,-0.991394,0.220855,0.340763,0.052214,51,276,578,6080
1644180937.795606,-0.009583,0.00708,-0.991455,0.190321,0.371298,-0.008855,46,271,590,6112
1644180937.844058,-0.008545,0.009155,-0.991272,0.068183,0.386565,-0.008855,45,282,584,6128
1644180937.892466,-0.009644,0.009338,-0.990784,0.098718,0.401832,-0.192061,36,291,587,6240
1644180937.940838,-0.007019,0.012451,-0.994202,0.281924,0.417099,-0.054656,46,274,590,6128
1644180937.989233,-0.007202,0.009888,-0.991272,0.205588,0.478168,-0.115725,53,274,573,6128
1644180938.037767,-0.008057,0.010986,-0.992676,0.312458,0.401832,-0.054656,61,279,592,6080
1644180938.087982,-0.008423,0.009155,-0.989624,0.419328,0.554504,0.067481,52,277,582,6160
1644180938.136264,-0.007874,0.010193,-0.992065,0.404061,0.523969,-0.024122,42,275,586,6160
1644180938.184524,-0.006653,0.008667,-0.990051,0.236122,0.233893,-0.115725,51,288,583,6080
1644180938.234851,-0.009033,0.009521,-0.991699,0.266656,0.386565,-0.14626,59,270,586,6160
1644180938.280033,-0.009827,0.009277,-0.990112,0.08345,0.493435,-0.100458,46,288,580,6160
1644180938.376312,-0.009888,0.010254,-0.991821,0.266656,0.462901,-0.115725,49,287,586,6080
1644180938.424869,-0.007507,0.011475,-0.990356,0.35826,0.340763,-0.008855,49,270,579,6080
1644180938.473123,-0.009705,0.008972,-0.993103,0.175053,0.432366,-0.115725,54,270,584,6080
1644180938.521511,-0.006958,0.012329,-0.992859,0.129252,0.386565,-0.085191,46,266,585,6128
1644180938.569894,-0.006531,0.008423,-0.991394,0.098718,0.417099,-0.14626,48,276,580,6112
1644180938.618289,-0.008362,0.01062,-0.990784,0.08345,0.417099,0.021679,49,270,584,6192
1644180938.666672,-0.011047,0.007751,-0.993652,0.46513,0.523969,-0.222595,46,281,578,6128
1644180938.715117,-0.010803,0.008606,-0.991577,0.251389,0.310229,-0.176794,52,282,589,6160
1644180938.76349,-0.007385,0.009094,-0.989624,0.236122,0.417099,0.036947,59,277,586,6112
1644180938.811873,-0.012268,0.009338,-0.992432,0.113985,0.401832,-0.207328,52,275,586,6192
1644180938.860291,-0.009766,0.007996,-0.989624,0.052916,0.294962,-0.237863,51,279,571,6128
1644180938.908707,-0.010742,0.008301,-0.992737,0.129252,0.401832,-0.192061,45,277,582,6128
1644180938.957049,-0.012756,0.010986,-0.98999,0.297191,0.371298,-0.14626,47,282,582,6080
1644180939.005466,-0.007629,0.012207,-0.991089,0.068183,0.386565,-0.14626,53,281,583,6160
1644180939.068206,-0.010376,0.009399,-0.993225,0.281924,0.417099,-0.176794,45,273,568,6048
1644180939.105033,-0.009338,0.01001,-0.990051,0.08345,0.417099,-0.039389,51,281,592,6160
1644180939.150911,-0.010742,0.009521,-0.989685,0.266656,0.646107,-0.054656,51,286,576,6160
1644180939.199008,-0.009216,0.008545,-0.99054,0.144519,0.478168,-0.054656,52,273,582,6128
1644180939.2477,-0.007874,0.008728,-0.993591,0.251389,0.447634,-0.100458,51,276,571,6080
1644180939.297142,-0.008179,0.010803,-0.991089,0.08345,0.585038,-0.100458,55,286,578,6224
1644180939.348222,-0.00824,0.009644,-0.990967,0.175053,0.478168,-0.207328,48,271,587,6080
1644180939.397602,-0.01001,0.00946,-0.992737,0.251389,0.462901,-0.085191,54,275,584,6080
1644180939.489371,-0.007996,0.009155,-0.990906,0.312458,0.462901,0.006412,55,271,571,6112
1644180939.537745,-0.01062,0.010864,-0.991943,0.281924,0.386565,-0.237863,49,270,577,6160
1644180939.586118,-0.00885,0.010315,-0.992493,0.159786,0.371298,-0.130992,57,280,577,6128
1644180939.634541,-0.008728,0.008484,-0.989929,0.312458,0.462901,-0.25313,55,276,587,6128
1644180939.682944,-0.008789,0.010437,-0.991699,0.159786,0.447634,-0.054656,45,275,568,6048
1644180939.731335,-0.008545,0.009094,-0.992493,0.190321,0.478168,-0.192061,51,279,573,6048
1644180939.779726,-0.008911,0.00885,-0.990662,0.175053,0.371298,-0.344733,47,270,586,6112
1644180939.828119,-0.006897,0.008789,-0.992004,0.159786,0.371298,0.036947,46,279,580,6112
1644180939.876554,-0.011841,0.011292,-0.989807,0.434595,0.294962,0.036947,48,276,573,6128
1644180939.924958,-0.006409,0.009827,-0.990234,0.144519,0.340763,-0.100458,43,271,569,6128
1644180939.973344,-0.00647,0.010254,-0.992859,0.08345,0.493435,-0.024122,48,274,580,6128
1644180940.021731,-0.006897,0.01178,-0.989441,0.175053,0.356031,-0.115725,52,273,579,6160
1644180940.093985,-0.007141,0.010925,-0.992615,0.08345,0.356031,0.036947,51,276,583,6128
1644180940.118504,-0.008789,0.009644,-0.990906,0.327725,0.294962,-0.100458,42,270,577,6176
1644180940.166854,-0.010376,0.011047,-0.991943,0.297191,0.386565,-0.024122,51,276,580,6176
1644180940.216058,-0.01001,0.00946,-0.993652,0.297191,0.417099,-0.039389,53,271,585,6128
1644180940.26432,-0.007751,0.011902,-0.990479,0.144519,0.356031,-0.069924,59,265,584,6176
1644180940.315045,-0.008606,0.008606,-0.992004,0.144519,0.356031,-0.039389,54,275,582,6112
1644180940.364978,-0.00946,0.006775,-0.990112,-0.008153,0.447634,-0.054656,47,265,586,6224
1644180940.410037,-0.005554,0.010498,-0.990356,0.327725,0.279695,-0.222595,45,273,577,6080
1644180940.505591,-0.005432,0.012146,-0.99231,0.236122,0.264427,-0.024122,61,275,584,6176
1644180940.55401,-0.0047,0.009033,-0.991638,0.068183,0.417099,-0.100458,45,275,582,6112
1644180940.602386,-0.009644,0.010498,-0.989868,0.404061,0.447634,-0.100458,55,276,578,6112
1644180940.650775,-0.011108,0.010193,-0.98999,0.175053,0.310229,-0.100458,62,271,592,6128
1644180940.699172,-0.007019,0.009399,-0.992615,0.190321,0.386565,0.098015,53,274,580,6160
1644180940.74757,-0.00824,0.007874,-0.994934,0.266656,0.386565,-0.222595,48,279,583,6128
1644180940.795955,-0.009644,0.008789,-0.989868,0.175053,0.493435,-0.100458,58,281,578,6080
1644180940.844337,-0.008911,0.009827,-0.98999,0.251389,0.371298,-0.054656,49,282,584,6192
1644180940.892797,-0.007568,0.009583,-0.989136,0.205588,0.310229,-0.237863,54,270,565,6128
1644180940.941171,-0.01239,0.007507,-0.992371,0.220855,0.340763,-0.130992,46,276,580,6128
1644180940.989574,-0.006897,0.008606,-0.991699,0.175053,0.310229,-0.054656,48,274,587,6128
1644180941.037955,-0.010254,0.009338,-0.991577,0.190321,0.325496,-0.100458,43,279,576,6176
1644180941.091406,-0.008667,0.014099,-0.990112,0.220855,0.478168,-0.008855,49,285,582,6128
1644180941.134775,-0.011047,0.00946,-0.990356,0.220855,0.279695,-0.115725,58,269,585,6128
1644180941.18312,-0.007568,0.011108,-0.992737,0.159786,0.401832,-0.237863,43,279,585,6128
1644180941.231468,-0.007935,0.010742,-0.990906,0.144519,0.478168,-0.054656,57,275,591,6080
1644180941.279861,-0.007019,0.009888,-0.991699,0.175053,0.310229,-0.085191,49,277,586,6176
1644180941.328289,-0.007568,0.010193,-0.993591,0.220855,0.432366,-0.161527,59,268,582,6160
1644180941.376675,-0.009827,0.010437,-0.99115,0.373527,0.417099,-0.069924,51,279,578,6048
1644180941.426167,-0.01062,0.009338,-0.990662,0.190321,0.401832,-0.024122,53,271,590,6192
1644180941.476598,-0.006653,0.008423,-0.993103,0.312458,0.478168,-0.115725,46,271,583,6176
1644180941.526842,-0.007446,0.010132,-0.988953,0.205588,0.371298,-0.115725,48,279,583,6128
1644180941.618627,-0.009705,0.006287,-0.991333,0.281924,0.539237,-0.100458,47,270,589,6080
1644180941.667007,-0.00708,0.010132,-0.989868,0.220855,0.371298,-0.115725,43,281,583,6160
1644180941.715424,-0.009644,0.009644,-0.98877,0.220855,0.417099,0.067481,41,281,583,6128
1644180941.763794,-0.010193,0.009705,-0.991516,0.190321,0.432366,-0.069924,53,271,587,6080
1644180941.812371,-0.007812,0.010254,-0.990967,0.312458,0.462901,0.052214,54,268,586,6112
1644180941.860597,-0.010376,0.010315,-0.989136,0.205588,0.356031,-0.008855,46,281,590,6160
1644180941.909037,-0.00708,0.010315,-0.991211,0.297191,0.432366,-0.085191,40,275,589,6080
1644180941.957426,-0.009888,0.009338,-0.990417,0.08345,0.493435,-0.054656,58,276,576,6160
1644180942.005815,-0.008911,0.007019,-0.991516,0.205588,0.447634,0.067481,43,281,580,6080
1644180942.067823,-0.010132,0.009766,-0.989746,0.297191,0.371298,-0.14626,45,280,582,6160
1644180942.105356,-0.011597,0.009216,-0.989441,0.236122,0.264427,-0.024122,58,279,578,6128
1644180942.150956,-0.009155,0.011841,-0.991028,0.236122,0.356031,-0.024122,49,277,586,6160
1644180942.199348,-0.010071,0.009827,-0.991638,0.205588,0.508702,-0.130992,45,287,586,6048
1644180942.247735,-0.007874,0.01001,-0.990173,0.46513,0.325496,-0.100458,47,270,596,6176
1644180942.296132,-0.006897,0.006409,-0.99115,0.388794,0.294962,-0.024122,57,275,579,6128
1644180942.344521,-0.01001,0.01062,-0.989563,0.266656,0.417099,-0.14626,53,276,592,6080
1644180942.392894,-0.009155,0.00885,-0.993408,0.297191,0.554504,-0.085191,51,286,583,6080
1644180942.44131,-0.010437,0.008972,-0.993408,0.266656,0.462901,-0.085191,51,266,590,6160
1644180942.489728,-0.012024,0.012329,-0.991089,0.342992,0.508702,-0.130992,61,277,586,6176
1644180942.538378,-0.011169,0.01001,-0.991516,0.236122,0.401832,-0.14626,45,273,579,6128
1644180942.588839,-0.009888,0.007324,-0.990784,0.297191,0.325496,0.006412,62,279,585,6080
1644180942.639124,-0.00946,0.010559,-0.990479,0.220855,0.279695,-0.039389,42,277,584,6112
1644180942.684034,-0.008667,0.011475,-0.990845,0.159786,0.386565,-0.039389,49,277,584,6128
1644180942.780056,-0.008118,0.010986,-0.989258,0.266656,0.417099,-0.008855,58,281,587,6176
1644180942.828497,-0.008911,0.011902,-0.992249,0.113985,0.371298,-0.14626,41,271,585,6128
1644180942.876888,-0.010559,0.007996,-0.993042,0.113985,0.294962,-0.039389,49,258,589,6128
1644180942.925272,-0.008484,0.008057,-0.992188,0.220855,0.447634,0.006412,45,277,582,6112
1644180942.973662,-0.006775,0.009521,-0.991821,0.220855,0.447634,-0.176794,58,274,585,6080
1644180943.022058,-0.008423,0.007263,-0.989502,0.175053,0.508702,-0.054656,53,281,601,6160
1644180943.070653,-0.01062,0.008972,-0.99054,0.190321,0.523969,-0.283664,60,279,580,6160
1644180943.118799,-0.009338,0.01062,-0.990051,0.251389,0.523969,0.036947,57,280,584,6112
1644180943.167198,-0.010498,0.008728,-0.992798,0.220855,0.401832,-0.100458,53,281,583,6176
1644180943.215596,-0.010803,0.00885,-0.989624,0.129252,0.417099,-0.161527,49,270,586,6160
1644180943.263972,-0.010559,0.009705,-0.992676,0.08345,0.508702,-0.130992,61,265,598,6160
1644180943.312374,-0.009277,0.00885,-0.992126,0.327725,0.539237,-0.024122,42,273,589,6112
1644180943.360771,-0.009094,0.009338,-0.990967,0.220855,0.325496,-0.069924,47,275,584,6128
1644180943.409163,-0.011536,0.007812,-0.990845,0.08345,0.356031,0.021679,54,273,577,6160
1644180943.457541,-0.011902,0.010925,-0.990723,0.190321,0.462901,-0.130992,41,274,590,6048
1644180943.505924,-0.01001,0.010071,-0.991211,0.220855,0.569771,-0.069924,48,274,585,6128
1644180943.554339,-0.010315,0.00769,-0.991455,0.220855,0.508702,-0.298931,46,276,573,6128
1644180943.603032,-0.006958,0.006897,-0.990967,0.373527,0.569771,-0.085191,54,285,589,6112
1644180943.652454,-0.009888,0.009827,-0.994568,0.388794,0.24916,0.006412,52,270,584,6080
1644180943.702649,-0.008545,0.011414,-0.992981,0.113985,0.340763,-0.268397,58,271,585,6128
1644180943.752896,-0.007996,0.00885,-0.988525,0.220855,0.417099,-0.039389,55,281,592,6128
1644180943.844912,-0.009521,0.011169,-0.991089,0.175053,0.340763,-0.069924,46,283,573,6112
1644180943.893155,-0.010864,0.009705,-0.990112,0.190321,0.462901,-0.222595,42,268,577,6080
1644180943.941513,-0.009216,0.009766,-0.990662,0.205588,0.417099,-0.054656,47,275,582,6160
1644180943.989893,-0.009277,0.010925,-0.993896,0.281924,0.386565,-0.14626,53,286,585,6128
1644180944.038309,-0.01239,0.007324,-0.992493,0.236122,0.554504,-0.268397,48,269,592,6176
1644180944.090754,-0.007019,0.010193,-0.988586,0.159786,0.417099,-0.069924,55,279,587,6160
1644180944.135215,-0.009705,0.008972,-0.993958,0.251389,0.462901,-0.069924,41,283,599,6080
1644180944.183448,-0.006897,0.011963,-0.992798,0.312458,0.310229,-0.222595,47,282,575,6112
1644180944.231836,-0.007568,0.007324,-0.988892,0.220855,0.386565,-0.176794,54,277,586,6128
1644180944.280209,-0.007202,0.010986,-0.991516,0.220855,0.24916,-0.161527,47,277,584,6160
1644180944.328597,-0.006592,0.011536,-0.992004,0.205588,0.356031,-0.100458,51,276,594,6112
1644180944.37702,-0.006226,0.006958,-0.991211,0.312458,0.371298,-0.100458,51,276,585,6112
1644180944.42537,-0.010437,0.009888,-0.993347,0.281924,0.523969,-0.130992,41,281,578,6112
1644180944.473806,-0.007629,0.010376,-0.992126,0.236122,0.340763,-0.008855,46,276,583,6016
1644180944.522233,-0.006042,0.009888,-0.98938,0.220855,0.493435,0.006412,47,277,586,6176
1644180944.570584,-0.008179,0.009705,-0.993286,0.266656,0.615573,-0.130992,53,269,585,6128
1644180944.618984,-0.008911,0.007751,-0.990112,0.144519,0.401832,-0.207328,39,274,592,6112
1644180944.667358,-0.009766,0.013611,-0.98822,0.251389,0.432366,-0.100458,57,282,586,6128
1644180944.715735,-0.008118,0.009949,-0.99292,0.144519,0.325496,-0.054656,47,280,584,6160
1644180944.76419,-0.007385,0.011841,-0.990845,0.251389,0.264427,-0.161527,51,279,578,6112
1644180944.815562,-0.007385,0.011841,-0.992371,0.190321,0.386565,-0.176794,52,285,582,6160
1644180944.865978,-0.006287,0.013306,-0.99292,0.205588,0.401832,-0.024122,58,271,583,6160
1644180944.910332,-0.009155,0.012329,-0.990845,0.281924,0.478168,-0.115725,46,274,583,6128
1644180945.006137,-0.010925,0.013428,-0.992432,0.266656,0.462901,-0.054656,49,277,582,6128
1644180945.06992,-0.007324,0.007996,-0.994019,0.281924,0.447634,-0.161527,48,283,585,6080
1644180945.106147,-0.007385,0.011414,-0.991394,0.297191,0.462901,-0.161527,62,286,585,6112
1644180945.151299,-0.009583,0.009033,-0.988892,0.297191,0.462901,-0.161527,49,287,577,6160
1644180945.199696,-0.007568,0.01123,-0.992126,0.220855,0.233893,-0.130992,52,270,593,6128
1644180945.248091,-0.008301,0.010681,-0.992065,0.297191,0.386565,-0.100458,49,290,586,6160
1644180945.296475,-0.009094,0.009888,-0.99054,0.312458,0.371298,-0.069924,52,277,586,6112
1644180945.344887,-0.009521,0.00946,-0.991821,0.098718,0.462901,-0.192061,49,277,582,6128
1644180945.393249,-0.010986,0.011414,-0.989929,0.144519,0.432366,-0.085191,57,277,589,6112
1644180945.441653,-0.005798,0.009033,-0.990479,0.251389,0.432366,-0.069924,36,279,580,6128
1644180945.490064,-0.012024,0.009094,-0.992249,0.159786,0.447634,-0.085191,43,279,594,6128
1644180945.538434,-0.011475,0.012024,-0.992065,0.297191,0.432366,-0.069924,53,266,587,6112
1644180945.587024,-0.00769,0.006653,-0.992615,0.266656,0.325496,-0.085191,40,270,575,6128
1644180945.637475,-0.01001,0.009705,-0.991211,0.251389,0.432366,-0.115725,42,280,586,6080
1644180945.687894,-0.007751,0.008972,-0.990479,0.236122,0.462901,0.006412,64,282,577,6112
1644180945.732718,-0.006042,0.012146,-0.990662,0.113985,0.325496,-0.054656,46,271,587,6192
1644180945.828777,-0.00946,0.009033,-0.989197,0.205588,0.417099,0.082748,54,273,584,6128
1644180945.877216,-0.006592,0.012024,-0.991638,0.205588,0.493435,-0.054656,46,264,576,6160
1644180945.925602,-0.006836,0.010864,-0.990479,0.373527,0.478168,0.052214,57,275,575,6176
1644180945.974012,-0.007507,0.010071,-0.992493,0.266656,0.432366,-0.100458,40,275,582,6160
1644180946.022418,-0.007629,0.010498,-0.991638,0.297191,0.218626,-0.039389,54,270,586,6176
1644180946.070864,-0.009521,0.012634,-0.990906,0.35826,0.462901,-0.115725,51,279,587,6080
1644180946.119196,-0.006775,0.008972,-0.991577,0.388794,0.279695,-0.024122,40,268,579,6112
1644180946.167554,-0.006165,0.010071,-0.992188,0.205588,0.279695,0.021679,47,280,582,6160
1644180946.215943,-0.007202,0.009644,-0.993225,0.251389,0.447634,0.006412,62,276,583,6080
1644180946.264331,-0.007385,0.008911,-0.991943,0.220855,0.432366,-0.085191,35,275,579,6160
1644180946.312705,-0.010254,0.010986,-0.990784,0.113985,0.478168,-0.054656,49,277,577,6112
1644180946.36112,-0.008301,0.008728,-0.987976,0.297191,0.310229,-0.100458,48,276,594,6224
1644180946.409504,-0.006287,0.008179,-0.990234,0.175053,0.462901,-0.085191,47,280,579,6128
1644180946.457904,-0.009949,0.010315,-0.991516,0.297191,0.401832,-0.085191,42,277,579,6128
1644180946.506267,-0.01001,0.011536,-0.993408,0.220855,0.386565,-0.054656,55,283,599,6160
1644180946.554701,-0.012146,0.010986,-0.990601,0.190321,0.417099,0.082748,39,281,576,6176
1644180946.603093,-0.00885,0.010559,-0.990295,0.205588,0.508702,-0.069924,60,281,592,6128
1644180946.651488,-0.008423,0.009583,-0.988464,0.312458,0.417099,-0.14626,48,281,585,6176
1644180946.699856,-0.007874,0.009094,-0.98999,0.159786,0.401832,-0.14626,58,271,590,6080
1644180946.748259,-0.007996,0.010193,-0.991943,0.190321,0.432366,-0.207328,52,282,586,6128
1644180946.798476,-0.010376,0.010864,-0.993774,0.281924,0.432366,-0.176794,55,266,585,6080
1644180946.849198,-0.004761,0.008301,-0.989807,0.419328,0.417099,-0.115725,49,275,584,6192
1644180946.894323,-0.009094,0.01355,-0.990295,0.281924,0.310229,-0.115725,53,281,583,6112
1644180946.990242,-0.010071,0.011169,-0.99054,0.266656,0.554504,-0.100458,46,276,583,6176
1644180947.038642,-0.007935,0.012207,-0.989197,0.388794,0.371298,-0.069924,64,270,575,6128
1644180947.087709,-0.008362,0.010254,-0.991882,0.205588,0.340763,-0.024122,41,271,587,6160
1644180947.135424,-0.007812,0.01001,-0.995728,0.220855,0.447634,-0.14626,47,263,579,6112
1644180947.183796,-0.009888,0.010681,-0.990906,0.190321,0.447634,-0.25313,49,273,582,6112
1644180947.232199,-0.00592,0.009766,-0.994324,0.297191,0.417099,-0.161527,41,283,590,6112
1644180947.280575,-0.009583,0.009827,-0.99115,0.205588,0.356031,-0.192061,47,268,584,6128
1644180947.32897,-0.011414,0.009583,-0.98938,0.342992,0.401832,-0.115725,46,271,580,6112
1644180947.377351,-0.009399,0.011719,-0.991638,0.190321,0.432366,-0.176794,48,276,571,6160
1644180947.425742,-0.006714,0.011536,-0.990295,0.175053,0.401832,-0.130992,51,276,594,6192
1644180947.474168,-0.009277,0.011108,-0.989563,0.297191,0.356031,-0.039389,52,287,586,6048
1644180947.522552,-0.007751,0.007324,-0.994446,0.266656,0.371298,-0.085191,41,274,583,6080
1644180947.570906,-0.006958,0.010803,-0.989624,0.266656,0.585038,-0.039389,55,276,587,6128
1644180947.619319,-0.008972,0.009399,-0.992737,0.281924,0.478168,-0.085191,53,296,583,6176
1644180947.667734,-0.010193,0.010742,-0.99054,0.190321,0.340763,-0.039389,54,285,584,6128
1644180947.716114,-0.008179,0.009644,-0.992249,0.098718,0.478168,-0.100458,58,274,578,6160
1644180947.764513,-0.008179,0.01001,-0.990234,0.297191,0.386565,-0.039389,55,276,576,6112
1644180947.812907,-0.008911,0.008789,-0.991272,0.007115,0.478168,-0.100458,43,274,587,6128
1644180947.861298,-0.006042,0.014465,-0.991943,0.236122,0.432366,0.082748,53,274,590,6112
1644180947.911088,-0.009216,0.010925,-0.989929,0.236122,0.432366,-0.054656,52,270,582,6112
1644180947.96143,-0.008728,0.009644,-0.990234,0.434595,0.554504,-0.054656,48,279,583,6112
1644180948.066814,-0.006958,0.010071,-0.991638,0.236122,0.233893,-0.085191,42,282,591,6176
1644180948.105111,-0.007996,0.010376,-0.98877,0.205588,0.447634,0.021679,49,273,585,6112
1644180948.151673,-0.006042,0.010742,-0.99054,0.266656,0.493435,-0.008855,51,276,587,6112
1644180948.199998,-0.009155,0.010193,-0.991821,0.144519,0.279695,-0.069924,57,270,582,6080
1644180948.24843,-0.010376,0.009583,-0.991455,0.175053,0.478168,0.067481,47,273,591,6160
1644180948.296811,-0.008179,0.008911,-0.990479,0.220855,0.508702,-0.039389,55,274,580,6160
1644180948.345197,-0.007019,0.01239,-0.993591,0.312458,0.356031,-0.054656,52,265,577,6128
1644180948.393591,-0.010986,0.009033,-0.991272,0.251389,0.386565,-0.069924,53,281,585,6128
1644180948.441996,-0.007324,0.00946,-0.987427,0.205588,0.386565,-0.115725,46,279,587,6176
1644180948.490393,-0.009705,0.009583,-0.991516,0.220855,0.417099,-0.14626,49,277,584,6112
1644180948.539093,-0.004761,0.00946,-0.992493,0.419328,0.340763,0.021679,41,276,578,6160
1644180948.588475,-0.008301,0.00769,-0.989502,0.08345,0.386565,0.113282,46,279,583,6080
1644180948.638803,-0.008606,0.01123,-0.991821,0.205588,0.310229,-0.14626,52,275,593,6176
1644180948.689087,-0.008789,0.010803,-0.990601,0.342992,0.478168,-0.054656,49,273,593,6176
1644180948.780754,-0.007996,0.009705,-0.99353,0.297191,0.478168,-0.100458,42,292,582,6160
1644180948.829099,-0.006592,0.010986,-0.992676,0.281924,0.356031,-0.25313,53,269,594,6112
1644180948.877534,-0.008118,0.011169,-0.993774,0.144519,0.356031,-0.130992,55,266,576,6128
1644180948.925952,-0.008606,0.01239,-0.992554,0.373527,0.447634,-0.085191,47,268,586,6128
1644180948.974334,-0.008484,0.010193,-0.989624,0.388794,0.508702,-0.039389,49,270,596,6160
1644180949.022732,-0.009338,0.010132,-0.991455,0.144519,0.401832,-0.130992,49,280,575,6128
1644180949.071185,-0.01001,0.009827,-0.992004,0.266656,0.386565,-0.100458,52,285,579,6080
1644180949.119508,-0.006714,0.008789,-0.990417,0.190321,0.340763,-0.14626,49,275,584,6176
1644180949.167892,-0.009033,0.008118,-0.993469,0.190321,0.386565,0.006412,48,264,578,6080
1644180949.216277,-0.006042,0.009705,-0.989929,0.190321,0.554504,0.006412,49,280,591,6128
1644180949.264723,-0.007202,0.010925,-0.993042,0.144519,0.294962,-0.054656,49,282,579,6192
1644180949.313073,-0.009094,0.009949,-0.989746,0.129252,0.294962,-0.130992,46,283,578,6192
1644180949.361446,-0.011719,0.007812,-0.989807,0.281924,0.401832,-0.130992,55,286,571,6192
1644180949.409842,-0.009827,0.01001,-0.989929,0.129252,0.462901,-0.115725,42,273,577,6160
1644180949.458207,-0.009338,0.011658,-0.991638,0.175053,0.371298,-0.054656,43,276,585,6080
1644180949.506607,-0.006042,0.012817,-0.989136,0.175053,0.401832,-0.085191,59,265,598,6080
1644180949.555063,-0.010437,0.009216,-0.993103,0.327725,0.493435,-0.100458,48,266,571,6160
1644180949.603414,-0.010376,0.00769,-0.992554,0.068183,0.325496,0.006412,53,266,580,6176
1644180949.651818,-0.008667,0.008789,-0.992737,0.220855,0.325496,-0.14626,42,282,584,6112
1644180949.701401,-0.008057,0.012024,-0.991577,0.205588,0.386565,-0.069924,47,275,575,6080
1644180949.750431,-0.007629,0.009705,-0.99231,0.037649,0.569771,0.067481,51,276,585,6128
1644180949.801972,-0.006958,0.010254,-0.992981,0.373527,0.523969,-0.207328,42,275,579,6080
1644180949.846375,-0.007874,0.009705,-0.989563,0.144519,0.478168,0.036947,55,276,569,6080
1644180949.942407,-0.008057,0.011658,-0.99231,0.236122,0.371298,-0.069924,53,279,587,6080
1644180949.990602,-0.008484,0.012268,-0.991333,0.251389,0.478168,-0.176794,49,277,584,6192
1644180950.038992,-0.012573,0.011536,-0.991089,0.175053,0.417099,-0.054656,40,277,584,6080
1644180950.087428,-0.007812,0.010803,-0.991638,0.236122,0.401832,-0.14626,54,290,582,6112
1644180950.135746,-0.010742,0.010376,-0.991882,0.266656,0.310229,-0.14626,48,281,583,6160
1644180950.184136,-0.007568,0.009155,-0.99231,0.098718,0.386565,-0.192061,43,274,576,6128
1644180950.23254,-0.007935,0.010986,-0.990479,0.205588,0.417099,-0.161527,46,276,583,6128
1644180950.280891,-0.010254,0.011658,-0.99176,0.205588,0.340763,-0.085191,47,277,582,6176
1644180950.329295,-0.010742,0.009094,-0.98938,0.388794,0.417099,-0.14626,45,280,579,6160
1644180950.377706,-0.007812,0.010559,-0.989929,-0.008153,0.386565,-0.14626,53,276,580,6112
1644180950.426089,-0.009888,0.010498,-0.994141,0.281924,0.401832,-0.115725,61,277,589,6080
1644180950.474503,-0.009216,0.008301,-0.991211,0.037649,0.401832,-0.085191,54,275,579,6160
1644180950.522892,-0.009155,0.010193,-0.990234,0.205588,0.371298,-0.085191,49,277,584,6176
1644180950.571269,-0.008728,0.011719,-0.993713,0.312458,0.340763,-0.085191,45,275,579,6080
1644180950.619664,-0.008362,0.009949,-0.990112,0.281924,0.432366,-0.069924,34,266,583,6080
1644180950.668046,-0.007874,0.009277,-0.99176,0.08345,0.371298,-0.130992,48,279,578,6048
1644180950.716416,-0.008118,0.009644,-0.993042,0.159786,0.356031,-0.054656,47,273,582,6128
1644180950.764845,-0.007385,0.011353,-0.991638,0.327725,0.386565,-0.069924,48,281,585,6224
1644180950.813419,-0.008728,0.011597,-0.989075,0.220855,0.478168,-0.130992,42,275,593,6112
1644180950.863222,-0.00824,0.007874,-0.989319,0.281924,0.508702,-0.024122,54,273,582,6160
1644180950.913436,-0.007751,0.01123,-0.991272,0.251389,0.24916,-0.085191,43,288,583,6160
1644180950.963648,-0.00946,0.007874,-0.989502,0.144519,0.417099,-0.100458,46,281,590,6128
1644180951.00829,-0.006226,0.010864,-0.992126,0.175053,0.432366,-0.008855,58,276,571,6160
1644180951.103698,-0.006653,0.010254,-0.992065,0.251389,0.493435,-0.14626,60,286,580,6160
1644180951.151968,-0.009949,0.010559,-0.99115,0.236122,0.401832,0.021679,57,282,577,6128
1644180951.200383,-0.007812,0.006409,-0.992615,0.190321,0.523969,-0.039389,46,281,583,6112
1644180951.248735,-0.007812,0.00946,-0.990967,0.205588,0.478168,-0.237863,52,268,586,6048
1644180951.297155,-0.008606,0.009399,-0.992188,0.236122,0.356031,0.021679,48,288,583,6128
1644180951.345541,-0.008972,0.011536,-0.991516,0.281924,0.356031,-0.054656,51,271,583,6128
1644180951.393967,-0.007935,0.010193,-0.989807,0.144519,0.539237,-0.054656,52,273,591,6112
1644180951.44233,-0.007446,0.00824,-0.993469,0.190321,0.432366,-0.085191,46,286,585,6160
1644180951.490752,-0.011353,0.010864,-0.989563,0.144519,0.523969,-0.14626,54,277,577,6128
1644180951.539114,-0.008972,0.011475,-0.991333,0.266656,0.401832,-0.161527,47,280,584,6160
1644180951.587524,-0.009521,0.01239,-0.993225,0.08345,0.417099,-0.039389,54,277,582,6192
1644180951.635921,-0.008179,0.010254,-0.988892,0.266656,0.356031,-0.222595,57,290,584,6176
1644180951.684679,-0.008972,0.009399,-0.989685,0.068183,0.233893,-0.024122,40,277,582,6128
1644180951.732719,-0.008423,0.011902,-0.992371,0.266656,0.356031,-0.115725,61,263,589,6128
1644180951.78262,-0.010925,0.007874,-0.993286,0.297191,0.401832,-0.085191,52,268,577,6176
1644180951.834634,-0.005859,0.009888,-0.989929,0.266656,0.279695,-0.100458,41,279,580,6080
1644180951.878767,-0.003296,0.011292,-0.990845,0.312458,0.432366,-0.222595,36,269,580,6112
1644180951.975032,-0.007385,0.009521,-0.996277,0.327725,0.417099,-0.115725,48,276,585,6128
1644180952.023097,-0.010864,0.007751,-0.99176,0.297191,0.310229,-0.14626,46,276,583,6112
1644180952.071543,-0.008423,0.008362,-0.990662,0.236122,0.432366,-0.100458,52,275,596,6128
1644180952.119838,-0.009766,0.008606,-0.992065,0.297191,0.432366,-0.161527,45,280,579,6128
1644180952.168211,-0.008484,0.009644,-0.992554,0.251389,0.279695,0.006412,49,280,582,6128
1644180952.216606,-0.010803,0.006714,-0.992859,0.251389,0.401832,0.067481,43,279,576,6176
1644180952.265038,-0.009705,0.010986,-0.993469,0.08345,0.447634,-0.069924,54,270,586,6160
1644180952.313384,-0.00708,0.011353,-0.98938,0.205588,0.340763,-0.069924,42,273,589,6192
1644180952.361805,-0.005737,0.007202,-0.991211,0.342992,0.340763,-0.069924,54,265,577,6160
1644180952.410192,-0.008667,0.011841,-0.989441,0.297191,0.172824,-0.039389,51,281,576,6112
1644180952.458583,-0.008789,0.007812,-0.99231,0.190321,0.356031,-0.207328,47,265,579,6128
1644180952.506982,-0.009216,0.007507,-0.992798,0.404061,0.371298,-0.069924,43,281,585,6080
1644180952.555364,-0.006592,0.009827,-0.992188,0.266656,0.188092,-0.100458,49,275,586,6160
1644180952.603759,-0.006165,0.010803,-0.989319,0.266656,0.371298,0.021679,42,282,589,6224
1644180952.65223,-0.007263,0.008789,-0.989685,0.144519,0.356031,-0.100458,47,292,582,6160
1644180952.700514,-0.009583,0.011169,-0.99054,0.236122,0.478168,-0.283664,53,279,580,6080
1644180952.748908,-0.007996,0.008545,-0.990051,0.159786,0.478168,-0.176794,49,285,579,6128
1644180952.797316,-0.007507,0.005798,-0.989319,0.35826,0.340763,-0.130992,42,277,586,6160
1644180952.845834,-0.006897,0.010742,-0.992615,0.220855,0.462901,-0.085191,51,274,583,6048
1644180952.896222,-0.009033,0.010925,-0.99292,0.175053,0.447634,0.067481,52,260,589,6128
1644180952.946502,-0.008606,0.010193,-0.991943,0.281924,0.279695,-0.054656,43,269,578,6128
1644180952.996549,-0.00769,0.012329,-0.992065,0.342992,0.493435,-0.100458,62,269,583,6160
1644180953.087863,-0.009399,0.009277,-0.990234,0.113985,0.386565,-0.069924,60,276,585,6192
1644180953.136077,-0.010986,0.01239,-0.992554,0.129252,0.264427,-0.192061,42,285,575,6080
1644180953.18447,-0.006775,0.010254,-0.991943,0.175053,0.401832,-0.14626,51,271,580,6128
1644180953.232867,-0.008484,0.011475,-0.993652,0.052916,0.401832,-0.039389,46,274,583,6128
1644180953.28123,-0.00708,0.01062,-0.990173,0.236122,0.478168,-0.085191,52,282,584,6064
1644180953.329623,-0.009399,0.009033,-0.993713,0.113985,0.340763,0.021679,47,273,577,6176
1644180953.378034,-0.010559,0.008972,-0.990845,0.129252,0.554504,-0.085191,42,270,582,6176
1644180953.426432,-0.005981,0.009766,-0.990356,0.297191,0.447634,-0.054656,43,274,592,6112
1644180953.474802,-0.008606,0.010559,-0.991394,0.312458,0.371298,-0.100458,59,265,577,6112
1644180953.523229,-0.010315,0.010803,-0.990173,0.144519,0.279695,-0.100458,49,273,579,6128
1644180953.571606,-0.010437,0.010986,-0.992126,0.266656,0.371298,-0.100458,49,273,582,6128
1644180953.620013,-0.006958,0.008057,-0.99231,0.068183,0.432366,0.036947,54,280,582,6128
1644180953.668387,-0.006042,0.009399,-0.991882,0.297191,0.371298,-0.054656,48,276,587,6128
1644180953.716778,-0.005859,0.008972,-0.990662,0.297191,0.401832,-0.008855,51,296,585,6176
1644180953.76517,-0.006714,0.013611,-0.989624,0.08345,0.432366,-0.039389,48,274,583,6176
1644180953.813573,-0.010376,0.007629,-0.991821,0.129252,0.340763,-0.024122,53,274,587,6176
1644180953.861989,-0.009338,0.009521,-0.992126,0.129252,0.417099,-0.176794,52,273,593,6192
1644180953.910389,-0.008423,0.009033,-0.992981,0.098718,0.386565,-0.069924,58,271,585,6240
1644180953.958797,-0.011047,0.008606,-0.992432,0.205588,0.417099,-0.024122,49,280,598,6128
1644180954.00872,-0.007446,0.009277,-0.993713,0.266656,0.417099,0.036947,52,290,577,6128
1644180954.074971,-0.009888,0.008179,-0.989197,0.236122,0.615573,-0.130992,46,286,573,6160
1644180954.115135,-0.012329,0.008423,-0.99231,0.220855,0.417099,-0.039389,45,277,582,6128
1644180954.200699,-0.010132,0.006653,-0.994446,0.190321,0.401832,-0.085191,45,275,593,6160
1644180954.249089,-0.008606,0.011597,-0.991943,0.190321,0.371298,-0.085191,40,273,584,6128
1644180954.297485,-0.008789,0.009827,-0.991516,0.236122,0.523969,-0.100458,52,280,586,6128
1644180954.345884,-0.007751,0.008789,-0.992126,0.205588,0.585038,-0.069924,45,280,575,6080
1644180954.394295,-0.010437,0.006592,-0.993103,0.205588,0.508702,-0.054656,45,287,584,6128
1644180954.442693,-0.006775,0.009888,-0.992981,0.190321,0.508702,-0.069924,52,273,577,6128
1644180954.491063,-0.007629,0.006592,-0.993347,0.068183,0.233893,-0.039389,42,268,586,6176
1644180954.539472,-0.009949,0.009644,-0.990967,0.175053,0.356031,-0.069924,47,277,572,6112
1644180954.587854,-0.008484,0.007874,-0.990051,0.312458,0.539237,-0.161527,46,269,583,6112
1644180954.636246,-0.008484,0.009033,-0.991028,0.159786,0.478168,-0.008855,42,265,579,6128
1644180954.684712,-0.009033,0.00824,-0.991089,0.098718,0.447634,0.021679,43,276,580,6048
1644180954.733041,-0.00946,0.009949,-0.995422,0.159786,0.325496,-0.14626,49,277,577,6080
1644180954.781432,-0.009644,0.008057,-0.991089,0.220855,0.386565,-0.192061,36,274,587,6080
1644180954.829818,-0.009888,0.008423,-0.993774,0.266656,0.340763,-0.222595,47,277,591,6112
1644180954.878253,-0.010193,0.011353,-0.991455,0.113985,0.325496,-0.130992,52,273,579,6128
1644180954.926646,-0.009155,0.012085,-0.990051,0.205588,0.462901,-0.039389,41,276,583,6112
1644180954.97508,-0.008057,0.008362,-0.991333,0.251389,0.432366,-0.085191,57,277,584,6128
1644180955.023473,-0.007996,0.011719,-0.993408,0.129252,0.386565,-0.039389,47,287,584,6192
1644180955.09601,-0.006775,0.008667,-0.993103,0.175053,0.539237,-0.039389,46,276,590,6080
1644180955.125303,-0.012573,0.009521,-0.993408,0.175053,0.508702,-0.054656,39,286,583,6240
1644180955.169679,-0.010803,0.008728,-0.990662,0.205588,0.401832,-0.161527,49,280,582,6048
1644180955.26538,-0.008545,0.010254,-0.991638,0.236122,0.417099,-0.130992,51,269,590,6080
1644180955.313763,-0.007507,0.008423,-0.994385,0.159786,0.478168,-0.161527,46,269,578,6048
1644180955.362381,-0.008423,0.010498,-0.991821,0.113985,0.432366,-0.176794,52,277,586,6160
1644180955.41053,-0.009155,0.010071,-0.99353,0.312458,0.325496,-0.161527,59,273,584,6112
1644180955.458912,-0.008179,0.010437,-0.992126,0.08345,0.371298,-0.237863,48,279,578,6080
1644180955.507291,-0.007202,0.011292,-0.991699,0.236122,0.264427,-0.207328,40,277,598,6128
1644180955.555697,-0.008301,0.011169,-0.992188,0.388794,0.24916,-0.268397,48,288,590,6080
1644180955.604104,-0.004822,0.009155,-0.992737,0.373527,0.371298,-0.069924,47,270,577,6080
1644180955.65247,-0.009949,0.011475,-0.990356,0.220855,0.325496,-0.130992,46,271,580,6080
1644180955.700875,-0.008484,0.010376,-0.98999,0.190321,0.294962,-0.085191,51,281,590,6160
1644180955.749252,-0.004639,0.011597,-0.98938,0.190321,0.447634,-0.176794,41,276,583,6080
1644180955.797675,-0.00708,0.010193,-0.99292,0.175053,0.417099,-0.100458,57,277,579,6128
1644180955.846063,-0.006287,0.009094,-0.99176,0.236122,0.356031,-0.085191,45,277,586,6080
1644180955.8945,-0.009705,0.011475,-0.98938,0.251389,0.340763,0.067481,53,271,580,6064
1644180955.942902,-0.006104,0.012573,-0.990295,0.312458,0.478168,-0.161527,46,283,583,6128
1644180955.991275,-0.009094,0.009094,-0.992554,0.205588,0.386565,-0.130992,47,280,586,6080
1644180956.039671,-0.008667,0.007874,-0.991089,0.266656,0.478168,-0.25313,48,281,580,6192
1644180956.093631,-0.008911,0.00946,-0.991028,0.327725,0.493435,-0.161527,52,277,584,6128
1644180956.136417,-0.0047,0.007446,-0.99292,0.236122,0.386565,-0.008855,59,273,579,6112
1644180956.18614,-0.006104,0.008911,-0.992737,0.236122,0.386565,-0.14626,47,275,582,6128
1644180956.236463,-0.007629,0.01062,-0.990417,0.129252,0.478168,-0.115725,60,274,580,6128
1644180956.286586,-0.009827,0.008484,-0.992371,0.236122,0.371298,-0.130992,58,276,592,6112
1644180956.378362,-0.008301,0.010193,-0.991821,0.236122,0.356031,-0.176794,54,270,579,6176
1644180956.426757,-0.010559,0.012207,-0.990051,0.159786,0.417099,-0.024122,40,268,579,6080
1644180956.475345,-0.005798,0.013184,-0.993103,0.281924,0.417099,0.021679,57,275,584,6128
1644180956.523573,-0.010864,0.008179,-0.994385,0.327725,0.417099,-0.039389,52,277,589,6128
1644180956.571954,-0.007507,0.009094,-0.992432,0.281924,0.447634,-0.100458,51,274,583,6224
1644180956.620335,-0.007812,0.006531,-0.992004,0.404061,0.386565,-0.085191,45,277,582,6176
1644180956.668718,-0.00946,0.010986,-0.992065,0.175053,0.386565,-0.085191,52,285,565,6128
1644180956.717096,-0.009155,0.01001,-0.992432,0.312458,0.462901,-0.192061,55,276,569,6080
1644180956.765522,-0.00769,0.009216,-0.99231,0.220855,0.417099,-0.054656,42,285,579,6240
1644180956.813946,-0.010132,0.01062,-0.989014,0.113985,0.432366,-0.130992,59,285,586,6128
1644180956.862363,-0.006348,0.011414,-0.990112,0.190321,0.462901,-0.130992,45,275,579,6160
1644180956.910733,-0.00885,0.009399,-0.98938,0.297191,0.432366,-0.161527,43,271,590,6112
1644180956.95913,-0.007385,0.008606,-0.992981,0.190321,0.310229,0.113282,46,276,580,6128
1644180957.007502,-0.007141,0.010742,-0.988831,0.236122,0.600305,-0.039389,47,275,591,6080
1644180957.069893,-0.008057,0.009949,-0.988525,0.175053,0.401832,-0.161527,54,273,589,6160
1644180957.105145,-0.009583,0.011536,-0.992249,0.190321,0.325496,-0.161527,48,276,578,6128
1644180957.152679,-0.011353,0.009827,-0.989319,0.236122,0.310229,-0.237863,34,283,592,6160
1644180957.201058,-0.007996,0.011169,-0.99054,0.190321,0.447634,-0.085191,54,273,586,6128
1644180957.249597,-0.008179,0.00946,-0.990112,0.266656,0.371298,-0.115725,41,276,576,6128
1644180957.298428,-0.010254,0.012268,-0.992432,0.373527,0.401832,-0.192061,39,281,585,6176
1644180957.348918,-0.005066,0.008789,-0.989014,0.220855,0.478168,-0.069924,42,290,591,6080
1644180957.398952,-0.008484,0.009033,-0.990845,0.144519,0.523969,-0.069924,48,283,585,6080
1644180957.444062,-0.006409,0.013428,-0.994202,0.236122,0.279695,-0.100458,40,280,584,6160
1644180957.539809,-0.00708,0.009338,-0.989929,0.266656,0.218626,-0.100458,49,277,582,6176
1644180957.588171,-0.01062,0.011047,-0.991699,0.220855,0.432366,-0.085191,51,288,573,6128
1644180957.636559,-0.010193,0.009033,-0.991699,0.251389,0.325496,-0.222595,48,283,578,6080
1644180957.68501,-0.009155,0.009888,-0.990051,0.175053,0.371298,0.021679,57,280,596,6160
1644180957.733379,-0.009705,0.006958,-0.992249,0.312458,0.203359,-0.085191,51,279,587,6224
1644180957.781776,-0.007568,0.009827,-0.992676,0.129252,0.447634,-0.14626,48,271,592,6112
1644180957.83018,-0.009399,0.009277,-0.992981,0.35826,0.325496,-0.008855,49,277,582,6112
1644180957.878594,-0.008911,0.007874,-0.992432,0.205588,0.310229,-0.14626,59,275,582,6112
1644180957.926992,-0.008118,0.009155,-0.992798,0.144519,0.233893,-0.14626,47,277,577,6128
1644180957.975378,-0.008728,0.010864,-0.991943,0.297191,0.325496,0.021679,41,286,580,6176
1644180958.023783,-0.006775,0.009033,-0.991089,0.190321,0.432366,-0.222595,43,276,578,6160
1644180958.07856,-0.008789,0.009888,-0.994141,0.175053,0.356031,-0.039389,46,281,590,6128
1644180958.120518,-0.009827,0.01001,-0.99292,0.205588,0.493435,-0.25313,49,282,596,6128
1644180958.168919,-0.00769,0.010437,-0.992615,0.281924,0.371298,0.067481,41,283,587,6176
1644180958.217299,-0.007996,0.00824,-0.99292,0.205588,0.417099,-0.100458,53,279,585,6080
1644180958.26569,-0.008301,0.009399,-0.98999,0.312458,0.371298,-0.176794,52,280,596,6128
1644180958.314064,-0.010254,0.008301,-0.993835,0.205588,0.356031,-0.222595,51,269,585,6128
1644180958.362823,-0.010864,0.010498,-0.991577,0.190321,0.478168,-0.024122,58,276,587,6080
1644180958.410889,-0.006897,0.009033,-0.989014,0.281924,0.569771,-0.115725,47,273,582,6128
1644180958.460488,-0.007446,0.00946,-0.991333,0.297191,0.356031,-0.054656,41,283,585,6160
1644180958.510934,-0.008057,0.008118,-0.992615,0.159786,0.447634,-0.039389,52,280,586,6112
1644180958.556205,-0.009216,0.007202,-0.990906,0.236122,0.371298,-0.024122,51,274,587,6224
1644180958.652846,-0.007324,0.008972,-0.992126,0.266656,0.523969,-0.176794,47,277,579,6080
1644180958.701196,-0.011292,0.010315,-0.99115,0.098718,0.386565,-0.100458,53,279,587,6176
1644180958.749615,-0.006653,0.011597,-0.99176,0.190321,0.478168,0.052214,51,274,590,6128
1644180958.798011,-0.00885,0.01001,-0.993591,0.175053,0.508702,-0.115725,51,269,585,6128
1644180958.846458,-0.009094,0.009277,-0.992004,0.190321,0.371298,-0.207328,43,269,583,6112
1644180958.894849,-0.006775,0.00769,-0.992432,0.220855,0.401832,-0.069924,49,270,586,6224
1644180958.94324,-0.006836,0.012939,-0.990234,0.220855,0.417099,-0.024122,51,276,585,6080
1644180958.991629,-0.010193,0.011108,-0.991089,0.312458,0.371298,-0.039389,51,269,587,6128
1644180959.040013,-0.009338,0.007996,-0.991028,0.113985,0.371298,-0.024122,46,279,580,6128
1644180959.094852,-0.011597,0.00885,-0.992004,0.205588,0.264427,0.006412,53,274,580,6048
1644180959.136762,-0.011536,0.007019,-0.988708,0.144519,0.371298,-0.024122,54,282,584,6112
1644180959.185181,-0.00708,0.009644,-0.991333,0.220855,0.523969,-0.207328,57,282,586,6128
1644180959.233543,-0.009155,0.01178,-0.99176,0.220855,0.401832,-0.039389,40,282,586,6128
1644180959.281911,-0.007019,0.012268,-0.990662,0.281924,0.386565,0.021679,46,279,580,6112
1644180959.330327,-0.00592,0.011414,-0.992065,0.08345,0.386565,-0.14626,46,276,583,6128
1644180959.378731,-0.008728,0.011536,-0.990723,0.297191,0.310229,0.021679,53,271,587,6112
1644180959.427169,-0.008057,0.008667,-0.990967,0.251389,0.294962,-0.008855,46,266,587,6112
1644180959.477134,-0.006531,0.008484,-0.990601,0.327725,0.493435,-0.115725,59,275,582,6160
1644180959.527821,-0.008545,0.00769,-0.991028,0.236122,0.340763,-0.115725,46,281,578,6112
1644180959.572565,-0.009033,0.010925,-0.990295,0.098718,0.157557,-0.039389,58,271,583,6128
1644180959.66906,-0.007202,0.010986,-0.988403,0.098718,0.478168,-0.100458,46,266,578,6112
1644180959.717445,-0.008972,0.010681,-0.990295,0.205588,0.447634,-0.222595,41,271,578,6176
1644180959.765836,-0.007446,0.008362,-0.991089,0.113985,0.294962,0.006412,55,269,580,6128
1644180959.814288,-0.008057,0.009094,-0.994934,0.251389,0.279695,-0.14626,57,277,577,6112
1644180959.862695,-0.008301,0.007996,-0.993225,0.190321,0.462901,-0.222595,49,273,577,6112
1644180959.911082,-0.008118,0.008667,-0.99353,0.144519,0.447634,-0.176794,54,270,589,6128
1644180959.95947,-0.010193,0.01062,-0.991821,0.129252,0.447634,0.052214,48,283,587,6128
1644180960.007868,-0.008057,0.010376,-0.990173,-0.02342,0.356031,-0.100458,42,282,596,6160
1644180960.070971,-0.010193,0.010742,-0.991394,0.129252,0.539237,-0.024122,42,285,586,6176
1644180960.106443,-0.006348,0.009155,-0.991394,0.175053,0.371298,0.082748,57,285,586,6080
1644180960.153007,-0.008118,0.006775,-0.991638,0.205588,0.356031,-0.130992,49,263,591,6224
1644180960.201398,-0.010071,0.010925,-0.992493,0.342992,0.188092,0.021679,47,273,582,6160
1644180960.24978,-0.008545,0.01001,-0.990417,0.434595,0.340763,-0.115725,42,275,589,6128
1644180960.298185,-0.006714,0.009888,-0.991211,0.068183,0.340763,-0.100458,48,281,578,6160
1644180960.346587,-0.00824,0.010376,-0.991089,0.35826,0.493435,-0.115725,54,285,598,6128
1644180960.395196,-0.006348,0.007507,-0.990845,0.251389,0.447634,-0.237863,45,282,584,6112
1644180960.443369,-0.009216,0.00708,-0.991272,0.281924,0.386565,-0.085191,57,277,591,6160
1644180960.491832,-0.010559,0.011963,-0.992554,0.068183,0.310229,-0.069924,48,274,587,6112
1644180960.540146,-0.006042,0.009521,-0.990967,0.266656,0.462901,-0.130992,53,276,590,6160
1644180960.5889,-0.008606,0.006897,-0.992126,0.08345,0.356031,0.174351,45,273,575,6128
1644180960.639421,-0.010193,0.008911,-0.992493,0.08345,0.493435,0.006412,52,273,589,6176
1644180960.689532,-0.007751,0.010193,-0.992126,0.08345,0.432366,0.021679,49,282,596,6160
1644180960.734502,-0.009644,0.011719,-0.99292,0.098718,0.386565,-0.024122,43,276,587,6160
1644180960.830496,-0.007812,0.010681,-0.990967,0.205588,0.401832,-0.222595,45,282,589,6128
1644180960.87892,-0.009705,0.010986,-0.991333,0.205588,0.432366,-0.207328,52,275,577,6192
1644180960.927319,-0.010864,0.008789,-0.991089,0.327725,0.325496,-0.14626,42,285,582,6160
1644180960.975712,-0.009216,0.007996,-0.991333,0.236122,0.447634,0.006412,49,273,582,6128
1644180961.024107,-0.008423,0.010681,-0.989258,0.190321,0.447634,-0.069924,45,275,589,6128
1644180961.074507,-0.007812,0.006958,-0.990234,0.205588,0.294962,-0.024122,55,274,594,6128
1644180961.121186,-0.006897,0.010925,-0.99231,0.266656,0.432366,-0.176794,60,276,583,6128
1644180961.169257,-0.006775,0.009216,-0.988892,0.098718,0.508702,-0.008855,53,274,590,6192
1644180961.217637,-0.007812,0.007874,-0.993713,0.220855,0.356031,-0.176794,53,276,583,6112
1644180961.266043,-0.008362,0.012085,-0.990723,0.251389,0.615573,0.036947,48,264,585,6160
1644180961.314441,-0.007263,0.011108,-0.994812,0.022382,0.24916,-0.069924,49,280,591,6176
1644180961.362847,-0.008728,0.011292,-0.993469,0.129252,0.279695,-0.115725,46,283,583,6128
1644180961.411209,-0.009155,0.007812,-0.99176,0.251389,0.279695,-0.085191,49,270,577,6112
1644180961.459615,-0.006165,0.009949,-0.991821,0.251389,0.386565,-0.069924,47,277,589,6128
1644180961.50797,-0.010193,0.012268,-0.991638,0.159786,0.447634,-0.008855,55,274,585,6176
1644180961.556402,-0.009094,0.012024,-0.990234,0.220855,0.356031,0.036947,51,264,585,6160
1644180961.6048,-0.007751,0.009644,-0.99231,0.266656,0.294962,0.052214,42,275,582,6080
1644180961.653192,-0.009155,0.009827,-0.990906,0.068183,0.432366,-0.100458,53,271,590,6160
1644180961.70157,-0.010315,0.005798,-0.992981,0.220855,0.462901,-0.069924,52,280,589,6128
1644180961.750083,-0.006958,0.008545,-0.993164,0.098718,0.386565,-0.14626,54,275,575,6160
1644180961.800473,-0.007202,0.010681,-0.990723,0.159786,0.478168,-0.069924,47,275,582,6128
1644180961.850862,-0.007935,0.010864,-0.991943,0.190321,0.279695,0.021679,48,279,592,6128
1644180961.896338,-0.008545,0.011169,-0.990723,0.281924,0.417099,-0.100458,45,285,582,6064
1644180961.991948,-0.007568,0.009766,-0.989014,0.129252,0.371298,-0.024122,49,270,586,6128
1644180962.040342,-0.00769,0.013184,-0.995117,0.129252,0.356031,-0.008855,49,268,589,6128
1644180962.088788,-0.009949,0.008301,-0.992065,0.266656,0.386565,-0.161527,53,269,590,6112
1644180962.137139,-0.010071,0.010803,-0.990906,0.144519,0.356031,-0.069924,54,280,586,6128
1644180962.185492,-0.007629,0.011841,-0.993652,0.236122,0.401832,-0.207328,55,274,587,6128
1644180962.233888,-0.007263,0.011108,-0.989929,0.236122,0.356031,-0.008855,41,276,590,6128
1644180962.282262,-0.007751,0.011047,-0.991638,0.052916,0.356031,0.082748,58,291,590,6128
1644180962.330667,-0.009094,0.010315,-0.991394,0.236122,0.294962,-0.039389,47,273,598,6160
1644180962.379064,-0.009216,0.009277,-0.990051,0.281924,0.294962,-0.024122,46,266,580,6112
1644180962.427466,-0.009521,0.009277,-0.989929,0.129252,0.371298,-0.176794,45,275,586,6128
1644180962.475845,-0.009521,0.009033,-0.989685,0.251389,0.478168,0.006412,48,274,576,6112
1644180962.524247,-0.008484,0.01123,-0.993958,0.236122,0.340763,-0.130992,58,286,580,6048
1644180962.57265,-0.008179,0.009216,-0.991638,0.220855,0.310229,-0.008855,51,271,578,6080
1644180962.621024,-0.009399,0.01001,-0.991455,0.175053,0.371298,-0.085191,54,287,577,6080
1644180962.669423,-0.01001,0.007507,-0.992371,0.220855,0.447634,0.006412,43,269,583,6128
1644180962.717809,-0.006592,0.008606,-0.993286,0.327725,0.310229,-0.008855,46,276,587,6176
1644180962.766203,-0.004639,0.00885,-0.991028,0.113985,0.462901,-0.268397,45,282,598,6128
1644180962.814635,-0.009094,0.007996,-0.990662,0.281924,0.569771,-0.115725,41,271,583,6160
1644180962.863364,-0.008484,0.009827,-0.990173,0.098718,0.371298,-0.161527,34,281,580,6080
1644180962.914069,-0.007629,0.009033,-0.991882,0.190321,0.478168,-0.085191,41,281,587,6128
1644180962.963911,-0.008179,0.009827,-0.992004,0.220855,0.432366,0.052214,55,276,578,6160
1644180963.069217,-0.010498,0.010071,-0.989502,0.236122,0.356031,-0.054656,47,277,593,6176
1644180963.108445,-0.010132,0.008362,-0.990601,0.113985,0.447634,-0.115725,48,266,597,6112
1644180963.153389,-0.008179,0.009888,-0.99231,0.175053,0.401832,-0.054656,40,280,579,6080
1644180963.201746,-0.007324,0.010193,-0.991699,0.129252,0.340763,0.098015,45,282,586,6176
1644180963.250108,-0.009705,0.009277,-0.990112,0.08345,0.432366,0.052214,41,274,580,6128
1644180963.298499,-0.009949,0.008972,-0.989136,0.220855,0.264427,0.006412,35,277,586,6080
1644180963.346963,-0.008728,0.010437,-0.99231,0.236122,0.356031,-0.130992,45,277,589,6128
1644180963.395295,-0.008545,0.013062,-0.99054,0.220855,0.401832,-0.115725,47,297,586,6160
1644180963.443691,-0.008972,0.009521,-0.991394,0.190321,0.294962,-0.024122,49,282,589,6128
1644180963.492375,-0.010864,0.009277,-0.988892,0.190321,0.401832,-0.192061,51,274,585,6160
1644180963.540478,-0.008301,0.010437,-0.990906,0.281924,0.340763,-0.085191,42,280,589,6080
1644180963.588876,-0.008606,0.009644,-0.993164,0.175053,0.356031,-0.008855,53,276,585,6160
1644180963.637252,-0.009521,0.010254,-0.989197,0.129252,0.203359,-0.008855,42,280,579,6192
1644180963.686516,-0.008484,0.009583,-0.992615,0.113985,0.218626,-0.130992,40,277,593,6064
1644180963.737296,-0.008179,0.012512,-0.991699,0.327725,0.356031,-0.192061,43,264,583,6080
1644180963.787204,-0.005981,0.011597,-0.992249,0.220855,0.462901,-0.115725,47,270,586,6128
1644180963.832188,-0.008423,0.01062,-0.99115,0.236122,0.325496,-0.222595,45,268,579,6112
1644180963.927693,-0.008728,0.009827,-0.989136,0.175053,0.356031,-0.115725,40,282,584,6128
1644180963.976026,-0.010132,0.009338,-0.992188,0.342992,0.539237,-0.085191,51,276,583,6128
1644180964.024446,-0.010193,0.011108,-0.990906,0.312458,0.386565,-0.192061,48,269,585,6112
1644180964.072914,-0.008057,0.010864,-0.991394,0.113985,0.508702,-0.085191,51,271,578,6128
1644180964.12119,-0.007568,0.011963,-0.990234,0.327725,0.508702,-0.085191,47,282,591,6176
1644180964.169584,-0.009583,0.008972,-0.990845,0.266656,0.325496,-0.100458,41,279,580,6176
1644180964.217975,-0.008545,0.010437,-0.989929,0.327725,0.371298,-0.008855,43,276,587,6160
1644180964.26637,-0.006897,0.009705,-0.991089,0.327725,0.523969,-0.161527,38,277,577,6128
1644180964.31478,-0.00824,0.006897,-0.993164,0.205588,0.356031,-0.161527,45,282,584,6112
1644180964.363149,-0.010071,0.011475,-0.992493,0.220855,0.462901,-0.161527,54,275,582,6160
1644180964.411534,-0.011841,0.010681,-0.993835,0.342992,0.401832,0.036947,49,273,579,6128
1644180964.45993,-0.00769,0.009827,-0.993958,0.220855,0.279695,-0.054656,48,283,590,6224
1644180964.508321,-0.009888,0.008484,-0.990173,0.022382,0.310229,-0.161527,49,265,584,6160
1644180964.556695,-0.005981,0.008972,-0.991638,0.236122,0.462901,-0.085191,52,275,577,6080
1644180964.605153,-0.013611,0.007324,-0.994934,0.251389,0.340763,-0.130992,52,280,584,6080
1644180964.653514,-0.010681,0.006226,-0.993713,0.342992,0.401832,-0.054656,54,277,579,6160
1644180964.701907,-0.009033,0.010925,-0.992676,0.159786,0.462901,-0.100458,48,279,590,6160
1644180964.750272,-0.007996,0.009827,-0.992249,0.190321,0.340763,-0.039389,45,280,586,6128
1644180964.798739,-0.00885,0.009521,-0.992065,0.129252,0.462901,-0.14626,39,271,587,6160
1644180964.847907,-0.005676,0.01178,-0.991333,0.052916,0.401832,-0.176794,47,277,582,6160
1644180964.898157,-0.009521,0.009583,-0.99115,0.327725,0.371298,-0.008855,54,275,582,6176
1644180964.948509,-0.008545,0.009338,-0.991577,0.098718,0.462901,-0.085191,59,277,586,6080
1644180964.993125,-0.00885,0.007751,-0.990845,0.266656,0.294962,-0.192061,47,270,577,6160
1644180965.090376,-0.008606,0.010925,-0.990051,0.342992,0.386565,-0.207328,57,277,589,6160
1644180965.137449,-0.006226,0.009094,-0.991211,0.312458,0.340763,-0.115725,39,279,585,6160
1644180965.185837,-0.007446,0.011902,-0.990784,0.266656,0.462901,-0.024122,55,281,583,6112
1644180965.234228,-0.009644,0.008667,-0.992249,0.098718,0.233893,-0.054656,51,279,578,6176
1644180965.28261,-0.007324,0.009705,-0.99115,0.175053,0.432366,-0.14626,51,283,576,6080
1644180965.331016,-0.010498,0.008667,-0.990723,0.144519,0.386565,-0.039389,58,283,583,6160
1644180965.379406,-0.00647,0.008545,-0.992737,0.113985,0.432366,-0.115725,54,277,584,6112
1644180965.427792,-0.01123,0.008118,-0.990417,0.175053,0.432366,-0.176794,55,279,576,6160
1644180965.476187,-0.008972,0.010986,-0.990479,0.052916,0.371298,-0.115725,47,277,579,6112
1644180965.524687,-0.00885,0.010315,-0.991272,0.251389,0.478168,-0.054656,48,279,592,6192
1644180965.572987,-0.009338,0.008728,-0.991516,0.175053,0.401832,-0.176794,48,279,583,6112
1644180965.621367,-0.008484,0.010071,-0.991455,0.297191,0.371298,-0.176794,51,271,587,6192
1644180965.669759,-0.008484,0.010315,-0.990417,0.129252,0.371298,-0.130992,46,274,590,6160
1644180965.718124,-0.007507,0.011353,-0.99054,0.205588,0.462901,-0.100458,59,277,596,6128
1644180965.766542,-0.009155,0.009155,-0.990417,0.098718,0.371298,-0.298931,53,281,583,6080
1644180965.81503,-0.006287,0.006714,-0.993225,0.098718,0.432366,-0.100458,42,282,584,6080
1644180965.863567,-0.006104,0.011169,-0.991638,0.205588,0.401832,-0.14626,51,281,594,6128
1644180965.911776,-0.009338,0.010498,-0.991211,0.144519,0.417099,-0.115725,61,268,589,6112
1644180965.961362,-0.009583,0.009338,-0.992065,0.297191,0.478168,-0.161527,54,275,582,6048
1644180966.064351,-0.011169,0.011292,-0.990906,0.175053,0.462901,0.006412,42,292,593,6080
1644180966.105491,-0.008728,0.011414,-0.990601,0.404061,0.447634,-0.039389,45,282,593,6160
1644180966.153691,-0.008423,0.010376,-0.992798,0.08345,0.493435,-0.085191,45,280,589,6192
1644180966.202082,-0.007446,0.008423,-0.992371,0.251389,0.310229,-0.069924,47,280,589,6160
1644180966.25044,-0.008728,0.010132,-0.992676,0.190321,0.447634,-0.085191,42,265,582,6160
1644180966.298881,-0.010742,0.008606,-0.994507,0.205588,0.356031,-0.039389,61,285,579,6160
1644180966.347259,-0.009033,0.010071,-0.993835,0.281924,0.356031,-0.283664,58,283,590,6112
1644180966.395649,-0.00824,0.008362,-0.990356,0.068183,0.340763,-0.069924,49,275,582,6128
1644180966.444051,-0.00708,0.011047,-0.990112,0.266656,0.432366,-0.100458,51,279,583,6240
1644180966.492424,-0.00769,0.008911,-0.994263,0.236122,0.539237,-0.008855,51,283,580,6128
1644180966.540827,-0.009399,0.008972,-0.992249,0.236122,0.386565,0.052214,55,281,590,6160
1644180966.589231,-0.007202,0.008179,-0.995544,0.190321,0.462901,-0.192061,48,269,576,6128
1644180966.637584,-0.008179,0.010437,-0.990662,0.297191,0.478168,-0.008855,43,286,585,6128
1644180966.686008,-0.009277,0.007812,-0.989746,0.388794,0.371298,-0.130992,55,276,590,6080
1644180966.73437,-0.006714,0.009766,-0.992249,0.236122,0.539237,-0.115725,45,268,589,6112
1644180966.782829,-0.009949,0.007507,-0.991882,0.220855,0.478168,-0.085191,52,282,586,6128
1644180966.834026,-0.00708,0.010437,-0.992493,0.342992,0.447634,-0.130992,46,276,587,6176
1644180966.884012,-0.006836,0.008423,-0.994629,0.052916,0.340763,-0.085191,49,277,589,6160
1644180966.928562,-0.009094,0.008728,-0.988403,0.129252,0.386565,-0.069924,47,280,579,6128
1644180967.02496,-0.009216,0.010742,-0.992065,0.251389,0.386565,-0.085191,47,273,584,6112
1644180967.073651,-0.00885,0.011597,-0.994263,0.251389,0.264427,-0.085191,45,282,589,6112
1644180967.121565,-0.01001,0.010315,-0.994629,0.220855,0.432366,-0.054656,45,282,579,6128
1644180967.169921,-0.008118,0.01178,-0.989807,0.144519,0.493435,-0.161527,46,283,585,6080
1644180967.218327,-0.007629,0.009277,-0.990479,0.373527,0.310229,-0.25313,52,268,586,6192
1644180967.26671,-0.007385,0.007874,-0.992004,0.129252,0.325496,-0.130992,54,280,582,6080
