epoch,acc_x,acc_y,acc_z,rot_x,rot_y,rot_z,mag_x,mag_y,mag_z,temp
1644177000.033464,-0.01001,0.011963,-0.990234,0.220855,0.462901,-0.14626,40,270,593,5872
1644177000.081911,-0.009827,0.009277,-0.995422,0.236122,0.24916,-0.14626,33,275,579,5872
1644177000.13026,-0.009033,0.01001,-0.992554,0.35826,0.356031,-0.054656,46,276,576,5872
1644177000.178585,-0.009277,0.010315,-0.990784,0.342992,0.325496,-0.115725,41,271,580,5872
1644177000.226989,-0.011108,0.008118,-0.991577,0.129252,0.371298,-0.14626,40,275,584,5888
1644177000.275375,-0.009277,0.009033,-0.991821,0.297191,0.386565,-0.039389,52,275,582,5824
1644177000.323747,-0.008057,0.011047,-0.992737,0.312458,0.310229,-0.054656,42,277,589,5872
1644177000.37216,-0.008423,0.008423,-0.99115,0.129252,0.325496,-0.237863,47,268,579,5888
1644177000.420556,-0.008484,0.010742,-0.992737,-0.008153,0.340763,-0.268397,51,276,585,5808
1644177000.468943,-0.009766,0.009705,-0.992249,0.449863,0.554504,-0.161527,42,270,596,5872
1644177000.517346,-0.005432,0.010193,-0.989502,0.052916,0.478168,-0.085191,52,270,575,5872
1644177000.565725,-0.011536,0.007385,-0.991272,0.35826,0.478168,-0.024122,47,285,584,5840
1644177000.614106,-0.008545,0.008362,-0.992676,0.113985,0.447634,-0.130992,45,275,584,5888
1644177000.662524,-0.011047,0.009155,-0.990356,0.037649,0.340763,-0.039389,46,274,576,5808
1644177000.710899,-0.012207,0.010681,-0.992493,0.129252,0.417099,-0.008855,46,269,587,5872
1644177000.759289,-0.009521,0.009827,-0.991577,0.251389,0.417099,-0.115725,49,275,584,5776
1644177000.807677,-0.008484,0.008362,-0.990295,0.159786,0.340763,-0.192061,39,276,585,5888
1644177000.856452,-0.008789,0.011414,-0.990967,0.236122,0.478168,-0.161527,54,275,586,5872
1644177000.907455,-0.007996,0.009155,-0.99353,0.190321,0.447634,-0.176794,52,282,586,5872
1644177000.957849,-0.010437,0.005981,-0.993225,0.068183,0.478168,-0.085191,48,279,585,5872
1644177001.068261,-0.009705,0.006958,-0.990601,0.175053,0.401832,-0.100458,49,275,591,5808
1644177001.098126,-0.011841,0.012024,-0.993286,0.144519,0.371298,-0.039389,46,274,590,5888
1644177001.14649,-0.008362,0.00769,-0.990234,0.297191,0.417099,-0.024122,49,270,589,5888
1644177001.194839,-0.010315,0.009827,-0.991211,0.266656,0.554504,-0.024122,51,271,585,5840
1644177001.243387,-0.009277,0.009155,-0.992493,0.266656,0.478168,0.021679,52,268,591,5872
1644177001.291566,-0.010071,0.009949,-0.991333,0.388794,0.279695,-0.268397,53,274,587,5776
1644177001.339985,-0.009033,0.009766,-0.990784,0.205588,0.386565,-0.192061,46,279,580,5824
1644177001.388383,-0.009827,0.009949,-0.991699,0.220855,0.325496,-0.100458,52,277,584,5904
1644177001.436769,-0.009766,0.012512,-0.991882,0.236122,0.356031,-0.085191,51,276,578,5824
1644177001.485526,-0.010742,0.007874,-0.991516,0.312458,0.539237,-0.207328,53,266,590,5840
1644177001.534942,-0.007385,0.00769,-0.994751,0.190321,0.478168,-0.207328,57,277,582,5872
1644177001.58504,-0.009521,0.011841,-0.990601,0.312458,0.447634,-0.25313,52,277,584,5824
1644177001.635249,-0.007507,0.006958,-0.990662,0.220855,0.417099,-0.100458,34,269,594,5840
1644177001.727135,-0.007324,0.008057,-0.990112,0.266656,0.462901,-0.069924,48,269,580,5824
1644177001.775478,-0.011719,0.006287,-0.99292,0.266656,0.447634,-0.14626,57,277,591,5840
1644177001.8239,-0.009094,0.009583,-0.992432,0.220855,0.371298,-0.192061,46,274,576,5808
1644177001.872712,-0.007263,0.008545,-0.990723,0.312458,0.417099,-0.024122,39,274,580,5936
1644177001.920711,-0.012146,0.007324,-0.992615,0.175053,0.432366,-0.14626,49,287,575,5872
1644177001.969111,-0.006409,0.008484,-0.991821,0.236122,0.615573,-0.176794,45,277,579,5904
1644177002.017509,-0.008423,0.008057,-0.989807,0.281924,0.432366,-0.14626,48,274,585,5872
1644177002.070039,-0.009949,0.006775,-0.99054,0.266656,0.417099,-0.25313,49,277,582,5872
1644177002.114313,-0.011841,0.010803,-0.994629,0.342992,0.401832,-0.085191,48,274,573,5872
1644177002.162693,-0.012756,0.011292,-0.991272,0.236122,0.218626,-0.115725,43,286,578,5872
1644177002.211067,-0.010132,0.008789,-0.993652,0.205588,0.508702,-0.176794,45,270,577,5872
1644177002.259443,-0.008118,0.009644,-0.994141,0.190321,0.478168,0.113282,53,269,580,5824
1644177002.307825,-0.00885,0.010681,-0.990417,0.266656,0.279695,-0.268397,55,276,587,5872
1644177002.356238,-0.010071,0.010193,-0.994202,0.266656,0.462901,-0.115725,59,275,586,5872
1644177002.40465,-0.009766,0.010071,-0.994202,0.281924,0.310229,-0.25313,48,274,590,5904
1644177002.453048,-0.009827,0.00824,-0.996033,0.297191,0.310229,-0.039389,49,277,584,5840
1644177002.501398,-0.010437,0.009033,-0.990601,0.312458,0.478168,-0.039389,42,275,589,5824
1644177002.550063,-0.006897,0.01001,-0.990112,0.297191,0.401832,-0.176794,55,266,587,5840
1644177002.598616,-0.009644,0.011047,-0.990173,0.175053,0.386565,-0.115725,58,279,578,5888
1644177002.648569,-0.009155,0.008301,-0.991577,0.327725,0.493435,-0.14626,38,273,589,5808
1644177002.698932,-0.006897,0.008789,-0.992065,0.236122,0.493435,-0.14626,58,264,597,5936
1644177002.749251,-0.011902,0.007874,-0.990723,0.404061,0.585038,-0.039389,48,271,590,5824
1644177002.840161,-0.011597,0.008301,-0.991455,0.312458,0.447634,-0.054656,43,274,587,5888
1644177002.888539,-0.008484,0.010498,-0.993774,0.236122,0.356031,-0.024122,43,276,576,5904
1644177002.936947,-0.010681,0.007568,-0.992371,0.220855,0.325496,-0.130992,51,281,583,5824
1644177002.985331,-0.007874,0.010559,-0.991333,0.327725,0.386565,-0.222595,49,275,591,5872
1644177003.033751,-0.00946,0.01062,-0.992615,0.129252,0.417099,-0.039389,55,271,578,5872
1644177003.08481,-0.010254,0.008484,-0.988892,0.236122,0.417099,-0.039389,62,279,585,5824
1644177003.130455,-0.006836,0.010986,-0.990173,0.281924,0.478168,0.006412,42,287,591,5904
1644177003.178863,-0.007507,0.010498,-0.990906,0.449863,0.493435,-0.024122,54,275,575,5936
1644177003.227248,-0.007751,0.005859,-0.990784,0.297191,0.386565,0.021679,52,265,582,5824
1644177003.275634,-0.008484,0.01001,-0.992859,0.205588,0.478168,-0.039389,55,276,590,5840
1644177003.324023,-0.010742,0.006042,-0.99176,0.220855,0.386565,-0.25313,55,274,587,5808
1644177003.372441,-0.010498,0.010315,-0.990845,0.129252,0.447634,-0.283664,38,275,582,5824
1644177003.420816,-0.003967,0.009094,-0.991394,0.281924,0.356031,-0.14626,54,273,586,5808
1644177003.469208,-0.007996,0.011108,-0.98938,0.159786,0.310229,-0.115725,48,286,592,5872
1644177003.517597,-0.008545,0.010254,-0.989502,0.419328,0.462901,0.006412,43,274,585,5888
1644177003.565989,-0.006531,0.009399,-0.989685,0.113985,0.310229,-0.069924,47,280,593,5888
1644177003.614388,-0.004761,0.009766,-0.99115,0.236122,0.447634,-0.25313,47,277,589,5872
1644177003.662789,-0.010803,0.011292,-0.990662,0.190321,0.325496,-0.069924,51,286,585,5872
1644177003.711172,-0.009216,0.007874,-0.991272,0.175053,0.340763,-0.176794,49,275,586,5840
1644177003.759901,-0.009827,0.007874,-0.991394,0.220855,0.264427,0.067481,51,269,587,5776
1644177003.810708,-0.009766,0.008484,-0.992493,0.159786,0.432366,-0.130992,45,273,579,5840
1644177003.861454,-0.010925,0.00769,-0.993347,0.35826,0.478168,-0.130992,52,260,582,5888
1644177003.906186,-0.007507,0.010254,-0.992798,0.220855,0.356031,-0.115725,51,269,590,5840
1644177004.001541,-0.00769,0.012146,-0.990234,0.312458,0.325496,-0.039389,48,283,583,5840
1644177004.067067,-0.00946,0.009583,-0.992004,0.312458,0.478168,-0.192061,45,268,584,5872
1644177004.098402,-0.010925,0.007019,-0.99176,0.190321,0.478168,-0.25313,55,279,592,5776
1644177004.146688,-0.008545,0.008606,-0.992065,0.037649,0.478168,-0.130992,59,265,582,5840
1644177004.195171,-0.011536,0.012512,-0.991089,0.113985,0.264427,-0.039389,48,288,592,5824
1644177004.243473,-0.006287,0.00708,-0.991821,0.205588,0.401832,-0.283664,55,266,594,5872
1644177004.291861,-0.011108,0.009827,-0.990051,0.175053,0.401832,-0.192061,46,269,587,5840
1644177004.340266,-0.008606,0.007202,-0.991089,0.205588,0.356031,-0.085191,55,281,585,5840
1644177004.388642,-0.009583,0.010742,-0.994202,0.251389,0.279695,-0.085191,47,285,572,5872
1644177004.437032,-0.009216,0.012756,-0.992981,0.220855,0.386565,-0.039389,58,264,580,5872
1644177004.485421,-0.005859,0.01123,-0.992798,0.205588,0.462901,-0.14626,43,276,590,5888
1644177004.534138,-0.007629,0.008789,-0.992004,0.144519,0.432366,-0.069924,61,275,582,5904
1644177004.583482,-0.009399,0.010315,-0.991272,0.266656,0.432366,0.082748,46,279,592,5872
1644177004.633754,-0.01001,0.010071,-0.990845,0.113985,0.447634,0.006412,49,275,591,5888
1644177004.684065,-0.00946,0.009155,-0.993103,0.419328,0.386565,-0.085191,46,281,592,5936
1644177004.775764,-0.00946,0.008911,-0.994385,0.281924,0.523969,-0.130992,46,283,580,5888
1644177004.824168,-0.010986,0.010986,-0.99054,0.266656,0.325496,-0.207328,55,269,587,5888
1644177004.87261,-0.012024,0.009888,-0.99292,0.35826,0.371298,-0.130992,51,274,585,5872
1644177004.920985,-0.008301,0.01178,-0.991882,0.098718,0.508702,-0.176794,55,271,585,5888
1644177004.969377,-0.009216,0.007385,-0.993164,0.190321,0.356031,-0.207328,52,285,575,5824
1644177005.017774,-0.010986,0.010071,-0.993896,0.08345,0.462901,-0.024122,45,268,593,5904
1644177005.067567,-0.008606,0.010254,-0.991333,0.297191,0.539237,-0.085191,46,283,590,5872
1644177005.114693,-0.007629,0.009827,-0.993347,0.190321,0.24916,-0.207328,59,276,592,5888
1644177005.162931,-0.00885,0.009827,-0.988892,0.266656,0.356031,0.021679,51,276,583,5872
1644177005.211293,-0.009338,0.01062,-0.992554,0.35826,0.600305,-0.14626,54,277,579,5776
1644177005.259693,-0.01123,0.007568,-0.99231,0.281924,0.417099,-0.237863,51,281,583,5872
1644177005.308059,-0.005981,0.010864,-0.992981,0.251389,0.401832,-0.115725,46,266,583,5872
1644177005.356476,-0.00592,0.008606,-0.991333,0.281924,0.356031,0.006412,43,276,580,5824
1644177005.404883,-0.009583,0.011719,-0.991943,0.175053,0.539237,0.052214,40,275,596,5888
1644177005.453246,-0.008545,0.010986,-0.992432,0.342992,0.508702,0.052214,59,277,591,5888
1644177005.501623,-0.008667,0.011963,-0.990967,0.312458,0.493435,-0.024122,59,287,589,5824
1644177005.550041,-0.007935,0.01123,-0.992981,0.129252,0.356031,-0.115725,43,279,590,5808
1644177005.598427,-0.01178,0.007202,-0.990356,0.312458,0.386565,-0.008855,48,274,580,5840
1644177005.646802,-0.006042,0.010132,-0.989868,0.373527,0.432366,-0.100458,54,270,589,5776
1644177005.696123,-0.008728,0.01062,-0.991699,0.251389,0.508702,-0.207328,52,270,582,5872
1644177005.746705,-0.007629,0.009216,-0.992981,0.297191,0.417099,-0.161527,48,266,578,5872
1644177005.796761,-0.00769,0.012634,-0.991882,0.297191,0.386565,-0.268397,48,266,580,5888
1644177005.88885,-0.006104,0.012573,-0.991577,0.098718,0.447634,-0.207328,52,273,584,5840
1644177005.937202,-0.009521,0.008423,-0.992188,0.342992,0.371298,-0.115725,40,268,586,5840
1644177005.985587,-0.009338,0.00592,-0.991638,0.220855,0.325496,-0.085191,34,271,583,5872
1644177006.033996,-0.007446,0.013855,-0.992981,0.327725,0.508702,-0.024122,38,265,582,5824
1644177006.082508,-0.007996,0.010193,-0.995239,0.068183,0.478168,-0.192061,59,273,591,5824
1644177006.130792,-0.010437,0.011963,-0.994324,0.297191,0.386565,-0.085191,58,266,576,5840
1644177006.179123,-0.00824,0.009399,-0.989746,0.281924,0.401832,-0.069924,51,276,587,5872
1644177006.227514,-0.007812,0.010193,-0.993835,0.312458,0.279695,-0.039389,48,271,583,5872
1644177006.275888,-0.007812,0.009888,-0.990601,0.129252,0.432366,-0.039389,53,279,585,5872
1644177006.324311,-0.007935,0.008484,-0.989563,0.297191,0.325496,0.021679,39,283,592,5872
1644177006.372711,-0.008545,0.009644,-0.993958,0.266656,0.340763,-0.176794,57,268,586,5872
1644177006.421086,-0.010254,0.009827,-0.990051,0.327725,0.417099,-0.192061,59,285,579,5872
1644177006.469479,-0.008423,0.012146,-0.989868,0.205588,0.478168,0.006412,53,281,590,5872
1644177006.517868,-0.007935,0.009827,-0.990479,0.404061,0.371298,0.067481,55,279,580,5872
1644177006.566254,-0.007141,0.008545,-0.991394,0.297191,0.340763,-0.176794,43,281,599,5824
1644177006.614655,-0.010071,0.007996,-0.990967,0.373527,0.478168,-0.130992,49,275,577,5840
1644177006.663053,-0.011597,0.008179,-0.992432,0.297191,0.432366,-0.054656,48,281,590,5872
1644177006.711421,-0.009949,0.007812,-0.993103,0.113985,0.386565,-0.039389,41,276,583,5872
1644177006.760082,-0.009949,0.008911,-0.990845,0.068183,0.417099,-0.069924,51,279,583,5872
1644177006.808856,-0.009033,0.011047,-0.990051,0.190321,0.279695,-0.192061,48,271,580,5824
1644177006.859529,-0.008728,0.007446,-0.989319,0.068183,0.340763,0.006412,45,280,586,5888
1644177006.910618,-0.012695,0.008789,-0.992371,0.190321,0.554504,-0.039389,47,277,584,5888
1644177006.954898,-0.009399,0.011047,-0.993652,0.266656,0.539237,-0.14626,39,279,583,5824
1644177007.059786,-0.00824,0.009033,-0.993652,0.144519,0.386565,-0.039389,48,279,590,5888
1644177007.099567,-0.008789,0.009583,-0.991028,0.281924,0.417099,0.067481,48,271,592,5872
1644177007.146966,-0.008423,0.009644,-0.992859,0.205588,0.432366,0.036947,43,269,585,5872
1644177007.195342,-0.008728,0.009338,-0.991333,0.35826,0.340763,-0.024122,45,280,591,5888
1644177007.243742,-0.01062,0.011475,-0.990967,0.052916,0.340763,-0.25313,46,276,585,5840
1644177007.292219,-0.008667,0.010681,-0.991455,0.205588,0.417099,-0.069924,52,277,584,5824
1644177007.340487,-0.007874,0.012512,-0.990112,0.266656,0.661374,-0.039389,48,276,590,5872
1644177007.388908,-0.00824,0.007202,-0.993042,0.251389,0.401832,-0.14626,40,273,591,5776
1644177007.437301,-0.00769,0.010986,-0.991516,0.159786,0.24916,-0.222595,52,285,589,5808
1644177007.485697,-0.009521,0.009338,-0.990662,0.236122,0.264427,-0.130992,39,269,594,5872
1644177007.534093,-0.006409,0.008179,-0.991821,0.312458,0.508702,0.021679,43,274,597,5824
1644177007.582488,-0.011047,0.00769,-0.99292,0.220855,0.432366,-0.115725,46,279,578,5840
1644177007.630856,-0.006348,0.009216,-0.991272,0.236122,0.371298,-0.115725,46,271,583,5904
1644177007.679261,-0.009888,0.009338,-0.991455,0.068183,0.356031,-0.039389,49,273,575,5888
1644177007.727988,-0.005737,0.011597,-0.987854,0.251389,0.432366,-0.085191,54,265,577,5888
1644177007.778349,-0.009827,0.006592,-0.992065,0.297191,0.371298,-0.115725,45,273,586,5840
1644177007.82847,-0.011902,0.00946,-0.993591,0.35826,0.371298,-0.054656,51,271,594,5872
1644177007.873511,-0.009277,0.009888,-0.992126,0.297191,0.340763,-0.069924,46,271,590,5872
1644177007.969635,-0.009827,0.008789,-0.989502,0.266656,0.508702,0.067481,57,275,584,5872
1644177008.018031,-0.009827,0.010193,-0.991028,0.129252,0.432366,-0.237863,52,273,584,5840
1644177008.069606,-0.008545,0.011292,-0.992676,0.220855,0.325496,-0.024122,49,277,589,5840
1644177008.114788,-0.008545,0.010864,-0.991028,0.205588,0.432366,-0.130992,52,282,584,5872
1644177008.163167,-0.008362,0.013306,-0.990479,0.205588,0.325496,-0.115725,53,274,585,5840
1644177008.211564,-0.007263,0.010376,-0.991516,0.281924,0.279695,-0.207328,36,271,583,5888
1644177008.259968,-0.009583,0.01123,-0.992065,0.08345,0.447634,-0.222595,48,271,580,5840
1644177008.308327,-0.008606,0.00946,-0.992615,0.144519,0.447634,-0.192061,48,269,585,5904
1644177008.356742,-0.009583,0.011047,-0.991699,0.052916,0.340763,0.006412,43,269,585,5872
1644177008.405226,-0.009521,0.012146,-0.991821,0.251389,0.371298,0.006412,46,269,587,5808
1644177008.453539,-0.008545,0.011536,-0.991028,0.327725,0.386565,-0.176794,46,269,592,5824
1644177008.501919,-0.010254,0.012878,-0.991028,0.388794,0.340763,-0.039389,49,277,582,5888
1644177008.550304,-0.007874,0.008667,-0.991211,0.205588,0.356031,-0.085191,52,280,596,5888
1644177008.598654,-0.007446,0.01123,-0.989014,0.236122,0.539237,-0.024122,49,282,577,5872
1644177008.647075,-0.005371,0.012939,-0.991272,0.342992,0.447634,-0.085191,42,285,589,5840
1644177008.695479,-0.009277,0.011536,-0.991272,0.236122,0.569771,-0.130992,59,277,586,5824
1644177008.743878,-0.007751,0.011169,-0.993225,0.190321,0.523969,-0.237863,48,279,587,5840
1644177008.792435,-0.009949,0.013062,-0.992615,0.159786,0.356031,-0.390534,55,283,580,5776
1644177008.8407,-0.007385,0.009094,-0.992004,0.251389,0.371298,-0.039389,57,277,584,5840
1644177008.890006,-0.007751,0.010498,-0.989868,0.08345,0.508702,-0.161527,58,274,578,5840
1644177008.940341,-0.007751,0.008057,-0.991638,0.35826,0.310229,-0.069924,47,270,589,5872
1644177008.991748,-0.010742,0.011658,-0.990112,0.297191,0.478168,-0.176794,48,276,597,5776
1644177009.035344,-0.009216,0.007751,-0.991699,0.281924,0.523969,-0.085191,52,260,577,5840
1644177009.130986,-0.009888,0.011963,-0.992126,0.281924,0.371298,0.036947,51,274,590,5872
1644177009.179392,-0.006592,0.010925,-0.989929,0.236122,0.478168,-0.024122,43,274,585,5840
1644177009.22775,-0.009338,0.009216,-0.992859,0.175053,0.371298,-0.161527,55,276,590,5840
1644177009.276158,-0.007446,0.010071,-0.990601,0.220855,0.493435,0.021679,55,271,578,5872
1644177009.324607,-0.007751,0.009155,-0.991638,0.236122,0.24916,-0.14626,48,283,587,5872
1644177009.372969,-0.010864,0.010254,-0.990479,0.129252,0.401832,-0.115725,47,280,589,5936
1644177009.421353,-0.009521,0.009521,-0.99231,0.190321,0.401832,0.021679,51,274,590,5840
1644177009.469747,-0.008728,0.008118,-0.988953,0.129252,0.493435,-0.268397,52,268,596,5872
1644177009.518139,-0.008606,0.008728,-0.99292,0.205588,0.294962,-0.192061,51,266,592,5840
1644177009.566523,-0.010742,0.009277,-0.99054,0.251389,0.386565,0.006412,46,274,583,5888
1644177009.614927,-0.010986,0.011597,-0.992249,0.312458,0.447634,-0.207328,49,280,575,5808
1644177009.663314,-0.008179,0.013489,-0.99115,0.205588,0.432366,-0.14626,46,274,576,5904
1644177009.711697,-0.009827,0.009583,-0.992249,0.098718,0.386565,-0.207328,51,283,599,5776
1644177009.760061,-0.010559,0.011108,-0.993652,0.281924,0.417099,-0.237863,49,263,575,5824
1644177009.808528,-0.008423,0.009399,-0.991333,0.266656,0.417099,0.036947,52,275,582,5872
1644177009.856881,-0.010864,0.006714,-0.990967,0.342992,0.615573,-0.176794,45,277,586,5776
1644177009.905303,-0.008789,0.010254,-0.991028,0.236122,0.310229,-0.130992,53,269,580,5888
1644177009.953915,-0.009766,0.011169,-0.989929,0.251389,0.401832,-0.024122,57,275,586,5840
1644177010.002071,-0.009888,0.011169,-0.990967,0.419328,0.432366,-0.176794,49,275,596,5808
1644177010.070716,-0.00946,0.014954,-0.991272,0.35826,0.401832,-0.130992,49,277,582,5872
1644177010.101533,-0.007935,0.009705,-0.990234,0.281924,0.432366,-0.25313,53,288,599,5888
1644177010.151767,-0.006226,0.013489,-0.994019,0.297191,0.493435,-0.115725,48,286,580,5808
1644177010.196776,-0.010681,0.009094,-0.989136,0.098718,0.203359,-0.039389,45,277,589,5872
1644177010.292408,-0.009033,0.009583,-0.990295,0.175053,0.493435,-0.008855,49,268,575,5808
1644177010.340798,-0.009949,0.00769,-0.992249,0.175053,0.523969,-0.054656,43,279,587,5936
1644177010.389179,-0.00708,0.010376,-0.991272,0.35826,0.401832,-0.100458,57,275,579,5760
1644177010.437558,-0.009094,0.011841,-0.994202,0.281924,0.371298,-0.024122,41,281,580,5824
1644177010.485934,-0.007874,0.009277,-0.993469,0.236122,0.356031,-0.008855,43,271,587,5872
1644177010.534348,-0.007812,0.008057,-0.995178,0.281924,0.569771,-0.024122,46,276,580,5872
1644177010.582762,-0.00946,0.010681,-0.991821,0.281924,0.417099,-0.024122,52,277,586,5872
1644177010.631129,-0.012207,0.00885,-0.994019,0.129252,0.462901,-0.069924,54,280,584,5904
1644177010.679529,-0.011902,0.012451,-0.992676,0.312458,0.447634,0.021679,53,274,585,5872
1644177010.727917,-0.010925,0.009338,-0.991394,0.251389,0.432366,-0.100458,48,286,592,5872
1644177010.776309,-0.010254,0.009338,-0.994751,0.190321,0.417099,-0.176794,48,274,585,5872
1644177010.824787,-0.009521,0.009094,-0.993103,0.251389,0.447634,-0.024122,60,266,583,5872
1644177010.873151,-0.009705,0.009644,-0.991028,0.404061,0.493435,-0.054656,42,275,584,5872
1644177010.921529,-0.008118,0.010925,-0.992737,0.159786,0.325496,-0.039389,47,275,577,5888
1644177010.969924,-0.005554,0.011536,-0.99115,0.129252,0.432366,-0.054656,48,274,590,5936
1644177011.018301,-0.008728,0.007629,-0.989624,0.266656,0.478168,-0.130992,45,277,582,5840
1644177011.094438,-0.006714,0.008057,-0.99176,0.205588,0.417099,-0.115725,53,271,578,5840
1644177011.116446,-0.011719,0.010315,-0.989746,0.342992,0.340763,-0.069924,52,277,589,5824
1644177011.211824,-0.010315,0.012512,-0.991882,0.251389,0.615573,-0.237863,51,276,592,5872
1644177011.260206,-0.008179,0.009155,-0.991211,0.281924,0.356031,0.067481,42,268,582,5872
1644177011.308593,-0.008789,0.008545,-0.993286,0.373527,0.600305,-0.024122,52,275,582,5872
1644177011.356998,-0.005859,0.008484,-0.989563,0.159786,0.356031,-0.115725,60,271,590,5872
1644177011.405393,-0.008606,0.012634,-0.991455,0.144519,0.432366,-0.176794,62,271,580,5840
1644177011.453801,-0.006409,0.010437,-0.993286,0.281924,0.432366,-0.176794,47,277,584,5840
1644177011.502381,-0.008118,0.007629,-0.993164,0.236122,0.417099,-0.14626,48,271,585,5936
1644177011.55056,-0.01178,0.007019,-0.992493,0.312458,0.417099,-0.054656,57,270,589,5840
1644177011.598964,-0.008972,0.011536,-0.990051,0.144519,0.401832,-0.115725,55,279,580,5872
1644177011.647355,-0.009338,0.008667,-0.994019,0.159786,0.401832,-0.130992,60,274,590,5888
1644177011.695755,-0.007202,0.011963,-0.99353,0.266656,0.432366,0.052214,42,282,579,5840
1644177011.744144,-0.011902,0.009155,-0.991699,0.220855,0.233893,-0.222595,45,275,591,5840
1644177011.792552,-0.007507,0.007568,-0.993713,0.266656,0.478168,-0.115725,51,286,583,5888
1644177011.840963,-0.008423,0.009827,-0.988647,0.205588,0.386565,-0.130992,47,277,584,5888
1644177011.889354,-0.008484,0.008911,-0.992737,0.190321,0.401832,-0.039389,47,282,589,5840
1644177011.937749,-0.010315,0.013245,-0.99176,0.175053,0.432366,-0.039389,40,282,589,5904
1644177011.986131,-0.010437,0.010254,-0.992554,0.297191,0.325496,-0.222595,57,275,589,5888
1644177012.034802,-0.008301,0.010498,-0.991028,0.220855,0.417099,0.006412,41,271,585,5872
1644177012.083309,-0.007629,0.007874,-0.992371,0.419328,0.401832,-0.161527,43,274,580,5904
1644177012.132528,-0.008911,0.011414,-0.992188,0.037649,0.447634,-0.008855,45,270,586,5888
1644177012.181921,-0.008118,0.008484,-0.989502,0.175053,0.478168,0.067481,51,281,583,5840
1644177012.232374,-0.010193,0.01062,-0.994324,0.236122,0.356031,-0.008855,54,280,589,5888
1644177012.277302,-0.008179,0.011047,-0.989929,0.266656,0.432366,-0.054656,41,274,583,5888
1644177012.37324,-0.008301,0.010254,-0.992615,0.266656,0.294962,-0.192061,47,268,579,5888
1644177012.421618,-0.006714,0.012451,-0.992676,0.175053,0.462901,-0.039389,59,273,591,5872
1644177012.469996,-0.01001,0.013733,-0.990417,0.388794,0.310229,-0.008855,46,281,590,5872
1644177012.518389,-0.007507,0.009583,-0.993042,0.327725,0.264427,-0.085191,42,273,579,5872
1644177012.566777,-0.008057,0.006226,-0.991333,0.266656,0.356031,0.036947,51,274,587,5824
1644177012.61517,-0.012573,0.009338,-0.992615,0.236122,0.417099,-0.054656,59,275,579,5872
1644177012.663577,-0.009583,0.010315,-0.989197,0.312458,0.310229,-0.115725,45,275,591,5824
1644177012.71197,-0.00769,0.010254,-0.991394,0.220855,0.401832,-0.130992,52,275,589,5888
1644177012.760357,-0.009888,0.009888,-0.991577,0.35826,0.386565,-0.008855,53,281,585,5872
1644177012.808766,-0.010803,0.009827,-0.990784,0.327725,0.371298,-0.161527,43,281,585,5824
1644177012.857176,-0.007385,0.01001,-0.991333,0.236122,0.356031,-0.100458,49,268,589,5824
1644177012.905575,-0.00946,0.009583,-0.993042,0.190321,0.356031,-0.176794,51,269,585,5936
1644177012.953976,-0.008301,0.010376,-0.989685,0.144519,0.24916,-0.054656,47,280,582,5888
1644177013.002391,-0.007629,0.013428,-0.98999,0.312458,0.325496,-0.008855,51,276,583,5872
1644177013.061263,-0.008972,0.009827,-0.992676,0.220855,0.539237,-0.130992,45,282,589,5888
1644177013.102852,-0.009521,0.010315,-0.989258,0.129252,0.462901,0.098015,51,274,597,5872
1644177013.147486,-0.008301,0.009888,-0.99115,0.236122,0.386565,-0.054656,41,271,583,5872
1644177013.195882,-0.007446,0.011536,-0.991089,0.220855,0.310229,-0.024122,53,274,587,5904
1644177013.244271,-0.007324,0.010254,-0.990967,0.297191,0.478168,-0.069924,53,274,592,5872
1644177013.292992,-0.009766,0.01001,-0.99231,0.205588,0.417099,-0.008855,46,271,573,5888
1644177013.343529,-0.010986,0.009766,-0.992371,0.35826,0.554504,-0.115725,48,276,580,5824
1644177013.393807,-0.008484,0.009094,-0.988831,0.205588,0.401832,-0.024122,58,279,587,5888
1644177013.438799,-0.00708,0.009399,-0.991821,0.220855,0.539237,0.036947,46,274,580,5808
1644177013.534829,-0.009888,0.01062,-0.992004,0.342992,0.264427,-0.085191,40,277,579,5824
1644177013.583022,-0.009521,0.010193,-0.992493,0.251389,0.417099,-0.100458,49,275,582,5872
1644177013.631398,-0.012268,0.008362,-0.992371,0.190321,0.386565,-0.024122,42,280,586,5888
1644177013.679776,-0.006958,0.010254,-0.990662,0.144519,0.371298,-0.115725,49,277,582,5872
1644177013.728165,-0.009216,0.009949,-0.991272,0.342992,0.523969,0.036947,58,291,569,5872
1644177013.776563,-0.008911,0.009399,-0.990906,0.236122,0.325496,-0.039389,46,279,578,5840
1644177013.825012,-0.009705,0.009888,-0.992126,0.297191,0.371298,-0.115725,51,283,587,5872
1644177013.873408,-0.010132,0.009399,-0.991272,0.266656,0.569771,-0.130992,55,269,587,5824
1644177013.921799,-0.009277,0.009949,-0.992126,0.190321,0.478168,-0.054656,45,277,589,5840
1644177013.970173,-0.007263,0.009583,-0.988464,0.327725,0.447634,0.006412,46,271,592,5840
1644177014.018572,-0.009399,0.008301,-0.994629,0.297191,0.356031,-0.054656,46,271,592,5872
1644177014.072897,-0.009888,0.008362,-0.991089,0.190321,0.264427,-0.130992,36,269,592,5872
1644177014.115367,-0.007751,0.011292,-0.992432,0.327725,0.356031,0.006412,52,275,589,5872
1644177014.163715,-0.01062,0.010315,-0.991516,0.297191,0.462901,-0.14626,42,273,589,5840
1644177014.212147,-0.008118,0.008789,-0.990173,0.236122,0.462901,-0.115725,55,283,585,5808
1644177014.260573,-0.008972,0.010803,-0.993286,0.190321,0.523969,-0.130992,48,274,587,5840
1644177014.308859,-0.00885,0.013,-0.990356,0.312458,0.417099,0.067481,41,274,594,5936
1644177014.357242,-0.008911,0.012634,-0.992554,0.281924,0.523969,-0.008855,41,271,578,5760
1644177014.405878,-0.00708,0.011841,-0.988708,0.205588,0.371298,-0.100458,49,268,579,5872
1644177014.454928,-0.00769,0.011292,-0.987793,0.327725,0.447634,-0.085191,47,270,579,5872
1644177014.505186,-0.007751,0.009277,-0.990112,0.297191,0.554504,-0.069924,49,268,584,5824
1644177014.555325,-0.009216,0.009705,-0.990417,0.404061,0.401832,-0.008855,64,263,582,5840
1644177014.600397,-0.007874,0.011292,-0.991577,0.35826,0.447634,-0.207328,47,275,586,5872
1644177014.695983,-0.009033,0.009094,-0.993896,0.266656,0.432366,-0.085191,45,275,593,5872
1644177014.744409,-0.008789,0.011841,-0.990662,0.251389,0.340763,-0.222595,55,269,583,5872
1644177014.7928,-0.009277,0.012024,-0.990601,0.205588,0.478168,-0.14626,48,281,587,5824
1644177014.841187,-0.010132,0.011536,-0.989807,0.312458,0.386565,-0.069924,52,273,586,5872
1644177014.889614,-0.009033,0.00946,-0.989563,0.251389,0.233893,-0.054656,53,274,578,5872
1644177014.937992,-0.010681,0.01123,-0.989624,0.205588,0.356031,-0.100458,43,274,583,5824
1644177014.986389,-0.010925,0.008301,-0.99292,0.266656,0.417099,-0.069924,53,279,578,5872
1644177015.034801,-0.009216,0.011108,-0.989563,0.144519,0.508702,0.006412,49,275,586,5872
1644177015.09114,-0.009583,0.00885,-0.988953,0.068183,0.356031,-0.115725,47,277,586,5824
1644177015.131585,-0.008667,0.014099,-0.987915,0.175053,0.417099,-0.192061,43,276,592,5872
1644177015.179923,-0.007568,0.008606,-0.991516,0.220855,0.462901,-0.14626,49,273,589,5824
1644177015.228309,-0.009644,0.010681,-0.991333,0.190321,0.432366,-0.054656,46,279,580,5952
1644177015.276706,-0.007996,0.012512,-0.991943,0.220855,0.340763,-0.008855,55,269,585,5824
1644177015.325134,-0.007568,0.011047,-0.993713,0.266656,0.508702,-0.192061,54,277,584,5888
1644177015.373682,-0.007874,0.009583,-0.993286,0.220855,0.24916,-0.008855,47,275,582,5872
1644177015.421893,-0.006714,0.012512,-0.991882,0.373527,0.462901,0.174351,51,279,583,5872
1644177015.47205,-0.009888,0.010925,-0.992249,0.190321,0.325496,0.052214,47,280,589,5888
1644177015.522458,-0.009033,0.010559,-0.991699,0.159786,0.615573,-0.085191,51,279,590,5808
1644177015.567577,-0.008179,0.012573,-0.992676,0.190321,0.371298,-0.054656,45,270,584,5872
1644177015.663848,-0.008362,0.010803,-0.991333,0.266656,0.264427,-0.161527,48,276,587,5808
1644177015.712383,-0.009521,0.010071,-0.988708,0.190321,0.371298,0.098015,47,263,593,5872
1644177015.760598,-0.009521,0.012024,-0.991211,0.205588,0.462901,-0.069924,51,283,583,5840
1644177015.809,-0.007996,0.011597,-0.990906,0.190321,0.493435,-0.100458,57,277,589,5872
1644177015.857399,-0.009705,0.010254,-0.99176,0.342992,0.386565,0.12855,40,277,589,5872
1644177015.905822,-0.009155,0.010986,-0.992432,0.098718,0.325496,-0.100458,57,270,579,5840
1644177015.95422,-0.011169,0.010742,-0.993958,0.373527,0.340763,-0.100458,57,277,593,5888
1644177016.002604,-0.008484,0.010925,-0.990479,0.129252,0.508702,-0.085191,49,263,591,5904
1644177016.066722,-0.008606,0.010498,-0.988953,0.297191,0.432366,-0.069924,53,274,590,5872
1644177016.102331,-0.00885,0.009827,-0.991211,0.312458,0.493435,-0.176794,45,287,586,5824
1644177016.14776,-0.00946,0.009827,-0.990662,0.327725,0.493435,0.067481,49,270,584,5872
1644177016.196189,-0.008484,0.008606,-0.992493,0.205588,0.371298,-0.069924,49,280,589,5840
1644177016.244621,-0.006897,0.008362,-0.990662,0.251389,0.371298,0.036947,46,286,592,5808
1644177016.292982,-0.007385,0.010681,-0.990662,0.220855,0.401832,-0.161527,59,282,586,5776
1644177016.341355,-0.007446,0.008606,-0.990906,0.022382,0.24916,0.006412,54,277,582,5872
1644177016.389711,-0.008911,0.010254,-0.98999,0.266656,0.523969,-0.130992,45,273,593,5824
1644177016.438129,-0.008545,0.009216,-0.989807,0.220855,0.264427,-0.222595,48,281,590,5904
1644177016.486877,-0.011475,0.011536,-0.989197,0.144519,0.478168,-0.008855,47,277,579,5872
1644177016.534965,-0.010193,0.007141,-0.990051,0.281924,0.401832,-0.176794,47,277,579,5872
1644177016.585268,-0.006409,0.010681,-0.992126,0.251389,0.417099,0.006412,46,266,583,5904
1644177016.635575,-0.007385,0.00946,-0.989685,0.236122,0.432366,-0.192061,38,280,579,5824
1644177016.685807,-0.007874,0.013611,-0.992798,0.312458,0.432366,-0.039389,54,277,589,5872
1644177016.776887,-0.006287,0.010559,-0.993591,0.190321,0.600305,-0.069924,46,274,576,5872
1644177016.825457,-0.005798,0.011292,-0.992065,0.159786,0.462901,-0.130992,48,269,592,5840
1644177016.873657,-0.007874,0.009705,-0.990051,0.342992,0.386565,-0.115725,52,282,591,5872
1644177016.922022,-0.009033,0.011169,-0.990173,0.297191,0.615573,0.006412,57,270,584,5888
1644177016.970435,-0.007935,0.009644,-0.989014,0.342992,0.539237,-0.024122,36,271,578,5808
1644177017.018875,-0.009338,0.012207,-0.991455,0.175053,0.508702,-0.039389,60,281,590,5872
1644177017.069108,-0.009521,0.009155,-0.990295,0.098718,0.401832,-0.069924,48,274,583,5872
1644177017.115575,-0.009705,0.010925,-0.990662,0.113985,0.462901,-0.024122,46,274,587,5776
1644177017.163973,-0.009399,0.008972,-0.991272,0.236122,0.386565,-0.115725,48,281,590,5872
1644177017.212373,-0.008423,0.00946,-0.994385,0.159786,0.325496,-0.054656,57,275,586,5888
1644177017.260752,-0.007141,0.011353,-0.989136,0.281924,0.371298,-0.069924,45,275,584,5840
1644177017.309115,-0.007568,0.010681,-0.990906,0.098718,0.493435,-0.207328,49,275,582,5872
1644177017.357516,-0.008545,0.007996,-0.991699,0.281924,0.401832,-0.207328,47,270,589,5872
1644177017.405913,-0.011963,0.010437,-0.98999,0.35826,0.569771,-0.207328,38,287,586,5872
1644177017.454315,-0.009766,0.008423,-0.99115,0.098718,0.447634,-0.14626,58,269,583,5872
1644177017.502688,-0.007263,0.009644,-0.993286,0.35826,0.462901,-0.176794,61,273,584,5872
1644177017.551099,-0.013,0.00885,-0.993042,0.190321,0.447634,-0.130992,57,275,591,5808
1644177017.599485,-0.009949,0.011841,-0.991455,0.281924,0.508702,-0.115725,52,282,584,5872
1644177017.647941,-0.00647,0.010681,-0.990906,0.251389,0.279695,-0.054656,53,269,583,5824
1644177017.69637,-0.006836,0.008911,-0.994751,0.312458,0.340763,-0.130992,46,271,578,5824
1644177017.746786,-0.00769,0.006409,-0.993042,0.251389,0.386565,-0.069924,55,271,583,5808
1644177017.797292,-0.008362,0.00946,-0.991272,0.251389,0.508702,-0.085191,46,274,585,5872
1644177017.842479,-0.006897,0.010254,-0.990112,0.327725,0.432366,-0.024122,48,274,587,5808
1644177017.93826,-0.009094,0.007935,-0.991882,0.129252,0.356031,-0.054656,54,275,579,5888
1644177017.986659,-0.011719,0.008301,-0.991577,0.236122,0.401832,0.082748,40,280,589,5840
1644177018.035102,-0.00592,0.008789,-0.993164,0.312458,0.371298,-0.115725,49,280,584,5888
1644177018.083603,-0.007141,0.009155,-0.991699,0.205588,0.447634,-0.024122,46,274,583,5840
1644177018.131816,-0.006958,0.012085,-0.990417,0.144519,0.539237,-0.130992,47,270,589,5808
1644177018.180189,-0.010132,0.012085,-0.991455,0.327725,0.462901,-0.130992,49,265,584,5872
1644177018.228573,-0.008179,0.014282,-0.991089,0.159786,0.340763,-0.130992,43,276,580,5888
1644177018.276956,-0.008728,0.007019,-0.989929,0.327725,0.356031,-0.008855,46,279,585,5872
1644177018.325352,-0.009949,0.01062,-0.990662,0.113985,0.264427,-0.085191,41,274,590,5840
1644177018.373757,-0.008667,0.012024,-0.995117,0.175053,0.371298,-0.100458,46,264,585,5872
1644177018.422218,-0.009094,0.008545,-0.992126,0.022382,0.432366,-0.024122,47,270,579,5760
1644177018.470505,-0.00946,0.008301,-0.991638,0.251389,0.508702,-0.115725,46,276,578,5840
1644177018.518927,-0.006958,0.008606,-0.993103,0.175053,0.493435,-0.008855,51,271,580,5840
1644177018.567324,-0.00885,0.008667,-0.988586,0.220855,0.478168,-0.130992,53,279,578,5872
1644177018.615712,-0.010193,0.012268,-0.991821,0.113985,0.371298,-0.130992,51,271,590,5808
1644177018.664101,-0.010986,0.010376,-0.991394,0.281924,0.417099,-0.130992,45,275,589,5776
1644177018.712514,-0.008606,0.013733,-0.991333,0.098718,0.447634,-0.100458,54,275,593,5840
1644177018.760888,-0.006775,0.008118,-0.991272,0.022382,0.417099,0.082748,57,265,593,5872
1644177018.809328,-0.009521,0.010315,-0.99292,0.297191,0.371298,0.067481,48,283,585,5872
1644177018.859133,-0.007996,0.008545,-0.989807,0.297191,0.356031,0.006412,43,286,585,5872
1644177018.908855,-0.00647,0.009521,-0.990356,0.297191,0.310229,-0.069924,41,271,583,5872
1644177018.959201,-0.007446,0.006592,-0.993347,0.236122,0.569771,0.021679,57,282,586,5888
1644177019.066686,-0.007507,0.011536,-0.990845,0.144519,0.493435,-0.085191,47,277,591,5872
1644177019.101833,-0.008545,0.009827,-0.992065,0.190321,0.417099,-0.25313,57,277,586,5872
1644177019.14802,-0.009277,0.013367,-0.987671,0.297191,0.310229,-0.115725,39,266,592,5840
1644177019.196414,-0.010681,0.009827,-0.992188,0.159786,0.417099,-0.069924,43,271,583,5872
1644177019.244808,-0.006104,0.008789,-0.993042,0.373527,0.417099,0.067481,48,276,592,5808
1644177019.293197,-0.008423,0.010803,-0.990723,0.236122,0.356031,-0.130992,45,277,596,5808
1644177019.341557,-0.009521,0.011108,-0.992554,0.205588,0.447634,-0.069924,49,275,584,5872
1644177019.389962,-0.010864,0.009521,-0.993225,0.220855,0.523969,-0.085191,40,277,591,5888
1644177019.438362,-0.011536,0.013306,-0.990601,0.205588,0.386565,-0.176794,49,270,591,5840
1644177019.48676,-0.009705,0.009338,-0.988953,0.205588,0.310229,-0.176794,53,266,587,5808
1644177019.53518,-0.009338,0.008972,-0.990295,0.236122,0.294962,-0.100458,40,268,582,5888
1644177019.583655,-0.00824,0.010864,-0.991882,0.251389,0.508702,-0.192061,49,270,589,5808
1644177019.633743,-0.007263,0.010132,-0.991333,0.159786,0.432366,-0.130992,49,268,586,5824
1644177019.68385,-0.007874,0.009216,-0.990967,0.220855,0.417099,0.021679,55,279,578,5904
1644177019.728887,-0.009399,0.009949,-0.991821,0.144519,0.447634,-0.039389,42,275,582,5824
1644177019.82551,-0.011963,0.009583,-0.988892,0.159786,0.508702,0.036947,47,268,582,5840
1644177019.873926,-0.00885,0.010437,-0.991699,0.251389,0.508702,-0.161527,51,271,590,5904
1644177019.922407,-0.006226,0.007874,-0.989258,0.404061,0.478168,-0.130992,51,264,578,5872
1644177019.970718,-0.010559,0.011047,-0.993408,0.281924,0.478168,-0.008855,43,266,578,5872
1644177020.01907,-0.009094,0.009949,-0.992432,-0.008153,0.371298,-0.176794,47,277,593,5840
1644177020.069801,-0.008423,0.010864,-0.990112,0.297191,0.523969,-0.024122,46,274,587,5824
1644177020.115863,-0.006409,0.009644,-0.99353,0.281924,0.63084,-0.069924,60,271,580,5888
1644177020.16424,-0.011536,0.008179,-0.993774,0.205588,0.310229,-0.085191,42,273,584,5872
1644177020.212644,-0.008179,0.009705,-0.99292,0.419328,0.554504,-0.039389,41,274,587,5872
1644177020.261023,-0.008301,0.010437,-0.993835,0.068183,0.462901,-0.222595,49,275,586,5872
1644177020.30938,-0.005005,0.010254,-0.990662,0.266656,0.417099,0.082748,52,275,596,5888
1644177020.357795,-0.006348,0.008911,-0.99054,0.342992,0.340763,-0.161527,53,276,578,5872
1644177020.406192,-0.009827,0.013916,-0.992981,0.205588,0.401832,-0.14626,47,277,582,5872
1644177020.454705,-0.010193,0.009705,-0.991699,0.236122,0.325496,-0.176794,40,282,584,5872
1644177020.502994,-0.007446,0.00946,-0.991699,0.388794,0.432366,-0.085191,57,275,582,5872
1644177020.551377,-0.009277,0.007263,-0.990723,0.297191,0.493435,0.036947,52,277,577,5904
1644177020.599774,-0.011414,0.007141,-0.991821,0.266656,0.447634,-0.100458,47,275,593,5888
1644177020.648156,-0.008972,0.010803,-0.990112,0.236122,0.279695,-0.069924,39,266,580,5872
1644177020.696542,-0.007751,0.012512,-0.989807,0.129252,0.340763,0.036947,51,269,592,5808
1644177020.745939,-0.00769,0.012024,-0.990417,0.266656,0.417099,-0.024122,54,279,592,5872
1644177020.796491,-0.008972,0.007202,-0.992004,0.236122,0.386565,-0.024122,41,274,585,5872
1644177020.846949,-0.003479,0.009888,-0.989502,0.281924,0.432366,0.021679,41,276,597,5888
1644177020.938573,-0.009338,0.010193,-0.99176,0.220855,0.233893,-0.14626,46,281,585,5888
1644177020.986976,-0.008545,0.010864,-0.991455,0.205588,0.417099,-0.085191,47,277,589,5888
1644177021.035419,-0.01001,0.009399,-0.991028,0.281924,0.508702,-0.207328,55,271,590,5904
1644177021.084977,-0.009094,0.01123,-0.992432,0.159786,0.447634,0.036947,53,281,585,5872
1644177021.132332,-0.008057,0.00824,-0.990112,0.113985,0.432366,0.021679,51,274,583,5840
1644177021.18055,-0.010498,0.010376,-0.992798,0.342992,0.386565,-0.054656,48,274,583,5776
1644177021.22882,-0.010864,0.008423,-0.991211,0.144519,0.462901,-0.054656,45,275,582,5840
1644177021.277214,-0.006226,0.010193,-0.990295,0.220855,0.340763,-0.14626,54,270,584,5872
1644177021.325603,-0.008545,0.007507,-0.991333,0.342992,0.356031,-0.130992,46,264,585,5840
1644177021.374015,-0.008911,0.010742,-0.991394,0.266656,0.356031,-0.115725,55,276,585,5872
1644177021.422383,-0.006287,0.008911,-0.990967,0.236122,0.401832,-0.085191,46,274,585,5840
1644177021.470804,-0.009277,0.008057,-0.990723,0.449863,0.340763,-0.100458,48,281,583,5824
1644177021.519206,-0.006531,0.010559,-0.991333,0.281924,0.432366,-0.176794,47,275,591,5824
1644177021.567595,-0.008606,0.009216,-0.992737,0.388794,0.356031,-0.069924,47,280,577,5840
1644177021.615941,-0.012024,0.007812,-0.993896,0.266656,0.371298,-0.069924,51,274,580,5888
1644177021.664379,-0.009521,0.011108,-0.993225,0.190321,0.447634,-0.085191,55,274,585,5888
1644177021.712778,-0.009216,0.012634,-0.990906,0.312458,0.462901,-0.100458,55,279,592,5872
1644177021.761583,-0.009277,0.008423,-0.990662,0.144519,0.478168,0.082748,51,281,580,5808
1644177021.809594,-0.008179,0.008484,-0.990356,0.175053,0.356031,-0.100458,51,271,590,5840
1644177021.859179,-0.008789,0.012878,-0.991943,0.236122,0.462901,-0.130992,55,274,587,5888
1644177021.909376,-0.00885,0.009583,-0.992004,0.281924,0.401832,-0.069924,65,276,585,5776
1644177021.959761,-0.007996,0.010315,-0.992554,0.144519,0.356031,-0.222595,59,277,579,5824
1644177022.067802,-0.006104,0.008972,-0.989868,0.373527,0.462901,-0.054656,48,276,580,5872
1644177022.101836,-0.010925,0.007019,-0.992065,0.205588,0.386565,-0.25313,51,274,587,5888
1644177022.148322,-0.01001,0.008728,-0.991577,0.342992,0.401832,-0.130992,51,276,587,5872
1644177022.196676,-0.005615,0.008118,-0.994202,0.205588,0.279695,-0.100458,45,280,593,5840
1644177022.245238,-0.008118,0.009155,-0.98999,0.08345,0.24916,-0.054656,41,274,590,5904
1644177022.293462,-0.007446,0.011597,-0.992188,0.266656,0.432366,-0.039389,47,282,584,5872
1644177022.341849,-0.008545,0.009521,-0.988708,0.266656,0.401832,-0.039389,52,287,605,5840
1644177022.390235,-0.00824,0.009583,-0.992432,0.159786,0.401832,-0.039389,55,269,583,5824
1644177022.438633,-0.008545,0.01178,-0.989685,0.08345,0.371298,-0.130992,53,274,601,5824
1644177022.487019,-0.008728,0.00946,-0.991699,0.205588,0.539237,-0.115725,58,274,587,5840
1644177022.535471,-0.00769,0.011963,-0.99353,0.220855,0.386565,-0.14626,51,276,594,5904
1644177022.584213,-0.01001,0.009644,-0.988892,0.205588,0.539237,-0.283664,46,271,587,5872
1644177022.635185,-0.00592,0.009888,-0.990845,0.159786,0.462901,-0.054656,54,275,586,5824
1644177022.685653,-0.009155,0.010498,-0.991394,0.159786,0.478168,0.082748,48,271,590,5872
1644177022.729987,-0.00885,0.00885,-0.990723,0.098718,0.386565,-0.130992,53,279,587,5808
1644177022.825748,-0.007446,0.012634,-0.990906,0.266656,0.447634,-0.100458,49,282,591,5840
1644177022.874196,-0.006348,0.009705,-0.992126,0.220855,0.462901,-0.008855,54,275,593,5840
1644177022.922601,-0.008484,0.009583,-0.992432,0.251389,0.401832,0.021679,42,270,582,5888
1644177022.970976,-0.009766,0.010376,-0.992249,0.251389,0.371298,-0.192061,43,283,587,5888
1644177023.019376,-0.009399,0.007935,-0.991699,0.266656,0.417099,0.052214,45,280,579,5888
1644177023.068014,-0.009155,0.008118,-0.991089,0.281924,0.432366,-0.054656,55,274,601,5872
1644177023.116518,-0.011475,0.008606,-0.990967,0.236122,0.401832,-0.008855,58,281,597,5840
1644177023.164517,-0.009277,0.00885,-0.990356,0.251389,0.371298,-0.069924,43,286,587,5840
1644177023.212899,-0.008789,0.007324,-0.993225,0.266656,0.493435,-0.100458,46,274,585,5776
1644177023.261276,-0.010681,0.010132,-0.990906,0.220855,0.523969,-0.192061,52,270,591,5936
1644177023.309646,-0.010681,0.008972,-0.992432,0.327725,0.24916,-0.329466,46,281,580,5888
1644177023.358064,-0.012817,0.011108,-0.989502,0.175053,0.310229,-0.222595,52,275,589,5872
1644177023.406431,-0.00885,0.01001,-0.992615,0.159786,0.386565,-0.069924,51,279,585,5872
1644177023.454863,-0.009949,0.011353,-0.991028,0.205588,0.523969,-0.085191,58,276,585,5872
1644177023.503259,-0.012756,0.009949,-0.990112,0.312458,0.325496,-0.069924,48,266,580,5824
1644177023.551614,-0.007751,0.010437,-0.991455,0.266656,0.478168,-0.130992,47,277,586,5872
1644177023.600018,-0.00885,0.010376,-0.990356,0.281924,0.24916,-0.054656,45,282,584,5824
1644177023.648414,-0.009521,0.012085,-0.990845,0.159786,0.432366,-0.054656,48,271,583,5888
1644177023.696791,-0.011108,0.010864,-0.990295,0.113985,0.371298,-0.069924,52,277,586,5840
1644177023.746122,-0.009094,0.007629,-0.991455,0.281924,0.340763,0.052214,49,282,593,5840
1644177023.797205,-0.007874,0.009216,-0.990356,0.190321,0.508702,-0.085191,59,277,593,5888
1644177023.847395,-0.008667,0.013,-0.993835,0.297191,0.554504,-0.176794,54,277,572,5840
1644177023.938829,-0.006226,0.008118,-0.991028,0.08345,0.356031,-0.069924,45,280,582,5872
1644177023.987199,-0.010071,0.009705,-0.991821,0.220855,0.371298,0.021679,40,270,582,5840
1644177024.035579,-0.010193,0.010803,-0.99292,0.327725,0.447634,-0.085191,53,281,585,5936
1644177024.084097,-0.009705,0.011292,-0.987244,0.113985,0.371298,-0.054656,48,279,590,5872
1644177024.132329,-0.007202,0.011597,-0.992798,0.220855,0.356031,-0.222595,52,263,591,5808
1644177024.180719,-0.007019,0.010498,-0.99176,0.08345,0.401832,-0.069924,45,277,586,5808
1644177024.229109,-0.008362,0.00769,-0.994812,0.342992,0.401832,-0.054656,47,280,593,5872
1644177024.277488,-0.012512,0.008423,-0.990601,0.205588,0.447634,-0.085191,38,275,589,5872
1644177024.325889,-0.013,0.009888,-0.99353,0.144519,0.401832,-0.008855,45,270,584,5872
1644177024.37431,-0.008545,0.010193,-0.994141,0.052916,0.462901,-0.069924,46,274,592,5808
1644177024.422685,-0.009949,0.006348,-0.992493,0.175053,0.401832,-0.25313,47,260,586,5952
1644177024.471072,-0.007263,0.008606,-0.988708,0.220855,0.310229,-0.085191,46,264,587,5904
1644177024.519458,-0.009033,0.006958,-0.991943,0.144519,0.523969,0.021679,45,275,586,5872
1644177024.567835,-0.01178,0.011963,-0.991943,0.266656,0.325496,0.098015,43,266,580,5840
1644177024.616245,-0.007996,0.005981,-0.993591,0.297191,0.371298,-0.115725,46,274,597,5936
1644177024.664643,-0.009094,0.012573,-0.992188,0.251389,0.294962,-0.14626,53,266,587,5872
1644177024.713007,-0.009216,0.010742,-0.992126,0.205588,0.417099,-0.14626,47,275,591,5872
1644177024.761388,-0.009033,0.012268,-0.993835,0.266656,0.371298,-0.176794,51,274,585,5888
1644177024.810737,-0.01178,0.010437,-0.989746,0.327725,0.386565,0.006412,47,273,589,5888
1644177024.861553,-0.00824,0.010803,-0.989319,0.190321,0.325496,-0.130992,47,277,582,5888
1644177024.911998,-0.013367,0.009338,-0.992737,0.144519,0.340763,-0.024122,48,286,583,5872
1644177024.956619,-0.011597,0.009521,-0.99115,0.205588,0.508702,-0.115725,46,279,583,5808
1644177025.064052,-0.009521,0.009033,-0.994263,0.236122,0.417099,-0.039389,49,282,596,5872
1644177025.100247,-0.008484,0.010559,-0.991577,0.266656,0.325496,0.052214,48,271,583,5872
1644177025.148542,-0.009827,0.012207,-0.991943,0.281924,0.447634,-0.100458,47,273,591,5872
1644177025.196932,-0.009338,0.00824,-0.991455,0.327725,0.356031,-0.115725,48,281,590,5872
1644177025.245307,-0.008301,0.009338,-0.994812,0.068183,0.371298,-0.176794,53,274,585,5824
1644177025.293738,-0.010864,0.012207,-0.992737,0.281924,0.371298,-0.085191,48,271,597,5888
1644177025.342209,-0.01001,0.009338,-0.990967,0.220855,0.24916,0.036947,47,277,589,5872
1644177025.390515,-0.007019,0.00824,-0.993896,0.190321,0.417099,-0.054656,55,274,592,5872
1644177025.438866,-0.010986,0.013428,-0.992432,0.266656,0.600305,-0.069924,58,274,587,5872
1644177025.48728,-0.005798,0.011292,-0.990845,0.190321,0.432366,-0.024122,57,270,586,5888
1644177025.535679,-0.01062,0.011353,-0.993774,0.175053,0.386565,-0.024122,54,270,591,5872
1644177025.584048,-0.00946,0.009094,-0.992065,0.08345,0.356031,0.036947,45,280,589,5904
1644177025.632487,-0.010498,0.012024,-0.992371,0.404061,0.356031,-0.008855,45,282,591,5840
1644177025.682421,-0.010803,0.009766,-0.993042,0.35826,0.401832,0.036947,47,277,579,5872
1644177025.732679,-0.008423,0.010315,-0.994934,0.266656,0.356031,-0.024122,48,279,594,5904
1644177025.777682,-0.008789,0.008301,-0.991821,0.373527,0.356031,-0.008855,47,268,584,5904
1644177025.874492,-0.008545,0.00824,-0.993408,0.281924,0.462901,-0.024122,55,271,583,5888
1644177025.922861,-0.008728,0.008545,-0.990784,0.144519,0.447634,0.021679,59,270,584,5872
1644177025.971215,-0.007263,0.008911,-0.990967,0.129252,0.356031,-0.100458,52,280,586,5824
1644177026.019635,-0.009949,0.011047,-0.993042,0.08345,0.417099,-0.100458,53,271,580,5872
1644177026.070059,-0.010376,0.011414,-0.990601,0.35826,0.325496,-0.069924,46,271,594,5840
1644177026.116375,-0.013,0.010376,-0.992859,0.342992,0.417099,-0.024122,52,282,577,5888
1644177026.164771,-0.009766,0.008972,-0.991089,0.220855,0.310229,-0.14626,55,281,590,5872
1644177026.213171,-0.009644,0.012085,-0.990967,0.129252,0.401832,-0.024122,53,271,585,5904
1644177026.261549,-0.010071,0.012207,-0.990417,0.068183,0.523969,0.052214,58,279,580,5888
1644177026.309923,-0.009583,0.008606,-0.993896,0.312458,0.401832,-0.14626,45,268,589,5840
1644177026.358338,-0.006714,0.010864,-0.990845,0.190321,0.478168,-0.024122,46,271,590,5824
1644177026.406723,-0.009094,0.010315,-0.992859,0.327725,0.508702,-0.069924,47,275,586,5808
1644177026.455198,-0.006836,0.007324,-0.99115,0.129252,0.325496,-0.039389,42,280,593,5808
1644177026.503527,-0.010071,0.009033,-0.993652,0.419328,0.371298,0.021679,57,275,586,5872
1644177026.551901,-0.009155,0.008301,-0.995239,0.190321,0.417099,0.067481,47,270,593,5824
1644177026.60029,-0.010437,0.011475,-0.99469,0.297191,0.447634,-0.130992,52,268,591,5824
1644177026.648671,-0.008728,0.010254,-0.991272,0.190321,0.294962,0.036947,62,271,580,5888
1644177026.69707,-0.009827,0.011475,-0.990845,0.159786,0.386565,-0.100458,43,271,592,5808
1644177026.745522,-0.00885,0.007874,-0.991821,0.205588,0.371298,0.021679,45,273,589,5872
1644177026.793877,-0.009705,0.010986,-0.99231,0.35826,0.447634,-0.039389,54,265,582,5936
1644177026.84408,-0.006653,0.011047,-0.991028,0.068183,0.279695,-0.161527,55,266,583,5872
1644177026.895474,-0.008789,0.010071,-0.993835,0.220855,0.569771,-0.085191,57,275,582,5808
1644177026.939945,-0.008484,0.009644,-0.989807,0.052916,0.401832,-0.024122,52,277,582,5904
1644177027.035857,-0.008301,0.008545,-0.989319,0.236122,0.478168,-0.024122,51,279,578,5840
1644177027.08784,-0.010925,0.010193,-0.991638,0.251389,0.417099,-0.130992,52,275,582,5824
1644177027.132631,-0.009766,0.013062,-0.987183,0.419328,0.401832,-0.130992,47,275,575,5824
1644177027.180973,-0.007141,0.010681,-0.994202,0.266656,0.432366,-0.100458,59,270,582,5888
1644177027.229374,-0.008972,0.012512,-0.989014,0.08345,0.203359,0.098015,52,273,582,5824
1644177027.277773,-0.007874,0.006714,-0.993896,0.129252,0.401832,-0.14626,57,275,593,5888
1644177027.326147,-0.006531,0.010498,-0.989685,0.08345,0.401832,0.006412,51,279,583,5872
1644177027.374555,-0.009583,0.012695,-0.989441,0.068183,0.432366,-0.176794,46,279,585,5904
1644177027.422953,-0.006348,0.011475,-0.992188,0.190321,0.356031,-0.085191,48,274,578,5872
1644177027.471333,-0.007935,0.011169,-0.992188,0.190321,0.462901,-0.069924,59,273,586,5888
1644177027.519712,-0.005859,0.010681,-0.992371,0.190321,0.417099,0.021679,46,283,587,5872
1644177027.568118,-0.008179,0.010498,-0.992249,0.297191,0.386565,0.006412,57,273,593,5872
1644177027.616504,-0.010803,0.008606,-0.992493,0.419328,0.340763,0.021679,43,281,592,5888
1644177027.664883,-0.012756,0.009644,-0.992432,0.129252,0.340763,-0.008855,47,275,589,5872
1644177027.713293,-0.009338,0.011841,-0.992798,0.052916,0.325496,-0.207328,41,279,592,5824
1644177027.761688,-0.005798,0.011841,-0.989075,0.297191,0.386565,-0.100458,58,264,585,5888
1644177027.810076,-0.007507,0.007324,-0.99054,0.098718,0.493435,-0.054656,46,271,578,5936
1644177027.859255,-0.006897,0.009583,-0.989502,0.052916,0.493435,0.021679,48,269,594,5824
1644177027.90908,-0.008789,0.006409,-0.990601,0.327725,0.310229,-0.130992,49,268,591,5872
1644177027.959439,-0.005432,0.010193,-0.988831,0.08345,0.447634,-0.085191,58,286,587,5888
1644177028.065686,-0.009888,0.014526,-0.993652,0.35826,0.356031,0.082748,51,274,587,5888
1644177028.103476,-0.006958,0.011475,-0.990906,0.220855,0.386565,-0.25313,54,275,591,5888
1644177028.148843,-0.007568,0.009644,-0.992615,0.35826,0.310229,0.113282,49,280,584,5840
1644177028.197213,-0.009155,0.011902,-0.991455,0.098718,0.523969,0.036947,57,270,586,5904
1644177028.245573,-0.008911,0.007568,-0.990845,0.113985,0.478168,-0.14626,52,273,586,5824
1644177028.294006,-0.007568,0.010071,-0.991699,0.236122,0.432366,-0.192061,58,276,592,5872
1644177028.342367,-0.00946,0.013123,-0.989014,0.08345,0.401832,-0.283664,51,269,592,5872
1644177028.390773,-0.009094,0.010803,-0.991211,0.129252,0.417099,-0.14626,47,287,589,5872
1644177028.439161,-0.006714,0.010132,-0.991028,0.159786,0.401832,-0.039389,51,271,583,5840
1644177028.487551,-0.008423,0.010132,-0.988098,0.281924,0.523969,-0.207328,55,281,580,5872
1644177028.535946,-0.011414,0.009766,-0.992004,0.144519,0.508702,-0.192061,58,276,585,5872
1644177028.584332,-0.007996,0.010803,-0.989075,0.129252,0.478168,-0.237863,59,275,589,5840
1644177028.632843,-0.007935,0.010254,-0.992554,0.434595,0.478168,-0.161527,51,269,578,5824
1644177028.68331,-0.008179,0.008667,-0.989685,0.236122,0.386565,0.082748,48,274,585,5872
1644177028.733658,-0.011719,0.010925,-0.991943,0.08345,0.371298,-0.008855,39,266,587,5840
1644177028.778739,-0.007141,0.012878,-0.986877,0.251389,0.371298,-0.176794,53,271,583,5872
1644177028.875325,-0.005615,0.009338,-0.98999,0.175053,0.294962,-0.069924,45,277,575,5888
1644177028.923162,-0.006226,0.011169,-0.993469,0.098718,0.356031,-0.237863,52,273,582,5776
1644177028.971481,-0.013367,0.007751,-0.991089,0.129252,0.523969,-0.100458,55,283,590,5888
1644177029.019906,-0.011902,0.010376,-0.988892,0.281924,0.523969,0.006412,55,283,590,5904
1644177029.069684,-0.008667,0.010742,-0.99115,0.220855,0.569771,-0.024122,46,274,594,5872
1644177029.116608,-0.008057,0.011292,-0.991211,0.35826,0.218626,0.143817,47,285,586,5888
1644177029.165061,-0.010803,0.010132,-0.990601,0.113985,0.432366,-0.024122,52,270,593,5824
1644177029.213438,-0.004883,0.010437,-0.990967,0.251389,0.386565,-0.176794,59,277,579,5872
1644177029.261821,-0.008484,0.01123,-0.99231,0.220855,0.356031,0.052214,54,287,584,5888
1644177029.310192,-0.010864,0.01062,-0.990967,0.159786,0.539237,-0.069924,54,273,593,5840
1644177029.358598,-0.009827,0.008667,-0.989624,0.098718,0.447634,-0.130992,48,279,585,5888
1644177029.406996,-0.01001,0.008728,-0.989685,0.251389,0.417099,-0.344733,43,276,583,5904
1644177029.455384,-0.010742,0.010986,-0.989441,0.205588,0.417099,-0.14626,53,274,592,5808
1644177029.50379,-0.006348,0.013245,-0.99292,0.205588,0.478168,0.23542,58,281,580,5888
1644177029.552233,-0.008606,0.009644,-0.99176,0.190321,0.325496,-0.039389,49,275,582,5840
1644177029.600551,-0.006775,0.012756,-0.99292,0.373527,0.356031,-0.161527,60,274,583,5840
1644177029.648945,-0.004944,0.010864,-0.988953,0.129252,0.386565,-0.192061,47,282,589,5872
1644177029.697338,-0.012024,0.009277,-0.994019,0.419328,0.356031,0.006412,51,271,587,5888
1644177029.745836,-0.009155,0.007996,-0.99292,0.281924,0.340763,-0.100458,42,280,593,5824
1644177029.795244,-0.008301,0.01178,-0.991394,0.251389,0.356031,-0.222595,52,275,589,5872
1644177029.846076,-0.00824,0.009949,-0.992737,0.205588,0.371298,-0.085191,57,268,577,5872
1644177029.896596,-0.007019,0.010315,-0.989807,0.236122,0.478168,-0.069924,49,275,589,5872
1644177029.94082,-0.009338,0.009277,-0.991455,0.281924,0.478168,-0.039389,49,273,584,5760
1644177030.036093,-0.006531,0.007385,-0.992371,0.144519,0.24916,0.036947,49,270,584,5952
1644177030.084591,-0.00769,0.012085,-0.991638,0.373527,0.340763,-0.100458,58,274,578,5872
1644177030.132872,-0.008057,0.009399,-0.992676,0.404061,0.600305,-0.100458,48,276,583,5904
1644177030.181227,-0.009216,0.009338,-0.991089,0.129252,0.417099,-0.054656,51,271,590,5824
1644177030.229625,-0.007141,0.011536,-0.991394,0.205588,0.356031,-0.054656,47,277,589,5888
1644177030.278024,-0.011475,0.009277,-0.990417,0.190321,0.478168,-0.054656,52,287,577,5872
1644177030.326429,-0.00946,0.009644,-0.99292,0.007115,0.539237,-0.008855,57,277,586,5872
1644177030.374825,-0.007935,0.011475,-0.990417,0.404061,0.401832,-0.222595,52,270,579,5872
1644177030.423223,-0.007324,0.012939,-0.991638,0.098718,0.401832,-0.100458,55,279,587,5872
1644177030.47158,-0.01001,0.009033,-0.988892,0.327725,0.401832,-0.100458,40,275,577,5872
1644177030.519997,-0.009399,0.009338,-0.994629,0.281924,0.462901,-0.237863,52,277,579,5824
1644177030.568383,-0.007568,0.009521,-0.990417,0.251389,0.294962,-0.100458,52,270,586,5936
1644177030.616785,-0.011536,0.010498,-0.993164,0.327725,0.417099,-0.14626,36,279,592,5936
1644177030.665224,-0.006714,0.009705,-0.993469,0.342992,0.310229,-0.085191,49,270,586,5824
1644177030.713628,-0.008362,0.00946,-0.994324,0.08345,0.371298,0.036947,47,273,589,5872
1644177030.76195,-0.007629,0.010681,-0.990906,0.220855,0.447634,-0.130992,58,279,587,5872
1644177030.810387,-0.009155,0.00885,-0.994019,0.129252,0.447634,-0.161527,48,281,585,5888
1644177030.85876,-0.009827,0.010498,-0.993958,0.342992,0.386565,-0.237863,51,279,578,5872
1644177030.907171,-0.011475,0.009705,-0.994934,0.297191,0.432366,-0.14626,46,269,583,5760
1644177030.956562,-0.009644,0.009766,-0.991272,0.236122,0.462901,0.067481,46,274,583,5824
1644177031.006801,-0.01062,0.012817,-0.990479,0.190321,0.493435,-0.085191,43,276,585,5808
1644177031.085326,-0.00708,0.012634,-0.99292,0.205588,0.600305,-0.008855,53,262,578,5872
1644177031.107469,-0.01001,0.011597,-0.991272,0.35826,0.401832,-0.085191,57,275,589,5872
1644177031.19746,-0.006897,0.009583,-0.992676,0.220855,0.340763,-0.115725,43,271,590,5872
1644177031.245846,-0.008057,0.009521,-0.991699,0.175053,0.462901,-0.054656,38,280,586,5776
1644177031.294244,-0.011169,0.009399,-0.993835,0.159786,0.417099,-0.039389,46,288,585,5824
1644177031.342663,-0.007507,0.009521,-0.990967,0.312458,0.294962,-0.237863,52,270,584,5872
1644177031.391032,-0.011902,0.010193,-0.993652,0.342992,0.310229,-0.115725,52,294,586,5936
1644177031.439435,-0.008911,0.009094,-0.991089,0.404061,0.401832,-0.085191,55,276,587,5872
1644177031.487786,-0.008667,0.011536,-0.992798,0.190321,0.432366,-0.069924,49,273,584,5824
1644177031.536193,-0.009644,0.008667,-0.990479,0.113985,0.478168,-0.176794,55,276,597,5840
1644177031.584641,-0.009888,0.010193,-0.991699,0.190321,0.554504,-0.115725,51,276,580,5824
1644177031.633013,-0.009888,0.011963,-0.992432,0.419328,0.417099,-0.130992,46,274,583,5872
1644177031.68139,-0.008545,0.010986,-0.989746,0.236122,0.478168,-0.14626,41,274,580,5824
1644177031.729777,-0.008179,0.011597,-0.991577,0.266656,0.585038,-0.069924,42,282,589,5888
1644177031.778166,-0.009644,0.010559,-0.991455,0.312458,0.233893,-0.008855,53,276,571,5824
1644177031.82662,-0.009644,0.007996,-0.990417,0.175053,0.325496,-0.039389,43,283,583,5808
1644177031.875046,-0.011108,0.00769,-0.992493,0.327725,0.462901,-0.100458,47,275,591,5872
1644177031.923396,-0.01001,0.011719,-0.98999,0.159786,0.325496,-0.069924,54,277,582,5888
1644177031.971764,-0.00769,0.011047,-0.992249,0.281924,0.279695,-0.069924,58,276,580,5904
1644177032.020152,-0.00946,0.009033,-0.990051,0.113985,0.493435,-0.115725,43,288,592,5888
1644177032.085367,-0.009338,0.010132,-0.990479,0.236122,0.401832,-0.207328,49,282,582,5824
1644177032.120245,-0.008728,0.009338,-0.990051,0.327725,0.371298,0.021679,52,275,589,5872
1644177032.168528,-0.008545,0.010559,-0.990295,0.007115,0.447634,-0.039389,55,274,580,5824
1644177032.218834,-0.00824,0.008972,-0.990479,0.266656,0.325496,-0.100458,40,282,586,5840
1644177032.310463,-0.004639,0.010742,-0.991394,0.220855,0.294962,-0.222595,46,283,576,5872
1644177032.358839,-0.008423,0.010559,-0.988159,0.388794,0.279695,-0.115725,47,282,577,5840
1644177032.407237,-0.00824,0.010864,-0.990906,0.266656,0.203359,-0.085191,52,277,577,5776
1644177032.455639,-0.007629,0.009766,-0.99176,0.220855,0.401832,-0.100458,53,271,585,5808
1644177032.504019,-0.008301,0.009277,-0.990356,0.08345,0.508702,-0.161527,48,281,587,5808
1644177032.552446,-0.009216,0.010864,-0.991577,0.190321,0.371298,-0.100458,46,281,585,5824
1644177032.600824,-0.008179,0.008667,-0.99176,0.190321,0.401832,-0.207328,45,277,593,5888
1644177032.649223,-0.009155,0.007507,-0.992371,0.205588,0.401832,-0.100458,42,280,577,5824
1644177032.697614,-0.008057,0.009094,-0.989014,0.205588,0.325496,-0.192061,42,275,586,5872
1644177032.745975,-0.01001,0.009949,-0.993408,0.388794,0.310229,-0.008855,45,277,577,5840
1644177032.794405,-0.007629,0.008911,-0.993042,0.190321,0.585038,-0.115725,49,282,577,5872
1644177032.842854,-0.007263,0.011169,-0.990967,0.297191,0.493435,-0.039389,45,273,575,5872
1644177032.8912,-0.008179,0.008972,-0.990479,0.281924,0.539237,-0.008855,57,275,582,5872
1644177032.939609,-0.007751,0.012207,-0.992554,0.297191,0.356031,-0.115725,51,274,592,5824
1644177032.987985,-0.006653,0.010315,-0.991882,0.404061,0.279695,-0.14626,53,286,587,5872
1644177033.036352,-0.007019,0.012573,-0.990479,0.144519,0.340763,-0.039389,38,268,593,5840
1644177033.094463,-0.01001,0.009033,-0.992676,0.129252,0.386565,-0.100458,49,273,589,5824
1644177033.133148,-0.008118,0.012024,-0.991943,0.220855,0.310229,-0.176794,53,276,590,5824
1644177033.18153,-0.008362,0.010437,-0.993774,0.327725,0.356031,-0.130992,48,274,587,5872
1644177033.230141,-0.010437,0.010498,-0.993652,0.266656,0.523969,-0.054656,45,282,589,5824
1644177033.28094,-0.011047,0.007263,-0.991516,0.068183,0.356031,-0.115725,58,281,592,5904
1644177033.330764,-0.009705,0.008362,-0.991272,0.236122,0.432366,-0.054656,47,282,582,5872
1644177033.376112,-0.007385,0.008667,-0.992249,0.175053,0.523969,0.082748,49,277,579,5824
1644177033.471855,-0.006653,0.011597,-0.992859,0.144519,0.493435,-0.024122,43,276,580,5840
1644177033.520252,-0.008789,0.01123,-0.988281,0.281924,0.462901,-0.054656,40,270,584,5872
1644177033.568646,-0.009094,0.008545,-0.993164,0.342992,0.386565,-0.039389,46,274,585,5872
1644177033.617023,-0.010986,0.00824,-0.994995,0.373527,0.478168,-0.176794,55,276,592,5824
1644177033.665439,-0.008118,0.009338,-0.992981,0.068183,0.508702,-0.024122,58,279,594,5840
1644177033.713831,-0.011047,0.011169,-0.991821,0.388794,0.493435,-0.100458,41,281,578,5872
1644177033.762237,-0.011414,0.009155,-0.991943,0.175053,0.356031,-0.115725,49,280,575,5872
1644177033.810609,-0.008972,0.009033,-0.990906,0.159786,0.539237,-0.115725,51,279,583,5872
1644177033.859051,-0.008972,0.007202,-0.989868,0.281924,0.401832,0.021679,49,275,589,5872
1644177033.907431,-0.011841,0.010742,-0.994263,0.251389,0.432366,-0.085191,51,269,580,5872
1644177033.955822,-0.010315,0.011719,-0.993408,0.098718,0.417099,-0.25313,58,266,587,5888
1644177034.00423,-0.011414,0.010864,-0.991089,0.159786,0.325496,-0.008855,45,282,579,5840
1644177034.062071,-0.009583,0.007996,-0.992798,0.327725,0.325496,-0.222595,41,271,592,5840
1644177034.104481,-0.00769,0.00946,-0.990723,0.373527,0.325496,0.067481,55,266,583,5888
1644177034.14935,-0.00824,0.012085,-0.99054,0.144519,0.417099,-0.085191,43,276,583,5872
1644177034.197735,-0.006348,0.009338,-0.991821,0.251389,0.493435,-0.069924,53,271,583,5872
1644177034.246136,-0.00769,0.00824,-0.990845,0.251389,0.478168,-0.115725,47,275,589,5872
1644177034.294523,-0.012024,0.00824,-0.993713,0.388794,0.508702,-0.024122,43,274,587,5872
1644177034.342929,-0.007812,0.012878,-0.992615,0.220855,0.417099,-0.161527,54,277,591,5872
1644177034.39161,-0.011292,0.00824,-0.992554,0.08345,0.432366,-0.069924,51,276,587,5872
1644177034.442237,-0.007324,0.010132,-0.992737,0.327725,0.447634,0.021679,52,275,584,5904
1644177034.492625,-0.009766,0.010681,-0.994629,0.08345,0.462901,0.067481,53,281,585,5872
1644177034.53745,-0.009766,0.010071,-0.991638,0.144519,0.432366,-0.039389,59,275,591,5872
1644177034.633281,-0.009583,0.007324,-0.990967,0.434595,0.417099,-0.024122,52,282,582,5872
1644177034.68169,-0.007935,0.010376,-0.993408,0.266656,0.325496,0.021679,47,280,584,5872
1644177034.730042,-0.006531,0.008484,-0.98877,0.327725,0.478168,-0.14626,43,279,585,5776
1644177034.778427,-0.005981,0.010681,-0.991333,0.098718,0.279695,-0.054656,58,286,583,5952
1644177034.826814,-0.011902,0.009644,-0.993286,0.129252,0.264427,-0.100458,39,288,580,5840
1644177034.875366,-0.008057,0.007935,-0.991699,0.205588,0.356031,-0.069924,47,275,579,5840
1644177034.923647,-0.009521,0.00769,-0.98877,0.129252,0.417099,-0.054656,46,281,578,5840
1644177034.972039,-0.01001,0.009399,-0.994568,0.312458,0.279695,-0.161527,48,281,578,5808
1644177035.020447,-0.009216,0.010376,-0.99176,0.373527,0.417099,0.021679,53,269,587,5840
1644177035.071388,-0.011292,0.01062,-0.994202,0.342992,0.203359,0.036947,49,277,589,5824
1644177035.117152,-0.008118,0.008911,-0.989807,0.251389,0.417099,-0.054656,48,264,592,5840
1644177035.165569,-0.006104,0.012756,-0.989197,0.297191,0.432366,-0.130992,47,273,579,5872
1644177035.213975,-0.006531,0.009094,-0.992004,0.342992,0.325496,-0.283664,42,275,586,5904
1644177035.262346,-0.00885,0.007629,-0.991333,0.205588,0.386565,-0.008855,51,281,583,5872
1644177035.310743,-0.008118,0.010803,-0.990051,0.175053,0.462901,-0.161527,47,280,586,5808
1644177035.359136,-0.010315,0.009216,-0.990417,0.281924,0.325496,0.021679,47,275,586,5904
1644177035.407514,-0.009338,0.008362,-0.990601,0.266656,0.523969,-0.024122,45,270,575,5808
1644177035.45591,-0.007568,0.009033,-0.992859,0.312458,0.371298,-0.130992,49,277,579,5824
1644177035.504541,-0.010315,0.009583,-0.988403,0.388794,0.340763,-0.085191,52,282,596,5888
1644177035.553448,-0.010193,0.012634,-0.991333,0.220855,0.417099,-0.268397,41,271,592,5904
1644177035.603947,-0.010071,0.008179,-0.991211,0.190321,0.294962,-0.069924,51,279,587,5840
1644177035.654049,-0.00708,0.008728,-0.994019,0.113985,0.508702,-0.130992,51,266,592,5872
1644177035.699091,-0.007568,0.010193,-0.990967,0.297191,0.401832,-0.024122,51,266,585,5888
1644177035.794862,-0.009155,0.009827,-0.992004,-0.02342,0.310229,-0.008855,47,270,582,5872
1644177035.843065,-0.008972,0.007446,-0.990479,0.068183,0.325496,-0.14626,53,271,599,5872
1644177035.891471,-0.009644,0.011353,-0.992615,0.159786,0.386565,-0.069924,51,271,583,5872
1644177035.939856,-0.008972,0.011841,-0.991394,0.052916,0.401832,-0.192061,52,285,598,5872
1644177035.988255,-0.008179,0.011841,-0.990845,0.236122,0.310229,-0.161527,46,286,580,5824
1644177036.036639,-0.009766,0.008423,-0.993042,0.175053,0.371298,-0.054656,53,279,594,5888
1644177036.087716,-0.006775,0.009521,-0.992004,0.342992,0.447634,-0.024122,51,277,591,5808
1644177036.133432,-0.011169,0.010498,-0.990051,0.205588,0.24916,-0.069924,57,275,591,5824
1644177036.18179,-0.008362,0.009277,-0.992249,0.373527,0.432366,-0.161527,51,276,583,5888
1644177036.230179,-0.00824,0.010742,-0.991821,0.419328,0.310229,-0.054656,49,273,572,5872
1644177036.278573,-0.009521,0.010193,-0.989868,0.098718,0.478168,-0.069924,48,269,592,5872
1644177036.32696,-0.01062,0.011475,-0.991455,0.236122,0.539237,-0.024122,51,279,592,5872
1644177036.375345,-0.009399,0.012329,-0.992859,0.266656,0.325496,-0.039389,49,275,591,5872
1644177036.423743,-0.009644,0.009949,-0.993164,0.129252,0.417099,-0.161527,57,277,586,5840
1644177036.472193,-0.01001,0.010315,-0.991272,0.251389,0.478168,-0.008855,46,274,585,5888
1644177036.520499,-0.006958,0.009949,-0.99054,0.220855,0.63084,0.021679,43,274,590,5840
1644177036.569653,-0.007812,0.009033,-0.989563,0.205588,0.432366,-0.207328,51,276,585,5872
1644177036.618122,-0.008789,0.012634,-0.992188,0.266656,0.310229,-0.130992,51,274,578,5824
1644177036.668697,-0.008606,0.009216,-0.99176,0.327725,0.356031,-0.25313,39,274,580,5840
1644177036.718784,-0.009705,0.010559,-0.989624,0.190321,0.417099,0.098015,54,280,582,5872
1644177036.763772,-0.007812,0.011658,-0.990967,0.297191,0.447634,0.036947,52,265,586,5904
1644177036.859262,-0.00824,0.006592,-0.993103,0.251389,0.264427,-0.192061,57,273,589,5824
1644177036.90768,-0.009705,0.009521,-0.993469,0.113985,0.279695,-0.25313,55,281,590,5808
1644177036.956062,-0.011414,0.004822,-0.989502,0.327725,0.432366,-0.207328,52,273,589,5872
1644177037.00446,-0.009888,0.008118,-0.994751,0.037649,0.493435,-0.039389,57,280,586,5840
1644177037.061087,-0.008728,0.00824,-0.990173,0.236122,0.493435,-0.085191,54,273,591,5904
1644177037.101438,-0.008301,0.01123,-0.990845,0.098718,0.386565,-0.054656,54,277,589,5904
1644177037.149617,-0.009399,0.010498,-0.992554,0.190321,0.432366,-0.207328,53,279,585,5952
1644177037.198013,-0.009094,0.012512,-0.989929,0.327725,0.432366,-0.176794,60,279,585,5888
1644177037.246375,-0.008423,0.010315,-0.992126,0.312458,0.432366,0.021679,43,281,578,5872
1644177037.294789,-0.008301,0.01001,-0.992737,0.251389,0.539237,-0.085191,46,276,592,5824
1644177037.343186,-0.009949,0.009705,-0.992615,0.175053,0.371298,-0.115725,45,275,584,5904
1644177037.391566,-0.01062,0.00946,-0.991089,0.251389,0.432366,-0.054656,46,274,583,5872
1644177037.439961,-0.010986,0.012024,-0.991089,0.098718,0.508702,0.006412,57,287,582,5888
1644177037.488354,-0.008728,0.009399,-0.989685,0.342992,0.401832,0.006412,52,273,591,5840
1644177037.536749,-0.009521,0.007507,-0.99054,0.35826,0.294962,0.113282,41,269,580,5840
1644177037.585163,-0.008301,0.008484,-0.992432,0.327725,0.340763,-0.039389,48,274,590,5824
1644177037.633603,-0.008423,0.008057,-0.991638,0.297191,0.508702,-0.069924,49,273,582,5904
1644177037.68281,-0.008057,0.009338,-0.990173,0.190321,0.371298,-0.344733,52,277,589,5888
1644177037.733357,-0.009338,0.008728,-0.99054,0.327725,0.508702,-0.054656,53,276,583,5872
1644177037.783628,-0.00647,0.011658,-0.994568,0.266656,0.462901,-0.207328,55,271,580,5904
1644177037.875498,-0.009521,0.007812,-0.990906,0.236122,0.417099,-0.085191,49,273,584,5824
1644177037.923925,-0.008362,0.01062,-0.989502,0.312458,0.340763,-0.14626,47,268,577,5888
1644177037.972421,-0.011597,0.010193,-0.994446,0.098718,0.325496,-0.176794,42,275,579,5872
1644177038.020694,-0.010193,0.00946,-0.989563,0.220855,0.264427,-0.039389,58,274,585,5904
1644177038.069147,-0.007568,0.009094,-0.990234,0.312458,0.539237,-0.14626,47,285,584,5808
1644177038.117434,-0.007874,0.010498,-0.989075,0.297191,0.310229,-0.069924,45,273,582,5904
1644177038.165831,-0.01178,0.007019,-0.99115,0.190321,0.493435,-0.161527,58,279,587,5840
1644177038.214226,-0.006104,0.010681,-0.992371,0.297191,0.386565,-0.283664,51,279,585,5824
1644177038.262634,-0.006531,0.010681,-0.993469,0.251389,0.417099,-0.085191,60,283,580,5840
1644177038.311004,-0.010254,0.015991,-0.989258,0.220855,0.340763,-0.085191,49,287,586,5840
1644177038.359393,-0.009338,0.019836,-0.985229,0.113985,0.294962,-0.237863,48,274,583,5888
1644177038.407768,-0.009033,0.006409,-0.994751,0.175053,0.417099,-0.115725,49,268,589,5904
1644177038.456177,-0.012268,0.005371,-0.994141,0.266656,0.310229,-0.054656,49,273,591,5872
1644177038.504697,-0.007935,0.006531,-0.995911,0.373527,0.401832,-0.039389,51,269,585,5888
1644177038.552978,-0.007263,0.011475,-0.990295,0.236122,0.340763,-0.115725,42,270,584,5872
1644177038.601359,-0.011658,0.01062,-0.99353,0.129252,0.478168,-0.024122,49,277,582,5872
1644177038.649732,-0.009705,0.009338,-0.99353,0.251389,0.432366,0.006412,45,268,579,5904
1644177038.698134,-0.010559,0.01178,-0.991821,0.266656,0.371298,-0.176794,51,279,585,5824
1644177038.746509,-0.007019,0.007568,-0.993347,0.098718,0.325496,-0.024122,58,279,587,5872
1644177038.795676,-0.007141,0.00769,-0.99054,0.342992,0.447634,-0.192061,53,271,587,5872
1644177038.845829,-0.010132,0.01123,-0.990112,0.236122,0.493435,0.067481,45,282,570,5824
1644177038.896772,-0.006409,0.010193,-0.990967,0.175053,0.539237,0.006412,48,269,585,5872
1644177038.940767,-0.007141,0.01001,-0.989319,0.220855,0.478168,-0.25313,43,271,585,5888
1644177039.036892,-0.010925,0.009705,-0.991333,0.205588,0.340763,-0.25313,46,291,583,5840
1644177039.085425,-0.006775,0.010071,-0.990295,0.236122,0.371298,-0.054656,48,283,578,5824
1644177039.133666,-0.010376,0.00769,-0.993835,0.327725,0.325496,-0.14626,49,277,579,5872
1644177039.182062,-0.005859,0.011658,-0.991211,0.297191,0.417099,-0.069924,58,283,583,5808
1644177039.230427,-0.008179,0.008972,-0.992798,0.342992,0.432366,-0.085191,46,279,578,5872
1644177039.278799,-0.00769,0.01123,-0.995789,0.35826,0.401832,-0.207328,41,281,583,5776
1644177039.327212,-0.005859,0.012207,-0.992126,0.281924,0.508702,-0.207328,40,275,579,5808
1644177039.37562,-0.010925,0.01062,-0.994019,0.113985,0.371298,-0.024122,43,274,585,5840
1644177039.424022,-0.010315,0.008057,-0.989563,0.35826,0.401832,-0.14626,43,279,583,5904
1644177039.472416,-0.010864,0.012146,-0.989624,0.098718,0.417099,-0.024122,43,266,573,5808
1644177039.520797,-0.005554,0.011658,-0.99353,0.08345,0.325496,-0.237863,58,266,580,5872
1644177039.569189,-0.008911,0.009521,-0.991577,0.205588,0.371298,-0.069924,48,279,578,5888
1644177039.617573,-0.012146,0.012207,-0.992126,0.266656,0.417099,0.006412,48,274,585,5872
1644177039.665957,-0.009216,0.008301,-0.99231,0.205588,0.432366,-0.192061,57,273,572,5824
1644177039.71436,-0.009888,0.009216,-0.99054,0.068183,0.401832,-0.192061,57,270,598,5888
1644177039.762759,-0.01178,0.011353,-0.991821,0.205588,0.447634,-0.130992,53,279,580,5840
1644177039.811176,-0.008484,0.010193,-0.990967,0.312458,0.493435,-0.008855,41,274,587,5840
1644177039.859766,-0.007812,0.007202,-0.992981,0.129252,0.508702,-0.176794,49,275,592,5888
1644177039.907979,-0.007751,0.009338,-0.993469,0.236122,0.325496,0.006412,40,280,589,5888
1644177039.95767,-0.010925,0.010071,-0.992126,0.373527,0.310229,-0.161527,47,275,586,5824
1644177040.008114,-0.006775,0.006287,-0.992676,0.190321,0.356031,-0.100458,51,264,594,5872
1644177040.077982,-0.007202,0.010986,-0.98999,0.068183,0.325496,-0.039389,49,268,584,5824
1644177040.106737,-0.007629,0.008362,-0.989502,0.266656,0.462901,0.021679,53,281,587,5888
1644177040.198265,-0.010437,0.011292,-0.992615,0.251389,0.325496,-0.054656,52,277,582,5872
1644177040.24663,-0.00531,0.010498,-0.990845,0.129252,0.432366,-0.054656,49,277,579,5872
1644177040.295292,-0.010437,0.009888,-0.99054,0.159786,0.310229,-0.268397,52,280,582,5888
1644177040.343441,-0.010498,0.007141,-0.992249,0.236122,0.325496,-0.14626,51,264,590,5872
1644177040.391838,-0.00647,0.007507,-0.991211,0.129252,0.401832,-0.14626,42,273,589,5888
1644177040.440223,-0.011597,0.010559,-0.990662,0.113985,0.325496,-0.130992,47,273,582,5776
1644177040.488625,-0.009521,0.009521,-0.992004,0.205588,0.371298,-0.192061,49,275,582,5872
1644177040.537005,-0.006836,0.00769,-0.989441,0.190321,0.462901,-0.25313,57,290,589,5776
1644177040.585414,-0.006409,0.008484,-0.98999,0.144519,0.432366,-0.192061,47,280,577,5824
1644177040.633799,-0.010315,0.011963,-0.992737,0.068183,0.432366,-0.069924,54,277,575,5840
1644177040.682242,-0.010193,0.013062,-0.989136,0.236122,0.356031,-0.115725,49,275,589,5840
1644177040.730539,-0.010193,0.010071,-0.991272,0.236122,0.401832,-0.039389,52,290,593,5808
1644177040.778969,-0.010925,0.010498,-0.990906,0.297191,0.447634,0.021679,41,279,592,5888
1644177040.827391,-0.009705,0.011597,-0.991272,0.312458,0.417099,0.052214,46,276,587,5872
1644177040.875788,-0.008789,0.008484,-0.99176,0.342992,0.417099,-0.069924,52,280,589,5888
1644177040.92418,-0.007751,0.009583,-0.99408,0.266656,0.478168,-0.176794,58,279,592,5936
1644177040.97259,-0.005615,0.010437,-0.99353,0.113985,0.523969,-0.085191,53,283,587,5840
1644177041.020962,-0.010803,0.009644,-0.990234,0.129252,0.401832,-0.024122,47,275,591,5872
1644177041.091698,-0.00885,0.01001,-0.989868,0.236122,0.401832,-0.283664,51,276,601,5824
1644177041.121111,-0.009705,0.009277,-0.989868,0.159786,0.340763,-0.100458,41,283,585,5840
1644177041.169721,-0.008606,0.010925,-0.991577,0.251389,0.508702,-0.039389,39,276,578,5808
1644177041.214521,-0.00708,0.010742,-0.990295,0.129252,0.417099,-0.130992,46,276,587,5872
1644177041.311276,-0.010742,0.010803,-0.993164,0.175053,0.386565,0.052214,53,269,590,5888
1644177041.359642,-0.006775,0.010071,-0.992004,0.266656,0.447634,-0.069924,49,277,584,5888
1644177041.408047,-0.009888,0.010315,-0.991821,0.342992,0.340763,-0.024122,46,279,585,5872
1644177041.456448,-0.008118,0.009766,-0.992981,0.266656,0.356031,0.067481,55,288,587,5872
1644177041.504883,-0.009338,0.008545,-0.99231,0.08345,0.539237,-0.100458,45,277,586,5872
1644177041.553231,-0.006775,0.012695,-0.990601,0.220855,0.447634,-0.115725,52,285,586,5840
1644177041.601631,-0.013123,0.009521,-0.989807,0.113985,0.371298,-0.054656,48,274,583,5888
1644177041.650017,-0.008728,0.009583,-0.990723,0.113985,0.478168,-0.115725,52,273,584,5872
1644177041.698414,-0.009277,0.009521,-0.993774,0.098718,0.356031,-0.25313,36,269,590,5888
1644177041.746765,-0.010803,0.009277,-0.990662,0.205588,0.447634,-0.115725,54,275,577,5840
1644177041.79527,-0.009888,0.01239,-0.993164,0.144519,0.401832,0.036947,38,280,593,5872
1644177041.8436,-0.007507,0.011414,-0.989746,0.068183,0.371298,-0.085191,38,285,568,5888
1644177041.892031,-0.008667,0.009094,-0.991577,0.220855,0.447634,0.052214,51,266,585,5904
1644177041.940407,-0.008728,0.011719,-0.991577,0.480397,0.432366,-0.115725,46,276,583,5872
1644177041.988758,-0.010681,0.010864,-0.992493,0.220855,0.401832,-0.130992,52,273,589,5888
1644177042.037183,-0.00769,0.009949,-0.992371,0.129252,0.371298,-0.176794,48,266,585,5872
1644177042.085613,-0.011597,0.008423,-0.992371,0.007115,0.462901,-0.008855,52,280,591,5824
1644177042.133943,-0.008057,0.009827,-0.991455,0.297191,0.401832,-0.100458,55,269,583,5840
1644177042.182479,-0.008118,0.010193,-0.990906,0.205588,0.310229,-0.069924,48,271,587,5824
1644177042.231272,-0.008179,0.008667,-0.992065,0.388794,0.264427,-0.085191,42,285,586,5872
1644177042.28183,-0.008606,0.011414,-0.99176,0.281924,0.386565,-0.100458,48,279,580,5840
1644177042.331897,-0.00708,0.009033,-0.991638,0.281924,0.432366,0.036947,46,283,583,5904
1644177042.37702,-0.010742,0.011719,-0.990662,0.327725,0.417099,-0.039389,48,271,578,5872
1644177042.472678,-0.00824,0.008911,-0.990112,0.251389,0.462901,-0.008855,58,276,585,5952
1644177042.521058,-0.011169,0.009888,-0.990662,0.35826,0.417099,-0.176794,43,271,587,5872
1644177042.569442,-0.007996,0.01123,-0.99115,0.190321,0.325496,-0.054656,47,275,586,5904
1644177042.617817,-0.009094,0.011169,-0.993225,0.190321,0.325496,-0.14626,54,280,582,5872
1644177042.666219,-0.010925,0.008667,-0.991211,0.266656,0.447634,-0.176794,52,273,582,5872
1644177042.714627,-0.009155,0.009399,-0.992981,0.175053,0.432366,-0.115725,38,277,577,5872
1644177042.763022,-0.010925,0.009155,-0.991272,0.190321,0.508702,-0.085191,40,280,582,5824
1644177042.811423,-0.007629,0.009888,-0.992737,0.342992,0.401832,-0.100458,53,271,583,5952
1644177042.859841,-0.007019,0.009155,-0.991516,0.220855,0.462901,0.006412,51,269,578,5872
1644177042.90823,-0.011047,0.010132,-0.990723,0.159786,0.417099,-0.176794,48,274,578,5872
1644177042.956621,-0.008179,0.010254,-0.99231,-0.02342,0.356031,-0.237863,39,279,590,5840
1644177043.005158,-0.007996,0.010376,-0.992798,0.175053,0.386565,-0.008855,45,265,584,5840
1644177043.06488,-0.010437,0.007507,-0.990906,0.312458,0.447634,-0.176794,48,271,587,5808
1644177043.104899,-0.006287,0.006836,-0.991211,0.190321,0.340763,-0.054656,54,265,579,5872
1644177043.150162,-0.010925,0.009094,-0.992981,0.144519,0.325496,-0.14626,47,273,584,5888
1644177043.198503,-0.008667,0.010681,-0.991821,0.220855,0.340763,-0.069924,51,281,592,5824
1644177043.246888,-0.011169,0.008301,-0.993225,0.251389,0.585038,-0.130992,57,270,589,5840
1644177043.295331,-0.008362,0.008362,-0.993042,0.35826,0.310229,0.006412,53,271,583,5824
1644177043.343718,-0.007568,0.009155,-0.989807,0.220855,0.279695,-0.039389,48,269,590,5872
1644177043.392342,-0.008911,0.011108,-0.990601,0.236122,0.401832,-0.161527,49,280,589,5872
1644177043.442834,-0.009338,0.009033,-0.991516,0.175053,0.340763,-0.085191,51,266,587,5824
1644177043.493299,-0.00769,0.008606,-0.992676,0.480397,0.462901,-0.130992,58,279,592,5888
1644177043.537721,-0.010071,0.01062,-0.992615,0.08345,0.432366,-0.054656,53,283,576,5776
1644177043.634072,-0.012939,0.009155,-0.991028,0.129252,0.401832,-0.14626,49,275,582,5872
1644177043.682454,-0.009766,0.012573,-0.990173,0.251389,0.523969,-0.176794,41,274,585,5872
1644177043.73083,-0.007568,0.011292,-0.993713,0.236122,0.539237,-0.161527,46,279,585,5888
1644177043.77924,-0.008972,0.008545,-0.990295,0.175053,0.294962,-0.085191,48,281,583,5888
1644177043.827631,-0.011658,0.009827,-0.990479,0.159786,0.539237,-0.25313,55,288,590,5840
1644177043.876031,-0.007263,0.009766,-0.994019,0.312458,0.722443,-0.054656,55,271,576,5776
1644177043.924462,-0.007385,0.01355,-0.993652,0.251389,0.462901,-0.115725,49,275,584,5888
1644177043.972861,-0.006775,0.008545,-0.991943,0.098718,0.401832,-0.069924,39,271,583,5824
1644177044.021245,-0.01001,0.01001,-0.991699,0.205588,0.325496,-0.283664,43,274,578,5936
1644177044.074507,-0.009277,0.011597,-0.993164,0.236122,0.371298,-0.054656,55,279,601,5872
1644177044.118029,-0.006714,0.009949,-0.99115,0.236122,0.386565,-0.176794,54,277,589,5936
1644177044.166366,-0.009521,0.009888,-0.992188,0.251389,0.356031,-0.161527,54,280,589,5840
1644177044.214777,-0.010498,0.011963,-0.993896,0.281924,0.386565,-0.192061,58,279,590,5840
1644177044.263143,-0.009033,0.010193,-0.98999,0.052916,0.325496,-0.192061,54,268,591,5872
1644177044.311553,-0.009216,0.009399,-0.991943,0.266656,0.325496,-0.115725,48,276,587,5888
1644177044.359933,-0.008545,0.010864,-0.994019,0.266656,0.386565,-0.085191,41,266,585,5840
1644177044.408347,-0.006531,0.012451,-0.991516,0.297191,0.356031,-0.192061,39,286,583,5872
1644177044.456713,-0.008606,0.010742,-0.989197,0.175053,0.569771,-0.14626,49,273,577,5840
1644177044.505826,-0.012085,0.010498,-0.990906,0.08345,0.386565,-0.130992,46,269,592,5840
1644177044.556527,-0.009216,0.011353,-0.991821,0.342992,0.432366,-0.192061,47,275,593,5808
1644177044.606624,-0.011169,0.011169,-0.992249,0.327725,0.462901,-0.237863,41,274,583,5808
1644177044.651558,-0.008789,0.007385,-0.991211,0.266656,0.294962,-0.14626,51,269,578,5808
1644177044.747045,-0.009155,0.009521,-0.990662,0.297191,0.493435,-0.069924,45,265,582,5808
1644177044.795458,-0.009216,0.007019,-0.992126,0.205588,0.432366,0.021679,43,271,571,5872
1644177044.843833,-0.009583,0.011414,-0.992188,0.205588,0.585038,0.006412,61,273,589,5872
1644177044.892409,-0.008728,0.009216,-0.989197,0.266656,0.401832,-0.069924,52,282,582,5872
1644177044.940658,-0.007751,0.009766,-0.990784,0.251389,0.386565,0.036947,47,270,582,5888
1644177044.989058,-0.010498,0.009094,-0.993347,0.190321,0.279695,-0.054656,47,270,582,5760
1644177045.037454,-0.011108,0.01178,-0.990356,0.281924,0.279695,-0.024122,49,282,582,5840
1644177045.094176,-0.010376,0.011108,-0.989014,0.052916,0.447634,-0.054656,45,273,586,5904
1644177045.134281,-0.008789,0.009949,-0.991882,0.113985,0.356031,-0.039389,52,280,579,5872
1644177045.182583,-0.005798,0.009583,-0.993164,0.35826,0.371298,-0.085191,40,275,589,5888
1644177045.23098,-0.009766,0.006653,-0.991577,0.236122,0.264427,-0.115725,48,276,580,5824
1644177045.279339,-0.009216,0.009766,-0.992981,0.342992,0.401832,-0.054656,45,268,589,5824
1644177045.327763,-0.007568,0.009827,-0.99115,0.113985,0.523969,-0.069924,45,270,591,5824
1644177045.376148,-0.008484,0.009094,-0.989807,0.220855,0.294962,0.021679,54,277,591,5872
1644177045.424537,-0.010925,0.009399,-0.992004,0.236122,0.447634,0.006412,58,274,573,5888
1644177045.472914,-0.013,0.007812,-0.991028,0.129252,0.356031,0.052214,47,277,586,5872
1644177045.521385,-0.008362,0.01178,-0.991211,0.434595,0.371298,-0.161527,41,279,592,5840
1644177045.57142,-0.009094,0.010254,-0.991028,0.266656,0.371298,-0.192061,64,280,577,5872
1644177045.621761,-0.010559,0.013794,-0.990051,0.113985,0.401832,-0.176794,39,276,583,5872
1644177045.666844,-0.008179,0.009949,-0.992432,0.312458,0.462901,-0.039389,48,281,578,5904
1644177045.763286,-0.011169,0.010254,-0.992798,0.205588,0.386565,-0.054656,41,269,590,5824
1644177045.811666,-0.008362,0.010437,-0.990356,0.281924,0.310229,-0.130992,48,276,583,5872
1644177045.860043,-0.009705,0.010254,-0.990479,0.129252,0.24916,-0.161527,47,280,577,5888
1644177045.908489,-0.010986,0.009338,-0.989563,0.113985,0.310229,-0.14626,51,279,578,5872
1644177045.956893,-0.011169,0.01062,-0.993347,0.220855,0.371298,-0.161527,51,283,573,5872
1644177046.00527,-0.01062,0.011658,-0.990479,0.205588,0.417099,-0.115725,42,277,579,5872
1644177046.067233,-0.006653,0.011719,-0.99176,0.266656,0.417099,-0.130992,51,281,590,5840
1644177046.104772,-0.006409,0.010803,-0.992737,0.236122,0.310229,-0.161527,47,282,584,5872
1644177046.150451,-0.009766,0.009949,-0.993347,0.190321,0.310229,-0.222595,45,277,579,5888
1644177046.198809,-0.010498,0.006836,-0.98877,0.037649,0.432366,-0.085191,53,286,580,5904
1644177046.247173,-0.005554,0.009338,-0.990112,0.312458,0.356031,-0.085191,48,279,592,5888
1644177046.295583,-0.009644,0.010925,-0.989563,0.236122,0.508702,-0.161527,55,276,576,5872
1644177046.343998,-0.008118,0.010132,-0.990906,0.35826,0.417099,0.036947,53,269,580,5824
1644177046.392398,-0.010315,0.010925,-0.990601,0.129252,0.447634,-0.085191,57,277,591,5888
1644177046.440762,-0.010498,0.009094,-0.991699,0.098718,0.325496,-0.039389,51,276,585,5824
1644177046.489331,-0.007507,0.010742,-0.990051,0.08345,0.554504,-0.283664,48,274,585,5824
1644177046.537548,-0.012268,0.009216,-0.994446,0.281924,0.386565,-0.207328,52,275,582,5824
1644177046.58595,-0.00708,0.008606,-0.992249,0.220855,0.432366,-0.130992,45,265,579,5776
1644177046.634362,-0.007202,0.009277,-0.993042,0.419328,0.432366,-0.130992,51,274,587,5904
1644177046.684275,-0.011536,0.008118,-0.99176,0.129252,0.539237,-0.085191,40,275,577,5872
1644177046.734911,-0.011597,0.00946,-0.991577,0.098718,0.523969,-0.054656,45,275,582,5888
1644177046.779552,-0.010742,0.011658,-0.988281,0.205588,0.417099,-0.085191,49,277,577,5824
1644177046.876276,-0.009583,0.011963,-0.991638,0.220855,0.478168,-0.069924,49,277,586,5808
1644177046.924893,-0.007324,0.009705,-0.990723,0.205588,0.294962,-0.054656,43,276,587,5952
1644177046.973114,-0.008911,0.009766,-0.992065,0.159786,0.432366,-0.054656,45,275,593,5872
1644177047.02149,-0.007874,0.01123,-0.989624,0.297191,0.340763,-0.008855,54,280,586,5776
1644177047.069927,-0.008972,0.013611,-0.98999,0.098718,0.294962,-0.115725,51,283,583,5840
1644177047.118238,-0.006836,0.009033,-0.993591,0.327725,0.417099,-0.039389,42,287,579,5840
1644177047.166625,-0.00946,0.008301,-0.990601,0.342992,0.371298,-0.161527,49,270,586,5808
1644177047.215051,-0.007996,0.011902,-0.991089,0.190321,0.340763,0.021679,40,280,589,5984
1644177047.263427,-0.010193,0.011719,-0.991089,0.175053,0.264427,-0.161527,45,273,582,5888
1644177047.311781,-0.007812,0.008911,-0.990723,0.327725,0.371298,-0.329466,48,276,583,5936
1644177047.360199,-0.009399,0.00769,-0.991516,0.236122,0.462901,-0.039389,46,271,573,5872
1644177047.408591,-0.012695,0.008118,-0.989258,0.129252,0.264427,-0.176794,49,277,584,5776
1644177047.456981,-0.012268,0.010559,-0.993042,0.113985,0.417099,-0.130992,47,275,577,5840
1644177047.505351,-0.007935,0.009094,-0.991882,0.281924,0.462901,-0.14626,49,277,579,5888
1644177047.553751,-0.010742,0.01062,-0.988953,0.144519,0.386565,-0.039389,42,280,593,5840
1644177047.602163,-0.006836,0.010864,-0.991394,0.190321,0.340763,-0.100458,53,269,585,5888
1644177047.650512,-0.008606,0.010132,-0.991089,0.144519,0.417099,-0.283664,51,262,587,5872
1644177047.698942,-0.005737,0.008606,-0.992737,0.251389,0.294962,0.036947,53,276,592,5824
1644177047.747304,-0.008545,0.009705,-0.98877,0.281924,0.462901,-0.130992,46,276,580,5840
1644177047.796294,-0.005554,0.009949,-0.991821,0.342992,0.417099,-0.039389,42,265,584,5808
1644177047.847505,-0.008972,0.012024,-0.989807,0.175053,0.386565,-0.14626,51,274,578,5888
1644177047.897319,-0.009827,0.010681,-0.990173,0.175053,0.356031,-0.130992,38,270,589,5808
1644177047.941675,-0.007202,0.011047,-0.989075,0.251389,0.340763,-0.085191,49,277,582,5840
1644177048.037711,-0.009155,0.011597,-0.99176,0.281924,0.508702,-0.024122,48,271,583,5824
1644177048.089745,-0.007751,0.012573,-0.991699,0.144519,0.447634,-0.237863,45,273,582,5872
1644177048.134473,-0.008667,0.011292,-0.992432,0.098718,0.371298,-0.14626,36,274,585,5904
1644177048.182858,-0.009033,0.011353,-0.990662,0.159786,0.523969,0.082748,48,279,594,5872
1644177048.231239,-0.009033,0.012817,-0.99054,0.342992,0.310229,-0.115725,53,271,583,5808
1644177048.279614,-0.00708,0.011047,-0.991577,0.205588,0.493435,-0.039389,48,274,594,5888
1644177048.328024,-0.007385,0.010376,-0.993652,0.190321,0.462901,-0.115725,58,274,583,5872
1644177048.376443,-0.006531,0.011902,-0.992737,0.190321,0.24916,-0.039389,55,274,583,5888
1644177048.424827,-0.008545,0.011108,-0.990784,0.266656,0.279695,-0.130992,47,280,582,5840
1644177048.473213,-0.006653,0.009766,-0.992004,0.220855,0.447634,0.021679,43,276,583,5760
1644177048.521586,-0.007019,0.008789,-0.989014,0.266656,0.310229,-0.222595,48,264,587,5872
1644177048.569979,-0.009277,0.012024,-0.992249,0.175053,0.523969,-0.100458,49,265,579,5888
1644177048.618377,-0.007751,0.010864,-0.991333,0.220855,0.462901,-0.054656,40,275,582,5824
1644177048.666763,-0.007263,0.011414,-0.989502,0.35826,0.508702,-0.100458,47,270,579,5888
1644177048.715195,-0.006775,0.008301,-0.993408,0.251389,0.371298,-0.14626,47,285,589,5872
1644177048.763553,-0.010742,0.010376,-0.991394,0.190321,0.508702,-0.085191,49,275,589,5872
1644177048.811973,-0.007751,0.009888,-0.988647,0.08345,0.417099,-0.024122,49,277,579,5888
1644177048.860402,-0.009338,0.011108,-0.993652,0.098718,0.417099,-0.100458,52,277,582,5872
1644177048.909625,-0.010254,0.012146,-0.989197,0.236122,0.401832,0.021679,45,270,591,5840
1644177048.960014,-0.006897,0.00708,-0.991272,0.266656,0.478168,0.006412,47,275,584,5888
1644177049.06771,-0.010193,0.010193,-0.993286,0.281924,0.401832,-0.115725,49,280,577,5872
1644177049.106287,-0.006165,0.014221,-0.992188,0.205588,0.447634,-0.130992,48,274,578,5904
1644177049.150688,-0.00885,0.011475,-0.988831,0.190321,0.554504,-0.069924,54,273,586,5888
1644177049.199076,-0.010132,0.011597,-0.994568,0.159786,0.447634,-0.008855,43,271,583,5872
1644177049.247448,-0.007874,0.010742,-0.99176,0.098718,0.340763,-0.14626,36,269,585,5904
1644177049.295858,-0.007874,0.010925,-0.991028,0.236122,0.356031,-0.130992,49,280,577,5872
1644177049.344231,-0.010925,0.00885,-0.989929,0.297191,0.569771,-0.161527,48,279,585,5888
1644177049.392658,-0.007568,0.01062,-0.991882,0.220855,0.432366,-0.192061,47,265,589,5824
1644177049.441004,-0.00824,0.006531,-0.989258,0.266656,0.523969,0.082748,51,279,590,5840
1644177049.489442,-0.01178,0.009521,-0.989807,0.312458,0.432366,-0.054656,45,275,577,5824
1644177049.537774,-0.006287,0.009399,-0.990356,0.236122,0.523969,-0.039389,55,288,587,5888
1644177049.586192,-0.006714,0.009094,-0.992676,0.251389,0.386565,-0.024122,51,279,573,5888
1644177049.634998,-0.008362,0.009216,-0.988708,0.175053,0.401832,-0.100458,45,280,584,5872
1644177049.686077,-0.008484,0.009399,-0.99176,0.327725,0.294962,-0.085191,57,277,593,5888
1644177049.736568,-0.009888,0.007446,-0.990356,0.342992,0.585038,-0.024122,47,270,582,5840
1644177049.82815,-0.008179,0.008423,-0.990112,0.297191,0.264427,-0.039389,51,276,585,5888
1644177049.876566,-0.010498,0.008362,-0.992798,0.190321,0.478168,0.067481,41,276,578,5888
1644177049.92503,-0.009827,0.01001,-0.989319,0.175053,0.371298,-0.115725,40,275,577,5808
1644177049.973365,-0.007446,0.009338,-0.992065,0.251389,0.417099,-0.008855,53,276,585,5904
1644177050.021759,-0.009216,0.01239,-0.990967,0.175053,0.325496,-0.176794,55,276,585,5904
1644177050.070659,-0.012146,0.008606,-0.989685,0.46513,0.462901,-0.14626,47,277,584,5840
1644177050.118519,-0.008667,0.010437,-0.991516,0.220855,0.63084,-0.024122,54,280,584,5872
1644177050.166895,-0.009583,0.009399,-0.990234,0.281924,0.432366,-0.268397,48,274,583,5904
1644177050.21529,-0.008484,0.010071,-0.989319,0.236122,0.294962,-0.176794,55,276,569,5776
1644177050.263686,-0.011108,0.01001,-0.994812,0.220855,0.401832,-0.176794,45,275,579,5904
1644177050.312061,-0.008728,0.013062,-0.990295,0.175053,0.401832,-0.085191,58,279,587,5872
1644177050.360489,-0.007751,0.01178,-0.992615,0.373527,0.371298,-0.14626,52,265,579,5840
1644177050.408856,-0.007263,0.012329,-0.993164,0.236122,0.417099,0.021679,43,269,585,5888
1644177050.457258,-0.009033,0.009766,-0.991516,0.312458,0.340763,-0.329466,58,276,580,5840
1644177050.505613,-0.009583,0.010376,-0.991028,0.236122,0.523969,-0.054656,43,269,585,5824
1644177050.554038,-0.006897,0.004883,-0.992188,0.129252,0.371298,0.021679,52,280,586,5904
1644177050.602444,-0.007324,0.010986,-0.993469,0.312458,0.371298,-0.054656,51,281,587,5888
1644177050.650824,-0.008423,0.00647,-0.994385,0.281924,0.294962,-0.008855,54,263,589,5824
1644177050.699202,-0.006958,0.009399,-0.989563,0.297191,0.447634,-0.161527,48,281,587,5824
1644177050.747673,-0.012268,0.007935,-0.988464,0.266656,0.432366,0.006412,45,260,582,5888
1644177050.798148,-0.007324,0.009216,-0.990356,0.236122,0.493435,-0.085191,46,266,583,5840
1644177050.849394,-0.008301,0.007263,-0.990723,0.220855,0.294962,-0.161527,54,275,593,5888
1644177050.893775,-0.009216,0.00946,-0.990662,0.373527,0.371298,-0.161527,48,264,592,5808
1644177050.989581,-0.008057,0.011902,-0.99176,0.129252,0.462901,-0.130992,52,268,591,5760
1644177051.037962,-0.007751,0.009094,-0.992371,0.266656,0.447634,0.067481,53,286,590,5888
1644177051.090836,-0.008606,0.008545,-0.994202,0.281924,0.417099,-0.25313,41,274,583,5824
1644177051.134772,-0.011536,0.010193,-0.993835,0.220855,0.432366,0.052214,46,279,590,5840
1644177051.183138,-0.010681,0.011047,-0.993164,0.159786,0.386565,-0.130992,55,266,585,5872
1644177051.231524,-0.009338,0.00885,-0.992554,0.129252,0.386565,-0.207328,51,276,576,5872
1644177051.279875,-0.010254,0.009949,-0.991577,0.205588,0.340763,-0.14626,46,279,587,5888
1644177051.328296,-0.006836,0.007507,-0.991516,0.220855,0.478168,0.036947,41,281,583,5840
1644177051.376692,-0.008362,0.00885,-0.990906,0.022382,0.279695,-0.222595,51,274,578,5776
1644177051.425176,-0.010681,0.012085,-0.991821,0.175053,0.325496,-0.085191,54,280,586,5888
1644177051.47345,-0.008972,0.009155,-0.992065,0.007115,0.325496,-0.054656,52,280,575,5888
1644177051.521823,-0.011536,0.010254,-0.990417,0.175053,0.294962,-0.207328,54,282,568,5872
1644177051.570252,-0.007812,0.008301,-0.990601,0.129252,0.539237,-0.115725,52,280,586,5888
1644177051.618639,-0.008118,0.010986,-0.991394,0.281924,0.417099,-0.100458,52,280,577,5872
1644177051.66703,-0.008667,0.008423,-0.990845,0.220855,0.279695,-0.085191,46,276,592,5888
1644177051.715429,-0.00946,0.009583,-0.990112,0.098718,0.310229,-0.054656,49,275,591,5872
1644177051.763819,-0.008545,0.010132,-0.990173,0.068183,0.462901,-0.176794,48,276,583,5808
1644177051.81282,-0.007996,0.010193,-0.990967,0.205588,0.386565,-0.130992,51,279,590,5824
1644177051.862554,-0.008484,0.008911,-0.993042,0.266656,0.371298,0.189618,48,279,594,5872
1644177051.91274,-0.009949,0.009583,-0.987976,0.266656,0.371298,-0.115725,43,279,587,5872
1644177051.963344,-0.007202,0.008667,-0.991089,0.312458,0.371298,0.021679,43,274,599,5840
1644177052.0669,-0.00769,0.007202,-0.992004,0.220855,0.356031,-0.039389,45,273,586,5872
1644177052.106297,-0.007324,0.010071,-0.991211,0.144519,0.371298,-0.130992,41,288,583,5840
1644177052.150989,-0.008301,0.009216,-0.989624,0.312458,0.417099,-0.069924,45,270,586,5872
1644177052.199341,-0.00885,0.00824,-0.993835,0.190321,0.386565,0.067481,41,274,580,5888
1644177052.24771,-0.009583,0.010742,-0.992737,0.205588,0.493435,-0.207328,46,274,587,5840
1644177052.296124,-0.010315,0.009399,-0.991699,0.281924,0.401832,-0.207328,41,276,585,5888
1644177052.344536,-0.009705,0.011536,-0.989746,0.159786,0.264427,-0.100458,53,271,583,5888
1644177052.392918,-0.007874,0.009094,-0.990112,0.205588,0.447634,-0.100458,55,279,594,5888
1644177052.441294,-0.011047,0.011719,-0.992859,0.236122,0.279695,-0.222595,61,282,582,5904
1644177052.489675,-0.010925,0.008911,-0.992126,0.297191,0.279695,-0.222595,53,279,594,5872
1644177052.538079,-0.010864,0.008057,-0.992371,0.373527,0.417099,-0.115725,51,271,590,5888
1644177052.586471,-0.006714,0.012268,-0.990295,0.297191,0.310229,0.006412,53,286,601,5840
1644177052.635219,-0.006287,0.010681,-0.99176,0.251389,0.478168,-0.161527,54,270,582,5840
1644177052.683971,-0.012207,0.008362,-0.99176,0.251389,0.493435,0.006412,47,285,579,5840
1644177052.734626,-0.010193,0.010437,-0.99231,0.190321,0.386565,-0.222595,46,266,587,5840
1644177052.784675,-0.010254,0.009155,-0.992065,0.220855,0.356031,-0.100458,45,282,589,5872
1644177052.829706,-0.009399,0.008667,-0.990479,0.297191,0.386565,0.082748,45,268,589,5904
1644177052.925447,-0.012878,0.007324,-0.992249,0.251389,0.264427,-0.161527,48,279,583,5824
1644177052.973642,-0.006897,0.007263,-0.992249,0.190321,0.493435,-0.14626,58,271,587,5808
1644177053.022031,-0.009583,0.007812,-0.99292,0.342992,0.401832,0.067481,46,269,597,5888
1644177053.071328,-0.012024,0.011963,-0.994812,0.327725,0.447634,-0.069924,48,276,590,5952
1644177053.11872,-0.006775,0.008789,-0.990051,0.312458,0.554504,-0.054656,42,263,579,5840
1644177053.16716,-0.010925,0.011047,-0.991089,0.327725,0.417099,-0.115725,46,271,587,5888
1644177053.215553,-0.007446,0.00885,-0.991028,0.129252,0.432366,0.036947,58,279,590,5904
1644177053.263953,-0.011597,0.009949,-0.991028,0.129252,0.447634,-0.207328,51,279,585,5888
1644177053.312332,-0.010498,0.007019,-0.99115,0.236122,0.447634,0.036947,58,271,592,5888
1644177053.360738,-0.007812,0.007446,-0.991028,0.266656,0.325496,-0.14626,49,268,589,5824
1644177053.409125,-0.00885,0.009949,-0.992065,0.266656,0.340763,-0.024122,46,279,587,5776
1644177053.457512,-0.00769,0.008972,-0.99231,0.205588,0.432366,-0.024122,52,275,584,5888
1644177053.505909,-0.006165,0.009644,-0.991455,0.220855,0.401832,-0.039389,55,276,585,5872
1644177053.554318,-0.008728,0.011536,-0.990601,0.205588,0.340763,-0.207328,43,271,573,5840
1644177053.602675,-0.008057,0.008728,-0.98999,0.175053,0.63084,-0.161527,52,270,582,5888
1644177053.651083,-0.009583,0.00708,-0.993408,0.236122,0.386565,-0.115725,53,281,580,5936
1644177053.699445,-0.011169,0.010315,-0.991272,0.205588,0.371298,-0.054656,51,281,590,5888
1644177053.747841,-0.007874,0.008789,-0.990784,0.037649,0.325496,-0.100458,46,274,587,5904
1644177053.79635,-0.011292,0.009949,-0.989441,0.144519,0.523969,-0.115725,52,275,584,5888
1644177053.846296,-0.007507,0.013245,-0.992981,0.281924,0.432366,-0.085191,46,276,590,5904
1644177053.895874,-0.01123,0.009399,-0.991089,0.281924,0.432366,-0.054656,52,270,582,5888
1644177053.946247,-0.008545,0.009583,-0.991089,0.236122,0.417099,-0.069924,52,273,579,5888
1644177053.990772,-0.010071,0.011719,-0.990845,0.342992,0.417099,0.067481,54,280,586,5888
1644177054.088172,-0.011902,0.008911,-0.992676,0.35826,0.447634,-0.008855,47,280,582,5840
1644177054.135252,-0.009033,0.009277,-0.99231,0.297191,0.615573,-0.039389,48,271,583,5904
1644177054.183399,-0.007446,0.011169,-0.992249,0.266656,0.310229,-0.130992,46,271,583,5872
1644177054.23178,-0.009888,0.009644,-0.992126,0.297191,0.371298,-0.069924,39,266,583,5872
1644177054.280158,-0.007324,0.010315,-0.990051,0.129252,0.508702,0.098015,48,279,578,5872
1644177054.32857,-0.007996,0.009277,-0.993103,0.190321,0.447634,-0.207328,48,266,580,5904
1644177054.376953,-0.009094,0.008484,-0.991028,0.236122,0.523969,-0.115725,43,274,580,5888
1644177054.42534,-0.00885,0.011902,-0.992188,0.08345,0.371298,-0.115725,52,273,582,5872
1644177054.473752,-0.008179,0.00885,-0.991638,0.190321,0.478168,-0.024122,43,281,585,5872
1644177054.52225,-0.009949,0.010437,-0.98822,0.113985,0.340763,-0.237863,51,274,580,5824
1644177054.570519,-0.009277,0.008423,-0.992737,0.175053,0.24916,-0.14626,55,279,585,5824
1644177054.618912,-0.010437,0.009033,-0.992065,0.175053,0.371298,0.021679,54,282,593,5808
1644177054.6673,-0.007812,0.00824,-0.990662,0.266656,0.417099,0.052214,47,282,579,5872
1644177054.715695,-0.008667,0.010071,-0.989868,0.35826,0.569771,-0.130992,47,280,584,5888
1644177054.764086,-0.007935,0.009705,-0.992188,0.342992,0.447634,-0.085191,48,266,583,5872
1644177054.812711,-0.008484,0.008362,-0.990479,0.251389,0.447634,-0.069924,53,286,585,5872
1644177054.861179,-0.011963,0.007019,-0.990845,0.266656,0.233893,-0.085191,47,268,582,5840
1644177054.911857,-0.007874,0.00885,-0.989746,0.236122,0.508702,-0.207328,45,273,593,5888
1644177054.962454,-0.010315,0.012695,-0.991333,0.327725,0.233893,-0.130992,43,279,583,5872
1644177055.070928,-0.009094,0.006042,-0.993713,0.08345,0.294962,-0.115725,35,273,589,5840
1644177055.105112,-0.006409,0.006836,-0.991272,0.266656,0.478168,-0.054656,58,279,583,5872
1644177055.151215,-0.00824,0.007507,-0.992126,0.236122,0.478168,-0.024122,49,292,591,5888
1644177055.199605,-0.007874,0.01001,-0.993591,0.251389,0.417099,-0.161527,53,271,585,5888
1644177055.247992,-0.008118,0.006714,-0.990723,0.342992,0.24916,-0.25313,47,280,584,5872
1644177055.296398,-0.008118,0.010986,-0.990845,0.220855,0.386565,-0.100458,52,287,584,5872
1644177055.344788,-0.010925,0.008057,-0.992126,0.236122,0.279695,-0.222595,54,273,586,5904
1644177055.393187,-0.007019,0.007141,-0.989441,0.342992,0.493435,-0.054656,52,282,579,5872
1644177055.441557,-0.009094,0.008423,-0.992249,0.236122,0.462901,-0.039389,49,292,579,5872
1644177055.489976,-0.009155,0.010254,-0.989014,0.144519,0.462901,0.021679,48,279,583,5872
1644177055.538346,-0.009705,0.011841,-0.991211,0.266656,0.310229,0.143817,59,260,586,5872
1644177055.58765,-0.011475,0.013489,-0.990234,0.129252,0.417099,-0.115725,47,277,586,5872
1644177055.638229,-0.007324,0.012146,-0.99115,0.220855,0.310229,-0.115725,54,263,582,5840
1644177055.688338,-0.00824,0.007263,-0.993469,0.266656,0.417099,-0.115725,49,265,586,5840
1644177055.733227,-0.010437,0.00769,-0.992004,0.281924,0.356031,-0.054656,45,270,586,5872
1644177055.828671,-0.007507,0.009766,-0.993713,0.052916,0.447634,0.052214,41,269,583,5824
1644177055.877108,-0.008911,0.009827,-0.992615,0.129252,0.401832,-0.14626,46,269,585,5872
1644177055.9255,-0.009277,0.007935,-0.993896,0.342992,0.401832,-0.100458,45,275,582,5888
1644177055.973908,-0.010925,0.008179,-0.993042,0.327725,0.386565,-0.130992,52,275,582,5840
1644177056.022321,-0.008545,0.00769,-0.992004,0.281924,0.371298,0.052214,47,270,586,5824
1644177056.071442,-0.011475,0.008301,-0.99115,0.175053,0.478168,-0.100458,43,271,604,5840
1644177056.119085,-0.007385,0.010742,-0.989746,0.266656,0.447634,-0.008855,55,281,573,5872
1644177056.167442,-0.007324,0.010437,-0.990845,0.220855,0.508702,-0.039389,46,276,592,5808
1644177056.215831,-0.007263,0.009155,-0.991211,0.46513,0.325496,-0.115725,36,279,585,5872
1644177056.264217,-0.009644,0.010193,-0.991699,0.236122,0.386565,-0.069924,48,279,592,5888
1644177056.312894,-0.008911,0.011719,-0.989136,0.327725,0.325496,-0.100458,51,279,583,5872
1644177056.360992,-0.008545,0.007751,-0.99054,0.144519,0.585038,-0.115725,49,275,586,5872
1644177056.409396,-0.009277,0.012329,-0.990906,0.327725,0.340763,-0.008855,43,276,587,5872
1644177056.457787,-0.009033,0.011108,-0.990479,0.327725,0.417099,-0.14626,53,274,583,5824
1644177056.50615,-0.008606,0.010681,-0.990906,0.297191,0.340763,-0.192061,40,277,593,5888
1644177056.55462,-0.006226,0.009705,-0.994934,0.144519,0.386565,-0.14626,49,273,596,5872
1644177056.602972,-0.007324,0.009766,-0.990051,0.327725,0.417099,0.006412,47,277,593,5808
1644177056.651347,-0.01355,0.011841,-0.991638,0.205588,0.401832,-0.100458,42,282,593,5840
1644177056.700058,-0.007996,0.011902,-0.987915,0.266656,0.478168,-0.130992,48,276,587,5888
1644177056.748895,-0.010986,0.008728,-0.99054,0.205588,0.401832,-0.14626,52,275,586,5824
1644177056.799927,-0.005188,0.010559,-0.99353,0.220855,0.340763,0.036947,52,280,579,5888
1644177056.850614,-0.008972,0.008911,-0.989441,0.327725,0.462901,-0.100458,45,273,596,5888
1644177056.941709,-0.009644,0.010559,-0.991211,0.190321,0.432366,-0.039389,51,279,578,5872
1644177056.990117,-0.009155,0.007263,-0.991333,0.281924,0.417099,-0.14626,41,281,583,5872
1644177057.038516,-0.008728,0.012146,-0.993286,0.236122,0.432366,-0.130992,43,274,583,5840
1644177057.087007,-0.007446,0.008484,-0.988647,0.388794,0.386565,-0.115725,58,279,583,5840
1644177057.135339,-0.006836,0.009644,-0.991333,0.159786,0.325496,-0.008855,57,273,586,5872
1644177057.183657,-0.007874,0.012085,-0.990234,0.404061,0.294962,-0.039389,35,287,584,5760
1644177057.232055,-0.008728,0.007812,-0.991211,0.373527,0.325496,0.036947,46,266,583,5872
1644177057.280437,-0.005005,0.009216,-0.989929,0.159786,0.340763,-0.192061,49,270,589,5824
1644177057.328819,-0.007751,0.009155,-0.990601,0.236122,0.432366,-0.085191,57,273,584,5872
1644177057.377223,-0.010925,0.009521,-0.991272,0.266656,0.493435,-0.176794,49,280,586,5776
1644177057.42561,-0.00824,0.008972,-0.990601,0.327725,0.417099,-0.085191,61,277,586,5840
1644177057.474006,-0.007385,0.009949,-0.990723,0.266656,0.264427,0.052214,48,281,585,5872
1644177057.522416,-0.012268,0.010315,-0.989929,0.159786,0.294962,-0.024122,41,276,587,5888
1644177057.570789,-0.011719,0.008789,-0.990723,0.266656,0.447634,-0.039389,52,275,586,5872
1644177057.61918,-0.007324,0.01178,-0.98999,0.190321,0.401832,-0.176794,47,275,586,5840
1644177057.667578,-0.010254,0.009033,-0.991333,0.175053,0.478168,-0.085191,49,275,596,5888
1644177057.715932,-0.008972,0.009277,-0.992126,0.068183,0.417099,-0.207328,53,279,585,5904
1644177057.764349,-0.009644,0.009827,-0.989807,0.312458,0.462901,-0.130992,54,280,582,5840
1644177057.812892,-0.009705,0.008118,-0.991577,0.190321,0.294962,-0.115725,47,287,586,5872
1644177057.864705,-0.009644,0.009583,-0.992493,0.266656,0.371298,-0.115725,39,279,587,5888
1644177057.91471,-0.011108,0.011047,-0.990295,0.266656,0.325496,-0.100458,48,274,576,5840
1644177057.959136,-0.009827,0.008423,-0.989624,0.129252,0.401832,-0.008855,48,266,583,5904
1644177058.068167,-0.008667,0.007874,-0.989014,0.175053,0.447634,0.021679,43,288,587,5808
1644177058.104001,-0.008728,0.008179,-0.991943,0.190321,0.417099,-0.100458,48,279,585,5872
1644177058.151492,-0.010986,0.011414,-0.992981,0.205588,0.279695,-0.024122,55,279,583,5872
1644177058.199881,-0.006897,0.008667,-0.99054,0.297191,0.493435,-0.008855,55,279,590,5872
1644177058.248245,-0.007446,0.01062,-0.989929,0.220855,0.462901,-0.161527,49,277,591,5840
1644177058.296651,-0.009338,0.009277,-0.994141,0.144519,0.447634,-0.100458,49,275,586,5872
1644177058.345156,-0.009949,0.010559,-0.99231,0.190321,0.340763,-0.039389,52,280,586,5872
1644177058.393457,-0.008057,0.011597,-0.992981,0.388794,0.294962,-0.039389,52,273,586,5872
1644177058.441809,-0.007263,0.009277,-0.99231,0.190321,0.340763,-0.085191,49,277,582,5872
1644177058.490288,-0.006531,0.01239,-0.991272,0.159786,0.493435,-0.008855,47,277,591,5840
1644177058.538612,-0.007996,0.00824,-0.992371,0.190321,0.325496,-0.100458,47,270,582,5872
1644177058.587001,-0.006775,0.009399,-0.992859,0.190321,0.508702,-0.085191,45,280,593,5840
1644177058.635699,-0.008057,0.009766,-0.990234,0.251389,0.539237,-0.039389,45,268,579,5824
1644177058.68633,-0.007507,0.009094,-0.993042,0.297191,0.447634,-0.115725,47,268,593,5824
1644177058.736375,-0.007202,0.009155,-0.99115,0.266656,0.401832,-0.069924,43,274,592,5872
1644177058.781454,-0.012024,0.008911,-0.989868,0.297191,0.447634,-0.039389,47,277,584,5872
1644177058.877339,-0.007629,0.012024,-0.991516,0.312458,0.417099,-0.161527,38,275,589,5904
1644177058.925768,-0.011169,0.011292,-0.992249,0.266656,0.24916,-0.008855,49,268,584,5840
1644177058.974185,-0.009827,0.00946,-0.993164,0.342992,0.462901,-0.054656,48,274,583,5808
1644177059.022581,-0.008179,0.010071,-0.990356,0.144519,0.493435,-0.069924,57,270,577,5888
1644177059.072251,-0.011108,0.008911,-0.990295,0.236122,0.325496,-0.054656,51,279,592,5840
1644177059.119266,-0.007996,0.009888,-0.991455,0.266656,0.508702,-0.176794,47,270,596,5888
1644177059.167692,-0.011169,0.008789,-0.993469,0.281924,0.386565,-0.115725,48,281,580,5824
1644177059.216098,-0.01001,0.009338,-0.993164,0.35826,0.386565,-0.069924,42,280,586,5872
1644177059.264489,-0.010986,0.010742,-0.990723,0.129252,0.371298,0.098015,39,279,587,5840
1644177059.312857,-0.009155,0.009155,-0.993225,0.220855,0.462901,-0.039389,52,280,586,5936
1644177059.361272,-0.009094,0.009644,-0.992432,0.220855,0.294962,-0.069924,40,280,586,5824
1644177059.40966,-0.007202,0.009888,-0.989624,0.251389,0.447634,0.052214,54,273,582,5904
1644177059.45805,-0.008728,0.010254,-0.991577,0.175053,0.432366,-0.024122,42,285,586,5888
1644177059.506418,-0.008606,0.010315,-0.990784,0.281924,0.356031,-0.130992,48,269,592,5808
1644177059.55485,-0.007996,0.006958,-0.989014,0.205588,0.386565,-0.115725,46,281,597,5888
1644177059.60323,-0.010376,0.01178,-0.993042,0.281924,0.371298,-0.14626,48,271,580,5872
1644177059.651612,-0.007385,0.011169,-0.989929,0.205588,0.386565,-0.115725,49,285,584,5824
1644177059.699992,-0.007996,0.008423,-0.990112,0.236122,0.294962,-0.085191,55,281,587,5888
1644177059.748367,-0.009521,0.011169,-0.989258,0.175053,0.401832,-0.268397,54,282,589,5840
1644177059.796938,-0.006836,0.01178,-0.991333,0.175053,0.432366,-0.161527,59,273,589,5888
1644177059.848521,-0.007019,0.01178,-0.987366,0.312458,0.432366,-0.085191,42,270,582,5888
1644177059.898285,-0.00885,0.010071,-0.991089,0.327725,0.24916,-0.14626,49,280,591,5888
1644177059.942749,-0.007568,0.01123,-0.990112,0.312458,0.386565,-0.069924,40,277,577,5872
1644177060.038796,-0.008972,0.008667,-0.991638,0.052916,0.432366,-0.054656,49,273,579,5872
1644177060.087487,-0.00647,0.008179,-0.993286,0.251389,0.493435,-0.130992,52,275,586,5808
1644177060.135512,-0.007019,0.010376,-0.99176,0.205588,0.417099,-0.192061,42,277,577,5872
1644177060.183932,-0.009949,0.010925,-0.99054,0.266656,0.478168,-0.039389,55,259,583,5936
1644177060.232328,-0.009399,0.01178,-0.990112,0.190321,0.264427,-0.14626,53,271,580,5840
1644177060.280669,-0.007751,0.009827,-0.992188,0.251389,0.325496,-0.039389,43,283,583,5888
1644177060.329108,-0.010376,0.011108,-0.994263,0.113985,0.325496,-0.069924,52,273,577,5824
1644177060.377493,-0.006836,0.013245,-0.992371,0.068183,0.325496,0.052214,49,273,586,5824
1644177060.425891,-0.008911,0.011841,-0.987915,0.144519,0.386565,-0.130992,55,279,590,5840
1644177060.474252,-0.010132,0.011353,-0.992065,0.342992,0.386565,-0.14626,49,273,593,5904
1644177060.522688,-0.008606,0.011841,-0.990906,0.342992,0.279695,-0.024122,54,263,586,5872
1644177060.571057,-0.008118,0.013,-0.993042,0.342992,0.386565,-0.054656,51,281,580,5904
1644177060.619532,-0.009094,0.009766,-0.98999,0.388794,0.371298,-0.024122,43,276,578,5872
1644177060.667832,-0.00708,0.013611,-0.992188,0.190321,0.493435,-0.161527,48,271,583,5776
1644177060.716209,-0.006714,0.007629,-0.990845,0.205588,0.386565,-0.130992,45,275,593,5872
1644177060.764653,-0.006531,0.011475,-0.990784,0.236122,0.279695,-0.329466,48,274,587,5840
1644177060.813076,-0.009949,0.008911,-0.992432,0.327725,0.340763,-0.25313,51,274,587,5808
1644177060.861463,-0.007507,0.009521,-0.991272,0.205588,0.310229,-0.176794,42,282,589,5808
1644177060.910004,-0.011597,0.009033,-0.99408,0.190321,0.340763,-0.069924,41,279,587,5776
1644177060.960233,-0.009521,0.009644,-0.991882,0.342992,0.386565,-0.024122,49,268,577,5824
1644177061.06491,-0.006653,0.009766,-0.992615,0.113985,0.478168,-0.314198,47,282,584,5888
1644177061.107028,-0.008362,0.01239,-0.992126,0.175053,0.478168,-0.161527,55,276,597,5776
1644177061.151724,-0.00824,0.011902,-0.989075,0.495664,0.462901,-0.024122,48,269,576,5824
1644177061.200147,-0.006104,0.012207,-0.992859,0.190321,0.325496,-0.130992,52,275,596,5888
1644177061.248504,-0.006226,0.009216,-0.990417,0.220855,0.508702,-0.14626,43,269,585,5872
1644177061.296895,-0.00946,0.00824,-0.993591,0.220855,0.493435,-0.069924,45,275,598,5888
1644177061.34532,-0.01001,0.008118,-0.989075,0.113985,0.447634,-0.130992,53,266,590,5872
1644177061.393718,-0.008728,0.012451,-0.990356,0.266656,0.432366,-0.085191,47,277,584,5888
1644177061.442198,-0.005249,0.007996,-0.990234,0.159786,0.340763,-0.024122,58,269,587,5904
1644177061.490512,-0.009094,0.009521,-0.993225,0.205588,0.417099,-0.176794,43,274,587,5888
1644177061.538882,-0.009216,0.010071,-0.993225,0.236122,0.462901,-0.069924,46,276,585,5840
1644177061.587283,-0.008179,0.009766,-0.987793,0.205588,0.356031,-0.176794,53,257,583,5904
1644177061.635663,-0.009033,0.009521,-0.98999,0.388794,0.340763,-0.130992,57,265,584,5936
1644177061.684047,-0.008484,0.008301,-0.990723,0.190321,0.508702,-0.085191,42,280,591,5872
1644177061.732679,-0.009888,0.008118,-0.991028,0.404061,0.401832,-0.085191,48,269,580,5872
1644177061.782874,-0.008972,0.009644,-0.991882,0.159786,0.493435,-0.085191,49,273,589,5840
1644177061.83433,-0.009583,0.009521,-0.992126,0.144519,0.340763,-0.115725,47,273,577,5888
1644177061.878814,-0.009583,0.011597,-0.990356,0.159786,0.554504,-0.100458,43,274,590,5872
1644177061.974453,-0.010315,0.010193,-0.988281,0.220855,0.279695,-0.054656,45,275,582,5824
1644177062.022833,-0.009155,0.011658,-0.992859,0.35826,0.340763,-0.161527,51,271,590,5888
1644177062.071321,-0.009705,0.009888,-0.990601,0.297191,0.508702,-0.14626,52,280,591,5888
1644177062.11953,-0.009033,0.010498,-0.989868,0.236122,0.432366,-0.085191,48,262,587,5872
1644177062.167946,-0.006653,0.008972,-0.990967,0.159786,0.539237,-0.069924,49,277,589,5872
1644177062.216353,-0.009277,0.010193,-0.991943,0.327725,0.310229,0.067481,49,282,582,5824
1644177062.264766,-0.009949,0.010254,-0.993469,0.08345,0.264427,-0.176794,43,276,585,5872
1644177062.313135,-0.009888,0.005432,-0.990906,0.129252,0.462901,-0.069924,42,273,589,5824
1644177062.361527,-0.010925,0.008606,-0.991516,0.251389,0.447634,-0.069924,47,273,575,5872
1644177062.40993,-0.009399,0.008362,-0.990845,0.144519,0.432366,-0.054656,48,276,576,5904
1644177062.458354,-0.009705,0.008423,-0.992065,0.342992,0.386565,0.021679,52,280,584,5872
1644177062.506709,-0.010681,0.010803,-0.993286,0.236122,0.432366,0.052214,38,268,591,5872
1644177062.555198,-0.009155,0.005432,-0.990417,0.175053,0.478168,-0.069924,45,282,582,5872
1644177062.603507,-0.007568,0.007568,-0.992188,0.281924,0.294962,-0.054656,42,277,596,5888
1644177062.651876,-0.010376,0.009766,-0.993835,0.08345,0.340763,-0.207328,51,274,583,5872
1644177062.700272,-0.008362,0.012085,-0.991394,0.144519,0.462901,-0.008855,51,279,583,5872
1644177062.748668,-0.008667,0.01178,-0.991455,0.068183,0.401832,-0.054656,49,282,586,5936
1644177062.797056,-0.009705,0.008728,-0.990417,0.220855,0.340763,-0.008855,47,280,596,5872
1644177062.845742,-0.008362,0.012634,-0.993347,0.159786,0.294962,-0.024122,49,273,591,5824
1644177062.894888,-0.010315,0.008057,-0.991089,0.251389,0.478168,-0.069924,46,279,585,5888
1644177062.94551,-0.009399,0.008911,-0.992249,0.190321,0.356031,-0.054656,51,276,590,5824
1644177062.995613,-0.010071,0.009766,-0.992371,0.220855,0.401832,-0.130992,45,268,589,5824
1644177063.087515,-0.005615,0.009094,-0.990906,0.404061,0.340763,-0.176794,58,274,576,5840
1644177063.135822,-0.009033,0.010864,-0.992493,0.327725,0.447634,-0.130992,46,276,576,5824
1644177063.184189,-0.008301,0.008606,-0.992554,0.327725,0.310229,-0.14626,54,277,586,5824
1644177063.23259,-0.008484,0.009338,-0.989929,0.098718,0.386565,-0.283664,53,269,590,5824
1644177063.280966,-0.008728,0.007324,-0.988342,0.190321,0.218626,-0.100458,48,271,578,5840
1644177063.32935,-0.007874,0.00885,-0.992737,0.251389,0.493435,-0.115725,58,266,578,5840
1644177063.377757,-0.008484,0.009338,-0.990479,0.220855,0.386565,-0.069924,45,273,589,5904
1644177063.42614,-0.013,0.012207,-0.991638,0.205588,0.310229,-0.069924,52,273,579,5888
1644177063.47454,-0.009949,0.010071,-0.98999,0.281924,0.294962,-0.130992,42,277,577,5904
1644177063.522947,-0.007385,0.009216,-0.990479,0.404061,0.279695,-0.054656,51,281,578,5840
1644177063.571313,-0.007996,0.01001,-0.991943,0.35826,0.279695,-0.085191,42,268,582,5936
1644177063.619675,-0.00647,0.010376,-0.989624,0.46513,0.401832,0.006412,45,273,582,5888
1644177063.668087,-0.010437,0.010803,-0.992188,0.373527,0.508702,-0.024122,54,280,582,5840
1644177063.716492,-0.00769,0.007507,-0.992615,0.113985,0.264427,-0.176794,47,273,584,5872
1644177063.764881,-0.00885,0.009094,-0.99469,0.205588,0.462901,-0.069924,39,281,583,5824
1644177063.813281,-0.009705,0.008057,-0.991089,0.159786,0.417099,0.021679,49,275,589,5824
1644177063.861724,-0.008179,0.01001,-0.990112,0.144519,0.356031,-0.100458,47,282,591,5840
1644177063.910263,-0.008972,0.011658,-0.992737,0.08345,0.508702,-0.222595,55,271,592,5840
1644177063.958503,-0.009338,0.008728,-0.990845,0.297191,0.493435,0.052214,46,274,587,5840
1644177064.008301,-0.009705,0.015808,-0.99054,0.175053,0.310229,-0.115725,59,273,579,5888
1644177064.104699,-0.009888,0.010742,-0.992493,0.281924,0.417099,-0.237863,47,285,577,5872
1644177064.152023,-0.011902,0.012146,-0.991211,0.327725,0.340763,-0.024122,53,281,585,5808
1644177064.20041,-0.00708,0.012512,-0.989014,0.342992,0.523969,-0.100458,53,281,583,5888
1644177064.248824,-0.010193,0.011169,-0.990051,0.46513,0.508702,-0.115725,57,287,586,5904
1644177064.297208,-0.011902,0.009644,-0.99054,0.129252,0.401832,0.052214,57,275,582,5872
1644177064.345588,-0.010376,0.009888,-0.99176,0.205588,0.447634,0.006412,52,280,582,5872
1644177064.39396,-0.00769,0.008301,-0.991333,0.236122,0.462901,0.006412,52,280,591,5776
1644177064.44238,-0.010437,0.009094,-0.991272,0.175053,0.386565,-0.069924,52,277,575,5872
1644177064.490774,-0.008301,0.012146,-0.991821,0.266656,0.615573,0.067481,57,282,593,5872
1644177064.539153,-0.00708,0.005249,-0.991394,0.144519,0.386565,-0.207328,52,273,596,5840
1644177064.587529,-0.007812,0.010315,-0.991028,0.159786,0.539237,-0.024122,49,275,579,5952
1644177064.635906,-0.007751,0.008606,-0.991272,0.037649,0.417099,-0.100458,49,275,582,5824
1644177064.684653,-0.00885,0.011719,-0.995178,0.342992,0.386565,-0.192061,51,274,590,5872
1644177064.733862,-0.010803,0.009827,-0.992798,0.129252,0.478168,-0.176794,42,280,579,5888
1644177064.784209,-0.008728,0.011536,-0.989746,0.129252,0.340763,-0.054656,51,274,594,5824
1644177064.834499,-0.011597,0.009094,-0.989563,0.144519,0.569771,-0.14626,47,273,589,5872
1644177064.926301,-0.010986,0.009155,-0.992737,0.266656,0.371298,-0.192061,46,281,585,5904
1644177064.974902,-0.008301,0.010376,-0.992737,0.342992,0.356031,-0.192061,52,282,589,5936
1644177065.023104,-0.009888,0.010742,-0.991333,0.236122,0.417099,-0.008855,49,280,586,5776
1644177065.071548,-0.008362,0.011292,-0.991699,0.266656,0.371298,-0.024122,53,281,594,5872
1644177065.119871,-0.013245,0.011841,-0.991028,0.266656,0.24916,-0.085191,54,277,589,5888
1644177065.168275,-0.011108,0.009644,-0.992065,0.175053,0.386565,-0.25313,55,269,592,5904
1644177065.216622,-0.008179,0.011353,-0.991577,0.205588,0.401832,0.12855,46,264,576,5888
1644177065.265262,-0.013855,0.008789,-0.992676,0.113985,0.24916,-0.085191,49,275,584,5840
1644177065.313386,-0.009827,0.008423,-0.990234,0.312458,0.600305,-0.069924,49,268,586,5808
1644177065.361784,-0.009216,0.01001,-0.988098,0.373527,0.325496,-0.085191,46,271,590,5872
1644177065.410197,-0.009521,0.010742,-0.992737,0.175053,0.294962,-0.085191,51,276,594,5952
1644177065.458586,-0.009644,0.007874,-0.990845,0.236122,0.462901,-0.039389,48,266,571,5904
1644177065.506969,-0.008179,0.010498,-0.994141,0.190321,0.493435,-0.14626,52,280,593,5872
1644177065.55537,-0.01178,0.010193,-0.990601,0.266656,0.478168,-0.14626,41,283,587,5888
1644177065.603761,-0.010925,0.008606,-0.989868,0.297191,0.310229,-0.054656,53,269,580,5840
1644177065.652165,-0.01001,0.008545,-0.992371,0.266656,0.386565,-0.344733,53,279,580,5888
1644177065.700539,-0.009033,0.011353,-0.988953,0.159786,0.447634,0.006412,47,277,586,5872
1644177065.748911,-0.009216,0.007996,-0.989441,0.236122,0.569771,-0.25313,53,283,580,5872
1644177065.797317,-0.009399,0.008301,-0.992981,0.312458,0.432366,-0.008855,60,271,590,5872
1644177065.846086,-0.006714,0.008911,-0.99054,0.190321,0.401832,-0.054656,46,271,585,5952
1644177065.896217,-0.00592,0.008545,-0.990417,0.205588,0.508702,-0.008855,57,273,582,5904
1644177065.947262,-0.010315,0.009644,-0.992981,0.175053,0.508702,-0.115725,48,269,590,5872
1644177065.991722,-0.009521,0.008301,-0.99115,0.236122,0.310229,-0.115725,48,279,580,5840
1644177066.089186,-0.010681,0.009949,-0.990784,0.35826,0.386565,-0.130992,60,274,587,5808
1644177066.136023,-0.010071,0.010925,-0.991272,0.312458,0.279695,-0.176794,40,270,577,5888
1644177066.184471,-0.008545,0.009155,-0.989868,0.281924,0.554504,-0.115725,52,280,582,5840
1644177066.232862,-0.006714,0.00824,-0.992493,0.236122,0.462901,-0.100458,47,273,584,5872
1644177066.281221,-0.013184,0.009338,-0.992249,0.404061,0.432366,-0.207328,46,274,583,5888
1644177066.329637,-0.011169,0.010742,-0.991211,0.266656,0.401832,0.006412,41,281,578,5840
1644177066.378006,-0.009949,0.00769,-0.989441,0.144519,0.371298,-0.115725,49,263,579,5840
1644177066.426426,-0.007324,0.013062,-0.988403,0.205588,0.493435,0.006412,43,271,580,5872
1644177066.474829,-0.008118,0.011414,-0.990662,0.236122,0.447634,-0.161527,45,282,577,5824
1644177066.523218,-0.006042,0.011902,-0.990112,0.251389,0.325496,-0.054656,46,264,580,5824
1644177066.571591,-0.008118,0.012268,-0.990845,0.236122,0.371298,-0.039389,48,279,587,5840
1644177066.619969,-0.01001,0.010498,-0.988831,0.220855,0.432366,-0.069924,45,282,586,5872
1644177066.66838,-0.008606,0.010376,-0.991272,0.144519,0.279695,0.036947,45,273,586,5840
1644177066.716765,-0.008545,0.009705,-0.992126,0.404061,0.24916,-0.130992,53,283,592,5824
1644177066.765301,-0.008484,0.011902,-0.989868,0.068183,0.478168,0.113282,46,281,580,5872
1644177066.813582,-0.007629,0.01062,-0.989685,0.236122,0.356031,-0.100458,48,276,592,5952
1644177066.861995,-0.010742,0.008423,-0.98938,0.342992,0.432366,-0.192061,45,270,584,5824
1644177066.910388,-0.008484,0.010864,-0.993164,0.205588,0.371298,-0.069924,59,277,575,5824
1644177066.959993,-0.008484,0.010864,-0.992126,0.281924,0.508702,-0.130992,45,268,589,5904
1644177067.067839,-0.00885,0.009949,-0.992432,0.098718,0.417099,-0.268397,45,273,584,5824
1644177067.103909,-0.01062,0.011292,-0.989929,0.312458,0.325496,-0.161527,51,274,587,5872
1644177067.152841,-0.008728,0.011475,-0.992493,0.342992,0.401832,-0.054656,57,277,591,5840
1644177067.200668,-0.011169,0.011841,-0.993347,0.312458,0.401832,-0.024122,52,275,577,5888
1644177067.249044,-0.010681,0.011658,-0.991577,0.327725,0.417099,-0.161527,52,265,586,5888
1644177067.297461,-0.009888,0.009521,-0.992188,0.35826,0.417099,-0.237863,40,273,586,5824
1644177067.345827,-0.005005,0.013489,-0.990906,0.159786,0.462901,-0.054656,53,276,583,5824
