epoch,acc_x,acc_y,acc_z,rot_x,rot_y,rot_z,mag_x,mag_y,mag_z,temp
1644190200.060539,-0.009277,0.007629,-0.990784,0.144519,0.462901,-0.14626,51,274,583,6160
1644190200.103584,-0.008972,0.010437,-0.989807,0.220855,0.371298,-0.024122,49,275,586,6240
1644190200.149023,-0.008423,0.007141,-0.992859,0.373527,0.401832,-0.14626,57,275,582,6240
1644190200.197366,-0.012329,0.010132,-0.993347,0.266656,0.508702,-0.069924,59,268,584,6192
1644190200.245743,-0.005554,0.010803,-0.988403,0.373527,0.493435,0.082748,51,281,571,6224
1644190200.294162,-0.011719,0.008179,-0.993103,0.373527,0.417099,-0.085191,49,285,586,6192
1644190200.342567,-0.007141,0.007874,-0.993408,0.251389,0.447634,0.052214,43,276,585,6240
1644190200.390945,-0.006714,0.011292,-0.991333,0.266656,0.554504,-0.115725,53,276,576,6224
1644190200.439343,-0.00769,0.009766,-0.992126,0.159786,0.386565,-0.176794,54,280,591,6224
1644190200.487734,-0.009766,0.00647,-0.991333,0.113985,0.340763,0.052214,43,283,583,6240
1644190200.536135,-0.00769,0.009094,-0.99353,0.266656,0.523969,-0.024122,49,275,586,6176
1644190200.584527,-0.009644,0.010559,-0.99353,-0.008153,0.310229,-0.039389,54,280,586,6224
1644190200.63293,-0.008545,0.009094,-0.989563,0.373527,0.432366,-0.130992,35,275,589,6224
1644190200.681304,-0.007019,0.00946,-0.992126,0.175053,0.478168,-0.054656,48,279,599,6192
1644190200.729734,-0.010498,0.009338,-0.993103,0.236122,0.432366,-0.069924,65,279,587,6256
1644190200.778493,-0.008972,0.008789,-0.991638,0.297191,0.401832,-0.100458,45,275,586,6240
1644190200.829043,-0.009705,0.00946,-0.990173,0.35826,0.478168,-0.085191,49,277,582,6240
1644190200.879467,-0.008545,0.009277,-0.990479,0.159786,0.462901,-0.024122,45,273,582,6240
1644190200.924676,-0.009277,0.009155,-0.992432,0.129252,0.264427,0.036947,46,281,576,6192
1644190201.020116,-0.007568,0.00946,-0.991516,0.281924,0.478168,-0.192061,48,274,590,6256
1644190201.068536,-0.007263,0.010864,-0.991882,0.312458,0.417099,-0.054656,51,279,597,6240
1644190201.116814,-0.009216,0.008667,-0.991638,0.281924,0.218626,-0.085191,42,270,589,6240
1644190201.165236,-0.010681,0.00946,-0.994141,0.190321,0.417099,-0.14626,52,280,584,6224
1644190201.213651,-0.007996,0.008728,-0.993896,0.297191,0.508702,0.021679,54,277,579,6256
1644190201.262029,-0.008118,0.009338,-0.98999,0.281924,0.432366,-0.14626,48,276,585,6192
1644190201.310415,-0.003967,0.012268,-0.991821,0.297191,0.340763,0.052214,47,280,582,6256
1644190201.358805,-0.007629,0.008057,-0.98999,0.266656,0.447634,-0.115725,54,282,579,6288
1644190201.407217,-0.008911,0.009216,-0.98999,0.281924,0.371298,-0.100458,47,280,584,6256
1644190201.45557,-0.011963,0.007935,-0.991272,0.312458,0.218626,-0.085191,49,280,577,6224
1644190201.504007,-0.008728,0.008972,-0.989014,0.144519,0.401832,-0.054656,52,275,591,6256
1644190201.5524,-0.005249,0.010071,-0.992188,0.312458,0.279695,-0.176794,52,280,591,6240
1644190201.600761,-0.010132,0.012573,-0.992432,0.312458,0.493435,-0.176794,46,276,590,6224
1644190201.649212,-0.007996,0.011108,-0.993469,0.281924,0.447634,0.036947,57,273,596,6176
1644190201.697561,-0.009033,0.010193,-0.992188,0.052916,0.417099,-0.039389,45,275,586,6240
1644190201.745975,-0.008545,0.012756,-0.990112,0.175053,0.432366,-0.069924,61,275,593,6176
1644190201.79439,-0.008362,0.012024,-0.990112,0.236122,0.401832,0.006412,38,273,589,6224
1644190201.84313,-0.008545,0.011414,-0.993408,0.342992,0.432366,-0.069924,52,273,582,6240
1644190201.891549,-0.007263,0.009521,-0.991394,0.144519,0.478168,-0.085191,55,279,587,6224
1644190201.941086,-0.009216,0.009583,-0.990356,0.312458,0.447634,0.067481,48,276,580,6288
1644190201.991286,-0.009521,0.011536,-0.990784,0.129252,0.447634,-0.130992,53,283,576,6224
1644190202.041658,-0.01001,0.010071,-0.991394,0.220855,0.218626,-0.069924,43,279,590,6224
1644190202.133121,-0.011169,0.008545,-0.993103,0.251389,0.447634,-0.054656,46,274,576,6288
1644190202.181489,-0.009399,0.010803,-0.991211,0.251389,0.447634,-0.008855,54,273,586,6176
1644190202.229885,-0.008789,0.008545,-0.990295,0.129252,0.356031,-0.054656,51,286,578,6192
1644190202.278247,-0.007874,0.009644,-0.990234,0.266656,0.508702,-0.008855,49,280,586,6224
1644190202.326654,-0.007507,0.007935,-0.994629,0.113985,0.417099,-0.054656,46,271,580,6224
1644190202.375098,-0.008484,0.010498,-0.990173,0.312458,0.523969,-0.298931,55,274,585,6224
1644190202.423473,-0.009216,0.006531,-0.994019,0.327725,0.279695,-0.130992,58,276,576,6176
1644190202.471858,-0.009521,0.007874,-0.992432,0.373527,0.447634,0.067481,54,280,586,6224
1644190202.520243,-0.008301,0.00824,-0.993225,0.342992,0.523969,0.021679,52,268,579,6224
1644190202.568638,-0.009399,0.007629,-0.989441,0.236122,0.233893,-0.161527,61,273,586,6240
1644190202.617037,-0.00708,0.008972,-0.989624,0.129252,0.478168,-0.115725,59,275,586,6240
1644190202.665422,-0.006226,0.00824,-0.992493,0.144519,0.432366,-0.100458,54,275,584,6256
1644190202.713832,-0.005127,0.009399,-0.98938,0.297191,0.462901,0.021679,53,283,580,6256
1644190202.762242,-0.00885,0.010559,-0.990967,0.129252,0.417099,-0.054656,46,281,571,6224
1644190202.810625,-0.010071,0.008057,-0.991089,0.251389,0.279695,-0.161527,57,273,579,6256
1644190202.859007,-0.006165,0.007996,-0.991699,0.190321,0.417099,-0.161527,42,275,586,6256
1644190202.907424,-0.00769,0.010559,-0.99292,0.205588,0.401832,0.067481,59,275,579,6224
1644190202.955819,-0.008728,0.007019,-0.992188,0.327725,0.401832,-0.14626,54,273,584,6192
1644190203.004429,-0.007568,0.009521,-0.992065,0.220855,0.508702,-0.192061,46,271,580,6336
1644190203.078859,-0.007263,0.011902,-0.991333,0.236122,0.523969,-0.14626,45,270,591,6256
1644190203.112165,-0.010132,0.009094,-0.990784,0.236122,0.356031,-0.176794,57,273,591,6288
1644190203.153985,-0.008972,0.008972,-0.990906,0.236122,0.417099,0.021679,48,286,587,6176
1644190203.198746,-0.009888,0.012024,-0.990295,0.251389,0.432366,0.067481,52,275,596,6176
1644190203.294531,-0.006958,0.012085,-0.990784,0.220855,0.371298,0.006412,46,281,585,6192
1644190203.342943,-0.009827,0.010925,-0.992676,0.190321,0.401832,0.036947,46,274,578,6256
1644190203.391312,-0.007446,0.008911,-0.992493,0.236122,0.340763,-0.039389,43,276,585,6160
1644190203.439717,-0.010315,0.010681,-0.990723,0.144519,0.523969,0.006412,58,276,578,6256
1644190203.488089,-0.007812,0.012634,-0.990906,0.175053,0.432366,-0.176794,48,279,585,6192
1644190203.536494,-0.007507,0.010376,-0.990784,0.327725,0.24916,-0.192061,57,282,577,6224
1644190203.584888,-0.009094,0.012939,-0.992493,0.205588,0.523969,-0.115725,49,280,579,6256
1644190203.63329,-0.005798,0.010254,-0.992859,0.281924,0.401832,-0.314198,39,274,583,6224
1644190203.681681,-0.007019,0.011047,-0.994629,0.190321,0.310229,-0.085191,46,283,583,6288
1644190203.730069,-0.006958,0.011108,-0.992737,0.251389,0.462901,0.021679,48,286,585,6224
1644190203.778451,-0.007568,0.008667,-0.991638,0.251389,0.417099,-0.100458,51,269,592,6256
1644190203.826898,-0.007568,0.010132,-0.991028,0.266656,0.493435,0.082748,51,279,585,6256
1644190203.875378,-0.006348,0.011108,-0.989685,0.190321,0.401832,-0.054656,45,275,577,6192
1644190203.923697,-0.006165,0.007202,-0.990356,0.190321,0.508702,-0.100458,49,275,589,6240
1644190203.97208,-0.008911,0.010925,-0.99292,0.266656,0.462901,-0.268397,43,269,585,6192
1644190204.02045,-0.006714,0.008484,-0.992432,0.419328,0.478168,-0.14626,53,274,585,6224
1644190204.088306,-0.007996,0.008423,-0.991455,0.266656,0.462901,0.036947,49,280,586,6224
1644190204.121813,-0.007874,0.009521,-0.991882,0.205588,0.401832,-0.115725,41,279,585,6224
1644190204.170916,-0.009094,0.008057,-0.991455,0.236122,0.325496,-0.161527,47,280,582,6240
1644190204.262398,-0.009094,0.010986,-0.992676,0.175053,0.569771,-0.085191,52,277,589,6240
1644190204.310759,-0.007385,0.011536,-0.986694,0.297191,0.386565,-0.054656,48,279,590,6160
1644190204.359164,-0.010376,0.010071,-0.992493,0.159786,0.401832,-0.008855,54,277,584,6224
1644190204.407536,-0.011108,0.010315,-0.992249,0.46513,0.462901,-0.024122,47,275,577,6256
1644190204.455963,-0.009216,0.007935,-0.992188,0.159786,0.462901,-0.237863,42,282,572,6256
1644190204.504333,-0.010925,0.008728,-0.99292,0.098718,0.447634,-0.085191,46,264,590,6224
1644190204.552776,-0.009094,0.011292,-0.990356,0.129252,0.340763,-0.054656,47,275,589,6176
1644190204.601151,-0.008667,0.010376,-0.99353,0.220855,0.523969,-0.024122,51,271,576,6256
1644190204.649537,-0.008667,0.008728,-0.988831,0.342992,0.478168,-0.069924,53,276,583,6192
1644190204.697924,-0.009338,0.010864,-0.992981,0.220855,0.310229,-0.115725,47,265,591,6224
1644190204.746286,-0.007812,0.009888,-0.992737,0.327725,0.523969,-0.192061,55,276,578,6176
1644190204.794722,-0.010498,0.010559,-0.993835,0.373527,0.447634,-0.344733,58,281,585,6224
1644190204.843173,-0.011719,0.010376,-0.992126,0.266656,0.340763,0.098015,49,287,589,6192
1644190204.891535,-0.00946,0.010803,-0.992737,0.144519,0.508702,0.021679,45,280,582,6304
1644190204.939927,-0.008789,0.010498,-0.990723,0.266656,0.340763,0.006412,58,274,590,6192
1644190204.988327,-0.008789,0.009155,-0.992676,0.220855,0.417099,-0.039389,43,264,585,6256
1644190205.036686,-0.006531,0.007629,-0.990112,0.327725,0.462901,-0.222595,54,277,579,6240
1644190205.087414,-0.01123,0.009583,-0.993042,0.297191,0.447634,0.113282,48,279,592,6224
1644190205.133482,-0.008301,0.010559,-0.991821,0.159786,0.401832,-0.130992,54,275,572,6224
1644190205.182178,-0.009216,0.00885,-0.989075,0.159786,0.371298,-0.207328,47,280,586,6192
1644190205.232804,-0.005005,0.011658,-0.994019,0.251389,0.371298,-0.024122,49,285,589,6224
1644190205.283222,-0.007568,0.009583,-0.98822,0.266656,0.523969,-0.283664,47,273,584,6128
1644190205.328128,-0.006531,0.010193,-0.991577,0.236122,0.569771,-0.085191,54,277,584,6256
1644190205.423833,-0.00769,0.009583,-0.987793,0.205588,0.325496,-0.14626,46,274,585,6240
1644190205.472386,-0.00708,0.00885,-0.992004,0.266656,0.371298,-0.024122,43,276,578,6240
1644190205.520606,-0.007568,0.008484,-0.993225,0.236122,0.310229,-0.268397,48,283,583,6192
1644190205.568994,-0.007202,0.009827,-0.995544,0.251389,0.188092,-0.14626,60,274,592,6256
1644190205.617396,-0.008667,0.008606,-0.992065,0.175053,0.417099,-0.085191,51,274,587,6224
1644190205.665756,-0.009216,0.010193,-0.992188,0.327725,0.294962,-0.054656,58,276,580,6224
1644190205.714184,-0.007935,0.008728,-0.99231,0.342992,0.371298,0.113282,52,282,596,6176
1644190205.76259,-0.010498,0.009644,-0.989441,0.35826,0.371298,-0.14626,51,283,587,6288
1644190205.810972,-0.008057,0.008362,-0.989929,0.175053,0.325496,-0.130992,48,276,585,6240
1644190205.859407,-0.007568,0.008179,-0.989746,0.266656,0.478168,-0.161527,46,269,583,6240
1644190205.907769,-0.008118,0.011047,-0.99353,0.251389,0.386565,0.006412,42,273,577,6240
1644190205.956192,-0.007568,0.010437,-0.992554,0.129252,0.279695,-0.130992,57,273,589,6240
1644190206.004762,-0.007385,0.00946,-0.993774,0.220855,0.356031,-0.130992,51,283,590,6176
1644190206.064027,-0.007202,0.010315,-0.992493,0.251389,0.493435,-0.024122,58,274,583,6224
1644190206.101389,-0.00708,0.011597,-0.988159,0.373527,0.264427,-0.237863,53,269,583,6176
1644190206.149716,-0.007812,0.011169,-0.992249,0.113985,0.264427,-0.130992,46,266,592,6224
1644190206.198107,-0.008301,0.010315,-0.990051,0.373527,0.294962,-0.100458,58,274,583,6240
1644190206.246503,-0.010437,0.008606,-0.991394,0.205588,0.371298,-0.115725,58,269,569,6128
1644190206.294881,-0.006042,0.01062,-0.989258,0.266656,0.447634,0.006412,48,281,590,6176
1644190206.34368,-0.010254,0.010742,-0.993591,0.251389,0.447634,0.006412,48,276,592,6240
1644190206.393828,-0.010803,0.008728,-0.991211,0.159786,0.386565,-0.130992,42,275,575,6240
1644190206.443965,-0.007019,0.00531,-0.992371,0.266656,0.493435,-0.14626,57,270,591,6160
1644190206.489511,-0.009094,0.008667,-0.992737,0.236122,0.218626,-0.161527,47,277,579,6224
1644190206.585393,-0.00946,0.009949,-0.989319,0.236122,0.24916,-0.222595,43,286,583,6224
1644190206.633658,-0.008484,0.009521,-0.991394,0.190321,0.279695,-0.069924,46,279,580,6224
1644190206.682035,-0.007141,0.014099,-0.990417,0.266656,0.417099,-0.14626,46,279,578,6240
1644190206.730424,-0.011719,0.010986,-0.990417,0.159786,0.447634,-0.054656,43,276,580,6176
1644190206.778829,-0.011353,0.012268,-0.991577,0.220855,0.294962,-0.100458,46,288,571,6256
1644190206.827216,-0.00824,0.009705,-0.991516,0.312458,0.417099,-0.024122,54,270,593,6192
1644190206.875648,-0.010254,0.008911,-0.990967,0.220855,0.539237,0.021679,40,282,579,6192
1644190206.92403,-0.00592,0.010193,-0.992432,0.129252,0.432366,-0.100458,41,281,580,6224
1644190206.972457,-0.006775,0.010437,-0.991089,0.266656,0.294962,-0.130992,52,275,582,6240
1644190207.020833,-0.008667,0.011902,-0.991272,0.068183,0.386565,-0.008855,45,268,579,6160
1644190207.089627,-0.009338,0.007263,-0.989502,0.190321,0.325496,-0.039389,47,273,582,6224
1644190207.117628,-0.010132,0.009033,-0.993469,0.220855,0.493435,-0.008855,45,280,598,6224
1644190207.165969,-0.007629,0.012512,-0.990723,0.159786,0.310229,0.021679,48,276,580,6240
1644190207.214348,-0.007935,0.012207,-0.990967,0.159786,0.356031,-0.100458,54,282,598,6192
1644190207.262744,-0.006226,0.007935,-0.992554,0.251389,0.325496,-0.25313,43,281,592,6192
1644190207.311128,-0.010254,0.009583,-0.991394,0.220855,0.310229,-0.130992,58,274,583,6224
1644190207.359547,-0.00769,0.008789,-0.99176,0.220855,0.310229,-0.008855,62,274,585,6256
1644190207.407934,-0.009277,0.012268,-0.993347,0.205588,0.371298,0.159084,42,282,575,6224
1644190207.457022,-0.008667,0.012146,-0.992371,0.297191,0.279695,-0.039389,53,276,592,6240
1644190207.505533,-0.006592,0.007874,-0.991577,0.098718,0.462901,-0.054656,53,264,583,6224
1644190207.556269,-0.007874,0.008728,-0.992798,0.190321,0.401832,-0.069924,65,274,587,6224
1644190207.606258,-0.010742,0.011292,-0.992371,0.129252,0.386565,-0.069924,49,285,593,6224
1644190207.651181,-0.008972,0.009216,-0.991638,0.297191,0.432366,-0.100458,51,276,590,6240
1644190207.746675,-0.006104,0.011658,-0.988708,0.281924,0.294962,-0.115725,45,277,579,6176
1644190207.795314,-0.007935,0.011108,-0.990845,0.205588,0.24916,-0.100458,43,266,583,6224
1644190207.843477,-0.006042,0.008423,-0.98938,0.266656,0.233893,-0.237863,48,274,578,6256
1644190207.891901,-0.009094,0.009827,-0.990967,0.205588,0.325496,-0.207328,55,269,587,6224
1644190207.940293,-0.008118,0.00824,-0.994629,0.159786,0.203359,-0.130992,41,274,592,6224
1644190207.988687,-0.009766,0.01239,-0.990479,0.068183,0.417099,0.021679,57,280,582,6224
1644190208.037086,-0.009827,0.009338,-0.992798,0.297191,0.386565,-0.008855,51,274,587,6256
1644190208.096332,-0.009033,0.010925,-0.991333,0.312458,0.294962,-0.130992,51,271,592,6256
1644190208.133894,-0.010193,0.01178,-0.993408,0.159786,0.447634,-0.054656,41,274,592,6224
1644190208.18228,-0.013,0.008362,-0.992004,0.129252,0.386565,-0.039389,53,274,590,6176
1644190208.230613,-0.009583,0.008728,-0.992371,0.098718,0.356031,0.052214,53,281,592,6256
1644190208.278983,-0.010864,0.007935,-0.989929,0.297191,0.417099,-0.161527,51,286,585,6256
1644190208.327403,-0.008911,0.010986,-0.99353,0.220855,0.340763,0.052214,49,270,579,6224
1644190208.376127,-0.005676,0.009277,-0.991455,0.342992,0.493435,-0.161527,51,274,590,6240
1644190208.424976,-0.005066,0.008545,-0.994019,0.266656,0.401832,0.006412,52,277,586,6240
1644190208.475591,-0.008118,0.008667,-0.992126,0.220855,0.447634,-0.085191,53,279,583,6224
1644190208.525685,-0.011841,0.009521,-0.991455,0.297191,0.432366,-0.100458,64,268,591,6224
1644190208.570993,-0.010254,0.010376,-0.993347,0.220855,0.401832,-0.054656,57,277,582,6224
1644190208.666134,-0.00824,0.007996,-0.992615,0.35826,0.371298,-0.192061,51,279,583,6192
1644190208.714637,-0.010986,0.00824,-0.99353,0.205588,0.401832,-0.115725,53,281,590,6224
1644190208.762942,-0.009888,0.007874,-0.99115,0.190321,0.417099,-0.130992,51,279,576,6224
1644190208.811323,-0.01001,0.01062,-0.993347,0.312458,0.432366,-0.069924,45,282,582,6192
1644190208.859732,-0.009277,0.008484,-0.99054,0.281924,0.310229,-0.115725,57,275,584,6224
1644190208.908151,-0.01001,0.007935,-0.99353,0.388794,0.401832,-0.024122,47,277,579,6224
1644190208.956839,-0.009033,0.00946,-0.992554,0.327725,0.310229,-0.100458,39,276,578,6240
1644190209.00493,-0.008484,0.009277,-0.994934,0.236122,0.447634,-0.085191,42,282,579,6224
1644190209.061166,-0.010254,0.009399,-0.989746,0.388794,0.310229,-0.008855,46,281,576,6192
1644190209.101708,-0.008606,0.01123,-0.993225,0.281924,0.417099,-0.192061,53,274,594,6192
1644190209.150119,-0.007751,0.012207,-0.989807,0.251389,0.493435,-0.176794,53,276,583,6192
1644190209.198514,-0.007996,0.008667,-0.99054,0.327725,0.478168,-0.100458,47,282,591,6224
1644190209.246906,-0.007996,0.007935,-0.993896,0.281924,0.340763,0.021679,48,269,590,6192
1644190209.295296,-0.008545,0.011414,-0.993347,0.052916,0.279695,-0.130992,51,266,594,6192
1644190209.343697,-0.009766,0.009155,-0.993774,0.236122,0.539237,-0.054656,51,264,576,6224
1644190209.392087,-0.006897,0.009888,-0.990662,0.342992,0.294962,-0.115725,54,277,591,6304
1644190209.440451,-0.007935,0.004333,-0.992615,0.236122,0.264427,0.006412,57,263,586,6240
1644190209.489394,-0.007263,0.008667,-0.992371,0.129252,0.340763,-0.008855,43,281,573,6256
1644190209.537291,-0.007996,0.009277,-0.991577,0.312458,0.310229,-0.25313,47,277,593,6256
1644190209.587147,-0.006714,0.010742,-0.990234,0.190321,0.356031,-0.115725,49,273,591,6224
1644190209.637238,-0.007446,0.00885,-0.991577,0.312458,0.447634,-0.161527,49,277,579,6224
1644190209.687482,-0.007568,0.008301,-0.992126,0.159786,0.539237,-0.161527,47,270,589,6240
1644190209.732063,-0.011047,0.008667,-0.991089,0.098718,0.539237,-0.054656,51,271,583,6176
1644190209.827621,-0.006958,0.011414,-0.993347,0.342992,0.24916,-0.161527,61,275,586,6224
1644190209.876004,-0.010498,0.008057,-0.992615,0.327725,0.478168,-0.222595,47,277,579,6256
1644190209.924416,-0.008545,0.010132,-0.989746,0.236122,0.478168,-0.008855,51,283,585,6160
1644190209.97282,-0.007568,0.008118,-0.992981,0.190321,0.401832,-0.222595,43,271,587,6192
1644190210.021198,-0.009399,0.01001,-0.991638,0.251389,0.462901,-0.130992,49,277,582,6224
1644190210.069626,-0.009521,0.009521,-0.993347,0.388794,0.386565,0.006412,53,274,590,6256
1644190210.117911,-0.006531,0.007935,-0.990234,0.327725,0.508702,-0.024122,46,266,578,6224
1644190210.166338,-0.009521,0.009949,-0.990906,0.175053,0.478168,-0.237863,40,273,572,6176
1644190210.21475,-0.008911,0.008301,-0.990845,0.190321,0.386565,-0.192061,49,277,582,6224
1644190210.263111,-0.009033,0.012268,-0.990051,0.266656,0.310229,-0.100458,45,275,575,6224
1644190210.31151,-0.009705,0.010803,-0.990906,0.129252,0.432366,-0.130992,51,269,578,6224
1644190210.359902,-0.004517,0.011902,-0.990662,0.236122,0.264427,-0.115725,51,283,580,6224
1644190210.408295,-0.008606,0.009827,-0.992737,0.113985,0.432366,0.006412,59,280,582,6256
1644190210.456692,-0.009033,0.007568,-0.99231,0.205588,0.386565,-0.008855,45,285,575,6240
1644190210.505194,-0.009094,0.008728,-0.988892,0.297191,0.432366,0.006412,54,273,586,6224
1644190210.553478,-0.008362,0.008301,-0.990784,0.098718,0.462901,-0.14626,53,269,578,6256
1644190210.601871,-0.007751,0.008362,-0.989075,0.052916,0.554504,-0.100458,49,273,591,6192
1644190210.650239,-0.01178,0.007996,-0.993469,0.068183,0.386565,-0.207328,48,281,580,6224
1644190210.698623,-0.007751,0.007507,-0.990417,0.129252,0.508702,-0.100458,47,273,586,6288
1644190210.747349,-0.011108,0.009583,-0.992371,0.113985,0.417099,-0.069924,57,270,586,6240
1644190210.798238,-0.006836,0.009216,-0.990723,0.35826,0.478168,-0.115725,57,280,582,6256
1644190210.848812,-0.007812,0.011536,-0.992126,0.35826,0.539237,-0.039389,51,269,592,6240
1644190210.893337,-0.009216,0.010315,-0.990173,0.327725,0.356031,-0.024122,53,274,576,6240
1644190210.98906,-0.006653,0.010193,-0.993103,0.098718,0.523969,-0.130992,41,279,576,6336
1644190211.038028,-0.007507,0.011292,-0.992798,0.342992,0.371298,-0.130992,60,269,580,6224
1644190211.088664,-0.005859,0.006897,-0.995361,0.251389,0.432366,0.082748,62,269,592,6224
1644190211.134203,-0.008057,0.011719,-0.993042,0.175053,0.508702,-0.008855,52,275,579,6192
1644190211.182612,-0.008545,0.006958,-0.994019,0.327725,0.447634,-0.069924,54,275,575,6240
1644190211.23099,-0.010559,0.010132,-0.992798,0.129252,0.386565,0.006412,36,279,578,6192
1644190211.279386,-0.007751,0.00946,-0.993286,0.129252,0.554504,-0.237863,49,265,579,6256
1644190211.327747,-0.007263,0.009277,-0.991333,0.312458,0.523969,0.036947,53,279,592,6240
1644190211.376166,-0.006958,0.010437,-0.991943,0.098718,0.585038,0.021679,49,268,577,6256
1644190211.424678,-0.009277,0.009521,-0.993896,0.129252,0.523969,-0.115725,49,268,582,6192
1644190211.472977,-0.01001,0.009827,-0.992249,0.266656,0.447634,-0.14626,55,262,578,6240
1644190211.521339,-0.00824,0.005188,-0.989075,0.266656,0.294962,-0.14626,47,270,584,6176
1644190211.569723,-0.008728,0.008301,-0.991699,0.129252,0.371298,0.052214,48,281,587,6256
1644190211.618122,-0.00946,0.009949,-0.99176,0.144519,0.340763,-0.085191,42,277,577,6160
1644190211.666525,-0.01001,0.008301,-0.996094,0.098718,0.493435,0.006412,54,270,589,6192
1644190211.714906,-0.007812,0.009827,-0.992676,0.205588,0.356031,-0.176794,51,276,583,6240
1644190211.763623,-0.00885,0.011963,-0.993652,0.251389,0.356031,-0.069924,52,277,586,6224
1644190211.811751,-0.009338,0.010803,-0.992188,0.327725,0.462901,-0.207328,35,277,586,6224
1644190211.860216,-0.008118,0.011414,-0.992432,0.144519,0.356031,-0.054656,51,276,590,6288
1644190211.910592,-0.008484,0.009521,-0.991699,0.129252,0.508702,-0.039389,57,275,584,6192
1644190211.961527,-0.008301,0.007263,-0.990967,0.342992,0.447634,0.052214,58,274,585,6176
1644190212.065068,-0.008606,0.010315,-0.990845,0.266656,0.462901,-0.039389,55,279,580,6256
1644190212.102072,-0.009338,0.009277,-0.993042,0.251389,0.508702,0.036947,51,281,583,6240
1644190212.150452,-0.008484,0.010498,-0.992981,0.297191,0.294962,-0.100458,43,283,590,6240
1644190212.19885,-0.009705,0.011902,-0.991333,0.236122,0.417099,-0.176794,52,275,579,6128
1644190212.247212,-0.005554,0.009094,-0.994202,0.236122,0.447634,-0.024122,55,276,578,6224
1644190212.295629,-0.008972,0.00824,-0.990723,0.236122,0.493435,-0.115725,45,273,579,6240
1644190212.344042,-0.010132,0.006348,-0.989502,0.175053,0.493435,-0.130992,45,282,584,6192
1644190212.392401,-0.007446,0.012207,-0.993591,0.251389,0.493435,-0.130992,64,273,586,6224
1644190212.440811,-0.009521,0.01062,-0.992737,0.205588,0.447634,-0.161527,59,270,584,6256
1644190212.489336,-0.011292,0.010071,-0.992126,0.190321,0.386565,-0.14626,54,275,582,6176
1644190212.537587,-0.007141,0.009888,-0.98822,0.190321,0.447634,-0.039389,48,279,587,6224
1644190212.58599,-0.009949,0.008423,-0.992004,0.251389,0.310229,-0.085191,51,264,576,6192
1644190212.634378,-0.008972,0.007935,-0.987976,0.190321,0.325496,-0.054656,57,273,582,6176
1644190212.682807,-0.005005,0.012146,-0.991516,0.281924,0.386565,-0.130992,47,273,591,6176
1644190212.732613,-0.010315,0.008118,-0.992065,0.35826,0.462901,0.021679,49,277,579,6224
1644190212.78286,-0.009338,0.006409,-0.99054,0.281924,0.432366,0.021679,42,268,579,6224
1644190212.828959,-0.009277,0.009094,-0.992065,0.098718,0.294962,-0.130992,52,260,575,6176
1644190212.924977,-0.009216,0.010132,-0.992065,0.388794,0.340763,-0.115725,57,263,579,6160
1644190212.973176,-0.010193,0.006836,-0.991272,0.266656,0.478168,-0.069924,49,270,584,6240
1644190213.021523,-0.011597,0.009277,-0.990234,0.190321,0.432366,-0.130992,43,271,583,6256
1644190213.070567,-0.008545,0.01001,-0.992432,0.342992,0.371298,-0.161527,52,263,589,6224
1644190213.118335,-0.007751,0.009338,-0.991272,0.342992,0.340763,-0.008855,48,279,583,6240
1644190213.166699,-0.011353,0.00824,-0.990601,0.236122,0.356031,-0.024122,51,279,583,6224
1644190213.215116,-0.009216,0.010864,-0.993042,0.251389,0.432366,-0.161527,49,265,579,6240
1644190213.263497,-0.008057,0.01239,-0.992188,0.129252,0.356031,-0.192061,54,282,586,6256
1644190213.311868,-0.008972,0.010925,-0.993286,0.281924,0.294962,0.052214,54,280,577,6304
1644190213.360276,-0.009033,0.011292,-0.991272,0.297191,0.462901,-0.054656,49,277,579,6176
1644190213.408673,-0.01062,0.008606,-0.992798,0.251389,0.432366,0.036947,55,274,576,6240
1644190213.457054,-0.008667,0.007751,-0.991943,0.175053,0.462901,-0.054656,36,279,583,6224
1644190213.505449,-0.007446,0.007446,-0.991699,0.266656,0.325496,-0.176794,52,270,586,6240
1644190213.553857,-0.007263,0.01001,-0.993591,0.281924,0.325496,-0.176794,48,274,580,6256
1644190213.602265,-0.01062,0.008301,-0.992126,0.251389,0.401832,-0.008855,48,274,580,6336
1644190213.6506,-0.009033,0.008972,-0.990601,0.251389,0.325496,-0.14626,48,276,583,6240
1644190213.699028,-0.010559,0.00708,-0.993713,0.327725,0.462901,-0.039389,62,283,587,6240
1644190213.747436,-0.006958,0.010681,-0.992126,0.281924,0.417099,-0.039389,47,285,586,6288
1644190213.795818,-0.008972,0.012695,-0.992554,0.205588,0.508702,-0.25313,61,282,591,6240
1644190213.844568,-0.006653,0.010498,-0.990479,0.342992,0.417099,-0.130992,43,283,585,6176
1644190213.895853,-0.009277,0.010254,-0.992188,0.373527,0.203359,-0.222595,45,268,572,6256
1644190213.946467,-0.009521,0.011353,-0.990845,0.113985,0.371298,-0.14626,49,280,577,6224
1644190213.990522,-0.00824,0.007629,-0.992371,0.144519,0.356031,-0.054656,57,280,582,6240
1644190214.086286,-0.009949,0.010559,-0.992065,0.190321,0.356031,0.021679,33,277,586,6256
1644190214.13465,-0.00885,0.006897,-0.990112,0.281924,0.401832,-0.115725,41,281,578,6256
1644190214.182966,-0.009583,0.011169,-0.990112,0.35826,0.401832,-0.115725,41,281,583,6176
1644190214.231327,-0.011353,0.010315,-0.991272,0.205588,0.310229,-0.054656,52,270,584,6160
1644190214.279713,-0.010132,0.008423,-0.990112,0.236122,0.371298,-0.176794,52,280,577,6160
1644190214.328136,-0.009766,0.009888,-0.992188,0.220855,0.523969,0.021679,49,273,586,6176
1644190214.376518,-0.009583,0.009399,-0.989441,0.175053,0.478168,0.113282,53,269,583,6192
1644190214.42491,-0.005249,0.010681,-0.992126,0.159786,0.386565,-0.207328,46,279,578,6192
1644190214.473309,-0.009277,0.009399,-0.991333,0.098718,0.371298,-0.207328,62,276,592,6240
1644190214.521705,-0.007202,0.008301,-0.99115,0.190321,0.417099,-0.207328,48,279,578,6224
1644190214.570101,-0.010437,0.009216,-0.991272,0.144519,0.539237,-0.085191,58,271,576,6288
1644190214.618499,-0.008545,0.007935,-0.99408,0.159786,0.432366,-0.008855,54,273,589,6256
1644190214.666894,-0.009583,0.007568,-0.992065,0.281924,0.478168,-0.115725,54,285,577,6224
1644190214.715286,-0.007751,0.011169,-0.991577,0.327725,0.478168,-0.192061,51,274,590,6224
1644190214.763664,-0.006775,0.006958,-0.992126,0.266656,0.386565,-0.039389,45,275,591,6240
1644190214.812076,-0.009949,0.012207,-0.992188,0.190321,0.523969,-0.100458,57,287,579,6192
1644190214.860507,-0.008606,0.008911,-0.99292,0.159786,0.432366,-0.130992,53,283,590,6288
1644190214.908892,-0.009338,0.010437,-0.99054,0.190321,0.493435,0.098015,46,283,587,6192
1644190214.95746,-0.006653,0.011108,-0.989136,0.220855,0.340763,-0.024122,39,286,590,6224
1644190215.06433,-0.009033,0.009094,-0.993042,0.113985,0.478168,-0.130992,59,277,579,6224
1644190215.102545,-0.006348,0.006592,-0.990417,0.220855,0.325496,-0.100458,46,286,590,6224
1644190215.150854,-0.007996,0.009766,-0.991638,0.190321,0.386565,-0.085191,49,275,577,6240
1644190215.199222,-0.00885,0.010681,-0.993225,0.205588,0.493435,-0.192061,41,276,583,6256
1644190215.247583,-0.009399,0.009521,-0.994812,0.297191,0.447634,0.052214,52,270,584,6240
1644190215.296002,-0.005249,0.007996,-0.992615,0.220855,0.478168,-0.207328,47,280,589,6224
1644190215.344404,-0.005615,0.010559,-0.991577,0.251389,0.447634,-0.176794,51,276,573,6288
1644190215.392796,-0.010498,0.007629,-0.993958,0.022382,0.386565,-0.115725,39,266,576,6288
1644190215.441171,-0.00592,0.011414,-0.992615,0.052916,0.432366,-0.024122,51,266,583,6192
1644190215.489578,-0.009155,0.009766,-0.990051,0.281924,0.432366,-0.039389,49,275,589,6224
1644190215.537938,-0.009033,0.009155,-0.992737,0.388794,0.447634,-0.222595,46,276,578,6160
1644190215.586346,-0.007263,0.008789,-0.993164,0.281924,0.417099,0.036947,60,279,597,6224
1644190215.634755,-0.009521,0.008301,-0.989258,0.220855,0.310229,0.021679,49,273,579,6224
1644190215.683167,-0.009216,0.007507,-0.992371,0.175053,0.310229,-0.039389,48,271,585,6256
1644190215.732249,-0.011047,0.007935,-0.991211,0.251389,0.432366,-0.176794,41,279,587,6240
1644190215.782758,-0.009277,0.008972,-0.991882,0.190321,0.401832,-0.207328,42,282,577,6224
1644190215.833005,-0.008606,0.009827,-0.993103,0.297191,0.233893,-0.222595,47,277,586,6256
1644190215.878862,-0.010071,0.008423,-0.994385,0.113985,0.356031,-0.054656,48,276,583,6224
1644190215.97354,-0.010803,0.010681,-0.992065,0.266656,0.371298,0.052214,54,285,584,6224
1644190216.02194,-0.009521,0.009521,-0.992188,0.129252,0.478168,-0.14626,51,269,578,6256
1644190216.070364,-0.009583,0.008972,-0.992371,0.220855,0.340763,0.006412,43,279,599,6224
1644190216.11869,-0.012756,0.009766,-0.992737,0.037649,0.356031,-0.192061,53,271,580,6224
1644190216.167044,-0.00708,0.010132,-0.989136,0.312458,0.478168,-0.039389,46,269,578,6256
1644190216.215467,-0.007568,0.009033,-0.992188,0.35826,0.600305,-0.054656,52,275,586,6224
1644190216.263846,-0.007996,0.00824,-0.992554,0.220855,0.371298,-0.100458,59,277,577,6240
1644190216.312243,-0.007446,0.009949,-0.991516,0.175053,0.508702,-0.085191,54,280,589,6240
1644190216.360647,-0.011169,0.008667,-0.992554,0.144519,0.401832,-0.161527,47,265,584,6192
1644190216.409044,-0.008728,0.008057,-0.990112,0.373527,0.279695,-0.14626,46,279,585,6176
1644190216.457416,-0.007507,0.01001,-0.988098,0.220855,0.386565,-0.161527,43,274,592,6288
1644190216.50581,-0.008423,0.00824,-0.992737,0.327725,0.371298,-0.008855,46,281,594,6224
1644190216.554215,-0.010864,0.009644,-0.989014,0.266656,0.340763,-0.085191,55,279,590,6224
1644190216.602623,-0.00946,0.010864,-0.993347,0.236122,0.462901,-0.115725,42,277,575,6192
1644190216.651,-0.011108,0.00824,-0.992065,0.190321,0.279695,-0.069924,52,277,586,6224
1644190216.699391,-0.005371,0.011902,-0.991882,0.281924,0.294962,-0.14626,53,271,580,6240
1644190216.74776,-0.009033,0.008118,-0.992432,0.144519,0.508702,-0.14626,42,273,589,6240
1644190216.797834,-0.008911,0.008301,-0.994385,0.144519,0.401832,-0.024122,51,279,583,6256
1644190216.847985,-0.00769,0.006714,-0.98822,0.251389,0.417099,0.113282,59,285,582,6176
1644190216.89829,-0.010376,0.010803,-0.993103,0.312458,0.401832,-0.115725,55,279,580,6256
1644190216.942688,-0.010864,0.009949,-0.98999,0.297191,0.340763,-0.14626,59,265,584,6240
1644190217.038184,-0.008545,0.010925,-0.993103,0.175053,0.386565,0.098015,54,270,589,6224
1644190217.086745,-0.008118,0.007385,-0.993774,0.312458,0.356031,-0.176794,48,266,599,6160
1644190217.134916,-0.009949,0.009155,-0.993408,0.281924,0.432366,-0.14626,64,282,586,6192
1644190217.183326,-0.007935,0.008545,-0.99054,0.251389,0.462901,-0.069924,43,281,573,6224
1644190217.231711,-0.008545,0.007507,-0.992432,0.35826,0.279695,-0.100458,42,275,586,6176
1644190217.280105,-0.00708,0.010681,-0.992676,0.205588,0.325496,-0.054656,52,277,589,6240
1644190217.328493,-0.009888,0.007385,-0.995361,0.205588,0.523969,-0.085191,46,279,587,6192
1644190217.376887,-0.01001,0.011292,-0.99115,0.205588,0.447634,0.021679,58,279,590,6240
1644190217.425341,-0.008362,0.009583,-0.990356,0.297191,0.386565,-0.069924,54,285,579,6192
1644190217.473688,-0.010681,0.011414,-0.992249,0.144519,0.447634,-0.069924,48,271,587,6240
1644190217.522195,-0.007141,0.008118,-0.992676,0.113985,0.432366,-0.024122,53,274,583,6304
1644190217.570474,-0.009644,0.007629,-0.991455,0.373527,0.462901,0.006412,42,275,584,6240
1644190217.61887,-0.008179,0.008362,-0.993347,0.297191,0.340763,-0.176794,48,274,583,6192
1644190217.667263,-0.008484,0.006775,-0.993103,0.205588,0.371298,-0.039389,58,274,585,6240
1644190217.71566,-0.009338,0.009338,-0.993835,0.205588,0.478168,-0.176794,47,280,575,6176
1644190217.764037,-0.010132,0.006592,-0.991699,0.251389,0.401832,0.021679,49,277,589,6256
1644190217.812502,-0.006958,0.009338,-0.992126,0.098718,0.371298,-0.115725,62,271,576,6240
1644190217.86119,-0.008057,0.008911,-0.991577,0.190321,0.478168,0.006412,57,265,584,6240
1644190217.909245,-0.009338,0.00824,-0.993591,0.35826,0.585038,-0.024122,47,273,586,6224
1644190217.959713,-0.009338,0.009705,-0.990967,0.129252,0.340763,0.12855,48,276,580,6224
1644190218.009535,-0.009033,0.011719,-0.991577,0.236122,0.386565,-0.176794,48,271,587,6224
1644190218.102802,-0.008423,0.009644,-0.992859,0.129252,0.356031,-0.115725,51,279,587,6224
1644190218.151173,-0.008301,0.011292,-0.992188,0.205588,0.462901,0.098015,53,286,592,6256
1644190218.199566,-0.008118,0.012512,-0.992004,0.159786,0.24916,-0.069924,51,276,592,6240
1644190218.247958,-0.007263,0.010071,-0.993591,0.312458,0.508702,-0.008855,53,274,594,6160
1644190218.296361,-0.007507,0.010071,-0.992798,0.297191,0.523969,-0.161527,49,273,582,6160
1644190218.34476,-0.008362,0.008911,-0.99292,0.327725,0.356031,-0.008855,51,276,580,6256
1644190218.393155,-0.008362,0.006836,-0.991272,0.220855,0.386565,-0.069924,55,279,590,6192
1644190218.441547,-0.009155,0.009949,-0.991516,0.113985,0.493435,-0.222595,52,275,591,6176
1644190218.489956,-0.005188,0.00769,-0.993408,0.175053,0.325496,-0.115725,55,279,578,6240
1644190218.538327,-0.012573,0.008545,-0.993042,0.098718,0.417099,-0.161527,58,276,590,6256
1644190218.586727,-0.010803,0.009949,-0.993408,0.312458,0.493435,-0.14626,52,270,586,6256
1644190218.635148,-0.008545,0.009644,-0.994202,0.144519,0.310229,-0.100458,41,283,578,6224
1644190218.683494,-0.008911,0.008484,-0.991943,0.159786,0.447634,-0.161527,47,273,593,6224
1644190218.731902,-0.007141,0.01239,-0.99115,0.113985,0.340763,-0.237863,46,266,594,6224
1644190218.78029,-0.011169,0.010742,-0.992737,0.205588,0.401832,-0.069924,47,280,584,6224
1644190218.828719,-0.007751,0.009705,-0.993164,0.220855,0.401832,-0.161527,49,273,577,6224
1644190218.87798,-0.011658,0.00769,-0.99115,0.297191,0.508702,-0.115725,45,282,577,6224
1644190218.927972,-0.010498,0.012695,-0.992615,0.251389,0.508702,-0.207328,52,275,582,6192
1644190218.978491,-0.007568,0.007324,-0.99115,0.007115,0.218626,-0.14626,51,276,585,6224
1644190219.022909,-0.009277,0.01001,-0.990906,0.175053,0.447634,-0.192061,43,274,578,6192
1644190219.119037,-0.011414,0.008545,-0.993042,0.373527,0.432366,-0.222595,46,281,583,6240
1644190219.167418,-0.010132,0.008606,-0.993103,0.312458,0.447634,-0.024122,51,266,583,6304
1644190219.215802,-0.007629,0.010071,-0.991333,0.175053,0.478168,-0.100458,60,283,583,6224
1644190219.264203,-0.007202,0.00824,-0.991394,0.236122,0.401832,0.006412,42,268,593,6224
1644190219.312619,-0.009888,0.011597,-0.991943,0.190321,0.203359,-0.069924,55,274,587,6224
1644190219.360996,-0.01123,0.007812,-0.991028,0.113985,0.386565,-0.14626,57,273,584,6304
1644190219.409395,-0.00824,0.008423,-0.991211,0.205588,0.401832,-0.069924,48,266,583,6192
1644190219.457804,-0.009094,0.007874,-0.995178,0.037649,0.432366,-0.14626,49,270,586,6224
1644190219.506189,-0.007324,0.011536,-0.992981,0.144519,0.447634,-0.069924,36,274,578,6224
1644190219.55469,-0.008972,0.010559,-0.991394,0.251389,0.417099,-0.207328,55,262,580,6224
1644190219.602991,-0.007996,0.009644,-0.991699,0.007115,0.279695,-0.008855,55,281,585,6224
1644190219.651372,-0.009155,0.007996,-0.992981,0.098718,0.386565,0.006412,57,270,582,6176
1644190219.699767,-0.008911,0.009827,-0.993958,0.175053,0.371298,-0.008855,42,280,579,6256
1644190219.748158,-0.010437,0.010498,-0.990906,0.220855,0.325496,-0.100458,57,282,589,6240
1644190219.796537,-0.00946,0.011475,-0.992676,0.251389,0.371298,0.036947,51,276,585,6160
1644190219.845021,-0.008179,0.00946,-0.991455,0.129252,0.310229,-0.115725,57,275,591,6224
1644190219.893368,-0.008972,0.009155,-0.990479,0.129252,0.417099,0.143817,46,279,585,6240
1644190219.941739,-0.007935,0.009277,-0.990967,0.113985,0.264427,-0.054656,51,269,583,6224
1644190219.990149,-0.009338,0.007996,-0.992065,0.266656,0.539237,-0.268397,54,282,584,6224
1644190220.039354,-0.010376,0.008606,-0.989258,0.190321,0.508702,-0.192061,48,279,580,6224
1644190220.097507,-0.009155,0.007751,-0.990356,0.312458,0.325496,-0.14626,41,279,585,6192
1644190220.136436,-0.009155,0.011169,-0.990784,0.266656,0.417099,-0.100458,57,260,584,6224
1644190220.232084,-0.008728,0.01001,-0.994263,0.327725,0.539237,0.006412,38,270,575,6240
1644190220.280451,-0.009583,0.011475,-0.991821,0.205588,0.493435,0.006412,51,274,576,6192
1644190220.328859,-0.007141,0.009094,-0.989868,0.220855,0.371298,-0.130992,46,279,585,6240
1644190220.377247,-0.007874,0.010742,-0.992859,0.205588,0.447634,-0.024122,54,282,575,6256
1644190220.425642,-0.009705,0.007751,-0.994141,0.312458,0.310229,-0.085191,47,282,575,6160
1644190220.474059,-0.010742,0.007385,-0.991943,0.388794,0.24916,0.052214,57,275,586,6128
1644190220.522463,-0.009155,0.011658,-0.991028,0.220855,0.432366,-0.115725,49,282,584,6240
1644190220.570816,-0.009827,0.010437,-0.992371,0.35826,0.340763,-0.085191,51,266,587,6240
1644190220.619227,-0.008911,0.009583,-0.993408,0.068183,0.325496,-0.176794,49,268,589,6240
1644190220.66763,-0.008057,0.008362,-0.989624,0.251389,0.432366,-0.024122,48,281,587,6240
1644190220.716019,-0.009216,0.007568,-0.992065,0.35826,0.493435,0.12855,64,275,586,6256
1644190220.764395,-0.010498,0.009216,-0.993591,0.297191,0.432366,-0.100458,47,275,586,6224
1644190220.812812,-0.007202,0.010254,-0.993347,0.312458,0.340763,-0.024122,49,273,584,6240
1644190220.861202,-0.006104,0.009338,-0.990662,0.251389,0.340763,0.113282,49,277,584,6240
1644190220.909628,-0.007507,0.008606,-0.989441,0.098718,0.340763,-0.130992,57,268,584,6224
1644190220.957992,-0.007019,0.007874,-0.993591,0.220855,0.310229,-0.024122,57,280,575,6224
1644190221.006386,-0.008606,0.008789,-0.993591,0.251389,0.310229,-0.024122,57,273,577,6224
1644190221.073256,-0.007446,0.009949,-0.991577,0.373527,0.478168,-0.14626,52,277,579,6240
1644190221.112969,-0.009583,0.007874,-0.990356,0.266656,0.294962,-0.192061,54,275,591,6192
1644190221.152958,-0.010132,0.009399,-0.989746,0.281924,0.325496,-0.222595,52,275,586,6256
1644190221.202468,-0.011169,0.008362,-0.992615,0.312458,0.447634,-0.085191,48,271,590,6128
1644190221.252473,-0.009338,0.009644,-0.988525,0.236122,0.447634,-0.069924,57,277,575,6192
1644190221.297594,-0.007507,0.006775,-0.992249,0.113985,0.340763,-0.14626,47,270,586,6224
1644190221.393526,-0.00769,0.009827,-0.991089,0.205588,0.371298,-0.192061,46,279,585,6240
1644190221.441909,-0.007996,0.006531,-0.993408,0.281924,0.264427,-0.207328,54,280,584,6288
1644190221.490315,-0.008728,0.008728,-0.989502,0.205588,0.371298,-0.130992,59,270,584,6176
1644190221.538693,-0.011108,0.011658,-0.990234,0.220855,0.401832,-0.008855,54,270,582,6224
1644190221.587071,-0.011902,0.00769,-0.991943,0.175053,0.325496,0.006412,49,268,582,6176
1644190221.63547,-0.010803,0.008423,-0.991089,0.098718,0.325496,0.021679,48,271,578,6160
1644190221.68388,-0.010376,0.005127,-0.993225,0.190321,0.401832,-0.14626,54,273,586,6224
1644190221.732275,-0.010071,0.009888,-0.991577,0.35826,0.325496,-0.237863,51,271,578,6256
1644190221.780653,-0.010498,0.011108,-0.990051,0.312458,0.447634,-0.176794,49,270,589,6176
1644190221.829019,-0.009155,0.009216,-0.996094,0.297191,0.325496,-0.024122,59,273,577,6192
1644190221.877504,-0.010254,0.008606,-0.993103,0.129252,0.310229,-0.024122,49,273,572,6224
1644190221.92589,-0.009155,0.011414,-0.993347,0.220855,0.447634,-0.130992,43,269,573,6240
1644190221.974285,-0.009949,0.010437,-0.990967,0.236122,0.523969,0.098015,51,271,578,6256
1644190222.022677,-0.008911,0.008728,-0.991028,0.327725,0.401832,-0.008855,53,279,590,6224
1644190222.096051,-0.008118,0.011169,-0.989746,0.190321,0.462901,-0.039389,41,271,587,6240
1644190222.120242,-0.006409,0.00769,-0.991699,0.342992,0.462901,-0.100458,59,277,591,6224
1644190222.171063,-0.008972,0.01123,-0.991577,0.175053,0.386565,-0.085191,49,268,582,6240
1644190222.220338,-0.009216,0.009705,-0.990356,0.266656,0.325496,-0.115725,40,273,591,6256
1644190222.264953,-0.008667,0.007446,-0.992249,0.205588,0.371298,0.036947,45,275,577,6240
1644190222.361385,-0.006775,0.007202,-0.99231,0.190321,0.401832,-0.069924,57,275,577,6176
1644190222.409772,-0.008789,0.010437,-0.993347,0.373527,0.401832,-0.069924,46,264,583,6192
1644190222.45816,-0.011658,0.010315,-0.989807,0.35826,0.386565,-0.054656,48,279,578,6176
1644190222.50654,-0.008301,0.007935,-0.99176,0.251389,0.340763,-0.039389,54,270,582,6240
1644190222.555002,-0.009338,0.008911,-0.989075,0.236122,0.401832,-0.054656,52,280,577,6240
1644190222.603346,-0.008057,0.009949,-0.991699,0.373527,0.432366,0.113282,52,280,575,6192
1644190222.651747,-0.007202,0.01178,-0.993896,0.236122,0.371298,-0.14626,54,275,577,6192
1644190222.700124,-0.008728,0.008667,-0.988892,0.129252,0.478168,-0.100458,47,273,582,6160
1644190222.748502,-0.010071,0.010803,-0.991089,0.266656,0.478168,0.052214,46,274,585,6080
1644190222.796905,-0.007996,0.007812,-0.991699,0.281924,0.432366,-0.008855,57,285,584,6160
1644190222.845293,-0.009155,0.010254,-0.990784,0.266656,0.462901,-0.085191,46,274,576,6240
1644190222.893723,-0.010681,0.010925,-0.991272,0.404061,0.325496,-0.008855,61,275,586,6256
1644190222.942247,-0.00885,0.009888,-0.991455,0.281924,0.356031,-0.085191,59,280,600,6240
1644190222.990525,-0.009949,0.010742,-0.98999,0.342992,0.539237,-0.115725,51,279,580,6240
1644190223.038921,-0.011475,0.008972,-0.99176,0.266656,0.417099,-0.085191,45,280,593,6256
1644190223.093099,-0.00592,0.010803,-0.990479,0.129252,0.447634,0.036947,48,271,592,6224
1644190223.135714,-0.009216,0.010071,-0.991821,0.236122,0.615573,-0.130992,57,270,584,6224
1644190223.184387,-0.00885,0.009033,-0.992065,0.190321,0.508702,-0.024122,48,274,583,6224
1644190223.232518,-0.009583,0.012329,-0.988159,0.35826,0.386565,-0.024122,49,273,582,6256
1644190223.282498,-0.008667,0.008118,-0.990845,0.052916,0.447634,-0.14626,43,281,580,6256
1644190223.332714,-0.010132,0.008667,-0.99054,0.113985,0.371298,-0.039389,55,274,587,6304
1644190223.382951,-0.006348,0.009094,-0.993958,0.220855,0.371298,-0.192061,52,285,584,6176
1644190223.427684,-0.009033,0.006531,-0.991028,0.220855,0.401832,-0.039389,60,279,583,6288
1644190223.52284,-0.007629,0.00824,-0.994263,0.220855,0.432366,0.021679,42,270,582,6176
1644190223.571239,-0.00885,0.009155,-0.991516,0.35826,0.493435,-0.115725,46,281,583,6240
1644190223.619635,-0.012329,0.009644,-0.990967,0.297191,0.417099,-0.085191,47,280,593,6224
1644190223.668085,-0.00708,0.010498,-0.990051,0.251389,0.310229,-0.130992,49,275,572,6224
1644190223.716418,-0.008972,0.011047,-0.988342,0.159786,0.279695,-0.100458,45,275,579,6176
1644190223.764798,-0.008423,0.009521,-0.98999,0.205588,0.356031,-0.130992,57,273,586,6192
1644190223.813201,-0.009155,0.007324,-0.992249,0.312458,0.356031,0.052214,48,283,583,6240
1644190223.861609,-0.009949,0.011902,-0.992432,0.266656,0.386565,-0.115725,52,285,584,6224
1644190223.909966,-0.007874,0.010071,-0.99115,0.297191,0.371298,0.021679,53,276,578,6176
1644190223.958399,-0.011658,0.010254,-0.993408,0.205588,0.340763,0.12855,55,274,583,6224
1644190224.006787,-0.008545,0.009766,-0.993713,0.190321,0.508702,-0.115725,51,283,587,6176
1644190224.064544,-0.012268,0.009094,-0.992676,0.159786,0.371298,0.006412,42,282,582,6192
1644190224.103546,-0.011108,0.007996,-0.991089,0.388794,0.462901,-0.176794,46,276,594,6224
1644190224.151889,-0.009888,0.008667,-0.993225,0.327725,0.371298,-0.176794,51,279,597,6240
1644190224.200303,-0.009155,0.007629,-0.990845,0.281924,0.233893,0.052214,58,271,587,6192
1644190224.248693,-0.007812,0.00647,-0.993652,0.312458,0.356031,-0.069924,53,286,585,6224
1644190224.297087,-0.006287,0.009338,-0.996155,0.297191,0.585038,-0.115725,51,274,585,6288
1644190224.345484,-0.008301,0.010559,-0.992737,0.251389,0.447634,-0.054656,55,274,594,6240
1644190224.394078,-0.008362,0.008484,-0.992371,0.159786,0.569771,-0.115725,60,271,578,6160
1644190224.44304,-0.009644,0.009583,-0.992432,0.159786,0.478168,-0.268397,51,281,578,6240
1644190224.493832,-0.010193,0.007751,-0.993591,0.327725,0.569771,-0.054656,43,276,583,6192
1644190224.5437,-0.007812,0.008911,-0.992371,0.220855,0.356031,-0.192061,42,277,579,6192
1644190224.588704,-0.008484,0.01123,-0.989746,0.35826,0.462901,-0.115725,35,282,579,6176
1644190224.684247,-0.009705,0.009399,-0.992798,0.297191,0.462901,0.021679,48,274,587,6256
1644190224.732636,-0.010376,0.007935,-0.993591,0.297191,0.417099,0.052214,62,274,580,6224
1644190224.780993,-0.010681,0.008606,-0.992004,0.342992,0.325496,0.006412,41,283,587,6304
1644190224.829454,-0.009094,0.010132,-0.990723,0.327725,0.478168,-0.237863,48,276,573,6224
1644190224.877852,-0.010193,0.008667,-0.991455,0.113985,0.417099,-0.115725,48,269,583,6240
1644190224.926237,-0.009277,0.010437,-0.992188,0.205588,0.417099,-0.100458,51,271,583,6240
1644190224.974648,-0.008301,0.008606,-0.992371,0.281924,0.447634,-0.008855,48,283,583,6192
1644190225.023046,-0.007446,0.007996,-0.990051,0.297191,0.264427,-0.222595,55,271,583,6224
1644190225.075614,-0.006348,0.008789,-0.991943,0.388794,0.493435,-0.085191,49,277,584,6256
1644190225.119801,-0.010681,0.010498,-0.993042,0.251389,0.356031,-0.039389,55,281,583,6256
1644190225.168167,-0.011169,0.010071,-0.993408,0.098718,0.386565,-0.192061,49,280,572,6240
1644190225.21656,-0.007446,0.008728,-0.989502,0.129252,0.478168,-0.222595,53,274,585,6224
1644190225.265072,-0.009521,0.010559,-0.991211,0.297191,0.417099,-0.115725,53,288,587,6240
1644190225.313363,-0.009216,0.008362,-0.994873,0.220855,0.585038,-0.115725,45,277,593,6192
1644190225.36174,-0.008667,0.008362,-0.992432,0.220855,0.523969,0.052214,51,276,583,6256
1644190225.410097,-0.01178,0.011658,-0.991638,0.144519,0.356031,-0.100458,49,270,589,6224
1644190225.458538,-0.008362,0.009033,-0.992188,0.159786,0.447634,-0.085191,52,275,579,6224
1644190225.506898,-0.010132,0.007263,-0.992737,0.388794,0.386565,-0.008855,45,277,584,6192
1644190225.55531,-0.009521,0.008301,-0.993774,0.236122,0.478168,-0.100458,45,275,589,6192
1644190225.603844,-0.010071,0.010315,-0.993347,0.312458,0.523969,0.006412,54,275,579,6192
1644190225.654325,-0.009399,0.010376,-0.992554,0.404061,0.554504,-0.085191,57,273,584,6256
1644190225.704671,-0.010132,0.008606,-0.992554,0.297191,0.493435,-0.054656,42,263,586,6192
1644190225.749664,-0.009338,0.005737,-0.992493,0.342992,0.371298,0.006412,53,274,578,6240
1644190225.845696,-0.007141,0.005249,-0.993164,0.373527,0.218626,-0.207328,51,276,583,6224
1644190225.894116,-0.006714,0.008423,-0.990967,0.404061,0.340763,0.036947,45,275,577,6224
1644190225.942511,-0.009399,0.007141,-0.992432,0.144519,0.371298,-0.176794,48,274,578,6176
1644190225.990895,-0.007446,0.010559,-0.99353,0.312458,0.539237,-0.222595,52,273,586,6240
1644190226.039254,-0.009094,0.009521,-0.99231,0.312458,0.356031,-0.176794,48,271,587,6224
1644190226.091257,-0.009277,0.008972,-0.98999,0.388794,0.478168,-0.054656,51,269,587,6224
1644190226.136013,-0.007446,0.008545,-0.99115,0.144519,0.478168,-0.25313,51,276,578,6192
1644190226.184441,-0.01001,0.008972,-0.992432,0.190321,0.508702,-0.039389,47,282,586,6240
1644190226.232819,-0.00824,0.005798,-0.988281,0.098718,0.417099,-0.237863,57,275,593,6304
1644190226.281219,-0.007324,0.009277,-0.99231,0.266656,0.554504,-0.085191,43,281,580,6224
1644190226.329606,-0.009216,0.010681,-0.995117,0.342992,0.539237,-0.14626,49,275,584,6224
1644190226.378004,-0.008423,0.008911,-0.99176,0.281924,0.279695,-0.069924,51,274,573,6288
1644190226.426389,-0.007202,0.009338,-0.99292,0.419328,0.401832,-0.14626,49,282,591,6240
1644190226.474865,-0.007812,0.009888,-0.991455,0.220855,0.417099,-0.161527,52,273,575,6192
1644190226.523184,-0.009827,0.010071,-0.993469,0.113985,0.279695,0.021679,47,280,584,6256
1644190226.571563,-0.012329,0.011414,-0.993164,0.281924,0.523969,-0.069924,47,273,584,6176
1644190226.620171,-0.00592,0.009949,-0.993347,0.098718,0.279695,0.12855,45,265,577,6224
1644190226.670528,-0.011353,0.009583,-0.993896,0.098718,0.386565,-0.130992,47,282,586,6240
1644190226.720643,-0.009583,0.007507,-0.994141,0.35826,0.386565,0.021679,48,283,580,6240
1644190226.765846,-0.01123,0.006287,-0.99054,0.220855,0.447634,0.036947,48,269,590,6176
1644190226.861964,-0.007874,0.007446,-0.992432,0.297191,0.371298,-0.100458,52,273,589,6224
1644190226.91035,-0.007324,0.011292,-0.992065,0.236122,0.447634,-0.130992,48,279,580,6256
1644190226.958748,-0.011353,0.007935,-0.993164,0.297191,0.417099,-0.130992,53,279,587,6192
1644190227.007132,-0.00708,0.009094,-0.99231,0.281924,0.401832,-0.085191,45,277,584,6160
1644190227.067098,-0.010254,0.007446,-0.992493,0.236122,0.356031,-0.100458,48,264,576,6256
1644190227.103914,-0.009338,0.010193,-0.990295,0.205588,0.417099,-0.024122,45,277,577,6224
1644190227.152285,-0.007751,0.010681,-0.992859,0.205588,0.569771,-0.115725,51,274,576,6176
1644190227.200673,-0.011597,0.008789,-0.992004,0.281924,0.386565,-0.161527,43,281,590,6224
1644190227.249049,-0.009094,0.008972,-0.992065,0.068183,0.417099,0.006412,48,264,578,6304
1644190227.297455,-0.009277,0.006653,-0.991028,0.297191,0.432366,-0.100458,53,279,583,6160
1644190227.345861,-0.00946,0.008484,-0.994385,0.312458,0.508702,-0.085191,43,279,580,6256
1644190227.394266,-0.008118,0.011963,-0.992676,0.251389,0.417099,0.021679,61,280,579,6240
1644190227.442657,-0.008118,0.009033,-0.990967,0.052916,0.432366,-0.008855,49,277,591,6224
1644190227.491025,-0.010437,0.010376,-0.993286,0.266656,0.478168,-0.008855,59,270,579,6224
1644190227.539428,-0.011841,0.00647,-0.99176,0.205588,0.447634,-0.054656,58,271,576,6128
1644190227.587817,-0.007996,0.009033,-0.992554,0.266656,0.432366,-0.130992,59,268,591,6240
1644190227.636193,-0.011169,0.00946,-0.99176,0.266656,0.417099,-0.192061,51,269,590,6256
1644190227.684943,-0.008362,0.007935,-0.993042,0.281924,0.386565,-0.069924,54,268,584,6224
1644190227.734408,-0.008484,0.006409,-0.994507,0.144519,0.264427,-0.192061,55,266,583,6240
1644190227.785446,-0.009949,0.008789,-0.99115,0.159786,0.493435,0.052214,41,266,585,6224
1644190227.830518,-0.008484,0.005554,-0.990723,0.297191,0.523969,-0.161527,54,268,582,6224
1644190227.926582,-0.010193,0.008057,-0.993042,0.266656,0.523969,0.098015,52,285,572,6240
1644190227.975269,-0.006836,0.010193,-0.994263,0.190321,0.401832,0.036947,53,266,580,6224
1644190228.023398,-0.007629,0.009766,-0.990784,0.159786,0.523969,0.021679,45,277,589,6256
1644190228.071854,-0.009644,0.012207,-0.992859,0.35826,0.401832,-0.115725,47,285,584,6240
1644190228.12014,-0.008423,0.008545,-0.99469,0.205588,0.401832,-0.054656,52,268,575,6256
1644190228.168525,-0.007812,0.010376,-0.991272,0.205588,0.417099,-0.192061,53,276,590,6256
1644190228.216921,-0.009705,0.00769,-0.99231,0.144519,0.417099,-0.069924,43,279,583,6192
1644190228.265313,-0.006348,0.008789,-0.991638,0.297191,0.478168,-0.085191,40,277,589,6192
1644190228.313698,-0.009277,0.010193,-0.993591,0.373527,0.386565,-0.14626,46,276,590,6192
1644190228.362083,-0.008362,0.007751,-0.994019,0.266656,0.325496,-0.024122,47,280,596,6224
1644190228.410504,-0.008057,0.011902,-0.991211,0.236122,0.386565,0.006412,45,277,579,6256
1644190228.458897,-0.008911,0.008606,-0.99231,0.129252,0.493435,-0.100458,47,277,584,6240
1644190228.507285,-0.007996,0.004333,-0.993896,0.144519,0.340763,0.006412,53,283,594,6224
1644190228.555657,-0.009521,0.008911,-0.992126,0.312458,0.386565,-0.039389,57,285,577,6240
1644190228.604072,-0.008972,0.009277,-0.989014,0.312458,0.432366,-0.176794,51,276,580,6224
1644190228.652473,-0.010681,0.007385,-0.99292,0.342992,0.371298,-0.100458,46,276,592,6224
1644190228.700858,-0.007996,0.006958,-0.994141,0.297191,0.294962,-0.039389,54,280,586,6224
1644190228.749224,-0.010132,0.011536,-0.993958,0.220855,0.325496,-0.268397,51,269,597,6224
1644190228.797645,-0.005981,0.009399,-0.989807,0.220855,0.340763,-0.207328,60,271,590,6192
1644190228.846509,-0.010071,0.008362,-0.99231,0.297191,0.417099,-0.237863,57,270,582,6336
1644190228.897652,-0.009094,0.010803,-0.992249,0.312458,0.356031,0.052214,57,273,575,6288
1644190228.947933,-0.009888,0.008789,-0.993103,0.205588,0.615573,0.006412,58,257,580,6240
1644190228.992425,-0.00885,0.010193,-0.9953,0.236122,0.356031,-0.039389,55,274,587,6160
1644190229.088118,-0.009155,0.010803,-0.993591,0.281924,0.294962,-0.054656,57,290,598,6240
1644190229.136428,-0.010254,0.013855,-0.991516,0.190321,0.493435,0.021679,43,286,583,6240
1644190229.184928,-0.007507,0.008484,-0.992249,0.35826,0.356031,-0.115725,43,271,583,6176
1644190229.233184,-0.008911,0.009766,-0.992737,0.342992,0.493435,-0.130992,49,275,579,6224
1644190229.28155,-0.009399,0.010437,-0.991028,0.144519,0.478168,-0.161527,53,269,583,6240
1644190229.329945,-0.011108,0.010254,-0.991882,0.236122,0.447634,-0.054656,60,269,580,6240
1644190229.378342,-0.00824,0.007751,-0.990906,0.236122,0.279695,-0.176794,46,264,583,6160
1644190229.426759,-0.009216,0.012695,-0.992126,0.388794,0.401832,-0.237863,55,281,585,6256
1644190229.475175,-0.009338,0.009155,-0.990173,0.129252,0.279695,-0.130992,48,271,578,6256
1644190229.523547,-0.007935,0.008423,-0.993591,0.220855,0.417099,0.006412,58,283,587,6224
1644190229.571926,-0.008972,0.011597,-0.991028,0.297191,0.493435,-0.100458,55,269,580,6240
1644190229.620307,-0.010559,0.008789,-0.991272,0.175053,0.386565,-0.069924,53,279,583,6224
1644190229.668717,-0.008789,0.009521,-0.992432,0.220855,0.401832,-0.100458,52,275,591,6224
1644190229.717109,-0.007874,0.008362,-0.991821,0.175053,0.371298,-0.054656,47,275,589,6240
1644190229.765508,-0.00824,0.012756,-0.99353,0.342992,0.447634,-0.039389,47,270,591,6288
1644190229.813884,-0.010376,0.008179,-0.992371,0.312458,0.340763,-0.14626,54,275,591,6256
1644190229.86236,-0.008484,0.008789,-0.990234,0.113985,0.447634,-0.115725,52,273,589,6288
1644190229.91107,-0.006287,0.01178,-0.993835,0.205588,0.371298,-0.14626,54,275,584,6240
1644190229.959138,-0.009583,0.007935,-0.991638,0.266656,0.523969,-0.054656,51,279,585,6192
1644190230.008724,-0.010864,0.009644,-0.991699,0.190321,0.554504,-0.054656,48,266,594,6240
1644190230.084523,-0.009216,0.00708,-0.993286,0.205588,0.600305,-0.100458,47,277,589,6240
1644190230.117369,-0.01001,0.009338,-0.993408,0.297191,0.325496,-0.100458,54,277,589,6224
1644190230.201041,-0.011597,0.008545,-0.992493,0.236122,0.371298,-0.054656,51,281,585,6240
1644190230.249422,-0.009583,0.010254,-0.991638,0.068183,0.432366,-0.069924,57,270,577,6256
1644190230.297822,-0.008484,0.007996,-0.991577,0.052916,0.294962,-0.085191,55,286,578,6224
1644190230.346216,-0.009949,0.009521,-0.994141,0.419328,0.340763,-0.054656,51,279,580,6176
1644190230.394853,-0.008972,0.009827,-0.992371,0.327725,0.401832,-0.039389,43,274,578,6224
1644190230.442998,-0.008057,0.008484,-0.993652,0.205588,0.417099,-0.024122,48,266,580,6176
1644190230.491772,-0.009521,0.01123,-0.989441,0.312458,0.432366,0.052214,41,269,590,6240
1644190230.539771,-0.01062,0.008728,-0.993835,0.190321,0.371298,-0.024122,52,280,579,6288
1644190230.588175,-0.011353,0.009155,-0.991516,0.373527,0.432366,-0.207328,57,275,570,6224
1644190230.636567,-0.009521,0.009766,-0.990723,0.144519,0.432366,-0.115725,47,280,582,6240
1644190230.685099,-0.006531,0.008911,-0.99353,0.175053,0.294962,-0.115725,49,275,586,6224
1644190230.733381,-0.009888,0.012512,-0.991638,0.312458,0.417099,-0.024122,42,270,582,6192
1644190230.781761,-0.007263,0.009827,-0.992126,0.190321,0.325496,-0.100458,45,277,579,6240
1644190230.830148,-0.009705,0.007812,-0.99231,0.190321,0.569771,-0.115725,59,273,582,6256
1644190230.878588,-0.007935,0.006287,-0.992188,0.312458,0.417099,0.098015,59,273,596,6240
1644190230.926972,-0.007812,0.009216,-0.994019,0.205588,0.447634,-0.14626,53,274,585,6224
1644190230.975369,-0.006348,0.011475,-0.991394,0.159786,0.493435,-0.008855,48,276,580,6224
1644190231.023907,-0.006897,0.011169,-0.992554,0.312458,0.356031,-0.207328,51,279,578,6224
1644190231.074899,-0.007507,0.011658,-0.99176,0.297191,0.523969,0.082748,48,271,590,6176
1644190231.122195,-0.00708,0.008728,-0.989136,0.175053,0.294962,-0.085191,43,281,580,6176
1644190231.17279,-0.007751,0.008728,-0.991882,0.068183,0.447634,-0.039389,48,279,585,6256
1644190231.222339,-0.008057,0.011169,-0.992004,0.327725,0.508702,-0.161527,57,273,575,6256
1644190231.266746,-0.010315,0.008118,-0.993835,0.220855,0.478168,0.067481,59,273,577,6256
1644190231.362487,-0.010315,0.008423,-0.991699,0.129252,0.386565,0.036947,43,271,583,6224
1644190231.410871,-0.009338,0.009827,-0.991394,0.297191,0.24916,-0.115725,45,273,582,6224
1644190231.459245,-0.00885,0.011292,-0.992432,0.312458,0.340763,-0.024122,54,275,589,6224
1644190231.507627,-0.009766,0.009644,-0.994629,0.281924,0.310229,-0.115725,45,270,582,6224
1644190231.556033,-0.006653,0.008545,-0.992249,0.236122,0.447634,-0.085191,45,280,589,6256
1644190231.604455,-0.007385,0.011841,-0.991943,0.190321,0.310229,-0.314198,45,280,577,6192
1644190231.65285,-0.009033,0.007935,-0.990784,0.281924,0.340763,-0.115725,46,274,585,6224
1644190231.701203,-0.008484,0.008789,-0.990356,0.08345,0.447634,-0.161527,49,285,579,6192
1644190231.749634,-0.006897,0.010864,-0.992493,0.144519,0.447634,-0.176794,49,280,577,6240
1644190231.798011,-0.008057,0.008545,-0.989502,0.205588,0.356031,-0.054656,55,279,585,6192
1644190231.846414,-0.007629,0.008728,-0.991943,0.098718,0.294962,-0.039389,58,279,576,6224
1644190231.894866,-0.00769,0.010864,-0.994385,0.220855,0.554504,-0.069924,54,277,572,6240
1644190231.943241,-0.008667,0.011353,-0.992126,0.251389,0.447634,-0.130992,52,270,582,6192
1644190231.9916,-0.007019,0.010193,-0.991943,0.297191,0.386565,0.006412,41,281,576,6240
1644190232.04001,-0.012817,0.009705,-0.98999,0.342992,0.462901,0.036947,51,279,587,6240
1644190232.09183,-0.005737,0.007446,-0.993469,0.342992,0.508702,-0.176794,52,273,575,6176
1644190232.136774,-0.008057,0.009216,-0.992737,0.251389,0.462901,-0.069924,55,281,594,6288
1644190232.185189,-0.007019,0.011292,-0.992554,0.46513,0.417099,-0.14626,55,279,585,6256
1644190232.233544,-0.006653,0.009827,-0.991455,0.205588,0.462901,-0.161527,46,281,590,6160
1644190232.282203,-0.009949,0.007812,-0.989868,0.266656,0.371298,-0.130992,51,271,580,6256
1644190232.332673,-0.011658,0.008667,-0.992371,0.281924,0.325496,-0.039389,53,274,583,6224
1644190232.383102,-0.010071,0.011414,-0.991821,0.373527,0.294962,0.006412,57,282,577,6192
1644190232.428462,-0.01062,0.009094,-0.99115,0.022382,0.356031,-0.054656,46,281,583,6224
1644190232.523922,-0.008911,0.010559,-0.993774,0.037649,0.386565,-0.115725,51,276,587,6192
1644190232.572393,-0.00946,0.009094,-0.99115,0.098718,0.447634,0.006412,49,270,586,6240
1644190232.6207,-0.00769,0.010254,-0.992371,0.297191,0.401832,0.006412,48,281,580,6224
1644190232.66908,-0.006958,0.008911,-0.990295,0.159786,0.478168,-0.192061,47,277,582,6224
1644190232.717454,-0.006165,0.01123,-0.993835,0.068183,0.310229,0.036947,61,270,584,6224
1644190232.765863,-0.008057,0.006287,-0.990784,0.404061,0.417099,-0.100458,51,279,583,6256
1644190232.814318,-0.009155,0.008728,-0.992249,0.297191,0.371298,-0.039389,53,262,587,6288
1644190232.862716,-0.003906,0.007996,-0.992188,0.190321,0.371298,-0.161527,54,275,582,6224
1644190232.911088,-0.009888,0.008728,-0.991943,0.35826,0.417099,-0.039389,59,277,593,6240
1644190232.959446,-0.008179,0.00824,-0.992004,0.220855,0.462901,-0.176794,54,270,586,6224
1644190233.007862,-0.007568,0.00769,-0.992249,0.205588,0.432366,-0.115725,58,279,580,6192
1644190233.060027,-0.00647,0.006592,-0.991028,0.220855,0.340763,-0.115725,54,273,591,6224
1644190233.104657,-0.007202,0.011536,-0.992859,0.327725,0.386565,-0.085191,52,294,582,6240
1644190233.153028,-0.008728,0.009827,-0.992126,0.144519,0.356031,-0.039389,59,275,582,6192
1644190233.201409,-0.008728,0.01062,-0.991455,0.159786,0.417099,-0.192061,59,280,586,6256
1644190233.249798,-0.009399,0.008911,-0.994507,0.190321,0.432366,-0.008855,53,286,592,6304
1644190233.298191,-0.007507,0.007751,-0.994019,0.342992,0.462901,0.067481,58,281,583,6240
1644190233.346581,-0.00946,0.013794,-0.990479,0.205588,0.462901,-0.008855,49,277,584,6224
1644190233.395024,-0.009705,0.009644,-0.993652,0.037649,0.462901,-0.085191,49,277,577,6256
1644190233.443466,-0.010559,0.007629,-0.995056,0.327725,0.386565,-0.024122,57,282,582,6176
1644190233.494259,-0.011963,0.009155,-0.994141,0.312458,0.386565,-0.192061,49,280,584,6224
1644190233.544035,-0.005981,0.011658,-0.991028,0.220855,0.417099,-0.161527,43,274,583,6256
1644190233.589194,-0.009216,0.007446,-0.993713,0.266656,0.310229,-0.008855,55,283,583,6288
1644190233.685321,-0.008667,0.010803,-0.990112,0.159786,0.417099,-0.161527,45,277,579,6192
1644190233.733752,-0.008545,0.010376,-0.989502,0.220855,0.417099,-0.085191,43,274,580,6192
1644190233.782368,-0.010742,0.009033,-0.99054,0.144519,0.371298,-0.024122,47,275,591,6224
1644190233.830559,-0.009399,0.006714,-0.993835,0.144519,0.539237,-0.100458,57,275,584,6224
1644190233.878945,-0.00885,0.012268,-0.992065,-0.008153,0.218626,-0.100458,52,280,579,6224
1644190233.927351,-0.007812,0.007629,-0.990784,-0.02342,0.432366,-0.069924,52,263,586,6224
1644190233.975723,-0.007874,0.008423,-0.992493,0.281924,0.371298,-0.100458,54,273,579,6224
1644190234.024128,-0.00592,0.009583,-0.991028,0.159786,0.417099,-0.054656,48,271,585,6176
1644190234.076937,-0.010254,0.008911,-0.994568,0.434595,0.294962,-0.085191,47,277,591,6240
1644190234.120866,-0.007446,0.009277,-0.990784,0.190321,0.432366,-0.069924,47,277,586,6224
1644190234.169263,-0.008118,0.009033,-0.992615,0.251389,0.401832,-0.130992,40,282,586,6192
1644190234.217633,-0.012512,0.008728,-0.996338,0.098718,0.432366,-0.054656,40,275,577,6304
1644190234.266024,-0.00769,0.014221,-0.991699,0.236122,0.310229,-0.14626,49,277,593,6176
1644190234.31445,-0.009338,0.010498,-0.991516,0.159786,0.371298,-0.115725,46,269,578,6224
1644190234.362857,-0.005798,0.011047,-0.990234,0.342992,0.325496,-0.161527,48,269,585,6128
1644190234.411223,-0.007385,0.008911,-0.992493,0.342992,0.432366,-0.039389,58,279,592,6224
1644190234.459622,-0.009521,0.010254,-0.993225,0.190321,0.386565,-0.115725,48,276,590,6256
1644190234.50801,-0.010132,0.01001,-0.991211,0.281924,0.523969,-0.039389,39,276,580,6176
1644190234.556406,-0.007751,0.00885,-0.993591,0.266656,0.294962,-0.100458,45,277,584,6224
1644190234.605587,-0.008789,0.00769,-0.991943,0.342992,0.325496,-0.024122,43,276,580,6224
1644190234.65575,-0.00885,0.007568,-0.989685,0.220855,0.432366,-0.14626,57,273,584,6256
1644190234.705795,-0.007324,0.013245,-0.990295,0.129252,0.447634,-0.054656,49,287,589,6240
1644190234.750867,-0.009277,0.010986,-0.992615,0.281924,0.356031,-0.115725,53,271,587,6240
1644190234.846815,-0.008362,0.007935,-0.992249,0.281924,0.386565,-0.130992,48,281,585,6224
1644190234.895394,-0.006165,0.010254,-0.990723,0.312458,0.447634,0.052214,47,273,582,6224
1644190234.943604,-0.007019,0.010071,-0.991638,0.342992,0.325496,-0.161527,59,273,579,6256
1644190234.991954,-0.005493,0.010925,-0.99176,0.266656,0.340763,-0.192061,51,269,576,6176
1644190235.040381,-0.00769,0.009216,-0.992859,0.129252,0.417099,-0.207328,48,276,585,6256
1644190235.088852,-0.012085,0.010742,-0.993103,0.281924,0.417099,-0.176794,39,283,585,6224
1644190235.13713,-0.008179,0.00824,-0.991394,0.251389,0.386565,-0.192061,53,274,566,6128
1644190235.185528,-0.010681,0.010132,-0.991333,0.144519,0.294962,-0.069924,46,279,585,6240
1644190235.233932,-0.009155,0.011841,-0.992065,0.404061,0.462901,-0.115725,49,270,577,6192
1644190235.282297,-0.010742,0.010559,-0.992676,0.190321,0.432366,-0.14626,43,279,585,6192
1644190235.330702,-0.010315,0.007751,-0.99292,0.220855,0.371298,-0.130992,66,275,591,6176
1644190235.379089,-0.008057,0.008484,-0.990601,0.220855,0.493435,-0.207328,48,269,580,6256
1644190235.427473,-0.009766,0.012878,-0.992249,0.113985,0.508702,-0.100458,54,275,600,6192
1644190235.475866,-0.008118,0.009521,-0.992432,0.159786,0.462901,-0.085191,41,286,597,6192
1644190235.524282,-0.011353,0.008911,-0.991211,0.373527,0.539237,-0.14626,59,277,579,6240
1644190235.572763,-0.00824,0.007935,-0.99054,0.35826,0.447634,-0.039389,52,285,575,6192
1644190235.622833,-0.007629,0.011536,-0.99176,0.190321,0.462901,-0.222595,51,283,576,6240
1644190235.67315,-0.01001,0.008728,-0.994324,0.144519,0.478168,-0.161527,45,270,579,6224
1644190235.718186,-0.00824,0.009033,-0.991638,0.129252,0.508702,-0.176794,55,266,587,6240
1644190235.815183,-0.012146,0.009949,-0.994507,0.113985,0.356031,-0.222595,46,276,580,6240
1644190235.863072,-0.010864,0.008667,-0.994812,0.266656,0.508702,-0.100458,48,271,580,6256
1644190235.911413,-0.006287,0.007263,-0.992859,0.388794,0.462901,-0.130992,47,280,586,6160
1644190235.959842,-0.008423,0.005676,-0.991272,0.251389,0.523969,-0.069924,48,271,580,6240
1644190236.008218,-0.007812,0.010498,-0.992493,0.159786,0.356031,-0.039389,43,271,580,6176
1644190236.064686,-0.009888,0.007812,-0.99115,0.205588,0.478168,-0.024122,51,283,590,6256
1644190236.105062,-0.008179,0.009949,-0.990112,0.205588,0.432366,-0.14626,49,265,589,6256
1644190236.153365,-0.008606,0.009521,-0.991882,0.236122,0.447634,-0.039389,51,276,583,6224
1644190236.201782,-0.009216,0.00946,-0.992737,0.175053,0.447634,-0.054656,48,276,585,6192
1644190236.250158,-0.012207,0.009094,-0.992065,0.297191,0.325496,-0.14626,52,277,586,6176
1644190236.298551,-0.007202,0.007935,-0.990051,0.113985,0.325496,-0.054656,47,273,584,6240
1644190236.34697,-0.009216,0.009216,-0.991333,0.312458,0.432366,-0.237863,45,294,584,6256
1644190236.395343,-0.008484,0.009216,-0.992432,0.236122,0.523969,-0.130992,53,271,592,6240
1644190236.443756,-0.008118,0.006409,-0.992126,0.266656,0.432366,0.036947,45,287,570,6192
1644190236.492376,-0.008423,0.009949,-0.990601,-0.008153,0.371298,-0.100458,59,273,596,6240
1644190236.540492,-0.009521,0.008301,-0.992676,0.113985,0.417099,-0.008855,46,276,583,6304
1644190236.588918,-0.009827,0.007385,-0.991028,0.052916,0.417099,-0.054656,59,280,582,6224
1644190236.637277,-0.00946,0.009094,-0.991943,0.281924,0.356031,-0.14626,49,275,586,6256
1644190236.685696,-0.01239,0.008789,-0.989868,0.129252,0.356031,-0.039389,38,275,589,6304
1644190236.734384,-0.007263,0.008545,-0.993896,0.159786,0.386565,-0.176794,54,277,586,6256
1644190236.78494,-0.009094,0.010071,-0.993286,0.190321,0.478168,-0.192061,43,279,580,6128
1644190236.835296,-0.00824,0.010803,-0.992432,0.388794,0.432366,0.036947,53,276,587,6160
1644190236.880503,-0.012085,0.008728,-0.99176,0.312458,0.447634,0.036947,59,268,593,6160
1644190236.976082,-0.007874,0.012207,-0.98877,0.175053,0.493435,-0.161527,49,277,579,6240
1644190237.024498,-0.010498,0.008484,-0.992859,0.281924,0.386565,-0.054656,51,279,585,6224
1644190237.072967,-0.012024,0.008606,-0.992249,0.312458,0.401832,-0.054656,55,269,592,6192
1644190237.121293,-0.011475,0.010986,-0.991394,0.266656,0.417099,-0.100458,48,271,578,6256
1644190237.169609,-0.007385,0.009033,-0.992676,0.297191,0.264427,-0.130992,51,279,587,6192
1644190237.218024,-0.007568,0.009827,-0.991211,0.312458,0.279695,-0.115725,48,271,587,6224
1644190237.266417,-0.009583,0.011292,-0.995422,0.098718,0.478168,-0.024122,46,279,580,6256
1644190237.314798,-0.008057,0.009766,-0.990234,0.373527,0.447634,-0.069924,49,275,579,6224
1644190237.363217,-0.009827,0.008606,-0.993347,0.220855,0.294962,0.021679,42,273,579,6224
1644190237.411592,-0.010132,0.011353,-0.993652,0.159786,0.447634,-0.054656,52,275,582,6224
1644190237.459996,-0.008484,0.009888,-0.992493,0.190321,0.539237,-0.100458,46,279,590,6192
1644190237.508388,-0.007324,0.009888,-0.992676,0.220855,0.447634,-0.14626,51,281,578,6192
1644190237.556788,-0.011475,0.00824,-0.99292,0.113985,0.447634,-0.14626,48,271,592,6240
1644190237.605247,-0.009521,0.007874,-0.991211,0.129252,0.462901,-0.161527,54,273,584,6240
1644190237.653564,-0.010864,0.010803,-0.98938,0.266656,0.401832,-0.222595,51,276,585,6192
1644190237.701976,-0.01123,0.00708,-0.989136,0.297191,0.310229,-0.085191,51,274,583,6224
1644190237.750331,-0.009399,0.010437,-0.993958,0.144519,0.24916,-0.069924,46,276,587,6192
1644190237.798736,-0.009033,0.005737,-0.995361,0.205588,0.493435,-0.085191,57,275,589,6240
1644190237.847163,-0.007996,0.007996,-0.99054,0.159786,0.279695,-0.14626,46,279,585,6224
1644190237.897277,-0.008362,0.008484,-0.990723,0.190321,0.508702,-0.176794,55,279,578,6224
1644190237.947737,-0.010132,0.007141,-0.990051,0.236122,0.508702,-0.161527,45,271,571,6224
1644190237.997642,-0.007751,0.008606,-0.991211,0.236122,0.417099,-0.100458,43,279,573,6224
1644190238.042325,-0.007141,0.011292,-0.989685,0.404061,0.493435,0.082748,53,286,587,6176
1644190238.137529,-0.008545,0.007324,-0.991089,0.08345,0.523969,-0.115725,53,276,576,6288
1644190238.185871,-0.007996,0.007996,-0.991821,0.46513,0.325496,-0.25313,41,269,580,6240
1644190238.234279,-0.009338,0.010986,-0.991089,0.129252,0.356031,-0.085191,49,270,586,6176
1644190238.282685,-0.007324,0.011047,-0.992065,0.281924,0.523969,-0.069924,51,279,583,6224
1644190238.331052,-0.007812,0.010803,-0.990417,0.190321,0.478168,-0.192061,55,276,585,6256
1644190238.379445,-0.009644,0.011292,-0.99292,0.236122,0.386565,-0.268397,48,271,587,6192
1644190238.427816,-0.010437,0.008972,-0.99231,0.175053,0.417099,-0.115725,52,275,570,6256
1644190238.476239,-0.009949,0.009949,-0.991638,0.113985,0.356031,-0.115725,48,269,585,6224
1644190238.524652,-0.010498,0.008789,-0.992188,0.297191,0.447634,-0.100458,52,273,577,6192
1644190238.573048,-0.010803,0.008301,-0.989258,0.113985,0.310229,0.006412,41,266,583,6240
1644190238.621428,-0.007324,0.006653,-0.992859,0.159786,0.325496,-0.069924,52,280,572,6288
1644190238.669826,-0.009949,0.011169,-0.993469,0.312458,0.386565,-0.054656,52,273,575,6240
1644190238.718174,-0.010071,0.009827,-0.99231,0.297191,0.279695,0.021679,49,287,584,6224
1644190238.766611,-0.007996,0.00885,-0.991577,0.251389,0.279695,-0.085191,43,279,592,6240
1644190238.815026,-0.008362,0.010132,-0.991028,0.022382,0.417099,-0.054656,43,276,585,6256
1644190238.863435,-0.008423,0.009521,-0.992004,0.266656,0.417099,-0.25313,61,273,596,6304
1644190238.911814,-0.006287,0.009216,-0.991821,0.220855,0.401832,-0.069924,48,271,585,6160
1644190238.96111,-0.00647,0.011353,-0.992859,0.236122,0.585038,-0.100458,52,280,579,6224
1644190239.064978,-0.006042,0.010254,-0.99115,0.129252,0.432366,0.021679,61,265,593,6224
1644190239.10538,-0.010803,0.010193,-0.991394,0.190321,0.356031,-0.100458,55,274,580,6176
1644190239.153804,-0.008606,0.009033,-0.992798,0.236122,0.401832,-0.100458,54,280,586,6256
1644190239.202185,-0.009094,0.00885,-0.994934,0.175053,0.493435,-0.14626,57,277,575,6224
1644190239.250511,-0.008728,0.008301,-0.992981,0.236122,0.417099,-0.207328,42,273,579,6288
1644190239.298922,-0.007507,0.007446,-0.99176,0.373527,0.462901,-0.130992,57,268,577,6224
1644190239.347309,-0.007629,0.008423,-0.991394,0.251389,0.340763,-0.237863,54,282,584,6224
1644190239.39571,-0.006836,0.009155,-0.993591,0.312458,0.401832,-0.054656,49,285,586,6256
1644190239.444113,-0.00885,0.009216,-0.992188,0.144519,0.554504,0.052214,51,279,578,6224
1644190239.492481,-0.00531,0.009338,-0.991821,0.342992,0.386565,-0.176794,47,270,591,6192
1644190239.540882,-0.007202,0.010193,-0.993896,0.388794,0.569771,-0.085191,54,270,577,6176
1644190239.58928,-0.007263,0.007812,-0.991821,0.175053,0.401832,0.036947,43,279,576,6176
1644190239.637678,-0.006714,0.009338,-0.992737,0.35826,0.371298,-0.054656,51,279,578,6224
1644190239.686033,-0.009521,0.012024,-0.990234,0.266656,0.356031,-0.085191,43,281,585,6256
1644190239.734474,-0.009644,0.008972,-0.992859,0.08345,0.203359,0.036947,45,277,586,6304
1644190239.783207,-0.008423,0.008057,-0.99231,0.159786,0.356031,-0.008855,53,283,592,6240
1644190239.833764,-0.008362,0.007812,-0.990601,0.297191,0.401832,-0.100458,45,273,577,6224
1644190239.884893,-0.007935,0.010864,-0.989746,0.35826,0.401832,-0.054656,42,270,582,6224
1644190239.929543,-0.008728,0.010254,-0.992676,0.327725,0.279695,-0.130992,53,274,573,6224
1644190240.024891,-0.007141,0.010681,-0.991089,0.190321,0.417099,-0.039389,49,275,591,6240
1644190240.073343,-0.006897,0.008911,-0.991516,0.251389,0.279695,-0.024122,46,276,585,6224
1644190240.121588,-0.009277,0.009583,-0.993042,0.281924,0.523969,-0.115725,36,271,590,6256
1644190240.170038,-0.007751,0.010132,-0.993042,0.297191,0.478168,-0.085191,45,273,579,6240
1644190240.218424,-0.005127,0.008728,-0.991577,0.236122,0.417099,-0.115725,41,271,585,6192
1644190240.266824,-0.009094,0.008667,-0.990723,0.266656,0.462901,-0.207328,49,280,579,6240
1644190240.31536,-0.009216,0.008911,-0.993225,0.175053,0.24916,-0.024122,45,275,586,6240
1644190240.363614,-0.008911,0.010315,-0.990723,0.190321,0.401832,-0.130992,46,283,585,6192
1644190240.412009,-0.008118,0.009155,-0.99115,0.190321,0.401832,0.021679,48,271,576,6304
1644190240.4604,-0.004883,0.010681,-0.990112,0.220855,0.447634,0.067481,47,265,579,6240
1644190240.508773,-0.011841,0.007324,-0.992615,0.342992,0.447634,-0.192061,58,279,573,6240
1644190240.557173,-0.006714,0.011597,-0.994385,0.297191,0.447634,0.021679,57,268,582,6224
1644190240.605595,-0.009338,0.00824,-0.992188,0.312458,0.325496,-0.161527,52,275,586,6256
1644190240.653966,-0.005798,0.012024,-0.992615,0.281924,0.401832,-0.024122,49,282,589,6224
1644190240.702375,-0.01062,0.009216,-0.991882,0.327725,0.401832,-0.054656,57,285,582,6256
1644190240.750723,-0.007568,0.008606,-0.992493,0.236122,0.554504,-0.100458,47,273,584,6224
1644190240.799139,-0.006836,0.007446,-0.992981,0.312458,0.523969,-0.161527,52,277,582,6240
1644190240.847582,-0.009888,0.008606,-0.993896,0.144519,0.417099,-0.024122,45,277,582,6240
1644190240.896225,-0.005005,0.008179,-0.991821,0.052916,0.432366,-0.024122,62,281,592,6224
1644190240.946726,-0.010681,0.009888,-0.991882,0.190321,0.722443,-0.161527,55,281,587,6288
1644190240.99675,-0.00769,0.01123,-0.990601,0.312458,0.508702,-0.161527,51,266,573,6224
1644190241.060295,-0.006592,0.006775,-0.992188,0.190321,0.462901,-0.085191,53,274,592,6256
1644190241.137848,-0.009644,0.009583,-0.99231,0.159786,0.432366,-0.207328,47,270,579,6160
1644190241.186229,-0.007812,0.009705,-0.994019,0.327725,0.63084,-0.039389,45,270,577,6256
1644190241.234846,-0.008057,0.010315,-0.991333,0.251389,0.279695,-0.008855,46,283,583,6288
1644190241.283023,-0.009216,0.006592,-0.99408,0.159786,0.432366,0.067481,55,276,576,6176
1644190241.331422,-0.008301,0.010681,-0.991882,0.220855,0.386565,-0.069924,58,288,578,6256
1644190241.379817,-0.006958,0.008972,-0.991516,0.327725,0.371298,-0.024122,57,275,582,6240
1644190241.428215,-0.009644,0.010254,-0.990479,0.297191,0.417099,0.021679,55,264,573,6256
1644190241.476612,-0.008057,0.011047,-0.99115,0.342992,0.478168,-0.008855,39,274,573,6192
1644190241.525033,-0.008423,0.011292,-0.990356,0.312458,0.356031,-0.14626,48,279,587,6224
1644190241.573384,-0.007874,0.009277,-0.989624,0.205588,0.478168,-0.039389,45,275,579,6224
1644190241.621799,-0.009827,0.009338,-0.991089,0.236122,0.462901,0.006412,51,274,585,6256
1644190241.670184,-0.00647,0.006287,-0.988525,0.190321,0.478168,-0.085191,48,266,585,6256
1644190241.718576,-0.010071,0.010315,-0.991821,0.113985,0.386565,-0.054656,57,277,591,6224
1644190241.766934,-0.006836,0.009399,-0.992615,0.281924,0.386565,-0.008855,40,270,575,6256
1644190241.815385,-0.007629,0.009888,-0.991577,0.129252,0.371298,-0.115725,46,276,583,6192
1644190241.863815,-0.007568,0.008728,-0.992188,0.236122,0.447634,-0.069924,54,277,591,6288
1644190241.912208,-0.007996,0.007568,-0.992737,0.236122,0.523969,-0.161527,49,275,584,6224
1644190241.960897,-0.008911,0.009216,-0.98999,0.236122,0.401832,-0.14626,45,285,586,6176
1644190242.064593,-0.008118,0.007568,-0.99469,0.266656,0.371298,-0.085191,55,279,578,6240
1644190242.105723,-0.009705,0.007751,-0.991089,0.159786,0.294962,-0.100458,48,269,587,6240
1644190242.154109,-0.008301,0.010437,-0.993103,0.434595,0.386565,-0.054656,40,282,584,6224
1644190242.202501,-0.009277,0.011475,-0.994141,0.08345,0.432366,-0.161527,49,273,582,6256
1644190242.250864,-0.010315,0.009827,-0.991577,0.175053,0.401832,-0.192061,41,276,585,6224
1644190242.299285,-0.008972,0.006714,-0.993652,0.35826,0.386565,-0.008855,47,280,584,6240
1644190242.347685,-0.007996,0.00708,-0.989624,0.205588,0.447634,-0.008855,49,282,589,6240
1644190242.396088,-0.007935,0.009521,-0.992065,0.098718,0.356031,-0.130992,58,281,576,6224
1644190242.444476,-0.011169,0.011475,-0.990967,0.098718,0.462901,-0.222595,51,274,585,6240
1644190242.492854,-0.008179,0.007263,-0.992065,0.281924,0.294962,-0.192061,43,264,585,6256
1644190242.541257,-0.009033,0.007874,-0.992126,0.266656,0.478168,-0.054656,51,279,583,6192
1644190242.589664,-0.008789,0.008911,-0.992554,0.098718,0.447634,-0.069924,55,276,583,6192
1644190242.638013,-0.008301,0.011841,-0.991943,0.129252,0.417099,0.082748,43,286,585,6240
1644190242.686441,-0.007751,0.01001,-0.990601,0.068183,0.462901,-0.085191,55,271,597,6192
1644190242.734829,-0.007812,0.011108,-0.992737,0.236122,0.264427,-0.100458,42,277,582,6256
1644190242.783437,-0.007324,0.007629,-0.990967,0.388794,0.462901,-0.130992,45,277,582,6240
1644190242.834212,-0.009094,0.010925,-0.993713,0.007115,0.493435,-0.100458,55,271,573,6224
1644190242.884411,-0.008057,0.010315,-0.990295,0.144519,0.478168,-0.237863,51,271,576,6256
1644190242.928851,-0.00885,0.012878,-0.994934,0.236122,0.401832,-0.085191,47,280,589,6176
1644190243.025461,-0.007629,0.008179,-0.992126,0.251389,0.554504,-0.161527,53,279,587,6240
1644190243.073726,-0.010071,0.008484,-0.990723,0.190321,0.294962,0.082748,41,274,590,6160
1644190243.12202,-0.010498,0.01001,-0.992615,0.159786,0.386565,-0.130992,41,274,576,6224
1644190243.170362,-0.007751,0.010315,-0.992126,0.35826,0.493435,-0.085191,47,273,586,6160
1644190243.218753,-0.009216,0.009277,-0.988525,0.175053,0.340763,-0.054656,47,282,589,6224
1644190243.267136,-0.007202,0.008179,-0.989258,0.205588,0.447634,-0.222595,55,276,587,6224
1644190243.315535,-0.01001,0.00885,-0.992615,0.327725,0.386565,-0.130992,54,280,586,6176
1644190243.363941,-0.009277,0.008972,-0.992676,0.297191,0.432366,-0.14626,49,277,572,6224
1644190243.412349,-0.007202,0.008118,-0.989075,0.205588,0.386565,-0.192061,48,262,590,6240
1644190243.460711,-0.010376,0.008911,-0.993652,0.281924,0.432366,-0.069924,52,270,591,6240
1644190243.509128,-0.010925,0.009949,-0.989502,0.144519,0.447634,-0.14626,68,275,593,6304
1644190243.557511,-0.009277,0.008118,-0.991089,0.037649,0.371298,-0.039389,60,276,576,6224
1644190243.605901,-0.010071,0.010193,-0.990112,0.35826,0.310229,0.052214,45,268,570,6224
1644190243.654277,-0.00824,0.007751,-0.992676,0.129252,0.356031,-0.039389,52,280,591,6224
1644190243.7027,-0.01062,0.01062,-0.992676,0.342992,0.447634,-0.100458,55,281,578,6240
1644190243.751094,-0.009888,0.010986,-0.990845,0.144519,0.600305,-0.024122,59,277,589,6224
1644190243.799448,-0.007141,0.010498,-0.993896,0.022382,0.447634,0.052214,60,296,583,6224
1644190243.847908,-0.008789,0.012024,-0.992188,0.251389,0.401832,-0.100458,42,275,575,6256
1644190243.8975,-0.009155,0.008972,-0.993958,0.129252,0.356031,-0.008855,41,286,580,6240
1644190243.947408,-0.012024,0.009827,-0.990479,0.312458,0.447634,-0.130992,55,274,578,6256
1644190243.997725,-0.007507,0.008301,-0.992554,0.236122,0.325496,-0.039389,64,275,593,6224
1644190244.042268,-0.00824,0.008972,-0.991272,0.312458,0.417099,-0.161527,55,283,585,6224
1644190244.138272,-0.007812,0.009399,-0.993713,0.175053,0.615573,-0.100458,42,275,572,6224
1644190244.1866,-0.007263,0.009033,-0.993652,0.175053,0.340763,-0.237863,48,274,590,6176
1644190244.235237,-0.008667,0.008545,-0.989868,0.281924,0.401832,-0.008855,46,286,583,6288
1644190244.283394,-0.011597,0.010315,-0.991455,0.342992,0.417099,-0.100458,53,274,580,6224
1644190244.331785,-0.010986,0.011841,-0.993469,0.098718,0.447634,-0.161527,53,269,580,6224
1644190244.380185,-0.010681,0.00885,-0.990967,0.297191,0.447634,-0.222595,51,274,580,6224
1644190244.428585,-0.00946,0.008545,-0.993652,0.037649,0.447634,-0.176794,51,279,580,6224
1644190244.476964,-0.00769,0.009216,-0.988464,0.098718,0.432366,-0.115725,46,274,578,6240
1644190244.525364,-0.010864,0.009216,-0.99054,0.281924,0.417099,-0.14626,45,265,584,6224
1644190244.573767,-0.007874,0.007812,-0.991943,0.190321,0.325496,-0.069924,60,279,578,6192
1644190244.622236,-0.008972,0.010559,-0.98938,0.190321,0.356031,0.006412,55,271,585,6224
1644190244.670547,-0.008057,0.009705,-0.991577,0.129252,0.554504,-0.161527,53,276,576,6176
1644190244.718927,-0.011719,0.009338,-0.992676,0.205588,0.24916,-0.14626,55,281,576,6224
1644190244.767329,-0.007202,0.009155,-0.992981,0.190321,0.356031,-0.161527,52,290,584,6224
1644190244.815726,-0.008362,0.009277,-0.992065,0.297191,0.417099,-0.039389,52,270,579,6224
1644190244.864166,-0.01123,0.008301,-0.992065,0.220855,0.401832,-0.130992,45,275,586,6288
1644190244.91257,-0.011047,0.008911,-0.991333,0.342992,0.340763,0.021679,60,279,578,6160
1644190244.960935,-0.01001,0.008728,-0.991455,0.159786,0.432366,-0.039389,49,273,589,6240
1644190245.060158,-0.008972,0.00885,-0.99292,0.46513,0.417099,-0.176794,61,268,586,6240
1644190245.106111,-0.00824,0.009888,-0.991455,0.220855,0.417099,-0.130992,55,281,578,6288
1644190245.154488,-0.004333,0.010254,-0.990967,0.205588,0.493435,0.067481,52,270,579,6256
1644190245.202888,-0.009766,0.011047,-0.992859,0.205588,0.478168,-0.069924,51,274,578,6256
1644190245.25124,-0.00946,0.011169,-0.993774,0.220855,0.462901,-0.14626,51,281,578,6240
1644190245.299711,-0.006226,0.008606,-0.991272,0.342992,0.340763,-0.100458,45,270,572,6256
1644190245.348011,-0.010559,0.010376,-0.992188,0.129252,0.417099,-0.222595,49,270,572,6192
1644190245.396439,-0.007019,0.009277,-0.995056,0.144519,0.478168,0.006412,40,277,579,6224
1644190245.444861,-0.007812,0.011108,-0.994385,0.312458,0.478168,-0.024122,45,270,591,6160
1644190245.493216,-0.009033,0.006714,-0.993896,0.281924,0.386565,0.006412,47,277,572,6192
1644190245.541624,-0.01239,0.007935,-0.992126,0.159786,0.493435,-0.024122,52,275,589,6240
1644190245.590017,-0.007812,0.008362,-0.988037,0.205588,0.539237,-0.115725,48,271,571,6192
1644190245.638402,-0.005249,0.010071,-0.99353,0.312458,0.462901,-0.008855,46,271,590,6160
1644190245.686792,-0.009216,0.010803,-0.991516,0.190321,0.478168,-0.024122,48,269,583,6224
1644190245.735193,-0.009888,0.008301,-0.989685,0.220855,0.401832,-0.054656,42,273,579,6128
1644190245.783602,-0.009888,0.008789,-0.991821,0.129252,0.447634,0.067481,46,286,590,6256
1644190245.831976,-0.00946,0.008789,-0.992371,0.144519,0.493435,-0.024122,54,282,584,6256
1644190245.880543,-0.007751,0.009705,-0.993774,0.281924,0.386565,-0.024122,48,271,587,6192
1644190245.930615,-0.009277,0.009033,-0.991943,0.281924,0.508702,-0.222595,52,277,577,6160
1644190245.980825,-0.009766,0.008728,-0.991516,0.327725,0.401832,-0.069924,46,269,580,6192
1644190246.031132,-0.007507,0.008972,-0.991028,0.129252,0.386565,-0.054656,49,265,582,6224
1644190246.122394,-0.009399,0.008972,-0.992249,0.297191,0.401832,-0.14626,47,275,579,6240
1644190246.170722,-0.009583,0.008667,-0.993408,0.342992,0.417099,-0.069924,65,271,583,6176
1644190246.219127,-0.011902,0.008057,-0.992249,0.190321,0.447634,-0.085191,48,271,583,6224
1644190246.267509,-0.008728,0.008118,-0.993225,0.236122,0.539237,-0.039389,48,269,580,6256
1644190246.315889,-0.011841,0.009338,-0.992371,0.266656,0.279695,-0.161527,53,266,583,6224
1644190246.36431,-0.007507,0.010864,-0.993896,0.388794,0.447634,-0.008855,49,282,584,6224
1644190246.41272,-0.009216,0.009521,-0.993164,0.159786,0.554504,0.006412,55,279,585,6224
1644190246.461094,-0.009216,0.009155,-0.993591,0.266656,0.432366,-0.100458,51,274,576,6240
1644190246.509497,-0.007874,0.011414,-0.991943,0.266656,0.356031,-0.192061,47,268,582,6224
1644190246.557875,-0.00946,0.010498,-0.98999,0.35826,0.493435,-0.176794,57,265,586,6240
1644190246.606241,-0.00647,0.009033,-0.99353,0.175053,0.325496,-0.039389,66,282,582,6224
1644190246.654711,-0.008911,0.012878,-0.990784,0.190321,0.417099,-0.069924,48,271,585,6240
1644190246.703062,-0.009583,0.011353,-0.990601,0.159786,0.447634,0.098015,47,275,575,6224
1644190246.751446,-0.01239,0.010315,-0.990723,0.220855,0.554504,-0.207328,48,262,585,6224
1644190246.799864,-0.009644,0.01062,-0.993713,0.052916,0.432366,0.006412,46,274,576,6192
1644190246.848277,-0.010803,0.008789,-0.990723,0.236122,0.447634,-0.024122,58,274,578,6176
1644190246.896676,-0.008179,0.008301,-0.991821,0.236122,0.218626,-0.024122,57,270,582,6192
1644190246.945266,-0.008606,0.009155,-0.994202,0.281924,0.386565,-0.085191,48,266,587,6192
1644190246.993462,-0.008545,0.01062,-0.990784,0.175053,0.523969,-0.161527,46,276,583,6240
1644190247.042892,-0.008057,0.010559,-0.993408,0.327725,0.554504,-0.085191,52,270,570,6224
1644190247.094869,-0.00946,0.011047,-0.991638,0.205588,0.462901,0.052214,43,274,580,6160
1644190247.142606,-0.009521,0.009155,-0.991455,0.236122,0.325496,-0.024122,55,264,583,6176
1644190247.187453,-0.010376,0.009888,-0.992004,0.159786,0.24916,0.113282,43,283,578,6176
1644190247.28376,-0.008301,0.008179,-0.994202,0.190321,0.417099,-0.085191,46,274,587,6224
1644190247.332395,-0.009949,0.009338,-0.991028,0.266656,0.523969,-0.115725,54,277,586,6240
1644190247.38054,-0.011475,0.010376,-0.991882,0.236122,0.325496,-0.039389,47,268,582,6240
1644190247.428947,-0.007141,0.009094,-0.993835,0.220855,0.386565,0.006412,42,275,579,6240
1644190247.477329,-0.010132,0.009888,-0.990051,0.098718,0.478168,-0.085191,40,273,582,6176
1644190247.525738,-0.007141,0.009338,-0.990295,0.312458,0.462901,-0.161527,45,273,586,6256
1644190247.57413,-0.008728,0.009888,-0.993347,0.35826,0.294962,-0.024122,54,277,584,6240
1644190247.622552,-0.010132,0.008728,-0.990906,0.35826,0.340763,-0.100458,60,281,580,6256
1644190247.670903,-0.009033,0.009888,-0.993469,0.175053,0.310229,-0.115725,53,276,583,6192
1644190247.719314,-0.009216,0.007507,-0.991455,0.281924,0.447634,-0.008855,42,277,579,6176
1644190247.767704,-0.010681,0.011047,-0.991089,0.312458,0.233893,-0.008855,52,285,572,6256
1644190247.816148,-0.004272,0.008301,-0.991882,0.236122,0.447634,-0.100458,54,270,591,6160
1644190247.864522,-0.007019,0.008728,-0.994751,0.052916,0.417099,-0.024122,53,276,578,6224
1644190247.912933,-0.010437,0.011292,-0.992188,0.113985,0.294962,-0.054656,54,273,586,6160
1644190247.961298,-0.008423,0.010559,-0.99231,0.251389,0.508702,-0.192061,54,277,591,6256
1644190248.00971,-0.012512,0.009705,-0.991699,0.236122,0.432366,-0.115725,45,270,591,6176
1644190248.072222,-0.007507,0.008057,-0.991699,0.205588,0.493435,-0.054656,49,273,584,6176
1644190248.108898,-0.006958,0.011108,-0.99176,0.236122,0.279695,-0.14626,58,271,592,6224
1644190248.155162,-0.006958,0.008301,-0.990906,0.144519,0.447634,-0.100458,57,273,584,6192
1644190248.203296,-0.007996,0.010681,-0.992615,0.098718,0.356031,0.021679,48,283,578,6256
1644190248.253464,-0.007996,0.009949,-0.992737,0.052916,0.279695,0.052214,41,281,590,6224
1644190248.303766,-0.009583,0.009277,-0.993164,0.190321,0.401832,-0.069924,48,276,587,6240
1644190248.348715,-0.007751,0.009216,-0.991394,0.129252,0.371298,0.113282,47,270,584,6224
1644190248.445465,-0.008972,0.008728,-0.993164,0.404061,0.447634,-0.176794,61,277,584,6288
1644190248.493588,-0.008972,0.007568,-0.991943,0.251389,0.371298,-0.192061,60,281,585,6336
1644190248.541982,-0.008972,0.00885,-0.994202,0.327725,0.356031,0.006412,46,269,583,6224
1644190248.59037,-0.00885,0.010986,-0.992432,0.098718,0.447634,0.067481,47,273,582,6240
1644190248.638773,-0.009888,0.012024,-0.991089,0.251389,0.310229,-0.008855,57,273,584,6224
1644190248.687159,-0.007263,0.009583,-0.992981,0.098718,0.279695,-0.207328,45,275,586,6256
1644190248.735556,-0.011108,0.011597,-0.992676,0.312458,0.493435,-0.222595,57,280,582,6256
1644190248.783951,-0.006348,0.008972,-0.991089,0.281924,0.478168,-0.024122,48,276,583,6240
1644190248.832414,-0.006714,0.009216,-0.992188,0.327725,0.386565,-0.130992,39,274,576,6224
1644190248.880785,-0.008179,0.009338,-0.99231,0.342992,0.478168,-0.008855,43,281,576,6176
1644190248.929147,-0.006836,0.007751,-0.994507,0.129252,0.401832,0.098015,55,276,583,6128
1644190248.977561,-0.009949,0.009766,-0.994751,0.266656,0.493435,-0.054656,51,279,585,6192
1644190249.025957,-0.011597,0.009094,-0.990356,0.159786,0.523969,-0.054656,55,286,590,6224
1644190249.096419,-0.010498,0.007935,-0.993347,0.144519,0.356031,-0.024122,48,281,583,6224
1644190249.122726,-0.008057,0.008362,-0.992798,0.144519,0.447634,-0.207328,51,262,580,6176
1644190249.171292,-0.011353,0.007263,-0.989746,0.037649,0.432366,-0.024122,49,275,582,6192
1644190249.221787,-0.009766,0.006592,-0.990417,0.220855,0.462901,-0.024122,52,273,584,6240
1644190249.272214,-0.010254,0.007019,-0.990906,0.342992,0.554504,0.067481,65,276,585,6240
1644190249.317049,-0.004028,0.009399,-0.991211,0.342992,0.432366,-0.069924,55,286,580,6288
1644190249.413079,-0.009521,0.009033,-0.990601,0.159786,0.432366,-0.008855,49,273,582,6224
1644190249.461449,-0.008118,0.009583,-0.990784,0.342992,0.478168,-0.069924,46,274,580,6192
1644190249.509823,-0.008911,0.010742,-0.991638,0.312458,0.340763,-0.130992,51,271,578,6224
1644190249.558207,-0.010742,0.008606,-0.991394,0.281924,0.554504,-0.085191,59,270,572,6192
1644190249.606621,-0.008911,0.009827,-0.991577,0.251389,0.401832,-0.069924,47,282,575,6192
1644190249.655068,-0.007568,0.008972,-0.991394,0.220855,0.417099,-0.237863,53,266,585,6224
1644190249.703424,-0.009033,0.008423,-0.990723,0.205588,0.478168,-0.130992,46,276,578,6160
1644190249.751799,-0.009399,0.011658,-0.990845,0.220855,0.478168,-0.130992,45,275,577,6192
1644190249.8002,-0.006714,0.013123,-0.990662,0.35826,0.371298,-0.024122,49,268,579,6160
1644190249.848655,-0.012329,0.010681,-0.99353,0.266656,0.478168,-0.130992,43,274,573,6256
1644190249.897031,-0.007568,0.009705,-0.991699,0.388794,0.447634,-0.024122,49,265,593,6224
1644190249.945431,-0.006714,0.009094,-0.992981,0.098718,0.447634,-0.161527,46,269,578,6256
1644190249.993825,-0.008118,0.007629,-0.989563,0.098718,0.401832,-0.14626,45,275,591,6240
1644190250.042261,-0.008972,0.008545,-0.993408,0.327725,0.417099,-0.054656,46,274,585,6256
1644190250.093753,-0.008118,0.008423,-0.991882,0.205588,0.401832,0.006412,51,279,583,6240
1644190250.138978,-0.009277,0.006653,-0.99054,0.327725,0.340763,0.021679,54,285,575,6192
1644190250.18731,-0.007263,0.010193,-0.992188,0.251389,0.462901,0.067481,54,277,584,6288
1644190250.235756,-0.008301,0.010742,-0.991882,0.190321,0.478168,-0.069924,46,274,576,6224
1644190250.284111,-0.008118,0.008118,-0.992188,0.144519,0.478168,0.082748,48,271,578,6256
1644190250.33275,-0.008728,0.008118,-0.992065,0.312458,0.417099,-0.14626,57,287,584,6224
1644190250.383154,-0.012085,0.011169,-0.991455,0.281924,0.340763,-0.039389,49,275,584,6192
1644190250.43354,-0.00885,0.010132,-0.990479,0.190321,0.340763,-0.14626,57,280,591,6224
1644190250.478385,-0.006958,0.008728,-0.992554,0.205588,0.294962,-0.115725,52,270,582,6240
1644190250.57451,-0.007996,0.009094,-0.993103,0.159786,0.417099,0.006412,54,285,586,6224
1644190250.622888,-0.009094,0.009949,-0.992065,0.449863,0.371298,-0.069924,38,282,577,6224
1644190250.671271,-0.012634,0.008667,-0.992065,0.281924,0.371298,-0.176794,41,274,576,6256
1644190250.719664,-0.010864,0.010315,-0.991821,0.251389,0.371298,-0.130992,48,269,583,6240
1644190250.768057,-0.008728,0.011658,-0.990112,0.190321,0.340763,-0.085191,39,276,576,6224
1644190250.816432,-0.008911,0.009583,-0.992615,0.175053,0.294962,-0.085191,39,281,578,6240
1644190250.864887,-0.005676,0.00647,-0.993286,0.251389,0.493435,-0.100458,49,277,577,6160
1644190250.913296,-0.007935,0.006592,-0.9953,0.205588,0.264427,-0.008855,58,274,580,6224
1644190250.961684,-0.007019,0.009583,-0.991638,0.297191,0.523969,0.052214,58,271,580,6224
1644190251.010067,-0.008911,0.01001,-0.990723,0.098718,0.401832,-0.069924,43,279,580,6224
1644190251.060056,-0.006348,0.007202,-0.994507,0.068183,0.478168,-0.14626,41,271,590,6240
1644190251.10688,-0.009766,0.008606,-0.990173,0.266656,0.401832,0.067481,49,268,593,6240
1644190251.155295,-0.00769,0.008179,-0.992981,0.388794,0.508702,-0.008855,47,268,579,6192
1644190251.203593,-0.01062,0.00885,-0.995117,0.190321,0.356031,-0.024122,41,266,580,6256
1644190251.252001,-0.00708,0.008545,-0.991394,0.281924,0.401832,-0.085191,49,268,591,6176
1644190251.300396,-0.008667,0.010498,-0.992249,0.007115,0.218626,-0.176794,55,274,590,6160
1644190251.348783,-0.009827,0.009094,-0.994934,0.342992,0.417099,-0.314198,43,281,585,6192
1644190251.397176,-0.006958,0.006287,-0.995178,0.129252,0.493435,-0.054656,47,273,572,6224
1644190251.445565,-0.009521,0.009827,-0.992249,0.373527,0.310229,0.036947,52,270,586,6176
1644190251.494331,-0.01123,0.006165,-0.989746,0.251389,0.462901,-0.054656,54,265,579,6256
1644190251.54418,-0.010559,0.00769,-0.993164,0.236122,0.447634,0.052214,55,269,585,6256
1644190251.59451,-0.007019,0.009399,-0.992004,0.190321,0.325496,-0.054656,48,266,571,6256
1644190251.639722,-0.010437,0.006897,-0.993835,0.281924,0.371298,-0.024122,54,277,586,6224
1644190251.735918,-0.007019,0.012634,-0.991882,0.297191,0.462901,-0.024122,53,279,587,6240
1644190251.784331,-0.010742,0.010742,-0.99469,0.159786,0.294962,-0.25313,51,279,578,6224
1644190251.832732,-0.01123,0.011536,-0.992249,0.144519,0.432366,-0.115725,51,276,583,6224
1644190251.881131,-0.010071,0.010254,-0.992432,0.236122,0.325496,0.006412,40,270,579,6192
1644190251.92953,-0.007019,0.011108,-0.990173,0.297191,0.432366,-0.115725,55,271,578,6224
1644190251.977922,-0.006653,0.009949,-0.98999,0.159786,0.432366,-0.130992,47,280,577,6224
1644190252.026311,-0.011169,0.00885,-0.992249,0.205588,0.310229,-0.024122,46,271,587,6176
1644190252.074875,-0.00824,0.009155,-0.993469,0.236122,0.371298,-0.085191,57,285,589,6224
1644190252.123151,-0.006653,0.010681,-0.99292,0.175053,0.447634,-0.024122,59,277,577,6240
1644190252.171465,-0.008789,0.009705,-0.993958,0.266656,0.294962,0.036947,52,273,593,6192
1644190252.219855,-0.009644,0.009766,-0.994263,0.297191,0.386565,-0.100458,41,276,585,6224
1644190252.268244,-0.008606,0.006042,-0.992859,0.159786,0.218626,-0.100458,51,274,583,6224
1644190252.316621,-0.006714,0.009155,-0.990723,0.404061,0.24916,-0.14626,55,269,590,6192
1644190252.365157,-0.011536,0.00885,-0.990601,0.297191,0.371298,-0.161527,51,271,580,6224
1644190252.413447,-0.012512,0.006958,-0.992004,0.266656,0.310229,-0.069924,52,270,579,6240
1644190252.46182,-0.010559,0.009033,-0.991089,0.281924,0.447634,-0.14626,47,270,589,6224
1644190252.510209,-0.011536,0.009705,-0.992004,0.281924,0.340763,0.006412,49,270,586,6224
1644190252.55861,-0.008789,0.007141,-0.994263,0.327725,0.340763,-0.054656,53,274,583,6192
1644190252.606993,-0.008179,0.006897,-0.991394,0.190321,0.371298,-0.069924,45,280,584,6224
1644190252.655704,-0.009583,0.008118,-0.989014,0.220855,0.462901,-0.207328,48,276,578,6224
1644190252.70636,-0.011047,0.010803,-0.990784,0.190321,0.325496,-0.161527,47,277,582,6224
1644190252.756572,-0.008301,0.009094,-0.993835,0.190321,0.279695,0.036947,51,274,576,6224
1644190252.801283,-0.008362,0.009949,-0.992615,0.251389,0.493435,-0.069924,53,274,585,6240
1644190252.897399,-0.010132,0.007935,-0.990051,0.129252,0.432366,0.021679,51,271,585,6240
1644190252.945752,-0.009766,0.011353,-0.99176,0.342992,0.325496,0.006412,55,274,585,6288
1644190252.994168,-0.00769,0.009277,-0.991089,0.220855,0.356031,-0.237863,52,270,593,6224
1644190253.057548,-0.006836,0.009338,-0.988586,0.175053,0.356031,-0.039389,58,276,573,6224
1644190253.094378,-0.007751,0.011169,-0.990967,0.159786,0.432366,-0.237863,42,285,582,6192
1644190253.139359,-0.01001,0.010254,-0.993042,0.266656,0.371298,-0.039389,49,275,593,6224
1644190253.187722,-0.006348,0.010254,-0.991394,0.129252,0.218626,-0.039389,59,277,579,6160
1644190253.236154,-0.009521,0.009888,-0.988159,0.175053,0.417099,-0.100458,47,273,584,6256
1644190253.284487,-0.008606,0.007874,-0.991577,0.159786,0.233893,-0.085191,55,269,580,6176
1644190253.33291,-0.009766,0.012207,-0.989502,0.251389,0.508702,-0.130992,45,270,582,6224
1644190253.381292,-0.008179,0.009399,-0.992249,0.220855,0.447634,-0.161527,40,282,570,6224
1644190253.429675,-0.009216,0.010315,-0.99231,0.175053,0.569771,-0.100458,43,276,587,6240
1644190253.47806,-0.009094,0.007751,-0.994446,0.236122,0.417099,-0.130992,58,276,583,6256
1644190253.526464,-0.008728,0.008362,-0.991821,0.220855,0.447634,-0.024122,47,282,586,6224
1644190253.574995,-0.009827,0.012024,-0.990967,0.175053,0.508702,-0.115725,61,268,586,6160
1644190253.625034,-0.010315,0.010559,-0.993042,0.068183,0.447634,-0.085191,48,276,583,6288
1644190253.674676,-0.010315,0.011536,-0.991577,0.35826,0.401832,-0.161527,48,279,585,6240
1644190253.724922,-0.008606,0.007385,-0.992676,0.205588,0.401832,0.021679,52,270,591,6224
1644190253.816848,-0.00769,0.006897,-0.991699,0.266656,0.24916,-0.039389,42,275,582,6224
1644190253.865401,-0.008179,0.010986,-0.990662,0.175053,0.447634,-0.069924,55,274,580,6176
1644190253.91365,-0.008179,0.00946,-0.994324,0.190321,0.279695,0.006412,57,268,584,6240
1644190253.962037,-0.008057,0.009888,-0.991394,0.312458,0.386565,-0.085191,51,276,587,6256
1644190254.010417,-0.009094,0.008301,-0.993347,0.266656,0.264427,-0.069924,47,285,584,6192
1644190254.060083,-0.008667,0.010437,-0.991089,0.373527,0.340763,-0.161527,47,275,589,6304
1644190254.107208,-0.009338,0.01178,-0.994263,0.129252,0.585038,0.052214,61,282,582,6256
1644190254.155609,-0.00946,0.010254,-0.991699,0.175053,0.401832,-0.100458,57,287,584,6192
1644190254.204012,-0.009033,0.006836,-0.990417,0.449863,0.371298,-0.069924,52,273,572,6224
1644190254.252388,-0.006348,0.009338,-0.990295,0.068183,0.478168,-0.054656,53,269,583,6288
1644190254.300787,-0.009705,0.009949,-0.992004,0.098718,0.340763,-0.222595,55,271,585,6224
1644190254.349183,-0.008057,0.00946,-0.990234,0.220855,0.386565,-0.100458,51,281,580,6224
1644190254.397578,-0.007812,0.00824,-0.993042,0.220855,0.462901,-0.054656,49,277,584,6224
1644190254.445968,-0.00531,0.010071,-0.992859,0.297191,0.325496,-0.039389,51,286,578,6192
1644190254.494373,-0.009766,0.009949,-0.993835,0.190321,0.493435,-0.14626,48,276,590,6240
1644190254.54277,-0.007141,0.009644,-0.992432,0.220855,0.401832,-0.085191,45,275,584,6224
1644190254.591119,-0.009521,0.01001,-0.992371,0.266656,0.417099,-0.054656,47,275,575,6224
1644190254.639815,-0.010254,0.006348,-0.992065,0.220855,0.432366,0.052214,52,275,589,6240
1644190254.687958,-0.007141,0.009644,-0.992432,0.266656,0.310229,-0.069924,57,273,579,6176
1644190254.737745,-0.010803,0.007812,-0.98938,0.190321,0.294962,-0.100458,43,266,583,6160
1644190254.788077,-0.008911,0.009644,-0.990906,0.327725,0.356031,-0.176794,46,286,590,6240
1644190254.838197,-0.00824,0.008301,-0.988098,0.205588,0.478168,-0.024122,45,277,570,6160
1644190254.882678,-0.009033,0.008362,-0.995361,0.312458,0.356031,-0.207328,46,276,576,6192
1644190254.978289,-0.012939,0.008789,-0.990234,0.327725,0.356031,-0.130992,46,279,585,6176
1644190255.026672,-0.009338,0.006897,-0.993713,0.159786,0.417099,-0.130992,47,275,572,6288
1644190255.075274,-0.00885,0.008484,-0.992737,0.068183,0.417099,-0.237863,54,277,591,6256
1644190255.123413,-0.008179,0.010681,-0.992249,0.342992,0.447634,-0.024122,39,288,587,6240
1644190255.171839,-0.010681,0.008728,-0.992554,0.144519,0.325496,-0.054656,55,274,583,6240
1644190255.220218,-0.008362,0.011841,-0.990723,0.297191,0.371298,-0.054656,48,266,587,6192
1644190255.268624,-0.009766,0.008484,-0.994263,0.419328,0.447634,0.006412,57,268,586,6240
1644190255.316981,-0.008606,0.008362,-0.992981,0.129252,0.523969,-0.039389,39,271,571,6224
1644190255.365396,-0.010376,0.009949,-0.990295,0.098718,0.447634,0.021679,49,268,586,6288
1644190255.413788,-0.009338,0.007019,-0.992249,0.190321,0.356031,-0.100458,48,276,576,6288
1644190255.46223,-0.00946,0.006409,-0.994385,0.220855,0.356031,-0.024122,58,281,587,6224
1644190255.510553,-0.009033,0.009155,-0.992676,0.236122,0.401832,0.067481,40,268,584,6192
1644190255.558971,-0.008545,0.00885,-0.992249,0.08345,0.447634,-0.115725,45,280,579,6240
1644190255.607368,-0.011597,0.008301,-0.992554,0.236122,0.340763,-0.130992,42,273,589,6192
1644190255.655759,-0.010864,0.011414,-0.99115,0.297191,0.386565,-0.008855,51,281,578,6224
1644190255.704151,-0.009033,0.007874,-0.992676,0.022382,0.508702,0.082748,55,279,592,6240
1644190255.752529,-0.009705,0.00885,-0.990356,0.342992,0.371298,-0.222595,55,271,585,6240
1644190255.800986,-0.008179,0.009766,-0.990417,0.205588,0.310229,-0.130992,48,286,585,6160
1644190255.849359,-0.009888,0.007812,-0.993896,0.190321,0.493435,-0.176794,38,275,586,6256
1644190255.898628,-0.009888,0.007996,-0.990723,0.251389,0.401832,-0.085191,53,271,580,6240
1644190255.94891,-0.007812,0.010925,-0.991882,0.251389,0.478168,0.006412,53,271,580,6256
1644190255.999238,-0.005371,0.007935,-0.990417,0.220855,0.356031,-0.100458,49,275,582,6240
1644190256.043869,-0.005859,0.009155,-0.994019,0.205588,0.523969,-0.161527,45,277,579,6240
1644190256.139698,-0.007202,0.009583,-0.989319,0.327725,0.493435,-0.130992,54,277,579,6256
1644190256.188072,-0.010803,0.010925,-0.991943,0.297191,0.569771,-0.008855,43,269,583,6128
1644190256.236456,-0.008423,0.006714,-0.992493,0.312458,0.478168,-0.115725,62,283,590,6224
1644190256.28487,-0.009644,0.007935,-0.993958,0.297191,0.218626,-0.085191,65,276,590,6288
1644190256.333251,-0.007568,0.009216,-0.992249,0.129252,0.569771,-0.069924,46,276,587,6224
1644190256.381654,-0.008362,0.010559,-0.98822,0.159786,0.294962,-0.176794,53,271,583,6256
1644190256.430048,-0.009583,0.008423,-0.991455,0.342992,0.447634,-0.085191,58,281,590,6224
1644190256.478429,-0.013062,0.009766,-0.991089,0.129252,0.462901,-0.054656,45,280,589,6240
1644190256.526824,-0.006226,0.01062,-0.992981,0.327725,0.508702,-0.085191,45,275,582,6224
1644190256.575298,-0.006836,0.011536,-0.997009,0.037649,0.508702,-0.14626,54,287,589,6224
1644190256.623625,-0.008789,0.008789,-0.989563,0.190321,0.401832,-0.161527,46,286,583,6240
1644190256.672011,-0.007446,0.011414,-0.990234,0.159786,0.310229,-0.054656,53,291,580,6176
1644190256.720414,-0.009155,0.008972,-0.990662,0.266656,0.401832,0.021679,43,274,580,6224
1644190256.7688,-0.012451,0.009216,-0.991272,0.220855,0.417099,-0.085191,48,269,580,6176
1644190256.817236,-0.007996,0.009521,-0.993347,0.175053,0.203359,-0.085191,48,283,583,6224
1644190256.865614,-0.006592,0.010559,-0.995361,0.297191,0.432366,0.036947,46,274,587,6240
1644190256.913987,-0.007507,0.012024,-0.991821,0.205588,0.417099,-0.069924,49,285,586,6160
1644190256.962595,-0.00824,0.010803,-0.992371,0.342992,0.646107,-0.024122,45,273,591,6256
1644190257.06531,-0.006714,0.010193,-0.991455,0.281924,0.478168,-0.054656,46,274,576,6256
1644190257.107499,-0.009583,0.007996,-0.992676,0.281924,0.478168,-0.130992,51,269,583,6224
1644190257.155935,-0.010254,0.008667,-0.992371,0.251389,0.310229,-0.100458,48,274,590,6256
1644190257.20434,-0.011353,0.006409,-0.993652,0.037649,0.417099,-0.039389,52,268,577,6176
1644190257.252716,-0.008789,0.010376,-0.990417,0.327725,0.508702,-0.085191,49,277,586,6224
1644190257.30111,-0.00769,0.008484,-0.995728,0.220855,0.340763,-0.100458,53,274,592,6240
1644190257.349512,-0.008972,0.009277,-0.991455,0.281924,0.447634,-0.039389,47,280,582,6224
1644190257.397909,-0.010437,0.009033,-0.99054,0.236122,0.539237,-0.14626,51,271,587,6224
1644190257.446301,-0.010254,0.008545,-0.99231,0.220855,0.340763,-0.237863,45,280,579,6224
1644190257.494709,-0.012573,0.01001,-0.993225,0.373527,0.356031,-0.130992,49,282,584,6224
1644190257.543076,-0.007812,0.008606,-0.993469,0.190321,0.447634,0.006412,51,264,587,6192
1644190257.591476,-0.010132,0.00769,-0.991394,0.251389,0.478168,-0.14626,48,286,580,6240
1644190257.639874,-0.009399,0.009521,-0.994629,0.159786,0.447634,0.036947,54,280,596,6224
1644190257.688268,-0.008545,0.010376,-0.992676,0.251389,0.523969,-0.069924,54,270,586,6240
1644190257.736654,-0.008545,0.007751,-0.992432,0.098718,0.386565,-0.130992,49,273,577,6240
1644190257.785433,-0.008118,0.010925,-0.992737,0.175053,0.432366,-0.008855,47,275,584,6224
1644190257.835196,-0.011841,0.007751,-0.993591,0.159786,0.478168,-0.192061,55,279,578,6240
1644190257.885499,-0.007202,0.009338,-0.993286,0.098718,0.493435,0.006412,39,281,576,6240
1644190257.935927,-0.008667,0.005676,-0.992859,0.297191,0.310229,0.006412,51,266,573,6224
1644190258.02706,-0.008484,0.009399,-0.992798,0.052916,0.539237,-0.100458,45,282,593,6256
1644190258.076015,-0.009094,0.00769,-0.991089,0.190321,0.462901,0.021679,53,271,583,6160
1644190258.123764,-0.008972,0.011536,-0.99115,0.419328,0.24916,-0.100458,49,285,584,6224
1644190258.172392,-0.007629,0.011536,-0.990112,0.297191,0.462901,-0.039389,54,270,579,6240
1644190258.220583,-0.009033,0.01001,-0.992981,0.190321,0.462901,-0.115725,49,280,584,6224
1644190258.268979,-0.007812,0.008789,-0.993408,0.281924,0.508702,0.006412,47,270,579,6288
1644190258.317347,-0.009949,0.011169,-0.991943,0.236122,0.401832,-0.130992,39,274,576,6240
1644190258.365762,-0.00769,0.010315,-0.991821,0.297191,0.523969,-0.192061,43,274,578,6224
1644190258.41416,-0.007751,0.009949,-0.992371,0.190321,0.386565,-0.039389,48,288,580,6224
1644190258.46257,-0.008423,0.01062,-0.992554,0.190321,0.417099,-0.024122,60,266,578,6192
1644190258.510955,-0.008667,0.009216,-0.99353,0.266656,0.462901,-0.085191,46,286,580,6176
1644190258.559336,-0.009705,0.009949,-0.99292,0.297191,0.325496,-0.14626,48,283,578,6240
1644190258.607731,-0.007812,0.009888,-0.990967,0.159786,0.493435,0.098015,59,275,584,6192
1644190258.656115,-0.009521,0.008179,-0.995117,0.159786,0.340763,-0.069924,55,281,585,6224
1644190258.70452,-0.009338,0.007446,-0.992676,0.205588,0.447634,-0.054656,45,275,584,6224
1644190258.752891,-0.010132,0.008911,-0.992432,0.175053,0.371298,-0.069924,45,277,575,6240
1644190258.801302,-0.008728,0.006775,-0.991394,0.312458,0.310229,-0.161527,52,268,591,6288
1644190258.849725,-0.007812,0.009766,-0.993591,0.144519,0.325496,-0.100458,51,274,587,6288
1644190258.898142,-0.009155,0.009399,-0.991089,0.220855,0.508702,-0.115725,54,275,579,6192
1644190258.947591,-0.008179,0.008484,-0.993774,0.113985,0.493435,-0.024122,52,270,589,6224
1644190258.998286,-0.009583,0.006897,-0.99054,0.266656,0.417099,-0.100458,55,266,590,6224
1644190259.067916,-0.011169,0.005127,-0.993652,0.159786,0.493435,-0.115725,54,277,579,6224
1644190259.096241,-0.008423,0.00946,-0.993225,0.236122,0.447634,-0.161527,48,276,594,6176
1644190259.188432,-0.005676,0.00708,-0.993713,0.220855,0.523969,-0.100458,55,276,578,6256
1644190259.236814,-0.007019,0.008972,-0.992126,0.205588,0.417099,-0.100458,47,282,572,6240
1644190259.285366,-0.009888,0.008423,-0.991943,0.205588,0.417099,0.113282,48,274,583,6192
1644190259.333621,-0.007935,0.009033,-0.993713,0.236122,0.478168,-0.115725,42,285,586,6256
1644190259.382016,-0.007568,0.010071,-0.993164,0.205588,0.386565,-0.176794,48,281,578,6240
1644190259.43038,-0.009033,0.00769,-0.992188,0.175053,0.462901,-0.085191,55,279,573,6192
1644190259.478805,-0.007568,0.007202,-0.993103,0.388794,0.447634,0.036947,51,283,576,6240
1644190259.527198,-0.008118,0.00769,-0.992737,0.098718,0.523969,0.021679,49,280,596,6176
1644190259.575586,-0.010925,0.009521,-0.990234,0.251389,0.432366,-0.008855,54,273,584,6288
1644190259.623972,-0.006775,0.009644,-0.99353,0.434595,0.417099,0.036947,53,279,590,6240
1644190259.672387,-0.009827,0.007019,-0.990234,0.266656,0.371298,-0.054656,55,281,583,6256
1644190259.720772,-0.008301,0.01062,-0.993225,0.175053,0.371298,-0.008855,51,288,578,6256
1644190259.769155,-0.00946,0.005859,-0.992371,0.35826,0.386565,-0.115725,46,286,590,6240
1644190259.817553,-0.010254,0.01001,-0.990784,0.129252,0.600305,-0.130992,41,269,583,6176
1644190259.865984,-0.007812,0.012207,-0.993164,0.175053,0.386565,-0.054656,60,269,587,6192
1644190259.914387,-0.004578,0.00885,-0.991455,0.190321,0.508702,-0.100458,49,270,582,6240
1644190259.962799,-0.010803,0.011414,-0.991272,0.297191,0.615573,-0.085191,57,285,596,6224
1644190260.067405,-0.008728,0.008667,-0.993164,0.098718,0.279695,-0.115725,55,276,592,6240
1644190260.107937,-0.008057,0.00708,-0.992249,0.205588,0.554504,-0.100458,43,271,592,6192
1644190260.15631,-0.008362,0.009094,-0.992859,0.281924,0.356031,-0.008855,47,275,589,6240
1644190260.204717,-0.008545,0.009338,-0.99292,0.129252,0.417099,-0.039389,49,273,584,6288
1644190260.25306,-0.009338,0.00946,-0.991272,0.190321,0.508702,-0.207328,51,279,576,6224
1644190260.301494,-0.009216,0.010437,-0.989319,0.297191,0.432366,-0.115725,46,279,590,6240
1644190260.349871,-0.007446,0.008179,-0.990479,0.159786,0.188092,-0.039389,57,268,572,6224
1644190260.398277,-0.010254,0.011353,-0.992737,0.205588,0.539237,-0.085191,47,275,584,6224
1644190260.446667,-0.009766,0.008728,-0.99292,0.281924,0.371298,-0.130992,45,273,582,6224
1644190260.495152,-0.004822,0.009094,-0.991089,0.190321,0.478168,-0.115725,51,266,578,6256
1644190260.543447,-0.008362,0.009766,-0.992493,0.312458,0.356031,0.036947,49,287,589,6224
1644190260.591847,-0.007019,0.00885,-0.99115,0.159786,0.493435,-0.054656,52,275,579,6224
1644190260.640242,-0.008301,0.010254,-0.993652,0.144519,0.386565,0.036947,60,266,592,6240
1644190260.688626,-0.011475,0.009583,-0.992065,0.220855,0.417099,-0.085191,51,269,578,6192
1644190260.737024,-0.009216,0.009827,-0.990234,0.220855,0.508702,-0.115725,54,273,593,6256
1644190260.785678,-0.01062,0.011597,-0.994507,0.251389,0.188092,-0.130992,42,280,586,6240
1644190260.83672,-0.010803,0.010925,-0.992126,0.068183,0.401832,-0.100458,43,264,576,6176
1644190260.887593,-0.009338,0.008545,-0.989258,0.342992,0.523969,-0.085191,55,276,580,6192
1644190260.931816,-0.011047,0.010376,-0.991882,0.236122,0.585038,-0.039389,43,279,585,6304
1644190261.02743,-0.007385,0.01001,-0.992798,0.205588,0.401832,-0.100458,54,270,577,6224
1644190261.07589,-0.007202,0.009399,-0.993958,0.236122,0.279695,-0.222595,49,265,584,6256
1644190261.124222,-0.009155,0.007629,-0.991272,0.297191,0.310229,-0.192061,42,277,579,6160
1644190261.172597,-0.010559,0.011292,-0.991211,0.297191,0.310229,0.143817,47,273,584,6256
1644190261.220948,-0.01001,0.009277,-0.993896,0.434595,0.386565,-0.100458,55,271,583,6256
1644190261.269335,-0.009949,0.012512,-0.993164,0.113985,0.233893,-0.085191,45,275,579,6192
1644190261.317709,-0.007568,0.008484,-0.990356,0.266656,0.417099,-0.039389,53,283,583,6240
1644190261.366118,-0.009766,0.009705,-0.994202,0.373527,0.615573,-0.085191,49,260,577,6160
1644190261.414533,-0.008789,0.010498,-0.990112,0.281924,0.432366,-0.039389,43,283,571,6240
1644190261.462929,-0.006714,0.009644,-0.989929,0.205588,0.24916,-0.008855,58,276,592,6176
1644190261.511296,-0.009277,0.01001,-0.993164,0.144519,0.493435,-0.100458,57,280,575,6240
1644190261.559694,-0.008362,0.011108,-0.992432,0.113985,0.386565,-0.085191,47,292,577,6176
1644190261.608112,-0.00769,0.008545,-0.992065,0.190321,0.386565,-0.115725,47,275,575,6256
1644190261.656471,-0.007141,0.009766,-0.991699,0.175053,0.539237,0.052214,48,274,590,6160
1644190261.704887,-0.01178,0.010376,-0.990723,0.205588,0.447634,-0.161527,45,270,582,6128
1644190261.753267,-0.006775,0.010193,-0.99054,0.236122,0.371298,-0.069924,48,274,592,6240
1644190261.801662,-0.009888,0.009827,-0.990234,0.297191,0.401832,-0.024122,42,268,589,6192
1644190261.850101,-0.009583,0.009644,-0.991211,0.266656,0.401832,0.036947,52,273,584,6240
1644190261.898515,-0.010986,0.007446,-0.991943,0.220855,0.371298,-0.024122,46,269,587,6160
1644190261.948151,-0.009705,0.009399,-0.992126,0.312458,0.386565,-0.054656,49,275,586,6176
1644190261.998234,-0.006836,0.008789,-0.990723,0.297191,0.417099,-0.054656,49,280,586,6240
1644190262.067633,-0.010132,0.00824,-0.992371,0.327725,0.401832,0.021679,60,279,585,6256
1644190262.140461,-0.010864,0.009583,-0.992554,0.404061,0.462901,-0.039389,55,279,569,6256
1644190262.188802,-0.005676,0.00824,-0.991089,0.281924,0.264427,-0.085191,55,266,594,6192
1644190262.237201,-0.006653,0.00824,-0.991882,0.129252,0.279695,-0.298931,48,274,578,6224
1644190262.285567,-0.008301,0.01062,-0.990356,0.236122,0.417099,-0.100458,54,277,577,6176
1644190262.334006,-0.009094,0.009583,-0.990906,0.327725,0.462901,-0.130992,57,273,584,6192
1644190262.382398,-0.010437,0.010681,-0.993713,0.190321,0.356031,-0.024122,53,276,576,6288
1644190262.430784,-0.010437,0.009338,-0.993469,0.251389,0.356031,-0.130992,58,271,585,6224
1644190262.479174,-0.007629,0.007812,-0.992065,0.266656,0.386565,-0.161527,45,285,586,6224
1644190262.527573,-0.007141,0.010132,-0.992798,0.327725,0.386565,0.006412,48,281,580,6224
1644190262.575956,-0.008179,0.009094,-0.992004,0.236122,0.493435,-0.100458,52,263,586,6256
1644190262.624371,-0.009155,0.009583,-0.992615,0.068183,0.417099,0.052214,49,273,579,6240
1644190262.672762,-0.010986,0.007812,-0.989258,0.312458,0.462901,-0.130992,54,285,586,6240
1644190262.721144,-0.007446,0.008911,-0.992004,0.205588,0.462901,-0.085191,53,264,580,6224
1644190262.769527,-0.008484,0.006531,-0.993835,0.236122,0.371298,-0.176794,45,275,579,6256
1644190262.817933,-0.005798,0.008972,-0.990906,0.205588,0.417099,-0.100458,48,274,573,6192
1644190262.866367,-0.008545,0.006897,-0.993042,0.404061,0.462901,-0.100458,51,279,583,6224
1644190262.914759,-0.012817,0.010254,-0.99176,0.251389,0.401832,-0.115725,51,274,590,6288
1644190262.964471,-0.00824,0.012512,-0.990784,0.236122,0.386565,-0.054656,57,282,579,6224
1644190263.061409,-0.01062,0.00824,-0.990967,0.236122,0.371298,0.052214,54,275,589,6192
1644190263.108299,-0.010681,0.011597,-0.98999,0.205588,0.279695,0.113282,43,279,587,6160
1644190263.156701,-0.008057,0.00647,-0.992859,0.297191,0.340763,-0.100458,58,269,590,6224
1644190263.205175,-0.008606,0.012146,-0.989014,0.175053,0.233893,-0.176794,53,281,585,6240
1644190263.253436,-0.009827,0.011963,-0.993408,0.35826,0.371298,-0.100458,60,269,583,6176
1644190263.301848,-0.009399,0.010132,-0.991516,0.068183,0.523969,-0.298931,51,269,583,6176
1644190263.350251,-0.00824,0.008606,-0.993347,0.236122,0.417099,-0.008855,48,276,587,6240
1644190263.398643,-0.009094,0.010864,-0.991882,0.373527,0.539237,-0.130992,53,276,583,6224
1644190263.447035,-0.006653,0.009644,-0.989624,0.297191,0.371298,-0.222595,39,266,590,6240
1644190263.495413,-0.005737,0.010376,-0.992065,0.281924,0.264427,-0.085191,48,269,583,6224
1644190263.543831,-0.009583,0.010681,-0.990295,0.129252,0.417099,-0.069924,51,279,573,6240
1644190263.592235,-0.006714,0.008972,-0.991211,0.266656,0.386565,-0.130992,43,276,592,6128
1644190263.640597,-0.011353,0.009216,-0.99408,0.281924,0.310229,-0.161527,42,282,579,6224
1644190263.688997,-0.010681,0.008301,-0.991211,0.266656,0.371298,-0.115725,54,287,586,6240
1644190263.737392,-0.008362,0.009766,-0.990662,0.098718,0.310229,0.006412,60,276,578,6224
1644190263.785773,-0.011169,0.010071,-0.991211,0.373527,0.462901,-0.039389,53,264,585,6224
1644190263.834146,-0.012329,0.008789,-0.989075,0.251389,0.371298,-0.024122,46,269,590,6128
1644190263.882637,-0.011658,0.009888,-0.992126,0.220855,0.554504,-0.085191,43,269,585,6224
1644190263.931873,-0.00769,0.012512,-0.993774,0.037649,0.386565,-0.161527,49,275,586,6256
1644190263.981869,-0.006409,0.010742,-0.994446,0.159786,0.310229,-0.161527,45,273,584,6304
1644190264.0322,-0.00824,0.010864,-0.990906,0.236122,0.325496,-0.024122,54,282,586,6192
1644190264.084955,-0.007629,0.010437,-0.993042,0.144519,0.462901,-0.161527,54,282,577,6288
1644190264.17297,-0.009338,0.01123,-0.991638,0.281924,0.447634,-0.176794,52,285,589,6176
1644190264.221344,-0.008911,0.009888,-0.991699,0.220855,0.462901,-0.130992,49,275,586,6240
1644190264.269744,-0.008667,0.01239,-0.992798,0.220855,0.417099,-0.14626,55,279,573,6176
1644190264.318121,-0.009644,0.009705,-0.993286,0.159786,0.371298,-0.069924,49,277,584,6224
1644190264.36654,-0.010193,0.009949,-0.991516,0.327725,0.218626,0.021679,51,279,576,6176
1644190264.414918,-0.008057,0.007996,-0.992615,0.251389,0.417099,-0.039389,48,279,580,6240
1644190264.463301,-0.008179,0.009644,-0.991821,0.205588,0.401832,-0.085191,49,280,584,6240
1644190264.511721,-0.010315,0.010315,-0.991455,0.281924,0.417099,-0.008855,55,276,590,6304
1644190264.560085,-0.008911,0.011292,-0.990662,0.068183,0.417099,-0.024122,61,270,586,6256
1644190264.60851,-0.009827,0.007935,-0.991028,0.251389,0.447634,-0.161527,58,283,578,6224
1644190264.656894,-0.010498,0.006409,-0.996216,0.144519,0.310229,-0.054656,52,277,596,6240
1644190264.705313,-0.009644,0.010132,-0.994995,0.052916,0.386565,-0.085191,48,274,587,6240
1644190264.753707,-0.007874,0.010681,-0.992859,0.159786,0.172824,-0.024122,52,282,584,6240
1644190264.802073,-0.008301,0.008972,-0.991394,0.236122,0.294962,-0.329466,53,286,578,6256
1644190264.850464,-0.00885,0.007935,-0.991516,0.327725,0.462901,-0.039389,45,275,584,6224
1644190264.898865,-0.007324,0.008179,-0.990112,0.281924,0.386565,-0.14626,48,276,571,6192
1644190264.947226,-0.00708,0.011169,-0.990417,0.281924,0.432366,-0.176794,49,280,582,6224
1644190264.995866,-0.00708,0.010315,-0.992432,0.08345,0.569771,-0.14626,51,269,583,6240
1644190265.057034,-0.009338,0.009338,-0.992371,0.129252,0.508702,-0.039389,54,268,579,6240
1644190265.100095,-0.010681,0.011047,-0.991638,0.373527,0.417099,-0.069924,47,270,584,6240
1644190265.144025,-0.00824,0.009949,-0.990234,0.220855,0.386565,-0.054656,39,279,578,6176
1644190265.194108,-0.012329,0.00885,-0.990906,0.251389,0.432366,-0.039389,48,283,578,6240
1644190265.285951,-0.009399,0.009888,-0.990967,0.129252,0.417099,-0.069924,49,273,579,6192
1644190265.334368,-0.008362,0.009521,-0.9953,0.068183,0.371298,-0.14626,48,274,583,6240
1644190265.382759,-0.00885,0.010803,-0.992432,0.159786,0.371298,-0.115725,51,276,580,6224
1644190265.431136,-0.009338,0.008423,-0.992188,0.312458,0.24916,-0.085191,52,275,579,6240
1644190265.479536,-0.007446,0.008606,-0.989807,0.037649,0.325496,0.006412,47,280,586,6240
1644190265.527912,-0.008118,0.010437,-0.991211,0.175053,0.310229,-0.008855,52,273,579,6256
1644190265.576326,-0.009277,0.009705,-0.991699,0.236122,0.462901,-0.176794,42,285,577,6256
1644190265.624715,-0.006287,0.009521,-0.991455,0.08345,0.401832,-0.100458,49,282,572,6176
1644190265.673115,-0.008179,0.006653,-0.995178,0.281924,0.417099,-0.085191,45,277,582,6176
1644190265.72149,-0.009949,0.008545,-0.993835,0.220855,0.340763,0.006412,54,280,589,6288
1644190265.769886,-0.007751,0.009155,-0.991394,0.159786,0.356031,-0.069924,40,273,584,6176
1644190265.818332,-0.010559,0.008789,-0.991333,0.236122,0.401832,-0.130992,46,281,590,6256
1644190265.866715,-0.00885,0.007874,-0.990356,0.129252,0.569771,-0.130992,46,271,587,6192
1644190265.915255,-0.008118,0.010681,-0.991272,0.220855,0.401832,-0.085191,51,288,590,6224
1644190265.963514,-0.00708,0.010803,-0.992493,0.297191,0.539237,-0.176794,43,288,578,6224
1644190266.011896,-0.009949,0.010864,-0.991455,0.007115,0.493435,-0.207328,57,275,579,6224
1644190266.07731,-0.007751,0.009155,-0.992249,0.175053,0.371298,-0.039389,55,281,590,6176
1644190266.113659,-0.008545,0.010315,-0.991821,0.236122,0.294962,-0.161527,55,279,590,6240
1644190266.157032,-0.00769,0.009094,-0.989319,0.251389,0.386565,-0.054656,47,270,589,6256
1644190266.205877,-0.00769,0.011169,-0.990723,0.068183,0.325496,0.006412,49,273,586,6304
1644190266.256938,-0.008118,0.011902,-0.992004,0.190321,0.447634,-0.024122,35,265,586,6240
1644190266.306583,-0.007751,0.00885,-0.991577,0.129252,0.462901,-0.100458,47,273,582,6224
1644190266.351567,-0.005981,0.011353,-0.992737,0.220855,0.447634,-0.222595,55,274,587,6128
1644190266.447388,-0.009155,0.009277,-0.991211,0.236122,0.417099,-0.039389,52,277,582,6224
1644190266.495778,-0.009521,0.011963,-0.991028,0.052916,0.676641,-0.237863,47,282,593,6224
1644190266.544203,-0.008728,0.007751,-0.992737,0.190321,0.417099,-0.008855,43,279,580,6224
1644190266.592571,-0.010254,0.010193,-0.991577,0.251389,0.386565,-0.100458,51,276,583,6192
1644190266.640948,-0.006348,0.009644,-0.990295,0.35826,0.294962,-0.054656,54,270,577,6160
1644190266.689363,-0.007629,0.010925,-0.988586,-0.02342,0.493435,-0.069924,43,274,585,6192
1644190266.737743,-0.007263,0.010498,-0.990234,0.236122,0.447634,-0.085191,45,280,579,6256
1644190266.786132,-0.009949,0.008972,-0.992065,0.220855,0.264427,-0.192061,49,265,591,6224
1644190266.834694,-0.008423,0.010498,-0.991943,0.129252,0.401832,-0.008855,54,270,586,6224
1644190266.882994,-0.009216,0.007812,-0.99115,0.144519,0.447634,-0.222595,57,277,586,6240
1644190266.93142,-0.00531,0.011047,-0.992188,0.129252,0.371298,0.082748,42,270,579,6224
1644190266.979778,-0.011841,0.008118,-0.99292,0.113985,0.523969,-0.085191,55,276,580,6240
1644190267.028155,-0.00592,0.009033,-0.993835,0.419328,0.340763,-0.024122,62,269,578,6256
1644190267.078868,-0.009094,0.012268,-0.992065,0.144519,0.417099,-0.054656,47,277,591,6304
1644190267.124891,-0.009766,0.011292,-0.992981,0.312458,0.493435,-0.222595,42,263,589,6240
1644190267.1736,-0.01001,0.009216,-0.991455,0.159786,0.310229,-0.207328,45,275,568,6240
1644190267.222473,-0.009644,0.007324,-0.991272,0.220855,0.325496,-0.054656,53,269,580,6192
