epoch,acc_x,acc_y,acc_z,rot_x,rot_y,rot_z,mag_x,mag_y,mag_z,temp
1644159000.016267,-0.008972,0.009155,-0.992676,0.08345,0.539237,-0.069924,45,277,577,5376
1644159000.08388,-0.01001,0.007141,-0.991882,0.281924,0.340763,-0.268397,54,260,582,5344
1644159000.116742,-0.009766,0.006897,-0.991577,0.251389,0.417099,-0.14626,54,270,572,5408
1644159000.167081,-0.010864,0.011047,-0.99408,0.312458,0.478168,-0.207328,48,281,573,5312
1644159000.211435,-0.009949,0.01001,-0.991821,0.342992,0.554504,-0.100458,58,271,571,5344
1644159000.306626,-0.008728,0.007202,-0.993103,0.281924,0.447634,-0.268397,45,277,579,5376
1644159000.355241,-0.010071,0.007874,-0.991211,0.281924,0.356031,-0.115725,42,277,575,5408
1644159000.403366,-0.012085,0.007996,-0.994141,0.312458,0.462901,-0.176794,49,273,570,5376
1644159000.451752,-0.009277,0.010986,-0.993591,0.281924,0.279695,-0.115725,53,283,566,5344
1644159000.500148,-0.011902,0.009521,-0.991821,0.266656,0.523969,-0.130992,52,273,572,5360
1644159000.548532,-0.014221,0.008728,-0.990723,0.312458,0.447634,-0.130992,42,273,577,5344
1644159000.596913,-0.008362,0.011353,-0.992615,0.297191,0.462901,-0.115725,57,268,570,5376
1644159000.645345,-0.012695,0.008606,-0.992798,0.266656,0.264427,-0.130992,52,277,572,5296
1644159000.693687,-0.012939,0.007385,-0.994141,0.266656,0.462901,-0.100458,53,276,583,5424
1644159000.742168,-0.009888,0.009521,-0.992615,0.220855,0.523969,-0.192061,52,282,575,5344
1644159000.79047,-0.011841,0.007751,-0.99292,0.205588,0.417099,-0.14626,45,277,577,5376
1644159000.838872,-0.013672,0.008423,-0.992126,0.281924,0.310229,-0.024122,46,279,573,5360
1644159000.887252,-0.00824,0.009827,-0.993103,-0.038687,0.356031,-0.115725,47,280,570,5312
1644159000.935652,-0.010925,0.009277,-0.993347,0.281924,0.447634,-0.085191,54,268,586,5344
1644159000.984033,-0.012268,0.00885,-0.990356,0.190321,0.432366,-0.054656,55,274,564,5408
1644159001.032432,-0.009399,0.008301,-0.990723,0.312458,0.417099,0.067481,53,281,583,5408
1644159001.088907,-0.009888,0.00946,-0.994446,0.373527,0.371298,-0.008855,57,273,575,5344
1644159001.132529,-0.010864,0.00885,-0.992004,0.205588,0.539237,-0.008855,47,273,579,5312
1644159001.182047,-0.010803,0.008972,-0.992554,0.342992,0.371298,0.006412,54,280,582,5360
1644159001.227121,-0.012878,0.009827,-0.992676,0.220855,0.478168,-0.100458,53,279,566,5360
1644159001.322728,-0.009949,0.007019,-0.989014,0.327725,0.432366,0.006412,49,277,570,5344
1644159001.371088,-0.00885,0.009216,-0.991394,0.297191,0.356031,-0.222595,47,270,575,5376
1644159001.419466,-0.009216,0.01062,-0.991882,0.251389,0.447634,-0.161527,57,273,570,5312
1644159001.467889,-0.011902,0.007202,-0.990051,0.342992,0.386565,-0.008855,51,269,576,5344
1644159001.516265,-0.010681,0.009949,-0.990784,0.281924,0.294962,-0.130992,54,275,582,5312
1644159001.564678,-0.010315,0.010742,-0.991028,0.236122,0.356031,-0.130992,49,275,570,5376
1644159001.613035,-0.010437,0.006775,-0.991333,0.220855,0.493435,-0.130992,43,276,576,5376
1644159001.661435,-0.010376,0.012207,-0.991943,0.251389,0.310229,-0.115725,53,271,573,5296
1644159001.709822,-0.009644,0.010925,-0.992004,0.236122,0.478168,-0.100458,38,263,579,5360
1644159001.758227,-0.011536,0.007507,-0.99054,0.297191,0.401832,-0.039389,55,279,569,5360
1644159001.806657,-0.01239,0.007751,-0.992493,0.159786,0.493435,0.036947,52,287,575,5296
1644159001.855267,-0.010681,0.007629,-0.992432,0.251389,0.462901,-0.222595,51,266,576,5360
1644159001.903445,-0.010071,0.009521,-0.993652,0.159786,0.478168,-0.100458,57,275,570,5280
1644159001.951822,-0.011902,0.010864,-0.989014,0.312458,0.340763,-0.039389,45,273,582,5376
1644159002.000203,-0.011841,0.013123,-0.993774,0.052916,0.432366,0.006412,57,275,575,5408
1644159002.060845,-0.011902,0.011108,-0.991638,0.190321,0.478168,-0.085191,53,271,578,5408
1644159002.099067,-0.007446,0.008789,-0.993835,0.251389,0.569771,-0.14626,48,279,573,5344
1644159002.149289,-0.010864,0.010071,-0.992859,0.236122,0.432366,-0.176794,49,275,582,5344
1644159002.19429,-0.009949,0.011047,-0.989929,0.281924,0.554504,-0.14626,54,280,572,5456
1644159002.290487,-0.011658,0.012329,-0.98999,0.312458,0.523969,-0.069924,59,275,582,5456
1644159002.338861,-0.010315,0.010498,-0.992004,0.220855,0.401832,0.021679,49,273,572,5360
1644159002.387277,-0.011353,0.011841,-0.993286,0.205588,0.462901,-0.085191,45,268,572,5344
1644159002.435663,-0.010376,0.010071,-0.991943,0.205588,0.432366,-0.069924,46,274,573,5408
1644159002.48408,-0.013489,0.009766,-0.989441,0.342992,0.417099,-0.100458,55,269,576,5424
1644159002.532467,-0.007385,0.013428,-0.992432,0.175053,0.310229,-0.054656,54,277,575,5296
1644159002.580836,-0.01123,0.009521,-0.993896,0.159786,0.356031,-0.069924,42,265,568,5344
1644159002.629198,-0.009888,0.010254,-0.989014,0.205588,0.325496,-0.14626,49,273,572,5296
1644159002.677608,-0.006775,0.010803,-0.991516,0.251389,0.417099,0.052214,49,273,579,5344
1644159002.726003,-0.009644,0.011475,-0.991943,0.312458,0.310229,-0.115725,46,276,578,5344
1644159002.774406,-0.010376,0.009155,-0.994019,0.297191,0.447634,-0.008855,46,262,576,5376
1644159002.822847,-0.010986,0.00769,-0.990967,0.35826,0.478168,-0.14626,58,274,569,5360
1644159002.871205,-0.009888,0.009521,-0.991699,0.159786,0.508702,0.006412,51,274,576,5344
1644159002.919604,-0.010498,0.007385,-0.991272,0.388794,0.615573,-0.25313,42,277,570,5424
1644159002.967995,-0.008667,0.011414,-0.99292,0.373527,0.356031,0.006412,65,271,576,5376
1644159003.016383,-0.010498,0.009644,-0.990784,0.190321,0.462901,-0.069924,61,273,570,5360
1644159003.069625,-0.01123,0.009888,-0.991699,0.327725,0.356031,-0.069924,55,281,580,5344
1644159003.113127,-0.011536,0.009094,-0.99292,0.327725,0.417099,-0.207328,58,276,573,5344
1644159003.161934,-0.011536,0.008606,-0.988892,0.159786,0.294962,-0.192061,48,279,573,5360
1644159003.212526,-0.008545,0.008118,-0.991333,0.220855,0.417099,-0.161527,52,270,582,5344
1644159003.262861,-0.010193,0.009033,-0.989502,0.236122,0.264427,0.082748,55,274,576,5456
1644159003.307867,-0.009827,0.009888,-0.991638,0.236122,0.432366,-0.14626,53,276,573,5312
1644159003.403465,-0.010071,0.009705,-0.991333,0.175053,0.294962,-0.130992,52,273,565,5360
1644159003.451838,-0.007629,0.007935,-0.989746,0.159786,0.417099,-0.130992,55,264,566,5312
1644159003.500233,-0.011597,0.007874,-0.992737,0.327725,0.401832,-0.008855,58,276,580,5376
1644159003.548605,-0.010864,0.007812,-0.990356,0.129252,0.462901,-0.069924,52,268,575,5296
1644159003.596994,-0.010681,0.00946,-0.990479,0.159786,0.508702,-0.085191,55,279,566,5360
1644159003.645409,-0.012695,0.009033,-0.993225,0.495664,0.493435,-0.024122,53,274,576,5360
1644159003.693784,-0.010376,0.007935,-0.992676,0.190321,0.417099,-0.085191,51,271,573,5344
1644159003.742415,-0.010925,0.01123,-0.991333,0.129252,0.493435,-0.024122,47,273,570,5376
1644159003.790567,-0.007324,0.011719,-0.991821,0.312458,0.447634,-0.176794,46,286,569,5344
1644159003.838999,-0.008667,0.007141,-0.990112,0.342992,0.340763,-0.14626,53,269,576,5344
1644159003.887388,-0.009399,0.010986,-0.991699,0.159786,0.462901,-0.14626,47,275,575,5360
1644159003.935775,-0.010376,0.009033,-0.991516,0.312458,0.356031,-0.069924,51,271,571,5408
1644159003.984158,-0.010681,0.007568,-0.990845,0.281924,0.401832,-0.192061,45,273,565,5376
1644159004.032578,-0.012268,0.010986,-0.993835,0.068183,0.279695,-0.039389,43,279,580,5344
1644159004.084876,-0.009766,0.011169,-0.994446,0.205588,0.417099,0.006412,54,280,586,5344
1644159004.12928,-0.012573,0.00885,-0.987854,0.388794,0.508702,0.067481,54,275,572,5376
1644159004.177667,-0.010498,0.010193,-0.991638,0.175053,0.294962,-0.161527,51,276,580,5344
1644159004.226064,-0.012146,0.009583,-0.991455,0.190321,0.417099,-0.054656,39,274,583,5360
1644159004.274463,-0.011047,0.010315,-0.992676,0.266656,0.447634,-0.192061,42,277,575,5344
1644159004.323134,-0.012146,0.010742,-0.99292,0.159786,0.417099,-0.024122,45,263,577,5344
1644159004.373724,-0.011719,0.010315,-0.992493,0.35826,0.508702,-0.100458,55,279,580,5360
1644159004.423983,-0.010437,0.007568,-0.993896,0.190321,0.432366,-0.039389,53,266,571,5312
1644159004.468802,-0.009949,0.010254,-0.991211,0.434595,0.401832,-0.100458,59,273,570,5360
1644159004.564873,-0.012085,0.010437,-0.991882,0.236122,0.310229,-0.085191,41,274,571,5344
1644159004.613191,-0.010376,0.010864,-0.990662,0.037649,0.432366,-0.115725,58,271,578,5472
1644159004.661564,-0.012329,0.008423,-0.994263,0.388794,0.264427,-0.130992,46,274,573,5424
1644159004.709952,-0.012695,0.008545,-0.991089,0.251389,0.417099,-0.085191,48,279,569,5360
1644159004.758327,-0.009705,0.010193,-0.990601,0.236122,0.478168,-0.130992,61,263,572,5472
1644159004.806725,-0.00946,0.009583,-0.994995,-0.038687,0.340763,-0.069924,64,263,570,5376
1644159004.855194,-0.012085,0.009155,-0.99115,0.159786,0.493435,-0.085191,55,271,578,5312
1644159004.90357,-0.010193,0.008301,-0.988525,0.251389,0.493435,-0.176794,48,276,573,5424
1644159004.951943,-0.009766,0.011414,-0.991394,0.205588,0.539237,-0.039389,54,275,570,5376
1644159005.000307,-0.011963,0.010193,-0.99054,0.144519,0.340763,-0.069924,51,283,580,5344
1644159005.053671,-0.01001,0.009521,-0.989807,0.220855,0.401832,-0.130992,59,282,570,5344
1644159005.097093,-0.011536,0.009583,-0.990845,0.373527,0.279695,0.113282,51,281,590,5408
1644159005.145457,-0.011963,0.009033,-0.99115,0.205588,0.24916,-0.054656,57,275,568,5408
1644159005.193843,-0.009216,0.010559,-0.98938,-0.008153,0.417099,-0.085191,48,271,583,5408
1644159005.242242,-0.010376,0.011047,-0.992371,0.281924,0.432366,-0.283664,57,280,577,5344
1644159005.290628,-0.009277,0.00708,-0.99231,0.251389,0.508702,-0.039389,53,274,571,5360
1644159005.339055,-0.01178,0.009155,-0.989502,0.266656,0.371298,-0.100458,68,270,577,5280
1644159005.387389,-0.008484,0.00824,-0.989807,0.297191,0.279695,-0.008855,53,271,571,5408
1644159005.43598,-0.01178,0.008667,-0.994873,0.098718,0.386565,-0.085191,47,265,570,5344
1644159005.484944,-0.012085,0.010559,-0.992249,0.159786,0.401832,-0.130992,54,280,570,5456
1644159005.534425,-0.009338,0.009705,-0.992859,0.297191,0.325496,-0.176794,42,275,568,5344
1644159005.58498,-0.009827,0.011719,-0.991028,0.251389,0.356031,-0.024122,60,269,573,5296
1644159005.629928,-0.007019,0.009094,-0.993469,0.236122,0.371298,-0.176794,52,275,579,5456
1644159005.726115,-0.009583,0.010376,-0.991882,0.220855,0.554504,-0.100458,53,259,578,5360
1644159005.774546,-0.010254,0.01001,-0.990906,0.220855,0.386565,-0.100458,45,277,584,5456
1644159005.822928,-0.011475,0.009033,-0.991577,0.312458,0.401832,-0.085191,49,277,577,5456
1644159005.871339,-0.011414,0.008911,-0.99176,0.434595,0.554504,-0.192061,48,266,569,5344
1644159005.91972,-0.011963,0.007507,-0.993286,0.266656,0.539237,-0.100458,46,276,585,5360
1644159005.968117,-0.01178,0.011169,-0.994019,0.159786,0.401832,-0.069924,52,270,579,5424
1644159006.016512,-0.009583,0.008423,-0.991455,0.236122,0.417099,-0.268397,43,274,578,5344
1644159006.067246,-0.010864,0.00824,-0.989868,0.159786,0.325496,-0.222595,47,275,584,5360
1644159006.113321,-0.01123,0.008606,-0.990967,0.251389,0.462901,-0.039389,59,277,575,5360
1644159006.161631,-0.009644,0.01123,-0.99115,0.251389,0.478168,-0.192061,65,269,578,5376
1644159006.210033,-0.013916,0.010803,-0.990845,0.220855,0.432366,-0.085191,49,275,570,5360
1644159006.258397,-0.008972,0.012146,-0.992249,0.251389,0.233893,-0.054656,54,275,579,5376
1644159006.306798,-0.012512,0.009216,-0.993469,0.342992,0.432366,-0.115725,57,277,584,5360
1644159006.355189,-0.012024,0.007996,-0.991516,0.312458,0.462901,-0.207328,49,270,577,5424
1644159006.403585,-0.012573,0.01123,-0.991821,0.373527,0.294962,-0.14626,49,275,584,5376
1644159006.452014,-0.009583,0.00946,-0.992432,0.175053,0.386565,-0.115725,55,283,573,5376
1644159006.500334,-0.011353,0.010681,-0.992004,0.312458,0.478168,-0.14626,49,273,563,5360
1644159006.548737,-0.011963,0.006958,-0.990356,0.068183,0.386565,-0.207328,51,274,580,5280
1644159006.59737,-0.009216,0.00769,-0.992676,0.190321,0.478168,-0.085191,55,262,576,5312
1644159006.646275,-0.009888,0.010559,-0.990845,0.205588,0.508702,-0.085191,64,273,579,5344
1644159006.696913,-0.012939,0.010132,-0.99115,0.266656,0.432366,-0.268397,60,266,578,5344
1644159006.746964,-0.009705,0.009644,-0.991211,0.266656,0.462901,-0.222595,51,279,580,5344
1644159006.791902,-0.011475,0.008057,-0.992126,0.220855,0.432366,-0.085191,46,283,580,5360
1644159006.887519,-0.010559,0.009399,-0.990051,0.205588,0.218626,-0.161527,45,277,568,5344
1644159006.935884,-0.010437,0.009644,-0.989685,0.220855,0.386565,-0.161527,48,279,573,5360
1644159006.984292,-0.011536,0.008789,-0.992004,0.220855,0.432366,-0.237863,51,274,566,5344
1644159007.041461,-0.009644,0.008728,-0.99176,0.129252,0.523969,0.082748,52,280,575,5344
1644159007.084874,-0.011719,0.00769,-0.988708,0.175053,0.447634,-0.25313,61,275,579,5344
1644159007.129432,-0.008118,0.009338,-0.99231,0.495664,0.432366,-0.14626,60,274,576,5376
1644159007.177816,-0.010193,0.010376,-0.992554,0.236122,0.447634,-0.054656,46,279,564,5312
1644159007.226186,-0.012634,0.008667,-0.990112,0.251389,0.417099,-0.130992,38,273,570,5408
1644159007.274696,-0.012939,0.010376,-0.989685,0.35826,0.417099,-0.192061,43,264,592,5344
1644159007.322989,-0.011108,0.007935,-0.993896,0.159786,0.508702,0.12855,52,275,570,5296
1644159007.371364,-0.008728,0.008118,-0.990601,0.205588,0.401832,-0.069924,51,279,576,5344
1644159007.419734,-0.011169,0.011292,-0.99292,0.220855,0.401832,-0.115725,59,273,572,5376
1644159007.46814,-0.009033,0.009888,-0.990723,0.144519,0.386565,0.021679,45,270,575,5296
1644159007.516575,-0.006836,0.011353,-0.989868,0.08345,0.493435,-0.054656,59,277,575,5424
1644159007.565997,-0.009155,0.01062,-0.99231,0.327725,0.493435,-0.085191,48,271,571,5424
1644159007.616338,-0.011963,0.008362,-0.992065,0.281924,0.539237,-0.054656,60,274,583,5344
1644159007.666581,-0.010986,0.008911,-0.992859,0.266656,0.371298,0.036947,49,275,575,5344
1644159007.758504,-0.00946,0.011353,-0.990784,0.297191,0.371298,-0.207328,59,270,575,5344
1644159007.806858,-0.012024,0.008789,-0.994385,0.068183,0.325496,-0.054656,45,280,575,5424
1644159007.85538,-0.006775,0.009216,-0.991882,0.35826,0.24916,-0.14626,57,275,568,5376
1644159007.903694,-0.007446,0.008545,-0.991516,0.220855,0.203359,-0.161527,41,274,571,5360
1644159007.952075,-0.015259,0.006165,-0.993713,0.190321,0.462901,-0.130992,47,270,572,5424
1644159008.000447,-0.011353,0.007996,-0.992676,0.205588,0.478168,-0.222595,53,262,580,5360
1644159008.052791,-0.009277,0.011169,-0.992065,0.35826,0.310229,-0.069924,42,275,579,5360
1644159008.097193,-0.010437,0.00708,-0.990417,0.281924,0.310229,-0.115725,48,274,571,5424
1644159008.145579,-0.011841,0.007996,-0.990356,0.190321,0.371298,0.036947,46,276,576,5408
1644159008.194001,-0.009888,0.008423,-0.990417,0.236122,0.310229,-0.100458,60,274,583,5344
1644159008.242395,-0.013,0.009094,-0.992737,0.113985,0.462901,-0.176794,38,270,577,5280
1644159008.29077,-0.013306,0.007507,-0.99231,0.129252,0.417099,-0.115725,36,271,571,5344
1644159008.339153,-0.008057,0.008606,-0.990967,0.129252,0.325496,-0.192061,43,281,569,5344
1644159008.38755,-0.007629,0.009277,-0.991455,0.327725,0.294962,-0.008855,41,274,571,5344
1644159008.435935,-0.009949,0.00824,-0.992249,0.098718,0.585038,-0.14626,51,276,578,5456
1644159008.484317,-0.006531,0.006409,-0.989868,0.251389,0.462901,-0.176794,51,269,583,5376
1644159008.532718,-0.010193,0.011597,-0.990234,0.236122,0.508702,0.067481,55,276,573,5344
1644159008.58109,-0.013855,0.007874,-0.992615,0.205588,0.493435,-0.100458,61,285,561,5424
1644159008.629486,-0.012268,0.007568,-0.99292,0.297191,0.432366,-0.237863,62,271,580,5344
1644159008.677926,-0.00885,0.008484,-0.992798,0.175053,0.523969,-0.008855,48,279,573,5344
1644159008.728298,-0.011169,0.01123,-0.992432,0.236122,0.279695,0.067481,55,266,571,5344
1644159008.7788,-0.006531,0.009155,-0.991821,0.312458,0.24916,0.036947,55,276,576,5408
1644159008.823947,-0.010254,0.008789,-0.990662,0.159786,0.401832,-0.192061,60,271,578,5344
1644159008.919867,-0.007935,0.010803,-0.991211,0.342992,0.325496,0.021679,42,277,575,5344
1644159008.968237,-0.009155,0.006653,-0.991638,0.312458,0.386565,-0.192061,51,262,569,5360
1644159009.016635,-0.010071,0.011108,-0.991394,0.312458,0.356031,-0.222595,51,274,571,5456
1644159009.065184,-0.013184,0.013306,-0.990295,0.190321,0.340763,-0.192061,49,275,577,5344
1644159009.11338,-0.006531,0.011108,-0.99353,0.175053,0.294962,-0.192061,53,271,564,5344
1644159009.161772,-0.009827,0.012451,-0.9953,0.205588,0.386565,0.021679,52,268,584,5344
1644159009.210158,-0.006836,0.007874,-0.987671,0.113985,0.356031,-0.115725,48,274,564,5296
1644159009.258524,-0.008606,0.011047,-0.991455,0.236122,0.554504,-0.024122,43,274,576,5344
1644159009.306946,-0.009827,0.009033,-0.993408,0.312458,0.386565,-0.085191,57,277,582,5376
1644159009.355325,-0.008362,0.00885,-0.991089,0.205588,0.447634,-0.008855,47,273,586,5376
1644159009.403719,-0.013428,0.009033,-0.993652,0.251389,0.447634,-0.14626,49,280,572,5408
1644159009.452204,-0.011108,0.009399,-0.992188,0.312458,0.386565,-0.192061,55,271,583,5360
1644159009.500504,-0.012573,0.00946,-0.988342,0.266656,0.432366,-0.36,47,263,572,5344
1644159009.548882,-0.009338,0.009216,-0.992432,0.220855,0.478168,-0.085191,47,273,579,5344
1644159009.597249,-0.008606,0.009216,-0.990356,0.175053,0.401832,-0.222595,48,274,576,5296
1644159009.645665,-0.011292,0.007935,-0.990906,0.388794,0.432366,-0.115725,47,268,579,5344
1644159009.694063,-0.009766,0.008667,-0.993103,0.068183,0.478168,0.052214,51,274,569,5296
1644159009.742468,-0.009583,0.009766,-0.993103,0.220855,0.264427,-0.069924,45,268,575,5408
1644159009.790982,-0.01178,0.009705,-0.993469,0.342992,0.478168,-0.008855,62,271,585,5408
1644159009.841226,-0.011475,0.010376,-0.991028,0.327725,0.356031,-0.314198,49,273,570,5376
1644159009.891471,-0.012939,0.009949,-0.991943,0.236122,0.371298,-0.192061,52,273,575,5344
1644159009.941448,-0.01001,0.011658,-0.990295,0.175053,0.493435,-0.161527,51,283,576,5360
1644159010.032857,-0.008972,0.011963,-0.989197,0.129252,0.233893,-0.161527,53,274,578,5360
1644159010.085807,-0.012695,0.011902,-0.996216,0.327725,0.386565,0.036947,47,265,586,5408
1644159010.12955,-0.01123,0.008301,-0.99054,0.159786,0.386565,-0.207328,59,275,577,5424
1644159010.177943,-0.009705,0.009705,-0.994263,0.113985,0.478168,-0.130992,55,274,573,5344
1644159010.226326,-0.007935,0.008667,-0.992004,0.266656,0.478168,-0.039389,49,287,577,5376
1644159010.274699,-0.008057,0.012817,-0.994263,0.190321,0.294962,-0.008855,52,277,565,5344
1644159010.323131,-0.010925,0.01062,-0.991577,0.251389,0.508702,-0.039389,52,275,582,5360
1644159010.371503,-0.010254,0.011108,-0.991882,0.175053,0.462901,-0.222595,48,281,578,5360
1644159010.419927,-0.00885,0.00885,-0.989868,0.220855,0.386565,-0.039389,54,270,577,5344
1644159010.468267,-0.009338,0.007385,-0.988953,0.220855,0.417099,-0.100458,53,276,580,5360
1644159010.516702,-0.010437,0.008179,-0.990356,0.266656,0.554504,-0.085191,49,263,579,5344
1644159010.56695,-0.012329,0.008972,-0.991455,0.220855,0.432366,0.082748,49,280,572,5344
1644159010.617474,-0.011719,0.011169,-0.989502,0.098718,0.386565,-0.14626,55,264,585,5360
1644159010.662405,-0.009949,0.011414,-0.992615,0.251389,0.401832,-0.054656,53,264,583,5296
1644159010.758595,-0.011536,0.010376,-0.99115,0.251389,0.356031,-0.130992,46,279,573,5296
1644159010.806987,-0.01123,0.009705,-0.990417,0.251389,0.371298,-0.192061,54,275,579,5408
1644159010.855418,-0.008789,0.011719,-0.990051,0.129252,0.432366,-0.222595,51,269,569,5344
1644159010.903826,-0.011536,0.010681,-0.99115,0.236122,0.356031,-0.298931,58,274,576,5360
1644159010.952219,-0.007507,0.01001,-0.991455,0.175053,0.417099,0.006412,43,279,573,5424
1644159011.000579,-0.009705,0.008179,-0.991272,0.236122,0.356031,-0.14626,52,265,577,5344
1644159011.057113,-0.011047,0.011353,-0.990967,0.205588,0.340763,-0.161527,41,266,578,5312
1644159011.097325,-0.009094,0.008118,-0.991394,0.205588,0.523969,-0.039389,57,275,572,5296
1644159011.145728,-0.01062,0.00885,-0.990723,0.205588,0.478168,-0.237863,52,268,572,5360
1644159011.19412,-0.009705,0.010254,-0.991821,-0.008153,0.569771,-0.069924,62,264,573,5344
1644159011.242515,-0.013062,0.00824,-0.993225,0.236122,0.432366,-0.039389,43,266,573,5424
1644159011.29087,-0.01123,0.011169,-0.990845,0.281924,0.432366,-0.054656,54,268,579,5344
1644159011.33928,-0.012085,0.007568,-0.989197,0.281924,0.615573,-0.130992,49,275,565,5360
1644159011.387662,-0.010071,0.011841,-0.992737,0.266656,0.508702,-0.085191,53,264,573,5376
1644159011.436051,-0.007385,0.009094,-0.989807,0.297191,0.356031,-0.115725,52,277,568,5376
1644159011.484455,-0.007568,0.009216,-0.990417,0.159786,0.371298,-0.100458,48,269,580,5344
1644159011.532854,-0.009521,0.01001,-0.993591,0.297191,0.447634,-0.192061,49,273,577,5344
1644159011.58122,-0.010742,0.008972,-0.991089,0.281924,0.386565,-0.14626,46,279,576,5376
1644159011.629948,-0.005981,0.007202,-0.989746,0.205588,0.417099,0.006412,55,269,573,5456
1644159011.679146,-0.007019,0.01001,-0.990417,0.205588,0.386565,-0.130992,54,260,572,5376
1644159011.729267,-0.010864,0.009155,-0.988953,0.327725,0.493435,-0.115725,55,271,578,5360
1644159011.779525,-0.007507,0.009705,-0.990234,0.159786,0.294962,-0.054656,35,273,572,5360
1644159011.87157,-0.010132,0.007507,-0.993042,0.373527,0.233893,-0.008855,48,279,578,5408
1644159011.919993,-0.011414,0.012146,-0.98877,0.281924,0.539237,-0.069924,57,273,570,5360
1644159011.968379,-0.008667,0.010681,-0.989075,0.205588,0.294962,0.021679,41,279,569,5408
1644159012.016778,-0.012207,0.008423,-0.991089,0.220855,0.401832,-0.207328,54,282,568,5408
1644159012.065287,-0.010498,0.008545,-0.992065,0.129252,0.325496,-0.039389,53,279,583,5408
1644159012.11356,-0.010681,0.010986,-0.992126,0.220855,0.508702,-0.14626,55,276,566,5360
1644159012.161909,-0.01123,0.008972,-0.989746,0.175053,0.340763,0.067481,52,280,577,5360
1644159012.210304,-0.013367,0.008423,-0.989136,0.205588,0.478168,-0.039389,45,280,577,5344
1644159012.258684,-0.006775,0.011047,-0.990417,0.113985,0.340763,-0.008855,41,274,564,5296
1644159012.307071,-0.009888,0.008057,-0.992615,0.144519,0.493435,0.036947,52,275,575,5344
1644159012.355451,-0.009277,0.008789,-0.990051,0.205588,0.432366,-0.14626,48,271,576,5376
1644159012.403857,-0.010254,0.010132,-0.993286,0.098718,0.386565,-0.130992,47,275,582,5360
1644159012.452236,-0.012024,0.009277,-0.994019,0.297191,0.371298,-0.100458,49,275,577,5424
1644159012.500593,-0.009888,0.00885,-0.99115,0.144519,0.478168,-0.161527,45,282,582,5312
1644159012.549014,-0.009155,0.009583,-0.991821,0.266656,0.432366,-0.207328,58,279,578,5344
1644159012.597408,-0.010498,0.009399,-0.993225,0.312458,0.508702,0.052214,49,277,577,5360
1644159012.64579,-0.009399,0.01123,-0.992615,0.342992,0.539237,-0.130992,53,271,580,5360
1644159012.694183,-0.011536,0.008728,-0.99054,0.159786,0.371298,-0.054656,53,262,578,5360
1644159012.742854,-0.008484,0.009277,-0.991211,0.281924,0.401832,0.082748,54,268,565,5312
1644159012.792224,-0.009155,0.010132,-0.993347,0.159786,0.401832,-0.25313,47,270,570,5376
1644159012.844049,-0.01123,0.014282,-0.993042,0.159786,0.462901,-0.14626,47,275,584,5360
1644159012.888247,-0.00946,0.011719,-0.994385,0.312458,0.371298,-0.14626,48,274,569,5408
1644159012.984564,-0.010559,0.009338,-0.99115,0.266656,0.264427,-0.039389,43,276,566,5344
1644159013.043031,-0.009338,0.009644,-0.992126,0.175053,0.401832,-0.008855,52,277,575,5376
1644159013.084428,-0.014893,0.00824,-0.990967,0.281924,0.508702,-0.192061,54,277,577,5376
1644159013.129733,-0.007874,0.010315,-0.991028,0.281924,0.417099,-0.100458,49,275,577,5424
1644159013.178083,-0.00946,0.010803,-0.989136,0.205588,0.493435,-0.222595,48,271,573,5360
1644159013.226475,-0.011475,0.00946,-0.991333,0.205588,0.401832,-0.085191,45,280,572,5360
1644159013.274876,-0.011658,0.008179,-0.990417,0.205588,0.401832,-0.176794,55,276,580,5344
1644159013.323262,-0.009277,0.008606,-0.989624,0.297191,0.508702,-0.115725,49,270,584,5360
1644159013.371634,-0.010742,0.01001,-0.991394,0.327725,0.447634,-0.054656,53,262,576,5456
1644159013.420033,-0.008606,0.009277,-0.99231,0.190321,0.462901,-0.085191,49,268,582,5344
1644159013.468417,-0.010864,0.012878,-0.990417,0.220855,0.523969,-0.130992,49,282,572,5408
1644159013.516807,-0.009033,0.007996,-0.99353,0.388794,0.478168,0.006412,51,269,587,5424
1644159013.565183,-0.010315,0.009094,-0.99054,0.098718,0.356031,-0.054656,53,271,566,5360
1644159013.613552,-0.010437,0.00946,-0.99115,0.266656,0.24916,-0.14626,52,263,577,5376
1644159013.661965,-0.011292,0.008789,-0.988159,0.342992,0.325496,-0.085191,48,271,573,5312
1644159013.710612,-0.007507,0.010742,-0.994873,0.236122,0.432366,-0.161527,53,281,571,5344
1644159013.761748,-0.011536,0.011353,-0.990479,0.480397,0.432366,-0.100458,57,273,584,5344
1644159013.811365,-0.01239,0.008911,-0.991394,0.175053,0.340763,-0.069924,51,269,576,5376
1644159013.857177,-0.009766,0.008545,-0.990234,0.312458,0.432366,-0.024122,55,269,576,5344
1644159013.95247,-0.011536,0.007935,-0.991821,0.236122,0.508702,-0.192061,64,277,570,5344
1644159014.000741,-0.013062,0.00885,-0.991333,0.159786,0.401832,-0.115725,48,276,573,5280
1644159014.055782,-0.011169,0.008606,-0.994141,0.175053,0.478168,-0.161527,54,273,577,5344
1644159014.097493,-0.011536,0.010803,-0.992126,0.373527,0.356031,-0.085191,57,277,582,5360
1644159014.145909,-0.012573,0.010193,-0.992371,0.342992,0.478168,0.021679,58,276,580,5344
1644159014.194265,-0.008728,0.008118,-0.990723,0.266656,0.401832,-0.008855,54,282,570,5424
1644159014.242648,-0.008545,0.011597,-0.989136,0.373527,0.340763,-0.039389,46,279,573,5408
1644159014.291021,-0.01001,0.008789,-0.99115,0.190321,0.493435,-0.14626,54,260,575,5344
1644159014.339426,-0.011963,0.010681,-0.990601,0.251389,0.554504,-0.237863,43,281,569,5344
1644159014.387834,-0.01123,0.007446,-0.991821,0.327725,0.417099,-0.115725,55,271,576,5344
1644159014.436197,-0.009399,0.00824,-0.99231,0.281924,0.401832,-0.25313,48,269,576,5376
1644159014.484624,-0.007263,0.010864,-0.988953,0.190321,0.447634,-0.115725,53,271,571,5360
1644159014.532987,-0.014343,0.009094,-0.994507,0.449863,0.432366,-0.039389,61,268,577,5360
1644159014.581359,-0.00946,0.007874,-0.992554,0.205588,0.478168,-0.14626,48,274,578,5408
1644159014.630079,-0.00824,0.010803,-0.993896,0.205588,0.523969,-0.192061,60,269,580,5296
1644159014.679832,-0.009094,0.008789,-0.991516,0.251389,0.386565,-0.268397,57,282,584,5360
1644159014.729863,-0.009949,0.010254,-0.992065,0.266656,0.523969,0.006412,49,270,575,5344
1644159014.77985,-0.007874,0.009766,-0.992493,0.404061,0.432366,-0.100458,55,274,580,5344
1644159014.871688,-0.008789,0.012268,-0.994934,0.404061,0.264427,-0.054656,53,269,573,5344
1644159014.920119,-0.011353,0.007935,-0.993835,0.342992,0.325496,-0.100458,49,282,572,5376
1644159014.968506,-0.010437,0.009888,-0.990173,0.312458,0.447634,-0.161527,53,271,578,5408
1644159015.016909,-0.013306,0.008911,-0.990051,0.037649,0.432366,-0.039389,59,275,575,5344
1644159015.065479,-0.013367,0.009399,-0.992188,0.342992,0.493435,-0.054656,46,274,580,5424
1644159015.113645,-0.009583,0.010193,-0.992493,0.297191,0.401832,-0.25313,58,266,576,5344
1644159015.162039,-0.01239,0.008667,-0.990417,0.281924,0.356031,-0.085191,54,275,577,5344
1644159015.210422,-0.008667,0.01123,-0.991882,0.297191,0.371298,-0.024122,55,281,578,5424
1644159015.258811,-0.009827,0.010559,-0.991882,0.205588,0.493435,-0.100458,54,265,575,5344
1644159015.307192,-0.010498,0.008667,-0.992554,0.220855,0.356031,-0.085191,46,276,587,5360
1644159015.355581,-0.010803,0.009155,-0.991516,0.220855,0.462901,-0.161527,57,277,575,5360
1644159015.404002,-0.012085,0.008789,-0.991699,0.205588,0.478168,-0.14626,51,276,585,5376
1644159015.452392,-0.012451,0.012024,-0.992981,0.266656,0.386565,-0.039389,54,280,577,5408
1644159015.500763,-0.010681,0.010803,-0.994324,0.236122,0.371298,-0.237863,49,275,575,5296
1644159015.549144,-0.012024,0.013672,-0.993958,0.220855,0.462901,-0.115725,52,277,579,5344
1644159015.597535,-0.011475,0.006836,-0.992065,0.281924,0.279695,-0.024122,43,276,580,5408
1644159015.645923,-0.011108,0.008789,-0.99231,0.327725,0.417099,0.021679,52,265,572,5296
1644159015.694314,-0.008545,0.010132,-0.992065,0.113985,0.417099,-0.039389,46,271,573,5360
1644159015.743119,-0.010193,0.00946,-0.992126,0.113985,0.447634,0.021679,49,273,575,5360
1644159015.794745,-0.010986,0.009399,-0.991089,0.251389,0.447634,-0.207328,49,277,575,5408
1644159015.845008,-0.011047,0.011047,-0.990601,0.08345,0.310229,-0.100458,57,273,575,5344
1644159015.889151,-0.011047,0.010742,-0.989807,0.175053,0.417099,-0.192061,54,273,579,5424
1644159015.984894,-0.006714,0.010376,-0.992065,0.175053,0.401832,-0.130992,46,279,571,5296
1644159016.033076,-0.007874,0.013,-0.991577,0.327725,0.340763,-0.085191,45,275,572,5360
1644159016.081533,-0.010742,0.009277,-0.991272,0.327725,0.401832,-0.039389,55,286,569,5296
1644159016.129792,-0.009155,0.008057,-0.990784,0.113985,0.539237,-0.054656,55,286,566,5376
1644159016.178213,-0.010681,0.008789,-0.992065,0.251389,0.371298,-0.085191,48,286,587,5312
1644159016.226597,-0.009216,0.008301,-0.991882,0.297191,0.340763,-0.161527,52,285,572,5408
1644159016.275093,-0.009583,0.008301,-0.991455,0.175053,0.432366,-0.130992,55,283,578,5408
1644159016.32335,-0.01062,0.006836,-0.992859,0.312458,0.325496,-0.024122,46,276,569,5344
1644159016.371768,-0.010315,0.008118,-0.989197,0.266656,0.417099,-0.069924,55,279,573,5344
1644159016.420153,-0.011414,0.009521,-0.990967,0.419328,0.401832,-0.130992,57,277,577,5408
1644159016.468544,-0.009644,0.010803,-0.990906,0.342992,0.447634,0.036947,51,269,571,5376
1644159016.516934,-0.008484,0.008484,-0.991089,0.373527,0.478168,-0.176794,43,279,576,5408
1644159016.565324,-0.008667,0.009949,-0.991943,0.129252,0.539237,-0.161527,54,275,577,5296
1644159016.613707,-0.011841,0.009583,-0.989746,0.297191,0.432366,-0.130992,45,277,572,5344
1644159016.662349,-0.010376,0.010803,-0.991333,0.342992,0.203359,-0.054656,51,276,573,5376
1644159016.711142,-0.011475,0.008972,-0.990112,0.297191,0.401832,-0.069924,45,265,565,5344
1644159016.761761,-0.009155,0.010864,-0.993042,0.190321,0.447634,-0.130992,49,277,570,5344
1644159016.812746,-0.010742,0.01001,-0.993408,0.159786,0.554504,-0.085191,54,277,577,5344
1644159016.85761,-0.007996,0.007996,-0.993042,0.144519,0.371298,-0.130992,61,285,570,5360
1644159016.952495,-0.01123,0.008606,-0.992493,0.312458,0.493435,-0.024122,52,277,575,5344
1644159017.000847,-0.00824,0.011108,-0.990112,0.297191,0.371298,-0.161527,53,266,573,5344
1644159017.054517,-0.010193,0.012207,-0.993042,0.190321,0.508702,-0.085191,40,277,577,5408
1644159017.097608,-0.008545,0.013306,-0.989929,0.144519,0.401832,-0.192061,48,274,580,5376
1644159017.145997,-0.009277,0.008911,-0.98877,0.281924,0.371298,-0.14626,54,280,568,5344
1644159017.194383,-0.010925,0.008301,-0.989685,0.281924,0.539237,-0.268397,54,277,582,5312
1644159017.242791,-0.007568,0.010559,-0.989685,0.159786,0.447634,-0.176794,51,276,576,5312
1644159017.291122,-0.010559,0.008789,-0.992432,0.220855,0.356031,-0.039389,52,277,572,5376
1644159017.339544,-0.011353,0.008545,-0.98999,0.159786,0.493435,-0.14626,42,268,582,5360
1644159017.387912,-0.007202,0.007507,-0.988831,0.205588,0.462901,-0.161527,46,264,571,5360
1644159017.436331,-0.008789,0.010132,-0.991394,0.297191,0.600305,-0.207328,57,270,568,5360
1644159017.484718,-0.008484,0.009827,-0.992554,0.220855,0.371298,-0.054656,59,265,568,5344
1644159017.533123,-0.009583,0.010254,-0.993103,0.404061,0.386565,-0.100458,54,277,579,5312
1644159017.581491,-0.008789,0.012329,-0.99054,0.312458,0.447634,-0.054656,53,264,580,5360
1644159017.629879,-0.008972,0.010742,-0.987366,0.144519,0.371298,-0.130992,47,280,579,5344
1644159017.678269,-0.012085,0.00946,-0.989502,0.205588,0.569771,-0.115725,46,264,573,5296
1644159017.726653,-0.014099,0.007874,-0.992249,0.113985,0.371298,-0.085191,46,274,573,5360
1644159017.775079,-0.009644,0.007812,-0.993774,0.236122,0.508702,-0.222595,53,276,585,5376
1644159017.823599,-0.008667,0.009888,-0.99292,0.266656,0.294962,-0.176794,53,266,566,5344
1644159017.874715,-0.008972,0.009094,-0.993408,0.205588,0.310229,-0.14626,54,273,576,5456
1644159017.92542,-0.013,0.010315,-0.994446,0.251389,0.356031,-0.14626,54,270,577,5360
1644159017.9699,-0.007935,0.010742,-0.990601,0.373527,0.554504,-0.25313,46,279,578,5376
1644159018.065525,-0.009155,0.007996,-0.99054,0.236122,0.478168,-0.085191,52,268,577,5408
1644159018.113786,-0.01123,0.007812,-0.992249,0.098718,0.508702,-0.100458,46,276,573,5456
1644159018.162382,-0.009338,0.00946,-0.994324,0.159786,0.417099,-0.115725,49,275,570,5296
1644159018.210541,-0.008972,0.011963,-0.991333,0.144519,0.371298,-0.115725,45,268,570,5344
1644159018.258916,-0.010376,0.009766,-0.992859,0.159786,0.554504,-0.25313,51,279,576,5408
1644159018.307305,-0.007507,0.011841,-0.991699,0.236122,0.310229,-0.069924,53,283,573,5344
1644159018.355717,-0.012268,0.010071,-0.989685,0.312458,0.478168,-0.069924,47,277,568,5344
1644159018.404112,-0.011658,0.009766,-0.994202,0.205588,0.356031,-0.14626,48,279,564,5344
1644159018.45252,-0.008728,0.009399,-0.990723,0.297191,0.386565,-0.192061,48,279,569,5296
1644159018.500863,-0.00885,0.010376,-0.995728,0.144519,0.386565,-0.115725,55,271,580,5344
1644159018.549278,-0.014099,0.007996,-0.993774,0.159786,0.294962,-0.207328,33,273,565,5360
1644159018.597671,-0.009277,0.007141,-0.992798,0.251389,0.569771,-0.085191,54,275,572,5376
1644159018.64603,-0.010193,0.008301,-0.994019,0.220855,0.371298,-0.161527,42,270,570,5296
1644159018.694456,-0.008423,0.008118,-0.991455,0.297191,0.386565,-0.054656,48,266,576,5344
1644159018.742827,-0.011047,0.007935,-0.992004,0.388794,0.493435,-0.161527,45,273,568,5360
1644159018.791221,-0.009399,0.009338,-0.994202,0.297191,0.432366,-0.069924,41,279,585,5344
1644159018.839645,-0.011108,0.00885,-0.993042,0.08345,0.294962,-0.024122,52,282,577,5488
1644159018.888035,-0.013733,0.010559,-0.989868,0.08345,0.294962,-0.008855,58,281,580,5456
1644159018.93643,-0.010925,0.007507,-0.993652,0.266656,0.539237,-0.085191,53,274,580,5344
1644159018.985794,-0.012451,0.007812,-0.992798,0.098718,0.401832,-0.14626,47,275,577,5360
1644159019.082312,-0.011108,0.009949,-0.993103,0.190321,0.401832,0.021679,59,273,577,5296
1644159019.129987,-0.010437,0.010132,-0.990967,0.236122,0.432366,-0.115725,42,273,572,5344
1644159019.17833,-0.013062,0.01062,-0.991943,0.327725,0.447634,-0.130992,46,271,562,5360
1644159019.226703,-0.009399,0.00769,-0.993347,0.236122,0.523969,-0.14626,46,274,580,5360
1644159019.275346,-0.010986,0.008545,-0.991028,0.236122,0.356031,-0.207328,34,266,576,5312
1644159019.323511,-0.009766,0.008911,-0.993347,0.220855,0.478168,-0.115725,46,281,583,5360
1644159019.371875,-0.008545,0.010376,-0.991089,0.281924,0.417099,0.006412,40,268,575,5424
1644159019.42026,-0.01123,0.009094,-0.992371,0.220855,0.417099,-0.237863,51,271,585,5344
1644159019.468683,-0.010132,0.008545,-0.993164,0.327725,0.508702,0.006412,45,282,572,5360
1644159019.517066,-0.011047,0.009399,-0.992004,0.342992,0.279695,-0.054656,47,270,572,5312
1644159019.565458,-0.012573,0.008179,-0.990784,0.419328,0.371298,-0.237863,38,280,575,5344
1644159019.613856,-0.011841,0.009766,-0.990845,0.144519,0.432366,-0.008855,51,276,576,5424
1644159019.662241,-0.007446,0.008545,-0.992004,0.113985,0.493435,0.052214,55,271,569,5376
1644159019.71058,-0.009766,0.007385,-0.993408,0.342992,0.462901,-0.192061,47,270,577,5344
1644159019.758993,-0.00946,0.010071,-0.991638,0.190321,0.417099,-0.207328,51,288,576,5424
1644159019.807399,-0.010376,0.010315,-0.992065,0.297191,0.310229,-0.130992,52,285,577,5344
1644159019.855828,-0.012146,0.008667,-0.992004,0.175053,0.417099,-0.100458,46,283,578,5408
1644159019.904231,-0.008972,0.010315,-0.992004,0.297191,0.386565,-0.085191,60,281,571,5408
1644159019.95272,-0.010986,0.008911,-0.992065,0.342992,0.432366,-0.115725,53,276,569,5312
1644159020.004052,-0.007507,0.011169,-0.991638,0.205588,0.310229,-0.176794,57,263,577,5344
1644159020.097772,-0.013245,0.010986,-0.99176,0.251389,0.310229,-0.115725,60,274,576,5344
1644159020.14613,-0.00946,0.008118,-0.990601,0.205588,0.462901,-0.085191,52,268,568,5312
1644159020.194513,-0.007141,0.009705,-0.992432,0.144519,0.371298,-0.314198,51,274,569,5376
1644159020.242912,-0.010376,0.010803,-0.993164,0.190321,0.356031,-0.130992,51,281,576,5360
1644159020.291275,-0.008545,0.009216,-0.992126,0.022382,0.554504,-0.207328,51,271,571,5408
1644159020.339648,-0.010803,0.011047,-0.991821,0.281924,0.432366,-0.069924,55,279,569,5312
1644159020.38807,-0.00946,0.005615,-0.988586,0.159786,0.401832,-0.14626,51,279,573,5344
1644159020.436452,-0.011597,0.010254,-0.993835,0.342992,0.432366,-0.207328,53,269,573,5360
1644159020.484838,-0.011536,0.008728,-0.992004,0.281924,0.478168,-0.176794,47,268,572,5312
1644159020.533247,-0.010315,0.008911,-0.990601,0.297191,0.523969,-0.192061,51,279,578,5360
1644159020.581634,-0.009766,0.007935,-0.992126,0.159786,0.432366,-0.100458,53,274,569,5360
1644159020.629999,-0.012939,0.010986,-0.990967,0.342992,0.432366,0.052214,48,274,571,5376
1644159020.6784,-0.009216,0.009277,-0.992249,0.205588,0.386565,-0.115725,52,285,584,5376
1644159020.726789,-0.011719,0.011475,-0.990479,0.251389,0.417099,-0.085191,53,279,576,5344
1644159020.775185,-0.009277,0.012756,-0.991699,0.266656,0.371298,-0.161527,54,280,572,5376
1644159020.823568,-0.009705,0.007202,-0.991882,0.297191,0.371298,-0.100458,52,280,577,5344
1644159020.872016,-0.009338,0.009827,-0.995056,0.220855,0.401832,-0.192061,41,269,578,5344
1644159020.920719,-0.010132,0.010132,-0.99054,0.220855,0.386565,-0.100458,46,269,580,5376
1644159020.968801,-0.013123,0.006836,-0.993042,0.251389,0.356031,-0.222595,51,274,571,5376
1644159021.018713,-0.011292,0.01001,-0.99231,0.281924,0.493435,-0.100458,52,270,577,5376
1644159021.075897,-0.01062,0.010864,-0.992432,0.190321,0.356031,-0.14626,59,273,582,5424
1644159021.119854,-0.011475,0.009766,-0.990601,0.297191,0.417099,0.067481,47,268,575,5344
1644159021.163705,-0.008118,0.010559,-0.993835,0.388794,0.371298,-0.14626,55,266,578,5456
1644159021.259095,-0.013,0.006897,-0.993164,0.129252,0.462901,-0.069924,57,265,572,5424
1644159021.307485,-0.01416,0.010803,-0.991394,0.297191,0.264427,-0.039389,59,275,582,5312
1644159021.355876,-0.011353,0.010437,-0.992554,0.297191,0.417099,-0.130992,54,273,570,5408
1644159021.404279,-0.009827,0.011597,-0.991394,0.251389,0.386565,-0.115725,59,273,570,5344
1644159021.452687,-0.010193,0.008606,-0.990479,0.266656,0.417099,-0.100458,39,281,569,5344
1644159021.501035,-0.012817,0.010254,-0.993652,0.327725,0.371298,-0.115725,42,273,572,5408
1644159021.549446,-0.00769,0.00708,-0.990112,0.404061,0.462901,-0.100458,54,273,570,5296
1644159021.597828,-0.012329,0.00885,-0.992126,0.190321,0.432366,-0.207328,43,264,578,5424
1644159021.646225,-0.009216,0.009888,-0.993652,0.129252,0.462901,0.021679,59,273,572,5472
1644159021.694723,-0.009644,0.010925,-0.990479,0.251389,0.523969,-0.130992,36,276,573,5344
1644159021.743016,-0.014282,0.007568,-0.992493,0.404061,0.523969,-0.024122,48,271,571,5376
1644159021.791399,-0.008362,0.009094,-0.990295,0.373527,0.462901,-0.161527,47,275,593,5360
1644159021.839792,-0.011597,0.006165,-0.992432,0.297191,0.478168,-0.054656,49,273,563,5344
1644159021.888179,-0.007812,0.010925,-0.990051,0.220855,0.447634,-0.085191,41,274,576,5456
1644159021.936563,-0.008911,0.008362,-0.990112,0.266656,0.478168,-0.100458,57,273,582,5456
1644159021.984941,-0.010803,0.010742,-0.990356,0.098718,0.508702,-0.192061,51,276,569,5344
1644159022.033347,-0.008667,0.007874,-0.994568,0.327725,0.493435,0.036947,42,275,570,5408
1644159022.087235,-0.010681,0.011963,-0.991882,0.175053,0.493435,-0.054656,48,279,585,5360
1644159022.130097,-0.009033,0.008728,-0.989929,0.236122,0.447634,-0.100458,51,264,580,5424
1644159022.179723,-0.012695,0.011841,-0.992615,0.266656,0.462901,-0.130992,51,271,571,5344
1644159022.229924,-0.011658,0.009216,-0.990234,0.297191,0.417099,-0.100458,62,262,578,5456
1644159022.280047,-0.011902,0.005554,-0.990601,0.159786,0.401832,-0.024122,53,276,569,5360
1644159022.372042,-0.012512,0.010742,-0.992859,0.220855,0.401832,-0.069924,59,285,575,5344
1644159022.420411,-0.012451,0.008118,-0.992859,0.175053,0.356031,0.067481,53,283,569,5360
1644159022.4688,-0.007507,0.010742,-0.994141,0.190321,0.340763,0.098015,55,276,578,5360
1644159022.517184,-0.011719,0.008667,-0.991882,0.266656,0.386565,-0.100458,51,276,576,5344
1644159022.565567,-0.010559,0.010071,-0.992249,0.35826,0.24916,-0.100458,57,275,572,5408
1644159022.613967,-0.008728,0.00946,-0.992126,0.220855,0.386565,0.036947,49,280,577,5360
1644159022.66237,-0.008545,0.008545,-0.992737,0.190321,0.386565,0.006412,47,270,577,5360
1644159022.710756,-0.007019,0.009888,-0.992432,0.175053,0.493435,0.006412,55,269,566,5312
1644159022.759142,-0.012268,0.010681,-0.992249,0.342992,0.661374,-0.161527,46,274,578,5408
1644159022.807577,-0.010559,0.006714,-0.988708,0.159786,0.432366,-0.100458,58,271,569,5424
1644159022.855964,-0.011597,0.007019,-0.99231,0.236122,0.325496,-0.176794,55,269,578,5360
1644159022.904365,-0.009033,0.010742,-0.992737,0.297191,0.386565,-0.085191,61,273,572,5376
1644159022.952727,-0.011108,0.009827,-0.992371,0.342992,0.539237,0.036947,54,275,582,5424
1644159023.00113,-0.008606,0.009949,-0.99469,0.281924,0.371298,0.082748,57,273,575,5312
1644159023.097835,-0.010986,0.011536,-0.992554,0.281924,0.386565,-0.192061,58,276,576,5376
1644159023.146227,-0.009644,0.008789,-0.989746,0.266656,0.356031,-0.192061,59,275,570,5344
1644159023.194853,-0.009521,0.009521,-0.991821,0.297191,0.554504,-0.115725,51,276,578,5312
1644159023.243049,-0.010498,0.008728,-0.992981,0.007115,0.401832,0.067481,51,279,573,5408
1644159023.291422,-0.009766,0.011841,-0.988892,0.297191,0.523969,0.082748,58,264,576,5344
1644159023.340263,-0.011841,0.007629,-0.992371,0.297191,0.356031,-0.024122,55,269,580,5376
1644159023.388196,-0.009277,0.010681,-0.988586,0.220855,0.417099,-0.069924,43,266,580,5424
1644159023.436583,-0.008545,0.010071,-0.992615,0.175053,0.340763,-0.085191,59,287,568,5408
1644159023.485111,-0.011047,0.012817,-0.990662,0.236122,0.493435,-0.085191,53,279,566,5360
1644159023.53337,-0.011597,0.011292,-0.991455,0.373527,0.539237,-0.069924,51,274,578,5280
1644159023.581747,-0.008667,0.007874,-0.992798,0.327725,0.294962,-0.344733,51,274,576,5344
1644159023.630134,-0.010864,0.011658,-0.991089,0.098718,0.386565,-0.100458,48,271,578,5344
1644159023.678515,-0.008484,0.010986,-0.993835,0.236122,0.493435,-0.008855,55,274,573,5408
1644159023.726923,-0.008911,0.009155,-0.991394,0.281924,0.371298,-0.100458,59,263,577,5360
1644159023.775308,-0.013,0.01062,-0.992554,0.266656,0.371298,0.036947,53,286,578,5408
1644159023.823742,-0.009705,0.00946,-0.990845,0.175053,0.462901,-0.222595,51,274,576,5344
1644159023.872176,-0.010132,0.009277,-0.991638,0.098718,0.539237,-0.054656,51,279,576,5408
1644159023.920518,-0.009399,0.00708,-0.991699,0.297191,0.356031,-0.130992,48,269,573,5376
1644159023.968922,-0.012573,0.010071,-0.995117,0.236122,0.340763,-0.161527,51,276,578,5312
1644159024.018029,-0.01062,0.011414,-0.992493,0.251389,0.401832,-0.14626,47,268,582,5344
1644159024.075325,-0.012024,0.009827,-0.992249,0.327725,0.325496,-0.14626,49,277,575,5344
1644159024.118244,-0.010986,0.009399,-0.989685,0.35826,0.386565,-0.130992,52,277,579,5360
1644159024.162841,-0.011292,0.01062,-0.993103,0.144519,0.478168,-0.085191,54,273,575,5344
1644159024.259195,-0.01123,0.013,-0.98999,0.144519,0.417099,-0.008855,43,271,564,5408
1644159024.30758,-0.012756,0.010986,-0.994385,0.08345,0.417099,-0.039389,51,279,576,5344
1644159024.355963,-0.010437,0.009399,-0.990234,0.144519,0.325496,-0.085191,46,271,580,5360
1644159024.404385,-0.009094,0.011353,-0.993164,0.266656,0.646107,-0.085191,55,281,578,5360
1644159024.452772,-0.011353,0.009705,-0.994019,0.266656,0.325496,-0.069924,45,275,572,5344
1644159024.501148,-0.012146,0.009094,-0.990784,0.175053,0.24916,0.036947,53,279,573,5408
1644159024.549507,-0.007629,0.008301,-0.992004,0.236122,0.417099,-0.039389,53,279,576,5424
1644159024.59794,-0.011597,0.008179,-0.989258,0.220855,0.493435,-0.054656,47,277,570,5408
1644159024.646325,-0.012695,0.009155,-0.989197,0.175053,0.432366,-0.14626,49,280,570,5360
1644159024.694732,-0.009644,0.01239,-0.991577,0.205588,0.356031,-0.207328,53,279,573,5424
1644159024.743109,-0.011719,0.009705,-0.991028,0.175053,0.462901,-0.14626,48,279,569,5312
1644159024.791484,-0.009033,0.010742,-0.993469,0.113985,0.432366,-0.069924,47,280,568,5280
1644159024.839916,-0.011719,0.007141,-0.992188,0.159786,0.462901,-0.100458,47,285,570,5296
1644159024.888314,-0.009583,0.01001,-0.992554,0.220855,0.432366,-0.024122,54,263,570,5376
1644159024.936695,-0.010498,0.008728,-0.993835,0.236122,0.310229,0.082748,46,288,576,5344
1644159024.985189,-0.010315,0.008972,-0.992126,0.281924,0.325496,-0.008855,54,282,572,5408
1644159025.033466,-0.011047,0.009155,-0.991211,0.251389,0.279695,-0.14626,42,275,570,5344
1644159025.085745,-0.009155,0.008545,-0.992737,0.205588,0.432366,-0.085191,48,288,571,5360
1644159025.130207,-0.009033,0.006653,-0.992981,0.144519,0.417099,-0.069924,58,281,576,5360
1644159025.178953,-0.007202,0.007874,-0.991394,0.175053,0.417099,-0.024122,48,271,571,5344
1644159025.229196,-0.010681,0.006958,-0.992126,0.266656,0.508702,-0.130992,53,271,590,5344
1644159025.279371,-0.010376,0.009521,-0.993591,0.297191,0.24916,0.082748,55,271,566,5360
1644159025.324361,-0.010559,0.00885,-0.991028,0.144519,0.462901,-0.069924,48,274,578,5424
1644159025.420551,-0.010071,0.010376,-0.990662,0.220855,0.310229,-0.14626,53,271,562,5360
1644159025.468929,-0.008545,0.008728,-0.990417,0.068183,0.310229,0.036947,51,271,576,5408
1644159025.517322,-0.01062,0.009521,-0.991943,0.251389,0.508702,-0.008855,58,274,580,5344
1644159025.565704,-0.009644,0.008362,-0.991943,0.205588,0.386565,0.006412,49,280,575,5408
1644159025.614106,-0.01123,0.011414,-0.991455,0.175053,0.401832,-0.054656,60,279,571,5408
1644159025.662502,-0.012451,0.009888,-0.989624,0.205588,0.523969,-0.069924,59,277,582,5360
1644159025.710889,-0.011475,0.009216,-0.992493,0.220855,0.539237,-0.130992,53,283,571,5312
1644159025.759287,-0.010681,0.007751,-0.993042,0.388794,0.493435,-0.024122,46,291,573,5296
1644159025.807632,-0.010132,0.007935,-0.991699,0.342992,0.294962,-0.207328,55,274,590,5424
1644159025.856092,-0.009949,0.011658,-0.991943,0.388794,0.600305,-0.100458,55,274,569,5424
1644159025.904506,-0.009766,0.010925,-0.992737,0.297191,0.432366,-0.25313,42,275,575,5408
1644159025.952883,-0.010925,0.011841,-0.990417,0.220855,0.386565,-0.161527,65,274,576,5376
1644159026.001249,-0.007812,0.007141,-0.989807,0.220855,0.417099,-0.008855,59,285,582,5408
1644159026.057049,-0.009705,0.010315,-0.990295,0.251389,0.340763,-0.115725,47,282,582,5424
1644159026.098016,-0.012207,0.007996,-0.993347,-0.02342,0.478168,-0.024122,55,279,573,5376
1644159026.146393,-0.010986,0.009949,-0.992737,0.220855,0.523969,-0.085191,41,279,583,5312
1644159026.194786,-0.010986,0.007874,-0.991882,0.098718,0.386565,-0.130992,52,275,586,5360
1644159026.243488,-0.009216,0.007568,-0.991943,0.159786,0.356031,-0.100458,59,260,582,5408
1644159026.292203,-0.01123,0.00824,-0.990662,0.281924,0.325496,-0.115725,53,281,578,5408
1644159026.342629,-0.007935,0.007996,-0.99115,0.312458,0.417099,-0.161527,49,275,577,5408
1644159026.392912,-0.007751,0.009644,-0.991882,0.098718,0.417099,-0.085191,53,271,578,5344
1644159026.437946,-0.012512,0.009094,-0.990112,0.220855,0.462901,-0.024122,49,280,582,5360
1644159026.533505,-0.010376,0.010315,-0.990723,0.068183,0.386565,-0.115725,46,276,576,5296
1644159026.581885,-0.009827,0.005005,-0.989685,0.327725,0.539237,-0.100458,52,275,577,5424
1644159026.630286,-0.010559,0.01001,-0.991394,0.037649,0.523969,-0.115725,54,275,572,5408
1644159026.678665,-0.010132,0.009338,-0.993469,0.251389,0.417099,-0.008855,51,276,571,5376
1644159026.727086,-0.010925,0.007751,-0.991333,0.205588,0.539237,0.021679,60,269,562,5424
1644159026.775449,-0.012207,0.008179,-0.994324,0.175053,0.539237,-0.14626,59,273,582,5344
1644159026.823844,-0.008667,0.009399,-0.991455,0.159786,0.279695,-0.207328,58,271,573,5360
1644159026.872282,-0.010254,0.010376,-0.990417,0.113985,0.294962,-0.054656,49,280,577,5344
1644159026.920633,-0.012634,0.005859,-0.991699,0.388794,0.432366,-0.25313,58,286,583,5456
1644159026.969038,-0.015198,0.009155,-0.990967,0.220855,0.386565,-0.14626,51,276,564,5408
1644159027.017407,-0.00946,0.008972,-0.990601,0.297191,0.478168,-0.314198,57,265,577,5408
1644159027.079746,-0.012329,0.008667,-0.991089,0.312458,0.508702,-0.054656,55,281,573,5456
1644159027.114202,-0.013184,0.009888,-0.991699,0.312458,0.432366,-0.085191,49,287,582,5376
1644159027.162583,-0.010559,0.008911,-0.992004,0.312458,0.371298,-0.14626,53,281,576,5344
1644159027.210953,-0.012268,0.009766,-0.990173,0.327725,0.386565,0.036947,59,268,582,5424
1644159027.259623,-0.011414,0.010132,-0.989441,0.236122,0.386565,-0.192061,55,279,569,5344
1644159027.30845,-0.008484,0.010864,-0.991211,0.281924,0.356031,-0.100458,57,270,575,5456
1644159027.359115,-0.01178,0.010132,-0.988953,0.251389,0.218626,-0.207328,61,270,582,5360
1644159027.409091,-0.010559,0.010925,-0.991882,0.037649,0.371298,-0.176794,40,273,575,5424
1644159027.45407,-0.010742,0.008911,-0.989563,0.251389,0.462901,0.036947,51,271,580,5408
1644159027.549674,-0.008911,0.00885,-0.993347,0.129252,0.432366,-0.176794,57,273,570,5424
1644159027.598073,-0.010559,0.01062,-0.993286,0.159786,0.24916,-0.069924,42,273,575,5344
1644159027.646436,-0.006958,0.010498,-0.992798,0.175053,0.523969,-0.130992,55,279,573,5376
1644159027.694842,-0.011047,0.009155,-0.989197,0.220855,0.493435,-0.161527,51,279,569,5408
1644159027.743235,-0.010498,0.011047,-0.99292,0.098718,0.371298,-0.054656,49,275,570,5376
1644159027.791631,-0.011719,0.006775,-0.992981,0.236122,0.447634,-0.100458,58,283,573,5344
1644159027.839994,-0.008789,0.011597,-0.990356,0.419328,0.539237,-0.130992,55,276,583,5360
1644159027.888412,-0.01062,0.008545,-0.991821,0.327725,0.462901,-0.024122,49,280,575,5424
1644159027.936803,-0.010498,0.009583,-0.99115,0.159786,0.508702,0.006412,48,269,571,5424
1644159027.985301,-0.010864,0.013367,-0.992737,0.404061,0.371298,-0.268397,49,277,582,5344
1644159028.033618,-0.009766,0.012207,-0.990356,0.144519,0.340763,-0.069924,55,274,571,5456
1644159028.082603,-0.008179,0.009277,-0.988647,0.327725,0.447634,-0.054656,55,269,583,5408
1644159028.13041,-0.010864,0.013062,-0.992493,0.266656,0.462901,-0.085191,45,282,575,5344
1644159028.178748,-0.00946,0.009766,-0.990479,0.144519,0.386565,-0.069924,51,269,585,5376
1644159028.227131,-0.009949,0.008301,-0.990479,0.113985,0.508702,-0.192061,48,276,569,5344
1644159028.275514,-0.004761,0.011536,-0.991272,0.35826,0.447634,-0.130992,57,265,572,5344
1644159028.323907,-0.011292,0.009705,-0.991272,0.266656,0.646107,0.052214,52,265,584,5456
1644159028.372305,-0.010254,0.008301,-0.98877,0.113985,0.539237,-0.100458,48,286,578,5456
1644159028.420682,-0.010742,0.00946,-0.993469,0.373527,0.24916,-0.115725,48,276,578,5408
1644159028.46916,-0.012146,0.008606,-0.991699,0.144519,0.203359,-0.130992,41,286,566,5376
1644159028.51978,-0.012512,0.01239,-0.990417,0.342992,0.24916,-0.085191,49,263,586,5344
1644159028.569708,-0.006775,0.012756,-0.99115,0.175053,0.417099,-0.039389,46,271,587,5424
1644159028.614715,-0.01001,0.009338,-0.992188,0.144519,0.447634,-0.085191,58,276,569,5424
1644159028.711012,-0.011536,0.011841,-0.99231,0.297191,0.417099,0.006412,54,263,577,5360
1644159028.759382,-0.008057,0.010925,-0.991211,0.205588,0.569771,-0.222595,49,273,572,5360
1644159028.807803,-0.008545,0.008057,-0.990479,0.08345,0.417099,-0.008855,55,274,580,5424
1644159028.856386,-0.013306,0.008972,-0.991577,0.251389,0.493435,-0.008855,51,266,569,5424
1644159028.904647,-0.007263,0.010864,-0.99176,0.236122,0.356031,-0.14626,49,275,565,5360
1644159028.952973,-0.010559,0.010925,-0.988281,0.281924,0.401832,0.021679,60,276,573,5344
1644159029.001366,-0.008972,0.009155,-0.99231,0.205588,0.539237,-0.14626,43,276,580,5344
1644159029.055448,-0.00946,0.008728,-0.992188,0.236122,0.417099,-0.192061,52,275,575,5344
1644159029.098175,-0.009338,0.010559,-0.99231,0.297191,0.478168,0.036947,43,283,578,5344
1644159029.146528,-0.011414,0.009949,-0.989441,0.251389,0.371298,-0.25313,48,269,573,5312
1644159029.195052,-0.007935,0.009766,-0.990417,0.144519,0.447634,-0.039389,62,279,578,5408
1644159029.243337,-0.012878,0.010071,-0.994141,0.297191,0.401832,-0.14626,51,274,576,5360
1644159029.291734,-0.010071,0.009033,-0.990417,0.190321,0.325496,-0.115725,55,274,592,5456
1644159029.340119,-0.011719,0.009277,-0.994446,0.190321,0.325496,-0.100458,48,276,578,5456
1644159029.388498,-0.007019,0.010803,-0.989685,0.266656,0.356031,-0.130992,48,269,571,5360
1644159029.436885,-0.010376,0.01001,-0.992004,0.342992,0.447634,-0.14626,58,271,585,5424
1644159029.485278,-0.011353,0.010376,-0.989685,0.373527,0.539237,-0.085191,57,282,570,5424
1644159029.53399,-0.009583,0.009827,-0.990967,0.236122,0.371298,-0.176794,43,262,587,5376
1644159029.582264,-0.011597,0.011292,-0.991516,0.251389,0.478168,-0.054656,40,273,575,5344
1644159029.632396,-0.010498,0.00946,-0.990051,0.449863,0.417099,0.006412,42,273,572,5408
1644159029.682798,-0.013184,0.010315,-0.989258,0.251389,0.569771,-0.054656,52,280,577,5344
1644159029.727445,-0.009033,0.010071,-0.993042,0.312458,0.478168,-0.100458,46,271,573,5344
1644159029.824047,-0.012451,0.007751,-0.990723,0.236122,0.401832,-0.085191,49,275,570,5344
1644159029.87243,-0.010498,0.007202,-0.993103,0.144519,0.539237,-0.008855,54,268,582,5424
1644159029.920771,-0.010925,0.008789,-0.994934,0.281924,0.508702,-0.024122,57,260,575,5408
1644159029.969166,-0.011719,0.010193,-0.992798,0.08345,0.478168,-0.100458,46,274,576,5360
1644159030.017572,-0.009094,0.006714,-0.991516,0.190321,0.478168,-0.222595,43,271,564,5376
1644159030.067777,-0.010132,0.008789,-0.989807,0.35826,0.447634,-0.176794,43,276,576,5408
1644159030.114313,-0.008118,0.009644,-0.991333,0.129252,0.417099,0.082748,51,276,576,5408
1644159030.162709,-0.010803,0.010254,-0.990784,0.113985,0.615573,-0.130992,60,269,569,5376
1644159030.211072,-0.011597,0.008484,-0.989746,0.266656,0.386565,-0.25313,46,274,573,5312
1644159030.25948,-0.00946,0.00885,-0.989868,0.342992,0.462901,-0.176794,54,273,575,5360
1644159030.307858,-0.012268,0.009094,-0.991821,0.266656,0.417099,-0.237863,46,269,580,5424
1644159030.356247,-0.012939,0.010986,-0.990601,0.297191,0.386565,-0.115725,55,276,576,5360
1644159030.404692,-0.01123,0.011658,-0.995056,0.281924,0.508702,-0.130992,58,279,571,5344
1644159030.45304,-0.011841,0.00946,-0.991089,0.281924,0.24916,-0.176794,49,263,582,5376
1644159030.501381,-0.013245,0.01001,-0.99231,0.037649,0.386565,-0.115725,51,274,576,5376
1644159030.5498,-0.011108,0.009338,-0.989868,0.266656,0.417099,-0.100458,48,271,580,5344
1644159030.5982,-0.010193,0.008362,-0.993408,0.327725,0.340763,-0.192061,43,279,571,5376
1644159030.64659,-0.013794,0.011047,-0.992065,0.205588,0.478168,-0.176794,54,282,579,5424
1644159030.695154,-0.012695,0.007996,-0.991028,0.419328,0.462901,-0.039389,54,275,584,5376
1644159030.747745,-0.010559,0.01239,-0.993103,0.220855,0.310229,-0.130992,43,271,576,5296
1644159030.79614,-0.007812,0.008728,-0.991211,0.266656,0.417099,-0.085191,51,262,578,5344
1644159030.841921,-0.01123,0.008362,-0.990784,0.266656,0.447634,-0.192061,53,259,576,5344
1644159030.93696,-0.011658,0.008728,-0.990112,0.281924,0.432366,-0.192061,52,260,572,5408
1644159030.985461,-0.011475,0.011597,-0.991516,0.220855,0.447634,-0.085191,59,275,584,5344
1644159031.042951,-0.013794,0.011841,-0.990723,0.098718,0.386565,-0.039389,54,273,572,5456
1644159031.085503,-0.012268,0.011353,-0.99054,0.190321,0.294962,-0.130992,49,265,575,5360
1644159031.13047,-0.009827,0.009766,-0.993713,0.190321,0.508702,-0.14626,52,275,575,5360
1644159031.178868,-0.012329,0.00769,-0.992432,0.129252,0.386565,-0.024122,59,275,582,5360
1644159031.227253,-0.010864,0.010498,-0.991638,0.281924,0.371298,-0.222595,46,274,569,5360
1644159031.275648,-0.013184,0.010742,-0.993713,0.251389,0.310229,-0.085191,43,276,571,5344
1644159031.324041,-0.010986,0.009216,-0.989868,0.342992,0.325496,-0.222595,45,275,572,5344
1644159031.372443,-0.011353,0.00354,-0.993103,0.08345,0.356031,0.021679,53,281,573,5408
1644159031.42081,-0.012207,0.010376,-0.993408,0.327725,0.401832,-0.14626,45,285,572,5344
1644159031.469165,-0.008545,0.010681,-0.98877,0.404061,0.386565,-0.130992,52,268,577,5424
1644159031.517593,-0.012085,0.009705,-0.994141,0.342992,0.539237,-0.039389,47,265,579,5408
1644159031.565978,-0.01062,0.009399,-0.989136,0.190321,0.386565,-0.024122,46,274,583,5344
1644159031.614337,-0.010864,0.008545,-0.993164,0.35826,0.356031,-0.054656,46,283,580,5376
1644159031.663084,-0.01178,0.009338,-0.990845,0.220855,0.356031,-0.085191,51,279,578,5408
1644159031.711401,-0.010132,0.009888,-0.991577,0.342992,0.432366,-0.283664,58,281,580,5424
1644159031.760769,-0.009216,0.009338,-0.989624,0.434595,0.523969,-0.161527,43,274,573,5408
1644159031.812314,-0.009827,0.007812,-0.992126,0.281924,0.447634,-0.130992,49,277,579,5376
1644159031.856596,-0.010315,0.008911,-0.990845,0.220855,0.432366,-0.192061,40,275,582,5408
1644159031.95315,-0.010681,0.010498,-0.991089,0.190321,0.401832,-0.14626,45,273,572,5408
1644159032.001512,-0.010864,0.009888,-0.990845,0.144519,0.508702,-0.100458,59,275,572,5376
1644159032.056389,-0.010132,0.007141,-0.993774,0.236122,0.493435,-0.024122,62,279,576,5424
1644159032.098246,-0.013245,0.007935,-0.991211,0.266656,0.462901,-0.207328,54,280,577,5424
1644159032.146655,-0.008362,0.008301,-0.992798,0.297191,0.462901,-0.161527,48,281,578,5360
1644159032.195065,-0.010681,0.006836,-0.992126,0.281924,0.447634,-0.161527,38,270,579,5344
1644159032.243432,-0.011108,0.01062,-0.991943,0.205588,0.340763,0.006412,55,269,583,5456
1644159032.291816,-0.008972,0.01123,-0.989685,0.190321,0.386565,-0.039389,53,279,580,5408
1644159032.340207,-0.012573,0.013123,-0.989746,0.251389,0.462901,-0.039389,54,275,570,5408
1644159032.388594,-0.010681,0.006348,-0.990784,0.312458,0.447634,-0.115725,59,268,586,5456
1644159032.436985,-0.007629,0.01001,-0.994202,0.129252,0.432366,-0.008855,54,270,575,5344
1644159032.48536,-0.014099,0.008179,-0.989075,0.312458,0.386565,-0.054656,54,282,582,5344
1644159032.53378,-0.008911,0.010376,-0.991333,0.220855,0.325496,-0.024122,51,274,587,5456
1644159032.582227,-0.007507,0.009216,-0.99115,0.113985,0.325496,-0.008855,58,274,583,5312
1644159032.630548,-0.012573,0.011719,-0.990112,0.236122,0.386565,-0.100458,48,276,580,5424
1644159032.678931,-0.012573,0.009094,-0.98938,0.144519,0.340763,-0.008855,49,270,568,5312
1644159032.727291,-0.010864,0.010132,-0.989319,0.205588,0.401832,-0.237863,40,270,570,5360
1644159032.775702,-0.01062,0.005493,-0.993042,0.297191,0.462901,0.036947,54,270,575,5360
1644159032.824553,-0.008423,0.008667,-0.991943,0.175053,0.340763,-0.100458,48,269,580,5408
1644159032.875783,-0.009521,0.010071,-0.993042,0.144519,0.356031,-0.085191,49,280,577,5344
1644159032.926159,-0.010437,0.008362,-0.993835,0.434595,0.417099,-0.25313,53,276,576,5360
1644159032.970634,-0.011475,0.010986,-0.993164,0.327725,0.493435,-0.176794,47,285,570,5408
1644159033.069133,-0.010559,0.01062,-0.989807,0.144519,0.462901,-0.054656,53,269,578,5344
1644159033.114475,-0.008545,0.009644,-0.994202,0.175053,0.371298,-0.14626,48,271,573,5376
1644159033.162841,-0.012146,0.011597,-0.991516,0.08345,0.401832,-0.176794,53,271,571,5312
1644159033.211222,-0.009888,0.010315,-0.989319,0.297191,0.325496,-0.176794,42,260,572,5376
1644159033.259611,-0.010315,0.008728,-0.990967,0.251389,0.386565,-0.192061,60,266,576,5376
1644159033.307991,-0.010864,0.00885,-0.992188,0.220855,0.356031,-0.130992,58,274,573,5376
1644159033.356383,-0.010864,0.00885,-0.992493,0.113985,0.63084,-0.161527,45,275,570,5344
1644159033.404787,-0.011108,0.009705,-0.991699,0.236122,0.539237,-0.25313,43,271,578,5344
1644159033.453182,-0.009338,0.009216,-0.993835,0.220855,0.310229,-0.115725,48,269,576,5456
1644159033.501554,-0.011108,0.012146,-0.991455,0.236122,0.569771,-0.14626,54,270,577,5344
1644159033.549939,-0.007385,0.006287,-0.991028,0.129252,0.340763,-0.100458,47,277,570,5344
1644159033.598332,-0.011597,0.009155,-0.990234,0.236122,0.508702,-0.176794,48,274,573,5344
1644159033.646714,-0.011536,0.009583,-0.991943,0.220855,0.325496,-0.039389,41,271,573,5376
1644159033.695136,-0.01123,0.008362,-0.991882,0.297191,0.585038,-0.14626,43,266,578,5408
1644159033.743464,-0.009155,0.009949,-0.99115,0.266656,0.340763,-0.207328,49,273,575,5424
1644159033.791872,-0.008362,0.009521,-0.99408,0.113985,0.417099,-0.207328,57,290,572,5360
1644159033.841796,-0.008789,0.01062,-0.993225,0.312458,0.386565,-0.192061,55,279,578,5344
1644159033.891962,-0.008057,0.00769,-0.992432,0.068183,0.356031,-0.222595,49,275,579,5344
1644159033.942285,-0.008179,0.009644,-0.990906,0.190321,0.401832,-0.161527,55,281,566,5344
1644159033.986897,-0.00708,0.010803,-0.990112,0.266656,0.340763,-0.115725,54,275,577,5456
1644159034.082333,-0.011047,0.009888,-0.991272,0.098718,0.432366,-0.207328,49,280,575,5344
1644159034.130641,-0.011169,0.008972,-0.991333,0.327725,0.417099,-0.054656,49,280,582,5360
1644159034.179005,-0.009705,0.009766,-0.993469,0.327725,0.462901,-0.069924,41,269,566,5344
1644159034.227371,-0.010498,0.010254,-0.993103,0.190321,0.356031,-0.069924,58,274,573,5312
1644159034.275754,-0.009705,0.008911,-0.992737,0.342992,0.447634,0.006412,52,275,572,5424
1644159034.324166,-0.009033,0.009827,-0.989929,0.175053,0.325496,-0.161527,46,274,566,5360
1644159034.372576,-0.007751,0.010498,-0.989075,0.190321,0.462901,-0.024122,55,274,578,5360
1644159034.420941,-0.01001,0.00946,-0.992188,0.297191,0.447634,-0.008855,59,275,570,5360
1644159034.469345,-0.007751,0.009766,-0.99176,0.281924,0.462901,-0.14626,57,275,570,5360
1644159034.517725,-0.012817,0.010986,-0.992065,0.480397,0.462901,-0.192061,45,277,577,5456
1644159034.566113,-0.009705,0.00769,-0.992676,0.175053,0.401832,-0.115725,49,280,579,5312
1644159034.614514,-0.010742,0.012024,-0.989868,0.144519,0.417099,-0.130992,51,288,573,5344
1644159034.662905,-0.009399,0.008789,-0.99176,0.205588,0.401832,-0.100458,55,274,576,5344
1644159034.711273,-0.012634,0.01178,-0.992493,0.266656,0.493435,0.036947,43,266,573,5408
1644159034.759642,-0.010132,0.012634,-0.990173,0.08345,0.569771,-0.024122,55,274,578,5408
1644159034.808047,-0.010254,0.009705,-0.99408,0.419328,0.508702,-0.207328,55,283,573,5344
1644159034.856482,-0.011902,0.00647,-0.994202,0.236122,0.554504,-0.008855,62,276,569,5360
1644159034.904871,-0.009338,0.010437,-0.991211,0.312458,0.401832,-0.054656,53,269,576,5344
1644159034.953286,-0.010864,0.01123,-0.991882,0.281924,0.356031,-0.283664,49,273,575,5408
1644159035.002753,-0.011292,0.009521,-0.993469,0.190321,0.478168,0.021679,58,279,569,5376
1644159035.075287,-0.01239,0.009216,-0.99231,0.266656,0.447634,-0.039389,36,281,578,5344
1644159035.099712,-0.011169,0.010376,-0.993164,0.281924,0.432366,-0.085191,46,276,587,5376
1644159035.195349,-0.008667,0.009338,-0.992188,0.373527,0.478168,-0.054656,57,273,577,5360
1644159035.243562,-0.014709,0.009705,-0.990967,0.251389,0.24916,-0.115725,54,270,582,5344
1644159035.291927,-0.011414,0.009521,-0.991699,0.175053,0.310229,-0.054656,59,273,575,5296
1644159035.340331,-0.007935,0.008179,-0.98999,0.297191,0.493435,-0.130992,54,280,572,5344
1644159035.388728,-0.008728,0.009949,-0.991516,0.190321,0.432366,-0.207328,40,273,579,5360
1644159035.437107,-0.010742,0.009094,-0.992188,0.08345,0.417099,-0.069924,48,269,587,5344
1644159035.485509,-0.008423,0.007568,-0.993103,0.312458,0.417099,-0.100458,57,277,579,5296
1644159035.533902,-0.012451,0.011963,-0.989746,0.205588,0.569771,-0.130992,46,271,578,5344
1644159035.582305,-0.010986,0.009521,-0.991211,0.297191,0.310229,0.067481,45,277,577,5456
1644159035.630681,-0.009888,0.008667,-0.991577,0.404061,0.417099,-0.085191,48,281,583,5376
1644159035.679065,-0.01239,0.010193,-0.992798,0.068183,0.24916,-0.085191,46,274,583,5360
1644159035.727447,-0.011841,0.008667,-0.99292,0.236122,0.493435,-0.237863,54,265,586,5408
1644159035.77582,-0.013672,0.007629,-0.994568,0.098718,0.401832,-0.054656,55,276,580,5344
1644159035.82424,-0.00708,0.010071,-0.989746,0.297191,0.417099,-0.176794,46,274,578,5376
1644159035.872655,-0.008057,0.00946,-0.990723,0.205588,0.523969,-0.054656,43,279,585,5376
1644159035.921047,-0.00946,0.011719,-0.989197,0.404061,0.401832,-0.039389,57,275,582,5344
1644159035.969446,-0.008545,0.01062,-0.990906,0.404061,0.478168,-0.054656,42,275,570,5344
1644159036.017835,-0.010742,0.011597,-0.991028,0.281924,0.447634,-0.008855,47,277,575,5360
1644159036.079048,-0.011414,0.012085,-0.987793,0.251389,0.432366,-0.192061,49,277,579,5360
1644159036.120154,-0.012939,0.009949,-0.989929,0.373527,0.356031,-0.176794,43,266,580,5408
1644159036.164114,-0.012024,0.009888,-0.992676,0.022382,0.432366,-0.192061,42,277,582,5376
1644159036.259752,-0.01001,0.010803,-0.992004,0.342992,0.508702,-0.069924,49,275,579,5360
1644159036.308132,-0.010681,0.010925,-0.991028,0.220855,0.356031,0.052214,58,271,576,5408
1644159036.356555,-0.007874,0.009705,-0.989685,0.159786,0.417099,-0.039389,51,269,580,5424
1644159036.404934,-0.009827,0.008484,-0.991821,0.052916,0.508702,-0.054656,55,274,566,5456
1644159036.453331,-0.010437,0.007935,-0.993469,0.373527,0.539237,-0.207328,46,276,571,5344
1644159036.5017,-0.012512,0.009644,-0.991882,0.297191,0.417099,-0.176794,46,276,583,5344
1644159036.550112,-0.009827,0.008972,-0.991455,0.175053,0.279695,-0.100458,57,265,582,5408
1644159036.598504,-0.007874,0.010803,-0.990295,0.297191,0.432366,-0.14626,51,274,576,5408
1644159036.646886,-0.010437,0.010254,-0.991028,0.113985,0.417099,-0.207328,53,274,571,5360
1644159036.695337,-0.012634,0.008728,-0.992615,0.144519,0.508702,-0.008855,55,274,578,5296
1644159036.743662,-0.013855,0.007751,-0.990723,0.434595,0.493435,-0.008855,47,277,572,5424
1644159036.792044,-0.01062,0.01062,-0.992004,0.35826,0.401832,-0.100458,60,271,580,5376
1644159036.840446,-0.012573,0.009766,-0.990356,0.175053,0.371298,-0.100458,52,268,577,5344
1644159036.888841,-0.012939,0.009277,-0.99353,0.342992,0.478168,-0.25313,47,270,575,5424
1644159036.937225,-0.010132,0.012817,-0.992554,0.205588,0.325496,-0.039389,52,268,577,5424
1644159036.985616,-0.010925,0.004822,-0.992065,0.281924,0.386565,-0.222595,59,273,584,5296
1644159037.044514,-0.010254,0.009705,-0.993591,0.220855,0.264427,0.113282,40,273,572,5376
1644159037.088166,-0.009277,0.009583,-0.990417,0.190321,0.478168,0.036947,55,276,576,5344
1644159037.130722,-0.008179,0.011597,-0.991699,0.434595,0.356031,-0.14626,53,271,583,5408
1644159037.180099,-0.010376,0.006958,-0.991455,0.312458,0.432366,-0.237863,42,270,575,5312
1644159037.230073,-0.010986,0.011292,-0.989685,0.342992,0.386565,-0.008855,48,266,578,5408
1644159037.280344,-0.008301,0.01123,-0.992065,0.251389,0.432366,-0.024122,45,275,579,5408
1644159037.325504,-0.010803,0.010925,-0.988892,0.327725,0.325496,-0.176794,57,270,577,5344
1644159037.421076,-0.011902,0.010132,-0.994263,0.297191,0.386565,-0.054656,45,273,579,5408
1644159037.469457,-0.01239,0.006531,-0.992065,0.144519,0.340763,-0.25313,52,280,568,5456
1644159037.517844,-0.011902,0.01062,-0.992676,0.251389,0.401832,-0.008855,49,277,577,5344
1644159037.566232,-0.010132,0.010254,-0.991943,0.220855,0.386565,-0.115725,59,275,572,5344
1644159037.614643,-0.010742,0.010193,-0.992737,0.144519,0.478168,-0.069924,51,269,576,5408
1644159037.663029,-0.009583,0.012512,-0.992065,0.266656,0.401832,-0.024122,65,276,576,5376
1644159037.711416,-0.006775,0.00946,-0.991821,0.159786,0.523969,-0.054656,54,265,572,5344
1644159037.759772,-0.011292,0.009644,-0.990356,0.129252,0.432366,-0.14626,54,282,570,5424
1644159037.808247,-0.011841,0.008179,-0.992065,0.113985,0.585038,-0.085191,53,269,573,5312
1644159037.856627,-0.011475,0.010986,-0.992859,0.052916,0.462901,-0.14626,46,274,573,5424
1644159037.905153,-0.013489,0.008545,-0.993164,0.251389,0.294962,-0.039389,48,276,566,5408
1644159037.953408,-0.011047,0.007202,-0.993896,0.220855,0.417099,0.006412,49,277,577,5408
1644159038.001793,-0.010681,0.011108,-0.990417,0.327725,0.356031,-0.161527,46,279,580,5344
1644159038.057954,-0.009338,0.010193,-0.995972,0.236122,0.447634,-0.14626,51,274,576,5424
1644159038.098504,-0.009644,0.00885,-0.990967,0.159786,0.371298,-0.039389,58,281,583,5344
1644159038.147076,-0.010315,0.012024,-0.993103,0.236122,0.279695,-0.054656,45,273,584,5344
1644159038.196615,-0.010315,0.007385,-0.992249,0.144519,0.401832,-0.14626,55,283,576,5344
1644159038.246836,-0.009583,0.010437,-0.993896,0.175053,0.417099,0.036947,58,269,578,5344
1644159038.297062,-0.010315,0.00824,-0.992554,0.251389,0.386565,0.006412,61,277,582,5360
1644159038.38885,-0.007263,0.007751,-0.991333,0.175053,0.432366,-0.176794,52,285,558,5344
1644159038.437231,-0.007874,0.00946,-0.993408,0.190321,0.508702,-0.115725,46,274,580,5376
1644159038.485614,-0.009338,0.009705,-0.991272,0.159786,0.279695,-0.115725,62,266,580,5360
1644159038.534029,-0.012207,0.009644,-0.989685,0.236122,0.462901,0.052214,53,276,569,5360
1644159038.582423,-0.009766,0.009705,-0.989929,0.297191,0.371298,-0.161527,53,274,576,5344
1644159038.630787,-0.010986,0.009155,-0.991821,0.236122,0.462901,-0.192061,52,268,572,5344
1644159038.679181,-0.010925,0.009399,-0.992371,0.297191,0.462901,-0.054656,52,268,575,5360
1644159038.727582,-0.011475,0.009827,-0.992859,0.205588,0.432366,-0.069924,45,277,572,5456
1644159038.775972,-0.011108,0.011719,-0.99176,0.175053,0.371298,-0.130992,45,265,577,5424
1644159038.824391,-0.012878,0.00769,-0.994141,0.251389,0.493435,0.006412,46,279,576,5360
1644159038.872818,-0.011169,0.011292,-0.991394,0.297191,0.371298,-0.130992,49,265,568,5344
1644159038.92118,-0.01178,0.010071,-0.992737,0.159786,0.493435,-0.085191,54,280,572,5360
1644159038.969576,-0.009644,0.010559,-0.989807,0.190321,0.356031,-0.054656,47,270,577,5312
1644159039.017978,-0.010376,0.009766,-0.990784,0.251389,0.478168,-0.085191,42,275,577,5344
1644159039.075003,-0.009277,0.008118,-0.99176,0.175053,0.371298,-0.115725,36,269,569,5360
1644159039.114704,-0.007507,0.009705,-0.993347,0.327725,0.294962,-0.237863,51,274,578,5296
1644159039.163095,-0.011353,0.008728,-0.990662,0.342992,0.478168,-0.100458,55,262,576,5312
1644159039.211472,-0.011475,0.008179,-0.991028,0.190321,0.432366,-0.115725,48,269,569,5344
1644159039.260067,-0.010864,0.01062,-0.989929,0.35826,0.462901,-0.069924,54,273,579,5344
1644159039.309706,-0.011108,0.009399,-0.991638,0.373527,0.462901,-0.192061,55,271,583,5360
1644159039.359822,-0.012085,0.009155,-0.990662,0.220855,0.447634,-0.054656,62,274,569,5408
1644159039.41,-0.012695,0.008606,-0.990479,0.205588,0.340763,-0.039389,53,283,573,5344
1644159039.501844,-0.009705,0.009827,-0.992004,0.342992,0.310229,-0.039389,47,268,575,5360
1644159039.550191,-0.006409,0.009521,-0.989136,0.281924,0.386565,-0.024122,45,270,572,5456
1644159039.598589,-0.010925,0.007935,-0.992004,0.35826,0.310229,-0.207328,40,277,570,5360
1644159039.646967,-0.011414,0.006653,-0.993225,0.113985,0.523969,-0.176794,52,275,582,5280
1644159039.695364,-0.007202,0.007812,-0.990784,0.236122,0.478168,-0.192061,48,271,576,5312
1644159039.743762,-0.009155,0.009033,-0.989502,0.35826,0.417099,-0.039389,57,273,568,5344
1644159039.792167,-0.008728,0.008484,-0.992004,0.220855,0.462901,0.036947,51,286,580,5424
1644159039.840583,-0.00708,0.008545,-0.989258,0.175053,0.417099,-0.192061,47,270,570,5296
1644159039.888975,-0.012146,0.01123,-0.992004,0.251389,0.462901,-0.237863,47,280,572,5408
1644159039.937362,-0.012939,0.01001,-0.991577,0.297191,0.432366,-0.100458,43,269,583,5408
1644159039.985756,-0.012451,0.01123,-0.992737,0.129252,0.356031,0.036947,53,274,569,5296
1644159040.044235,-0.009644,0.00769,-0.992249,0.236122,0.340763,-0.14626,54,277,582,5424
1644159040.085472,-0.008118,0.011292,-0.991028,0.129252,0.447634,-0.268397,54,273,570,5408
1644159040.130877,-0.012512,0.011108,-0.991699,0.404061,0.493435,-0.283664,57,280,572,5360
1644159040.179231,-0.01123,0.01062,-0.99292,0.251389,0.340763,-0.085191,49,280,584,5408
1644159040.227653,-0.010071,0.011536,-0.993835,0.220855,0.493435,-0.054656,57,275,570,5344
1644159040.276011,-0.009338,0.009583,-0.992676,0.373527,0.432366,-0.14626,49,280,561,5408
1644159040.325003,-0.009766,0.010315,-0.99054,0.251389,0.417099,-0.069924,48,264,580,5424
1644159040.375404,-0.009888,0.01178,-0.995361,0.205588,0.539237,-0.14626,61,270,584,5360
1644159040.425581,-0.010742,0.008972,-0.990845,0.220855,0.569771,-0.100458,51,276,576,5296
1644159040.470597,-0.009155,0.010071,-0.992737,0.159786,0.386565,-0.069924,58,271,576,5376
1644159040.566347,-0.011475,0.010315,-0.99231,0.312458,0.554504,-0.100458,61,277,570,5344
1644159040.61486,-0.009094,0.009583,-0.990845,0.190321,0.386565,-0.039389,45,275,572,5424
1644159040.663157,-0.012451,0.011536,-0.990601,0.236122,0.386565,-0.039389,57,277,570,5344
1644159040.711517,-0.007935,0.009521,-0.990906,0.251389,0.386565,-0.100458,53,279,564,5344
1644159040.759922,-0.01001,0.007446,-0.99231,0.297191,0.401832,-0.207328,38,277,579,5344
1644159040.808321,-0.011719,0.009277,-0.991577,0.373527,0.447634,-0.069924,52,263,584,5360
1644159040.856752,-0.007751,0.012878,-0.991089,0.205588,0.462901,-0.039389,48,271,569,5296
1644159040.905181,-0.010071,0.01178,-0.990784,0.266656,0.294962,-0.237863,48,276,566,5296
1644159040.953539,-0.011108,0.006897,-0.991821,0.144519,0.294962,-0.085191,58,281,571,5376
1644159041.001913,-0.010437,0.009155,-0.990784,0.113985,0.508702,-0.085191,51,271,571,5424
1644159041.053189,-0.010193,0.010864,-0.98938,0.297191,0.462901,-0.176794,45,287,572,5344
1644159041.098691,-0.00824,0.010071,-0.991882,0.220855,0.356031,-0.100458,46,274,571,5424
1644159041.147053,-0.009766,0.008179,-0.99176,0.388794,0.401832,-0.161527,46,274,576,5360
1644159041.195431,-0.013428,0.00824,-0.990723,0.312458,0.340763,0.021679,52,270,575,5360
1644159041.243826,-0.009766,0.007019,-0.992065,0.236122,0.569771,-0.115725,48,271,578,5424
1644159041.292234,-0.010559,0.009888,-0.991516,0.251389,0.371298,-0.176794,47,270,584,5456
1644159041.340604,-0.010437,0.007263,-0.991089,0.312458,0.447634,-0.054656,54,270,572,5248
1644159041.389278,-0.008545,0.01239,-0.989685,0.236122,0.325496,-0.130992,59,268,565,5312
1644159041.437474,-0.007568,0.006836,-0.991028,0.342992,0.401832,-0.039389,49,275,572,5360
1644159041.487939,-0.009949,0.00946,-0.994263,0.297191,0.401832,-0.039389,54,275,568,5344
1644159041.538068,-0.010742,0.009277,-0.990601,0.159786,0.539237,-0.115725,49,270,568,5360
1644159041.583185,-0.011047,0.008057,-0.993042,0.281924,0.340763,0.021679,47,280,570,5376
1644159041.679313,-0.011353,0.007874,-0.992676,0.281924,0.340763,-0.008855,57,273,572,5360
1644159041.7277,-0.010498,0.009216,-0.990356,0.251389,0.462901,-0.039389,51,274,578,5360
1644159041.776086,-0.010132,0.010071,-0.995544,0.175053,0.462901,-0.054656,47,270,579,5408
1644159041.824499,-0.012756,0.009033,-0.992126,0.205588,0.432366,-0.008855,55,269,562,5360
1644159041.872942,-0.009094,0.010864,-0.992188,0.205588,0.447634,-0.069924,53,274,571,5376
1644159041.921328,-0.011292,0.011292,-0.991516,0.327725,0.325496,-0.130992,46,281,576,5456
1644159041.969702,-0.012634,0.009399,-0.992188,0.297191,0.294962,-0.161527,52,277,577,5344
1644159042.018088,-0.011841,0.008118,-0.989563,0.205588,0.279695,-0.100458,49,268,582,5360
1644159042.072348,-0.010864,0.007629,-0.98877,0.159786,0.279695,-0.085191,45,270,575,5312
1644159042.114869,-0.008911,0.009277,-0.990234,0.266656,0.325496,0.12855,59,268,568,5376
1644159042.163217,-0.009399,0.009888,-0.993164,0.144519,0.417099,-0.085191,48,276,566,5344
1644159042.211619,-0.008972,0.011536,-0.990906,0.220855,0.508702,-0.054656,52,280,572,5360
1644159042.259981,-0.010437,0.009521,-0.991577,0.266656,0.462901,-0.176794,52,273,568,5344
1644159042.308393,-0.011292,0.01123,-0.98999,0.297191,0.401832,-0.130992,46,279,569,5360
1644159042.356786,-0.00946,0.007935,-0.989929,0.220855,0.401832,-0.207328,51,274,564,5424
1644159042.405166,-0.013306,0.00708,-0.991211,0.159786,0.279695,-0.100458,58,274,576,5344
1644159042.45356,-0.008118,0.012146,-0.99054,0.312458,0.401832,0.006412,52,277,582,5424
1644159042.501911,-0.012573,0.01062,-0.992493,0.388794,0.447634,-0.024122,47,270,579,5344
1644159042.550551,-0.011047,0.008545,-0.993713,0.312458,0.371298,-0.039389,46,271,576,5344
1644159042.598941,-0.01123,0.010193,-0.989624,0.281924,0.493435,-0.039389,47,277,582,5296
1644159042.64942,-0.009094,0.007568,-0.990112,0.159786,0.432366,-0.176794,54,273,575,5360
1644159042.699551,-0.009521,0.011292,-0.992249,0.037649,0.432366,-0.161527,61,273,582,5376
1644159042.744699,-0.009338,0.008972,-0.99176,0.312458,0.462901,-0.314198,35,273,582,5376
1644159042.840655,-0.011475,0.008118,-0.992126,0.236122,0.493435,-0.039389,55,283,583,5424
1644159042.889099,-0.011292,0.009033,-0.990417,0.342992,0.386565,-0.085191,42,275,572,5408
1644159042.937489,-0.012512,0.010864,-0.990967,0.35826,0.356031,-0.130992,45,273,577,5424
1644159042.985861,-0.010986,0.012451,-0.987732,0.220855,0.462901,-0.039389,47,273,570,5424
1644159043.034269,-0.011169,0.010437,-0.992615,0.159786,0.539237,-0.069924,41,276,580,5360
1644159043.082844,-0.010254,0.007507,-0.990662,0.190321,0.417099,-0.161527,55,271,576,5424
1644159043.131054,-0.012146,0.011963,-0.993103,0.388794,0.417099,-0.161527,41,269,583,5360
1644159043.1794,-0.007324,0.013794,-0.993042,0.251389,0.340763,-0.115725,52,273,577,5296
1644159043.227787,-0.00824,0.010925,-0.990845,0.266656,0.401832,-0.130992,42,268,584,5360
1644159043.276153,-0.009521,0.010681,-0.991394,0.251389,0.523969,-0.085191,54,273,579,5344
1644159043.324691,-0.007141,0.01062,-0.991577,0.342992,0.386565,-0.14626,59,277,584,5376
1644159043.372967,-0.012512,0.01001,-0.991455,0.190321,0.447634,-0.024122,58,276,571,5344
1644159043.42135,-0.009399,0.013062,-0.98761,0.113985,0.24916,-0.298931,47,282,575,5344
1644159043.469737,-0.008484,0.012329,-0.993347,0.236122,0.447634,-0.008855,43,274,576,5344
1644159043.518115,-0.007141,0.011475,-0.991028,0.251389,0.325496,0.021679,52,285,572,5360
1644159043.566513,-0.012085,0.009338,-0.991638,0.327725,0.294962,-0.207328,42,275,575,5344
1644159043.615143,-0.011475,0.008728,-0.993347,0.342992,0.417099,-0.14626,48,279,583,5312
1644159043.663813,-0.007996,0.009216,-0.993408,0.190321,0.310229,-0.161527,52,280,579,5424
1644159043.714357,-0.010864,0.008118,-0.992615,0.220855,0.218626,-0.085191,52,277,582,5296
1644159043.764491,-0.009583,0.011292,-0.992615,0.602534,0.325496,-0.222595,51,271,576,5296
1644159043.809541,-0.009399,0.007996,-0.991638,0.098718,0.432366,-0.100458,51,276,580,5312
1644159043.905448,-0.007019,0.010498,-0.991577,0.159786,0.356031,-0.069924,60,279,571,5424
1644159043.953671,-0.010254,0.00824,-0.993896,0.312458,0.508702,-0.054656,54,270,577,5456
1644159044.002037,-0.008606,0.010437,-0.989014,0.327725,0.432366,-0.14626,60,279,571,5360
1644159044.056942,-0.006592,0.011963,-0.989014,0.266656,0.447634,-0.14626,55,274,585,5344
1644159044.098819,-0.010986,0.010193,-0.991699,0.175053,0.447634,-0.100458,54,285,584,5376
1644159044.147218,-0.009155,0.009705,-0.991211,0.236122,0.401832,-0.192061,54,275,575,5360
1644159044.195605,-0.01001,0.007935,-0.992004,0.266656,0.356031,0.006412,51,269,573,5408
1644159044.244008,-0.009216,0.010681,-0.993408,0.220855,0.417099,-0.115725,53,269,580,5424
1644159044.292362,-0.008972,0.008484,-0.99292,0.35826,0.539237,-0.085191,43,281,578,5376
1644159044.340777,-0.012634,0.011047,-0.991211,0.266656,0.386565,-0.192061,48,271,583,5408
1644159044.389161,-0.006775,0.011475,-0.987366,0.312458,0.432366,-0.222595,55,274,576,5408
1644159044.437556,-0.011536,0.009521,-0.990906,0.190321,0.371298,0.021679,51,269,564,5344
1644159044.485909,-0.010742,0.009949,-0.990601,0.281924,0.417099,-0.054656,58,274,573,5376
1644159044.534338,-0.006592,0.008301,-0.990662,0.022382,0.371298,-0.14626,47,277,565,5376
1644159044.582726,-0.008728,0.008606,-0.991882,0.297191,0.447634,-0.085191,48,279,580,5424
1644159044.631117,-0.008484,0.009033,-0.993164,0.236122,0.447634,-0.192061,51,271,578,5424
1644159044.679506,-0.010864,0.010742,-0.99115,0.113985,0.493435,-0.054656,41,274,573,5424
1644159044.727908,-0.011047,0.006104,-0.990417,0.297191,0.264427,-0.085191,52,265,579,5408
1644159044.776678,-0.012939,0.009216,-0.993103,0.175053,0.356031,-0.024122,62,266,587,5344
1644159044.826806,-0.00885,0.009705,-0.988586,0.266656,0.569771,-0.14626,60,266,580,5344
1644159044.877406,-0.009399,0.008789,-0.991333,0.342992,0.340763,-0.100458,53,279,573,5456
1644159044.927311,-0.010986,0.009827,-0.991516,0.175053,0.340763,-0.100458,58,276,569,5456
1644159045.018229,-0.008179,0.008972,-0.992981,0.205588,0.508702,-0.161527,52,280,572,5360
1644159045.067287,-0.013367,0.009399,-0.991394,0.297191,0.325496,-0.054656,51,271,573,5424
1644159045.115105,-0.011047,0.00946,-0.993103,0.220855,0.462901,-0.054656,43,276,573,5296
1644159045.163359,-0.012268,0.009094,-0.992065,0.404061,0.386565,-0.14626,54,260,579,5408
1644159045.211733,-0.009277,0.011963,-0.990906,0.220855,0.417099,-0.069924,51,271,578,5376
1644159045.26012,-0.010376,0.011169,-0.992432,0.129252,0.432366,-0.207328,57,270,575,5360
1644159045.308516,-0.012939,0.007751,-0.992737,0.236122,0.310229,-0.130992,52,280,579,5456
1644159045.356908,-0.009033,0.00946,-0.990601,0.236122,0.264427,-0.161527,41,266,576,5408
1644159045.405287,-0.012329,0.009705,-0.990479,0.312458,0.478168,-0.008855,47,277,577,5424
1644159045.453702,-0.013855,0.00946,-0.991211,0.327725,0.325496,-0.192061,59,277,572,5408
1644159045.50208,-0.010742,0.011841,-0.993591,0.266656,0.417099,-0.207328,59,285,572,5408
1644159045.550467,-0.007812,0.009155,-0.989807,0.35826,0.356031,-0.176794,52,280,589,5360
1644159045.598859,-0.010559,0.009766,-0.991211,0.052916,0.310229,-0.237863,47,273,579,5424
1644159045.647253,-0.009888,0.008911,-0.991028,0.266656,0.417099,0.006412,45,280,579,5344
1644159045.695642,-0.012024,0.006348,-0.991577,0.236122,0.371298,-0.130992,58,286,580,5424
1644159045.744015,-0.010132,0.005737,-0.994751,0.08345,0.371298,-0.008855,55,271,573,5360
1644159045.792483,-0.013733,0.010437,-0.993286,0.08345,0.371298,-0.054656,42,270,575,5456
1644159045.8409,-0.010376,0.008301,-0.9953,0.236122,0.417099,-0.039389,51,271,576,5344
1644159045.889221,-0.008667,0.010132,-0.991211,0.037649,0.279695,-0.207328,59,277,579,5376
1644159045.938813,-0.012146,0.010132,-0.991211,0.08345,0.386565,0.067481,52,273,584,5376
1644159045.98922,-0.010376,0.010681,-0.992188,0.08345,0.600305,-0.192061,53,269,578,5360
1644159046.084118,-0.009521,0.011108,-0.993286,0.159786,0.294962,-0.054656,53,266,580,5312
1644159046.131152,-0.009338,0.006653,-0.992065,0.373527,0.554504,-0.069924,54,268,575,5408
1644159046.179518,-0.012085,0.008667,-0.987976,0.251389,0.386565,-0.115725,52,282,582,5344
1644159046.227904,-0.012024,0.010437,-0.990051,0.297191,0.493435,-0.222595,54,273,579,5360
1644159046.276289,-0.012146,0.009827,-0.994019,0.129252,0.371298,0.021679,51,274,578,5360
1644159046.324698,-0.009094,0.012207,-0.993469,0.236122,0.401832,0.006412,59,275,575,5424
1644159046.373068,-0.009338,0.012024,-0.991699,0.236122,0.462901,-0.069924,52,277,575,5312
1644159046.421477,-0.01001,0.011169,-0.991577,0.190321,0.478168,-0.008855,51,269,578,5456
1644159046.469856,-0.007263,0.011108,-0.99115,0.388794,0.417099,-0.085191,52,277,579,5424
1644159046.518265,-0.010376,0.009155,-0.991943,0.220855,0.386565,-0.085191,41,271,576,5424
1644159046.56664,-0.011047,0.011536,-0.992798,0.220855,0.24916,-0.054656,57,275,579,5424
1644159046.615156,-0.010132,0.011169,-0.995972,0.251389,0.432366,-0.069924,54,270,575,5360
1644159046.663438,-0.010132,0.009644,-0.990479,0.205588,0.401832,0.052214,54,285,575,5344
1644159046.711811,-0.010498,0.006958,-0.99231,0.297191,0.371298,0.036947,47,270,570,5376
1644159046.760171,-0.012024,0.008362,-0.993774,0.236122,0.356031,-0.130992,60,279,576,5360
1644159046.808625,-0.010437,0.007996,-0.993347,0.220855,0.478168,-0.054656,48,274,587,5360
1644159046.857012,-0.011719,0.010376,-0.993896,0.113985,0.447634,-0.085191,47,265,582,5344
1644159046.905415,-0.011841,0.007812,-0.992615,0.312458,0.340763,-0.085191,49,280,577,5424
1644159046.954105,-0.010864,0.009949,-0.993774,0.388794,0.310229,0.067481,51,269,576,5360
1644159047.054089,-0.012512,0.007568,-0.99115,0.220855,0.401832,-0.161527,54,273,582,5424
1644159047.098949,-0.010803,0.009155,-0.989197,0.175053,0.447634,-0.039389,46,269,576,5280
1644159047.147319,-0.010681,0.011597,-0.992554,0.144519,0.401832,-0.115725,47,263,582,5376
1644159047.195691,-0.01239,0.009644,-0.993286,0.190321,0.417099,-0.130992,49,270,579,5344
1644159047.244095,-0.00946,0.009827,-0.991516,0.236122,0.218626,-0.130992,49,273,584,5344
1644159047.292507,-0.007446,0.009705,-0.993347,0.190321,0.401832,-0.14626,43,271,578,5376
1644159047.340868,-0.013123,0.007751,-0.991943,0.251389,0.371298,-0.176794,36,269,571,5376
1644159047.389255,-0.011169,0.007812,-0.992493,0.327725,0.432366,-0.069924,46,274,569,5360
1644159047.437638,-0.009644,0.00824,-0.989807,0.220855,0.523969,-0.008855,49,277,572,5344
1644159047.486029,-0.010193,0.009216,-0.993347,0.251389,0.478168,0.082748,47,268,575,5408
1644159047.534441,-0.00708,0.009277,-0.992432,0.159786,0.539237,-0.14626,48,281,576,5376
1644159047.582829,-0.007996,0.007812,-0.99115,0.251389,0.218626,0.067481,52,285,582,5360
1644159047.631202,-0.010315,0.008728,-0.993469,0.373527,0.294962,-0.192061,55,269,576,5312
1644159047.679597,-0.010498,0.006897,-0.993164,0.129252,0.493435,-0.054656,40,275,582,5344
1644159047.727983,-0.009949,0.011353,-0.991882,0.220855,0.432366,0.052214,52,275,575,5360
1644159047.776371,-0.009949,0.012329,-0.99176,0.144519,0.539237,-0.008855,54,270,577,5360
1644159047.824843,-0.012695,0.005371,-0.990173,0.220855,0.432366,-0.039389,46,286,578,5312
1644159047.874526,-0.009644,0.009216,-0.993774,0.297191,0.340763,-0.008855,45,282,582,5344
1644159047.924629,-0.012207,0.00885,-0.989929,0.312458,0.417099,-0.115725,41,274,585,5280
1644159047.974551,-0.010681,0.010681,-0.989868,0.205588,0.386565,-0.085191,46,274,569,5424
1644159048.019192,-0.011536,0.010803,-0.993347,0.220855,0.356031,-0.130992,57,270,577,5344
1644159048.115486,-0.010132,0.008911,-0.990112,0.144519,0.523969,0.052214,51,276,580,5408
1644159048.163507,-0.013,0.006775,-0.991211,0.297191,0.340763,-0.14626,51,274,569,5344
1644159048.21187,-0.010681,0.01001,-0.991821,0.312458,0.294962,-0.222595,51,283,576,5344
1644159048.260258,-0.01123,0.008606,-0.991516,0.281924,0.432366,0.006412,48,266,569,5344
1644159048.308651,-0.012573,0.00708,-0.991028,0.129252,0.264427,-0.176794,52,273,570,5344
1644159048.357041,-0.010986,0.008423,-0.992065,0.205588,0.279695,-0.069924,51,269,580,5408
1644159048.405425,-0.010315,0.007324,-0.994141,0.266656,0.386565,-0.314198,51,271,566,5376
1644159048.453838,-0.010254,0.010193,-0.993652,0.175053,0.356031,-0.115725,48,279,569,5344
1644159048.502215,-0.011719,0.00946,-0.991821,0.113985,0.325496,-0.039389,49,277,577,5408
1644159048.550606,-0.009155,0.009949,-0.99292,0.327725,0.478168,-0.25313,53,274,580,5360
1644159048.598993,-0.011841,0.010254,-0.990234,0.205588,0.386565,-0.222595,45,275,577,5376
1644159048.647379,-0.009705,0.011353,-0.990417,0.46513,0.401832,0.082748,52,292,575,5456
1644159048.695767,-0.011475,0.009766,-0.98999,0.144519,0.203359,-0.115725,45,280,575,5424
1644159048.744163,-0.00885,0.00708,-0.992065,0.129252,0.401832,-0.085191,51,276,580,5312
1644159048.792568,-0.011719,0.009399,-0.990479,0.342992,0.615573,-0.115725,54,277,577,5344
1644159048.840963,-0.01123,0.008057,-0.991455,0.175053,0.386565,-0.039389,55,266,587,5344
1644159048.889329,-0.007141,0.008789,-0.992371,0.175053,0.24916,-0.100458,53,274,578,5296
1644159048.937813,-0.011597,0.008118,-0.990234,0.236122,0.371298,-0.130992,60,279,583,5376
1644159048.986162,-0.010315,0.00824,-0.990295,0.08345,0.310229,0.052214,42,275,582,5424
1644159049.052538,-0.010864,0.009888,-0.99408,0.129252,0.508702,-0.14626,60,276,571,5344
1644159049.09425,-0.010864,0.009338,-0.992188,0.251389,0.539237,-0.115725,54,277,579,5360
1644159049.137364,-0.009338,0.009644,-0.992188,0.175053,0.24916,-0.130992,49,277,575,5344
1644159049.180786,-0.010864,0.01062,-0.992126,0.541466,0.569771,-0.100458,58,274,580,5344
1644159049.27644,-0.011414,0.008911,-0.990906,0.251389,0.523969,-0.069924,46,274,580,5296
1644159049.324857,-0.013672,0.00824,-0.992188,0.098718,0.233893,-0.024122,49,268,572,5360
1644159049.373584,-0.009827,0.010498,-0.99176,0.342992,0.356031,-0.069924,41,271,573,5360
1644159049.421598,-0.013062,0.012207,-0.991028,0.098718,0.569771,-0.176794,52,277,570,5360
1644159049.46998,-0.011597,0.011475,-0.99231,0.220855,0.432366,-0.100458,53,271,573,5360
1644159049.518356,-0.00946,0.009705,-0.991333,0.251389,0.356031,-0.192061,52,273,575,5344
1644159049.566773,-0.008972,0.00769,-0.992371,0.251389,0.386565,-0.130992,58,266,578,5408
1644159049.61519,-0.008606,0.010132,-0.992371,0.220855,0.447634,0.006412,45,273,575,5360
1644159049.663562,-0.011108,0.010376,-0.993225,0.266656,0.462901,0.021679,51,264,571,5360
1644159049.711952,-0.010254,0.007202,-0.990417,0.205588,0.493435,-0.085191,48,274,578,5456
1644159049.760335,-0.010681,0.008789,-0.99292,0.35826,0.523969,-0.008855,49,277,575,5360
1644159049.808717,-0.010925,0.00946,-0.992676,0.251389,0.417099,-0.176794,62,279,571,5376
1644159049.857132,-0.010742,0.00885,-0.991272,0.205588,0.508702,-0.069924,57,260,575,5344
1644159049.905532,-0.009094,0.010742,-0.993958,0.281924,0.569771,-0.130992,46,281,564,5376
1644159049.953928,-0.011597,0.01001,-0.993164,0.312458,0.478168,-0.069924,47,273,577,5456
1644159050.002295,-0.010925,0.006958,-0.993042,0.220855,0.310229,-0.085191,48,269,580,5376
1644159050.065076,-0.011841,0.011902,-0.993164,0.205588,0.325496,-0.161527,55,279,578,5296
1644159050.102841,-0.009094,0.010864,-0.990051,0.281924,0.462901,-0.14626,57,277,589,5360
1644159050.152052,-0.012573,0.008179,-0.991638,0.404061,0.523969,-0.14626,61,280,572,5424
1644159050.196122,-0.01178,0.010925,-0.99231,0.144519,0.508702,-0.100458,47,270,577,5424
1644159050.292609,-0.011108,0.008606,-0.993164,0.129252,0.340763,-0.14626,54,275,568,5376
1644159050.340989,-0.009827,0.010925,-0.992432,0.220855,0.447634,-0.14626,46,279,578,5376
1644159050.389384,-0.011353,0.007629,-0.993286,0.205588,0.340763,-0.085191,52,282,579,5424
1644159050.437776,-0.013794,0.007446,-0.993225,0.342992,0.462901,-0.130992,54,275,572,5376
1644159050.486151,-0.01178,0.009827,-0.991699,0.175053,0.325496,-0.100458,41,266,564,5424
1644159050.534599,-0.010071,0.008789,-0.990417,0.205588,0.523969,-0.100458,46,279,571,5408
1644159050.582956,-0.014709,0.012329,-0.992004,0.175053,0.462901,-0.024122,43,276,573,5296
1644159050.631351,-0.011414,0.008179,-0.990723,0.220855,0.401832,-0.161527,48,283,576,5376
1644159050.679733,-0.009766,0.009033,-0.990479,0.205588,0.417099,-0.237863,48,279,583,5344
1644159050.728119,-0.011292,0.008057,-0.99353,0.266656,0.294962,-0.115725,47,275,561,5376
1644159050.776485,-0.013367,0.008667,-0.993774,0.312458,0.508702,-0.039389,51,276,569,5360
1644159050.824904,-0.010498,0.007263,-0.993652,0.404061,0.539237,-0.237863,64,275,579,5360
1644159050.873337,-0.011292,0.009644,-0.992249,0.205588,0.401832,0.12855,48,274,573,5312
1644159050.921712,-0.011536,0.010498,-0.98999,0.144519,0.523969,-0.192061,54,273,575,5312
1644159050.970105,-0.010315,0.009644,-0.992126,0.236122,0.432366,-0.008855,55,286,578,5376
1644159051.018491,-0.008057,0.012878,-0.990051,0.312458,0.386565,-0.054656,53,269,585,5344
1644159051.071538,-0.006592,0.008484,-0.990845,0.175053,0.600305,-0.192061,47,270,582,5344
1644159051.115282,-0.008179,0.007812,-0.993958,0.236122,0.386565,-0.039389,52,273,589,5456
1644159051.164215,-0.009705,0.010254,-0.989441,0.297191,0.386565,-0.024122,54,273,570,5376
1644159051.214766,-0.009583,0.012756,-0.996521,0.312458,0.493435,-0.054656,43,266,571,5456
1644159051.264785,-0.010071,0.007996,-0.991882,0.312458,0.218626,-0.161527,52,273,577,5344
1644159051.309448,-0.011597,0.006836,-0.991943,0.205588,0.401832,-0.039389,47,263,572,5376
1644159051.405599,-0.011963,0.006714,-0.99231,0.297191,0.325496,-0.14626,53,271,583,5408
1644159051.453995,-0.007996,0.009338,-0.991028,0.266656,0.310229,-0.115725,52,285,572,5296
1644159051.502492,-0.011475,0.010071,-0.992432,0.373527,0.371298,-0.237863,53,262,571,5376
1644159051.550764,-0.010925,0.009033,-0.993896,0.327725,0.310229,-0.054656,51,269,580,5344
1644159051.599144,-0.007324,0.009094,-0.991272,0.205588,0.554504,0.006412,45,268,577,5376
1644159051.647542,-0.012268,0.007446,-0.993958,0.35826,0.386565,-0.069924,57,268,579,5376
1644159051.695937,-0.009827,0.008301,-0.99176,0.251389,0.478168,0.006412,47,268,577,5408
1644159051.744329,-0.012756,0.007812,-0.992676,0.312458,0.371298,-0.176794,48,266,573,5376
1644159051.792733,-0.00885,0.010925,-0.991089,0.205588,0.462901,-0.039389,46,274,569,5344
1644159051.841069,-0.009277,0.01062,-0.992126,0.220855,0.432366,0.006412,48,279,569,5344
1644159051.889513,-0.009888,0.014343,-0.992737,0.327725,0.356031,-0.069924,51,271,564,5376
1644159051.937875,-0.012756,0.01062,-0.989685,0.190321,0.432366,-0.024122,46,283,576,5408
1644159051.986272,-0.01178,0.010376,-0.992432,0.297191,0.294962,-0.130992,60,276,578,5376
1644159052.034663,-0.010742,0.00885,-0.994202,0.388794,0.569771,-0.054656,47,280,575,5312
1644159052.083155,-0.009705,0.010559,-0.992126,0.220855,0.386565,-0.176794,57,280,570,5344
1644159052.131429,-0.010437,0.008545,-0.99408,0.251389,0.493435,-0.222595,47,275,568,5344
1644159052.17984,-0.007812,0.009277,-0.993347,0.327725,0.432366,0.006412,54,273,565,5344
1644159052.228544,-0.012695,0.008606,-0.993164,0.022382,0.401832,-0.268397,42,277,582,5376
1644159052.276793,-0.009949,0.008667,-0.99646,0.419328,0.417099,-0.039389,52,275,579,5456
1644159052.326905,-0.010864,0.010376,-0.991333,0.205588,0.554504,-0.192061,45,273,577,5344
1644159052.377316,-0.009827,0.00946,-0.994568,0.175053,0.585038,-0.039389,58,281,573,5408
1644159052.427398,-0.013245,0.012146,-0.990112,0.159786,0.401832,0.021679,47,265,584,5376
1644159052.518558,-0.010132,0.01062,-0.99353,0.236122,0.554504,-0.085191,52,275,568,5344
1644159052.566938,-0.00824,0.011963,-0.992249,0.175053,0.386565,0.143817,49,275,577,5344
1644159052.615309,-0.010986,0.010376,-0.99176,0.266656,0.432366,-0.115725,51,276,571,5296
1644159052.663729,-0.009521,0.00946,-0.989502,0.236122,0.401832,-0.130992,52,277,582,5344
1644159052.712181,-0.012695,0.010803,-0.990906,0.175053,0.462901,-0.100458,52,263,570,5312
1644159052.760499,-0.010559,0.009521,-0.993042,0.236122,0.401832,-0.283664,53,274,578,5312
1644159052.808898,-0.010803,0.009399,-0.992371,0.281924,0.401832,-0.024122,45,268,568,5344
1644159052.857288,-0.010376,0.010376,-0.992615,0.220855,0.356031,-0.069924,52,280,565,5344
1644159052.905677,-0.009888,0.010681,-0.991699,0.08345,0.356031,-0.115725,45,273,579,5360
1644159052.954074,-0.007812,0.007874,-0.992065,0.144519,0.401832,-0.115725,57,277,579,5344
1644159053.002474,-0.010254,0.006836,-0.992432,0.159786,0.585038,-0.069924,42,270,582,5408
1644159053.061795,-0.011902,0.00769,-0.993774,0.220855,0.371298,-0.100458,53,279,573,5344
1644159053.099174,-0.009216,0.011047,-0.993835,0.281924,0.432366,-0.161527,57,273,586,5344
1644159053.1476,-0.010986,0.009399,-0.991333,0.175053,0.478168,-0.25313,55,274,580,5360
1644159053.1975,-0.012878,0.005798,-0.991272,0.190321,0.585038,-0.054656,47,280,582,5344
1644159053.247803,-0.009705,0.007446,-0.990723,0.342992,0.371298,-0.054656,58,276,585,5424
1644159053.298086,-0.01178,0.010315,-0.994507,0.175053,0.585038,-0.115725,46,274,578,5456
1644159053.389507,-0.008972,0.009399,-0.988037,0.281924,0.508702,-0.100458,42,277,575,5344
1644159053.437896,-0.007568,0.01001,-0.994324,0.312458,0.401832,-0.176794,52,275,579,5424
1644159053.486281,-0.012451,0.012329,-0.992554,0.35826,0.462901,-0.100458,43,269,571,5408
1644159053.534846,-0.008362,0.006042,-0.992615,0.342992,0.478168,-0.222595,45,275,568,5360
1644159053.583082,-0.014771,0.011963,-0.99292,0.220855,0.356031,-0.161527,41,271,585,5296
1644159053.631461,-0.013367,0.009216,-0.993469,0.175053,0.447634,-0.192061,60,281,573,5344
1644159053.67986,-0.011658,0.011169,-0.990845,0.159786,0.340763,-0.130992,53,271,576,5344
1644159053.72824,-0.012695,0.008179,-0.994263,0.281924,0.523969,-0.283664,45,277,575,5376
1644159053.776639,-0.009827,0.008484,-0.993835,0.281924,0.340763,-0.192061,57,275,575,5344
1644159053.825197,-0.010925,0.010071,-0.994446,0.175053,0.417099,-0.085191,49,275,582,5408
1644159053.873472,-0.011353,0.008057,-0.991272,0.266656,0.386565,-0.024122,46,276,566,5312
1644159053.921849,-0.009888,0.011902,-0.990784,0.266656,0.294962,-0.115725,43,271,566,5408
1644159053.970238,-0.009399,0.007935,-0.992432,0.175053,0.417099,-0.176794,46,274,576,5344
1644159054.018634,-0.00885,0.010071,-0.992798,0.312458,0.432366,-0.161527,53,274,571,5344
1644159054.071005,-0.01123,0.004944,-0.992859,0.129252,0.340763,-0.039389,43,281,573,5360
1644159054.11538,-0.012268,0.008057,-0.990601,0.297191,0.386565,-0.115725,43,276,573,5344
1644159054.163742,-0.011963,0.009644,-0.99231,0.251389,0.401832,-0.207328,55,271,576,5408
1644159054.21219,-0.009338,0.009033,-0.98999,0.327725,0.523969,-0.130992,51,274,564,5344
1644159054.262603,-0.009949,0.008423,-0.991516,0.251389,0.478168,-0.100458,48,266,576,5344
1644159054.313031,-0.011169,0.009094,-0.992004,0.113985,0.386565,-0.130992,48,276,578,5408
1644159054.358249,-0.010254,0.008057,-0.992737,0.281924,0.417099,-0.085191,47,277,575,5312
1644159054.454098,-0.010132,0.009094,-0.99176,0.35826,0.340763,-0.024122,45,277,572,5344
1644159054.502513,-0.010254,0.009583,-0.989807,0.251389,0.447634,-0.14626,46,276,569,5344
1644159054.550854,-0.012085,0.01062,-0.99054,0.266656,0.478168,-0.054656,55,259,580,5280
1644159054.599258,-0.010132,0.009277,-0.992004,0.007115,0.356031,-0.024122,52,268,577,5360
1644159054.647628,-0.010864,0.008667,-0.991028,0.236122,0.646107,-0.100458,49,273,577,5280
1644159054.696025,-0.010742,0.010376,-0.991882,0.342992,0.371298,-0.008855,54,268,586,5424
1644159054.744417,-0.010803,0.007324,-0.992859,0.281924,0.478168,-0.14626,47,265,575,5360
1644159054.79282,-0.01123,0.00647,-0.992554,0.281924,0.523969,-0.085191,53,279,573,5376
1644159054.841247,-0.011658,0.008606,-0.991272,0.297191,0.493435,-0.039389,48,283,573,5376
1644159054.889635,-0.013794,0.011597,-0.991272,0.251389,0.356031,-0.100458,51,276,580,5424
1644159054.938019,-0.01001,0.008057,-0.992126,0.175053,0.447634,-0.207328,54,277,577,5296
1644159054.986402,-0.010193,0.009827,-0.990295,0.327725,0.401832,-0.085191,58,286,580,5408
1644159055.044192,-0.009705,0.011658,-0.990906,0.236122,0.478168,-0.192061,49,277,579,5344
1644159055.085101,-0.011536,0.010681,-0.99353,0.312458,0.493435,-0.14626,51,265,582,5344
1644159055.131548,-0.009949,0.010986,-0.990601,0.205588,0.523969,-0.237863,51,269,578,5360
1644159055.179913,-0.009094,0.006287,-0.990662,0.266656,0.539237,-0.039389,55,279,576,5360
1644159055.228306,-0.010681,0.011902,-0.991821,0.205588,0.203359,-0.14626,48,271,573,5360
1644159055.276695,-0.010986,0.008972,-0.989746,0.159786,0.447634,-0.024122,53,283,569,5344
1644159055.325127,-0.010681,0.00946,-0.992126,0.312458,0.340763,-0.100458,49,277,579,5312
1644159055.373526,-0.011108,0.007996,-0.993408,0.312458,0.386565,-0.069924,55,283,571,5344
1644159055.425042,-0.012634,0.010803,-0.994263,0.08345,0.493435,-0.008855,49,268,570,5408
1644159055.474066,-0.012268,0.010681,-0.994019,0.144519,0.218626,-0.161527,45,277,575,5376
1644159055.51918,-0.011719,0.009216,-0.99292,0.251389,0.539237,-0.069924,59,280,575,5344
1644159055.615504,-0.010498,0.007202,-0.993042,0.175053,0.462901,-0.176794,58,266,580,5376
1644159055.663814,-0.011108,0.009949,-0.99054,0.113985,0.676641,-0.008855,47,277,577,5344
1644159055.712381,-0.009094,0.008606,-0.990967,0.190321,0.294962,-0.054656,49,273,570,5312
1644159055.76058,-0.01062,0.01062,-0.991577,0.266656,0.554504,-0.054656,53,269,571,5376
1644159055.808992,-0.013123,0.009338,-0.99231,0.159786,0.432366,-0.176794,52,280,579,5312
1644159055.85742,-0.012268,0.007629,-0.993958,0.266656,0.356031,0.006412,46,279,571,5456
1644159055.905806,-0.013306,0.010803,-0.994263,0.449863,0.340763,-0.085191,40,268,575,5408
1644159055.954195,-0.01001,0.00885,-0.990173,0.251389,0.340763,-0.14626,51,269,566,5376
1644159056.00257,-0.011658,0.008972,-0.990906,0.113985,0.432366,-0.192061,47,277,565,5376
1644159056.05508,-0.013428,0.009216,-0.993164,0.251389,0.417099,0.067481,42,277,586,5424
1644159056.099345,-0.010681,0.009094,-0.991211,0.205588,0.462901,-0.008855,54,280,570,5424
1644159056.147709,-0.010925,0.01123,-0.992249,0.281924,0.432366,-0.039389,52,280,572,5408
1644159056.196092,-0.010864,0.01178,-0.990601,0.220855,0.478168,-0.176794,61,275,586,5280
1644159056.244505,-0.010193,0.01062,-0.996521,0.190321,0.417099,-0.130992,45,268,577,5360
1644159056.292886,-0.009888,0.010681,-0.990295,0.342992,0.432366,-0.024122,47,277,575,5344
1644159056.341265,-0.011108,0.009888,-0.992676,0.297191,0.523969,0.036947,43,266,580,5376
1644159056.389632,-0.010742,0.009338,-0.992676,0.236122,0.417099,0.036947,49,275,582,5376
1644159056.438043,-0.010803,0.006531,-0.991943,0.175053,0.462901,-0.161527,51,266,569,5360
1644159056.486427,-0.013123,0.008118,-0.98938,0.35826,0.417099,-0.176794,49,270,570,5360
1644159056.535577,-0.010315,0.011047,-0.991638,0.159786,0.417099,-0.085191,54,270,577,5344
1644159056.586491,-0.01178,0.009033,-0.98822,0.281924,0.493435,-0.192061,51,274,576,5424
1644159056.636169,-0.011841,0.009888,-0.993042,0.236122,0.478168,-0.024122,49,277,568,5344
1644159056.681162,-0.009338,0.006775,-0.990479,0.144519,0.401832,-0.008855,48,271,571,5360
1644159056.776767,-0.01062,0.009399,-0.991333,0.373527,0.539237,-0.100458,48,274,585,5376
1644159056.825363,-0.009705,0.008484,-0.99115,0.281924,0.600305,-0.14626,52,273,575,5424
1644159056.873603,-0.011963,0.007935,-0.991028,0.266656,0.310229,-0.130992,52,273,579,5456
1644159056.921991,-0.009644,0.011475,-0.990845,0.175053,0.447634,-0.25313,47,277,582,5344
1644159056.970366,-0.011414,0.010559,-0.992493,0.220855,0.432366,-0.039389,51,279,564,5344
1644159057.018769,-0.013489,0.01001,-0.989685,0.175053,0.569771,-0.069924,52,275,584,5376
1644159057.068563,-0.009949,0.008606,-0.994019,0.190321,0.432366,-0.161527,54,277,584,5344
1644159057.115524,-0.01123,0.008057,-0.990112,0.220855,0.478168,-0.115725,55,279,573,5344
1644159057.163887,-0.007935,0.009155,-0.992065,0.342992,0.371298,-0.085191,49,275,572,5408
1644159057.212287,-0.010864,0.009766,-0.991394,0.251389,0.447634,0.021679,58,276,587,5344
1644159057.260664,-0.011963,0.009094,-0.992249,0.281924,0.478168,-0.085191,53,269,576,5344
1644159057.309052,-0.010803,0.010193,-0.991394,0.297191,0.447634,-0.176794,42,273,579,5376
1644159057.35746,-0.009155,0.008301,-0.991882,0.190321,0.432366,-0.192061,52,273,579,5344
1644159057.405824,-0.010071,0.008606,-0.991089,0.236122,0.462901,-0.100458,48,276,578,5360
1644159057.454223,-0.011047,0.009155,-0.993591,0.175053,0.371298,-0.085191,52,280,577,5408
1644159057.502591,-0.012817,0.008972,-0.992676,0.297191,0.279695,-0.024122,48,274,580,5424
1644159057.551,-0.013855,0.008972,-0.991638,0.281924,0.417099,-0.192061,53,276,578,5408
1644159057.599384,-0.011536,0.009644,-0.994934,0.220855,0.539237,0.021679,51,274,573,5344
1644159057.647772,-0.011963,0.008362,-0.990845,0.434595,0.401832,-0.054656,45,277,579,5344
1644159057.696193,-0.009705,0.009705,-0.993286,0.297191,0.386565,-0.100458,47,270,570,5376
1644159057.746427,-0.008728,0.009094,-0.991028,0.251389,0.356031,-0.069924,46,271,583,5344
1644159057.796784,-0.009766,0.008789,-0.991028,0.220855,0.310229,-0.237863,55,271,573,5312
1644159057.841836,-0.014099,0.010681,-0.992493,0.236122,0.356031,-0.115725,48,266,576,5344
1644159057.938141,-0.010681,0.010803,-0.989868,0.220855,0.432366,-0.115725,45,270,584,5344
1644159057.986529,-0.01178,0.009888,-0.993042,0.251389,0.401832,-0.161527,53,264,562,5344
1644159058.034975,-0.010559,0.008911,-0.993286,0.129252,0.462901,-0.130992,35,275,579,5344
1644159058.083735,-0.009766,0.008789,-0.992554,0.251389,0.432366,-0.008855,54,268,582,5424
1644159058.131681,-0.011292,0.008362,-0.991211,0.281924,0.447634,-0.054656,45,277,589,5296
1644159058.180064,-0.010681,0.008545,-0.991821,0.266656,0.462901,0.036947,39,279,580,5344
1644159058.228462,-0.009521,0.008728,-0.989441,0.297191,0.432366,-0.14626,54,270,577,5376
1644159058.276816,-0.012939,0.008606,-0.992798,0.037649,0.493435,-0.14626,54,275,584,5424
1644159058.325299,-0.007263,0.00769,-0.988831,0.281924,0.325496,-0.283664,49,280,572,5376
1644159058.373625,-0.013062,0.007935,-0.990051,0.220855,0.493435,-0.115725,45,280,577,5296
1644159058.422001,-0.011536,0.008545,-0.991272,0.297191,0.508702,0.036947,61,277,572,5344
1644159058.470394,-0.010986,0.007324,-0.99231,0.342992,0.478168,-0.100458,55,281,576,5344
1644159058.51878,-0.00946,0.010132,-0.991394,0.251389,0.401832,-0.161527,48,266,571,5376
1644159058.567164,-0.01123,0.009094,-0.99176,0.404061,0.432366,0.021679,46,274,576,5344
1644159058.615562,-0.011169,0.008789,-0.991272,0.037649,0.447634,-0.161527,55,274,583,5344
1644159058.664271,-0.01239,0.008667,-0.99408,0.236122,0.478168,-0.100458,52,268,570,5424
1644159058.713616,-0.010071,0.009399,-0.992493,0.404061,0.554504,-0.054656,57,282,577,5360
1644159058.763846,-0.009277,0.010315,-0.990662,0.113985,0.447634,-0.14626,46,283,573,5360
1644159058.81415,-0.011841,0.012451,-0.992188,0.159786,0.340763,-0.14626,49,273,568,5360
1644159058.905928,-0.01062,0.006958,-0.990723,0.220855,0.493435,-0.14626,53,274,578,5376
1644159058.954341,-0.010742,0.011719,-0.991211,0.236122,0.371298,0.036947,46,264,571,5408
1644159059.002714,-0.009521,0.008484,-0.991882,0.144519,0.401832,-0.100458,59,263,572,5344
1644159059.05154,-0.011292,0.00769,-0.993896,0.419328,0.432366,-0.100458,48,279,587,5360
1644159059.099458,-0.008118,0.008728,-0.992126,0.159786,0.508702,-0.222595,47,265,572,5376
1644159059.14787,-0.010254,0.01001,-0.990784,0.281924,0.554504,-0.130992,48,271,585,5424
1644159059.196267,-0.014465,0.010254,-0.991638,0.159786,0.325496,-0.024122,47,275,563,5376
1644159059.244712,-0.010864,0.007385,-0.992188,0.388794,0.325496,-0.115725,52,277,579,5344
1644159059.293066,-0.006287,0.009644,-0.990784,0.175053,0.508702,-0.008855,49,277,568,5344
1644159059.341449,-0.011414,0.008728,-0.990845,0.297191,0.432366,-0.207328,45,277,572,5344
1644159059.389827,-0.009644,0.007019,-0.993713,0.205588,0.340763,-0.054656,53,276,580,5296
1644159059.438222,-0.010803,0.008057,-0.99408,0.175053,0.569771,-0.008855,51,266,585,5312
1644159059.486598,-0.010376,0.006775,-0.994141,0.251389,0.325496,-0.14626,60,276,571,5376
1644159059.535052,-0.011169,0.005676,-0.992126,0.144519,0.401832,-0.039389,43,266,580,5408
1644159059.583386,-0.015076,0.009521,-0.993958,0.144519,0.462901,0.021679,55,266,573,5408
1644159059.631783,-0.007996,0.008545,-0.990845,0.236122,0.508702,-0.25313,54,275,582,5424
1644159059.680161,-0.007996,0.009399,-0.990662,0.388794,0.417099,-0.192061,53,276,580,5424
1644159059.728636,-0.010925,0.011719,-0.990967,0.312458,0.462901,-0.192061,52,275,575,5344
1644159059.777219,-0.009277,0.008545,-0.989929,0.327725,0.462901,-0.024122,47,273,586,5424
1644159059.827514,-0.010254,0.009583,-0.993958,0.35826,0.264427,-0.176794,54,268,568,5376
1644159059.877822,-0.010742,0.01001,-0.99115,0.236122,0.325496,-0.130992,51,276,578,5456
1644159059.922205,-0.008606,0.008972,-0.991943,0.281924,0.447634,0.036947,57,263,575,5312
1644159060.018879,-0.009827,0.010925,-0.992798,0.175053,0.371298,-0.329466,51,271,569,5344
1644159060.067488,-0.008362,0.012207,-0.990356,0.205588,0.508702,-0.14626,45,270,577,5312
1644159060.115633,-0.010742,0.013123,-0.993347,0.190321,0.401832,-0.130992,52,275,572,5360
1644159060.16402,-0.009094,0.007996,-0.99176,0.312458,0.508702,-0.115725,51,276,573,5360
1644159060.212437,-0.012939,0.009155,-0.993469,0.281924,0.310229,-0.100458,48,281,576,5408
1644159060.26078,-0.01239,0.008179,-0.990784,0.175053,0.401832,-0.069924,52,273,572,5360
1644159060.309167,-0.012146,0.010559,-0.989685,0.251389,0.340763,-0.130992,49,265,563,5360
1644159060.357588,-0.011047,0.011047,-0.990845,0.281924,0.432366,-0.008855,52,277,577,5408
1644159060.405965,-0.007629,0.007996,-0.991516,0.266656,0.432366,-0.039389,43,271,576,5344
1644159060.454342,-0.00946,0.008728,-0.99292,0.175053,0.356031,-0.085191,45,273,577,5296
1644159060.50276,-0.011719,0.007507,-0.990417,0.266656,0.447634,-0.115725,57,280,582,5376
1644159060.551134,-0.010864,0.009094,-0.993469,0.266656,0.325496,-0.222595,46,266,578,5360
1644159060.59951,-0.009338,0.009766,-0.989868,0.266656,0.432366,-0.085191,52,273,577,5424
1644159060.647918,-0.011169,0.009399,-0.990967,0.434595,0.417099,-0.130992,42,275,579,5344
1644159060.696297,-0.010437,0.011047,-0.989807,0.205588,0.508702,-0.130992,58,276,571,5344
1644159060.74471,-0.014282,0.010437,-0.992371,0.236122,0.401832,-0.008855,46,264,578,5312
1644159060.793148,-0.011536,0.008423,-0.991821,0.312458,0.233893,-0.069924,51,274,578,5344
1644159060.841518,-0.011658,0.010071,-0.992859,0.327725,0.554504,-0.130992,46,264,573,5424
1644159060.889906,-0.010803,0.011719,-0.992432,0.144519,0.447634,0.021679,51,271,571,5344
1644159060.939191,-0.009155,0.008728,-0.98938,0.251389,0.493435,0.052214,49,273,572,5376
1644159060.989478,-0.009766,0.009338,-0.992432,0.251389,0.325496,-0.130992,53,274,576,5424
1644159061.055046,-0.00946,0.007263,-0.991272,0.266656,0.478168,-0.039389,59,275,582,5424
1644159061.085094,-0.011536,0.009888,-0.992859,0.175053,0.493435,-0.14626,64,277,575,5360
1644159061.180187,-0.012695,0.008362,-0.995605,0.342992,0.371298,-0.085191,46,279,564,5312
1644159061.228562,-0.011414,0.00946,-0.991821,0.113985,0.417099,-0.176794,49,277,572,5360
1644159061.27695,-0.011597,0.008301,-0.992981,0.236122,0.462901,0.006412,47,270,577,5456
1644159061.325378,-0.01001,0.01123,-0.99292,0.388794,0.554504,-0.069924,48,271,578,5408
1644159061.373755,-0.01178,0.011536,-0.992737,0.419328,0.447634,-0.100458,45,270,575,5360
1644159061.422178,-0.010925,0.006775,-0.992188,0.159786,0.401832,0.067481,48,276,571,5344
1644159061.470518,-0.007812,0.007568,-0.991577,0.144519,0.554504,-0.115725,51,279,573,5312
1644159061.518907,-0.010315,0.009644,-0.993164,0.373527,0.539237,-0.207328,47,273,570,5360
1644159061.567306,-0.013245,0.007629,-0.993774,0.297191,0.310229,-0.069924,47,270,577,5408
1644159061.615702,-0.011963,0.010132,-0.991638,0.220855,0.432366,-0.176794,54,265,572,5344
1644159061.664094,-0.013611,0.01001,-0.991455,0.35826,0.462901,-0.069924,58,291,573,5376
1644159061.712466,-0.012573,0.009644,-0.991699,0.205588,0.478168,-0.008855,52,282,584,5376
1644159061.760843,-0.011597,0.011047,-0.989807,0.266656,0.569771,-0.085191,49,270,563,5360
1644159061.809298,-0.01001,0.00885,-0.991272,0.281924,0.508702,-0.100458,60,276,578,5424
1644159061.857686,-0.009277,0.008728,-0.991638,0.251389,0.462901,-0.130992,51,271,583,5344
1644159061.906073,-0.008179,0.009338,-0.993713,0.342992,0.417099,-0.314198,49,285,577,5344
1644159061.954459,-0.011719,0.011597,-0.99115,0.297191,0.356031,-0.085191,49,282,584,5376
1644159062.00312,-0.010864,0.011353,-0.990601,0.251389,0.523969,-0.039389,51,286,585,5376
1644159062.078243,-0.01239,0.008179,-0.993103,0.266656,0.493435,-0.115725,59,277,584,5360
1644159062.14797,-0.013306,0.005981,-0.991089,0.297191,0.462901,-0.25313,45,275,568,5376
1644159062.196347,-0.009888,0.007568,-0.993591,0.281924,0.401832,-0.237863,53,259,573,5344
1644159062.244847,-0.009155,0.009888,-0.993103,0.281924,0.447634,-0.085191,49,277,568,5456
1644159062.293143,-0.009216,0.011292,-0.992004,0.404061,0.417099,0.036947,41,271,578,5344
1644159062.341498,-0.011047,0.009644,-0.990967,0.159786,0.417099,-0.054656,58,271,564,5360
1644159062.38991,-0.009216,0.009766,-0.990906,0.266656,0.325496,-0.14626,43,281,576,5344
1644159062.438301,-0.008667,0.008789,-0.991455,0.281924,0.371298,-0.100458,57,277,584,5408
1644159062.48669,-0.011902,0.007751,-0.991211,0.175053,0.478168,-0.054656,46,269,580,5344
1644159062.535113,-0.009338,0.008972,-0.993774,0.220855,0.325496,-0.161527,60,274,578,5424
1644159062.583485,-0.01178,0.01239,-0.988098,0.175053,0.417099,-0.039389,52,275,575,5344
1644159062.631861,-0.009216,0.011536,-0.991821,0.175053,0.447634,-0.130992,42,280,577,5424
1644159062.68025,-0.010498,0.008545,-0.990967,0.205588,0.508702,-0.008855,51,281,583,5344
1644159062.728619,-0.008118,0.008057,-0.990784,0.220855,0.447634,-0.130992,47,285,579,5360
1644159062.777039,-0.010498,0.009277,-0.991638,0.266656,0.508702,-0.069924,49,277,582,5360
1644159062.825463,-0.011047,0.009827,-0.992371,0.266656,0.447634,-0.085191,43,276,573,5376
1644159062.873859,-0.012695,0.007141,-0.992859,0.312458,0.371298,-0.176794,42,282,575,5424
1644159062.922255,-0.007385,0.012329,-0.992554,0.113985,0.401832,-0.024122,40,270,572,5360
1644159062.970774,-0.009521,0.010132,-0.992798,0.297191,0.462901,-0.207328,45,273,575,5360
1644159063.019036,-0.010437,0.008057,-0.990479,0.297191,0.462901,-0.085191,60,269,571,5344
1644159063.075346,-0.011902,0.009888,-0.992432,0.404061,0.417099,-0.161527,49,285,563,5424
1644159063.119319,-0.010132,0.005432,-0.993286,0.098718,0.569771,-0.069924,54,273,582,5344
1644159063.168299,-0.011353,0.008423,-0.991821,0.190321,0.508702,-0.039389,49,260,572,5344
1644159063.213349,-0.013611,0.011108,-0.994629,0.419328,0.432366,-0.130992,47,270,572,5408
1644159063.309303,-0.010132,0.007874,-0.991577,0.312458,0.294962,-0.008855,54,265,572,5312
1644159063.357712,-0.010864,0.009521,-0.991699,0.129252,0.432366,-0.024122,47,268,575,5376
1644159063.406058,-0.011902,0.008484,-0.989746,0.144519,0.417099,-0.069924,55,266,576,5424
1644159063.454477,-0.010803,0.008606,-0.991516,0.281924,0.447634,-0.222595,48,281,583,5408
1644159063.502887,-0.010193,0.011047,-0.992676,0.08345,0.371298,-0.14626,49,270,579,5424
1644159063.551263,-0.013,0.008057,-0.990295,0.08345,0.401832,0.052214,43,276,576,5408
1644159063.599649,-0.01123,0.005737,-0.992737,0.068183,0.539237,-0.100458,52,277,575,5344
1644159063.648046,-0.010315,0.008545,-0.991394,0.281924,0.279695,-0.054656,46,264,576,5344
1644159063.696437,-0.009521,0.010559,-0.991272,0.175053,0.569771,-0.192061,51,281,580,5360
1644159063.744823,-0.010132,0.009888,-0.992065,0.35826,0.325496,-0.008855,47,268,575,5408
1644159063.793221,-0.008301,0.010986,-0.993042,0.281924,0.279695,-0.161527,57,277,579,5344
1644159063.841626,-0.009888,0.007874,-0.992981,0.388794,0.386565,-0.054656,46,279,583,5344
1644159063.890027,-0.011963,0.010986,-0.991821,0.297191,0.432366,-0.237863,54,275,582,5408
1644159063.938408,-0.011536,0.009216,-0.992737,0.312458,0.325496,-0.039389,43,266,578,5344
1644159063.986796,-0.009583,0.010986,-0.991333,0.251389,0.462901,-0.100458,58,266,583,5408
1644159064.054109,-0.010864,0.012268,-0.992065,0.281924,0.310229,0.113282,51,271,578,5408
1644159064.083887,-0.011047,0.007568,-0.994202,0.312458,0.432366,-0.069924,60,281,580,5344
1644159064.131933,-0.010925,0.007996,-0.992371,0.159786,0.310229,-0.14626,52,280,577,5312
1644159064.180327,-0.008301,0.010193,-0.990662,0.236122,0.493435,-0.039389,48,286,569,5456
1644159064.228748,-0.005859,0.008179,-0.992004,0.236122,0.493435,-0.100458,46,274,587,5360
1644159064.278937,-0.010803,0.00946,-0.993347,0.312458,0.310229,-0.161527,45,273,577,5344
1644159064.32926,-0.011169,0.008362,-0.991699,0.373527,0.310229,-0.069924,47,280,584,5424
1644159064.374223,-0.011841,0.011597,-0.987244,0.144519,0.325496,-0.237863,53,271,571,5344
1644159064.470658,-0.010681,0.00769,-0.994141,0.281924,0.478168,-0.192061,47,268,570,5488
1644159064.519043,-0.010132,0.007812,-0.991028,0.510931,0.386565,-0.008855,40,270,572,5360
1644159064.567446,-0.009705,0.007263,-0.994324,0.175053,0.447634,-0.008855,45,270,579,5424
1644159064.615825,-0.009766,0.009583,-0.994263,0.251389,0.447634,-0.054656,53,276,569,5376
1644159064.664224,-0.012329,0.008362,-0.990601,0.251389,0.447634,-0.161527,47,273,572,5312
1644159064.712607,-0.010925,0.007996,-0.992065,0.236122,0.569771,-0.039389,42,273,572,5344
1644159064.760974,-0.010315,0.008423,-0.990295,0.236122,0.371298,0.052214,45,282,577,5408
1644159064.80939,-0.009949,0.007202,-0.99176,0.190321,0.417099,-0.054656,51,266,576,5344
1644159064.857808,-0.010132,0.008911,-0.993896,0.251389,0.539237,-0.14626,48,279,571,5424
1644159064.906198,-0.010193,0.010681,-0.993164,0.144519,0.447634,-0.100458,46,274,571,5424
1644159064.954697,-0.008972,0.006775,-0.992188,0.068183,0.371298,0.036947,52,287,570,5360
1644159065.002996,-0.01001,0.007751,-0.992554,0.251389,0.447634,-0.085191,58,281,578,5360
1644159065.055766,-0.008789,0.007751,-0.994629,0.251389,0.462901,-0.176794,48,274,573,5360
1644159065.101768,-0.007874,0.010681,-0.989197,0.129252,0.371298,-0.25313,62,269,580,5344
1644159065.148107,-0.011414,0.008728,-0.988831,0.236122,0.356031,-0.085191,54,268,582,5360
1644159065.196502,-0.010864,0.006531,-0.990967,0.205588,0.325496,-0.069924,51,291,573,5456
1644159065.2449,-0.011536,0.008972,-0.992859,0.175053,0.569771,-0.024122,43,266,576,5312
1644159065.293273,-0.010437,0.00885,-0.994324,0.342992,0.371298,-0.054656,48,264,585,5296
1644159065.341672,-0.008972,0.009033,-0.993774,0.312458,0.417099,0.12855,49,282,575,5424
1644159065.390162,-0.010254,0.008728,-0.993347,0.205588,0.386565,-0.024122,52,270,579,5360
1644159065.440528,-0.008362,0.01178,-0.991821,0.297191,0.462901,-0.039389,57,280,568,5456
1644159065.4912,-0.010559,0.013123,-0.990784,0.373527,0.340763,-0.085191,47,273,575,5360
1644159065.535959,-0.009399,0.009216,-0.990723,0.190321,0.417099,-0.100458,49,270,570,5344
1644159065.632001,-0.010742,0.005737,-0.99115,0.175053,0.356031,-0.085191,48,276,573,5408
1644159065.680394,-0.008362,0.010864,-0.991089,0.159786,0.279695,-0.14626,48,271,576,5344
1644159065.72878,-0.009033,0.008301,-0.992676,0.281924,0.356031,-0.130992,48,281,583,5296
1644159065.777169,-0.008057,0.009033,-0.99408,0.190321,0.646107,-0.054656,54,287,577,5312
1644159065.825551,-0.011292,0.010254,-0.992004,0.266656,0.539237,-0.054656,53,266,573,5344
1644159065.873967,-0.010193,0.009216,-0.992737,0.220855,0.386565,-0.130992,51,276,573,5424
1644159065.922385,-0.008301,0.01062,-0.992432,0.404061,0.279695,-0.008855,45,270,570,5424
1644159065.970783,-0.009583,0.007019,-0.991394,0.251389,0.371298,-0.130992,47,265,572,5344
1644159066.01916,-0.011169,0.009399,-0.990906,0.35826,0.478168,-0.161527,48,271,569,5344
1644159066.072034,-0.010071,0.010376,-0.993042,0.144519,0.432366,-0.14626,52,275,575,5344
1644159066.115896,-0.009766,0.009216,-0.994507,0.220855,0.462901,-0.085191,58,279,573,5344
1644159066.164286,-0.009705,0.007568,-0.991516,0.175053,0.401832,-0.085191,48,266,578,5312
1644159066.212686,-0.011902,0.009705,-0.992493,0.327725,0.356031,-0.192061,49,275,572,5424
1644159066.261053,-0.009521,0.008728,-0.996704,0.35826,0.386565,-0.14626,48,279,587,5472
1644159066.309468,-0.010986,0.008301,-0.99353,0.205588,0.371298,0.082748,57,273,570,5424
1644159066.359506,-0.011108,0.00769,-0.99176,0.404061,0.462901,-0.268397,54,275,572,5408
1644159066.409513,-0.009827,0.004578,-0.99115,0.220855,0.417099,-0.100458,57,265,586,5376
1644159066.459568,-0.011292,0.00885,-0.991455,0.297191,0.401832,-0.008855,48,274,569,5312
1644159066.551399,-0.010864,0.011658,-0.993469,0.220855,0.264427,-0.176794,41,266,583,5408
1644159066.599786,-0.012451,0.010254,-0.991638,0.312458,0.401832,-0.115725,49,275,565,5360
1644159066.648166,-0.009277,0.009705,-0.988037,0.251389,0.279695,-0.130992,42,277,575,5408
1644159066.696563,-0.010559,0.008606,-0.993469,0.08345,0.478168,-0.008855,51,271,573,5360
1644159066.745099,-0.011169,0.010681,-0.994385,0.159786,0.447634,-0.130992,55,276,564,5344
1644159066.793369,-0.007263,0.010071,-0.989563,0.190321,0.340763,-0.192061,38,275,575,5376
1644159066.841727,-0.008606,0.008667,-0.991089,0.281924,0.478168,-0.14626,59,263,572,5344
1644159066.890134,-0.013184,0.009277,-0.992432,0.098718,0.401832,-0.069924,40,280,577,5296
1644159066.93855,-0.009033,0.010071,-0.992432,0.312458,0.493435,-0.14626,54,277,570,5424
1644159066.986949,-0.011841,0.009277,-0.990173,0.35826,0.371298,-0.207328,46,281,583,5472
1644159067.047153,-0.011536,0.009949,-0.993591,0.388794,0.417099,-0.176794,47,275,570,5424
1644159067.084404,-0.009705,0.009399,-0.99054,0.281924,0.432366,-0.054656,55,269,580,5424
1644159067.132232,-0.011414,0.006958,-0.993774,0.327725,0.417099,-0.222595,54,277,577,5344
1644159067.180472,-0.00885,0.009033,-0.992737,0.052916,0.386565,-0.207328,57,268,572,5344
1644159067.228846,-0.007751,0.007751,-0.994141,0.312458,0.462901,-0.100458,47,263,577,5376
1644159067.277217,-0.011353,0.009644,-0.992798,0.266656,0.462901,-0.085191,47,277,575,5360
