epoch,acc_x,acc_y,acc_z,rot_x,rot_y,rot_z,mag_x,mag_y,mag_z,temp
1644187200.024904,-0.007568,0.008301,-0.992737,0.129252,0.432366,-0.115725,48,276,592,6256
1644187200.085338,-0.008789,0.008301,-0.992371,0.190321,0.294962,-0.237863,58,276,585,6192
1644187200.121674,-0.011658,0.008972,-0.990173,0.281924,0.432366,-0.008855,45,263,586,6224
1644187200.170047,-0.009338,0.012573,-0.99176,0.129252,0.325496,-0.024122,49,273,586,6176
1644187200.218441,-0.009094,0.010193,-0.992676,0.297191,0.462901,-0.054656,46,283,583,6176
1644187200.267378,-0.009338,0.008545,-0.992126,0.190321,0.371298,0.021679,60,281,580,6224
1644187200.315949,-0.00946,0.013062,-0.991882,0.266656,0.432366,-0.268397,53,274,587,6240
1644187200.366538,-0.008911,0.007141,-0.992798,0.297191,0.325496,0.052214,47,263,582,6224
1644187200.416607,-0.008545,0.008057,-0.994324,0.159786,0.264427,0.006412,53,286,578,6288
1644187200.461503,-0.007019,0.010193,-0.990051,0.327725,0.554504,-0.130992,46,271,587,6160
1644187200.557171,-0.007141,0.008667,-0.992859,0.480397,0.478168,-0.115725,60,274,587,6240
1644187200.605566,-0.006165,0.009094,-0.991028,0.144519,0.340763,-0.069924,53,276,587,6240
1644187200.653983,-0.01001,0.009216,-0.993774,0.266656,0.310229,0.006412,51,274,585,6256
1644187200.702385,-0.010254,0.011536,-0.990234,0.312458,0.447634,-0.039389,53,274,585,6256
1644187200.750768,-0.008972,0.008606,-0.992737,0.297191,0.356031,-0.054656,52,268,586,6176
1644187200.799152,-0.009155,0.009033,-0.993225,0.175053,0.447634,-0.024122,52,270,582,6240
1644187200.847542,-0.009277,0.010803,-0.992065,0.251389,0.371298,-0.069924,41,276,587,6240
1644187200.895985,-0.009094,0.009949,-0.991943,0.098718,0.371298,-0.115725,52,275,584,6192
1644187200.944376,-0.008606,0.008911,-0.990784,0.190321,0.569771,-0.130992,53,286,580,6224
1644187200.992769,-0.011108,0.009949,-0.992676,0.373527,0.401832,-0.039389,52,280,586,6240
1644187201.054456,-0.008545,0.00824,-0.991699,0.297191,0.432366,-0.085191,49,282,584,6224
1644187201.091484,-0.010193,0.008118,-0.99115,0.220855,0.356031,0.098015,39,279,594,6224
1644187201.137951,-0.009399,0.009399,-0.992432,0.312458,0.523969,0.036947,57,275,591,6128
1644187201.186312,-0.009521,0.009216,-0.992188,0.129252,0.356031,0.021679,48,283,583,6256
1644187201.234754,-0.006775,0.008545,-0.991089,0.175053,0.401832,-0.039389,48,283,592,6240
1644187201.283145,-0.007507,0.009705,-0.990967,0.175053,0.447634,-0.085191,51,283,580,6224
1644187201.331718,-0.005737,0.009033,-0.99176,0.144519,0.554504,-0.039389,53,279,585,6240
1644187201.379925,-0.009216,0.008667,-0.989624,0.220855,0.432366,-0.130992,38,282,593,6240
1644187201.429535,-0.007202,0.006409,-0.990723,0.404061,0.432366,-0.100458,45,282,582,6224
1644187201.480498,-0.009888,0.007629,-0.993958,0.190321,0.310229,-0.130992,47,277,586,6192
1644187201.530394,-0.008667,0.008301,-0.992126,0.129252,0.340763,0.036947,57,277,584,6240
1644187201.574877,-0.009216,0.009155,-0.991211,0.113985,0.340763,-0.176794,45,273,575,6240
1644187201.670264,-0.009216,0.007751,-0.99231,0.220855,0.401832,-0.130992,55,274,590,6256
1644187201.718648,-0.007812,0.008911,-0.99054,0.236122,0.508702,-0.176794,46,279,583,6224
1644187201.767058,-0.009888,0.008118,-0.989319,0.220855,0.386565,-0.207328,53,279,592,6160
1644187201.815422,-0.008362,0.007507,-0.990967,0.190321,0.432366,-0.115725,46,269,583,6240
1644187201.863854,-0.01178,0.009277,-0.990723,0.129252,0.554504,-0.192061,61,273,577,6224
1644187201.912551,-0.009399,0.009399,-0.98822,0.129252,0.371298,-0.008855,47,285,575,6160
1644187201.960626,-0.009155,0.009888,-0.992737,0.113985,0.340763,-0.115725,43,283,578,6256
1644187202.009026,-0.010193,0.00946,-0.98938,0.129252,0.447634,0.036947,41,269,585,6224
1644187202.062827,-0.008789,0.010681,-0.991943,0.266656,0.401832,-0.161527,33,270,582,6224
1644187202.105755,-0.009338,0.012268,-0.994019,0.434595,0.417099,-0.054656,46,269,592,6224
1644187202.154151,-0.009338,0.009949,-0.990356,0.190321,0.371298,0.036947,51,279,583,6224
1644187202.202569,-0.008484,0.009033,-0.991699,0.205588,0.462901,-0.039389,39,279,590,6160
1644187202.25095,-0.006775,0.009705,-0.992676,0.266656,0.462901,-0.054656,57,282,584,6256
1644187202.299343,-0.010559,0.01001,-0.992493,0.190321,0.432366,-0.100458,53,286,583,6240
1644187202.347743,-0.006653,0.009399,-0.990845,0.175053,0.417099,0.067481,49,275,589,6224
1644187202.396118,-0.009949,0.008606,-0.992065,0.159786,0.340763,-0.192061,51,264,583,6256
1644187202.444488,-0.009949,0.00592,-0.99231,0.175053,0.401832,-0.085191,49,265,579,6240
1644187202.492935,-0.010315,0.00824,-0.989807,0.281924,0.478168,0.052214,48,266,594,6192
1644187202.541311,-0.008118,0.010254,-0.990784,0.159786,0.432366,-0.039389,45,268,589,6256
1644187202.59012,-0.009094,0.008057,-0.993896,0.159786,0.569771,-0.085191,46,274,587,6224
1644187202.640722,-0.00769,0.007751,-0.995056,0.129252,0.340763,-0.222595,42,280,575,6224
1644187202.690822,-0.006531,0.010742,-0.993469,0.220855,0.340763,-0.054656,48,271,587,6192
1644187202.735858,-0.009033,0.009033,-0.993774,0.373527,0.310229,0.036947,57,277,577,6224
1644187202.831699,-0.006531,0.011475,-0.99231,0.281924,0.386565,-0.039389,53,274,580,6256
1644187202.880073,-0.007751,0.009277,-0.991333,0.251389,0.294962,0.021679,52,270,584,6176
1644187202.928472,-0.00708,0.006897,-0.991455,0.526198,0.401832,-0.100458,41,279,583,6240
1644187202.976878,-0.00885,0.008057,-0.99176,0.251389,0.294962,-0.069924,57,282,589,6192
1644187203.025273,-0.008789,0.010132,-0.994385,0.251389,0.478168,-0.161527,49,282,584,6160
1644187203.073858,-0.009521,0.01062,-0.994141,0.220855,0.340763,-0.222595,52,275,584,6192
1644187203.122021,-0.012207,0.009644,-0.989868,0.08345,0.401832,-0.222595,49,280,586,6192
1644187203.170416,-0.009705,0.009277,-0.990295,0.312458,0.478168,-0.130992,53,266,587,6192
1644187203.218813,-0.009766,0.009155,-0.992554,0.144519,0.371298,-0.054656,62,279,590,6240
1644187203.267179,-0.00946,0.009644,-0.994568,0.159786,0.401832,-0.085191,47,270,586,6240
1644187203.315598,-0.01062,0.011108,-0.992493,0.159786,0.24916,-0.054656,38,275,584,6224
1644187203.363991,-0.009155,0.008667,-0.990356,0.175053,0.432366,-0.100458,53,269,587,6176
1644187203.412402,-0.009521,0.007019,-0.991089,0.190321,0.432366,-0.115725,48,274,587,6128
1644187203.460774,-0.008057,0.009033,-0.992615,0.052916,0.310229,-0.14626,53,281,576,6240
1644187203.50914,-0.008972,0.008179,-0.992798,0.388794,0.417099,-0.222595,47,277,582,6256
1644187203.557552,-0.010559,0.008301,-0.991455,0.342992,0.523969,-0.130992,45,275,586,6224
1644187203.605943,-0.011292,0.00885,-0.990112,0.159786,0.523969,-0.14626,43,279,578,6256
1644187203.654341,-0.011108,0.00946,-0.991638,0.129252,0.401832,-0.054656,49,260,591,6192
1644187203.703057,-0.009094,0.007812,-0.99231,0.266656,0.371298,-0.130992,38,277,586,6224
1644187203.752234,-0.011902,0.008423,-0.99469,0.205588,0.371298,-0.085191,47,270,593,6224
1644187203.803946,-0.008484,0.009644,-0.99408,0.251389,0.356031,-0.069924,49,275,586,6240
1644187203.848299,-0.010254,0.008606,-0.988586,0.342992,0.447634,0.036947,39,293,576,6240
1644187203.944908,-0.008545,0.009705,-0.990601,0.297191,0.447634,0.052214,53,271,580,6176
1644187203.993154,-0.010986,0.008545,-0.988464,0.113985,0.371298,-0.207328,48,276,576,6160
1644187204.051778,-0.009399,0.008179,-0.991028,0.220855,0.401832,0.021679,45,273,582,6224
1644187204.090248,-0.010437,0.008362,-0.989258,0.312458,0.432366,-0.100458,54,285,589,6192
1644187204.138267,-0.008423,0.008911,-0.992004,0.236122,0.417099,-0.130992,45,273,586,6192
1644187204.186664,-0.01001,0.009155,-0.993652,0.144519,0.432366,-0.008855,49,268,584,6224
1644187204.235187,-0.007141,0.009338,-0.995239,0.159786,0.356031,-0.085191,42,275,584,6224
1644187204.283442,-0.012085,0.012634,-0.991882,0.052916,0.279695,-0.054656,40,280,589,6240
1644187204.331842,-0.009399,0.010315,-0.989807,0.205588,0.386565,-0.100458,49,270,591,6240
1644187204.380251,-0.006775,0.009766,-0.993958,0.312458,0.539237,-0.085191,43,276,592,6240
1644187204.428634,-0.009766,0.007568,-0.99231,0.312458,0.356031,-0.069924,53,274,590,6224
1644187204.477021,-0.008423,0.010986,-0.993469,0.220855,0.462901,-0.069924,53,288,587,6224
1644187204.525399,-0.009033,0.007385,-0.99231,0.175053,0.401832,0.021679,52,275,575,6224
1644187204.573955,-0.005981,0.008911,-0.989075,0.175053,0.539237,-0.100458,52,273,582,6192
1644187204.624456,-0.011169,0.009338,-0.991943,0.373527,0.600305,-0.008855,49,275,589,6192
1644187204.674561,-0.008118,0.009033,-0.992615,0.159786,0.340763,-0.176794,52,273,579,6192
1644187204.71967,-0.00824,0.00885,-0.994629,0.175053,0.462901,-0.192061,58,276,583,6192
1644187204.815754,-0.011841,0.009033,-0.99292,0.220855,0.417099,-0.130992,46,276,583,6240
1644187204.86422,-0.009338,0.011597,-0.989258,0.266656,0.340763,-0.100458,47,280,582,6240
1644187204.912594,-0.009033,0.008789,-0.991882,0.129252,0.554504,-0.14626,53,279,590,6240
1644187204.961,-0.007019,0.009521,-0.992798,0.113985,0.310229,-0.054656,48,276,573,6224
1644187205.009364,-0.007568,0.007568,-0.99115,0.297191,0.279695,-0.176794,49,275,584,6160
1644187205.063211,-0.007812,0.010803,-0.99292,0.098718,0.432366,-0.115725,59,275,591,6240
1644187205.106167,-0.005554,0.010132,-0.993042,0.037649,0.310229,0.021679,58,281,592,6176
1644187205.15453,-0.006531,0.006653,-0.989868,0.236122,0.386565,-0.207328,54,282,577,6304
1644187205.202956,-0.007385,0.00885,-0.991882,0.327725,0.432366,-0.115725,57,275,586,6240
1644187205.251304,-0.008789,0.009949,-0.992249,0.113985,0.401832,-0.069924,58,266,587,6176
1644187205.299709,-0.008057,0.008423,-0.992188,0.190321,0.447634,-0.130992,49,273,579,6224
1644187205.348095,-0.006958,0.011292,-0.99176,0.251389,0.340763,-0.100458,49,287,579,6176
1644187205.396479,-0.008118,0.007141,-0.989929,0.205588,0.447634,-0.054656,47,277,582,6224
1644187205.444904,-0.005066,0.012512,-0.992188,0.175053,0.478168,-0.069924,48,281,578,6240
1644187205.493262,-0.008606,0.008667,-0.994019,-0.008153,0.310229,-0.14626,47,273,596,6224
1644187205.541667,-0.010376,0.01062,-0.990112,0.236122,0.279695,-0.207328,41,279,592,6224
1644187205.590042,-0.009216,0.007263,-0.995911,0.159786,0.401832,-0.039389,48,279,587,6240
1644187205.63845,-0.009583,0.008911,-0.991943,0.175053,0.386565,0.082748,49,268,582,6192
1644187205.686847,-0.006165,0.008545,-0.989319,0.098718,0.356031,-0.161527,46,281,585,6224
1644187205.735685,-0.008118,0.009094,-0.991516,0.236122,0.417099,-0.161527,54,273,570,6192
1644187205.787557,-0.008423,0.008667,-0.992981,0.175053,0.340763,-0.115725,42,282,577,6288
1644187205.83676,-0.00946,0.006104,-0.99176,0.342992,0.340763,-0.039389,48,276,571,6304
1644187205.881876,-0.008545,0.009094,-0.991333,0.175053,0.432366,-0.130992,53,274,578,6240
1644187205.977246,-0.009888,0.01123,-0.993713,0.297191,0.478168,-0.069924,52,282,579,6240
1644187206.025612,-0.00708,0.011658,-0.990845,0.220855,0.294962,-0.054656,45,270,575,6224
1644187206.074119,-0.010254,0.012146,-0.992065,0.220855,0.310229,-0.039389,46,274,583,6224
1644187206.122412,-0.006409,0.011963,-0.990845,0.144519,0.386565,-0.25313,57,277,584,6160
1644187206.170781,-0.006836,0.007812,-0.992676,0.236122,0.386565,-0.100458,47,275,586,6224
1644187206.219162,-0.00885,0.010864,-0.988953,0.220855,0.340763,-0.085191,45,275,582,6240
1644187206.267568,-0.010437,0.01062,-0.993591,0.190321,0.356031,-0.054656,51,274,576,6224
1644187206.315929,-0.011719,0.007568,-0.991638,0.434595,0.340763,-0.085191,53,274,587,6304
1644187206.364359,-0.009888,0.009338,-0.992065,0.129252,0.447634,-0.207328,38,280,586,6240
1644187206.412769,-0.010193,0.008484,-0.992249,0.220855,0.310229,-0.008855,47,268,596,6256
1644187206.461143,-0.011353,0.009399,-0.991455,0.312458,0.386565,-0.069924,30,265,589,6224
1644187206.509509,-0.009766,0.010559,-0.992004,0.297191,0.356031,-0.100458,46,274,590,6224
1644187206.557932,-0.010559,0.009521,-0.992371,0.190321,0.539237,-0.130992,51,264,578,6160
1644187206.606308,-0.009827,0.011658,-0.991089,0.175053,0.447634,-0.207328,46,281,594,6176
1644187206.654716,-0.010376,0.007996,-0.993164,0.251389,0.493435,-0.024122,46,283,597,6224
1644187206.703119,-0.008911,0.011719,-0.99176,0.327725,0.386565,0.021679,60,279,585,6256
1644187206.75146,-0.004395,0.01001,-0.990906,0.068183,0.356031,-0.237863,55,279,580,6192
1644187206.79988,-0.010315,0.009888,-0.99054,0.236122,0.264427,-0.085191,48,281,585,6176
1644187206.848294,-0.007812,0.010803,-0.990173,0.022382,0.371298,-0.039389,51,269,580,6176
1644187206.897744,-0.006653,0.009521,-0.988953,0.190321,0.264427,-0.222595,52,265,586,6192
1644187206.948128,-0.007446,0.007446,-0.992371,0.342992,0.401832,-0.192061,48,276,583,6176
1644187206.998322,-0.010559,0.008789,-0.992981,0.190321,0.523969,-0.130992,53,276,597,6176
1644187207.042687,-0.010803,0.008972,-0.991028,0.236122,0.371298,-0.207328,47,270,582,6224
1644187207.138671,-0.009338,0.007874,-0.989624,0.251389,0.462901,-0.115725,53,274,585,6224
1644187207.187016,-0.011108,0.008789,-0.993286,0.175053,0.218626,-0.14626,42,280,582,6224
1644187207.235403,-0.010681,0.007507,-0.99292,0.297191,0.462901,-0.237863,53,271,587,6224
1644187207.283794,-0.010437,0.009521,-0.99176,0.327725,0.462901,-0.115725,48,283,583,6192
1644187207.332375,-0.007874,0.01123,-0.992615,0.220855,0.386565,-0.130992,45,275,589,6224
1644187207.380592,-0.007874,0.010437,-0.990906,0.129252,0.417099,-0.069924,45,275,589,6176
1644187207.428986,-0.007874,0.007263,-0.991516,0.312458,0.539237,-0.192061,51,274,585,6256
1644187207.477391,-0.009155,0.012573,-0.993225,0.236122,0.356031,-0.085191,54,275,579,6192
1644187207.525784,-0.006592,0.009766,-0.993713,0.175053,0.371298,-0.192061,41,266,573,6288
1644187207.574196,-0.007935,0.009705,-0.990173,0.220855,0.325496,-0.314198,55,269,580,6192
1644187207.622581,-0.007507,0.009949,-0.989929,0.08345,0.462901,-0.237863,54,275,589,6224
1644187207.67097,-0.009888,0.008545,-0.992981,0.159786,0.539237,-0.115725,47,280,589,6192
1644187207.719355,-0.008606,0.008972,-0.992676,0.220855,0.462901,-0.100458,49,275,577,6224
1644187207.76776,-0.009399,0.008362,-0.992554,0.35826,0.432366,-0.115725,49,282,586,6240
1644187207.816133,-0.009644,0.009155,-0.991638,0.251389,0.417099,-0.130992,54,277,584,6304
1644187207.864633,-0.009216,0.010437,-0.991882,0.144519,0.310229,-0.14626,52,277,584,6224
1644187207.912978,-0.006042,0.008667,-0.992981,0.205588,0.294962,-0.207328,51,274,583,6224
1644187207.96136,-0.008118,0.012878,-0.992188,0.175053,0.371298,-0.130992,59,268,589,6240
1644187208.009765,-0.005859,0.008179,-0.99115,0.144519,0.325496,-0.14626,46,281,587,6192
1644187208.106525,-0.011353,0.012024,-0.989441,0.312458,0.325496,-0.222595,39,276,590,6224
1644187208.155468,-0.011719,0.008301,-0.992554,0.266656,0.447634,-0.161527,59,270,591,6224
1644187208.203291,-0.011414,0.009644,-0.991028,0.266656,0.294962,-0.008855,52,273,582,6240
1644187208.251654,-0.009705,0.010437,-0.992798,-0.13029,0.356031,0.036947,49,275,582,6224
1644187208.300056,-0.008362,0.010254,-0.993591,0.205588,0.417099,-0.161527,48,276,573,6240
1644187208.348454,-0.00946,0.012146,-0.989929,0.159786,0.447634,-0.085191,51,283,590,6224
1644187208.396845,-0.010986,0.010986,-0.991211,0.175053,0.447634,-0.14626,49,280,579,6240
1644187208.445246,-0.011719,0.011597,-0.990967,0.129252,0.447634,0.036947,48,274,597,6240
1644187208.493647,-0.008301,0.00885,-0.991333,0.220855,0.493435,-0.14626,53,276,594,6192
1644187208.542027,-0.009338,0.009766,-0.991272,0.205588,0.462901,-0.054656,51,269,594,6160
1644187208.590432,-0.009827,0.010254,-0.994202,0.052916,0.417099,-0.176794,47,270,584,6240
1644187208.638826,-0.010132,0.01416,-0.992493,0.175053,0.554504,0.067481,47,282,586,6240
1644187208.687221,-0.009705,0.009705,-0.991577,0.159786,0.401832,-0.039389,45,275,586,6256
1644187208.735575,-0.010071,0.011536,-0.991821,0.068183,0.340763,-0.024122,51,283,583,6224
1644187208.784002,-0.009521,0.011169,-0.995422,0.236122,0.432366,-0.115725,52,275,584,6256
1644187208.832408,-0.009338,0.007324,-0.991821,0.144519,0.508702,-0.085191,47,275,584,6224
1644187208.880829,-0.005005,0.008667,-0.992065,0.175053,0.325496,-0.176794,48,281,592,6224
1644187208.929373,-0.010071,0.009583,-0.99353,0.144519,0.417099,-0.161527,48,274,585,6240
1644187208.977622,-0.008667,0.011047,-0.990112,0.205588,0.356031,-0.14626,61,265,579,6256
1644187209.026545,-0.00885,0.010681,-0.991882,0.297191,0.432366,-0.008855,46,274,587,6224
1644187209.083107,-0.009033,0.009277,-0.989868,0.220855,0.356031,-0.085191,49,273,584,6224
1644187209.127508,-0.008484,0.006653,-0.991394,0.251389,0.417099,-0.115725,52,275,568,6176
1644187209.17204,-0.010986,0.011658,-0.993103,0.373527,0.310229,-0.039389,49,265,579,6128
1644187209.267949,-0.009399,0.009094,-0.99408,0.236122,0.401832,0.052214,49,260,579,6160
1644187209.316343,-0.008362,0.005737,-0.992065,0.266656,0.310229,0.021679,41,274,587,6224
1644187209.364757,-0.008545,0.009521,-0.993042,0.220855,0.447634,-0.130992,46,264,587,6256
1644187209.413169,-0.010376,0.01001,-0.99231,0.220855,0.356031,-0.222595,51,281,590,6224
1644187209.461545,-0.009399,0.010559,-0.990662,0.236122,0.493435,-0.14626,46,279,580,6256
1644187209.509931,-0.009644,0.00946,-0.99176,0.297191,0.447634,0.006412,45,282,591,6256
1644187209.558336,-0.008057,0.010193,-0.992188,0.190321,0.233893,-0.054656,43,274,590,6240
1644187209.606719,-0.008362,0.009583,-0.992432,0.220855,0.386565,-0.085191,42,263,584,6256
1644187209.655213,-0.010498,0.00824,-0.989258,0.175053,0.340763,-0.115725,52,273,577,6240
1644187209.703505,-0.009338,0.010803,-0.993713,0.236122,0.356031,-0.130992,42,280,586,6256
1644187209.751893,-0.009949,0.008911,-0.99176,0.159786,0.523969,-0.100458,54,282,582,6192
1644187209.800254,-0.005493,0.006653,-0.988403,0.220855,0.508702,-0.14626,49,263,577,6240
1644187209.848689,-0.007324,0.010315,-0.990662,0.205588,0.310229,-0.085191,39,279,590,6192
1644187209.897078,-0.007568,0.01001,-0.98999,0.236122,0.401832,-0.008855,55,279,583,6128
1644187209.945471,-0.01123,0.010681,-0.989929,0.266656,0.417099,-0.176794,38,275,582,6224
1644187209.993871,-0.007446,0.010376,-0.99115,0.327725,0.386565,-0.069924,47,275,584,6224
1644187210.042273,-0.005249,0.01178,-0.989441,0.159786,0.371298,-0.054656,38,280,586,6176
1644187210.092277,-0.008911,0.010681,-0.99176,0.205588,0.539237,0.021679,46,279,594,6224
1644187210.139016,-0.008606,0.00885,-0.990662,0.190321,0.325496,-0.024122,43,279,580,6256
1644187210.188097,-0.007324,0.010437,-0.99292,0.190321,0.523969,-0.100458,48,269,587,6224
1644187210.238708,-0.008118,0.012207,-0.992065,0.205588,0.539237,-0.024122,43,279,576,6224
1644187210.28915,-0.00885,0.008484,-0.992004,0.312458,0.432366,-0.192061,52,277,582,6240
1644187210.333755,-0.008911,0.007446,-0.990112,0.220855,0.447634,-0.130992,54,277,579,6192
1644187210.429335,-0.007874,0.006531,-0.990112,0.205588,0.523969,0.021679,49,263,582,6128
1644187210.477734,-0.010437,0.012268,-0.990051,0.35826,0.417099,-0.207328,52,268,570,6256
1644187210.526117,-0.010864,0.007446,-0.990906,0.129252,0.325496,-0.222595,55,271,578,6176
1644187210.574547,-0.008789,0.012085,-0.993164,0.312458,0.432366,-0.130992,51,276,583,6224
1644187210.622936,-0.007507,0.010193,-0.990051,0.281924,0.264427,-0.115725,46,271,585,6224
1644187210.671301,-0.008179,0.010254,-0.992004,0.266656,0.340763,-0.024122,43,283,587,6176
1644187210.71972,-0.007629,0.010071,-0.993225,0.220855,0.417099,-0.130992,36,286,583,6240
1644187210.768109,-0.007629,0.008728,-0.990967,0.266656,0.371298,-0.085191,47,270,579,6240
1644187210.816544,-0.008911,0.01178,-0.991577,0.281924,0.310229,-0.161527,42,273,584,6176
1644187210.865047,-0.007446,0.010742,-0.993652,0.190321,0.386565,-0.268397,48,281,576,6240
1644187210.913354,-0.007446,0.010681,-0.990356,0.236122,0.356031,-0.039389,51,271,590,6160
1644187210.961745,-0.008728,0.009094,-0.993591,0.098718,0.523969,-0.14626,46,276,578,6224
1644187211.010094,-0.00946,0.010498,-0.991211,0.205588,0.554504,-0.130992,43,271,583,6256
1644187211.062491,-0.010254,0.009888,-0.992859,0.236122,0.325496,0.036947,42,273,584,6240
1644187211.106875,-0.007446,0.008728,-0.990662,0.190321,0.401832,-0.039389,57,277,586,6224
1644187211.155249,-0.008911,0.010742,-0.993408,0.297191,0.462901,-0.054656,40,268,598,6224
1644187211.203646,-0.011047,0.010437,-0.992371,0.144519,0.310229,-0.100458,49,280,593,6192
1644187211.252005,-0.009033,0.011353,-0.989685,0.205588,0.478168,-0.115725,40,277,591,6224
1644187211.300424,-0.00885,0.011902,-0.991943,0.373527,0.24916,-0.130992,53,279,578,6176
1644187211.348862,-0.008057,0.007202,-0.991882,0.236122,0.325496,-0.115725,55,276,578,6256
1644187211.39897,-0.007202,0.006714,-0.993164,0.297191,0.462901,-0.115725,51,276,578,6192
1644187211.449253,-0.007507,0.010193,-0.992126,0.251389,0.432366,-0.100458,62,269,594,6224
1644187211.494854,-0.010681,0.009277,-0.991516,0.297191,0.310229,-0.237863,49,275,586,6224
1644187211.590797,-0.008972,0.010559,-0.992981,0.373527,0.325496,-0.207328,53,274,585,6176
1644187211.639175,-0.006287,0.009705,-0.992004,0.175053,0.386565,-0.207328,49,282,572,6224
1644187211.687545,-0.010376,0.007202,-0.992615,0.144519,0.401832,-0.115725,46,274,590,6160
1644187211.735937,-0.009888,0.010803,-0.992126,0.205588,0.310229,-0.039389,48,274,590,6224
1644187211.784352,-0.004761,0.009583,-0.991943,0.129252,0.386565,-0.130992,45,275,579,6176
1644187211.832789,-0.008179,0.010315,-0.989868,0.220855,0.447634,-0.161527,45,277,575,6256
1644187211.881194,-0.006653,0.009827,-0.990723,0.113985,0.401832,-0.054656,49,268,584,6224
1644187211.929579,-0.012329,0.010437,-0.991272,0.251389,0.310229,-0.176794,43,288,576,6224
1644187211.97798,-0.009338,0.00824,-0.990967,0.175053,0.325496,-0.069924,48,279,576,6240
1644187212.026366,-0.011353,0.009949,-0.991638,0.281924,0.325496,-0.115725,47,277,591,6224
1644187212.076582,-0.006409,0.010742,-0.991882,0.159786,0.417099,-0.069924,47,263,586,6224
1644187212.12314,-0.006958,0.009827,-0.993713,0.098718,0.432366,-0.192061,48,271,585,6240
1644187212.171669,-0.010803,0.009399,-0.992126,0.159786,0.478168,0.067481,47,275,577,6240
1644187212.222362,-0.01062,0.008118,-0.991699,0.190321,0.371298,-0.024122,57,277,589,6224
1644187212.272818,-0.007324,0.009888,-0.992004,0.129252,0.417099,0.006412,49,287,584,6224
1644187212.318075,-0.010742,0.008606,-0.992676,0.236122,0.523969,-0.115725,45,273,586,6240
1644187212.413488,-0.008911,0.008606,-0.994263,0.190321,0.401832,-0.069924,46,281,585,6240
1644187212.461862,-0.008545,0.010254,-0.990234,0.175053,0.294962,-0.130992,41,276,587,6224
1644187212.51025,-0.011658,0.010986,-0.991272,0.251389,0.401832,-0.024122,53,281,580,6240
1644187212.558653,-0.007629,0.012146,-0.993469,0.388794,0.493435,-0.222595,42,273,586,6224
1644187212.607043,-0.005981,0.010864,-0.993225,0.08345,0.417099,-0.176794,43,276,580,6256
1644187212.655423,-0.008484,0.010986,-0.991699,0.281924,0.432366,-0.329466,45,285,572,6256
1644187212.703806,-0.009827,0.009399,-0.995728,0.312458,0.447634,-0.14626,49,285,584,6224
1644187212.752218,-0.008545,0.007507,-0.990723,0.327725,0.386565,-0.100458,52,280,586,6224
1644187212.800628,-0.010315,0.009827,-0.993774,-0.053954,0.508702,-0.024122,52,285,577,6224
1644187212.849022,-0.005981,0.011841,-0.992188,0.342992,0.340763,-0.069924,54,270,582,6176
1644187212.897444,-0.008789,0.013184,-0.992004,0.175053,0.279695,-0.069924,60,274,578,6240
1644187212.945836,-0.010071,0.007446,-0.99054,0.08345,0.478168,0.006412,54,285,575,6192
1644187212.994236,-0.008972,0.010132,-0.989563,0.297191,0.417099,-0.069924,45,280,584,6240
1644187213.052951,-0.007812,0.010254,-0.993958,0.098718,0.371298,-0.100458,48,279,578,6224
1644187213.094162,-0.010376,0.008484,-0.99353,0.175053,0.401832,-0.176794,43,281,585,6240
1644187213.139352,-0.008118,0.00708,-0.992249,0.159786,0.386565,-0.085191,53,279,587,6224
1644187213.187752,-0.00769,0.009399,-0.990601,0.129252,0.432366,-0.100458,54,277,586,6224
1644187213.236154,-0.005615,0.01178,-0.993652,0.205588,0.356031,-0.176794,51,266,585,6160
1644187213.284536,-0.008057,0.008911,-0.99115,0.037649,0.447634,-0.100458,40,280,591,6256
1644187213.333233,-0.009033,0.010803,-0.994446,0.144519,0.356031,-0.176794,53,276,585,6224
1644187213.38372,-0.005188,0.009033,-0.991882,0.312458,0.340763,-0.069924,49,268,591,6240
1644187213.434021,-0.009216,0.008728,-0.993286,0.144519,0.462901,-0.054656,53,274,590,6240
1644187213.479095,-0.006775,0.009521,-0.99115,0.236122,0.188092,-0.176794,42,273,584,6240
1644187213.574951,-0.009155,0.009766,-0.991333,0.434595,0.371298,-0.100458,49,273,584,6224
1644187213.62331,-0.006714,0.010681,-0.98938,0.113985,0.417099,0.006412,43,279,583,6224
1644187213.671679,-0.007263,0.009521,-0.992371,0.297191,0.371298,-0.039389,48,281,571,6224
1644187213.720087,-0.008606,0.008301,-0.989624,0.144519,0.325496,-0.14626,57,270,579,6224
1644187213.769309,-0.009094,0.007507,-0.992615,0.312458,0.447634,-0.176794,39,283,583,6288
1644187213.816864,-0.006592,0.006836,-0.990784,0.205588,0.462901,-0.069924,48,283,585,6256
1644187213.865307,-0.010925,0.009216,-0.990784,0.251389,0.447634,-0.25313,47,273,582,6240
1644187213.913711,-0.008057,0.009338,-0.99231,0.312458,0.279695,-0.115725,51,281,583,6240
1644187213.962088,-0.00708,0.009277,-0.991333,0.144519,0.432366,-0.130992,34,271,585,6176
1644187214.010489,-0.007019,0.010193,-0.992859,0.220855,0.401832,-0.115725,45,287,586,6224
1644187214.066718,-0.008728,0.010681,-0.989441,0.297191,0.508702,-0.100458,52,287,589,6224
1644187214.107257,-0.011292,0.009827,-0.993469,0.068183,0.401832,-0.100458,47,290,589,6224
1644187214.155615,-0.009583,0.010437,-0.988464,0.08345,0.462901,-0.054656,51,279,587,6224
1644187214.204031,-0.007324,0.008789,-0.993103,0.251389,0.432366,-0.100458,53,271,585,6224
1644187214.252418,-0.008118,0.011047,-0.993042,0.129252,0.325496,0.006412,53,283,597,6192
1644187214.300795,-0.009216,0.011292,-0.992676,0.297191,0.356031,-0.25313,58,271,585,6224
1644187214.349187,-0.011841,0.010437,-0.992676,0.190321,0.401832,-0.192061,49,282,586,6256
1644187214.397553,-0.00885,0.009949,-0.990662,0.236122,0.478168,-0.085191,42,263,591,6256
1644187214.445972,-0.009521,0.010315,-0.989014,0.312458,0.386565,-0.161527,43,281,587,6224
1644187214.494698,-0.007446,0.010864,-0.993591,0.297191,0.493435,0.067481,52,273,586,6240
1644187214.544459,-0.008606,0.009644,-0.992126,0.144519,0.340763,-0.130992,52,277,579,6080
1644187214.594764,-0.010498,0.009766,-0.993469,0.144519,0.417099,0.036947,53,276,587,6224
1644187214.639893,-0.009338,0.009216,-0.992126,0.175053,0.294962,-0.161527,41,271,580,6176
1644187214.736321,-0.006897,0.009949,-0.990967,0.342992,0.386565,-0.192061,45,275,579,6240
1644187214.784867,-0.007996,0.007751,-0.989502,0.08345,0.401832,-0.207328,46,283,585,6192
1644187214.833132,-0.009766,0.007568,-0.993042,0.297191,0.462901,-0.039389,40,285,582,6224
1644187214.88155,-0.012268,0.009216,-0.990234,0.159786,0.554504,-0.161527,51,274,583,6224
1644187214.929953,-0.007996,0.009338,-0.992676,0.281924,0.325496,-0.222595,43,279,583,6224
1644187214.978335,-0.006531,0.006897,-0.995911,0.068183,0.356031,-0.054656,41,279,573,6224
1644187215.026738,-0.009338,0.010498,-0.993103,0.068183,0.264427,-0.176794,47,275,584,6304
1644187215.086147,-0.006348,0.009644,-0.994568,0.037649,0.356031,-0.069924,47,273,584,6192
1644187215.123518,-0.008972,0.01239,-0.993347,0.129252,0.508702,-0.100458,51,279,594,6160
1644187215.171869,-0.010742,0.008911,-0.991516,0.46513,0.371298,0.082748,41,274,590,6240
1644187215.220283,-0.006287,0.011536,-0.990662,0.098718,0.371298,-0.085191,45,285,558,6224
1644187215.268634,-0.007812,0.009827,-0.992432,0.144519,0.417099,-0.039389,49,280,593,6128
1644187215.317048,-0.010681,0.006165,-0.991699,0.35826,0.523969,0.021679,54,280,586,6224
1644187215.365436,-0.01123,0.010925,-0.991028,0.312458,0.386565,-0.14626,42,282,584,6240
1644187215.413842,-0.006836,0.010437,-0.991821,0.037649,0.371298,-0.130992,55,279,578,6224
1644187215.462286,-0.01001,0.011108,-0.991394,0.175053,0.310229,-0.130992,47,270,591,6256
1644187215.510618,-0.009155,0.008789,-0.991394,0.236122,0.508702,0.021679,49,265,589,6288
1644187215.559008,-0.009949,0.008118,-0.990356,0.144519,0.386565,-0.069924,52,273,582,6240
1644187215.607724,-0.009399,0.006287,-0.990234,-0.038687,0.432366,-0.14626,54,270,582,6224
1644187215.656688,-0.008911,0.010132,-0.992554,0.113985,0.462901,-0.069924,43,286,597,6240
1644187215.707411,-0.007629,0.009521,-0.992371,0.175053,0.24916,-0.176794,46,283,590,6176
1644187215.757501,-0.009827,0.011963,-0.992371,0.144519,0.447634,-0.130992,45,277,589,6224
1644187215.849378,-0.010498,0.009216,-0.992432,0.220855,0.462901,-0.268397,51,274,592,6160
1644187215.89779,-0.006226,0.00824,-0.990173,0.190321,0.340763,-0.024122,45,277,584,6192
1644187215.946187,-0.008484,0.011536,-0.990601,0.159786,0.478168,-0.222595,36,286,585,6240
1644187215.994635,-0.008057,0.011353,-0.990112,0.159786,0.417099,-0.115725,51,269,576,6224
1644187216.043003,-0.007874,0.010559,-0.991394,0.190321,0.462901,-0.14626,52,277,591,6176
1644187216.091495,-0.008972,0.008545,-0.992188,0.205588,0.371298,-0.054656,60,274,587,6224
1644187216.139774,-0.009888,0.010742,-0.995239,0.251389,0.325496,-0.024122,46,281,578,6224
1644187216.188128,-0.010132,0.008667,-0.993286,0.113985,0.493435,-0.069924,49,263,579,6160
1644187216.236527,-0.007629,0.00824,-0.991455,0.281924,0.386565,-0.176794,53,271,587,6224
1644187216.284899,-0.006653,0.009094,-0.992493,0.08345,0.417099,0.006412,59,270,584,6240
1644187216.33332,-0.00824,0.011414,-0.994995,0.175053,0.462901,0.021679,43,283,590,6192
1644187216.381701,-0.008606,0.011353,-0.991638,0.251389,0.478168,-0.115725,49,275,577,6288
1644187216.430073,-0.007629,0.010498,-0.990784,0.129252,0.493435,-0.25313,53,276,587,6240
1644187216.478455,-0.006104,0.009338,-0.990723,0.113985,0.386565,-0.039389,36,271,580,6224
1644187216.52687,-0.010071,0.011169,-0.991516,0.113985,0.432366,-0.085191,48,281,580,6224
1644187216.576593,-0.008301,0.008179,-0.992737,0.190321,0.401832,-0.069924,55,274,594,6176
1644187216.625124,-0.004822,0.008423,-0.989685,0.205588,0.371298,-0.085191,35,265,586,6224
1644187216.675106,-0.008057,0.010071,-0.988708,0.144519,0.462901,-0.024122,48,283,576,6160
1644187216.725459,-0.006226,0.009155,-0.990784,0.236122,0.493435,-0.069924,52,280,589,6224
1644187216.817252,-0.007996,0.011963,-0.99408,0.175053,0.554504,-0.008855,47,270,582,6224
1644187216.865612,-0.009888,0.010681,-0.991699,0.190321,0.493435,-0.283664,52,260,579,6176
1644187216.914058,-0.007019,0.009521,-0.991577,0.159786,0.401832,-0.054656,46,276,578,6192
1644187216.962464,-0.007629,0.00946,-0.991638,0.205588,0.523969,-0.130992,55,274,569,6224
1644187217.010832,-0.008423,0.010254,-0.992188,0.342992,0.188092,0.082748,46,276,592,6160
1644187217.062349,-0.012085,0.009705,-0.992126,0.251389,0.401832,-0.008855,47,275,584,6192
1644187217.107629,-0.010071,0.009521,-0.992859,0.236122,0.386565,-0.161527,51,271,578,6240
1644187217.155977,-0.008667,0.00647,-0.991943,0.175053,0.340763,-0.115725,47,273,589,6176
1644187217.204372,-0.009155,0.009583,-0.99231,0.281924,0.386565,-0.161527,48,276,578,6192
1644187217.25276,-0.006226,0.010498,-0.991821,0.144519,0.325496,-0.008855,47,282,591,6240
1644187217.301141,-0.01123,0.010193,-0.990112,0.220855,0.401832,-0.14626,52,273,579,6192
1644187217.349537,-0.007629,0.009949,-0.992676,0.266656,0.386565,-0.161527,47,275,591,6192
1644187217.39794,-0.006531,0.008972,-0.990662,0.175053,0.386565,-0.085191,55,276,592,6176
1644187217.446323,-0.008667,0.009338,-0.992493,0.190321,0.340763,-0.344733,47,277,575,6192
1644187217.494742,-0.00769,0.011658,-0.990723,0.342992,0.356031,-0.130992,54,292,586,6240
1644187217.543133,-0.009277,0.009094,-0.990845,0.266656,0.340763,-0.100458,38,282,589,6240
1644187217.591511,-0.006531,0.008667,-0.992615,-0.008153,0.310229,0.067481,42,273,582,6224
1644187217.639911,-0.005615,0.009644,-0.993774,0.220855,0.325496,-0.100458,52,270,596,6256
1644187217.688309,-0.012573,0.010559,-0.99469,0.236122,0.24916,-0.161527,46,276,576,6224
1644187217.736716,-0.007507,0.009216,-0.99231,0.098718,0.279695,-0.100458,55,269,597,6112
1644187217.787841,-0.009644,0.010376,-0.994141,0.220855,0.371298,-0.069924,51,281,585,6224
1644187217.837999,-0.011108,0.008606,-0.992798,0.205588,0.386565,-0.283664,46,288,578,6256
1644187217.882561,-0.00708,0.009277,-0.989807,0.175053,0.356031,-0.085191,45,285,577,6176
1644187217.978693,-0.012878,0.010132,-0.992065,0.236122,0.523969,0.082748,48,269,585,6240
1644187218.027079,-0.008728,0.008667,-0.991821,0.175053,0.310229,-0.100458,59,282,582,6192
1644187218.075525,-0.008606,0.010071,-0.993652,0.251389,0.462901,-0.039389,41,288,583,6304
1644187218.123847,-0.010986,0.01178,-0.993713,0.113985,0.233893,-0.14626,48,274,583,6240
1644187218.17238,-0.008667,0.011047,-0.993835,0.220855,0.203359,-0.039389,47,273,577,6256
1644187218.220622,-0.011841,0.01178,-0.992981,0.205588,0.279695,-0.283664,57,280,577,6224
1644187218.268994,-0.012268,0.009338,-0.992004,0.129252,0.432366,0.098015,42,273,582,6224
1644187218.317415,-0.010132,0.008179,-0.995117,0.236122,0.447634,-0.237863,51,274,587,6224
1644187218.36581,-0.009399,0.008911,-0.990417,0.113985,0.356031,-0.039389,57,273,589,6224
1644187218.414185,-0.011658,0.009583,-0.99353,0.220855,0.340763,-0.085191,52,275,584,6160
1644187218.462608,-0.00946,0.009033,-0.991455,0.297191,0.401832,-0.161527,58,274,576,6176
1644187218.510962,-0.009277,0.009888,-0.99231,0.236122,0.417099,-0.161527,54,277,586,6176
1644187218.559345,-0.007202,0.010315,-0.99292,0.190321,0.24916,-0.176794,52,287,577,6224
1644187218.607769,-0.009399,0.009583,-0.99115,0.404061,0.386565,-0.207328,42,270,589,6240
1644187218.656171,-0.007324,0.01239,-0.992371,0.404061,0.356031,0.143817,51,281,578,6176
1644187218.704609,-0.010437,0.006226,-0.992798,0.327725,0.356031,-0.14626,58,271,583,6224
1644187218.752928,-0.009155,0.008179,-0.994019,0.297191,0.508702,0.021679,55,288,585,6224
1644187218.801374,-0.010986,0.010071,-0.99115,0.190321,0.386565,-0.14626,40,265,586,6224
1644187218.849794,-0.00885,0.009338,-0.991211,0.098718,0.264427,0.052214,47,270,582,6224
1644187218.899496,-0.008545,0.010803,-0.99231,0.205588,0.279695,-0.085191,54,282,575,6160
1644187218.949443,-0.009277,0.008423,-0.990601,0.312458,0.233893,0.052214,47,275,577,6192
1644187218.999747,-0.008606,0.008301,-0.989929,0.236122,0.401832,-0.14626,35,273,582,6224
1644187219.056531,-0.007996,0.011475,-0.992249,0.404061,0.462901,-0.069924,46,271,585,6192
1644187219.140099,-0.011047,0.008362,-0.993652,0.297191,0.432366,-0.085191,51,274,583,6160
1644187219.188466,-0.010376,0.009705,-0.993286,0.098718,0.325496,-0.100458,42,275,582,6240
1644187219.236864,-0.007507,0.009094,-0.990479,0.281924,0.294962,0.006412,52,282,586,6256
1644187219.285274,-0.008179,0.009705,-0.991211,0.297191,0.417099,-0.222595,45,280,586,6240
1644187219.333647,-0.008362,0.011047,-0.993591,0.236122,0.432366,0.006412,48,266,580,6224
1644187219.382063,-0.006104,0.008484,-0.993286,0.266656,0.371298,-0.100458,49,268,589,6256
1644187219.43046,-0.00592,0.011658,-0.992737,0.205588,0.371298,-0.130992,45,268,591,6192
1644187219.478818,-0.008118,0.008911,-0.992554,0.08345,0.371298,-0.115725,45,277,575,6224
1644187219.527236,-0.007202,0.007751,-0.992859,0.129252,0.310229,-0.039389,52,273,584,6224
1644187219.575635,-0.006348,0.008667,-0.991394,0.08345,0.294962,-0.069924,47,277,584,6192
1644187219.624039,-0.009399,0.012207,-0.990479,0.205588,0.386565,-0.115725,47,277,579,6160
1644187219.672406,-0.010559,0.009888,-0.99176,0.08345,0.401832,-0.14626,46,271,587,6224
1644187219.720809,-0.009277,0.008911,-0.99115,0.129252,0.523969,-0.085191,48,271,592,6256
1644187219.769213,-0.010376,0.008667,-0.990967,0.205588,0.24916,-0.039389,57,285,596,6256
1644187219.817652,-0.009888,0.011169,-0.990662,0.144519,0.371298,-0.085191,45,270,582,6176
1644187219.866035,-0.009949,0.011414,-0.993652,0.175053,0.417099,-0.085191,49,275,584,6192
1644187219.914423,-0.005188,0.007568,-0.99176,0.129252,0.646107,-0.207328,49,273,577,6192
1644187219.962825,-0.008667,0.008362,-0.992004,0.068183,0.310229,-0.039389,57,287,579,6224
1644187220.011288,-0.009155,0.012268,-0.990601,0.251389,0.447634,-0.25313,40,282,586,6240
1644187220.107912,-0.00708,0.011292,-0.991211,0.175053,0.386565,-0.14626,51,279,585,6240
1644187220.156327,-0.010864,0.010925,-0.991455,0.08345,0.310229,0.052214,57,282,584,6288
1644187220.204853,-0.008667,0.012451,-0.991638,0.098718,0.493435,-0.054656,43,271,585,6304
1644187220.253151,-0.008606,0.009583,-0.992676,0.266656,0.371298,-0.176794,48,274,580,6192
1644187220.301496,-0.008545,0.011597,-0.991577,0.251389,0.340763,0.021679,43,279,585,6192
1644187220.34991,-0.006836,0.00824,-0.994324,0.35826,0.386565,-0.115725,48,271,573,6224
1644187220.398301,-0.006836,0.009705,-0.99231,0.220855,0.478168,-0.115725,51,281,578,6224
1644187220.446695,-0.008728,0.012451,-0.989807,0.281924,0.462901,-0.024122,46,279,580,6240
1644187220.495138,-0.008545,0.010864,-0.992859,0.266656,0.432366,-0.085191,49,275,579,6256
1644187220.543492,-0.007874,0.009399,-0.989258,0.190321,0.401832,-0.100458,43,276,576,6160
1644187220.591881,-0.007874,0.011353,-0.991211,0.205588,0.462901,-0.054656,46,286,576,6240
1644187220.640249,-0.005371,0.013489,-0.988464,0.327725,0.478168,-0.115725,45,277,584,6240
1644187220.688672,-0.009583,0.010986,-0.992065,0.251389,0.401832,-0.008855,49,275,582,6224
1644187220.73706,-0.009583,0.011414,-0.990906,0.098718,0.356031,-0.069924,48,271,590,6224
1644187220.785466,-0.007324,0.010742,-0.98999,0.236122,0.401832,-0.069924,48,274,587,6224
1644187220.833897,-0.008362,0.010254,-0.992126,0.175053,0.447634,-0.237863,42,260,584,6240
1644187220.882302,-0.013733,0.008972,-0.989319,0.236122,0.462901,-0.115725,57,275,584,6176
1644187220.93102,-0.010742,0.012146,-0.992188,0.266656,0.493435,-0.085191,47,270,579,6240
1644187220.979077,-0.007874,0.008057,-0.993896,0.144519,0.478168,-0.14626,48,276,592,6176
1644187221.02882,-0.00708,0.006714,-0.989685,0.266656,0.493435,-0.14626,46,279,592,6288
1644187221.099102,-0.006348,0.009277,-0.991211,0.052916,0.554504,-0.192061,57,275,586,6304
1644187221.12992,-0.007751,0.010498,-0.988831,0.113985,0.356031,-0.100458,42,268,584,6224
1644187221.173422,-0.007568,0.010864,-0.990723,0.220855,0.462901,-0.054656,54,268,582,6224
1644187221.269376,-0.007812,0.006042,-0.990051,0.129252,0.523969,-0.024122,47,277,584,6192
1644187221.317759,-0.010437,0.008606,-0.989929,0.236122,0.356031,-0.100458,48,276,590,6224
1644187221.366152,-0.0047,0.006775,-0.991333,0.098718,0.493435,-0.100458,57,280,582,6224
1644187221.414787,-0.006714,0.009705,-0.988281,0.281924,0.279695,-0.192061,43,283,587,6240
1644187221.462962,-0.009033,0.009399,-0.991821,0.281924,0.218626,-0.024122,53,279,587,6224
1644187221.511333,-0.008362,0.01001,-0.992798,0.159786,0.401832,-0.039389,47,268,584,6240
1644187221.559756,-0.010193,0.011169,-0.993591,0.159786,0.478168,-0.100458,49,273,582,6224
1644187221.608141,-0.009094,0.011353,-0.990417,0.297191,0.523969,-0.115725,55,274,585,6128
1644187221.65653,-0.008911,0.008728,-0.988525,0.281924,0.493435,-0.100458,52,270,561,6192
1644187221.704942,-0.00531,0.011169,-0.990784,0.220855,0.417099,0.036947,48,274,592,6224
1644187221.753348,-0.006226,0.01355,-0.991211,0.007115,0.447634,-0.130992,52,275,589,6224
1644187221.801713,-0.00647,0.010254,-0.99054,0.129252,0.401832,0.021679,43,274,583,6192
1644187221.850152,-0.004761,0.007874,-0.992737,0.35826,0.508702,-0.085191,54,275,582,6256
1644187221.898529,-0.00293,0.01062,-0.990234,0.327725,0.447634,-0.085191,55,276,585,6240
1644187221.94692,-0.008057,0.008057,-0.991821,0.251389,0.386565,-0.100458,45,275,579,6224
1644187221.995323,-0.005188,0.008728,-0.98999,0.220855,0.478168,-0.039389,58,271,590,6224
1644187222.043715,-0.00592,0.010681,-0.992371,0.175053,0.356031,-0.085191,52,275,577,6224
1644187222.096009,-0.008301,0.008118,-0.990295,0.236122,0.569771,-0.207328,52,270,584,6256
1644187222.140541,-0.007324,0.012268,-0.990479,0.205588,0.478168,-0.14626,54,273,584,6224
1644187222.188928,-0.007812,0.010315,-0.99176,0.236122,0.325496,-0.176794,48,269,578,6224
1644187222.239274,-0.010315,0.009888,-0.992737,0.236122,0.356031,-0.069924,54,277,584,6192
1644187222.289464,-0.008667,0.010742,-0.990356,0.327725,0.462901,-0.329466,43,283,592,6224
1644187222.33444,-0.009827,0.009644,-0.992493,0.35826,0.539237,-0.008855,47,270,579,6192
1644187222.430799,-0.008789,0.009033,-0.991699,0.35826,0.646107,-0.36,53,266,590,6176
1644187222.479211,-0.008057,0.011536,-0.992065,0.144519,0.417099,-0.008855,53,286,585,6256
1644187222.527595,-0.007019,0.01062,-0.99054,0.129252,0.493435,-0.207328,48,269,583,6160
1644187222.575994,-0.008118,0.009766,-0.992432,0.190321,0.279695,-0.100458,51,279,583,6224
1644187222.624392,-0.007507,0.007874,-0.989258,0.342992,0.264427,0.082748,38,280,586,6176
1644187222.67281,-0.008728,0.011292,-0.990112,0.388794,0.401832,-0.054656,59,275,577,6224
1644187222.721176,-0.008301,0.015076,-0.990967,0.312458,0.386565,-0.222595,48,264,571,6224
1644187222.769586,-0.007629,0.010742,-0.99231,0.144519,0.523969,-0.085191,51,274,571,6224
1644187222.817957,-0.007019,0.007874,-0.990356,0.419328,0.356031,-0.039389,47,277,582,6176
1644187222.86638,-0.009949,0.009705,-0.990295,0.190321,0.340763,0.021679,51,274,585,6256
1644187222.91478,-0.005981,0.010315,-0.991577,0.068183,0.264427,-0.054656,51,271,590,6224
1644187222.96319,-0.007446,0.009949,-0.993774,0.08345,0.356031,-0.161527,52,277,586,6240
1644187223.011554,-0.007629,0.009033,-0.991089,0.220855,0.340763,-0.069924,53,271,601,6240
1644187223.068356,-0.007019,0.01001,-0.994202,0.251389,0.401832,-0.069924,43,271,587,6240
1644187223.10838,-0.009583,0.009766,-0.994141,0.266656,0.417099,-0.222595,43,274,585,6224
1644187223.156716,-0.008301,0.010742,-0.990845,0.312458,0.340763,-0.222595,58,269,587,6224
1644187223.205144,-0.010132,0.011108,-0.989563,0.113985,0.340763,-0.130992,47,277,579,6192
1644187223.253478,-0.005798,0.011719,-0.99353,-0.038687,0.325496,-0.329466,57,268,586,6192
1644187223.302254,-0.008057,0.009216,-0.991089,0.220855,0.417099,-0.054656,49,270,586,6192
1644187223.351221,-0.008484,0.011719,-0.992126,0.144519,0.340763,-0.161527,51,271,578,6240
1644187223.401756,-0.010803,0.007812,-0.991211,0.205588,0.462901,-0.192061,38,285,575,6176
1644187223.4519,-0.009827,0.008789,-0.990845,0.266656,0.401832,-0.161527,57,265,579,6256
1644187223.543884,-0.005188,0.00885,-0.992859,0.205588,0.447634,-0.207328,43,279,587,6176
1644187223.592446,-0.006714,0.008179,-0.991577,0.266656,0.279695,-0.176794,53,281,585,6240
1644187223.640637,-0.007507,0.011719,-0.988403,0.266656,0.462901,0.036947,53,269,583,6240
1644187223.68903,-0.008118,0.012817,-0.99115,0.08345,0.371298,-0.024122,49,277,582,6240
1644187223.737422,-0.009644,0.008911,-0.990112,0.190321,0.401832,0.036947,47,277,591,6176
1644187223.785821,-0.007751,0.009827,-0.991394,0.175053,0.310229,-0.115725,47,277,584,6192
1644187223.834212,-0.008545,0.011597,-0.992493,0.175053,0.539237,-0.130992,54,280,586,6224
1644187223.882668,-0.011108,0.010986,-0.993225,0.297191,0.539237,-0.039389,52,290,577,6304
1644187223.931042,-0.008118,0.009705,-0.993286,0.175053,0.417099,-0.115725,46,271,585,6224
1644187223.979444,-0.006287,0.006958,-0.989746,0.297191,0.432366,-0.161527,45,273,577,6224
1644187224.027839,-0.009583,0.010132,-0.992371,0.312458,0.569771,-0.115725,48,271,585,6288
1644187224.085408,-0.00824,0.010864,-0.992249,0.266656,0.432366,-0.130992,41,283,580,6224
1644187224.124672,-0.008057,0.010986,-0.989563,0.205588,0.447634,-0.100458,47,280,589,6224
1644187224.173187,-0.006653,0.010742,-0.992065,0.205588,0.569771,-0.085191,55,271,587,6240
1644187224.222586,-0.009521,0.011108,-0.989197,0.220855,0.24916,-0.100458,41,279,580,6240
1644187224.273088,-0.006653,0.010742,-0.99292,0.404061,0.478168,-0.115725,51,286,576,6240
1644187224.323187,-0.008057,0.010254,-0.989624,0.266656,0.264427,-0.130992,46,271,585,6288
1644187224.41504,-0.012695,0.010071,-0.992676,0.144519,0.356031,-0.176794,43,274,571,6240
1644187224.463338,-0.01062,0.011963,-0.990356,0.220855,0.432366,-0.085191,41,271,578,6288
1644187224.51169,-0.007324,0.010925,-0.992065,0.190321,0.325496,-0.100458,52,275,582,6256
1644187224.56011,-0.006775,0.010681,-0.990479,0.236122,0.462901,-0.054656,38,275,579,6176
1644187224.608503,-0.009705,0.006714,-0.992493,0.281924,0.356031,0.067481,52,275,584,6240
1644187224.656897,-0.010071,0.011597,-0.991821,0.236122,0.325496,-0.237863,46,276,590,6240
1644187224.705282,-0.009277,0.009277,-0.989929,0.190321,0.478168,-0.115725,49,277,579,6240
1644187224.753662,-0.008362,0.00824,-0.992981,0.190321,0.340763,0.12855,48,271,580,6240
1644187224.802076,-0.008667,0.009644,-0.990784,0.144519,0.386565,0.006412,41,279,580,6224
1644187224.850462,-0.008728,0.009216,-0.992188,0.037649,0.401832,-0.130992,45,280,579,6224
1644187224.898891,-0.007751,0.006897,-0.990723,0.113985,0.432366,0.036947,48,269,594,6224
1644187224.947264,-0.00885,0.008911,-0.989563,0.159786,0.371298,-0.161527,45,277,582,6240
1644187224.995685,-0.00708,0.010071,-0.990112,0.205588,0.325496,-0.176794,48,276,587,6224
1644187225.044091,-0.008606,0.011108,-0.993713,0.266656,0.340763,-0.115725,48,271,576,6256
1644187225.094708,-0.010498,0.01001,-0.991943,0.236122,0.493435,-0.054656,48,281,590,6176
1644187225.14088,-0.009216,0.009094,-0.991333,0.342992,0.417099,-0.024122,43,281,587,6224
1644187225.189273,-0.006653,0.010132,-0.989624,0.312458,0.493435,-0.100458,59,273,591,6224
1644187225.237701,-0.007874,0.00824,-0.993774,0.205588,0.462901,0.021679,46,283,583,6192
1644187225.286022,-0.007751,0.01062,-0.992249,0.144519,0.356031,0.036947,45,268,586,6256
1644187225.335478,-0.006836,0.01178,-0.991943,0.205588,0.417099,-0.024122,54,273,582,6192
1644187225.385651,-0.007629,0.010437,-0.994629,0.342992,0.356031,-0.100458,43,271,580,6256
1644187225.436619,-0.009155,0.01001,-0.99176,0.190321,0.539237,-0.100458,54,275,586,6192
1644187225.48058,-0.009766,0.010681,-0.991455,0.175053,0.264427,-0.085191,53,281,585,6224
1644187225.576375,-0.009033,0.008972,-0.993713,0.236122,0.356031,-0.115725,39,286,594,6288
1644187225.6249,-0.00885,0.006897,-0.990173,0.373527,0.310229,-0.024122,42,273,584,6224
1644187225.673191,-0.005493,0.010193,-0.989807,0.327725,0.478168,0.006412,45,270,589,6224
1644187225.721576,-0.007812,0.009766,-0.99231,0.220855,0.478168,-0.008855,46,264,590,6176
1644187225.769968,-0.00824,0.010864,-0.990356,0.236122,0.340763,0.082748,45,277,589,6192
1644187225.818364,-0.008423,0.007385,-0.99292,0.220855,0.356031,-0.100458,45,277,579,6240
1644187225.866745,-0.009399,0.007019,-0.991943,0.266656,0.447634,-0.100458,46,269,580,6176
1644187225.920165,-0.007263,0.012756,-0.991577,0.388794,0.371298,-0.039389,51,279,590,6240
1644187225.96356,-0.007202,0.010071,-0.993652,0.175053,0.493435,-0.085191,41,279,590,6224
1644187226.011915,-0.009949,0.009399,-0.993408,0.113985,0.432366,-0.176794,46,266,578,6224
1644187226.064759,-0.00885,0.009644,-0.993042,0.236122,0.417099,-0.222595,45,277,593,6224
1644187226.108702,-0.008301,0.011414,-0.988342,0.08345,0.386565,0.12855,47,282,577,6224
1644187226.157052,-0.011719,0.008728,-0.992859,0.251389,0.523969,-0.069924,36,279,583,6224
1644187226.205473,-0.00946,0.011719,-0.992737,0.190321,0.432366,-0.192061,46,276,590,6288
1644187226.253841,-0.010925,0.008362,-0.993591,0.388794,0.356031,-0.069924,47,277,575,6224
1644187226.302235,-0.008606,0.008484,-0.988281,0.129252,0.432366,-0.25313,46,279,578,6224
1644187226.350641,-0.008911,0.013,-0.991821,0.144519,0.417099,-0.069924,45,275,582,6224
1644187226.399047,-0.010254,0.008728,-0.991089,0.08345,0.447634,-0.14626,48,271,573,6192
1644187226.447757,-0.006042,0.008667,-0.991638,0.266656,0.539237,-0.085191,51,281,580,6224
1644187226.496621,-0.010803,0.010254,-0.991394,0.205588,0.432366,-0.222595,55,264,587,6240
1644187226.547637,-0.007812,0.011047,-0.991943,0.281924,0.462901,-0.115725,43,274,580,6240
1644187226.597395,-0.006775,0.010681,-0.994202,0.281924,0.600305,0.036947,40,285,586,6224
1644187226.642241,-0.007935,0.011902,-0.994812,0.35826,0.417099,-0.085191,51,274,587,6240
1644187226.737779,-0.007019,0.007019,-0.990601,0.175053,0.478168,0.021679,51,276,590,6176
1644187226.786161,-0.008728,0.010132,-0.99176,0.144519,0.722443,-0.024122,51,276,585,6192
1644187226.834666,-0.009766,0.011658,-0.993103,0.312458,0.417099,-0.008855,54,273,584,6224
1644187226.88303,-0.006653,0.01062,-0.992737,0.251389,0.493435,-0.115725,42,277,586,6176
1644187226.931406,-0.007751,0.007935,-0.991089,0.175053,0.661374,-0.115725,35,273,584,6224
1644187226.979779,-0.006104,0.011963,-0.990356,0.113985,0.264427,-0.024122,54,277,589,6224
1644187227.02822,-0.006531,0.008789,-0.992249,0.312458,0.554504,-0.008855,41,281,585,6224
1644187227.08336,-0.006653,0.009216,-0.990906,0.159786,0.386565,-0.161527,52,282,586,6240
1644187227.124921,-0.005371,0.006409,-0.992432,0.35826,0.462901,-0.100458,49,270,589,6224
1644187227.173331,-0.009521,0.008301,-0.993774,0.388794,0.401832,-0.222595,51,281,585,6224
1644187227.221719,-0.008362,0.010925,-0.991455,0.220855,0.371298,-0.115725,51,279,587,6224
1644187227.270103,-0.008972,0.010071,-0.990662,0.251389,0.233893,-0.100458,49,277,591,6224
1644187227.318503,-0.008423,0.010254,-0.994263,0.190321,0.371298,-0.024122,49,275,582,6224
1644187227.366906,-0.006409,0.01001,-0.990173,0.190321,0.371298,-0.039389,57,277,584,6240
1644187227.415291,-0.01001,0.012634,-0.991638,0.236122,0.401832,-0.100458,47,280,593,6176
1644187227.463691,-0.008484,0.009521,-0.991455,0.144519,0.188092,-0.039389,45,280,586,6240
1644187227.51207,-0.006775,0.011963,-0.989502,0.449863,0.493435,-0.130992,51,279,597,6256
1644187227.560478,-0.00946,0.01062,-0.993591,0.220855,0.417099,0.021679,51,274,585,6224
1644187227.60905,-0.005981,0.010742,-0.990784,0.281924,0.386565,-0.069924,46,281,580,6224
1644187227.657713,-0.007202,0.009338,-0.990417,0.312458,0.401832,-0.176794,51,264,587,6256
1644187227.708288,-0.00824,0.010864,-0.990295,0.159786,0.401832,-0.069924,53,276,587,6240
1644187227.758296,-0.012573,0.008911,-0.989868,0.266656,0.356031,-0.14626,43,276,594,6224
1644187227.850847,-0.009216,0.011108,-0.988708,0.266656,0.401832,-0.039389,51,279,590,6240
1644187227.899257,-0.007324,0.008179,-0.989624,0.098718,0.508702,-0.100458,53,269,583,6240
1644187227.947657,-0.008362,0.011841,-0.991638,0.159786,0.325496,-0.054656,43,276,580,6192
1644187227.996048,-0.007446,0.01001,-0.99115,0.205588,0.523969,-0.008855,51,276,585,6128
1644187228.054102,-0.008667,0.009094,-0.992859,0.281924,0.340763,-0.039389,58,271,585,6240
1644187228.095942,-0.007507,0.00946,-0.993958,0.068183,0.340763,-0.115725,49,275,589,6224
1644187228.14119,-0.009888,0.011841,-0.991333,0.236122,0.432366,-0.039389,53,279,585,6224
1644187228.189588,-0.006958,0.009033,-0.989319,0.297191,0.523969,-0.024122,53,276,585,6240
1644187228.237965,-0.008118,0.009888,-0.993103,0.281924,0.493435,-0.115725,48,274,592,6240
1644187228.286355,-0.006958,0.009888,-0.995361,0.251389,0.386565,-0.192061,51,286,587,6224
1644187228.334762,-0.010376,0.010925,-0.990723,0.220855,0.447634,-0.237863,52,275,579,6256
1644187228.383168,-0.007324,0.010193,-0.992371,0.205588,0.401832,-0.024122,54,277,586,6224
1644187228.431547,-0.00946,0.006958,-0.992615,0.190321,0.203359,-0.054656,45,273,582,6240
1644187228.479914,-0.010315,0.010498,-0.990601,0.236122,0.371298,-0.008855,52,277,579,6192
1644187228.528331,-0.006836,0.011047,-0.989014,0.281924,0.478168,-0.069924,40,265,596,6224
1644187228.576895,-0.007385,0.009888,-0.992798,0.129252,0.325496,0.006412,42,285,582,6224
1644187228.627364,-0.008667,0.009338,-0.992249,0.373527,0.294962,0.021679,41,279,580,6192
1644187228.677893,-0.010254,0.008118,-0.99115,0.342992,0.432366,-0.176794,45,275,584,6240
1644187228.722618,-0.009216,0.010681,-0.990723,0.220855,0.447634,-0.130992,48,269,587,6224
1644187228.81868,-0.006836,0.009583,-0.989014,0.236122,0.203359,0.036947,57,280,582,6240
1644187228.86712,-0.005371,0.011658,-0.992432,0.220855,0.401832,-0.207328,43,271,578,6240
1644187228.915513,-0.007935,0.009094,-0.993103,0.129252,0.523969,-0.008855,48,271,573,6224
1644187228.963916,-0.007385,0.007263,-0.994202,0.281924,0.417099,-0.024122,41,274,585,6224
1644187229.01233,-0.010132,0.011597,-0.992371,0.205588,0.493435,-0.237863,46,283,578,6192
1644187229.061419,-0.008728,0.009705,-0.991211,0.236122,0.417099,0.067481,55,276,583,6224
1644187229.109085,-0.007507,0.00946,-0.989136,0.190321,0.340763,-0.054656,53,281,583,6224
1644187229.157437,-0.008362,0.012573,-0.99115,0.159786,0.493435,-0.161527,40,270,577,6240
1644187229.205825,-0.008484,0.009949,-0.98999,0.205588,0.340763,-0.039389,38,282,584,6256
1644187229.254228,-0.009094,0.008362,-0.992371,0.159786,0.356031,-0.130992,54,273,586,6112
1644187229.302627,-0.009888,0.010742,-0.991821,0.342992,0.401832,-0.008855,48,269,585,6224
1644187229.351013,-0.007874,0.011169,-0.99231,0.205588,0.493435,-0.222595,51,274,594,6160
1644187229.399393,-0.007629,0.010071,-0.989807,0.236122,0.462901,-0.024122,52,292,586,6224
1644187229.447813,-0.005859,0.01123,-0.991638,0.129252,0.462901,-0.008855,51,269,583,6224
1644187229.496201,-0.009094,0.008179,-0.994263,0.175053,0.417099,-0.14626,49,277,591,6224
1644187229.544633,-0.009583,0.011536,-0.988831,0.35826,0.523969,-0.100458,48,276,590,6224
1644187229.592991,-0.010559,0.011414,-0.990112,0.251389,0.417099,-0.115725,41,271,585,6256
1644187229.641369,-0.011047,0.006409,-0.992676,0.175053,0.539237,-0.222595,51,276,580,6176
1644187229.689755,-0.007568,0.006897,-0.991211,0.190321,0.432366,-0.039389,51,269,576,6192
1644187229.73817,-0.007568,0.010254,-0.992554,0.312458,0.447634,0.006412,46,271,587,6224
1644187229.788616,-0.007996,0.008911,-0.994751,0.266656,0.401832,-0.14626,47,275,582,6224
1644187229.839088,-0.009827,0.010071,-0.988708,0.388794,0.478168,-0.100458,49,277,586,6160
1644187229.884269,-0.007568,0.008728,-0.994934,0.266656,0.417099,-0.024122,45,282,584,6256
1644187229.980153,-0.011841,0.010498,-0.990662,0.037649,0.401832,-0.161527,48,274,587,6224
1644187230.028556,-0.01001,0.007141,-0.993835,0.236122,0.24916,0.067481,43,279,580,6192
1644187230.080915,-0.007385,0.009705,-0.993225,0.236122,0.356031,-0.14626,42,280,596,6240
1644187230.125338,-0.008972,0.010071,-0.990967,0.175053,0.386565,-0.008855,41,271,578,6224
1644187230.173697,-0.009644,0.011169,-0.992493,0.236122,0.340763,-0.130992,52,282,586,6224
1644187230.222141,-0.01001,0.011963,-0.992371,0.205588,0.371298,-0.024122,55,276,587,6224
1644187230.270455,-0.010376,0.008362,-0.994751,0.205588,0.340763,-0.115725,36,274,583,6256
1644187230.318888,-0.010559,0.009216,-0.990662,0.144519,0.401832,-0.069924,42,280,582,6240
1644187230.367244,-0.010498,0.011292,-0.993469,0.266656,0.493435,-0.069924,46,279,587,6224
1644187230.415693,-0.007812,0.007568,-0.990234,0.236122,0.401832,-0.054656,46,276,590,6240
1644187230.464067,-0.012451,0.009521,-0.989136,0.327725,0.554504,-0.14626,52,270,582,6240
1644187230.512442,-0.008667,0.008057,-0.99353,0.220855,0.493435,-0.161527,53,269,594,6160
1644187230.560822,-0.00708,0.008911,-0.990417,0.129252,0.310229,-0.085191,52,273,586,6224
1644187230.609228,-0.008606,0.009338,-0.992371,0.144519,0.371298,0.006412,54,277,591,6256
1644187230.657617,-0.008545,0.010254,-0.991089,0.220855,0.600305,-0.039389,49,277,579,6192
1644187230.705982,-0.00592,0.008057,-0.992981,0.175053,0.356031,-0.054656,48,283,587,6240
1644187230.754388,-0.009521,0.008606,-0.992676,0.236122,0.386565,0.021679,53,269,578,6240
1644187230.802822,-0.010864,0.009766,-0.99115,0.266656,0.447634,-0.024122,51,269,576,6240
1644187230.851241,-0.008057,0.008606,-0.991272,0.098718,0.371298,-0.207328,49,275,579,6240
1644187230.900781,-0.007935,0.008423,-0.992981,0.312458,0.356031,-0.024122,57,275,584,6256
1644187230.951245,-0.006531,0.011047,-0.991455,0.266656,0.310229,-0.14626,55,281,587,6240
1644187231.001163,-0.00824,0.007141,-0.991272,0.281924,0.523969,-0.054656,40,275,584,6240
1644187231.057036,-0.004395,0.008789,-0.989929,0.220855,0.447634,-0.085191,45,270,593,6192
1644187231.141588,-0.009338,0.012268,-0.992554,0.205588,0.508702,-0.14626,53,269,578,6224
1644187231.18992,-0.008972,0.013428,-0.993286,0.297191,0.279695,-0.054656,52,270,586,6240
1644187231.238327,-0.008301,0.008484,-0.991394,0.205588,0.356031,-0.024122,43,269,573,6128
1644187231.286718,-0.008545,0.011414,-0.991089,0.098718,0.523969,-0.130992,39,271,576,6256
1644187231.335167,-0.006958,0.010254,-0.991455,0.373527,0.493435,-0.115725,43,283,585,6192
1644187231.383531,-0.008484,0.006897,-0.991882,0.175053,0.371298,-0.115725,41,293,590,6192
1644187231.431917,-0.006165,0.010803,-0.990234,0.220855,0.447634,-0.115725,49,285,584,6256
1644187231.480304,-0.010742,0.009827,-0.990234,0.113985,0.447634,-0.192061,47,273,584,6224
1644187231.528704,-0.008606,0.008972,-0.994141,0.159786,0.523969,-0.100458,46,283,580,6224
1644187231.577099,-0.009033,0.009644,-0.989502,0.327725,0.493435,-0.054656,48,276,580,6240
1644187231.625466,-0.012024,0.008606,-0.991089,0.236122,0.523969,-0.115725,46,283,585,6240
1644187231.673913,-0.008484,0.008667,-0.992554,0.175053,0.340763,-0.085191,52,282,586,6288
1644187231.722277,-0.009827,0.014343,-0.991882,0.220855,0.203359,0.098015,52,282,579,6240
1644187231.770659,-0.008606,0.009766,-0.990967,0.175053,0.432366,-0.130992,45,273,584,6192
1644187231.81907,-0.007568,0.012024,-0.992554,0.220855,0.325496,-0.14626,45,260,577,6160
1644187231.8675,-0.011047,0.010681,-0.992371,0.373527,0.371298,-0.085191,46,269,587,6240
1644187231.915892,-0.009827,0.010681,-0.993469,0.007115,0.432366,-0.192061,46,274,594,6240
1644187231.964371,-0.011292,0.009277,-0.992432,0.159786,0.432366,-0.130992,47,275,582,6192
1644187232.012716,-0.00824,0.010559,-0.990295,0.144519,0.462901,0.067481,46,271,585,6224
1644187232.08538,-0.009827,0.009888,-0.990417,0.159786,0.447634,0.036947,45,287,593,6256
1644187232.157861,-0.008728,0.011841,-0.989685,0.052916,0.386565,-0.207328,43,281,583,6256
1644187232.206173,-0.009399,0.010742,-0.991638,0.144519,0.356031,0.082748,52,273,584,6240
1644187232.254851,-0.010925,0.01001,-0.991943,0.159786,0.386565,-0.085191,45,277,579,6224
1644187232.302989,-0.005798,0.010803,-0.992004,0.251389,0.462901,-0.207328,45,282,582,6176
1644187232.351381,-0.009094,0.008118,-0.99231,0.175053,0.417099,-0.115725,52,270,582,6240
1644187232.399767,-0.005676,0.008606,-0.989868,0.220855,0.417099,-0.100458,58,276,587,6160
1644187232.448163,-0.008057,0.009155,-0.993286,0.342992,0.447634,-0.25313,52,273,582,6224
1644187232.496555,-0.008301,0.010193,-0.992615,0.251389,0.585038,-0.207328,54,277,577,6288
1644187232.545097,-0.006836,0.010315,-0.991699,0.175053,0.386565,-0.222595,41,271,578,6256
1644187232.593327,-0.007263,0.009338,-0.991089,0.327725,0.386565,-0.14626,43,274,578,6256
1644187232.641736,-0.009949,0.012817,-0.993774,0.251389,0.508702,-0.100458,39,279,587,6176
1644187232.690088,-0.009705,0.008301,-0.992004,0.190321,0.462901,-0.25313,51,274,583,6288
1644187232.738528,-0.010376,0.010803,-0.990906,0.129252,0.386565,-0.100458,48,281,592,6224
1644187232.786914,-0.006592,0.009766,-0.992737,0.266656,0.478168,-0.14626,53,269,592,6256
1644187232.835319,-0.008301,0.009277,-0.991638,0.08345,0.523969,-0.039389,47,275,579,6240
1644187232.88375,-0.008789,0.009399,-0.991028,0.190321,0.478168,-0.176794,59,285,584,6256
1644187232.932183,-0.007568,0.010986,-0.990295,0.236122,0.371298,-0.268397,51,274,592,6240
1644187232.981128,-0.007507,0.012939,-0.992065,0.220855,0.356031,-0.100458,54,275,591,6224
1644187233.02894,-0.00885,0.010437,-0.988098,0.373527,0.188092,-0.085191,51,286,585,6240
1644187233.090051,-0.010559,0.009827,-0.990784,0.175053,0.432366,-0.039389,48,283,587,6256
1644187233.131549,-0.010315,0.006592,-0.991455,0.159786,0.325496,-0.207328,51,279,583,6256
1644187233.222538,-0.008911,0.011963,-0.990723,0.236122,0.478168,-0.085191,46,276,585,6224
1644187233.270885,-0.009155,0.009094,-0.992065,0.327725,0.493435,-0.115725,42,277,575,6240
1644187233.319251,-0.005615,0.009766,-0.993591,0.297191,0.447634,-0.14626,40,277,582,6192
1644187233.367678,-0.007935,0.010803,-0.990845,0.098718,0.386565,-0.069924,49,282,582,6256
1644187233.416062,-0.007324,0.008972,-0.993103,0.052916,0.203359,0.082748,48,262,576,6176
1644187233.46447,-0.006897,0.01178,-0.991821,0.129252,0.554504,-0.130992,58,271,580,6224
1644187233.51287,-0.008789,0.00824,-0.989197,0.266656,0.432366,-0.008855,47,280,582,6256
1644187233.561244,-0.007568,0.008667,-0.992004,0.175053,0.371298,-0.085191,46,281,583,6192
1644187233.609614,-0.005371,0.010437,-0.990356,0.251389,0.340763,-0.008855,49,285,584,6240
1644187233.658027,-0.009033,0.010254,-0.991455,0.297191,0.432366,0.006412,41,281,578,6240
1644187233.706425,-0.007874,0.009033,-0.989624,0.266656,0.371298,-0.085191,45,277,584,6224
1644187233.754814,-0.007446,0.007874,-0.99231,0.281924,0.478168,-0.085191,52,273,582,6240
1644187233.803202,-0.009033,0.010071,-0.991516,0.266656,0.294962,0.021679,42,280,582,6224
1644187233.851605,-0.008606,0.009216,-0.989868,0.312458,0.356031,-0.085191,55,264,590,6176
1644187233.899994,-0.007935,0.010559,-0.989807,0.190321,0.340763,-0.130992,42,277,589,6256
1644187233.948357,-0.008484,0.008667,-0.990295,0.35826,0.539237,-0.024122,46,276,590,6240
1644187233.996755,-0.010315,0.010986,-0.989197,0.297191,0.340763,-0.14626,53,274,580,6128
1644187234.045515,-0.007812,0.01062,-0.992981,0.251389,0.539237,-0.130992,53,288,590,6256
1644187234.097516,-0.008789,0.009155,-0.990967,0.281924,0.371298,-0.069924,53,274,592,6256
1644187234.142583,-0.01123,0.007507,-0.989685,0.159786,0.432366,-0.054656,40,277,579,6160
1644187234.19293,-0.009155,0.007385,-0.993591,0.113985,0.279695,-0.222595,49,280,591,6224
1644187234.243587,-0.006042,0.007263,-0.992004,0.35826,0.417099,-0.115725,51,269,583,6224
1644187234.288269,-0.009521,0.010254,-0.990295,0.144519,0.447634,-0.115725,60,271,576,6224
1644187234.383895,-0.008057,0.01239,-0.991638,0.190321,0.493435,-0.14626,55,281,573,6240
1644187234.432307,-0.010559,0.01416,-0.991577,0.129252,0.340763,0.021679,52,273,584,6160
1644187234.48066,-0.009888,0.011047,-0.99292,0.205588,0.554504,0.052214,55,276,576,6224
1644187234.529067,-0.007996,0.010437,-0.993164,0.281924,0.294962,-0.130992,53,283,594,6160
1644187234.577425,-0.008179,0.011353,-0.993591,0.342992,0.310229,-0.115725,57,277,579,6192
1644187234.625839,-0.010254,0.012512,-0.991577,0.297191,0.493435,-0.237863,52,285,575,6224
1644187234.674249,-0.007751,0.008667,-0.992554,0.144519,0.508702,-0.115725,58,264,580,6224
1644187234.722648,-0.006775,0.008057,-0.993896,0.236122,0.325496,-0.085191,46,281,583,6192
1644187234.77108,-0.007874,0.012085,-0.99231,0.190321,0.371298,-0.222595,49,280,579,6288
1644187234.819474,-0.007507,0.011536,-0.992371,0.190321,0.539237,-0.161527,51,276,580,6256
1644187234.867859,-0.007324,0.010925,-0.992188,0.342992,0.462901,-0.054656,48,281,590,6176
1644187234.916252,-0.007874,0.010437,-0.99408,0.129252,0.356031,-0.054656,41,274,592,6256
1644187234.964734,-0.006653,0.011353,-0.990601,0.159786,0.340763,0.036947,54,282,586,6224
1644187235.013057,-0.006042,0.012329,-0.990051,0.266656,0.447634,-0.100458,46,279,587,6240
1644187235.08054,-0.008911,0.012207,-0.992249,0.220855,0.386565,-0.115725,51,274,597,6240
1644187235.109777,-0.008301,0.01001,-0.989197,0.144519,0.462901,-0.008855,38,273,579,6240
1644187235.158171,-0.008728,0.010315,-0.990356,0.205588,0.478168,-0.039389,51,281,580,6224
1644187235.207209,-0.008667,0.010193,-0.990051,0.236122,0.462901,-0.207328,48,274,587,6176
1644187235.257246,-0.00946,0.005981,-0.994141,0.251389,0.432366,-0.024122,57,277,584,6224
1644187235.307448,-0.010071,0.009033,-0.994141,0.113985,0.478168,-0.130992,54,275,584,6224
1644187235.352338,-0.007629,0.010376,-0.995361,0.205588,0.401832,-0.085191,43,271,590,6224
1644187235.448506,-0.009644,0.009338,-0.989807,0.159786,0.447634,-0.176794,46,281,583,6224
1644187235.496902,-0.008484,0.007507,-0.991943,0.220855,0.478168,0.036947,46,269,583,6240
1644187235.545394,-0.008545,0.007568,-0.994385,0.266656,0.523969,-0.024122,51,279,587,6112
1644187235.593694,-0.00647,0.009949,-0.990417,0.251389,0.401832,-0.130992,48,271,590,6224
1644187235.642089,-0.009399,0.010193,-0.992126,0.144519,0.493435,-0.192061,51,279,583,6224
1644187235.690495,-0.007568,0.009277,-0.990601,0.144519,0.447634,-0.115725,47,273,589,6224
1644187235.738879,-0.011414,0.00946,-0.99408,0.205588,0.462901,-0.008855,48,274,592,6256
1644187235.787281,-0.009644,0.008484,-0.991028,0.236122,0.600305,-0.192061,52,290,596,6192
1644187235.835675,-0.009094,0.009888,-0.990356,0.144519,0.462901,-0.283664,53,283,585,6256
1644187235.884118,-0.008057,0.010986,-0.989441,0.205588,0.447634,-0.268397,53,276,583,6224
1644187235.932525,-0.00885,0.009644,-0.989197,0.220855,0.356031,-0.069924,48,279,583,6256
1644187235.980896,-0.006775,0.010925,-0.992432,0.312458,0.356031,-0.192061,49,275,586,6224
1644187236.029278,-0.00885,0.008667,-0.991394,0.098718,0.508702,-0.268397,42,285,584,6128
1644187236.085284,-0.008484,0.009399,-0.988525,0.266656,0.432366,0.052214,43,274,592,6224
1644187236.126046,-0.008789,0.011475,-0.991211,0.144519,0.447634,-0.039389,61,265,593,6240
1644187236.174422,-0.007385,0.011108,-0.993347,0.144519,0.432366,-0.130992,53,291,587,6192
1644187236.223046,-0.011047,0.008484,-0.991089,0.159786,0.417099,-0.054656,46,274,590,6240
1644187236.271322,-0.008972,0.013794,-0.991821,0.190321,0.508702,0.021679,52,273,589,6256
1644187236.320727,-0.01001,0.009583,-0.993591,0.205588,0.325496,-0.069924,49,285,589,6224
1644187236.371008,-0.007568,0.009216,-0.991272,0.190321,0.539237,-0.115725,36,271,578,6224
1644187236.421303,-0.009033,0.007507,-0.992249,0.129252,0.340763,-0.054656,52,277,582,6240
1644187236.5132,-0.009338,0.007507,-0.991394,0.190321,0.325496,-0.100458,51,274,585,6224
1644187236.561583,-0.007446,0.010193,-0.991333,0.052916,0.294962,-0.222595,53,276,590,6224
1644187236.609951,-0.007629,0.008362,-0.989746,0.190321,0.386565,-0.024122,47,275,586,6176
1644187236.658352,-0.010071,0.008179,-0.992981,0.144519,0.386565,-0.008855,46,274,569,6224
1644187236.706737,-0.008545,0.00769,-0.992004,0.159786,0.554504,-0.207328,38,282,586,6240
1644187236.755171,-0.010254,0.010193,-0.990784,0.205588,0.371298,-0.100458,47,273,591,6256
1644187236.803535,-0.007812,0.009399,-0.992126,0.495664,0.478168,0.021679,43,283,580,6160
1644187236.851969,-0.009888,0.012024,-0.994263,0.129252,0.264427,-0.176794,48,279,590,6224
1644187236.900359,-0.00946,0.010315,-0.990051,0.205588,0.478168,-0.024122,67,276,594,6192
1644187236.948765,-0.009888,0.009094,-0.99585,0.342992,0.340763,0.021679,51,266,580,6192
1644187236.997112,-0.005737,0.008057,-0.993713,0.144519,0.386565,-0.085191,46,271,580,6240
1644187237.054211,-0.010742,0.007812,-0.995605,0.373527,0.218626,-0.130992,45,268,584,6224
1644187237.094816,-0.005188,0.007812,-0.991821,0.205588,0.447634,-0.100458,52,270,572,6256
1644187237.142312,-0.007812,0.008606,-0.994507,0.266656,0.417099,0.006412,49,282,582,6304
1644187237.190649,-0.010559,0.010742,-0.991882,0.08345,0.218626,-0.115725,55,276,585,6224
1644187237.239066,-0.00708,0.011414,-0.990051,0.388794,0.493435,-0.085191,51,269,592,6304
1644187237.28747,-0.009521,0.010498,-0.992981,0.342992,0.462901,-0.008855,49,282,582,6224
1644187237.335839,-0.009277,0.011292,-0.990662,0.251389,0.63084,-0.085191,57,277,593,6224
1644187237.384251,-0.007446,0.010376,-0.990906,0.144519,0.478168,-0.054656,55,274,594,6224
1644187237.432701,-0.008423,0.011536,-0.990662,0.373527,0.462901,-0.14626,52,265,596,6224
1644187237.482928,-0.007141,0.007874,-0.990112,0.113985,0.508702,0.021679,57,285,593,6192
1644187237.533279,-0.008301,0.009766,-0.989929,0.068183,0.447634,-0.222595,49,270,586,6256
1644187237.578431,-0.009949,0.011292,-0.993225,0.052916,0.447634,-0.039389,40,287,575,6304
1644187237.674857,-0.010315,0.00885,-0.99115,0.159786,0.386565,-0.100458,43,276,576,6304
1644187237.723021,-0.01123,0.01123,-0.99115,0.08345,0.417099,-0.390534,49,273,584,6224
1644187237.77139,-0.009888,0.012634,-0.990723,0.129252,0.523969,-0.054656,38,285,586,6224
1644187237.819787,-0.008728,0.00769,-0.990906,0.220855,0.356031,-0.207328,45,270,589,6240
1644187237.868223,-0.009216,0.008057,-0.993652,0.159786,0.310229,-0.161527,46,266,576,6224
1644187237.916607,-0.009216,0.00885,-0.993958,0.144519,0.386565,-0.069924,45,275,586,6224
1644187237.965041,-0.009216,0.010986,-0.993469,0.175053,0.325496,-0.130992,65,274,594,6240
1644187238.0134,-0.011169,0.008423,-0.996033,0.144519,0.325496,-0.237863,47,268,584,6240
1644187238.064929,-0.008606,0.011475,-0.989441,0.205588,0.417099,-0.085191,51,288,578,6224
1644187238.110209,-0.010437,0.010681,-0.990662,0.190321,0.386565,-0.207328,49,280,593,6224
1644187238.158537,-0.008179,0.010986,-0.989929,0.220855,0.447634,-0.100458,54,280,589,6224
1644187238.206938,-0.010681,0.007751,-0.992065,0.297191,0.386565,-0.008855,61,275,579,6192
1644187238.255326,-0.007324,0.009888,-0.988586,0.190321,0.478168,-0.039389,54,277,577,6224
1644187238.303721,-0.008118,0.010254,-0.990417,0.175053,0.478168,0.006412,40,275,586,6224
1644187238.352306,-0.010803,0.006958,-0.992126,0.144519,0.294962,-0.207328,49,290,579,6256
1644187238.400505,-0.008118,0.006653,-0.991394,0.113985,0.447634,-0.054656,42,273,586,6176
1644187238.448892,-0.008301,0.008118,-0.991882,0.236122,0.432366,-0.130992,53,274,585,6224
1644187238.49728,-0.010742,0.007141,-0.992798,0.129252,0.325496,-0.115725,47,282,584,6256
1644187238.545643,-0.008545,0.010864,-0.993958,0.08345,0.310229,-0.161527,40,268,591,6240
1644187238.594087,-0.008362,0.00885,-0.989014,0.251389,0.340763,-0.100458,41,279,590,6224
1644187238.644271,-0.011108,0.008057,-0.99353,0.113985,0.371298,-0.054656,55,281,580,6224
1644187238.69497,-0.007141,0.009033,-0.989563,0.266656,0.462901,-0.130992,46,274,583,6224
1644187238.739839,-0.009949,0.00946,-0.991638,0.35826,0.325496,-0.207328,59,280,565,6160
1644187238.836026,-0.007874,0.008362,-0.994568,0.205588,0.325496,-0.222595,39,279,580,6224
1644187238.884502,-0.010193,0.011353,-0.992126,0.205588,0.325496,-0.115725,49,275,584,6224
1644187238.932863,-0.011841,0.009277,-0.992615,0.052916,0.233893,-0.237863,48,274,592,6224
1644187238.981258,-0.005737,0.009705,-0.99176,0.251389,0.218626,-0.085191,42,268,582,6224
1644187239.029632,-0.007507,0.009033,-0.992859,0.220855,0.493435,-0.039389,52,270,586,6224
1644187239.078096,-0.009766,0.008179,-0.989746,0.327725,0.325496,-0.115725,43,274,590,6224
1644187239.126406,-0.005066,0.009705,-0.992615,0.297191,0.279695,-0.069924,47,282,586,6176
1644187239.174801,-0.00885,0.013367,-0.991638,0.190321,0.371298,-0.161527,54,282,577,6240
1644187239.22317,-0.006348,0.009705,-0.990112,0.281924,0.401832,-0.069924,54,277,575,6224
1644187239.271575,-0.008667,0.010132,-0.99231,0.236122,0.432366,-0.100458,47,280,586,6160
1644187239.319968,-0.008789,0.009949,-0.992371,0.190321,0.371298,-0.100458,53,271,590,6256
1644187239.368335,-0.009155,0.005371,-0.989807,0.007115,0.432366,-0.069924,47,277,584,6288
1644187239.416745,-0.008362,0.008362,-0.99054,0.190321,0.447634,-0.054656,51,283,583,6176
1644187239.465245,-0.007202,0.010315,-0.993713,0.205588,0.325496,-0.207328,47,275,579,6192
1644187239.513525,-0.009216,0.008362,-0.989807,0.113985,0.478168,-0.039389,47,275,589,6256
1644187239.561933,-0.011719,0.009766,-0.993469,0.129252,0.447634,-0.176794,46,279,583,6256
1644187239.610298,-0.007385,0.010559,-0.992004,0.144519,0.294962,-0.085191,48,283,592,6224
1644187239.658719,-0.008728,0.008423,-0.991394,0.144519,0.432366,0.036947,48,271,585,6192
1644187239.707114,-0.006653,0.006287,-0.994141,0.159786,0.401832,-0.039389,45,273,591,6240
1644187239.755792,-0.010132,0.009094,-0.993958,0.144519,0.554504,-0.054656,51,266,578,6240
1644187239.806275,-0.010925,0.010071,-0.992188,0.190321,0.340763,-0.069924,49,273,582,6224
1644187239.85674,-0.009155,0.008911,-0.992065,0.144519,0.554504,-0.161527,42,275,589,6240
1644187239.901888,-0.010681,0.010376,-0.990601,0.373527,0.493435,-0.115725,54,260,579,6224
1644187239.9975,-0.009399,0.007996,-0.990417,0.113985,0.417099,-0.039389,55,279,583,6304
1644187240.06441,-0.006531,0.008911,-0.991699,0.159786,0.417099,-0.039389,60,274,597,6240
1644187240.097107,-0.009705,0.009277,-0.989075,0.251389,0.523969,-0.14626,51,281,594,6224
1644187240.142716,-0.008423,0.009644,-0.99408,0.159786,0.417099,-0.069924,41,276,569,6240
1644187240.191055,-0.009888,0.012451,-0.988953,0.205588,0.432366,-0.100458,53,279,590,6240
1644187240.239433,-0.010498,0.010925,-0.993774,0.388794,0.356031,-0.130992,55,269,585,6224
1644187240.287835,-0.008606,0.01062,-0.992371,0.327725,0.371298,-0.039389,42,263,600,6224
1644187240.336218,-0.007812,0.00946,-0.99231,0.098718,0.401832,-0.024122,46,274,594,6224
1644187240.384659,-0.008911,0.009766,-0.991577,0.312458,0.600305,-0.069924,54,273,584,6192
1644187240.43302,-0.008057,0.01123,-0.993286,0.175053,0.478168,-0.130992,46,281,585,6224
1644187240.481714,-0.008972,0.008911,-0.991394,0.022382,0.432366,-0.039389,58,266,580,6224
1644187240.53077,-0.007812,0.007751,-0.99115,0.312458,0.432366,-0.069924,43,274,587,6224
1644187240.581266,-0.007141,0.009888,-0.990417,0.175053,0.294962,-0.161527,54,273,575,6224
1644187240.631452,-0.008301,0.009583,-0.993286,0.159786,0.279695,-0.130992,41,274,592,6288
1644187240.723382,-0.011414,0.01001,-0.991455,0.236122,0.493435,-0.207328,57,270,584,6192
1644187240.771752,-0.010071,0.011658,-0.991394,0.205588,0.462901,0.082748,47,280,589,6224
1644187240.820133,-0.009216,0.009521,-0.994019,0.037649,0.447634,-0.14626,47,285,589,6224
1644187240.868524,-0.008667,0.008118,-0.992981,0.098718,0.401832,-0.024122,47,275,586,6240
1644187240.916957,-0.012146,0.008667,-0.993042,0.098718,0.340763,-0.039389,48,276,583,6240
1644187240.965354,-0.007935,0.007935,-0.991821,0.266656,0.523969,-0.14626,55,271,576,6080
1644187241.01377,-0.01123,0.007568,-0.991028,0.205588,0.356031,-0.008855,47,270,589,6240
1644187241.066893,-0.008057,0.010071,-0.993286,0.08345,0.478168,-0.14626,41,276,585,6224
1644187241.110529,-0.010193,0.009521,-0.991638,0.251389,0.447634,-0.100458,55,274,587,6240
1644187241.158904,-0.011108,0.009094,-0.99115,0.205588,0.432366,0.036947,45,253,577,6224
1644187241.207305,-0.007874,0.01239,-0.992615,0.159786,0.569771,-0.039389,58,281,576,6224
1644187241.255661,-0.010132,0.011047,-0.99115,0.205588,0.356031,-0.069924,45,268,593,6224
1644187241.304061,-0.006653,0.008911,-0.991089,0.297191,0.478168,-0.25313,51,257,583,6240
1644187241.35249,-0.008972,0.007935,-0.993347,0.205588,0.340763,0.021679,54,277,577,6224
1644187241.400868,-0.009705,0.01178,-0.992737,0.205588,0.523969,-0.085191,34,264,578,6304
1644187241.449259,-0.005981,0.00946,-0.993713,0.205588,0.386565,-0.14626,53,283,583,6256
1644187241.497671,-0.006653,0.007263,-0.994141,0.113985,0.264427,-0.100458,51,274,594,6240
1644187241.546042,-0.007385,0.009949,-0.991333,0.175053,0.203359,-0.085191,57,263,589,6128
1644187241.59445,-0.010925,0.010071,-0.990723,0.220855,0.462901,-0.039389,49,280,591,6224
1644187241.643112,-0.008728,0.010315,-0.991211,0.144519,0.371298,-0.054656,45,280,598,6240
1644187241.693602,-0.009399,0.012329,-0.991455,0.266656,0.279695,-0.130992,55,271,580,6224
1644187241.743866,-0.011047,0.010315,-0.988159,0.175053,0.386565,-0.054656,52,280,584,6192
1644187241.788804,-0.011536,0.009827,-0.991455,0.175053,0.340763,-0.161527,46,279,583,6288
1644187241.884906,-0.007019,0.006348,-0.989929,0.037649,0.310229,-0.237863,39,274,583,6224
1644187241.933207,-0.008423,0.009766,-0.990601,0.236122,0.310229,-0.161527,43,283,585,6240
1644187241.981606,-0.00708,0.009521,-0.991821,0.281924,0.401832,-0.008855,49,268,579,6240
1644187242.030009,-0.008057,0.011841,-0.993408,0.190321,0.310229,-0.069924,49,273,579,6240
1644187242.078464,-0.009949,0.00769,-0.99292,0.342992,0.462901,-0.222595,57,280,589,6256
1644187242.12675,-0.006775,0.007324,-0.992371,0.205588,0.432366,-0.024122,49,277,586,6160
1644187242.175181,-0.00531,0.009644,-0.993286,0.08345,0.462901,-0.14626,47,275,572,6256
1644187242.223559,-0.01001,0.008484,-0.988403,0.251389,0.356031,0.036947,49,275,596,6176
1644187242.271943,-0.005859,0.011047,-0.989441,0.251389,0.447634,-0.207328,40,275,589,6288
1644187242.320349,-0.007263,0.008789,-0.989868,0.113985,0.462901,-0.085191,43,271,585,6224
1644187242.368708,-0.008484,0.008728,-0.992065,0.205588,0.508702,-0.207328,46,281,578,6240
1644187242.417105,-0.007935,0.009216,-0.990295,0.022382,0.523969,-0.039389,52,268,586,6240
1644187242.465502,-0.009155,0.009399,-0.992249,0.08345,0.508702,-0.176794,43,283,592,6256
1644187242.513906,-0.007141,0.011414,-0.992676,0.266656,0.447634,0.036947,47,280,584,6224
1644187242.562316,-0.008057,0.011902,-0.991089,0.35826,0.417099,-0.008855,41,269,590,6176
1644187242.610686,-0.007629,0.012024,-0.990173,0.190321,0.462901,-0.024122,52,270,589,6160
1644187242.65907,-0.007568,0.013184,-0.991333,0.175053,0.447634,-0.054656,40,273,577,6192
1644187242.707519,-0.006226,0.011902,-0.991028,0.236122,0.401832,-0.14626,59,280,596,6176
1644187242.756371,-0.008362,0.011169,-0.991089,0.159786,0.523969,-0.100458,46,283,580,6224
1644187242.807455,-0.005737,0.008362,-0.990479,0.251389,0.478168,-0.085191,49,285,577,6224
1644187242.857861,-0.007019,0.007996,-0.991821,0.35826,0.264427,-0.115725,51,269,580,6224
1644187242.902344,-0.008728,0.011841,-0.992249,0.35826,0.203359,-0.069924,39,274,590,6192
1644187242.997864,-0.007996,0.011475,-0.991089,0.08345,0.462901,-0.085191,51,279,578,6224
1644187243.059868,-0.00885,0.011719,-0.990234,0.068183,0.432366,0.082748,45,275,589,6256
1644187243.099934,-0.00885,0.007751,-0.99115,0.35826,0.417099,-0.176794,41,271,585,6224
1644187243.143018,-0.007324,0.010376,-0.991638,0.266656,0.401832,-0.024122,57,268,586,6240
1644187243.191379,-0.006775,0.010437,-0.989441,0.281924,0.401832,-0.176794,48,281,573,6240
1644187243.239793,-0.008606,0.012634,-0.992798,0.190321,0.523969,-0.024122,46,281,576,6224
1644187243.288185,-0.007446,0.013855,-0.992676,0.08345,0.340763,0.036947,43,274,585,6240
1644187243.336573,-0.011353,0.009277,-0.992615,0.159786,0.493435,-0.222595,54,270,584,6192
1644187243.385017,-0.00946,0.008606,-0.992004,0.281924,0.523969,0.052214,47,275,589,6224
1644187243.433375,-0.010376,0.010254,-0.989258,0.297191,0.508702,-0.161527,51,274,587,6128
1644187243.481761,-0.009399,0.011475,-0.992004,0.327725,0.569771,-0.115725,54,273,589,6176
1644187243.530158,-0.008179,0.010681,-0.991577,0.327725,0.478168,-0.192061,52,277,589,6256
1644187243.57855,-0.009155,0.01001,-0.989441,0.129252,0.233893,-0.100458,48,281,590,6160
1644187243.627259,-0.010498,0.011108,-0.992432,0.159786,0.523969,-0.039389,48,279,590,6256
1644187243.677861,-0.006042,0.009583,-0.991455,0.342992,0.417099,-0.085191,49,268,586,6224
1644187243.728032,-0.007507,0.010315,-0.991943,0.159786,0.493435,0.036947,48,269,585,6160
1644187243.773429,-0.008911,0.009094,-0.991272,0.266656,0.523969,-0.069924,40,270,589,6240
1644187243.868944,-0.005066,0.010254,-0.989441,0.312458,0.401832,0.006412,45,280,577,6240
1644187243.917347,-0.008484,0.010071,-0.991272,0.175053,0.401832,-0.039389,55,279,583,6256
1644187243.965709,-0.009827,0.012512,-0.989502,0.190321,0.539237,-0.024122,36,279,587,6224
1644187244.014135,-0.008301,0.010681,-0.994446,0.159786,0.24916,-0.115725,55,283,585,6192
1644187244.067039,-0.00885,0.007935,-0.993042,0.144519,0.447634,-0.222595,60,269,590,6192
1644187244.110908,-0.007751,0.010559,-0.99408,0.404061,0.569771,-0.176794,49,277,589,6256
1644187244.15926,-0.009521,0.009766,-0.99231,0.205588,0.401832,-0.130992,59,280,586,6256
1644187244.207659,-0.009949,0.010925,-0.990906,0.175053,0.478168,-0.039389,48,271,580,6240
1644187244.256052,-0.006287,0.009338,-0.990845,0.159786,0.462901,-0.130992,42,275,579,6176
1644187244.304442,-0.008484,0.00946,-0.99231,0.251389,0.462901,-0.14626,47,282,589,6240
1644187244.35285,-0.009827,0.00824,-0.993347,0.281924,0.569771,-0.390534,52,290,577,6256
1644187244.401227,-0.011292,0.006958,-0.992615,0.08345,0.340763,0.021679,51,271,569,6288
1644187244.449585,-0.009399,0.010132,-0.988892,0.220855,0.279695,-0.085191,53,274,585,6176
1644187244.498033,-0.009033,0.009216,-0.992615,0.404061,0.432366,-0.024122,51,274,587,6240
1644187244.546415,-0.007935,0.010193,-0.993713,0.342992,0.493435,-0.115725,41,266,580,6256
1644187244.594808,-0.008118,0.011719,-0.99054,0.129252,0.218626,-0.237863,46,281,580,6224
1644187244.643199,-0.005615,0.007935,-0.991211,0.312458,0.508702,-0.14626,58,286,583,6224
1644187244.691585,-0.007874,0.009216,-0.99176,0.35826,0.462901,-0.069924,52,282,579,6256
1644187244.740176,-0.008484,0.008301,-0.988953,0.098718,0.462901,-0.161527,46,281,583,6240
1644187244.788951,-0.008667,0.010864,-0.987854,0.251389,0.310229,-0.100458,51,279,583,6256
1644187244.840569,-0.007141,0.008423,-0.992859,0.281924,0.417099,-0.161527,54,277,586,6224
1644187244.890626,-0.005005,0.009521,-0.991272,-0.084489,0.417099,-0.039389,48,271,585,6224
1644187244.935271,-0.007996,0.011475,-0.990112,0.297191,0.386565,-0.085191,43,271,587,6240
1644187245.030391,-0.007263,0.009399,-0.991577,0.251389,0.432366,-0.192061,48,276,580,6224
1644187245.078866,-0.009644,0.010193,-0.991333,0.159786,0.356031,-0.069924,54,282,586,6240
1644187245.12718,-0.010315,0.01123,-0.992371,0.220855,0.340763,-0.069924,39,276,576,6304
1644187245.175516,-0.004761,0.006836,-0.993164,0.236122,0.417099,-0.100458,53,274,583,6256
1644187245.22393,-0.00885,0.009888,-0.993469,0.175053,0.432366,-0.14626,46,274,590,6192
1644187245.272287,-0.007324,0.011047,-0.991028,0.281924,0.356031,-0.115725,52,277,568,6224
1644187245.320702,-0.007935,0.007812,-0.991577,0.068183,0.233893,-0.161527,47,263,579,6224
1644187245.369086,-0.008972,0.010498,-0.990479,0.236122,0.539237,-0.039389,43,281,576,6224
1644187245.417489,-0.006653,0.010132,-0.989197,0.266656,0.478168,-0.054656,57,273,593,6224
1644187245.465878,-0.008362,0.010681,-0.991455,0.175053,0.386565,-0.085191,51,274,576,6224
1644187245.514262,-0.007568,0.008057,-0.993958,0.220855,0.325496,-0.130992,53,274,578,6240
1644187245.562675,-0.00885,0.011108,-0.990723,0.373527,0.294962,-0.039389,45,275,586,6224
1644187245.611053,-0.011658,0.009277,-0.992859,0.144519,0.325496,-0.237863,45,275,598,6192
1644187245.659454,-0.006958,0.011292,-0.992065,0.052916,0.371298,-0.100458,46,281,594,6240
1644187245.707808,-0.010864,0.00885,-0.992126,0.068183,0.294962,-0.085191,54,282,596,6224
1644187245.756206,-0.007996,0.009827,-0.993103,0.266656,0.478168,-0.176794,54,277,593,6224
1644187245.804657,-0.007385,0.007874,-0.992065,0.08345,0.233893,-0.130992,51,271,583,6224
1644187245.853019,-0.010803,0.009399,-0.990723,0.266656,0.371298,-0.222595,48,276,580,6224
1644187245.901628,-0.008972,0.010315,-0.989685,0.327725,0.279695,-0.237863,58,266,585,6224
1644187245.951514,-0.009033,0.008301,-0.992432,0.236122,0.417099,0.036947,48,269,580,6224
1644187246.001579,-0.008362,0.010742,-0.990417,0.312458,0.310229,-0.054656,54,275,586,6256
1644187246.068248,-0.010803,0.009094,-0.990723,0.220855,0.401832,-0.054656,39,279,587,6240
1644187246.102998,-0.009155,0.01123,-0.991333,0.281924,0.447634,-0.14626,49,273,582,6304
1644187246.191776,-0.009583,0.010803,-0.988953,0.129252,0.417099,-0.25313,47,277,579,6224
1644187246.24017,-0.008179,0.008545,-0.991211,0.388794,0.401832,-0.14626,45,277,584,6160
1644187246.28853,-0.008301,0.010437,-0.99231,0.251389,0.462901,-0.176794,38,277,586,6240
1644187246.33692,-0.007568,0.009583,-0.991272,0.098718,0.432366,-0.329466,57,275,579,6224
1644187246.385339,-0.007935,0.01178,-0.990051,0.297191,0.432366,-0.039389,40,275,577,6192
1644187246.433756,-0.009827,0.009888,-0.991272,0.098718,0.294962,-0.207328,57,285,572,6288
1644187246.482168,-0.00769,0.00946,-0.99292,0.236122,0.325496,-0.14626,57,285,584,6160
1644187246.530533,-0.008972,0.013611,-0.992432,0.068183,0.523969,-0.237863,39,281,580,6256
1644187246.578916,-0.00824,0.010559,-0.990784,0.236122,0.294962,-0.176794,48,274,583,6224
1644187246.62729,-0.007446,0.011353,-0.991211,0.144519,0.24916,-0.130992,34,271,583,6224
1644187246.675708,-0.007812,0.01001,-0.990967,0.08345,0.310229,-0.176794,54,265,584,6192
1644187246.724105,-0.01001,0.008728,-0.991089,0.220855,0.493435,-0.115725,58,281,578,6224
1644187246.772504,-0.007996,0.010071,-0.991882,0.220855,0.493435,-0.069924,53,274,583,6224
1644187246.82085,-0.007812,0.010132,-0.992371,0.342992,0.310229,-0.100458,54,268,586,6240
1644187246.869317,-0.009766,0.007446,-0.989807,0.190321,0.508702,-0.008855,40,277,584,6224
1644187246.917705,-0.006165,0.008545,-0.991394,0.266656,0.462901,-0.085191,45,280,577,6224
1644187246.966061,-0.006531,0.009521,-0.992249,0.159786,0.447634,-0.25313,47,285,586,6224
1644187247.01491,-0.01062,0.009216,-0.993652,0.159786,0.462901,-0.054656,47,287,589,6224
1644187247.086769,-0.005432,0.00885,-0.990967,0.312458,0.386565,-0.039389,47,270,584,6224
1644187247.111317,-0.008423,0.009277,-0.990295,0.175053,0.386565,-0.176794,65,266,580,6192
1644187247.208008,-0.008545,0.008362,-0.993835,0.190321,0.371298,-0.130992,53,262,587,6224
1644187247.256392,-0.006897,0.010559,-0.990417,0.266656,0.371298,-0.054656,51,279,583,6176
1644187247.304842,-0.007812,0.010315,-0.993591,0.312458,0.401832,-0.115725,46,274,587,6224
1644187247.353208,-0.010315,0.010925,-0.990295,0.068183,0.539237,-0.054656,51,276,585,6192
1644187247.401585,-0.007751,0.009766,-0.989807,0.236122,0.417099,-0.039389,45,277,577,6240
1644187247.45,-0.009277,0.012634,-0.995483,0.205588,0.386565,-0.130992,48,266,583,6240
1644187247.498385,-0.007935,0.008118,-0.99054,0.281924,0.585038,-0.176794,54,282,575,6224
1644187247.54677,-0.011353,0.01001,-0.990173,0.220855,0.523969,-0.130992,49,290,586,6192
1644187247.59524,-0.009583,0.011719,-0.991699,0.144519,0.539237,-0.085191,45,280,579,6288
1644187247.643581,-0.008362,0.008118,-0.991516,0.159786,0.279695,0.12855,48,281,578,6240
1644187247.691955,-0.007202,0.006226,-0.993164,0.434595,0.340763,-0.130992,41,288,578,6224
1644187247.740359,-0.008789,0.009521,-0.989868,0.220855,0.462901,0.067481,36,281,585,6224
1644187247.788733,-0.008606,0.008057,-0.99292,0.175053,0.417099,-0.069924,41,281,578,6224
1644187247.837144,-0.00824,0.011719,-0.992615,0.175053,0.325496,-0.039389,46,269,585,6224
1644187247.88557,-0.008606,0.008423,-0.991943,0.129252,0.539237,-0.069924,53,281,580,6192
1644187247.933961,-0.010925,0.01123,-0.990967,0.068183,0.401832,-0.176794,57,265,586,6224
1644187247.98237,-0.008789,0.013062,-0.990479,0.266656,0.371298,-0.115725,64,273,579,6192
1644187248.030789,-0.009094,0.008545,-0.990601,0.297191,0.417099,-0.085191,49,280,593,6256
1644187248.090987,-0.009644,0.009216,-0.992371,0.08345,0.325496,-0.039389,43,274,583,6192
1644187248.130476,-0.009216,0.011292,-0.992371,0.236122,0.462901,0.052214,48,276,580,6128
1644187248.180781,-0.00824,0.009705,-0.992737,0.175053,0.554504,-0.130992,51,264,592,6288
1644187248.225364,-0.008545,0.01178,-0.993164,0.159786,0.508702,0.036947,48,266,590,6192
1644187248.321082,-0.005737,0.009338,-0.992615,0.220855,0.432366,-0.100458,54,280,575,6240
1644187248.369502,-0.008972,0.009949,-0.991455,0.251389,0.356031,-0.054656,51,264,580,6176
1644187248.41789,-0.007935,0.008667,-0.990906,0.159786,0.371298,-0.069924,49,277,584,6224
1644187248.466338,-0.010071,0.011047,-0.991272,0.251389,0.356031,-0.100458,51,283,580,6224
1644187248.514682,-0.007751,0.008362,-0.992432,0.281924,0.493435,0.021679,49,270,584,6176
1644187248.563081,-0.00946,0.01001,-0.990601,0.373527,0.401832,-0.069924,51,266,573,6240
1644187248.611469,-0.008728,0.009338,-0.992615,0.220855,0.401832,-0.039389,54,275,584,6256
1644187248.659854,-0.008911,0.008606,-0.992981,0.175053,0.279695,-0.100458,49,273,591,6224
1644187248.708215,-0.007812,0.010376,-0.99115,0.113985,0.356031,-0.130992,41,271,580,6256
1644187248.756643,-0.010986,0.008362,-0.990662,0.175053,0.310229,-0.039389,41,279,573,6160
1644187248.805164,-0.009705,0.009399,-0.991577,0.129252,0.523969,-0.115725,48,296,578,6224
1644187248.853439,-0.009094,0.00946,-0.993164,0.175053,0.356031,-0.237863,46,276,583,6224
1644187248.901813,-0.008057,0.010803,-0.99176,0.175053,0.478168,-0.176794,51,283,580,6192
1644187248.950227,-0.009583,0.011292,-0.98999,0.266656,0.493435,-0.085191,54,280,596,6192
1644187248.998613,-0.009216,0.006104,-0.994324,0.251389,0.462901,-0.14626,46,281,580,6256
1644187249.058256,-0.00592,0.010742,-0.990112,0.175053,0.417099,-0.008855,42,273,593,6240
1644187249.098614,-0.012695,0.007263,-0.993958,0.159786,0.462901,-0.130992,52,280,589,6224
1644187249.143753,-0.008179,0.007751,-0.992554,0.08345,0.401832,0.006412,36,271,587,6192
1644187249.192452,-0.009155,0.008972,-0.993164,0.037649,0.462901,-0.100458,53,279,585,6288
1644187249.241403,-0.010803,0.012329,-0.992798,0.052916,0.386565,-0.085191,40,280,589,6224
1644187249.291866,-0.008179,0.009216,-0.993347,0.068183,0.24916,-0.14626,61,275,589,6224
1644187249.341945,-0.008484,0.007751,-0.989563,0.098718,0.478168,0.021679,46,271,578,6160
1644187249.387044,-0.011841,0.011047,-0.99231,0.098718,0.478168,0.021679,46,279,585,6128
1644187249.482515,-0.009155,0.008728,-0.992371,0.297191,0.417099,-0.039389,46,274,583,6224
1644187249.530881,-0.008728,0.009277,-0.993469,0.35826,0.462901,-0.115725,47,280,589,6224
1644187249.57926,-0.00946,0.006409,-0.995239,0.159786,0.493435,-0.069924,41,281,585,6240
1644187249.627676,-0.011047,0.009644,-0.992188,0.327725,0.371298,-0.115725,51,279,585,6256
1644187249.676061,-0.008118,0.009155,-0.993042,0.251389,0.432366,-0.100458,53,269,592,6224
1644187249.724458,-0.008728,0.007629,-0.991455,0.068183,0.462901,0.036947,53,271,583,6224
1644187249.772868,-0.007141,0.010925,-0.992188,0.068183,0.356031,-0.085191,45,270,577,6240
1644187249.821271,-0.009949,0.009705,-0.990051,0.327725,0.401832,0.052214,51,266,580,6240
1644187249.869684,-0.004883,0.006897,-0.992798,0.129252,0.203359,-0.100458,52,275,579,6192
1644187249.918068,-0.010803,0.009094,-0.992004,0.144519,0.508702,-0.039389,40,268,579,6240
1644187249.966467,-0.005615,0.00946,-0.994263,0.327725,0.462901,-0.14626,53,293,571,6192
1644187250.014859,-0.010864,0.011902,-0.991089,0.327725,0.371298,-0.237863,36,279,590,6224
1644187250.064974,-0.009216,0.009094,-0.990967,0.190321,0.432366,-0.192061,48,279,594,6224
1644187250.111603,-0.006897,0.010254,-0.990845,0.266656,0.508702,-0.069924,36,276,580,6224
1644187250.159996,-0.007935,0.011597,-0.992249,0.068183,0.417099,-0.008855,51,288,583,6224
1644187250.208387,-0.008057,0.009399,-0.991882,0.205588,0.478168,-0.161527,58,271,585,6240
1644187250.256779,-0.011047,0.008972,-0.992126,0.129252,0.508702,-0.100458,53,266,578,6192
1644187250.305176,-0.01178,0.008484,-0.991577,0.266656,0.356031,0.098015,47,268,593,6160
1644187250.35358,-0.009033,0.013184,-0.992004,0.205588,0.523969,-0.192061,40,273,591,6256
1644187250.40235,-0.010254,0.012207,-0.992371,0.297191,0.401832,-0.298931,48,276,585,6160
1644187250.452768,-0.005188,0.008789,-0.990662,0.175053,0.111756,-0.130992,51,269,592,6304
1644187250.502949,-0.008118,0.008545,-0.989929,0.190321,0.447634,-0.054656,49,273,579,6256
1644187250.54787,-0.006653,0.010986,-0.991028,0.281924,0.523969,0.006412,38,273,570,6224
1644187250.643943,-0.008728,0.010742,-0.991333,0.159786,0.417099,-0.115725,49,275,586,6224
1644187250.692388,-0.010193,0.010803,-0.992188,0.113985,0.386565,-0.161527,40,275,582,6192
1644187250.740702,-0.007812,0.012146,-0.98938,0.175053,0.447634,-0.115725,60,276,583,6240
1644187250.7891,-0.009766,0.011292,-0.991089,0.266656,0.401832,-0.130992,43,274,571,6160
1644187250.837536,-0.011414,0.010925,-0.990723,0.297191,0.508702,-0.054656,58,271,592,6176
1644187250.885931,-0.00354,0.009521,-0.991455,0.052916,0.462901,-0.161527,60,276,590,6288
1644187250.934331,-0.011108,0.008911,-0.992188,0.129252,0.371298,-0.100458,48,279,583,6176
1644187250.982728,-0.007568,0.009521,-0.992432,0.220855,0.264427,-0.100458,48,276,583,6304
1644187251.031109,-0.009216,0.011475,-0.992126,0.388794,0.417099,-0.283664,43,271,578,6256
1644187251.08554,-0.006409,0.010376,-0.992004,0.281924,0.478168,0.052214,53,269,597,6240
1644187251.127861,-0.006104,0.011841,-0.987976,0.144519,0.371298,-0.192061,41,286,585,6224
1644187251.176241,-0.009094,0.009338,-0.99054,0.281924,0.523969,-0.069924,47,277,586,6192
1644187251.224646,-0.007568,0.008118,-0.994629,0.144519,0.356031,-0.115725,51,269,585,6256
1644187251.273174,-0.010559,0.012146,-0.99054,0.175053,0.310229,0.052214,47,273,586,6288
1644187251.321759,-0.009338,0.011597,-0.989258,0.113985,0.447634,-0.222595,54,275,584,6288
1644187251.370785,-0.010132,0.009888,-0.993591,0.08345,0.447634,-0.008855,53,264,585,6192
1644187251.421374,-0.00708,0.00647,-0.99292,0.190321,0.554504,-0.024122,49,275,586,6224
1644187251.471557,-0.005798,0.011902,-0.992065,0.175053,0.356031,-0.008855,47,270,582,6256
1644187251.563425,-0.010193,0.008484,-0.993103,0.190321,0.24916,-0.115725,58,271,578,6192
1644187251.611766,-0.009949,0.009705,-0.993896,0.113985,0.356031,-0.161527,41,274,585,6176
1644187251.660167,-0.007019,0.010437,-0.99176,0.236122,0.356031,-0.100458,46,283,576,6160
1644187251.708559,-0.010681,0.006836,-0.992981,0.220855,0.478168,-0.161527,42,268,579,6224
1644187251.75696,-0.009033,0.012512,-0.989197,0.35826,0.478168,-0.14626,47,282,596,6160
1644187251.805342,-0.006287,0.009521,-0.994141,0.220855,0.386565,-0.14626,57,277,572,6192
1644187251.853802,-0.00824,0.008423,-0.993286,0.297191,0.386565,-0.130992,42,273,596,6160
1644187251.902198,-0.007751,0.011414,-0.99176,0.266656,0.294962,-0.039389,48,271,583,6224
1644187251.950576,-0.006409,0.008301,-0.990967,0.113985,0.340763,0.006412,47,282,572,6240
1644187251.998946,-0.007141,0.013733,-0.989441,0.159786,0.386565,0.174351,41,281,599,6224
1644187252.0609,-0.008972,0.00946,-0.991821,0.236122,0.294962,-0.14626,48,283,587,6192
1644187252.098454,-0.010254,0.010742,-0.990784,0.35826,0.432366,-0.130992,49,273,593,6224
1644187252.144128,-0.007019,0.009155,-0.995667,0.236122,0.371298,0.036947,55,281,580,6224
1644187252.192512,-0.009521,0.010986,-0.991028,0.144519,0.294962,-0.130992,61,282,589,6224
1644187252.240892,-0.009277,0.012268,-0.990906,0.220855,0.279695,-0.161527,51,279,590,6224
1644187252.289279,-0.006714,0.008789,-0.992249,0.144519,0.371298,-0.069924,45,277,575,6224
1644187252.337678,-0.009644,0.009399,-0.988953,0.220855,0.539237,-0.039389,52,280,586,6224
1644187252.386072,-0.010132,0.008301,-0.991455,0.266656,0.554504,-0.130992,60,276,592,6192
1644187252.434775,-0.010132,0.008362,-0.988892,0.281924,0.569771,0.021679,45,285,586,6240
1644187252.48528,-0.009644,0.010193,-0.99231,0.08345,0.478168,-0.14626,42,277,582,6192
1644187252.535475,-0.007751,0.009094,-0.990479,0.113985,0.432366,-0.024122,48,276,583,6256
1644187252.580536,-0.009277,0.009949,-0.992188,0.297191,0.371298,-0.176794,47,268,584,6256
1644187252.676409,-0.006836,0.010559,-0.993652,0.037649,0.462901,-0.024122,55,281,576,6224
1644187252.724873,-0.011597,0.008057,-0.993469,0.236122,0.279695,-0.069924,54,273,575,6160
1644187252.773232,-0.007935,0.011536,-0.99231,0.190321,0.310229,-0.161527,53,281,578,6192
1644187252.821603,-0.008911,0.009155,-0.995789,0.205588,0.401832,-0.069924,45,282,579,6256
1644187252.870043,-0.008545,0.009033,-0.992065,0.205588,0.386565,-0.100458,49,285,584,6224
1644187252.918425,-0.006592,0.009155,-0.991516,0.052916,0.539237,-0.192061,51,269,587,6240
1644187252.966828,-0.006287,0.009521,-0.99115,0.068183,0.401832,-0.054656,52,280,582,6240
1644187253.015288,-0.009583,0.007996,-0.992981,0.190321,0.508702,-0.100458,43,279,573,6128
1644187253.068162,-0.007507,0.010254,-0.99176,0.205588,0.386565,-0.115725,53,271,599,6240
1644187253.111981,-0.00824,0.010132,-0.990845,0.175053,0.462901,-0.054656,55,283,597,6224
1644187253.160355,-0.008423,0.008789,-0.992126,0.052916,0.432366,-0.130992,43,279,585,6192
1644187253.20876,-0.007812,0.010986,-0.990601,0.236122,0.478168,-0.054656,45,282,586,6240
1644187253.25712,-0.007996,0.010864,-0.990234,0.175053,0.447634,0.036947,51,276,578,6256
1644187253.305516,-0.008667,0.008484,-0.99353,0.342992,0.432366,-0.100458,46,281,583,6288
1644187253.353935,-0.010681,0.008911,-0.990967,0.220855,0.340763,-0.100458,52,265,584,6192
1644187253.402344,-0.008301,0.011658,-0.987976,0.098718,0.462901,-0.039389,47,282,589,6192
1644187253.450718,-0.006042,0.011658,-0.99115,0.205588,0.294962,0.052214,53,286,583,6240
1644187253.499079,-0.007324,0.009155,-0.993164,0.144519,0.493435,0.021679,45,280,572,6192
1644187253.547499,-0.010193,0.00885,-0.992737,0.327725,0.356031,-0.100458,51,274,594,6240
1644187253.595927,-0.00708,0.01123,-0.993774,0.266656,0.401832,-0.237863,45,280,579,6224
1644187253.646059,-0.007324,0.010681,-0.992859,0.419328,0.447634,-0.085191,34,269,576,6192
1644187253.696441,-0.008362,0.009766,-0.990479,0.190321,0.401832,-0.039389,46,279,583,6256
1644187253.741442,-0.00769,0.009766,-0.989746,0.327725,0.294962,-0.039389,55,274,580,6288
1644187253.837872,-0.009155,0.009827,-0.990967,0.312458,0.401832,0.067481,52,275,582,6192
1644187253.886305,-0.00647,0.008179,-0.993958,0.236122,0.386565,-0.161527,47,277,582,6240
1644187253.934692,-0.008972,0.011108,-0.991272,0.08345,0.585038,-0.130992,46,276,580,6224
1644187253.9831,-0.008972,0.009338,-0.99231,0.266656,0.462901,-0.237863,42,282,586,6224
1644187254.031469,-0.008301,0.008972,-0.991516,0.297191,0.462901,-0.054656,49,280,586,6176
1644187254.088196,-0.006409,0.011475,-0.989563,0.281924,0.462901,-0.085191,35,277,584,6192
1644187254.128262,-0.006836,0.009094,-0.99408,0.205588,0.356031,-0.039389,41,276,580,6192
1644187254.176621,-0.00769,0.01355,-0.99115,0.098718,0.294962,-0.100458,51,281,576,6256
1644187254.225056,-0.007202,0.009155,-0.989197,0.159786,0.432366,-0.085191,55,269,590,6256
1644187254.273379,-0.00946,0.011414,-0.992004,0.236122,0.340763,-0.237863,54,285,579,6192
1644187254.321796,-0.006165,0.008179,-0.991333,0.190321,0.432366,-0.161527,47,270,579,6224
1644187254.370177,-0.006531,0.011353,-0.992249,0.159786,0.401832,-0.130992,51,266,590,6176
1644187254.41884,-0.006531,0.007324,-0.992615,0.129252,0.417099,-0.14626,58,274,583,6224
1644187254.468099,-0.007751,0.008179,-0.990417,0.35826,0.371298,-0.176794,45,275,584,6160
1644187254.518452,-0.008118,0.008179,-0.990784,0.251389,0.417099,-0.14626,55,271,585,6224
1644187254.568738,-0.006897,0.007507,-0.993652,0.205588,0.432366,-0.024122,46,276,585,6240
1644187254.660539,-0.00885,0.008484,-0.993164,0.113985,0.371298,-0.069924,49,277,575,6240
1644187254.70891,-0.008667,0.00946,-0.991028,0.236122,0.432366,0.067481,53,274,578,6224
1644187254.757309,-0.009094,0.009583,-0.990234,0.175053,0.447634,-0.100458,42,280,586,6176
1644187254.805722,-0.010559,0.009949,-0.990967,0.220855,0.371298,-0.14626,47,282,589,6224
1644187254.854126,-0.009033,0.00885,-0.99115,0.098718,0.401832,-0.054656,41,279,590,6224
1644187254.90257,-0.012268,0.009888,-0.99054,0.236122,0.356031,-0.054656,47,265,577,6192
1644187254.950919,-0.007507,0.010559,-0.992249,0.266656,0.386565,-0.039389,46,279,583,6288
1644187254.999317,-0.006226,0.006836,-0.989075,0.190321,0.447634,-0.14626,38,280,586,6288
1644187255.058212,-0.011169,0.008972,-0.990601,0.068183,0.462901,-0.298931,52,280,586,6256
1644187255.096069,-0.010803,0.007324,-0.994019,0.144519,0.554504,-0.115725,48,279,580,6256
1644187255.144517,-0.008606,0.01123,-0.992188,0.113985,0.371298,0.067481,54,273,589,6224
1644187255.192904,-0.010803,0.01001,-0.99408,0.159786,0.386565,-0.085191,47,270,584,6288
1644187255.241303,-0.008667,0.009888,-0.988464,0.251389,0.432366,-0.069924,51,274,585,6176
1644187255.289703,-0.007263,0.00885,-0.990784,0.236122,0.462901,-0.069924,48,266,590,6224
1644187255.338081,-0.006958,0.010315,-0.992065,0.281924,0.310229,-0.008855,46,279,585,6256
1644187255.386479,-0.00946,0.009033,-0.993469,0.373527,0.478168,-0.008855,51,283,578,6224
1644187255.434882,-0.009827,0.008423,-0.990417,0.175053,0.294962,-0.024122,55,279,583,6192
1644187255.48357,-0.008972,0.00824,-0.992432,0.205588,0.279695,-0.069924,48,279,587,6192
1644187255.532012,-0.009644,0.010681,-0.992249,0.159786,0.203359,-0.192061,57,260,582,6240
1644187255.582927,-0.007019,0.01001,-0.990295,0.129252,0.356031,-0.161527,53,276,590,6224
1644187255.632915,-0.006409,0.011047,-0.989929,0.220855,0.356031,-0.024122,51,288,576,6192
1644187255.677634,-0.006958,0.00946,-0.992065,0.327725,0.432366,-0.222595,46,279,578,6224
1644187255.773627,-0.008972,0.012146,-0.993225,0.190321,0.386565,-0.054656,43,279,583,6176
1644187255.822022,-0.009155,0.009155,-0.992249,0.205588,0.478168,-0.024122,49,273,570,6240
1644187255.870403,-0.007202,0.010254,-0.990906,0.281924,0.417099,-0.130992,43,281,578,6240
1644187255.918802,-0.008484,0.011414,-0.989807,0.144519,0.340763,-0.207328,59,277,568,6224
1644187255.967192,-0.011597,0.008118,-0.99176,0.327725,0.356031,0.082748,52,270,579,6224
1644187256.015578,-0.008789,0.011719,-0.990173,0.144519,0.356031,-0.115725,46,279,583,6240
1644187256.064021,-0.008179,0.010376,-0.989807,0.220855,0.386565,-0.14626,52,270,591,6240
1644187256.112365,-0.007507,0.009399,-0.991028,0.251389,0.356031,-0.085191,51,269,580,6256
1644187256.160726,-0.009644,0.008423,-0.990845,0.251389,0.401832,-0.176794,55,286,592,6224
1644187256.209117,-0.010376,0.010742,-0.990112,0.236122,0.462901,-0.069924,60,279,580,6240
1644187256.257512,-0.00885,0.00769,-0.990234,0.175053,0.554504,0.067481,54,273,575,6240
1644187256.30591,-0.005249,0.011658,-0.994446,0.327725,0.417099,0.021679,54,273,589,6224
1644187256.354314,-0.006592,0.010376,-0.990662,0.205588,0.294962,-0.085191,48,281,578,6160
1644187256.402698,-0.012634,0.009949,-0.990234,0.404061,0.493435,-0.039389,47,275,593,6256
1644187256.451081,-0.009766,0.009155,-0.992188,0.297191,0.386565,-0.100458,51,279,585,6224
1644187256.49948,-0.011353,0.011108,-0.992371,0.159786,0.386565,-0.039389,45,275,591,6192
1644187256.547863,-0.008606,0.008789,-0.990173,0.327725,0.462901,-0.130992,65,276,585,6224
1644187256.596248,-0.009521,0.012451,-0.990479,0.205588,0.356031,0.067481,46,279,576,6240
1644187256.644687,-0.006287,0.010681,-0.992615,0.251389,0.356031,-0.024122,47,277,579,6192
1644187256.694435,-0.006775,0.010376,-0.993713,0.297191,0.371298,-0.039389,49,285,586,6224
1644187256.744745,-0.008972,0.006531,-0.992188,0.251389,0.371298,-0.008855,40,285,589,6176
1644187256.796644,-0.009888,0.011414,-0.992554,0.251389,0.356031,-0.115725,52,280,579,6176
1644187256.886661,-0.008789,0.010864,-0.993591,0.159786,0.432366,-0.100458,42,280,575,6240
1644187256.93532,-0.010437,0.011475,-0.990479,0.205588,0.356031,-0.176794,38,273,568,6192
1644187256.983437,-0.007629,0.010803,-0.991272,0.220855,0.356031,-0.207328,38,277,577,6224
1644187257.03183,-0.009888,0.008972,-0.992493,0.281924,0.279695,-0.207328,52,277,593,6256
1644187257.082694,-0.010437,0.012268,-0.992554,0.312458,0.371298,-0.176794,40,270,582,6224
1644187257.128585,-0.006531,0.008179,-0.992065,0.236122,0.447634,-0.039389,53,283,576,6128
1644187257.176978,-0.009521,0.010986,-0.992065,0.327725,0.340763,-0.024122,49,273,591,6256
1644187257.225354,-0.005676,0.008728,-0.992065,0.144519,0.356031,0.021679,52,273,575,6224
1644187257.273741,-0.008789,0.010132,-0.990845,0.037649,0.356031,-0.115725,54,277,572,6240
1644187257.322201,-0.008362,0.008728,-0.991028,0.297191,0.417099,-0.039389,51,276,587,6224
1644187257.370551,-0.006653,0.009644,-0.990051,0.08345,0.172824,-0.085191,48,264,580,6224
1644187257.418956,-0.009399,0.01001,-0.99292,0.220855,0.371298,-0.237863,49,268,582,6224
1644187257.467326,-0.009766,0.010376,-0.990295,0.068183,0.417099,0.052214,45,273,582,6224
1644187257.51572,-0.010498,0.010193,-0.995667,0.266656,0.386565,-0.024122,54,280,582,6256
1644187257.564119,-0.010742,0.010925,-0.988159,0.251389,0.279695,-0.085191,52,280,591,6240
1644187257.612528,-0.01123,0.006531,-0.991821,0.144519,0.371298,-0.130992,43,269,597,6224
1644187257.660909,-0.00708,0.010193,-0.993103,0.190321,0.462901,-0.069924,43,283,583,6176
1644187257.709306,-0.003845,0.009338,-0.991455,0.281924,0.401832,-0.115725,48,266,583,6192
1644187257.757693,-0.009338,0.011353,-0.990967,0.052916,0.401832,-0.100458,46,279,580,6224
1644187257.808981,-0.00885,0.008972,-0.992554,0.129252,0.386565,-0.039389,49,275,579,6224
1644187257.857887,-0.010254,0.011475,-0.994385,0.434595,0.432366,-0.192061,46,274,580,6304
1644187257.908155,-0.009155,0.008423,-0.991882,0.175053,0.325496,-0.054656,45,275,586,6224
1644187257.952557,-0.008545,0.007996,-0.989258,0.266656,0.340763,-0.176794,43,269,580,6240
1644187258.002897,-0.008118,0.011414,-0.993103,0.205588,0.386565,-0.039389,40,270,582,6224
1644187258.096563,-0.010254,0.009338,-0.990662,0.236122,0.539237,-0.14626,39,283,592,6176
1644187258.144841,-0.007446,0.009888,-0.991455,-0.008153,0.493435,-0.192061,46,269,585,6192
1644187258.193248,-0.009277,0.010315,-0.992981,0.404061,0.447634,-0.100458,47,273,582,6240
1644187258.241616,-0.008484,0.008301,-0.991638,0.175053,0.371298,-0.161527,48,274,580,6240
1644187258.29002,-0.010925,0.010437,-0.993469,0.190321,0.325496,-0.085191,36,271,583,6224
1644187258.338408,-0.00824,0.00769,-0.992493,0.251389,0.371298,-0.100458,46,274,583,6224
1644187258.386809,-0.010559,0.007202,-0.991455,0.068183,0.600305,-0.237863,49,285,584,6224
1644187258.43519,-0.007751,0.010132,-0.99292,0.266656,0.462901,-0.176794,40,277,586,6176
1644187258.483582,-0.008057,0.010071,-0.99231,0.297191,0.432366,0.006412,53,281,594,6160
1644187258.531978,-0.007385,0.008606,-0.990601,0.236122,0.310229,0.021679,40,277,577,6192
1644187258.580375,-0.009644,0.008667,-0.991516,0.342992,0.371298,-0.161527,38,275,586,6192
1644187258.629098,-0.006897,0.009766,-0.993103,0.159786,0.432366,-0.039389,43,271,576,6240
1644187258.678007,-0.005859,0.009155,-0.990967,0.220855,0.371298,0.006412,42,277,591,6240
1644187258.728609,-0.008606,0.009338,-0.991028,0.312458,0.233893,-0.054656,43,281,583,6240
1644187258.778661,-0.007507,0.011963,-0.993347,0.266656,0.539237,-0.14626,46,288,590,6256
1644187258.823626,-0.008545,0.007446,-0.988159,0.113985,0.523969,-0.14626,43,279,590,6160
1644187258.919172,-0.006775,0.009766,-0.99231,0.159786,0.386565,-0.161527,48,279,573,6256
1644187258.967542,-0.007507,0.013672,-0.991577,0.312458,0.417099,0.067481,36,276,580,6192
1644187259.015941,-0.007385,0.011536,-0.990784,0.175053,0.371298,-0.207328,48,283,590,6224
1644187259.068658,-0.005798,0.013855,-0.988831,0.190321,0.417099,-0.069924,57,280,575,6224
1644187259.112755,-0.009338,0.012634,-0.993164,0.175053,0.417099,-0.14626,45,280,579,6128
1644187259.161078,-0.008728,0.007568,-0.993164,0.129252,0.554504,-0.115725,57,265,586,6240
1644187259.209481,-0.004883,0.010132,-0.991089,0.205588,0.401832,0.036947,48,271,580,6240
1644187259.257854,-0.011047,0.009644,-0.988831,0.144519,0.462901,-0.192061,47,280,589,6160
1644187259.306242,-0.010498,0.011292,-0.989502,0.297191,0.569771,-0.100458,58,274,585,6224
1644187259.354804,-0.008118,0.011414,-0.990356,0.08345,0.325496,-0.085191,48,286,585,6224
1644187259.403061,-0.008118,0.009766,-0.989258,0.251389,0.523969,-0.115725,46,279,578,6224
1644187259.45144,-0.008728,0.005615,-0.99115,0.159786,0.478168,0.021679,57,273,589,6224
1644187259.499837,-0.007385,0.01001,-0.99176,0.220855,0.325496,-0.024122,35,287,582,6240
1644187259.548229,-0.009705,0.011047,-0.991638,0.175053,0.493435,-0.054656,48,262,597,6240
1644187259.596622,-0.008606,0.011841,-0.992126,0.251389,0.478168,-0.14626,46,271,590,6240
1644187259.645054,-0.007935,0.009094,-0.990417,0.220855,0.523969,-0.115725,43,279,594,6288
1644187259.693412,-0.008484,0.011353,-0.991089,0.205588,0.432366,-0.222595,47,280,596,6240
1644187259.741805,-0.008179,0.00946,-0.991394,0.129252,0.447634,-0.100458,48,279,583,6256
1644187259.790216,-0.007996,0.009033,-0.992249,0.236122,0.264427,-0.237863,43,288,583,6224
1644187259.839409,-0.009521,0.00885,-0.991211,0.220855,0.523969,-0.100458,64,277,579,6224
1644187259.890316,-0.006409,0.009033,-0.991638,0.175053,0.478168,-0.100458,49,273,586,6176
1644187259.94071,-0.009583,0.01123,-0.990295,0.281924,0.432366,-0.069924,46,266,587,6224
1644187259.985425,-0.009705,0.007568,-0.991577,0.266656,0.462901,-0.176794,54,265,586,6304
1644187260.080661,-0.007507,0.011841,-0.988464,0.236122,0.508702,-0.161527,52,282,593,6256
1644187260.129008,-0.011292,0.011108,-0.988953,0.35826,0.432366,-0.069924,54,277,586,6224
1644187260.177338,-0.009155,0.011841,-0.993286,0.266656,0.508702,-0.14626,57,275,586,6256
1644187260.225738,-0.006165,0.011169,-0.991394,0.281924,0.24916,-0.100458,51,276,583,6224
1644187260.274112,-0.009094,0.012634,-0.992493,0.281924,0.356031,-0.100458,55,274,580,6224
1644187260.322546,-0.004028,0.009827,-0.990417,0.190321,0.462901,-0.161527,54,265,577,6192
1644187260.370923,-0.011108,0.008484,-0.989258,0.205588,0.417099,-0.024122,52,268,584,6192
1644187260.419313,-0.00824,0.011597,-0.989807,0.175053,0.356031,-0.039389,47,275,589,6176
1644187260.467692,-0.011108,0.009766,-0.991272,0.159786,0.493435,-0.192061,59,277,591,6256
1644187260.516095,-0.00946,0.010498,-0.992981,0.281924,0.310229,-0.054656,41,286,580,6240
1644187260.564498,-0.00708,0.010254,-0.992126,0.129252,0.508702,0.021679,45,275,577,6256
1644187260.61291,-0.007385,0.010925,-0.991516,0.113985,0.371298,-0.192061,41,276,594,6224
1644187260.661274,-0.005554,0.011841,-0.991333,0.190321,0.279695,-0.207328,53,274,585,6224
1644187260.709665,-0.008179,0.011414,-0.992249,0.220855,0.294962,-0.207328,49,277,575,6176
1644187260.758038,-0.010437,0.01062,-0.991882,0.266656,0.569771,-0.161527,49,265,591,6224
1644187260.80645,-0.009888,0.01123,-0.992004,0.190321,0.264427,-0.14626,47,285,591,6256
1644187260.85488,-0.008911,0.011414,-0.99054,0.220855,0.371298,-0.176794,53,274,580,6224
1644187260.903362,-0.008484,0.007996,-0.990112,0.159786,0.447634,-0.115725,48,271,576,6256
1644187260.951685,-0.004089,0.010071,-0.98999,0.35826,0.523969,-0.130992,54,268,596,6240
1644187261.001338,-0.009338,0.010132,-0.992676,0.159786,0.386565,-0.085191,42,277,584,6256
1644187261.070981,-0.011047,0.010193,-0.990601,0.068183,0.401832,-0.100458,47,282,584,6256
1644187261.099992,-0.007019,0.009094,-0.991394,0.08345,0.294962,-0.222595,46,276,580,6192
1644187261.147223,-0.011292,0.012573,-0.994568,0.205588,0.447634,-0.161527,55,276,578,6192
1644187261.241988,-0.009583,0.009705,-0.991455,0.266656,0.478168,-0.069924,45,270,584,6256
1644187261.290362,-0.007812,0.010559,-0.989929,0.159786,0.386565,-0.100458,54,270,584,6128
1644187261.338773,-0.010559,0.008484,-0.99353,0.342992,0.447634,-0.100458,47,270,589,6256
1644187261.387154,-0.00824,0.011169,-0.992798,0.251389,0.417099,0.052214,54,275,579,6240
1644187261.435551,-0.01001,0.009583,-0.992615,0.373527,0.523969,-0.25313,48,283,576,6240
1644187261.483953,-0.005432,0.009766,-0.993042,0.175053,0.386565,-0.176794,43,271,585,6176
1644187261.53237,-0.007446,0.011658,-0.989746,0.205588,0.356031,-0.192061,42,285,584,6224
1644187261.580742,-0.00708,0.007446,-0.992859,0.08345,0.340763,-0.024122,49,270,584,6240
1644187261.629153,-0.00885,0.009521,-0.993347,0.236122,0.447634,-0.054656,49,282,584,6240
1644187261.677525,-0.008728,0.011536,-0.991638,0.175053,0.371298,-0.207328,48,286,578,6192
1644187261.725919,-0.00824,0.006653,-0.991272,0.068183,0.371298,-0.192061,59,275,591,6224
1644187261.774329,-0.009888,0.009277,-0.991272,0.144519,0.432366,-0.054656,54,280,582,6256
1644187261.822695,-0.006531,0.009216,-0.993103,0.342992,0.493435,-0.054656,46,266,583,6240
1644187261.87114,-0.007507,0.010742,-0.989868,0.052916,0.386565,0.006412,46,274,585,6288
1644187261.919492,-0.008484,0.009644,-0.992065,0.281924,0.325496,-0.024122,42,273,584,6240
1644187261.96792,-0.01001,0.009338,-0.992676,0.327725,0.310229,-0.176794,57,282,586,6176
1644187262.016325,-0.006958,0.008667,-0.990479,0.175053,0.371298,0.006412,48,279,592,6240
1644187262.085456,-0.010559,0.009521,-0.992859,0.113985,0.340763,-0.130992,46,276,587,6256
1644187262.117894,-0.010986,0.009338,-0.992798,0.144519,0.310229,-0.100458,52,270,582,6176
1644187262.162524,-0.01178,0.010132,-0.990601,0.281924,0.371298,0.067481,60,279,583,6192
1644187262.258225,-0.010071,0.010132,-0.989624,0.236122,0.356031,-0.115725,53,286,578,6160
1644187262.306608,-0.007751,0.010986,-0.990601,0.205588,0.585038,-0.085191,45,270,577,6192
1644187262.35525,-0.008972,0.008179,-0.99176,0.175053,0.340763,-0.130992,57,282,584,6240
1644187262.403409,-0.008667,0.007446,-0.994873,0.159786,0.417099,-0.039389,51,276,580,6224
1644187262.451814,-0.00824,0.010498,-0.992004,0.052916,0.386565,-0.130992,58,279,590,6240
1644187262.500217,-0.007446,0.01123,-0.990967,0.129252,0.432366,-0.207328,45,275,593,6192
1644187262.548596,-0.006348,0.011536,-0.99115,0.266656,0.417099,-0.14626,46,279,573,6240
1644187262.596993,-0.007812,0.008667,-0.995117,0.159786,0.417099,-0.054656,43,281,585,6224
1644187262.6454,-0.008789,0.00647,-0.991638,0.35826,0.386565,0.006412,45,273,579,6224
1644187262.693774,-0.008301,0.010193,-0.991272,0.190321,0.386565,-0.130992,34,274,583,6192
1644187262.742232,-0.008484,0.011902,-0.98999,0.129252,0.401832,-0.085191,49,280,589,6240
1644187262.790571,-0.011414,0.00885,-0.991943,0.236122,0.401832,-0.115725,48,276,590,6224
1644187262.838931,-0.009277,0.011963,-0.992065,0.236122,0.386565,-0.176794,51,264,592,6192
1644187262.887387,-0.008362,0.007751,-0.991821,0.251389,0.447634,0.082748,48,276,583,6224
1644187262.935787,-0.005432,0.013306,-0.99115,0.251389,0.401832,-0.100458,42,273,575,6176
1644187262.984172,-0.007507,0.008789,-0.989258,0.388794,0.356031,-0.039389,52,275,598,6288
1644187263.032582,-0.009094,0.006653,-0.990723,0.205588,0.447634,-0.14626,54,270,586,6240
1644187263.085402,-0.007812,0.009766,-0.990173,0.052916,0.493435,-0.024122,53,279,587,6224
1644187263.130957,-0.006165,0.007629,-0.990906,0.297191,0.462901,-0.176794,45,273,586,6240
1644187263.181308,-0.008118,0.009155,-0.991638,0.434595,0.462901,-0.008855,46,274,583,6224
1644187263.231388,-0.006897,0.008606,-0.990356,0.08345,0.371298,-0.192061,45,275,591,6224
1644187263.276471,-0.010925,0.010315,-0.992188,0.190321,0.432366,-0.161527,43,269,578,6224
1644187263.371305,-0.008789,0.008728,-0.992188,0.342992,0.310229,-0.069924,35,280,591,6240
1644187263.419707,-0.00769,0.010315,-0.991211,0.129252,0.462901,-0.039389,55,274,585,6240
1644187263.46811,-0.008972,0.010925,-0.993835,0.220855,0.310229,-0.207328,51,276,580,6240
1644187263.516494,-0.005493,0.010803,-0.988464,0.251389,0.325496,-0.054656,54,282,579,6224
1644187263.564898,-0.008179,0.011902,-0.989807,0.190321,0.432366,-0.085191,48,274,578,6256
1644187263.613288,-0.006714,0.00885,-0.991394,0.190321,0.539237,-0.192061,48,279,583,6224
1644187263.661681,-0.01062,0.00708,-0.994812,0.220855,0.294962,-0.100458,42,277,598,6160
1644187263.71008,-0.011658,0.010498,-0.990906,0.159786,0.310229,-0.14626,48,262,585,6192
1644187263.758446,-0.008301,0.010437,-0.991882,0.129252,0.371298,-0.069924,58,271,587,6240
1644187263.806852,-0.009033,0.009827,-0.99353,0.327725,0.340763,-0.024122,40,270,586,6224
1644187263.855365,-0.008728,0.012085,-0.993652,0.236122,0.462901,0.021679,49,273,582,6224
1644187263.903651,-0.007751,0.010681,-0.994629,0.281924,0.462901,-0.039389,54,282,586,6176
1644187263.952049,-0.010193,0.011047,-0.993469,0.327725,0.356031,-0.268397,52,263,577,6224
1644187264.000427,-0.008118,0.009399,-0.993652,0.236122,0.462901,-0.085191,43,271,585,6304
1644187264.058578,-0.009094,0.010071,-0.98938,0.129252,0.325496,-0.024122,55,276,594,6224
1644187264.097255,-0.008423,0.008789,-0.992798,0.220855,0.539237,-0.024122,48,279,592,6240
1644187264.145577,-0.008118,0.008728,-0.990601,0.144519,0.401832,0.052214,51,274,585,6240
1644187264.19396,-0.008301,0.010132,-0.992371,0.129252,0.386565,-0.14626,61,273,584,6160
1644187264.242579,-0.004761,0.007385,-0.991882,0.281924,0.401832,-0.130992,53,283,594,6224
1644187264.291379,-0.009583,0.008667,-0.993652,0.037649,0.371298,-0.024122,47,275,582,6224
1644187264.342013,-0.010315,0.007812,-0.990662,0.205588,0.264427,-0.039389,57,282,598,6240
1644187264.392539,-0.008789,0.009644,-0.990417,0.281924,0.432366,-0.222595,52,270,591,6224
1644187264.437407,-0.011658,0.009338,-0.990662,0.251389,0.386565,-0.176794,45,275,579,6240
1644187264.532728,-0.006653,0.008362,-0.993164,0.342992,0.447634,-0.115725,57,275,586,6240
1644187264.581084,-0.009583,0.010559,-0.989746,0.312458,0.447634,-0.069924,45,275,589,6176
1644187264.629467,-0.00769,0.007935,-0.990784,0.08345,0.417099,-0.039389,36,271,599,6192
1644187264.677888,-0.009155,0.009399,-0.992065,0.159786,0.417099,0.006412,57,273,589,6224
1644187264.726262,-0.01178,0.011475,-0.992126,0.052916,0.539237,-0.100458,46,281,580,6224
1644187264.774683,-0.010315,0.007446,-0.994202,0.205588,0.371298,-0.054656,52,275,584,6176
1644187264.823111,-0.009094,0.010864,-0.992859,0.220855,0.539237,-0.115725,47,277,572,6240
1644187264.871478,-0.006714,0.013855,-0.990906,0.251389,0.340763,-0.283664,49,280,582,6176
1644187264.919897,-0.005981,0.011047,-0.992188,0.35826,0.417099,-0.008855,46,266,583,6240
1644187264.968297,-0.00354,0.011292,-0.991455,0.190321,0.417099,-0.115725,53,279,587,6224
1644187265.016661,-0.006165,0.011414,-0.990112,0.205588,0.386565,-0.176794,52,273,584,6224
1644187265.075144,-0.008606,0.007629,-0.99115,0.205588,0.386565,0.006412,57,275,586,6224
1644187265.11344,-0.008179,0.008423,-0.992737,-0.038687,0.325496,-0.054656,49,275,600,6256
1644187265.161831,-0.006897,0.007446,-0.991882,0.281924,0.325496,0.098015,43,276,585,6240
1644187265.210225,-0.007019,0.005432,-0.989685,0.144519,0.432366,-0.054656,49,273,579,6224
1644187265.258581,-0.01001,0.01123,-0.990784,0.205588,0.340763,-0.14626,49,280,582,6224
1644187265.306988,-0.010925,0.011414,-0.993347,0.08345,0.539237,-0.176794,51,274,587,6240
1644187265.355672,-0.009644,0.010925,-0.989929,0.236122,0.508702,-0.130992,51,276,585,6224
1644187265.404019,-0.005737,0.00885,-0.99115,0.113985,0.432366,-0.100458,48,266,594,6192
1644187265.453989,-0.009094,0.009399,-0.992615,0.281924,0.356031,-0.237863,51,276,592,6224
1644187265.504338,-0.007629,0.009949,-0.993286,0.220855,0.356031,0.021679,59,285,586,6224
1644187265.549411,-0.006775,0.010559,-0.990906,0.007115,0.325496,0.036947,43,269,583,6192
1644187265.645736,-0.006592,0.008667,-0.993042,0.175053,0.386565,0.036947,39,276,580,6224
1644187265.694152,-0.008911,0.009644,-0.991821,0.297191,0.432366,-0.268397,38,273,575,6224
1644187265.742539,-0.010071,0.009644,-0.990295,0.129252,0.417099,-0.115725,47,275,586,6192
1644187265.790898,-0.009583,0.008789,-0.990784,0.205588,0.417099,-0.008855,55,279,585,6224
1644187265.839337,-0.006409,0.010925,-0.993408,0.236122,0.401832,-0.100458,41,279,576,6224
1644187265.887744,-0.006775,0.009949,-0.991272,0.327725,0.478168,-0.192061,51,279,580,6192
1644187265.936144,-0.00708,0.009155,-0.98999,0.266656,0.523969,-0.054656,51,276,578,6240
1644187265.984538,-0.009033,0.010742,-0.993042,0.342992,0.203359,-0.207328,52,280,577,6240
1644187266.032948,-0.007263,0.009094,-0.990356,0.205588,0.310229,-0.085191,46,274,587,6224
1644187266.08977,-0.008606,0.008972,-0.989258,0.35826,0.279695,-0.008855,45,277,584,6224
1644187266.129743,-0.009216,0.010254,-0.991821,0.220855,0.386565,-0.207328,45,277,582,6240
1644187266.178075,-0.007812,0.009766,-0.989807,0.175053,0.371298,-0.130992,57,270,586,6176
1644187266.226462,-0.009888,0.012207,-0.990845,0.190321,0.600305,-0.069924,41,274,583,6240
1644187266.274834,-0.010071,0.008545,-0.991699,0.175053,0.279695,-0.192061,53,281,590,6192
1644187266.326773,-0.011536,0.008728,-0.989807,0.098718,0.493435,-0.14626,54,277,586,6224
1644187266.371779,-0.007263,0.010132,-0.992798,0.175053,0.417099,-0.115725,48,279,569,6176
1644187266.421813,-0.009521,0.010193,-0.99115,0.175053,0.294962,0.021679,52,270,586,6224
1644187266.472187,-0.008606,0.01178,-0.990662,0.205588,0.523969,-0.176794,54,277,589,6240
1644187266.51746,-0.009155,0.009888,-0.992004,0.190321,0.432366,-0.039389,51,281,585,6240
1644187266.613614,-0.012817,0.008301,-0.991089,0.068183,0.371298,-0.222595,52,270,579,6256
1644187266.662002,-0.00885,0.008362,-0.992798,0.220855,0.401832,-0.176794,48,276,583,6224
1644187266.710362,-0.008362,0.009033,-0.992065,0.236122,0.417099,-0.161527,49,273,582,6256
1644187266.758762,-0.00885,0.009888,-0.993042,0.113985,0.325496,-0.100458,52,280,582,6240
1644187266.807167,-0.007751,0.009399,-0.990906,0.113985,0.386565,-0.161527,48,279,580,6192
1644187266.855605,-0.01001,0.009583,-0.993408,0.175053,0.417099,0.021679,51,279,585,6224
1644187266.904017,-0.009277,0.009155,-0.990601,0.205588,0.386565,-0.192061,49,270,584,6256
1644187266.952947,-0.008728,0.009827,-0.989929,0.144519,0.432366,-0.054656,49,280,593,6176
1644187267.000766,-0.007202,0.010925,-0.991333,0.175053,0.356031,-0.100458,55,281,583,6240
1644187267.06051,-0.008362,0.00824,-0.991821,0.190321,0.401832,-0.222595,48,271,594,6224
1644187267.098046,-0.008179,0.007629,-0.991821,0.175053,0.401832,-0.130992,59,268,598,6240
1644187267.145929,-0.008728,0.01178,-0.991333,0.266656,0.417099,-0.024122,52,282,589,6224
1644187267.194345,-0.007263,0.007629,-0.993713,0.312458,0.340763,-0.069924,49,285,579,6192
