epoch,acc_x,acc_y,acc_z,rot_x,rot_y,rot_z,mag_x,mag_y,mag_z,temp
1644179700.013002,-0.010254,0.009644,-0.992737,0.159786,0.447634,-0.008855,43,269,590,6080
1644179700.071319,-0.007629,0.011353,-0.992737,0.205588,0.447634,0.006412,43,274,585,6080
1644179700.111778,-0.010864,0.010254,-0.99353,0.220855,0.279695,-0.054656,58,279,580,6080
1644179700.158144,-0.010681,0.009277,-0.992126,0.251389,0.478168,0.189618,46,286,578,6080
1644179700.206537,-0.006897,0.00885,-0.994873,0.236122,0.447634,-0.085191,59,277,591,6112
1644179700.254949,-0.006958,0.01178,-0.989136,0.098718,0.417099,-0.008855,40,277,586,6128
1644179700.303678,-0.009705,0.007996,-0.990906,0.175053,0.401832,-0.054656,46,283,573,6080
1644179700.354083,-0.008667,0.012207,-0.990234,0.312458,0.447634,-0.054656,54,270,586,6080
1644179700.404149,-0.010437,0.010254,-0.991089,0.312458,0.279695,-0.085191,54,280,584,6016
1644179700.449301,-0.011536,0.00824,-0.992249,0.251389,0.371298,-0.14626,46,279,580,6064
1644179700.545402,-0.006958,0.007202,-0.993347,0.113985,0.325496,-0.039389,51,279,580,6016
1644179700.593667,-0.00946,0.009216,-0.994751,0.297191,0.523969,-0.054656,53,276,576,6080
1644179700.642056,-0.006836,0.010376,-0.99054,0.266656,0.294962,-0.207328,46,279,573,6080
1644179700.690457,-0.008911,0.011719,-0.992432,0.236122,0.417099,-0.115725,46,276,580,6016
1644179700.738846,-0.007263,0.00885,-0.99054,0.205588,0.417099,-0.130992,40,282,591,6080
1644179700.787253,-0.00647,0.009521,-0.992432,0.098718,0.478168,-0.161527,45,285,579,6080
1644179700.835637,-0.008545,0.011719,-0.992859,0.08345,0.493435,-0.054656,40,277,584,6128
1644179700.884078,-0.012024,0.009827,-0.991028,0.220855,0.340763,-0.130992,41,279,585,6064
1644179700.932484,-0.008789,0.009827,-0.992371,0.297191,0.371298,-0.207328,55,281,592,6064
1644179700.980864,-0.010315,0.008789,-0.99292,0.113985,0.462901,-0.25313,49,280,584,6112
1644179701.029239,-0.010437,0.007751,-0.992737,0.113985,0.371298,-0.100458,49,275,579,6080
1644179701.094934,-0.007141,0.009094,-0.992615,0.342992,0.417099,-0.176794,47,280,586,6080
1644179701.126053,-0.008972,0.009277,-0.991455,0.129252,0.432366,-0.14626,47,285,579,6016
1644179701.174406,-0.010254,0.008484,-0.994141,0.404061,0.447634,-0.130992,48,271,583,6080
1644179701.223102,-0.007751,0.010681,-0.993042,0.175053,0.310229,0.098015,46,269,580,6016
1644179701.27136,-0.009216,0.009644,-0.993347,0.251389,0.462901,-0.039389,46,283,590,6080
1644179701.32072,-0.007996,0.008972,-0.992371,0.220855,0.462901,-0.130992,41,279,585,6064
1644179701.371021,-0.009521,0.007812,-0.990723,0.068183,0.294962,-0.100458,53,269,580,6080
1644179701.42137,-0.008606,0.010193,-0.991699,0.190321,0.493435,-0.115725,51,276,599,6000
1644179701.51317,-0.008301,0.00824,-0.993286,0.434595,0.523969,-0.039389,55,279,583,6080
1644179701.561499,-0.008545,0.009216,-0.992737,0.220855,0.325496,-0.054656,51,269,585,6048
1644179701.609898,-0.006958,0.009827,-0.990723,0.388794,0.478168,-0.069924,51,279,590,6048
1644179701.658296,-0.008667,0.006958,-0.994568,0.159786,0.493435,-0.14626,57,277,577,6080
1644179701.706703,-0.008301,0.009521,-0.991089,0.159786,0.371298,-0.192061,45,258,577,6064
1644179701.755128,-0.01062,0.010925,-0.991272,0.404061,0.401832,-0.085191,59,277,582,6080
1644179701.80349,-0.011353,0.014038,-0.988831,0.297191,0.569771,-0.130992,53,274,587,6112
1644179701.851885,-0.007446,0.010864,-0.992493,0.281924,0.462901,-0.024122,52,280,579,6080
1644179701.900321,-0.009766,0.007812,-0.991943,0.236122,0.539237,0.006412,53,264,599,6048
1644179701.948713,-0.007202,0.011169,-0.990173,0.342992,0.356031,-0.207328,54,273,586,6080
1644179701.997074,-0.010132,0.007629,-0.993835,0.312458,0.356031,-0.115725,43,276,580,6048
1644179702.057573,-0.01062,0.007874,-0.993103,0.281924,0.371298,-0.008855,49,277,589,6000
1644179702.096963,-0.009583,0.011719,-0.991516,0.129252,0.417099,-0.085191,47,273,579,6080
1644179702.142293,-0.008789,0.010986,-0.991638,0.297191,0.432366,-0.039389,49,275,584,6000
1644179702.190641,-0.007812,0.009094,-0.989136,0.129252,0.386565,-0.100458,48,283,587,6016
1644179702.239033,-0.008057,0.009888,-0.991821,0.266656,0.279695,0.021679,41,274,580,6080
1644179702.287457,-0.00769,0.010071,-0.992493,0.220855,0.478168,-0.085191,54,277,586,6112
1644179702.336217,-0.008484,0.010132,-0.990784,0.220855,0.478168,0.021679,35,280,579,6112
1644179702.384254,-0.010437,0.00824,-0.991028,0.251389,0.386565,-0.008855,55,274,580,6080
1644179702.43434,-0.009155,0.012085,-0.993103,0.251389,0.462901,-0.130992,60,274,578,6080
1644179702.484514,-0.011658,0.01123,-0.99231,0.373527,0.432366,-0.130992,40,280,579,6128
1644179702.535183,-0.006653,0.008911,-0.992859,0.08345,0.462901,-0.130992,33,275,591,6016
1644179702.579165,-0.009827,0.010559,-0.996155,0.236122,0.325496,-0.039389,53,279,583,6080
1644179702.674875,-0.006592,0.009949,-0.989868,0.251389,0.401832,-0.192061,35,275,584,6080
1644179702.722993,-0.007385,0.009399,-0.994263,0.129252,0.493435,-0.115725,58,279,585,6080
1644179702.771365,-0.008789,0.011597,-0.992493,0.251389,0.371298,-0.192061,45,275,586,6048
1644179702.819741,-0.009888,0.008057,-0.989685,0.236122,0.401832,-0.329466,49,285,577,6080
1644179702.868156,-0.008911,0.010559,-0.991943,0.327725,0.310229,-0.14626,42,273,579,6080
1644179702.916539,-0.009705,0.010498,-0.993225,0.419328,0.508702,0.036947,45,282,579,6080
1644179702.964938,-0.007324,0.010376,-0.990845,0.297191,0.508702,-0.039389,45,280,591,6112
1644179703.013339,-0.009644,0.011597,-0.990784,0.098718,0.356031,-0.130992,47,282,584,6160
1644179703.064873,-0.006897,0.006165,-0.991394,0.175053,0.523969,0.036947,59,273,582,6160
1644179703.110047,-0.009399,0.011597,-0.991577,0.342992,0.417099,0.067481,48,281,578,6016
1644179703.158468,-0.007385,0.010315,-0.992493,0.220855,0.432366,0.082748,53,283,587,6080
1644179703.206868,-0.01001,0.009583,-0.992981,0.159786,0.340763,-0.039389,41,276,592,6080
1644179703.255306,-0.009399,0.010498,-0.993347,0.327725,0.447634,-0.100458,47,280,579,6016
1644179703.303658,-0.010193,0.00824,-0.991333,0.098718,0.401832,-0.024122,46,274,580,6080
1644179703.352043,-0.009644,0.008728,-0.990723,0.205588,0.325496,0.021679,49,282,584,6016
1644179703.400439,-0.009094,0.010864,-0.990234,0.266656,0.356031,-0.069924,43,283,585,6048
1644179703.448835,-0.007996,0.010071,-0.992126,0.251389,0.600305,-0.085191,42,285,591,6080
1644179703.497185,-0.00647,0.011414,-0.991028,0.098718,0.401832,-0.054656,49,275,572,6048
1644179703.545602,-0.005005,0.009094,-0.991455,0.281924,0.386565,-0.14626,47,280,575,6080
1644179703.594309,-0.010437,0.009949,-0.991577,0.129252,0.493435,-0.069924,54,263,570,6048
1644179703.644801,-0.005981,0.011597,-0.993958,0.251389,0.401832,-0.100458,46,276,576,6080
1644179703.694902,-0.010315,0.008606,-0.991272,0.113985,0.325496,-0.115725,52,285,584,6000
1644179703.740033,-0.010315,0.009949,-0.992981,0.159786,0.340763,-0.130992,47,270,579,6000
1644179703.83599,-0.013428,0.010254,-0.994141,0.175053,0.386565,-0.130992,55,269,580,6048
1644179703.884408,-0.00769,0.008362,-0.992126,0.342992,0.569771,-0.161527,51,274,585,6080
1644179703.932803,-0.008484,0.011536,-0.992432,0.159786,0.356031,0.021679,46,269,571,6080
1644179703.981149,-0.010437,0.009949,-0.988892,0.220855,0.462901,-0.008855,55,274,573,6080
1644179704.029553,-0.008545,0.009644,-0.992554,0.113985,0.508702,0.067481,41,283,576,6064
1644179704.078055,-0.009827,0.007874,-0.992004,0.220855,0.447634,-0.024122,48,286,587,6128
1644179704.126326,-0.010254,0.009827,-0.993896,0.129252,0.508702,-0.222595,38,282,591,6128
1644179704.174718,-0.008789,0.010742,-0.992432,0.281924,0.417099,0.036947,58,276,578,6080
1644179704.223111,-0.01001,0.008179,-0.990601,0.480397,0.447634,-0.024122,51,276,590,6128
1644179704.271502,-0.010559,0.006104,-0.991821,0.220855,0.417099,-0.054656,41,286,587,6080
1644179704.31989,-0.010254,0.010681,-0.990295,0.098718,0.432366,-0.054656,41,274,587,6080
1644179704.368274,-0.011169,0.010803,-0.992859,0.144519,0.356031,-0.115725,47,280,579,6064
1644179704.416674,-0.011658,0.007385,-0.992676,0.281924,0.417099,-0.176794,48,274,583,6112
1644179704.465087,-0.009644,0.010437,-0.992859,0.205588,0.417099,-0.054656,54,287,589,6048
1644179704.513459,-0.008118,0.011353,-0.992859,0.144519,0.417099,-0.115725,40,277,584,6064
1644179704.561852,-0.008362,0.007812,-0.992126,0.068183,0.371298,-0.008855,62,276,585,6080
1644179704.610249,-0.009155,0.009155,-0.991272,0.266656,0.386565,-0.25313,51,274,583,6080
1644179704.658628,-0.005859,0.009399,-0.99292,0.068183,0.554504,-0.25313,51,274,594,6016
1644179704.707218,-0.009521,0.010193,-0.991821,0.251389,0.340763,-0.161527,45,275,577,6080
1644179704.756076,-0.006775,0.007141,-0.98999,0.281924,0.356031,-0.085191,47,282,584,6064
1644179704.808866,-0.009766,0.010071,-0.992859,0.312458,0.371298,-0.100458,36,286,580,6016
1644179704.857496,-0.009705,0.011047,-0.994019,0.388794,0.508702,-0.207328,47,275,584,5984
1644179704.902233,-0.009338,0.010132,-0.991943,0.327725,0.447634,-0.085191,61,275,584,6080
1644179704.997384,-0.007629,0.008179,-0.988159,0.251389,0.432366,-0.039389,59,277,589,6112
1644179705.055519,-0.008484,0.010193,-0.990051,0.327725,0.432366,-0.207328,42,282,589,6016
1644179705.096408,-0.008667,0.012207,-0.992371,0.220855,0.417099,-0.054656,45,280,586,6048
1644179705.142565,-0.010254,0.00946,-0.990601,0.251389,0.356031,-0.14626,54,263,584,6080
1644179705.190945,-0.009644,0.010254,-0.992432,0.342992,0.401832,-0.069924,49,273,589,6064
1644179705.239347,-0.009521,0.009033,-0.992859,0.327725,0.401832,0.006412,42,270,586,6112
1644179705.287738,-0.01239,0.008789,-0.993164,0.236122,0.554504,-0.039389,62,274,587,6016
1644179705.336128,-0.009705,0.009155,-0.991089,0.236122,0.294962,-0.161527,52,265,579,6048
1644179705.384521,-0.008484,0.007812,-0.993103,0.175053,0.432366,-0.069924,53,283,587,6048
1644179705.432892,-0.009216,0.009888,-0.990967,0.327725,0.462901,-0.024122,49,285,584,6080
1644179705.481295,-0.004639,0.009338,-0.991943,0.327725,0.340763,-0.069924,46,279,580,6080
1644179705.529695,-0.011719,0.009766,-0.995239,0.190321,0.310229,-0.115725,57,287,600,6080
1644179705.57811,-0.006897,0.008728,-0.990234,-0.038687,0.310229,-0.024122,45,275,591,5984
1644179705.628388,-0.01178,0.007507,-0.992004,0.35826,0.539237,-0.069924,43,283,597,6112
1644179705.678197,-0.008179,0.009521,-0.992004,0.327725,0.386565,-0.085191,47,285,582,6176
1644179705.728298,-0.010803,0.00946,-0.99176,0.190321,0.523969,-0.14626,46,269,592,6080
1644179705.820044,-0.007935,0.008728,-0.991882,0.251389,0.478168,-0.008855,48,279,578,6080
1644179705.868469,-0.010132,0.007874,-0.991516,0.068183,0.432366,-0.207328,48,279,578,6160
1644179705.916866,-0.009705,0.010681,-0.991882,0.297191,0.539237,-0.054656,51,279,587,6064
1644179705.965253,-0.010803,0.009644,-0.98938,0.08345,0.493435,-0.024122,45,285,577,6080
1644179706.013651,-0.010193,0.011169,-0.992371,0.190321,0.386565,-0.039389,49,275,575,6016
1644179706.068876,-0.00824,0.01123,-0.989746,0.404061,0.401832,-0.283664,41,281,592,6016
1644179706.110407,-0.007996,0.008362,-0.991577,0.236122,0.447634,-0.192061,49,275,589,6064
1644179706.158803,-0.009583,0.012207,-0.992859,-0.008153,0.386565,-0.039389,55,283,580,6080
1644179706.207206,-0.010132,0.008057,-0.995911,0.312458,0.340763,-0.024122,48,276,594,6080
1644179706.255579,-0.007812,0.008911,-0.992798,0.281924,0.417099,-0.25313,47,280,586,6080
1644179706.303985,-0.009521,0.009644,-0.99353,0.159786,0.432366,-0.054656,45,285,579,6080
1644179706.352383,-0.009644,0.009705,-0.994995,0.281924,0.233893,-0.115725,49,275,586,6016
1644179706.400745,-0.008423,0.00824,-0.993591,0.175053,0.523969,-0.14626,52,268,593,6112
1644179706.449151,-0.009155,0.009705,-0.990112,0.327725,0.432366,-0.115725,52,265,582,6080
1644179706.497549,-0.007812,0.009094,-0.993286,0.281924,0.386565,-0.100458,57,277,577,6080
1644179706.54593,-0.011047,0.007446,-0.990723,0.297191,0.325496,-0.14626,42,280,584,6112
1644179706.594335,-0.011353,0.011963,-0.992737,0.205588,0.386565,-0.024122,52,277,586,6064
1644179706.642738,-0.008057,0.008362,-0.990356,0.159786,0.539237,-0.115725,47,282,593,6016
1644179706.691104,-0.00824,0.009338,-0.994446,0.251389,0.386565,-0.085191,45,282,584,6080
1644179706.739685,-0.008179,0.01123,-0.990906,0.236122,0.310229,-0.100458,51,276,592,6112
1644179706.790288,-0.009338,0.008484,-0.992065,0.205588,0.340763,-0.039389,59,280,591,6080
1644179706.840668,-0.009521,0.006653,-0.991272,0.190321,0.478168,-0.100458,42,277,584,6112
1644179706.886206,-0.009888,0.009399,-0.994324,0.236122,0.478168,0.006412,47,273,579,6080
1644179706.9815,-0.005676,0.007874,-0.991882,0.266656,0.294962,-0.039389,54,273,586,6080
1644179707.0299,-0.00769,0.00824,-0.993103,0.281924,0.386565,0.052214,48,283,576,6016
1644179707.078383,-0.010681,0.012024,-0.99054,0.175053,0.356031,-0.115725,48,276,580,6080
1644179707.126678,-0.009277,0.010254,-0.993347,0.175053,0.218626,-0.069924,49,273,584,6080
1644179707.175093,-0.006897,0.010742,-0.991394,0.175053,0.478168,-0.130992,48,264,594,6112
1644179707.223444,-0.010193,0.011414,-0.991333,0.35826,0.462901,-0.14626,41,266,583,6080
1644179707.271825,-0.008911,0.007629,-0.990784,0.281924,0.294962,-0.115725,48,271,576,6080
1644179707.320227,-0.008972,0.00885,-0.992126,0.388794,0.478168,-0.008855,51,291,587,6048
1644179707.368602,-0.006042,0.008545,-0.989929,0.434595,0.447634,-0.161527,54,270,586,6112
1644179707.416998,-0.010986,0.010315,-0.994629,0.236122,0.508702,-0.161527,49,275,584,6080
1644179707.465391,-0.009766,0.009399,-0.993347,0.266656,0.478168,-0.100458,46,269,583,6128
1644179707.513782,-0.008911,0.010254,-0.994995,0.220855,0.172824,0.12855,52,270,589,6048
1644179707.562242,-0.009277,0.007568,-0.993347,0.205588,0.401832,-0.192061,39,274,585,6080
1644179707.61057,-0.008606,0.011597,-0.99176,0.281924,0.386565,-0.130992,55,279,599,6080
1644179707.658959,-0.00885,0.011047,-0.989868,0.236122,0.432366,-0.115725,48,288,583,6064
1644179707.707347,-0.010803,0.007263,-0.992249,0.251389,0.508702,0.021679,48,276,583,6080
1644179707.755721,-0.008728,0.009094,-0.993347,0.388794,0.493435,0.052214,43,271,590,6048
1644179707.804144,-0.011047,0.009766,-0.993286,0.434595,0.24916,-0.100458,51,274,580,6080
1644179707.852598,-0.006958,0.009033,-0.994812,0.312458,0.569771,-0.115725,43,274,573,6080
1644179707.902309,-0.011108,0.009766,-0.992126,0.281924,0.310229,-0.008855,57,280,582,6128
1644179707.952646,-0.008362,0.010071,-0.993042,0.266656,0.447634,-0.14626,48,276,580,6176
1644179708.002806,-0.008301,0.010254,-0.992249,0.327725,0.646107,-0.024122,54,273,584,6080
1644179708.066959,-0.00885,0.012024,-0.994629,0.236122,0.386565,-0.100458,36,276,587,5984
1644179708.142944,-0.006531,0.010498,-0.994568,0.373527,0.569771,-0.054656,49,275,577,6080
1644179708.191321,-0.009155,0.009216,-0.989746,0.373527,0.432366,-0.14626,52,285,586,6048
1644179708.23967,-0.01123,0.01123,-0.991272,0.007115,0.447634,-0.283664,41,269,585,6016
1644179708.288052,-0.010071,0.011841,-0.994141,0.251389,0.615573,-0.14626,40,270,584,6112
1644179708.336455,-0.011414,0.011108,-0.988586,0.129252,0.218626,-0.085191,47,277,582,6160
1644179708.384842,-0.008728,0.009216,-0.993591,0.281924,0.371298,0.036947,40,282,582,6080
1644179708.433243,-0.00824,0.010315,-0.990479,0.266656,0.462901,-0.161527,51,274,583,6080
1644179708.481633,-0.010864,0.010925,-0.989319,0.159786,0.447634,-0.115725,49,290,582,6064
1644179708.530028,-0.009705,0.012695,-0.993286,0.312458,0.478168,-0.130992,54,275,579,6080
1644179708.57843,-0.007507,0.011475,-0.993347,0.159786,0.371298,-0.039389,51,274,587,6080
1644179708.626816,-0.006958,0.011414,-0.993225,0.327725,0.401832,-0.222595,54,275,586,6080
1644179708.675289,-0.009033,0.006714,-0.98761,0.175053,0.493435,-0.130992,43,279,585,6080
1644179708.723607,-0.009705,0.010803,-0.990601,0.251389,0.386565,-0.25313,52,273,591,6112
1644179708.771992,-0.009155,0.004578,-0.990479,0.266656,0.401832,-0.222595,57,273,579,6064
1644179708.820387,-0.011475,0.007385,-0.991577,0.373527,0.539237,-0.085191,54,285,579,6080
1644179708.868804,-0.006897,0.010559,-0.993042,0.266656,0.508702,-0.14626,42,268,584,6080
1644179708.917173,-0.005554,0.006348,-0.991333,0.205588,0.401832,-0.100458,52,260,586,6080
1644179708.965826,-0.010925,0.010986,-0.992249,0.190321,0.432366,-0.024122,41,281,583,6048
1644179709.014008,-0.009399,0.006836,-0.994446,0.175053,0.401832,-0.069924,51,259,585,6128
1644179709.091408,-0.005798,0.007507,-0.994934,0.251389,0.371298,-0.024122,57,280,593,6016
1644179709.111689,-0.010132,0.010254,-0.993347,0.190321,0.508702,-0.008855,55,281,587,6112
1644179709.207498,-0.011414,0.011719,-0.99176,0.220855,0.24916,-0.130992,51,271,573,6080
1644179709.255892,-0.00824,0.009827,-0.993652,0.281924,0.462901,-0.207328,53,271,571,6080
1644179709.304305,-0.010254,0.00647,-0.993652,0.236122,0.386565,-0.100458,45,280,579,6112
1644179709.3527,-0.010071,0.006165,-0.992493,0.251389,0.386565,-0.085191,40,280,582,6016
1644179709.40107,-0.012146,0.010193,-0.989441,0.281924,0.340763,-0.161527,52,275,586,6080
1644179709.449469,-0.010498,0.011047,-0.990906,0.175053,0.447634,0.036947,57,270,589,6080
1644179709.497875,-0.009338,0.010742,-0.991638,0.297191,0.523969,-0.039389,45,273,579,6128
1644179709.546259,-0.007629,0.009521,-0.991211,0.113985,0.386565,0.021679,42,275,589,6080
1644179709.59466,-0.008789,0.007324,-0.992004,0.220855,0.600305,0.052214,47,268,575,6080
1644179709.643064,-0.009583,0.00946,-0.992188,0.236122,0.417099,0.036947,62,276,585,6080
1644179709.691443,-0.011108,0.00885,-0.993958,0.159786,0.356031,-0.115725,55,276,576,6064
1644179709.739844,-0.010315,0.008972,-0.995239,0.327725,0.478168,-0.130992,52,275,593,6064
1644179709.788224,-0.011108,0.008179,-0.991699,0.251389,0.386565,-0.100458,42,282,582,6080
1644179709.83662,-0.011475,0.007874,-0.992981,0.297191,0.356031,-0.14626,48,271,580,6080
1644179709.885087,-0.008118,0.010681,-0.991516,0.159786,0.294962,-0.176794,46,279,590,6080
1644179709.933455,-0.009338,0.010986,-0.992615,0.266656,0.508702,-0.207328,53,264,583,6080
1644179709.981838,-0.006409,0.008972,-0.991455,0.205588,0.417099,-0.130992,51,269,583,6000
1644179710.030198,-0.008423,0.011047,-0.995178,0.144519,0.447634,-0.176794,57,277,586,6128
1644179710.081342,-0.00824,0.010254,-0.993225,0.220855,0.493435,-0.192061,48,271,580,6080
1644179710.127601,-0.009705,0.008911,-0.992126,0.266656,0.371298,-0.176794,43,279,585,6016
1644179710.177917,-0.009155,0.008057,-0.99231,0.342992,0.447634,-0.039389,40,280,582,6016
1644179710.228405,-0.01062,0.01123,-0.992065,0.068183,0.417099,0.036947,55,286,580,6112
1644179710.272821,-0.007446,0.009216,-0.994446,0.419328,0.417099,-0.024122,34,279,583,6000
1644179710.368952,-0.010681,0.007874,-0.990784,0.052916,0.371298,-0.207328,42,277,572,6080
1644179710.417351,-0.008606,0.011536,-0.991699,0.251389,0.356031,-0.115725,42,273,593,6048
1644179710.465747,-0.009033,0.00769,-0.99231,0.113985,0.325496,0.006412,58,279,590,6080
1644179710.514157,-0.009521,0.008423,-0.991272,0.46513,0.371298,-0.161527,47,275,579,6080
1644179710.562558,-0.010132,0.009827,-0.99176,0.144519,0.401832,0.021679,48,281,580,6016
1644179710.610939,-0.012146,0.010864,-0.992859,0.190321,0.356031,-0.237863,45,280,584,6000
1644179710.659313,-0.011292,0.00824,-0.993225,0.266656,0.386565,0.036947,48,283,590,6080
1644179710.707726,-0.007935,0.010498,-0.99115,0.175053,0.447634,-0.085191,55,266,580,6080
1644179710.756119,-0.006165,0.011353,-0.990051,0.113985,0.447634,-0.024122,54,277,582,6048
1644179710.804518,-0.011292,0.009094,-0.991882,0.281924,0.157557,-0.161527,46,276,583,6048
1644179710.852917,-0.008057,0.007507,-0.992371,0.327725,0.493435,-0.237863,57,277,586,6016
1644179710.90129,-0.009094,0.012146,-0.991516,0.281924,0.462901,-0.008855,52,277,589,6016
1644179710.949691,-0.010376,0.007812,-0.992798,0.266656,0.371298,-0.008855,61,280,577,6080
1644179710.998073,-0.008545,0.007324,-0.991394,0.251389,0.371298,-0.054656,53,279,590,6080
1644179711.046474,-0.007507,0.007263,-0.991394,0.251389,0.386565,-0.115725,43,286,587,6080
1644179711.098664,-0.007751,0.009766,-0.99115,0.251389,0.233893,-0.085191,49,275,579,6048
1644179711.143234,-0.008057,0.008301,-0.994019,0.205588,0.401832,-0.161527,41,281,587,6048
1644179711.191599,-0.010132,0.008728,-0.99176,0.266656,0.356031,-0.176794,65,271,580,6016
1644179711.240034,-0.009399,0.013184,-0.992554,0.327725,0.508702,-0.222595,51,269,587,6080
1644179711.288762,-0.008606,0.006714,-0.993225,0.098718,0.310229,-0.161527,49,282,584,6080
1644179711.339363,-0.007385,0.009338,-0.994385,0.266656,0.401832,-0.069924,47,265,596,6016
1644179711.389438,-0.007507,0.011963,-0.991821,0.449863,0.401832,-0.237863,52,282,584,6080
1644179711.434482,-0.01123,0.009399,-0.992981,0.236122,0.356031,-0.176794,48,276,590,6000
1644179711.530366,-0.00946,0.009155,-0.994202,0.159786,0.462901,-0.024122,46,281,583,6080
1644179711.578731,-0.007812,0.010071,-0.994141,0.327725,0.386565,-0.085191,51,279,578,6080
1644179711.627118,-0.009705,0.009827,-0.990112,0.144519,0.264427,-0.222595,42,270,589,6128
1644179711.67552,-0.010132,0.008484,-0.993652,0.266656,0.523969,-0.008855,48,271,590,6064
1644179711.723919,-0.009827,0.009155,-0.993042,0.098718,0.264427,-0.25313,51,286,583,6112
1644179711.772759,-0.008423,0.011169,-0.992554,0.266656,0.447634,-0.176794,45,270,586,6128
1644179711.820739,-0.008728,0.010742,-0.991333,0.35826,0.569771,-0.054656,57,265,582,6080
1644179711.869143,-0.007385,0.010437,-0.992249,0.281924,0.432366,-0.161527,49,275,572,6016
1644179711.917502,-0.011047,0.009888,-0.991211,0.175053,0.417099,-0.115725,46,274,587,6112
1644179711.965923,-0.00946,0.010437,-0.995911,0.098718,0.539237,-0.222595,53,283,583,6080
1644179712.014302,-0.007812,0.011536,-0.989685,0.190321,0.356031,-0.008855,51,274,583,6176
1644179712.067725,-0.006348,0.01178,-0.990906,0.144519,0.294962,-0.008855,51,281,592,6016
1644179712.111074,-0.009033,0.008362,-0.993042,0.129252,0.386565,-0.115725,58,279,590,6080
1644179712.159445,-0.009766,0.010559,-0.993225,0.129252,0.371298,-0.207328,43,269,587,6080
1644179712.207841,-0.008301,0.010315,-0.992981,0.220855,0.432366,0.036947,49,263,589,6048
1644179712.256209,-0.008057,0.010803,-0.992493,0.236122,0.523969,-0.161527,40,280,584,6048
1644179712.304663,-0.007141,0.008179,-0.991272,0.388794,0.325496,-0.100458,49,268,586,6064
1644179712.353052,-0.011841,0.010132,-0.993347,0.419328,0.310229,-0.069924,42,277,598,6016
1644179712.402609,-0.009949,0.010376,-0.993652,0.220855,0.386565,0.021679,41,279,587,6080
1644179712.452925,-0.010132,0.011353,-0.992615,0.236122,0.432366,-0.115725,52,270,591,6064
1644179712.50322,-0.007751,0.002563,-0.993042,0.236122,0.462901,-0.024122,54,273,586,6080
1644179712.595275,-0.008789,0.009644,-0.989441,0.327725,0.417099,-0.039389,45,287,584,6000
1644179712.643387,-0.007324,0.010132,-0.992493,0.281924,0.386565,-0.130992,47,280,579,6080
1644179712.691766,-0.007568,0.009094,-0.992676,0.159786,0.432366,-0.130992,49,277,584,6080
1644179712.740146,-0.007935,0.007629,-0.992859,0.190321,0.478168,-0.100458,57,277,572,6080
1644179712.788523,-0.006531,0.012329,-0.99115,0.327725,0.325496,-0.222595,54,270,579,6080
1644179712.836962,-0.00769,0.012329,-0.994202,0.327725,0.508702,-0.054656,48,279,583,6048
1644179712.885363,-0.010559,0.011414,-0.994141,0.205588,0.371298,-0.100458,48,281,583,6048
1644179712.933779,-0.006775,0.010803,-0.992004,0.08345,0.63084,-0.207328,53,271,578,6080
1644179712.982175,-0.009766,0.009094,-0.993225,0.327725,0.279695,-0.039389,45,280,591,6080
1644179713.030555,-0.00946,0.011292,-0.992676,0.251389,0.447634,-0.069924,52,270,589,6000
1644179713.083093,-0.01178,0.012451,-0.991333,0.205588,0.417099,-0.176794,49,280,589,6080
1644179713.127314,-0.011719,0.00769,-0.992004,0.251389,0.218626,-0.100458,51,271,597,6080
1644179713.175692,-0.009033,0.01178,-0.996033,0.281924,0.569771,-0.024122,47,270,586,6128
1644179713.224072,-0.01062,0.010254,-0.991455,0.08345,0.478168,-0.085191,48,276,590,6080
1644179713.272467,-0.008301,0.007324,-0.994324,0.175053,0.401832,-0.222595,42,275,586,6080
1644179713.322384,-0.008545,0.009705,-0.990723,0.205588,0.447634,-0.100458,55,274,587,6016
1644179713.372678,-0.010559,0.009033,-0.992615,0.281924,0.325496,-0.008855,35,277,582,6048
1644179713.422844,-0.009827,0.006775,-0.991577,0.251389,0.386565,-0.069924,46,286,578,6112
1644179713.514435,-0.011292,0.008179,-0.992126,0.236122,0.462901,-0.039389,55,281,573,6064
1644179713.562844,-0.011169,0.010132,-0.993225,0.190321,0.386565,-0.222595,32,281,583,6080
1644179713.611185,-0.009277,0.009827,-0.991516,0.312458,0.447634,-0.069924,49,277,579,6048
1644179713.659609,-0.011169,0.010803,-0.993774,0.281924,0.386565,-0.024122,39,269,587,6080
1644179713.707997,-0.01062,0.009644,-0.989746,0.098718,0.462901,-0.207328,40,280,577,6080
1644179713.756366,-0.006897,0.009766,-0.990784,0.236122,0.539237,-0.069924,55,283,580,6080
1644179713.804966,-0.013489,0.00769,-0.991455,0.297191,0.585038,-0.130992,51,279,576,6080
1644179713.853233,-0.009521,0.006348,-0.992737,0.266656,0.371298,-0.14626,47,273,579,6112
1644179713.901615,-0.010742,0.006836,-0.991577,0.297191,0.279695,-0.161527,46,276,585,5984
1644179713.950016,-0.007812,0.011963,-0.99115,0.266656,0.432366,-0.069924,49,273,584,6048
1644179713.998372,-0.011719,0.006287,-0.992615,0.068183,0.371298,-0.161527,42,277,582,6048
1644179714.059243,-0.010315,0.009949,-0.992676,0.297191,0.417099,-0.054656,49,270,586,6112
1644179714.096454,-0.008362,0.012146,-0.993774,0.35826,0.569771,-0.039389,52,282,586,6048
1644179714.143564,-0.009766,0.008545,-0.993469,0.266656,0.523969,-0.222595,51,283,587,6064
1644179714.191928,-0.009888,0.008728,-0.990295,0.129252,0.310229,-0.085191,52,290,584,6112
1644179714.240283,-0.010071,0.012146,-0.994751,0.281924,0.462901,-0.085191,47,277,575,6128
1644179714.288717,-0.008179,0.009094,-0.989807,0.175053,0.478168,-0.130992,52,275,582,6112
1644179714.337118,-0.009949,0.007812,-0.99353,0.251389,0.340763,0.006412,46,276,590,6016
1644179714.385494,-0.007874,0.008911,-0.989502,0.388794,0.432366,-0.268397,58,269,587,6080
1644179714.434146,-0.01001,0.008606,-0.989563,0.266656,0.447634,0.052214,42,277,582,6080
1644179714.484633,-0.011108,0.009277,-0.991455,0.327725,0.310229,-0.176794,52,282,596,6048
1644179714.535132,-0.010742,0.009949,-0.991455,0.266656,0.447634,-0.283664,48,281,583,6112
1644179714.580166,-0.009644,0.008484,-0.992065,0.251389,0.462901,-0.192061,52,275,577,6080
1644179714.675832,-0.010437,0.011108,-0.994507,0.35826,0.508702,-0.069924,52,282,589,6016
1644179714.724247,-0.009033,0.007874,-0.990601,0.129252,0.188092,-0.130992,45,277,582,6048
1644179714.772653,-0.00824,0.009766,-0.989258,0.327725,0.493435,-0.161527,39,279,583,6080
1644179714.821021,-0.008484,0.009521,-0.992249,0.236122,0.218626,-0.100458,51,281,578,6128
1644179714.869429,-0.009338,0.012085,-0.99408,0.113985,0.478168,-0.085191,34,279,583,6112
1644179714.917848,-0.011902,0.010437,-0.99353,0.220855,0.401832,-0.100458,53,281,576,6064
1644179714.966244,-0.009888,0.010681,-0.992615,0.266656,0.447634,-0.085191,47,280,579,6016
1644179715.014648,-0.006897,0.007751,-0.990784,0.327725,0.386565,-0.237863,53,274,580,6112
1644179715.067671,-0.009949,0.009216,-0.989685,0.175053,0.371298,-0.054656,48,286,580,6080
1644179715.111424,-0.010437,0.008972,-0.99115,0.312458,0.325496,-0.008855,53,271,585,6016
1644179715.15977,-0.010925,0.008728,-0.994751,0.327725,0.401832,-0.115725,49,273,584,6048
1644179715.208169,-0.004639,0.009277,-0.993652,0.312458,0.493435,-0.069924,40,275,579,6016
1644179715.256553,-0.010864,0.008789,-0.994263,0.35826,0.340763,0.052214,54,282,584,6016
1644179715.305069,-0.008911,0.013062,-0.996765,0.159786,0.371298,-0.176794,39,281,590,6080
1644179715.353344,-0.009399,0.009766,-0.99231,0.266656,0.386565,-0.14626,42,275,589,6048
1644179715.401738,-0.007568,0.010803,-0.991882,0.266656,0.401832,-0.14626,55,281,590,6160
1644179715.450129,-0.009521,0.010559,-0.993591,0.281924,0.356031,0.036947,46,274,585,6016
1644179715.49849,-0.009155,0.008728,-0.993225,0.266656,0.401832,-0.130992,49,280,593,6064
1644179715.546915,-0.009277,0.006165,-0.992676,0.08345,0.417099,0.021679,49,270,582,6128
1644179715.595346,-0.009399,0.010071,-0.98938,0.159786,0.356031,-0.069924,52,287,589,6016
1644179715.645596,-0.00946,0.010986,-0.993652,0.098718,0.356031,-0.115725,48,281,583,6080
1644179715.695926,-0.008606,0.006714,-0.98999,0.220855,0.401832,-0.130992,51,281,583,6080
1644179715.741053,-0.009888,0.01123,-0.992249,0.342992,0.417099,-0.008855,45,270,584,6128
1644179715.837255,-0.008423,0.008789,-0.991455,0.342992,0.523969,-0.192061,49,270,582,6080
1644179715.885697,-0.014465,0.007996,-0.992432,0.281924,0.447634,0.082748,53,276,583,6048
1644179715.934096,-0.00946,0.011353,-0.991028,0.159786,0.508702,-0.024122,46,286,578,6016
1644179715.982497,-0.004944,0.01123,-0.99292,0.236122,0.310229,-0.085191,52,282,582,6016
1644179716.030873,-0.008057,0.009583,-0.991577,0.144519,0.569771,-0.069924,46,281,587,6016
1644179716.079462,-0.008057,0.010376,-0.993591,0.190321,0.401832,-0.085191,60,279,585,6000
1644179716.127631,-0.009399,0.008179,-0.990356,0.205588,0.294962,-0.130992,49,285,579,6064
1644179716.176013,-0.006531,0.010681,-0.990479,0.35826,0.340763,-0.130992,49,277,584,6048
1644179716.224403,-0.008972,0.009399,-0.991272,0.220855,0.310229,-0.085191,45,282,586,6048
1644179716.272785,-0.009827,0.006836,-0.993774,0.373527,0.356031,-0.085191,49,277,579,6016
1644179716.321167,-0.009033,0.008972,-0.99176,0.190321,0.462901,-0.14626,49,280,579,6064
1644179716.369582,-0.011963,0.00708,-0.993164,0.251389,0.356031,-0.069924,43,279,583,6080
1644179716.41797,-0.010559,0.007446,-0.993896,0.312458,0.539237,-0.192061,48,279,573,6080
1644179716.466359,-0.007568,0.010132,-0.990723,0.220855,0.447634,-0.192061,52,282,582,6016
1644179716.514776,-0.011414,0.009338,-0.993347,0.190321,0.401832,-0.054656,42,280,584,5984
1644179716.563173,-0.011292,0.008423,-0.991699,0.205588,0.294962,0.006412,35,275,577,6080
1644179716.61154,-0.011047,0.011292,-0.992065,0.327725,0.478168,-0.024122,57,273,589,6080
1644179716.659932,-0.008972,0.01062,-0.989441,0.35826,0.279695,-0.100458,43,271,580,6048
1644179716.708293,-0.011536,0.00885,-0.992615,0.190321,0.447634,-0.14626,49,275,596,6048
1644179716.756757,-0.009949,0.008972,-0.990295,0.190321,0.478168,-0.085191,39,266,590,6064
1644179716.810763,-0.007202,0.008118,-0.992249,0.205588,0.340763,-0.069924,45,280,586,6080
1644179716.857689,-0.009521,0.008667,-0.993103,0.327725,0.264427,-0.161527,55,269,583,6016
1644179716.902715,-0.009521,0.010071,-0.991577,0.251389,0.585038,-0.085191,43,279,580,6064
1644179716.998734,-0.009033,0.00946,-0.992004,0.144519,0.478168,-0.100458,46,274,580,6112
1644179717.060579,-0.010193,0.008423,-0.993164,0.297191,0.508702,0.113282,45,273,577,6080
1644179717.095545,-0.010193,0.008789,-0.99115,0.052916,0.356031,-0.069924,59,277,596,6112
1644179717.143894,-0.00824,0.010803,-0.991089,0.190321,0.600305,-0.085191,51,271,583,6000
1644179717.192275,-0.01062,0.009705,-0.992981,0.144519,0.386565,-0.222595,43,276,587,6016
1644179717.240627,-0.00946,0.010315,-0.992554,0.35826,0.508702,-0.054656,48,279,580,6080
1644179717.289057,-0.007568,0.007568,-0.992798,0.281924,0.447634,-0.100458,47,277,589,6080
1644179717.337433,-0.00708,0.007874,-0.990845,0.327725,0.462901,-0.100458,53,276,590,6080
1644179717.385796,-0.011047,0.012268,-0.992065,0.220855,0.432366,-0.161527,43,274,590,5984
1644179717.434217,-0.008301,0.009094,-0.993713,0.190321,0.523969,-0.085191,60,279,587,6160
1644179717.48263,-0.010986,0.00769,-0.996338,0.236122,0.493435,-0.085191,46,283,578,6080
1644179717.531007,-0.009583,0.009094,-0.992981,0.190321,0.447634,-0.008855,43,279,580,6064
1644179717.579401,-0.01001,0.009827,-0.993103,0.251389,0.401832,-0.130992,54,270,584,6112
1644179717.627998,-0.008728,0.008423,-0.992798,0.327725,0.523969,-0.024122,52,270,572,6080
1644179717.678585,-0.012146,0.013428,-0.990967,0.129252,0.493435,-0.085191,45,287,586,6080
1644179717.728589,-0.01001,0.012512,-0.991821,0.175053,0.310229,-0.14626,48,283,590,6080
1644179717.773713,-0.010742,0.009521,-0.992676,0.449863,0.508702,-0.069924,57,273,584,6160
1644179717.86974,-0.009155,0.011292,-0.990295,0.297191,0.386565,-0.130992,40,282,582,6128
1644179717.918203,-0.008972,0.009644,-0.992676,0.175053,0.294962,0.006412,52,280,584,6112
1644179717.966565,-0.010925,0.008789,-0.992371,0.220855,0.417099,-0.115725,40,268,586,5984
1644179718.015143,-0.012268,0.011902,-0.992249,0.236122,0.325496,0.036947,52,265,584,6048
1644179718.066344,-0.009033,0.010376,-0.992493,0.327725,0.294962,-0.161527,54,273,586,6080
1644179718.111727,-0.010681,0.008972,-0.992126,0.297191,0.462901,-0.130992,47,273,584,6000
1644179718.16009,-0.010437,0.009094,-0.99176,0.251389,0.447634,-0.298931,49,270,596,6128
1644179718.208498,-0.01062,0.009644,-0.993958,0.327725,0.417099,-0.130992,42,270,570,6080
1644179718.25689,-0.010132,0.004761,-0.992676,0.281924,0.523969,-0.085191,52,282,586,6064
1644179718.3053,-0.00769,0.008972,-0.993713,0.35826,0.417099,-0.054656,58,279,587,6080
1644179718.353691,-0.009827,0.008179,-0.993347,0.144519,0.539237,-0.192061,47,275,589,6080
1644179718.402051,-0.009766,0.008606,-0.994385,0.08345,0.417099,-0.130992,47,277,589,6080
1644179718.45046,-0.007385,0.011475,-0.993225,0.190321,0.493435,-0.161527,54,282,568,6128
1644179718.498858,-0.007629,0.010742,-0.993225,0.220855,0.356031,-0.024122,45,280,577,6080
1644179718.54724,-0.010437,0.006592,-0.992981,0.205588,0.371298,-0.14626,46,281,587,6048
1644179718.59564,-0.011597,0.010254,-0.992249,0.297191,0.478168,-0.237863,46,274,578,6112
1644179718.643997,-0.007202,0.00946,-0.991882,0.220855,0.401832,-0.161527,54,277,586,6048
1644179718.692446,-0.009338,0.009888,-0.993042,0.175053,0.417099,-0.237863,47,282,582,6128
1644179718.740801,-0.006897,0.010193,-0.992615,0.236122,0.447634,-0.085191,48,274,592,6016
1644179718.789875,-0.010132,0.010681,-0.991577,0.144519,0.340763,-0.085191,47,275,589,6080
1644179718.841526,-0.008667,0.009644,-0.992249,0.236122,0.462901,-0.130992,47,290,584,6080
1644179718.891912,-0.009949,0.009949,-0.994812,0.159786,0.478168,0.036947,51,274,587,6064
1644179718.982859,-0.00531,0.010071,-0.990845,0.281924,0.417099,-0.115725,49,275,591,6128
1644179719.031197,-0.008362,0.010559,-0.989197,0.205588,0.340763,-0.024122,46,283,580,6128
1644179719.080971,-0.009033,0.011108,-0.990845,0.190321,0.371298,0.098015,41,286,583,6128
1644179719.12793,-0.009338,0.008606,-0.993225,0.297191,0.493435,-0.069924,52,270,579,6080
1644179719.176328,-0.007629,0.006714,-0.993225,0.266656,0.417099,-0.100458,48,271,585,6080
1644179719.224741,-0.00708,0.010803,-0.992126,0.281924,0.539237,-0.14626,46,279,580,6160
1644179719.273112,-0.00708,0.00885,-0.993774,0.098718,0.325496,-0.085191,47,277,582,6080
1644179719.321519,-0.009766,0.007141,-0.993713,0.312458,0.478168,-0.222595,42,282,579,6080
1644179719.36991,-0.009766,0.007751,-0.994568,0.297191,0.401832,-0.130992,53,269,578,6080
1644179719.418305,-0.006653,0.011108,-0.992065,0.159786,0.340763,0.098015,57,273,584,6112
1644179719.4667,-0.008606,0.011414,-0.993835,0.175053,0.432366,-0.069924,40,282,582,6112
1644179719.515184,-0.006409,0.008606,-0.992676,0.327725,0.325496,-0.008855,51,283,580,6080
1644179719.563484,-0.008789,0.007935,-0.992371,0.220855,0.279695,-0.008855,43,276,580,6016
1644179719.611865,-0.007751,0.009827,-0.991882,0.205588,0.386565,-0.008855,51,276,585,6064
1644179719.660262,-0.009766,0.012634,-0.993713,0.098718,0.401832,-0.130992,57,275,582,6016
1644179719.708661,-0.009583,0.009338,-0.994446,0.35826,0.310229,-0.069924,59,268,586,6016
1644179719.757024,-0.009033,0.008301,-0.991394,0.220855,0.539237,-0.069924,42,270,582,6112
1644179719.80574,-0.00885,0.010803,-0.991577,0.037649,0.325496,-0.054656,47,280,584,6048
1644179719.853891,-0.008179,0.010254,-0.990295,0.098718,0.539237,-0.039389,40,270,575,6064
1644179719.903705,-0.010437,0.008545,-0.991882,0.388794,0.523969,-0.069924,51,271,578,6080
1644179719.953898,-0.009033,0.009216,-0.992432,0.236122,0.325496,0.052214,43,283,592,6080
1644179720.004598,-0.00885,0.009644,-0.992737,0.327725,0.356031,0.006412,58,274,580,6080
1644179720.062963,-0.009949,0.007385,-0.993225,0.251389,0.417099,-0.039389,58,283,576,6080
1644179720.14419,-0.006653,0.009888,-0.990479,0.159786,0.447634,-0.115725,46,279,583,6080
1644179720.192588,-0.009399,0.007202,-0.990234,0.251389,0.447634,-0.14626,55,283,583,6128
1644179720.240936,-0.009521,0.007935,-0.990295,0.129252,0.356031,-0.25313,40,277,579,6080
1644179720.289366,-0.00885,0.009827,-0.989868,0.220855,0.386565,0.021679,41,276,578,6128
1644179720.337749,-0.006714,0.009277,-0.991455,0.159786,0.386565,-0.054656,51,286,580,6048
1644179720.386137,-0.005615,0.008667,-0.99353,0.35826,0.493435,0.021679,49,285,579,6048
1644179720.434526,-0.009033,0.007385,-0.993591,0.388794,0.371298,-0.069924,51,274,583,6128
1644179720.482941,-0.009766,0.007812,-0.991943,0.159786,0.310229,-0.115725,48,274,580,6080
1644179720.531297,-0.010986,0.011047,-0.99292,0.312458,0.294962,0.082748,38,280,586,6112
1644179720.579705,-0.008911,0.009155,-0.994629,0.220855,0.386565,-0.100458,46,281,580,6080
1644179720.628111,-0.009583,0.008667,-0.991699,0.404061,0.340763,-0.039389,45,277,586,6080
1644179720.676499,-0.007324,0.008545,-0.990295,0.266656,0.340763,0.021679,45,277,582,6080
1644179720.724916,-0.007385,0.008301,-0.993225,0.251389,0.401832,-0.14626,55,279,583,6080
1644179720.773318,-0.009277,0.009216,-0.990967,0.419328,0.401832,-0.100458,53,276,585,6080
1644179720.821731,-0.009644,0.008545,-0.993286,0.281924,0.371298,0.006412,59,275,584,6000
1644179720.870088,-0.010681,0.009583,-0.991272,0.144519,0.371298,-0.039389,55,266,587,6080
1644179720.918512,-0.00824,0.010803,-0.991577,0.220855,0.447634,-0.115725,51,271,594,6128
1644179720.96689,-0.009521,0.007874,-0.995789,0.205588,0.417099,0.021679,47,275,579,6000
1644179721.015319,-0.007996,0.009094,-0.993225,0.251389,0.386565,-0.085191,52,275,589,6048
1644179721.11199,-0.010376,0.008606,-0.989502,0.281924,0.24916,0.067481,45,277,598,5984
1644179721.160402,-0.01062,0.009766,-0.992981,0.251389,0.340763,-0.039389,46,274,585,6048
1644179721.208815,-0.007874,0.006287,-0.991882,0.236122,0.462901,-0.024122,52,273,591,6080
1644179721.257194,-0.008179,0.012512,-0.993042,0.342992,0.432366,-0.100458,47,280,582,6064
1644179721.305604,-0.009399,0.00946,-0.993225,0.342992,0.340763,-0.100458,42,273,584,6080
1644179721.353993,-0.010315,0.007324,-0.994751,0.312458,0.432366,-0.054656,45,280,584,6048
1644179721.402397,-0.009094,0.008118,-0.991028,0.251389,0.401832,-0.085191,45,275,596,6048
1644179721.450764,-0.010498,0.010315,-0.990906,0.068183,0.356031,-0.039389,52,265,582,6080
1644179721.499145,-0.007629,0.009338,-0.993591,0.129252,0.340763,0.021679,52,270,586,6080
1644179721.547559,-0.010376,0.010986,-0.991333,0.297191,0.417099,-0.069924,53,281,583,6080
1644179721.595964,-0.010254,0.010193,-0.992737,0.281924,0.447634,0.052214,48,271,580,6048
1644179721.644367,-0.009766,0.010193,-0.992065,0.251389,0.417099,0.006412,51,274,583,6080
1644179721.692755,-0.009399,0.010681,-0.989929,0.266656,0.325496,0.036947,52,268,591,6112
1644179721.741134,-0.007507,0.009766,-0.989197,0.327725,0.340763,-0.024122,54,285,584,6000
1644179721.78953,-0.006042,0.012146,-0.991638,0.129252,0.386565,-0.054656,47,282,579,6048
1644179721.837931,-0.008484,0.009521,-0.993164,0.251389,0.401832,-0.024122,55,281,583,6080
1644179721.886357,-0.011475,0.009521,-0.989807,0.480397,0.462901,-0.14626,53,276,592,6016
1644179721.934747,-0.009705,0.009338,-0.992615,0.388794,0.432366,-0.115725,47,275,586,6080
1644179721.983162,-0.010437,0.010864,-0.992432,0.205588,0.325496,-0.130992,54,280,582,6080
1644179722.032575,-0.009277,0.010559,-0.99292,0.205588,0.386565,0.067481,45,290,593,6080
1644179722.093592,-0.010681,0.009888,-0.993713,0.251389,0.432366,-0.115725,45,277,598,6048
1644179722.133165,-0.010376,0.008667,-0.993164,0.113985,0.447634,-0.054656,43,276,587,6080
1644179722.177179,-0.010864,0.010498,-0.993347,0.205588,0.401832,0.052214,45,265,579,6080
1644179722.273454,-0.007141,0.01178,-0.991211,0.159786,0.340763,0.052214,54,273,582,6080
1644179722.321829,-0.012024,0.009644,-0.991516,0.220855,0.401832,0.036947,57,280,584,5984
1644179722.370222,-0.00824,0.012329,-0.994629,0.449863,0.432366,-0.085191,54,280,584,6016
1644179722.418634,-0.01062,0.00946,-0.992615,0.129252,0.462901,-0.069924,57,270,579,6128
1644179722.467004,-0.007141,0.008179,-0.995056,0.236122,0.340763,-0.130992,49,287,575,6112
1644179722.515395,-0.010376,0.010071,-0.992615,0.266656,0.371298,-0.054656,45,275,579,6112
1644179722.563801,-0.009277,0.009766,-0.989258,0.175053,0.386565,-0.085191,49,277,589,6112
1644179722.612207,-0.008301,0.010864,-0.993958,0.46513,0.401832,-0.14626,40,277,582,6080
1644179722.660592,-0.007202,0.008484,-0.991577,0.220855,0.340763,0.021679,54,282,582,6048
1644179722.708985,-0.009216,0.009644,-0.992615,0.205588,0.340763,-0.039389,45,270,591,6016
1644179722.757371,-0.007507,0.010437,-0.992126,0.297191,0.340763,-0.192061,49,282,582,6128
1644179722.805775,-0.007202,0.007629,-0.990479,0.113985,0.340763,-0.100458,59,273,584,6080
1644179722.854175,-0.006836,0.012146,-0.990845,0.205588,0.371298,-0.207328,41,271,573,6016
1644179722.902608,-0.009644,0.007874,-0.995483,0.46513,0.340763,-0.085191,58,274,587,6080
1644179722.950975,-0.006348,0.008484,-0.992493,0.113985,0.386565,0.036947,42,275,589,6080
1644179722.999362,-0.007874,0.011047,-0.991516,0.236122,0.493435,-0.130992,54,273,589,6016
1644179723.060082,-0.005676,0.01062,-0.991577,0.068183,0.401832,-0.054656,49,273,591,6016
1644179723.100491,-0.007568,0.012207,-0.993347,0.388794,0.310229,-0.024122,41,281,594,6064
1644179723.144518,-0.009338,0.010986,-0.991028,0.281924,0.386565,-0.161527,51,276,590,6080
1644179723.193288,-0.008972,0.008301,-0.993042,0.236122,0.462901,-0.100458,53,269,585,6048
1644179723.243544,-0.009583,0.009949,-0.992126,0.46513,0.447634,-0.054656,40,275,579,6112
1644179723.293904,-0.007996,0.011902,-0.992493,0.007115,0.401832,-0.085191,51,274,580,6080
1644179723.338811,-0.009399,0.009766,-0.990967,0.098718,0.447634,0.113282,46,274,580,6048
1644179723.434907,-0.011108,0.011719,-0.989746,0.297191,0.294962,-0.024122,43,281,576,6160
1644179723.483232,-0.009766,0.011475,-0.991455,0.297191,0.371298,-0.192061,42,277,586,6080
1644179723.531646,-0.009888,0.008789,-0.992126,0.205588,0.401832,-0.161527,47,273,579,6112
1644179723.580039,-0.010315,0.010376,-0.994995,0.205588,0.417099,-0.039389,60,276,571,6048
1644179723.628431,-0.009827,0.010498,-0.994446,0.342992,0.523969,-0.176794,60,281,590,6064
1644179723.676825,-0.007263,0.010803,-0.990295,0.251389,0.371298,-0.222595,58,286,587,6000
1644179723.725217,-0.01123,0.010132,-0.991943,0.220855,0.386565,0.052214,51,283,576,6016
1644179723.773612,-0.00946,0.010376,-0.993896,0.297191,0.401832,-0.085191,55,281,594,6064
1644179723.822013,-0.009338,0.008728,-0.991821,0.205588,0.401832,0.006412,51,274,576,6064
1644179723.87044,-0.008423,0.010132,-0.994324,0.281924,0.371298,-0.237863,45,273,579,6080
1644179723.918821,-0.00824,0.010925,-0.992737,0.144519,0.356031,-0.008855,58,276,580,6048
1644179723.967209,-0.010803,0.009277,-0.992554,0.251389,0.417099,-0.222595,51,283,590,6048
1644179724.015625,-0.009033,0.009338,-0.99115,0.35826,0.569771,-0.176794,49,273,584,6080
1644179724.076213,-0.008423,0.005859,-0.995117,0.190321,0.447634,-0.207328,55,283,587,6016
1644179724.112402,-0.009094,0.008606,-0.992249,0.251389,0.569771,-0.008855,46,276,590,6016
1644179724.160755,-0.006531,0.010254,-0.994263,0.175053,0.462901,-0.069924,40,270,577,5984
1644179724.209148,-0.010437,0.008728,-0.992065,0.312458,0.401832,-0.207328,58,276,583,6080
1644179724.257531,-0.008606,0.012573,-0.992493,0.342992,0.356031,-0.054656,47,275,586,6080
1644179724.306015,-0.009338,0.012573,-0.994934,0.175053,0.386565,-0.069924,43,271,587,6048
1644179724.356505,-0.006592,0.010681,-0.991638,0.205588,0.340763,0.036947,53,269,578,6080
1644179724.406643,-0.007263,0.009705,-0.99054,0.342992,0.478168,-0.039389,51,271,590,6064
1644179724.451735,-0.009766,0.014038,-0.990295,0.190321,0.462901,-0.100458,43,276,578,6016
1644179724.547873,-0.007263,0.01001,-0.991943,0.236122,0.401832,-0.039389,45,277,591,6064
1644179724.596267,-0.009155,0.010498,-0.992859,0.297191,0.386565,-0.100458,53,286,576,6016
1644179724.644845,-0.010376,0.011597,-0.995483,0.113985,0.386565,-0.176794,52,275,577,5984
1644179724.693072,-0.010315,0.009644,-0.99115,0.251389,0.386565,0.006412,57,270,591,6080
1644179724.741434,-0.008362,0.008118,-0.993652,0.297191,0.356031,-0.008855,38,273,579,6080
1644179724.789846,-0.00824,0.006531,-0.995178,0.159786,0.462901,-0.100458,48,271,580,6112
1644179724.838253,-0.011108,0.008057,-0.994019,0.281924,0.356031,-0.008855,46,281,578,6080
1644179724.886679,-0.008667,0.010437,-0.989502,0.205588,0.356031,-0.25313,51,271,580,6080
1644179724.935183,-0.008972,0.009399,-0.991455,0.205588,0.417099,-0.115725,60,281,585,5984
1644179724.983464,-0.00885,0.010132,-0.99231,0.159786,0.340763,-0.024122,59,273,577,6112
1644179725.031822,-0.01123,0.008545,-0.992615,0.373527,0.462901,-0.207328,49,277,582,6080
1644179725.086366,-0.009033,0.007996,-0.99469,0.220855,0.264427,-0.130992,49,270,591,6080
1644179725.128655,-0.01062,0.006653,-0.992188,0.159786,0.462901,-0.039389,47,277,584,6064
1644179725.177009,-0.010925,0.008118,-0.993958,0.129252,0.310229,-0.192061,53,271,592,6112
1644179725.225397,-0.009399,0.00824,-0.992859,0.449863,0.417099,-0.039389,42,280,584,6016
1644179725.273776,-0.01062,0.010132,-0.992859,0.175053,0.523969,-0.100458,48,279,597,6080
1644179725.32252,-0.008118,0.009033,-0.990967,0.175053,0.356031,-0.054656,59,277,593,6064
1644179725.371362,-0.011658,0.009583,-0.992126,0.236122,0.264427,-0.14626,53,281,578,6128
1644179725.421845,-0.010193,0.007812,-0.992432,0.205588,0.447634,-0.192061,41,271,583,6064
1644179725.471936,-0.009644,0.010315,-0.990845,0.327725,0.508702,-0.039389,53,276,592,6048
1644179725.517065,-0.010681,0.007935,-0.99231,0.342992,0.554504,-0.100458,41,276,592,6080
1644179725.612538,-0.009155,0.009094,-0.989441,0.144519,0.462901,-0.100458,53,281,587,6080
1644179725.66091,-0.007385,0.009766,-0.99292,0.129252,0.493435,-0.039389,45,275,582,6016
1644179725.709298,-0.010376,0.011169,-0.992859,0.205588,0.417099,-0.069924,42,280,582,6064
1644179725.757687,-0.009949,0.006714,-0.992249,0.175053,0.569771,-0.039389,43,291,587,6080
1644179725.806088,-0.010681,0.010376,-0.991394,0.159786,0.462901,-0.115725,42,277,577,6016
1644179725.8545,-0.010376,0.010376,-0.990173,0.35826,0.417099,0.052214,47,275,591,6048
1644179725.902899,-0.010193,0.009338,-0.994568,0.236122,0.310229,-0.161527,46,276,587,6048
1644179725.951311,-0.009155,0.010376,-0.991211,0.220855,0.462901,-0.100458,35,275,572,5936
1644179725.999668,-0.010315,0.00769,-0.989563,0.236122,0.279695,0.021679,57,290,586,6064
1644179726.066204,-0.007996,0.008667,-0.991516,0.113985,0.478168,-0.115725,38,275,577,6112
1644179726.102052,-0.010071,0.010437,-0.992432,0.342992,0.356031,-0.222595,46,279,578,6000
1644179726.14492,-0.00885,0.010864,-0.990784,0.327725,0.447634,-0.130992,35,270,582,6048
1644179726.193279,-0.009094,0.009033,-0.992004,0.144519,0.401832,-0.085191,52,273,577,6080
1644179726.241653,-0.008118,0.010071,-0.992371,0.251389,0.478168,-0.054656,35,275,593,5984
1644179726.290058,-0.007324,0.00885,-0.990723,0.236122,0.493435,-0.207328,48,288,587,6112
1644179726.338445,-0.009888,0.00769,-0.992126,0.236122,0.310229,-0.314198,49,270,591,6080
1644179726.386803,-0.010864,0.009949,-0.993042,0.236122,0.508702,-0.039389,39,279,597,6112
1644179726.435586,-0.010132,0.009216,-0.993103,0.220855,0.371298,-0.176794,54,287,579,6080
1644179726.484019,-0.010132,0.010071,-0.992859,0.342992,0.340763,-0.161527,45,280,586,6080
1644179726.533959,-0.010193,0.008179,-0.990906,0.220855,0.340763,-0.024122,52,280,576,6016
1644179726.584303,-0.00946,0.009338,-0.991882,0.281924,0.401832,-0.100458,53,276,580,6080
1644179726.634557,-0.009521,0.00824,-0.991211,0.266656,0.386565,-0.176794,48,274,583,6064
1644179726.679193,-0.008606,0.008118,-0.991638,0.190321,0.462901,0.036947,58,271,585,6128
1644179726.773992,-0.010254,0.009521,-0.991089,0.251389,0.523969,-0.130992,52,282,589,6160
1644179726.822358,-0.01178,0.011292,-0.989563,0.220855,0.325496,-0.207328,48,288,573,6048
1644179726.870753,-0.009216,0.009216,-0.99231,0.236122,0.356031,-0.100458,51,286,578,6016
1644179726.919145,-0.009705,0.007629,-0.990906,0.144519,0.401832,-0.069924,61,280,589,6128
1644179726.967543,-0.008362,0.010498,-0.993896,0.236122,0.340763,-0.024122,47,282,586,6064
1644179727.015939,-0.008362,0.00824,-0.992188,0.312458,0.493435,-0.054656,43,279,576,6080
1644179727.065005,-0.006287,0.009216,-0.991882,0.327725,0.417099,-0.192061,61,275,582,6016
1644179727.112692,-0.008301,0.007812,-0.993164,0.266656,0.386565,-0.085191,55,288,592,6048
1644179727.161084,-0.011536,0.007507,-0.994629,0.281924,0.493435,0.067481,45,275,584,6080
1644179727.20947,-0.00885,0.012207,-0.989685,0.220855,0.462901,-0.069924,46,276,587,6048
1644179727.25786,-0.007385,0.007446,-0.994934,0.251389,0.462901,-0.130992,45,268,591,6048
1644179727.306232,-0.009827,0.00824,-0.991211,0.190321,0.417099,-0.14626,40,280,582,6064
1644179727.354712,-0.007629,0.012085,-0.990601,0.129252,0.401832,-0.100458,51,271,583,6016
1644179727.403049,-0.009705,0.009949,-0.991943,0.190321,0.386565,-0.069924,42,282,589,6048
1644179727.45144,-0.006775,0.009583,-0.992065,0.190321,0.203359,-0.25313,53,274,601,6080
1644179727.499816,-0.011108,0.007141,-0.99292,0.113985,0.356031,0.159084,53,288,590,6064
1644179727.54822,-0.011536,0.009277,-0.993469,0.342992,0.417099,-0.054656,47,280,591,6064
1644179727.596598,-0.00824,0.008606,-0.994751,0.297191,0.356031,0.006412,51,279,583,6128
1644179727.645046,-0.007629,0.008972,-0.992371,0.251389,0.462901,-0.161527,42,277,589,6080
1644179727.693436,-0.008484,0.009644,-0.992798,0.281924,0.386565,-0.069924,51,286,573,5952
1644179727.743586,-0.008301,0.010254,-0.992615,0.251389,0.432366,-0.176794,47,282,577,6080
1644179727.793897,-0.01062,0.008972,-0.993408,0.388794,0.401832,-0.237863,34,279,580,6128
1644179727.839454,-0.008911,0.010193,-0.994385,0.175053,0.371298,-0.100458,47,270,570,6112
1644179727.935467,-0.008423,0.010742,-0.989258,0.113985,0.325496,-0.100458,42,268,584,6048
1644179727.983801,-0.008789,0.008911,-0.99176,0.220855,0.356031,-0.161527,49,282,589,6048
1644179728.032413,-0.010986,0.011414,-0.989624,0.220855,0.294962,-0.024122,46,271,585,6128
1644179728.082078,-0.007874,0.006409,-0.99115,0.205588,0.310229,-0.161527,48,276,585,6000
1644179728.128912,-0.011108,0.010803,-0.991211,0.159786,0.356031,-0.069924,47,277,582,6016
1644179728.17731,-0.007629,0.008972,-0.992676,0.007115,0.447634,-0.283664,45,277,589,6112
1644179728.225701,-0.007141,0.009399,-0.992859,0.281924,0.325496,-0.222595,48,274,585,6016
1644179728.274092,-0.007202,0.010498,-0.992065,0.190321,0.325496,0.006412,46,271,587,6048
1644179728.322495,-0.009766,0.007446,-0.991699,0.037649,0.432366,-0.054656,57,270,579,6080
1644179728.370885,-0.010132,0.013,-0.992554,0.205588,0.401832,-0.192061,61,282,586,6080
1644179728.419268,-0.009155,0.010498,-0.991638,0.236122,0.340763,-0.100458,58,271,585,6080
1644179728.467681,-0.007568,0.006165,-0.989075,0.190321,0.401832,-0.054656,57,275,589,6080
1644179728.516027,-0.005737,0.010437,-0.994324,0.190321,0.371298,-0.207328,59,285,591,6080
1644179728.564464,-0.008911,0.007568,-0.992859,0.373527,0.386565,-0.161527,41,279,594,6016
1644179728.612868,-0.009155,0.010193,-0.991821,0.113985,0.508702,-0.069924,49,275,582,6080
1644179728.661238,-0.008423,0.009399,-0.990723,0.251389,0.279695,0.036947,53,271,592,6080
1644179728.70963,-0.01123,0.009094,-0.996521,0.251389,0.447634,-0.024122,47,285,586,6080
1644179728.758029,-0.006531,0.007751,-0.993408,0.266656,0.401832,-0.069924,54,277,575,6080
1644179728.806973,-0.009338,0.008484,-0.990234,0.190321,0.264427,-0.054656,49,275,579,6080
1644179728.857759,-0.00769,0.01123,-0.992798,0.205588,0.279695,-0.298931,62,279,580,6080
1644179728.908235,-0.009949,0.010864,-0.991821,0.236122,0.401832,-0.054656,48,283,583,6000
1644179728.952751,-0.00824,0.004944,-0.992493,0.297191,0.325496,-0.054656,55,271,583,6048
1644179729.064887,-0.007874,0.009033,-0.992126,0.144519,0.310229,-0.14626,45,280,593,6080
1644179729.098911,-0.010193,0.008606,-0.991516,0.373527,0.356031,-0.192061,47,275,589,6080
1644179729.145324,-0.008972,0.00946,-0.990845,0.266656,0.447634,-0.192061,40,277,575,5984
1644179729.193581,-0.008118,0.011719,-0.993652,0.236122,0.417099,-0.192061,48,274,583,6048
1644179729.241948,-0.009155,0.008606,-0.990112,0.342992,0.386565,-0.130992,47,275,579,6016
1644179729.290335,-0.008362,0.009155,-0.992249,0.113985,0.462901,-0.008855,53,281,585,6016
1644179729.33872,-0.009338,0.009949,-0.992188,0.220855,0.417099,-0.085191,58,274,587,6112
1644179729.387128,-0.007751,0.010742,-0.990906,0.388794,0.508702,0.12855,54,268,598,6000
1644179729.435512,-0.011658,0.007324,-0.993164,0.175053,0.417099,0.067481,53,283,585,6080
1644179729.483905,-0.009521,0.011719,-0.99408,0.205588,0.447634,-0.024122,49,275,596,6080
1644179729.532648,-0.009033,0.009216,-0.993286,0.35826,0.310229,-0.039389,55,288,580,6016
1644179729.581603,-0.006836,0.006897,-0.992615,0.144519,0.462901,0.036947,57,275,584,6112
1644179729.632174,-0.007324,0.009216,-0.991394,0.236122,0.340763,-0.161527,48,274,578,6080
1644179729.682364,-0.009521,0.006409,-0.994019,0.266656,0.432366,-0.100458,43,283,580,6080
1644179729.727384,-0.011902,0.012329,-0.991272,0.251389,0.340763,-0.069924,51,276,587,6048
1644179729.822691,-0.006897,0.006592,-0.992493,0.098718,0.569771,0.021679,64,270,577,6080
1644179729.871083,-0.007507,0.011536,-0.991333,0.205588,0.310229,-0.176794,42,268,582,6016
1644179729.919439,-0.008057,0.008972,-0.990906,0.205588,0.508702,-0.130992,51,274,580,6080
1644179729.967877,-0.008972,0.010803,-0.991943,0.220855,0.371298,-0.069924,55,276,583,6128
1644179730.016228,-0.006348,0.00885,-0.990845,0.312458,0.417099,-0.207328,41,281,583,6064
1644179730.068181,-0.00592,0.008118,-0.990601,0.175053,0.432366,-0.115725,55,271,587,6048
1644179730.11306,-0.008911,0.009155,-0.990356,0.266656,0.325496,-0.008855,40,290,584,6128
1644179730.161402,-0.007202,0.00824,-0.990234,0.175053,0.371298,-0.161527,59,277,584,6080
1644179730.209802,-0.009521,0.009827,-0.993347,0.266656,0.294962,-0.14626,49,282,575,6080
1644179730.258184,-0.008179,0.006104,-0.992737,0.236122,0.401832,-0.024122,43,271,566,6112
1644179730.306551,-0.009705,0.01123,-0.990173,0.205588,0.401832,-0.130992,43,274,594,5984
1644179730.355094,-0.010742,0.008423,-0.988403,0.281924,0.462901,-0.100458,54,280,577,6048
1644179730.403383,-0.010193,0.007019,-0.990417,0.220855,0.279695,-0.085191,53,279,583,6080
1644179730.451756,-0.009338,0.010986,-0.992188,0.327725,0.462901,-0.085191,42,277,586,6048
1644179730.500127,-0.010254,0.011047,-0.992615,0.190321,0.356031,0.052214,54,277,586,6112
1644179730.548547,-0.008057,0.009888,-0.992188,0.251389,0.462901,-0.024122,53,283,590,6048
1644179730.597159,-0.011719,0.009277,-0.992249,0.175053,0.386565,-0.008855,47,273,584,6064
1644179730.645323,-0.009155,0.008179,-0.992249,0.297191,0.508702,0.036947,47,277,582,6128
1644179730.693716,-0.009399,0.009521,-0.991882,0.144519,0.356031,-0.100458,53,276,585,6080
1644179730.742196,-0.010376,0.008911,-0.991882,0.205588,0.447634,-0.14626,48,271,580,6048
1644179730.792637,-0.010742,0.010193,-0.992737,0.175053,0.508702,0.021679,48,274,583,6112
1644179730.844331,-0.010071,0.008118,-0.99408,0.129252,0.554504,-0.176794,57,268,596,6080
1644179730.888402,-0.009216,0.013062,-0.993225,0.220855,0.386565,-0.054656,46,276,592,6080
1644179730.984133,-0.007019,0.010681,-0.992432,0.251389,0.401832,-0.024122,42,285,572,6112
1644179731.032518,-0.013855,0.006165,-0.995178,0.175053,0.447634,-0.024122,41,279,590,6048
1644179731.080955,-0.007996,0.010986,-0.990845,0.190321,0.325496,-0.130992,52,273,586,6080
1644179731.129277,-0.009827,0.011353,-0.989441,0.113985,0.356031,0.12855,59,285,575,6016
1644179731.177641,-0.008789,0.010254,-0.994202,0.08345,0.233893,-0.222595,48,281,583,6016
1644179731.226028,-0.00824,0.008545,-0.992859,0.159786,0.401832,-0.25313,46,269,592,6048
1644179731.274406,-0.008423,0.006775,-0.992615,0.251389,0.264427,-0.024122,47,268,589,6080
1644179731.322827,-0.01062,0.005737,-0.994507,0.175053,0.493435,0.006412,53,274,576,6112
1644179731.371211,-0.009277,0.011353,-0.990173,0.251389,0.554504,-0.176794,51,269,583,6112
1644179731.419604,-0.007446,0.010498,-0.991577,0.236122,0.462901,-0.176794,49,275,575,6080
1644179731.467996,-0.008972,0.008606,-0.991882,0.175053,0.340763,-0.207328,42,280,591,6064
1644179731.51639,-0.008667,0.008911,-0.993591,0.281924,0.447634,-0.054656,57,275,582,6112
1644179731.564792,-0.010498,0.00946,-0.991638,0.175053,0.554504,-0.039389,55,279,597,6080
1644179731.613186,-0.012024,0.010437,-0.989502,0.327725,0.371298,-0.024122,54,275,579,6016
1644179731.661544,-0.012329,0.009888,-0.991028,0.297191,0.508702,-0.176794,48,274,578,6080
1644179731.709955,-0.007812,0.008301,-0.99176,0.190321,0.432366,-0.024122,53,279,594,6064
1644179731.758337,-0.009155,0.011902,-0.990295,0.098718,0.539237,-0.085191,36,276,587,6016
1644179731.807036,-0.008728,0.010437,-0.992859,0.205588,0.417099,-0.100458,53,271,592,6048
1644179731.856649,-0.00824,0.008118,-0.992004,0.220855,0.340763,-0.069924,51,276,583,6080
1644179731.907186,-0.00885,0.006836,-0.992615,0.266656,0.294962,-0.069924,45,280,586,6048
1644179731.957583,-0.010437,0.008484,-0.993591,0.297191,0.279695,-0.130992,49,282,579,6064
1644179732.061595,-0.009705,0.010864,-0.990906,0.159786,0.447634,-0.054656,51,281,578,6128
1644179732.097373,-0.007324,0.010986,-0.992004,0.129252,0.264427,-0.130992,48,283,592,5984
1644179732.145522,-0.011169,0.008179,-0.993103,0.159786,0.401832,-0.085191,43,276,583,6064
1644179732.193911,-0.009338,0.010986,-0.989136,0.266656,0.417099,-0.054656,43,271,585,6080
1644179732.242284,-0.00708,0.008484,-0.990234,0.205588,0.325496,-0.069924,34,279,587,6080
1644179732.290669,-0.006836,0.011169,-0.98999,0.220855,0.371298,-0.024122,55,274,587,6128
1644179732.339064,-0.010559,0.009277,-0.993164,0.236122,0.447634,-0.161527,43,286,587,6128
1644179732.387459,-0.010254,0.007507,-0.994507,0.068183,0.340763,0.021679,51,274,599,6080
1644179732.435846,-0.009216,0.009949,-0.993225,0.251389,0.294962,-0.161527,49,273,602,6064
1644179732.484235,-0.008789,0.009094,-0.991638,0.236122,0.340763,-0.008855,55,274,578,6080
1644179732.532607,-0.008362,0.007751,-0.990784,0.297191,0.432366,-0.161527,49,273,575,6080
1644179732.581019,-0.009583,0.011169,-0.991272,0.236122,0.539237,-0.115725,49,268,593,6080
1644179732.629549,-0.010742,0.01062,-0.993774,0.297191,0.310229,-0.161527,42,275,582,6080
1644179732.678898,-0.011169,0.007629,-0.991516,0.175053,0.432366,-0.14626,46,271,580,6112
1644179732.729297,-0.007629,0.005981,-0.992493,0.190321,0.371298,-0.130992,52,277,579,6080
1644179732.779605,-0.009583,0.008911,-0.992249,0.236122,0.417099,-0.008855,46,274,578,6080
1644179732.871437,-0.010681,0.006653,-0.992004,0.251389,0.478168,-0.085191,46,281,580,6080
1644179732.919804,-0.011047,0.008789,-0.990784,0.297191,0.447634,-0.024122,45,275,577,6080
1644179732.96816,-0.011475,0.01001,-0.994141,0.297191,0.325496,-0.14626,43,281,590,6112
1644179733.016591,-0.011536,0.010681,-0.990051,0.281924,0.340763,-0.039389,47,275,586,6016
1644179733.072268,-0.010742,0.01062,-0.991272,0.190321,0.478168,-0.130992,51,269,583,6080
1644179733.113332,-0.009216,0.008179,-0.99176,0.251389,0.478168,-0.192061,57,270,586,6128
1644179733.161747,-0.008179,0.010803,-0.989685,0.297191,0.432366,-0.039389,48,276,578,6160
1644179733.210119,-0.010071,0.009705,-0.992493,0.404061,0.523969,-0.207328,48,276,587,6064
1644179733.258512,-0.007751,0.011047,-0.989502,0.129252,0.447634,-0.115725,46,279,573,6128
1644179733.306898,-0.009705,0.008911,-0.99115,0.068183,0.417099,-0.039389,45,285,575,6080
1644179733.355416,-0.008667,0.008118,-0.99054,0.129252,0.569771,-0.192061,47,273,602,6064
1644179733.403713,-0.007324,0.008728,-0.99469,0.175053,0.371298,-0.222595,51,279,580,5984
1644179733.452085,-0.010132,0.009583,-0.993591,0.144519,0.432366,-0.054656,55,276,590,6080
1644179733.500499,-0.009399,0.012573,-0.992249,0.175053,0.447634,-0.008855,58,269,583,6048
1644179733.548868,-0.009705,0.010681,-0.993164,0.220855,0.417099,-0.085191,49,280,589,6080
1644179733.597267,-0.008789,0.007507,-0.992798,0.175053,0.539237,-0.130992,45,280,584,6016
1644179733.645643,-0.009949,0.007446,-0.993347,0.190321,0.310229,-0.008855,54,280,589,6048
1644179733.694018,-0.009094,0.007324,-0.994324,0.251389,0.462901,0.067481,54,280,593,6128
1644179733.742445,-0.008606,0.007446,-0.993164,0.480397,0.523969,-0.039389,51,281,585,6112
1644179733.791255,-0.009888,0.007507,-0.993713,0.419328,0.417099,-0.054656,52,287,575,6080
1644179733.841755,-0.010254,0.009155,-0.990845,0.266656,0.417099,-0.25313,43,279,587,6048
1644179733.89309,-0.007446,0.00946,-0.993103,0.175053,0.386565,0.143817,54,281,587,6048
1644179733.937616,-0.011475,0.010315,-0.991943,0.236122,0.325496,-0.069924,54,268,586,6080
1644179734.032843,-0.009705,0.006775,-0.992859,0.266656,0.24916,-0.024122,53,279,585,6064
1644179734.081304,-0.009705,0.01178,-0.992737,0.281924,0.478168,0.052214,51,288,587,6080
1644179734.129576,-0.010864,0.00946,-0.991577,0.144519,0.325496,-0.085191,55,276,583,6080
1644179734.177957,-0.011353,0.011047,-0.992493,0.175053,0.417099,-0.100458,53,271,583,6080
1644179734.226346,-0.009766,0.010437,-0.993225,0.266656,0.493435,-0.130992,49,282,584,6128
1644179734.274723,-0.008301,0.009094,-0.992065,0.266656,0.325496,-0.161527,49,273,579,6080
1644179734.323156,-0.00946,0.009583,-0.992676,0.327725,0.478168,-0.054656,48,283,585,6112
1644179734.371539,-0.009827,0.010132,-0.992676,0.281924,0.401832,-0.207328,47,273,579,6080
1644179734.419934,-0.009094,0.008606,-0.991638,0.251389,0.325496,0.036947,55,279,585,6080
1644179734.468322,-0.009094,0.008545,-0.991211,0.297191,0.371298,-0.054656,51,279,578,6128
1644179734.516724,-0.008057,0.01062,-0.991699,0.205588,0.417099,-0.008855,57,273,586,6016
1644179734.565198,-0.007751,0.006897,-0.98938,0.205588,0.523969,-0.008855,36,281,580,6080
1644179734.613484,-0.007996,0.010803,-0.990723,0.129252,0.432366,-0.054656,60,266,585,6080
1644179734.661887,-0.009033,0.013,-0.990662,0.175053,0.294962,0.021679,59,270,593,6000
1644179734.710276,-0.008911,0.010498,-0.990662,0.205588,0.493435,-0.039389,51,276,583,6112
1644179734.758657,-0.009949,0.008545,-0.992249,0.129252,0.432366,-0.085191,58,269,585,6080
1644179734.80708,-0.011719,0.010132,-0.99353,0.236122,0.539237,-0.100458,47,275,589,6080
1644179734.855557,-0.009155,0.008118,-0.993896,0.236122,0.386565,0.021679,52,275,575,6112
1644179734.903917,-0.009827,0.006836,-0.989868,0.251389,0.447634,-0.161527,43,276,585,6112
1644179734.953869,-0.010742,0.008667,-0.992798,0.434595,0.478168,-0.085191,43,276,594,6080
1644179735.003987,-0.008484,0.008789,-0.992126,0.113985,0.325496,-0.161527,53,279,592,5984
1644179735.074878,-0.010254,0.011963,-0.99176,0.266656,0.233893,-0.14626,52,270,586,6128
1644179735.103793,-0.008545,0.00946,-0.993896,0.342992,0.447634,-0.192061,65,279,583,6000
1644179735.194204,-0.010315,0.010986,-0.99115,0.190321,0.325496,-0.237863,58,279,585,6080
1644179735.242576,-0.00769,0.008301,-0.991333,0.327725,0.539237,-0.024122,41,269,580,6016
1644179735.290967,-0.006287,0.007935,-0.991211,0.175053,0.508702,-0.100458,45,268,596,6080
1644179735.339385,-0.008728,0.010498,-0.992432,0.220855,0.462901,-0.008855,48,274,576,6128
1644179735.387763,-0.009155,0.010071,-0.99115,0.205588,0.447634,0.098015,42,268,586,6080
1644179735.436138,-0.009827,0.008423,-0.993774,0.037649,0.356031,-0.161527,45,265,577,6080
1644179735.484605,-0.009033,0.008484,-0.992126,0.159786,0.462901,-0.115725,48,266,583,6080
1644179735.53297,-0.011353,0.008789,-0.993652,0.312458,0.356031,-0.024122,52,277,593,6064
1644179735.581355,-0.009949,0.010071,-0.993164,0.220855,0.478168,-0.115725,49,270,589,6160
1644179735.629734,-0.010071,0.008362,-0.993286,0.312458,0.386565,-0.008855,49,275,589,6080
1644179735.678122,-0.008728,0.008789,-0.992798,0.220855,0.493435,0.052214,48,279,580,6160
1644179735.726498,-0.010681,0.009583,-0.993286,0.220855,0.569771,-0.100458,48,274,587,6080
1644179735.774934,-0.008728,0.010498,-0.991943,0.220855,0.386565,-0.207328,46,264,585,6128
1644179735.82335,-0.011597,0.007751,-0.993103,0.113985,0.371298,-0.039389,59,273,584,6064
1644179735.871741,-0.007507,0.009521,-0.993774,0.251389,0.478168,-0.192061,47,277,586,6176
1644179735.920129,-0.00647,0.008179,-0.990662,0.266656,0.508702,-0.069924,49,273,579,6128
1644179735.968556,-0.009766,0.00769,-0.99115,0.35826,0.478168,-0.298931,51,279,585,6080
1644179736.017403,-0.007507,0.01123,-0.992249,0.251389,0.340763,-0.115725,51,281,594,6064
1644179736.085394,-0.010681,0.009094,-0.992188,0.281924,0.462901,-0.024122,52,265,586,6112
1644179736.162034,-0.007385,0.00824,-0.994751,0.327725,0.508702,-0.192061,48,281,583,6128
1644179736.210449,-0.011475,0.006653,-0.991272,0.190321,0.478168,0.082748,51,271,576,6080
1644179736.25881,-0.012024,0.009949,-0.99176,0.113985,0.493435,-0.161527,53,271,583,6016
1644179736.307218,-0.007751,0.007935,-0.993591,0.266656,0.417099,-0.14626,49,273,579,6016
1644179736.355623,-0.012146,0.008301,-0.991516,0.052916,0.417099,-0.054656,47,280,579,6080
1644179736.404021,-0.00885,0.009216,-0.994995,0.098718,0.356031,0.006412,47,285,579,6048
1644179736.452428,-0.00946,0.009094,-0.989563,0.175053,0.371298,0.098015,42,270,586,6080
1644179736.500773,-0.010132,0.006714,-0.993042,0.08345,0.340763,-0.085191,47,277,589,6048
1644179736.549194,-0.010498,0.008423,-0.993164,0.190321,0.523969,-0.115725,43,286,594,6080
1644179736.597572,-0.007568,0.013367,-0.992981,0.129252,0.417099,-0.161527,53,281,573,6064
1644179736.645973,-0.008545,0.007874,-0.994629,0.266656,0.462901,-0.161527,47,270,582,6080
1644179736.694373,-0.008789,0.010864,-0.991455,0.342992,0.523969,-0.176794,49,273,591,6080
1644179736.742758,-0.008362,0.00885,-0.994751,0.175053,0.478168,-0.008855,57,280,586,6080
1644179736.791152,-0.008606,0.008057,-0.992493,0.35826,0.401832,-0.176794,42,275,584,6080
1644179736.839592,-0.010193,0.010742,-0.991028,0.175053,0.615573,-0.100458,40,282,586,6080
1644179736.887996,-0.009094,0.010437,-0.994202,0.220855,0.523969,-0.054656,52,287,586,6048
1644179736.936366,-0.009033,0.006531,-0.990723,0.35826,0.417099,-0.115725,54,270,589,6064
1644179736.98477,-0.009338,0.008972,-0.992249,0.098718,0.310229,-0.14626,64,275,582,6128
1644179737.033194,-0.009094,0.009338,-0.990845,0.022382,0.447634,-0.14626,48,276,587,6080
1644179737.083954,-0.008667,0.006531,-0.991638,0.175053,0.203359,-0.314198,52,268,593,6016
1644179737.13319,-0.010986,0.010437,-0.990723,0.190321,0.294962,0.006412,49,273,575,6080
1644179737.182229,-0.010803,0.01001,-0.990295,0.342992,0.356031,-0.069924,58,281,592,6112
1644179737.227443,-0.010864,0.007629,-0.991272,0.312458,0.325496,-0.039389,51,276,580,6080
1644179737.323472,-0.007202,0.009155,-0.989258,0.205588,0.371298,-0.054656,47,277,582,6112
1644179737.37186,-0.009766,0.009277,-0.990417,0.113985,0.508702,-0.161527,53,281,590,6080
1644179737.420254,-0.010071,0.007202,-0.991638,0.281924,0.401832,-0.207328,46,281,585,6016
1644179737.46864,-0.00769,0.010864,-0.992065,0.190321,0.462901,-0.008855,55,276,590,6128
1644179737.51702,-0.010498,0.006897,-0.991638,0.220855,0.554504,-0.14626,42,265,582,6080
1644179737.565419,-0.013306,0.008057,-0.992859,0.281924,0.356031,-0.115725,52,277,582,6016
1644179737.613829,-0.01178,0.00885,-0.993408,0.236122,0.356031,-0.130992,47,273,591,6080
1644179737.662222,-0.009277,0.007935,-0.994324,0.327725,0.386565,0.098015,48,269,578,6080
1644179737.710614,-0.010925,0.010315,-0.992371,0.342992,0.401832,-0.14626,49,277,582,6016
1644179737.759051,-0.007874,0.01062,-0.992981,0.251389,0.493435,-0.039389,48,271,578,6112
1644179737.807391,-0.010254,0.008362,-0.992615,0.266656,0.432366,-0.176794,58,271,580,6112
1644179737.855833,-0.008057,0.010498,-0.993347,0.281924,0.417099,-0.024122,55,279,580,6048
1644179737.904228,-0.006531,0.005432,-0.991394,0.113985,0.432366,-0.130992,46,274,592,6016
1644179737.952613,-0.008057,0.008484,-0.992188,0.205588,0.447634,-0.14626,42,277,579,6064
1644179738.001011,-0.007385,0.00946,-0.990784,0.220855,0.462901,0.082748,57,280,582,6048
1644179738.066274,-0.008545,0.00824,-0.990234,0.297191,0.325496,-0.039389,59,277,586,6112
1644179738.101629,-0.009216,0.010681,-0.990967,0.251389,0.417099,-0.054656,57,280,593,6080
1644179738.146107,-0.009155,0.011047,-0.99292,0.113985,0.371298,-0.161527,52,277,579,6080
1644179738.194527,-0.009583,0.008118,-0.991943,0.236122,0.371298,0.021679,38,275,586,6016
1644179738.24332,-0.007996,0.009949,-0.992554,0.022382,0.447634,-0.14626,47,282,593,6160
1644179738.293526,-0.009827,0.008728,-0.990662,0.205588,0.447634,-0.115725,47,273,584,6016
1644179738.343815,-0.010437,0.010132,-0.991211,0.35826,0.386565,0.052214,47,290,582,6128
1644179738.388848,-0.010742,0.00946,-0.990601,0.327725,0.401832,-0.085191,48,271,583,6112
1644179738.484909,-0.008362,0.009216,-0.994263,0.266656,0.356031,-0.207328,45,277,589,6064
1644179738.5333,-0.009155,0.010559,-0.992737,0.419328,0.371298,-0.176794,48,276,590,6064
1644179738.581656,-0.010925,0.007812,-0.991333,0.236122,0.401832,-0.14626,45,275,579,6080
1644179738.630059,-0.008667,0.007996,-0.992371,0.297191,0.356031,-0.024122,42,277,584,6080
1644179738.678456,-0.010681,0.008545,-0.991028,0.251389,0.325496,-0.085191,57,268,593,6080
1644179738.726853,-0.006226,0.009033,-0.989929,0.236122,0.340763,-0.054656,43,266,578,6080
1644179738.775231,-0.006897,0.011047,-0.994202,0.144519,0.356031,-0.100458,53,269,583,6080
1644179738.82363,-0.00885,0.007812,-0.992615,0.113985,0.539237,-0.024122,45,280,582,6080
1644179738.872031,-0.005676,0.009277,-0.993164,0.236122,0.386565,-0.14626,49,285,577,6080
1644179738.920466,-0.010559,0.007263,-0.993408,0.236122,0.432366,-0.085191,53,274,590,6112
1644179738.968857,-0.008667,0.008118,-0.993042,0.098718,0.401832,0.006412,42,277,589,6080
1644179739.01721,-0.007935,0.006958,-0.989807,0.35826,0.432366,-0.115725,55,281,578,6016
1644179739.071094,-0.007446,0.009705,-0.992798,0.098718,0.523969,-0.130992,54,270,582,6080
1644179739.114009,-0.010376,0.007263,-0.9953,0.297191,0.157557,-0.130992,54,273,586,6080
1644179739.162362,-0.009705,0.008789,-0.994995,0.342992,0.401832,-0.008855,47,268,584,6016
1644179739.21077,-0.009827,0.009033,-0.993896,0.236122,0.401832,-0.100458,51,279,583,6016
1644179739.259142,-0.009033,0.012573,-0.990601,0.388794,0.478168,-0.054656,62,269,590,6048
1644179739.307535,-0.006775,0.010315,-0.990845,0.342992,0.310229,-0.14626,59,263,591,6016
1644179739.355948,-0.004578,0.008179,-0.992371,0.220855,0.478168,-0.069924,43,264,583,6112
1644179739.404397,-0.009583,0.008972,-0.990906,0.007115,0.325496,0.036947,48,281,576,6080
1644179739.454848,-0.010437,0.008972,-0.993896,0.342992,0.340763,-0.130992,48,283,580,6048
1644179739.505109,-0.010925,0.008484,-0.992188,0.266656,0.447634,-0.008855,49,275,589,6080
1644179739.550184,-0.009277,0.007324,-0.991211,0.144519,0.386565,-0.115725,51,276,573,6064
1644179739.646279,-0.010681,0.011353,-0.990234,0.404061,0.356031,-0.024122,48,276,587,6080
1644179739.694861,-0.008667,0.009705,-0.99292,0.297191,0.279695,-0.115725,47,268,586,6128
1644179739.743102,-0.010437,0.01001,-0.990417,0.266656,0.478168,-0.100458,59,273,570,6048
1644179739.791474,-0.005066,0.010498,-0.990662,0.236122,0.539237,-0.069924,54,280,586,6000
1644179739.839879,-0.005737,0.011108,-0.993225,0.236122,0.447634,-0.085191,46,274,585,6112
1644179739.888296,-0.010742,0.01001,-0.993286,0.297191,0.340763,-0.039389,43,276,594,6048
1644179739.936696,-0.010437,0.00885,-0.992371,0.220855,0.401832,-0.161527,45,282,593,6080
1644179739.985211,-0.011536,0.00885,-0.989624,0.113985,0.310229,-0.192061,39,276,573,6112
1644179740.033485,-0.00592,0.010376,-0.993042,0.068183,0.523969,-0.069924,48,269,585,6128
1644179740.091492,-0.007568,0.011169,-0.994263,0.068183,0.310229,-0.14626,52,273,584,6112
1644179740.13028,-0.01001,0.009827,-0.990723,0.159786,0.294962,-0.024122,49,277,593,6080
1644179740.178627,-0.010193,0.009705,-0.995422,0.312458,0.157557,-0.115725,49,273,596,6000
1644179740.227018,-0.007812,0.00885,-0.992798,0.220855,0.478168,-0.100458,54,275,582,6128
1644179740.275371,-0.010193,0.010437,-0.991028,0.175053,0.478168,-0.054656,49,280,586,6064
1644179740.323772,-0.008667,0.009338,-0.992004,0.342992,0.371298,-0.024122,48,286,585,6080
1644179740.372214,-0.007446,0.011475,-0.991455,0.144519,0.478168,-0.039389,47,280,577,6112
1644179740.420755,-0.010376,0.011292,-0.994019,0.266656,0.447634,-0.085191,47,277,582,6128
1644179740.471353,-0.007568,0.01062,-0.990417,0.220855,0.447634,-0.100458,62,274,587,6016
1644179740.521443,-0.008179,0.011169,-0.992188,0.190321,0.401832,-0.008855,48,281,583,6016
1644179740.566586,-0.006958,0.007568,-0.991699,0.251389,0.279695,-0.115725,54,277,584,6048
1644179740.662557,-0.008728,0.00946,-0.993042,0.098718,0.401832,-0.069924,49,270,577,6128
1644179740.710932,-0.008789,0.010376,-0.99054,0.236122,0.462901,-0.008855,40,270,584,5984
1644179740.759311,-0.007324,0.013611,-0.988403,0.297191,0.478168,-0.039389,49,280,582,6000
1644179740.807703,-0.008057,0.010132,-0.990845,0.297191,0.386565,-0.192061,40,273,579,6080
1644179740.856106,-0.008972,0.006836,-0.99231,0.159786,0.523969,-0.054656,40,275,584,6016
1644179740.904519,-0.010254,0.01178,-0.99176,0.159786,0.447634,-0.085191,46,281,585,6016
1644179740.952931,-0.00885,0.009216,-0.992859,0.266656,0.386565,-0.008855,46,283,590,6080
1644179741.001292,-0.010803,0.010986,-0.989868,0.190321,0.447634,0.036947,47,285,579,6080
1644179741.067466,-0.01416,0.006104,-0.98822,0.236122,0.539237,-0.054656,46,266,576,6112
1644179741.101297,-0.011353,0.010315,-0.989746,0.205588,0.371298,-0.14626,49,273,579,6080
1644179741.14651,-0.008423,0.00885,-0.993042,0.281924,0.417099,-0.161527,41,266,587,6112
1644179741.1949,-0.009521,0.010193,-0.993225,0.068183,0.493435,-0.085191,51,274,587,6080
1644179741.243299,-0.00885,0.008728,-0.993835,0.281924,0.432366,0.006412,38,280,586,6080
1644179741.291684,-0.006104,0.01178,-0.992554,0.129252,0.493435,-0.008855,46,281,585,6064
1644179741.340075,-0.009155,0.010437,-0.992554,0.434595,0.478168,-0.069924,49,277,582,6000
1644179741.388463,-0.006836,0.010864,-0.992676,0.312458,0.356031,-0.14626,42,275,586,6080
1644179741.437146,-0.009399,0.011475,-0.991943,0.297191,0.294962,-0.222595,54,275,586,6080
1644179741.48555,-0.00769,0.008728,-0.993286,0.35826,0.523969,-0.024122,43,281,597,6128
1644179741.536124,-0.010071,0.010498,-0.994202,0.129252,0.478168,-0.085191,42,277,584,6080
1644179741.586447,-0.009644,0.011414,-0.990112,0.281924,0.386565,-0.069924,47,275,584,6080
1644179741.630688,-0.010071,0.008606,-0.991394,0.144519,0.371298,-0.008855,55,279,583,6000
1644179741.727235,-0.010559,0.011169,-0.992859,0.281924,0.371298,-0.130992,42,270,582,6128
1644179741.775589,-0.00769,0.008545,-0.992859,0.236122,0.386565,-0.085191,43,281,583,5984
1644179741.824001,-0.011841,0.00946,-0.992371,0.251389,0.279695,-0.192061,34,276,587,6048
1644179741.872417,-0.009277,0.008911,-0.995117,0.373527,0.447634,-0.085191,52,282,586,6160
1644179741.920785,-0.004272,0.007996,-0.99292,0.220855,0.340763,-0.207328,47,280,582,6080
1644179741.969165,-0.009644,0.00769,-0.990601,0.251389,0.462901,-0.069924,46,269,583,6112
1644179742.017562,-0.00769,0.010315,-0.994202,0.281924,0.462901,-0.161527,43,279,585,6080
1644179742.068366,-0.006042,0.00708,-0.992493,0.08345,0.401832,-0.024122,51,269,580,6016
1644179742.114317,-0.006775,0.007568,-0.993103,0.205588,0.462901,-0.069924,46,274,585,6016
1644179742.162705,-0.005981,0.009033,-0.991333,0.175053,0.417099,-0.192061,39,279,583,6064
1644179742.211097,-0.007935,0.009766,-0.993164,0.266656,0.462901,-0.069924,38,277,586,6048
1644179742.25948,-0.011108,0.008667,-0.991943,0.281924,0.417099,-0.192061,47,282,591,6064
1644179742.307865,-0.011169,0.010925,-0.994202,0.373527,0.340763,-0.14626,49,277,579,6128
1644179742.356285,-0.010864,0.011292,-0.992676,0.052916,0.294962,-0.268397,46,269,576,6048
1644179742.404674,-0.005676,0.010132,-0.992432,0.129252,0.539237,-0.100458,48,286,587,6064
1644179742.453083,-0.010315,0.009766,-0.990906,0.266656,0.24916,-0.008855,45,275,589,6048
1644179742.501427,-0.009644,0.008179,-0.990295,0.098718,0.523969,-0.024122,55,271,592,6016
1644179742.549846,-0.008179,0.008362,-0.991943,0.404061,0.478168,-0.176794,52,285,579,6080
1644179742.598234,-0.007385,0.009766,-0.990234,0.251389,0.523969,0.006412,41,269,585,6112
1644179742.646807,-0.007812,0.013489,-0.98999,0.205588,0.447634,-0.100458,41,271,585,6016
1644179742.697217,-0.009827,0.011963,-0.989807,0.342992,0.508702,-0.024122,51,271,583,6016
1644179742.747737,-0.009705,0.011902,-0.989197,0.251389,0.386565,-0.25313,46,269,590,6016
1644179742.792715,-0.009827,0.009705,-0.989563,0.297191,0.401832,-0.115725,57,270,586,6080
1644179742.888633,-0.008362,0.01062,-0.99231,0.175053,0.310229,-0.024122,51,276,585,6112
1644179742.936991,-0.008057,0.008179,-0.992615,0.129252,0.539237,-0.069924,57,273,579,6112
1644179742.985401,-0.006897,0.011414,-0.991272,0.327725,0.386565,-0.130992,46,283,590,6160
1644179743.033788,-0.013794,0.010681,-0.990784,0.236122,0.493435,-0.14626,45,268,586,6064
1644179743.08233,-0.010925,0.008118,-0.989685,0.266656,0.523969,-0.100458,46,269,587,6016
1644179743.130529,-0.00769,0.011597,-0.992798,0.175053,0.462901,-0.14626,49,280,579,6080
1644179743.178954,-0.009338,0.008728,-0.990662,0.251389,0.417099,-0.14626,53,279,583,6080
1644179743.22734,-0.008911,0.008484,-0.992798,0.129252,0.554504,0.006412,48,269,578,6048
1644179743.275727,-0.009338,0.010132,-0.990417,0.220855,0.493435,-0.207328,51,288,587,6080
1644179743.324138,-0.008728,0.007751,-0.992126,0.312458,0.386565,-0.085191,57,277,584,6080
1644179743.372538,-0.009705,0.010498,-0.990662,0.205588,0.447634,-0.085191,57,287,577,6016
1644179743.420902,-0.007996,0.011414,-0.993958,0.297191,0.417099,-0.100458,51,279,594,6080
1644179743.469306,-0.010498,0.009216,-0.993591,0.190321,0.356031,-0.207328,47,285,589,6080
1644179743.517695,-0.008606,0.009949,-0.991943,0.220855,0.356031,-0.237863,46,288,583,6016
1644179743.566091,-0.009216,0.009033,-0.99353,0.190321,0.417099,0.036947,51,262,592,6048
1644179743.614666,-0.008484,0.009888,-0.992065,0.404061,0.386565,-0.25313,52,280,589,6016
1644179743.662897,-0.009766,0.008423,-0.992798,0.327725,0.478168,-0.024122,36,281,590,6064
1644179743.711256,-0.00885,0.009033,-0.990906,0.129252,0.417099,-0.115725,61,285,575,6128
1644179743.759756,-0.008362,0.008545,-0.99408,0.190321,0.539237,-0.14626,51,281,585,6048
1644179743.810383,-0.009155,0.008545,-0.993958,0.342992,0.356031,-0.008855,52,285,582,6080
1644179743.861188,-0.009644,0.008301,-0.992554,0.190321,0.462901,-0.130992,45,270,591,6048
1644179743.905991,-0.010437,0.008606,-0.989563,0.205588,0.371298,0.021679,47,275,579,6112
1644179744.001643,-0.010315,0.009705,-0.992798,0.251389,0.539237,-0.14626,51,271,580,6080
1644179744.067734,-0.008545,0.00946,-0.992615,-0.008153,0.401832,-0.115725,54,287,586,6080
1644179744.100952,-0.009155,0.009583,-0.99054,0.297191,0.508702,-0.039389,55,283,590,6048
1644179744.146791,-0.00885,0.007996,-0.992615,0.220855,0.432366,-0.008855,43,283,583,6112
1644179744.195271,-0.010071,0.007935,-0.992798,0.388794,0.294962,-0.207328,58,274,580,6048
1644179744.243583,-0.009705,0.006531,-0.992859,0.113985,0.462901,-0.085191,49,273,584,6048
1644179744.291959,-0.007324,0.01062,-0.991028,0.266656,0.325496,-0.069924,53,276,590,6112
1644179744.340358,-0.007874,0.008789,-0.991272,0.205588,0.523969,-0.069924,64,277,586,6080
1644179744.38875,-0.006836,0.011292,-0.991516,0.251389,0.447634,0.021679,47,275,579,6048
1644179744.437141,-0.009644,0.009705,-0.990845,0.144519,0.554504,-0.161527,55,279,580,6080
1644179744.48551,-0.008606,0.008606,-0.992493,0.236122,0.386565,-0.192061,47,282,584,6112
1644179744.53429,-0.010986,0.008667,-0.990723,0.190321,0.539237,-0.039389,54,273,589,6080
1644179744.584893,-0.009399,0.009399,-0.994324,0.220855,0.401832,-0.069924,47,280,582,6112
1644179744.634715,-0.008545,0.010803,-0.992371,0.281924,0.401832,-0.115725,49,275,577,6016
1644179744.679798,-0.007507,0.008972,-0.990173,0.068183,0.386565,-0.054656,38,273,577,6016
1644179744.775888,-0.008057,0.01062,-0.992188,0.175053,0.432366,-0.054656,54,277,586,6080
1644179744.82432,-0.008728,0.013611,-0.995239,0.159786,0.493435,0.052214,46,274,587,6064
1644179744.872731,-0.00769,0.010193,-0.992798,0.175053,0.386565,-0.054656,55,276,580,6112
1644179744.921073,-0.007751,0.010193,-0.989014,0.251389,0.356031,-0.176794,51,274,578,6016
1644179744.969493,-0.008728,0.008423,-0.99353,0.205588,0.432366,-0.054656,47,275,582,6048
1644179745.017887,-0.009644,0.010315,-0.990356,0.190321,0.386565,-0.115725,47,282,584,6016
1644179745.069966,-0.011353,0.011719,-0.993774,0.281924,0.401832,0.006412,48,274,585,6112
1644179745.114898,-0.011475,0.009705,-0.99469,0.220855,0.523969,-0.039389,48,288,592,6128
1644179745.163044,-0.008484,0.00885,-0.992065,0.251389,0.417099,-0.069924,49,273,582,6080
1644179745.211423,-0.009766,0.008545,-0.99292,0.159786,0.478168,-0.039389,45,273,586,6080
1644179745.259799,-0.011108,0.009644,-0.992371,0.220855,0.371298,-0.237863,48,274,576,6080
1644179745.308208,-0.009827,0.007874,-0.992676,0.113985,0.417099,-0.069924,49,273,593,6048
1644179745.356597,-0.010559,0.009155,-0.990784,0.404061,0.417099,-0.024122,49,273,591,6016
1644179745.405032,-0.007446,0.00885,-0.992554,0.129252,0.478168,-0.14626,40,282,582,6080
1644179745.453373,-0.006042,0.00946,-0.99115,0.175053,0.508702,-0.130992,48,286,590,6016
1644179745.501746,-0.008667,0.008423,-0.990967,0.129252,0.264427,-0.069924,53,281,587,6048
1644179745.550164,-0.00824,0.011658,-0.99469,0.312458,0.462901,-0.054656,49,275,582,6064
1644179745.598896,-0.009216,0.011047,-0.992615,0.312458,0.401832,-0.039389,48,286,585,6080
1644179745.647917,-0.007202,0.010254,-0.992493,0.129252,0.417099,-0.176794,45,268,582,6016
1644179745.698496,-0.009583,0.00885,-0.996338,0.144519,0.401832,-0.192061,53,271,576,6048
1644179745.748561,-0.008606,0.006287,-0.990051,-0.008153,0.386565,-0.115725,52,275,584,6080
1644179745.84052,-0.008789,0.010559,-0.991638,0.175053,0.371298,-0.085191,41,274,576,6048
1644179745.888953,-0.009827,0.010437,-0.992188,0.236122,0.478168,-0.115725,52,280,579,6064
1644179745.937319,-0.010437,0.008728,-0.991272,0.175053,0.432366,-0.14626,41,281,585,6080
1644179745.98574,-0.00885,0.007141,-0.993042,0.205588,0.523969,-0.298931,47,277,582,6000
1644179746.03413,-0.009644,0.007935,-0.992981,0.175053,0.493435,-0.100458,61,277,586,6080
1644179746.082645,-0.007202,0.008301,-0.992188,0.144519,0.417099,0.098015,51,274,592,6048
1644179746.130889,-0.009766,0.005554,-0.992981,0.342992,0.294962,-0.100458,49,280,586,6080
1644179746.179281,-0.00885,0.010132,-0.992065,0.297191,0.310229,0.006412,49,277,577,6048
1644179746.227676,-0.011902,0.010803,-0.989685,0.144519,0.401832,-0.298931,42,273,582,6048
1644179746.276056,-0.008789,0.010681,-0.990356,0.373527,0.310229,-0.100458,52,275,591,6080
1644179746.324463,-0.007874,0.010681,-0.991455,0.35826,0.462901,-0.115725,57,282,584,6080
1644179746.37282,-0.008057,0.008301,-0.98999,0.144519,0.478168,-0.115725,53,279,590,6112
1644179746.421226,-0.009827,0.009338,-0.993286,0.068183,0.356031,-0.100458,51,276,590,6000
1644179746.469628,-0.009644,0.009644,-0.991333,0.327725,0.386565,-0.115725,53,276,592,6048
1644179746.518011,-0.007996,0.004944,-0.98999,0.251389,0.310229,-0.130992,47,282,582,6016
1644179746.566408,-0.010986,0.008362,-0.993591,0.052916,0.371298,-0.222595,40,275,584,6000
1644179746.614823,-0.008179,0.008606,-0.991394,0.236122,0.279695,-0.207328,43,281,580,6080
1644179746.663192,-0.008667,0.006104,-0.992249,0.297191,0.417099,-0.008855,43,281,585,6080
1644179746.711803,-0.007202,0.008484,-0.994019,0.220855,0.508702,-0.130992,39,266,590,6080
1644179746.760594,-0.011658,0.008728,-0.994324,0.35826,0.310229,-0.100458,47,280,586,6016
1644179746.811286,-0.009827,0.009521,-0.994751,0.159786,0.417099,-0.161527,57,268,589,6080
1644179746.862561,-0.009827,0.011414,-0.990784,0.297191,0.600305,0.067481,49,275,579,5984
1644179746.906978,-0.010376,0.009705,-0.992737,0.251389,0.493435,-0.008855,52,275,591,6112
1644179747.001966,-0.010925,0.007385,-0.992859,0.144519,0.294962,-0.161527,43,274,585,6080
1644179747.067767,-0.007812,0.012268,-0.990967,0.220855,0.279695,-0.069924,51,279,594,6080
1644179747.100564,-0.005432,0.009827,-0.990784,0.35826,0.493435,-0.14626,58,269,590,6128
1644179747.147154,-0.007263,0.009033,-0.992615,0.266656,0.340763,-0.024122,48,283,592,6016
1644179747.195482,-0.009521,0.008057,-0.994507,0.251389,0.386565,-0.25313,55,281,583,6016
1644179747.243919,-0.008057,0.009155,-0.990601,0.175053,0.523969,-0.054656,49,275,593,6112
1644179747.292298,-0.011108,0.010681,-0.993347,0.236122,0.325496,-0.100458,61,282,584,6064
1644179747.340678,-0.008606,0.008423,-0.992615,0.129252,0.447634,-0.100458,49,285,577,6080
1644179747.389087,-0.008667,0.005981,-0.99054,0.113985,0.432366,-0.115725,55,271,587,6080
1644179747.437445,-0.011169,0.007019,-0.990356,0.098718,0.386565,-0.130992,53,276,573,6112
1644179747.485878,-0.009644,0.010193,-0.992859,0.236122,0.401832,-0.085191,52,275,586,6064
1644179747.53428,-0.008728,0.009521,-0.991638,0.236122,0.523969,-0.130992,48,279,587,6112
1644179747.584135,-0.008118,0.01123,-0.991394,0.35826,0.539237,0.052214,51,266,587,6080
1644179747.634509,-0.008362,0.007507,-0.992432,0.175053,0.24916,-0.130992,52,265,591,6128
1644179747.684804,-0.006104,0.013428,-0.992004,0.342992,0.417099,-0.161527,45,273,589,5984
1644179747.776204,-0.011475,0.009521,-0.992554,0.281924,0.188092,-0.130992,41,276,587,6160
1644179747.82485,-0.008911,0.010193,-0.991821,0.205588,0.279695,-0.054656,47,290,572,6080
1644179747.873025,-0.008484,0.00592,-0.991943,0.129252,0.386565,-0.207328,52,280,589,6016
1644179747.921408,-0.007751,0.009521,-0.993225,0.236122,0.417099,-0.054656,55,279,578,6016
1644179747.96982,-0.009888,0.010681,-0.989075,0.113985,0.294962,-0.069924,49,280,584,6080
1644179748.018229,-0.010437,0.007935,-0.991516,0.190321,0.447634,-0.069924,49,277,579,6080
1644179748.070371,-0.011108,0.008545,-0.990234,0.190321,0.462901,-0.222595,52,285,591,6016
1644179748.115691,-0.010498,0.009277,-0.991638,0.312458,0.386565,-0.024122,46,274,599,6080
1644179748.163404,-0.007874,0.009521,-0.993286,0.281924,0.264427,-0.14626,42,277,596,6080
1644179748.211791,-0.010925,0.010986,-0.992188,0.236122,0.325496,-0.130992,51,274,587,6080
1644179748.260154,-0.010254,0.008789,-0.994446,0.113985,0.386565,-0.039389,53,281,573,6064
1644179748.308562,-0.010742,0.00769,-0.992676,0.251389,0.340763,-0.008855,51,279,578,5984
1644179748.356956,-0.008789,0.00885,-0.99054,0.159786,0.340763,-0.024122,49,270,575,6048
1644179748.405351,-0.009766,0.011108,-0.99353,0.404061,0.462901,-0.100458,42,285,577,6128
1644179748.453751,-0.008789,0.009399,-0.993713,0.251389,0.310229,-0.069924,48,276,592,6064
1644179748.502197,-0.011841,0.010193,-0.99231,0.312458,0.310229,-0.054656,53,279,587,6128
1644179748.55053,-0.008057,0.009766,-0.992737,0.220855,0.340763,-0.161527,49,275,596,6112
1644179748.599262,-0.009705,0.009521,-0.992371,0.236122,0.371298,-0.024122,61,273,589,6128
1644179748.647344,-0.008789,0.008789,-0.988525,0.297191,0.447634,-0.222595,42,275,589,6080
1644179748.697055,-0.009949,0.007751,-0.994751,0.342992,0.356031,-0.024122,51,281,580,6080
1644179748.7471,-0.009399,0.008545,-0.991028,0.159786,0.325496,-0.039389,48,264,580,6112
1644179748.797539,-0.007996,0.007019,-0.993042,0.297191,0.478168,-0.298931,49,275,593,6080
1644179748.842049,-0.007935,0.009583,-0.995239,0.236122,0.371298,-0.14626,48,276,580,6048
1644179748.937671,-0.009705,0.008667,-0.993103,0.281924,0.310229,-0.25313,42,275,577,6000
1644179748.986042,-0.010193,0.008179,-0.99115,0.281924,0.417099,-0.039389,51,274,587,6112
1644179749.034467,-0.012085,0.009949,-0.994751,0.373527,0.356031,-0.069924,45,277,577,6048
1644179749.082938,-0.009033,0.010254,-0.992615,0.266656,0.493435,-0.130992,59,273,591,6112
1644179749.131196,-0.009827,0.010315,-0.992737,0.068183,0.294962,0.036947,54,270,577,6048
1644179749.179593,-0.009766,0.00824,-0.993652,0.251389,0.508702,-0.024122,40,273,575,6080
1644179749.227992,-0.011597,0.007568,-0.994385,0.236122,0.432366,0.006412,55,276,587,6048
1644179749.27635,-0.009521,0.010193,-0.99176,0.312458,0.356031,-0.100458,49,265,589,6112
1644179749.324793,-0.009033,0.01001,-0.989624,0.205588,0.417099,-0.207328,47,265,572,6064
1644179749.373153,-0.010803,0.00824,-0.990479,0.144519,0.371298,-0.176794,47,270,582,6016
1644179749.421558,-0.009033,0.010681,-0.994019,0.190321,0.325496,-0.085191,51,269,587,6048
1644179749.469953,-0.011414,0.007141,-0.993225,0.35826,0.386565,-0.130992,48,276,592,6080
1644179749.518313,-0.008118,0.006042,-0.993347,0.266656,0.386565,-0.008855,51,279,583,6064
1644179749.56674,-0.006653,0.006531,-0.992371,0.205588,0.462901,-0.069924,55,286,590,6112
1644179749.61516,-0.009705,0.008667,-0.991882,0.281924,0.493435,-0.161527,47,282,584,6080
1644179749.663524,-0.011292,0.008423,-0.989746,0.312458,0.325496,0.082748,49,275,582,6016
1644179749.711913,-0.009521,0.011902,-0.991882,0.175053,0.478168,-0.008855,34,271,587,6080
1644179749.760622,-0.009827,0.010376,-0.991699,0.297191,0.447634,-0.085191,45,280,589,6080
1644179749.810144,-0.008667,0.008484,-0.990479,0.220855,0.401832,-0.176794,46,286,573,6016
1644179749.860677,-0.008911,0.008972,-0.990967,0.175053,0.462901,-0.039389,45,275,579,6000
1644179749.910922,-0.008667,0.010559,-0.992554,0.236122,0.523969,-0.115725,52,277,575,6000
1644179750.002504,-0.00946,0.011719,-0.989746,0.312458,0.462901,-0.115725,49,268,572,6048
1644179750.002504,-0.00946,0.011719,-0.989746,0.312458,0.462901,-0.115725,49,268,572,6048
1644179750.10293,-0.007996,0.009033,-0.992004,0.327725,0.417099,-0.176794,48,286,585,6064
1644179750.14743,-0.008362,0.009705,-0.991943,0.175053,0.462901,-0.039389,48,271,585,6048
1644179750.195842,-0.008484,0.008301,-0.993286,0.404061,0.432366,0.006412,57,275,584,6048
1644179750.244203,-0.010986,0.008545,-0.992371,0.175053,0.462901,-0.25313,54,270,589,6064
1644179750.292632,-0.012939,0.01178,-0.992126,0.144519,0.294962,-0.14626,48,271,585,6064
1644179750.341016,-0.011841,0.008911,-0.993652,0.144519,0.325496,-0.069924,53,274,578,6112
1644179750.389408,-0.010681,0.009094,-0.991638,0.129252,0.432366,-0.008855,51,281,590,6064
1644179750.438114,-0.007935,0.008362,-0.990051,0.175053,0.478168,-0.130992,51,271,590,6080
1644179750.486422,-0.009399,0.012146,-0.991333,0.205588,0.294962,-0.161527,45,280,584,5984
1644179750.535893,-0.011292,0.006592,-0.991943,0.220855,0.462901,0.006412,58,281,587,6048
1644179750.586213,-0.009033,0.008545,-0.992676,0.266656,0.356031,-0.039389,51,271,585,6064
1644179750.636493,-0.010803,0.01001,-0.992004,0.190321,0.447634,0.113282,53,271,583,6080
1644179750.728129,-0.008362,0.00885,-0.990723,0.266656,0.432366,-0.115725,48,274,580,6048
1644179750.77652,-0.008423,0.009766,-0.990967,0.297191,0.417099,-0.054656,49,277,575,6016
1644179750.82526,-0.01001,0.008484,-0.990601,0.220855,0.356031,-0.192061,52,273,579,6048
1644179750.873372,-0.00946,0.009766,-0.992798,0.190321,0.523969,-0.115725,45,273,575,6080
1644179750.921729,-0.013245,0.008362,-0.991028,0.251389,0.447634,-0.176794,46,281,592,6000
1644179750.970156,-0.006226,0.009583,-0.99115,0.144519,0.340763,-0.176794,43,279,585,6080
1644179751.018525,-0.008545,0.013184,-0.994202,0.327725,0.523969,0.021679,47,280,584,6080
1644179751.073877,-0.007996,0.008606,-0.994995,0.373527,0.432366,-0.130992,46,271,592,6080
1644179751.11534,-0.006958,0.008911,-0.993652,0.190321,0.294962,-0.192061,46,276,590,6048
1644179751.163689,-0.010925,0.011169,-0.990479,0.251389,0.417099,-0.069924,48,279,587,6080
1644179751.212081,-0.008179,0.008423,-0.993225,0.159786,0.371298,-0.085191,52,277,582,6016
1644179751.260442,-0.009399,0.010132,-0.99054,0.205588,0.340763,-0.085191,51,279,580,6080
1644179751.308848,-0.007263,0.008667,-0.990417,0.129252,0.432366,-0.069924,47,290,584,6064
1644179751.357214,-0.010254,0.013062,-0.993896,0.297191,0.279695,-0.069924,46,283,585,6016
1644179751.405612,-0.008911,0.01001,-0.990356,0.236122,0.447634,-0.130992,45,282,593,6112
1644179751.454048,-0.006958,0.006409,-0.992126,0.220855,0.462901,-0.192061,53,271,592,6080
1644179751.50241,-0.010925,0.007935,-0.991272,0.236122,0.310229,-0.115725,59,277,586,6064
1644179751.55082,-0.011169,0.005859,-0.994568,0.266656,0.371298,-0.039389,48,276,585,6016
1644179751.599214,-0.007874,0.009521,-0.993896,0.144519,0.294962,-0.222595,43,276,585,6112
1644179751.647644,-0.009766,0.007019,-0.99353,0.312458,0.356031,-0.130992,57,280,582,6016
1644179751.697798,-0.010437,0.010803,-0.99231,0.220855,0.447634,-0.039389,64,277,582,6080
1644179751.74816,-0.009399,0.009399,-0.992615,0.144519,0.417099,-0.115725,52,275,582,6080
1644179751.793218,-0.007324,0.010376,-0.992004,0.190321,0.539237,0.098015,48,283,583,6000
1644179751.889613,-0.009705,0.011047,-0.991333,0.022382,0.325496,-0.161527,54,282,579,6080
1644179751.937975,-0.008911,0.010437,-0.991089,0.220855,0.417099,-0.14626,36,279,585,6064
1644179751.986394,-0.008545,0.00885,-0.992615,0.312458,0.417099,-0.298931,48,271,587,6064
1644179752.03481,-0.010254,0.009338,-0.995239,0.159786,0.417099,-0.207328,53,274,578,6080
1644179752.083459,-0.011902,0.010071,-0.99176,0.205588,0.371298,-0.069924,40,275,584,6080
1644179752.131556,-0.006348,0.009949,-0.990845,0.159786,0.386565,0.021679,49,287,579,6016
1644179752.179911,-0.010193,0.009094,-0.991516,0.190321,0.447634,-0.069924,53,271,590,6128
1644179752.228322,-0.008545,0.009644,-0.99231,0.129252,0.569771,-0.069924,51,283,585,6016
1644179752.276682,-0.007812,0.009949,-0.991394,0.266656,0.24916,0.052214,52,273,586,6128
1644179752.325224,-0.008057,0.010437,-0.990234,0.220855,0.523969,-0.008855,45,268,589,6064
1644179752.373512,-0.009827,0.010437,-0.992615,0.35826,0.401832,-0.237863,52,275,586,6048
1644179752.421899,-0.006653,0.009888,-0.992249,0.205588,0.401832,-0.039389,47,280,575,6048
1644179752.470279,-0.007874,0.00769,-0.992188,0.266656,0.325496,-0.069924,49,280,584,6128
1644179752.518677,-0.01178,0.010925,-0.990784,0.236122,0.340763,0.021679,59,277,589,6080
1644179752.56704,-0.00769,0.009827,-0.992981,0.297191,0.417099,0.067481,49,275,593,5984
1644179752.615453,-0.006165,0.009827,-0.990479,0.236122,0.432366,-0.115725,43,276,590,6064
1644179752.663826,-0.011658,0.007263,-0.99292,0.266656,0.447634,-0.069924,51,276,580,6112
1644179752.712552,-0.008972,0.011169,-0.988525,0.236122,0.340763,-0.024122,53,274,583,6064
1644179752.760635,-0.009277,0.011292,-0.990784,0.190321,0.310229,-0.039389,54,277,593,6048
1644179752.810209,-0.010254,0.007202,-0.992126,0.297191,0.325496,-0.237863,57,265,579,6000
1644179752.861832,-0.01123,0.006775,-0.993896,0.113985,0.386565,-0.115725,51,271,585,6080
1644179752.906084,-0.008118,0.00824,-0.992554,0.312458,0.447634,-0.115725,48,276,583,6048
1644179753.002652,-0.011292,0.009766,-0.989136,0.327725,0.325496,-0.054656,49,268,596,6112
1644179753.067587,-0.009521,0.008911,-0.990295,0.08345,0.340763,-0.054656,59,268,598,6128
1644179753.102359,-0.011719,0.011292,-0.987793,0.08345,0.356031,-0.14626,43,276,590,6080
1644179753.147812,-0.00824,0.008118,-0.991028,0.327725,0.417099,-0.161527,43,288,587,6128
1644179753.196162,-0.011108,0.009155,-0.994019,0.175053,0.462901,-0.100458,48,283,578,6128
1644179753.244625,-0.011902,0.010986,-0.990906,0.220855,0.340763,-0.100458,54,285,579,6048
1644179753.29295,-0.011414,0.012024,-0.993774,0.144519,0.340763,-0.085191,51,279,583,6080
1644179753.341344,-0.011719,0.01062,-0.990906,0.190321,0.356031,-0.207328,49,273,591,6080
1644179753.389729,-0.009216,0.008118,-0.99054,0.236122,0.523969,-0.100458,48,271,583,6048
1644179753.438094,-0.007324,0.010498,-0.992004,0.266656,0.447634,-0.085191,40,277,593,6080
1644179753.486515,-0.007751,0.009888,-0.993408,0.35826,0.447634,-0.161527,52,285,582,6016
1644179753.535274,-0.008362,0.011963,-0.991943,0.205588,0.447634,-0.008855,45,280,586,6064
1644179753.584117,-0.006714,0.010925,-0.988892,0.175053,0.523969,-0.069924,54,265,579,6048
1644179753.634917,-0.008667,0.011597,-0.990479,0.113985,0.386565,-0.085191,61,268,575,6016
1644179753.68476,-0.00885,0.00885,-0.990173,0.297191,0.356031,-0.039389,49,280,586,6000
1644179753.776883,-0.010803,0.007141,-0.99231,0.08345,0.493435,-0.008855,53,281,580,6016
1644179753.825389,-0.010986,0.011047,-0.993347,0.129252,0.523969,-0.192061,46,279,580,6016
1644179753.873681,-0.009949,0.010925,-0.992126,0.08345,0.371298,-0.085191,52,270,584,6128
1644179753.922085,-0.008667,0.010803,-0.98999,0.312458,0.523969,-0.085191,48,269,583,6080
1644179753.970476,-0.008545,0.009338,-0.992859,0.388794,0.462901,-0.100458,52,285,577,6016
1644179754.018859,-0.008484,0.007874,-0.991821,0.113985,0.417099,-0.039389,45,273,582,6048
1644179754.071441,-0.007812,0.007141,-0.993347,0.175053,0.432366,-0.161527,52,285,596,6064
1644179754.115591,-0.009338,0.00885,-0.993042,0.08345,0.462901,-0.130992,49,282,584,6080
1644179754.164003,-0.009949,0.014404,-0.992859,0.175053,0.325496,-0.024122,55,283,580,6000
1644179754.212415,-0.009583,0.009277,-0.990112,0.297191,0.417099,0.006412,47,277,577,6080
1644179754.260794,-0.009216,0.00824,-0.993164,0.327725,0.462901,-0.054656,43,269,585,6048
1644179754.309167,-0.009155,0.010254,-0.989807,0.175053,0.371298,-0.039389,47,277,593,6128
1644179754.357581,-0.008118,0.009888,-0.99115,0.205588,0.279695,-0.008855,52,273,584,6128
1644179754.405973,-0.008423,0.009338,-0.991577,0.098718,0.386565,-0.176794,47,277,575,6080
1644179754.45437,-0.009277,0.007202,-0.995972,0.297191,0.386565,-0.115725,46,276,592,6160
1644179754.502737,-0.01001,0.008362,-0.992126,0.404061,0.325496,-0.100458,55,271,576,6048
1644179754.551124,-0.010681,0.006958,-0.991699,0.266656,0.325496,-0.130992,45,277,582,6064
1644179754.599512,-0.011536,0.012573,-0.990967,0.113985,0.401832,-0.161527,48,283,583,6048
1644179754.647927,-0.009949,0.009277,-0.992004,0.08345,0.447634,-0.100458,47,287,582,6080
1644179754.696676,-0.010437,0.010864,-0.991516,0.190321,0.386565,-0.039389,42,275,577,6048
1644179754.746865,-0.007751,0.007751,-0.992493,0.129252,0.401832,-0.100458,42,268,577,6080
1644179754.797338,-0.008972,0.008423,-0.991455,0.144519,0.340763,-0.069924,48,286,580,6080
1644179754.842589,-0.006165,0.01001,-0.990906,0.037649,0.203359,-0.039389,45,275,575,6048
1644179754.93832,-0.007568,0.007324,-0.993225,0.266656,0.585038,-0.085191,41,274,590,6016
1644179754.986698,-0.009399,0.011902,-0.992004,0.236122,0.523969,-0.024122,57,285,579,6016
1644179755.035146,-0.009521,0.007812,-0.993164,0.312458,0.294962,-0.100458,45,275,582,6112
1644179755.086287,-0.007568,0.006775,-0.991577,0.159786,0.462901,-0.054656,54,285,596,6112
1644179755.131854,-0.007629,0.012878,-0.994995,0.175053,0.356031,-0.14626,47,275,584,6048
1644179755.180221,-0.010925,0.00885,-0.991882,0.129252,0.310229,-0.25313,41,274,578,6112
1644179755.22864,-0.00592,0.010071,-0.991699,0.404061,0.432366,-0.008855,48,271,590,6016
1644179755.277024,-0.008057,0.009583,-0.99231,0.159786,0.432366,-0.176794,55,266,583,6080
1644179755.325418,-0.00946,0.010071,-0.990112,0.251389,0.478168,-0.14626,49,277,579,6128
1644179755.373837,-0.010071,0.00946,-0.992493,0.190321,0.432366,-0.085191,43,283,583,6080
1644179755.422244,-0.007812,0.010132,-0.993896,0.098718,0.478168,-0.008855,40,275,582,6080
1644179755.470608,-0.010742,0.011536,-0.992737,0.113985,0.554504,-0.069924,49,270,586,6016
1644179755.518966,-0.011719,0.007202,-0.993103,0.312458,0.432366,-0.039389,58,288,585,6080
1644179755.567393,-0.011597,0.012146,-0.992065,0.251389,0.615573,0.006412,47,275,579,6016
1644179755.615768,-0.009521,0.011414,-0.99176,0.175053,0.432366,-0.054656,48,276,578,6128
1644179755.664168,-0.011719,0.009583,-0.992981,0.327725,0.417099,-0.130992,46,279,590,6080
1644179755.712576,-0.008118,0.012878,-0.990601,0.159786,0.462901,-0.100458,55,274,585,6016
1644179755.761013,-0.007751,0.011353,-0.992554,0.190321,0.325496,-0.161527,46,279,592,6080
1644179755.81066,-0.007141,0.009827,-0.992737,0.175053,0.432366,-0.100458,41,271,590,6064
1644179755.861164,-0.011047,0.011597,-0.991699,0.129252,0.447634,-0.008855,42,277,586,6048
1644179755.911479,-0.010254,0.010376,-0.9953,0.236122,0.585038,-0.024122,46,281,587,6016
1644179755.955949,-0.010376,0.009338,-0.991882,0.251389,0.432366,-0.100458,43,283,576,6080
1644179756.068172,-0.010437,0.00824,-0.993164,0.312458,0.432366,-0.14626,46,276,587,6112
1644179756.102992,-0.008362,0.006531,-0.991821,0.236122,0.493435,-0.008855,52,282,586,6080
1644179756.148094,-0.008545,0.009949,-0.990784,0.220855,0.325496,-0.008855,47,270,584,6080
1644179756.196493,-0.010559,0.01062,-0.992493,0.236122,0.447634,-0.237863,52,277,584,6128
1644179756.244864,-0.010559,0.009888,-0.991516,0.266656,0.340763,-0.054656,41,269,587,6080
1644179756.293266,-0.008667,0.007812,-0.993652,0.297191,0.371298,-0.14626,55,288,592,6160
1644179756.341671,-0.007935,0.011414,-0.993469,0.281924,0.462901,-0.085191,45,275,575,6112
1644179756.390029,-0.005188,0.00885,-0.993591,0.190321,0.386565,-0.222595,65,286,592,6080
1644179756.438424,-0.008423,0.010559,-0.994202,0.205588,0.294962,-0.008855,47,270,589,6000
1644179756.486829,-0.008667,0.009277,-0.990479,0.220855,0.478168,-0.115725,43,286,587,6080
1644179756.535553,-0.011047,0.008789,-0.992004,0.251389,0.371298,-0.008855,43,279,597,6128
1644179756.585011,-0.011169,0.011597,-0.992371,0.205588,0.386565,-0.085191,49,282,577,6048
1644179756.63557,-0.009827,0.008606,-0.993164,-0.02342,0.478168,-0.130992,49,270,582,6016
1644179756.685337,-0.009033,0.008911,-0.993896,0.266656,0.447634,-0.176794,40,275,591,6064
1644179756.777198,-0.009277,0.010193,-0.992004,0.129252,0.401832,0.006412,48,276,580,6080
1644179756.825606,-0.008972,0.008606,-0.992126,0.220855,0.401832,0.006412,49,275,586,6064
1644179756.873995,-0.009766,0.007812,-0.993469,0.175053,0.386565,-0.069924,45,282,586,6064
1644179756.92242,-0.009155,0.008972,-0.993042,0.342992,0.417099,-0.222595,53,276,583,6112
1644179756.970817,-0.006714,0.009155,-0.991577,0.297191,0.417099,-0.115725,60,279,578,6080
1644179757.019177,-0.00885,0.010986,-0.99469,0.236122,0.432366,-0.222595,41,279,583,6112
1644179757.070913,-0.009583,0.011658,-0.992432,0.281924,0.523969,-0.069924,52,265,591,6080
1644179757.116107,-0.008606,0.008545,-0.991821,0.052916,0.279695,-0.115725,47,268,584,6016
1644179757.16435,-0.008789,0.009766,-0.990295,0.266656,0.478168,-0.054656,45,270,582,6016
1644179757.212749,-0.010437,0.011414,-0.991028,0.236122,0.279695,-0.085191,55,274,585,6048
1644179757.261128,-0.011597,0.010254,-0.992554,0.342992,0.310229,-0.100458,52,282,591,6128
1644179757.309509,-0.010254,0.009033,-0.991821,0.342992,0.371298,-0.100458,58,286,585,6048
1644179757.357911,-0.006775,0.00769,-0.989563,0.144519,0.508702,0.036947,53,266,590,6128
1644179757.406296,-0.008362,0.009277,-0.992798,0.342992,0.340763,0.052214,47,282,577,6160
1644179757.454718,-0.008362,0.009399,-0.992065,0.327725,0.478168,-0.085191,49,280,577,6080
1644179757.503067,-0.010132,0.012085,-0.990295,0.297191,0.585038,-0.115725,55,281,592,6064
1644179757.551472,-0.008667,0.006653,-0.992554,0.08345,0.218626,-0.268397,48,271,580,6000
1644179757.599897,-0.009949,0.010193,-0.990479,0.052916,0.325496,0.036947,65,271,585,6064
1644179757.648263,-0.007385,0.012024,-0.992249,0.098718,0.386565,-0.039389,40,268,577,6128
1644179757.697051,-0.007507,0.009583,-0.989136,0.236122,0.325496,-0.222595,48,281,585,6080
1644179757.747701,-0.009888,0.007568,-0.990967,0.190321,0.325496,0.067481,47,277,586,6048
1644179757.797723,-0.008057,0.00946,-0.992249,0.098718,0.340763,-0.161527,55,269,583,6128
1644179757.842497,-0.006653,0.011658,-0.989258,0.281924,0.356031,-0.176794,47,270,582,6080
1644179757.938639,-0.007812,0.009949,-0.988831,0.190321,0.462901,-0.25313,51,274,580,6112
1644179757.987042,-0.007996,0.012878,-0.992249,0.220855,0.310229,-0.039389,58,279,587,6064
1644179758.035414,-0.010254,0.010315,-0.991272,0.220855,0.340763,-0.100458,48,281,576,6112
1644179758.083928,-0.007202,0.008789,-0.990479,0.404061,0.386565,-0.054656,57,280,589,6080
1644179758.132231,-0.00769,0.009094,-0.98999,0.205588,0.401832,-0.100458,42,270,577,6128
1644179758.180585,-0.008789,0.008972,-0.987793,0.144519,0.447634,-0.008855,51,288,578,6112
1644179758.228969,-0.006165,0.009705,-0.991211,0.297191,0.294962,-0.039389,49,280,577,6080
1644179758.277342,-0.007202,0.012817,-0.990845,0.251389,0.279695,-0.024122,51,281,590,6112
1644179758.325723,-0.007629,0.007019,-0.993408,0.052916,0.371298,-0.130992,46,276,587,6080
1644179758.374151,-0.007202,0.009766,-0.993042,0.205588,0.356031,-0.085191,46,276,583,6016
1644179758.42255,-0.009094,0.008728,-0.996399,0.266656,0.386565,-0.100458,45,282,591,6016
1644179758.470941,-0.007385,0.011169,-0.990845,0.159786,0.371298,0.082748,53,266,580,6000
1644179758.519319,-0.006714,0.011169,-0.991516,0.159786,0.432366,-0.039389,58,269,580,6160
1644179758.567725,-0.008545,0.008789,-0.991455,0.281924,0.432366,-0.085191,51,269,585,6080
1644179758.616106,-0.008362,0.010132,-0.990112,0.098718,0.417099,-0.024122,41,271,585,6016
1644179758.664507,-0.01001,0.008301,-0.989502,0.35826,0.478168,-0.14626,55,283,578,6048
1644179758.712906,-0.010315,0.010742,-0.992798,0.205588,0.294962,-0.024122,40,270,589,6016
1644179758.761521,-0.008118,0.007812,-0.990417,0.251389,0.447634,-0.176794,47,275,584,6080
1644179758.80997,-0.010071,0.011841,-0.990479,0.297191,0.310229,0.021679,39,283,578,6048
1644179758.859104,-0.008545,0.008789,-0.991882,0.281924,0.478168,-0.130992,43,271,587,6048
1644179758.910268,-0.009033,0.011047,-0.993591,0.159786,0.356031,0.006412,54,265,579,6064
1644179758.960388,-0.005127,0.007507,-0.990417,0.113985,0.340763,-0.222595,46,274,594,6080
1644179759.06874,-0.007324,0.008667,-0.992065,0.098718,0.264427,0.143817,48,281,585,6064
1644179759.100248,-0.010376,0.009827,-0.992432,0.220855,0.264427,-0.008855,61,273,589,6064
1644179759.148464,-0.010376,0.01123,-0.992676,0.434595,0.432366,-0.192061,53,283,573,6000
1644179759.196818,-0.008484,0.01062,-0.991394,0.404061,0.401832,0.067481,48,276,583,6000
1644179759.245277,-0.011047,0.007324,-0.992554,0.266656,0.386565,-0.039389,53,288,573,6048
1644179759.293592,-0.006592,0.009155,-0.994629,0.068183,0.203359,0.021679,51,276,587,6128
1644179759.341971,-0.009644,0.011169,-0.989624,0.022382,0.401832,-0.008855,47,275,593,6048
1644179759.390392,-0.00885,0.007996,-0.995361,0.205588,0.356031,0.021679,54,282,582,6064
1644179759.438772,-0.010193,0.010315,-0.992798,0.052916,0.493435,-0.085191,49,275,589,6048
1644179759.487154,-0.010376,0.007812,-0.992371,0.404061,0.233893,-0.115725,46,276,594,6080
1644179759.53569,-0.009644,0.010742,-0.990845,0.251389,0.401832,-0.14626,47,277,584,6064
1644179759.586225,-0.00946,0.010803,-0.994324,0.251389,0.493435,0.189618,47,282,586,6112
1644179759.636671,-0.007874,0.009766,-0.994995,0.281924,0.478168,-0.039389,43,274,583,6016
1644179759.681458,-0.009338,0.008301,-0.994568,0.236122,0.478168,0.021679,48,279,585,6080
1644179759.777517,-0.006897,0.012817,-0.991638,0.159786,0.401832,-0.192061,43,274,576,6112
1644179759.825888,-0.00769,0.01123,-0.99176,0.129252,0.508702,-0.039389,46,281,578,6064
1644179759.874344,-0.011963,0.00946,-0.992249,0.236122,0.432366,-0.024122,42,280,586,6080
1644179759.92275,-0.00769,0.008545,-0.99176,0.251389,0.417099,-0.237863,47,280,586,5984
1644179759.97114,-0.010437,0.010254,-0.991455,0.190321,0.432366,-0.024122,42,280,589,6128
1644179760.019516,-0.008301,0.009399,-0.993408,0.236122,0.508702,-0.039389,43,274,580,6080
1644179760.070272,-0.007019,0.010925,-0.993774,0.251389,0.432366,0.052214,47,277,593,6160
1644179760.116244,-0.008728,0.009705,-0.991272,0.312458,0.310229,-0.161527,52,273,591,6128
1644179760.164676,-0.007446,0.009583,-0.992554,0.159786,0.401832,-0.130992,49,280,591,6048
1644179760.213036,-0.006958,0.007324,-0.993286,0.205588,0.508702,0.006412,54,265,582,6080
1644179760.261449,-0.007446,0.010132,-0.99353,0.205588,0.432366,-0.069924,45,265,582,6048
1644179760.309838,-0.007629,0.010681,-0.993896,0.190321,0.417099,-0.207328,53,279,590,6080
1644179760.358232,-0.009338,0.009705,-0.993713,0.175053,0.386565,-0.008855,52,280,589,6080
1644179760.406621,-0.010864,0.010193,-0.989868,0.205588,0.447634,0.021679,60,276,590,6064
1644179760.455053,-0.008667,0.007935,-0.993896,0.144519,0.371298,-0.024122,49,280,577,6080
1644179760.50338,-0.010925,0.011108,-0.994019,0.220855,0.401832,-0.054656,45,290,589,6080
1644179760.551794,-0.010986,0.006958,-0.993408,0.220855,0.447634,-0.161527,41,266,585,6064
1644179760.600192,-0.007141,0.010132,-0.990173,0.205588,0.386565,-0.268397,51,276,592,6080
1644179760.64858,-0.008057,0.007812,-0.991699,0.236122,0.386565,0.067481,55,281,585,6080
1644179760.697326,-0.00946,0.012329,-0.992676,0.266656,0.585038,-0.176794,45,273,579,6064
1644179760.747951,-0.011475,0.010742,-0.992493,0.159786,0.478168,-0.176794,45,277,586,6080
1644179760.798901,-0.008606,0.010315,-0.992249,0.297191,0.356031,-0.14626,49,282,582,6048
1644179760.843433,-0.004883,0.008667,-0.993774,0.297191,0.294962,-0.100458,40,268,579,6128
1644179760.938966,-0.009277,0.010193,-0.992981,0.175053,0.310229,-0.039389,52,265,586,6064
1644179760.98735,-0.010254,0.007629,-0.991333,0.388794,0.508702,-0.176794,45,285,589,6112
1644179761.035747,-0.007629,0.008667,-0.993347,0.205588,0.523969,0.052214,48,266,583,6080
1644179761.084239,-0.006653,0.009399,-0.990723,0.251389,0.340763,-0.024122,49,273,591,6080
1644179761.132535,-0.009766,0.011841,-0.992065,0.236122,0.340763,-0.085191,47,273,586,6064
1644179761.18092,-0.00824,0.008972,-0.992432,0.175053,0.310229,0.021679,49,277,582,6000
1644179761.229274,-0.009277,0.011414,-0.995117,0.236122,0.340763,-0.069924,51,279,576,6080
1644179761.277688,-0.010742,0.010254,-0.992004,0.312458,0.401832,-0.192061,45,273,582,6112
1644179761.326081,-0.007751,0.011169,-0.992859,0.281924,0.340763,-0.161527,47,285,579,6016
1644179761.374483,-0.006836,0.007812,-0.992371,0.327725,0.294962,-0.054656,47,277,589,6080
1644179761.422869,-0.008728,0.010254,-0.992004,0.236122,0.264427,-0.085191,51,286,573,6048
1644179761.471248,-0.012207,0.007935,-0.9953,0.266656,0.371298,-0.115725,45,280,582,6064
1644179761.519648,-0.006104,0.00708,-0.990662,0.190321,0.569771,-0.161527,47,282,586,6080
1644179761.56807,-0.008301,0.008972,-0.992737,0.175053,0.508702,-0.115725,53,283,594,6064
1644179761.616445,-0.010559,0.01001,-0.994446,0.297191,0.371298,-0.176794,48,274,580,6064
1644179761.66483,-0.009277,0.007507,-0.99115,0.205588,0.386565,-0.161527,48,276,587,6080
1644179761.713223,-0.008972,0.010254,-0.992126,0.281924,0.493435,-0.039389,45,273,591,6080
1644179761.761605,-0.008057,0.012146,-0.991394,0.251389,0.386565,-0.176794,36,283,585,6080
1644179761.810056,-0.008484,0.008423,-0.993774,0.190321,0.539237,-0.054656,60,269,585,6112
1644179761.859574,-0.007263,0.008057,-0.990112,0.342992,0.371298,-0.161527,48,276,585,6112
1644179761.909994,-0.010132,0.00769,-0.992065,0.297191,0.310229,0.006412,59,273,586,6080
1644179761.960327,-0.005737,0.008972,-0.992126,0.312458,0.493435,0.006412,55,274,571,6048
1644179762.069499,-0.012695,0.008179,-0.992432,0.190321,0.554504,-0.115725,45,277,586,6080
1644179762.100531,-0.010315,0.006104,-0.992737,0.190321,0.386565,-0.14626,43,274,587,6048
1644179762.148722,-0.007263,0.00824,-0.992188,0.281924,0.432366,-0.054656,46,274,578,6048
1644179762.197145,-0.011353,0.010742,-0.995911,0.144519,0.493435,-0.008855,36,271,597,6048
1644179762.24551,-0.009521,0.009521,-0.992371,0.327725,0.294962,-0.039389,42,277,589,6048
1644179762.293941,-0.008301,0.008606,-0.994263,0.220855,0.417099,-0.024122,53,266,583,6048
1644179762.342338,-0.008667,0.008789,-0.992493,0.281924,0.371298,-0.14626,51,276,587,6016
1644179762.390723,-0.007568,0.012512,-0.992432,0.251389,0.432366,-0.100458,51,279,587,5984
1644179762.439099,-0.010864,0.008545,-0.991272,0.236122,0.371298,-0.054656,53,276,587,6000
1644179762.487491,-0.010742,0.008118,-0.993835,0.251389,0.417099,-0.024122,47,273,586,6048
1644179762.536234,-0.009338,0.011597,-0.992859,0.236122,0.447634,-0.100458,57,270,589,6080
1644179762.586573,-0.007996,0.011414,-0.989868,0.297191,0.493435,0.052214,46,264,578,6080
1644179762.636974,-0.007751,0.010193,-0.990906,0.388794,0.447634,-0.130992,53,274,585,6112
1644179762.68174,-0.010681,0.00885,-0.99353,0.129252,0.615573,-0.176794,64,277,584,6016
1644179762.777828,-0.008606,0.008606,-0.99054,0.342992,0.386565,-0.192061,57,275,589,6080
1644179762.826219,-0.009583,0.009888,-0.992126,0.007115,0.493435,-0.054656,46,279,585,6080
1644179762.874729,-0.010132,0.009338,-0.989746,0.35826,0.417099,-0.008855,54,275,572,6112
1644179762.923062,-0.009644,0.008728,-0.992432,0.190321,0.356031,-0.115725,52,275,586,6080
1644179762.971445,-0.008911,0.012085,-0.991516,0.297191,0.325496,-0.100458,46,279,587,6080
1644179763.019848,-0.008118,0.009033,-0.990723,0.266656,0.432366,-0.14626,40,282,593,6080
1644179763.070889,-0.006775,0.008545,-0.992188,0.159786,0.340763,-0.161527,49,275,598,6128
1644179763.116642,-0.008911,0.009033,-0.992188,0.312458,0.340763,-0.054656,49,277,591,6080
1644179763.165182,-0.010315,0.00824,-0.993103,0.159786,0.294962,-0.024122,48,283,590,6048
1644179763.21339,-0.009705,0.010193,-0.992065,0.052916,0.508702,-0.176794,53,276,583,6160
1644179763.26176,-0.009216,0.008911,-0.992798,0.113985,0.371298,-0.069924,49,273,570,6080
1644179763.310161,-0.007874,0.009033,-0.993652,0.205588,0.371298,-0.115725,53,281,576,6080
1644179763.358566,-0.007263,0.007812,-0.992004,0.297191,0.539237,-0.222595,53,279,580,6064
1644179763.406944,-0.010315,0.010681,-0.99176,0.236122,0.264427,-0.14626,48,279,585,6080
1644179763.455339,-0.009949,0.009705,-0.993347,0.35826,0.600305,-0.069924,45,282,584,6128
1644179763.503716,-0.009766,0.010681,-0.994019,0.251389,0.386565,-0.192061,47,282,591,6112
1644179763.552172,-0.011414,0.00769,-0.990845,0.08345,0.508702,-0.024122,52,285,582,6112
1644179763.600514,-0.009216,0.009583,-0.990845,0.297191,0.401832,-0.14626,45,270,579,6016
1644179763.648924,-0.008606,0.007935,-0.991699,0.297191,0.310229,-0.14626,55,281,587,6048
1644179763.697892,-0.008362,0.00824,-0.990417,0.205588,0.478168,0.006412,48,274,583,6160
1644179763.748353,-0.010498,0.011169,-0.991089,0.281924,0.310229,-0.14626,43,279,592,6000
1644179763.798616,-0.008362,0.009766,-0.990662,0.129252,0.462901,0.006412,51,269,580,6112
1644179763.843527,-0.007568,0.009094,-0.993042,0.098718,0.356031,-0.14626,64,273,577,6048
1644179763.939295,-0.009705,0.007996,-0.989136,0.373527,0.325496,-0.039389,51,274,585,6048
1644179763.987678,-0.007751,0.010803,-0.992493,0.312458,0.386565,-0.130992,49,275,577,6048
1644179764.036059,-0.01123,0.010132,-0.990601,0.327725,0.371298,-0.115725,54,263,582,6048
1644179764.084567,-0.010071,0.007996,-0.99176,0.297191,0.386565,-0.237863,47,285,589,5984
1644179764.132908,-0.007812,0.011597,-0.990234,0.35826,0.264427,-0.024122,48,286,573,6048
1644179764.181238,-0.007446,0.010986,-0.993835,0.251389,0.310229,0.006412,51,276,585,6048
1644179764.229612,-0.008057,0.007751,-0.992493,0.327725,0.447634,-0.130992,54,277,582,6128
1644179764.277985,-0.008972,0.00885,-0.991272,0.220855,0.432366,-0.176794,46,281,585,6128
1644179764.326406,-0.009644,0.006042,-0.990784,0.129252,0.539237,-0.054656,58,281,587,6080
1644179764.374811,-0.007751,0.008118,-0.991516,0.35826,0.386565,-0.069924,49,273,579,6112
1644179764.423212,-0.006836,0.009644,-0.993469,0.297191,0.478168,0.021679,46,276,578,6048
1644179764.471586,-0.006775,0.010925,-0.994019,0.388794,0.340763,-0.176794,53,279,587,6112
1644179764.519982,-0.007385,0.00885,-0.992493,0.312458,0.462901,-0.039389,42,277,589,6112
1644179764.568373,-0.010315,0.01178,-0.99353,0.175053,0.478168,-0.069924,40,282,586,6080
1644179764.616758,-0.011047,0.007812,-0.992554,0.129252,0.539237,0.052214,43,279,587,6080
1644179764.665234,-0.008362,0.008545,-0.991272,0.281924,0.371298,-0.024122,52,270,591,6080
1644179764.713548,-0.008118,0.009766,-0.991577,0.220855,0.508702,-0.069924,46,279,590,6080
1644179764.761932,-0.008484,0.01062,-0.991638,0.312458,0.447634,-0.054656,49,282,596,6000
1644179764.810342,-0.010986,0.011963,-0.990356,0.175053,0.508702,-0.085191,45,273,582,6128
1644179764.8605,-0.010193,0.007751,-0.990356,0.220855,0.371298,-0.130992,54,280,582,6112
1644179764.911599,-0.010071,0.010376,-0.991516,0.327725,0.386565,-0.222595,52,270,584,6192
1644179764.961305,-0.006409,0.009521,-0.994812,0.113985,0.371298,-0.024122,59,270,582,6112
1644179765.062373,-0.012329,0.008667,-0.993286,0.175053,0.371298,-0.024122,47,275,596,6112
1644179765.102337,-0.009155,0.013855,-0.993652,0.297191,0.493435,-0.100458,43,271,585,6000
1644179765.149114,-0.00824,0.009827,-0.992065,0.236122,0.325496,-0.115725,66,270,586,6080
1644179765.19747,-0.004944,0.009949,-0.991882,0.037649,0.371298,0.189618,40,290,579,6160
1644179765.245843,-0.009766,0.007324,-0.992798,0.175053,0.325496,-0.039389,51,276,597,6080
1644179765.294268,-0.009399,0.010803,-0.990967,0.236122,0.371298,-0.039389,54,280,584,6128
1644179765.34266,-0.007507,0.008118,-0.993469,0.113985,0.478168,-0.024122,48,271,578,6016
1644179765.391028,-0.011169,0.009888,-0.992676,0.037649,0.340763,-0.115725,46,274,587,6128
1644179765.439419,-0.00769,0.008667,-0.990723,0.129252,0.447634,0.006412,55,274,583,6048
1644179765.487819,-0.01001,0.011047,-0.989197,0.35826,0.310229,-0.237863,48,283,587,6112
1644179765.536243,-0.011169,0.008972,-0.990967,0.404061,0.447634,-0.192061,53,281,580,6128
1644179765.584648,-0.009155,0.012268,-0.991638,0.175053,0.356031,-0.024122,45,280,586,6048
1644179765.633006,-0.008789,0.011475,-0.992615,0.373527,0.401832,-0.039389,57,273,589,6128
1644179765.681382,-0.007141,0.011292,-0.992004,0.434595,0.340763,-0.085191,52,268,591,6112
1644179765.730047,-0.009521,0.009888,-0.990845,0.312458,0.371298,-0.100458,57,268,584,6080
1644179765.7805,-0.006348,0.008667,-0.991028,0.190321,0.523969,-0.298931,46,286,592,6064
1644179765.831357,-0.008484,0.008911,-0.992798,0.129252,0.371298,-0.176794,51,283,580,6080
1644179765.876442,-0.007996,0.012146,-0.993103,0.327725,0.432366,0.036947,54,282,577,6016
1644179765.971783,-0.009277,0.011353,-0.994446,0.266656,0.264427,-0.237863,53,274,580,6064
1644179766.020187,-0.008118,0.011536,-0.991516,0.129252,0.371298,0.021679,39,271,587,6080
1644179766.069083,-0.009705,0.00885,-0.99353,0.266656,0.539237,-0.054656,52,280,586,6080
1644179766.116877,-0.008667,0.011353,-0.991455,0.113985,0.356031,-0.14626,45,268,591,6128
1644179766.165418,-0.006287,0.009277,-0.990051,0.129252,0.294962,0.052214,52,268,582,6176
1644179766.213728,-0.009216,0.010559,-0.994385,0.236122,0.447634,-0.100458,54,280,582,6080
1644179766.262147,-0.01001,0.009521,-0.991943,0.35826,0.554504,0.021679,52,273,572,6128
1644179766.310475,-0.008484,0.010864,-0.991089,0.281924,0.569771,-0.14626,47,277,579,6016
1644179766.358878,-0.008057,0.010437,-0.991089,0.205588,0.447634,-0.14626,45,275,591,6048
1644179766.407263,-0.008057,0.006531,-0.99176,0.342992,0.462901,-0.100458,48,283,583,6160
1644179766.455674,-0.007935,0.008789,-0.991943,0.35826,0.417099,-0.192061,51,274,585,6080
1644179766.504076,-0.006714,0.009216,-0.992798,0.297191,0.218626,0.067481,48,281,585,6080
1644179766.552471,-0.008362,0.008545,-0.991821,0.175053,0.447634,-0.115725,46,281,583,6128
1644179766.600847,-0.007935,0.005127,-0.99292,0.159786,0.386565,-0.054656,51,281,580,6080
1644179766.649242,-0.011414,0.008301,-0.992615,0.190321,0.24916,-0.176794,48,276,587,6016
1644179766.697635,-0.006897,0.009644,-0.990417,0.297191,0.447634,-0.039389,42,275,598,6000
1644179766.746025,-0.010742,0.008118,-0.993713,0.251389,0.386565,-0.039389,53,276,592,6080
1644179766.794813,-0.009338,0.008301,-0.993042,0.312458,0.310229,-0.069924,51,283,587,6080
1644179766.842839,-0.007874,0.008362,-0.993958,0.342992,0.356031,0.036947,61,280,591,6080
1644179766.89269,-0.009521,0.00708,-0.992126,0.190321,0.478168,-0.283664,51,279,580,6080
1644179766.942893,-0.011597,0.007202,-0.994324,0.342992,0.279695,-0.054656,54,273,579,6160
1644179766.993489,-0.010376,0.009644,-0.991943,0.205588,0.218626,-0.054656,47,268,584,6112
1644179767.08508,-0.007996,0.011536,-0.992004,0.236122,0.24916,-0.085191,46,276,583,6080
1644179767.133145,-0.012329,0.009155,-0.991028,0.236122,0.523969,-0.100458,45,280,586,6080
1644179767.181546,-0.010742,0.007568,-0.991943,0.312458,0.356031,-0.207328,51,269,585,6016
1644179767.229956,-0.010376,0.007507,-0.992249,0.220855,0.386565,0.082748,46,279,580,6016
1644179767.278316,-0.00885,0.007202,-0.992432,0.281924,0.325496,0.052214,49,275,584,6080
