epoch,acc_x,acc_y,acc_z,rot_x,rot_y,rot_z,mag_x,mag_y,mag_z,temp
1644178800.014258,-0.007324,0.008118,-0.992432,0.159786,0.218626,0.006412,45,285,591,6000
1644178800.065667,-0.01239,0.009766,-0.994446,0.159786,0.279695,-0.192061,51,269,590,6016
1644178800.111005,-0.007263,0.008545,-0.99231,0.08345,0.325496,-0.085191,53,266,585,6112
1644178800.159377,-0.00769,0.011169,-0.988281,0.08345,0.417099,-0.115725,55,283,576,5984
1644178800.207769,-0.009949,0.006714,-0.994446,0.297191,0.386565,-0.14626,47,280,582,6080
1644178800.256164,-0.008484,0.010925,-0.99231,0.388794,0.432366,-0.100458,57,277,589,6000
1644178800.304546,-0.009766,0.007324,-0.995667,0.327725,0.478168,0.052214,32,279,566,6016
1644178800.352959,-0.004639,0.01001,-0.994446,0.251389,0.294962,-0.085191,46,281,585,6048
1644178800.401311,-0.010132,0.009277,-0.992126,0.159786,0.462901,-0.222595,60,281,578,6000
1644178800.449725,-0.008301,0.01062,-0.990051,0.236122,0.386565,-0.085191,54,287,589,5984
1644178800.498124,-0.00885,0.010193,-0.990479,0.205588,0.401832,-0.222595,43,281,587,6080
1644178800.54652,-0.010193,0.00824,-0.992432,0.327725,0.401832,-0.100458,34,281,594,6112
1644178800.594889,-0.012329,0.008484,-0.992004,0.297191,0.554504,-0.130992,49,273,582,6016
1644178800.643286,-0.008545,0.010437,-0.992249,0.266656,0.447634,-0.161527,57,285,591,6000
1644178800.691698,-0.009033,0.010132,-0.990356,0.281924,0.386565,-0.085191,39,276,597,6048
1644178800.740216,-0.009705,0.009094,-0.992737,0.08345,0.279695,-0.14626,46,274,590,6016
1644178800.790326,-0.009705,0.010925,-0.991089,0.175053,0.371298,-0.161527,49,285,584,6080
1644178800.840704,-0.010071,0.009766,-0.993286,0.312458,0.325496,-0.176794,51,271,576,5984
1644178800.886272,-0.010437,0.010803,-0.992371,0.205588,0.432366,-0.14626,48,286,573,5984
1644178800.982084,-0.009766,0.008728,-0.989136,0.190321,0.218626,-0.054656,41,279,580,6064
1644178801.03048,-0.00885,0.010071,-0.992249,0.236122,0.462901,-0.085191,54,277,582,6048
1644178801.080468,-0.009705,0.011047,-0.991638,0.312458,0.493435,0.052214,42,280,589,5952
1644178801.127272,-0.010864,0.009949,-0.991272,0.236122,0.447634,-0.176794,49,277,582,6000
1644178801.175609,-0.010315,0.010376,-0.993591,0.175053,0.340763,-0.115725,41,274,576,6000
1644178801.224023,-0.008545,0.010986,-0.992676,0.175053,0.401832,0.021679,48,276,585,6080
1644178801.27237,-0.01062,0.010498,-0.990845,0.251389,0.417099,-0.130992,51,281,585,6080
1644178801.320795,-0.011353,0.008911,-0.99408,0.205588,0.569771,-0.176794,46,286,571,5984
1644178801.369169,-0.011414,0.008728,-0.993103,0.297191,0.447634,-0.069924,49,265,586,6048
1644178801.41758,-0.008484,0.008179,-0.993286,0.190321,0.356031,-0.161527,43,276,578,6000
1644178801.465974,-0.008057,0.00769,-0.992554,0.312458,0.447634,-0.283664,47,280,570,6000
1644178801.51435,-0.009644,0.010315,-0.990601,0.281924,0.508702,-0.039389,47,280,591,6016
1644178801.562762,-0.007324,0.009888,-0.991943,0.144519,0.325496,-0.130992,46,279,587,6016
1644178801.611139,-0.008057,0.008667,-0.991394,0.175053,0.417099,-0.069924,48,291,597,6048
1644178801.659538,-0.010254,0.009705,-0.992065,0.144519,0.417099,-0.161527,52,273,589,6000
1644178801.707908,-0.006226,0.010437,-0.992004,0.205588,0.264427,-0.085191,48,283,580,5984
1644178801.756289,-0.008423,0.011414,-0.993164,0.281924,0.417099,-0.207328,39,281,592,6000
1644178801.804704,-0.007568,0.008972,-0.99292,0.159786,0.432366,-0.024122,49,275,584,6000
1644178801.854953,-0.011292,0.01001,-0.990723,0.388794,0.294962,-0.222595,36,283,583,6016
1644178801.904959,-0.00885,0.012756,-0.991943,0.35826,0.417099,-0.161527,34,274,587,5984
1644178801.955338,-0.008728,0.00885,-0.990234,0.297191,0.508702,-0.085191,52,290,579,6000
1644178802.060734,-0.008301,0.008484,-0.990479,0.190321,0.493435,-0.085191,41,281,583,5984
1644178802.102359,-0.010132,0.010254,-0.989685,0.220855,0.356031,-0.14626,55,286,583,6080
1644178802.143502,-0.011475,0.008728,-0.992126,0.251389,0.417099,-0.14626,52,277,575,6000
1644178802.191864,-0.008179,0.008301,-0.990173,0.159786,0.401832,-0.039389,59,285,586,6016
1644178802.240247,-0.009094,0.008362,-0.992065,0.190321,0.294962,-0.054656,41,281,594,6000
1644178802.288624,-0.009094,0.010498,-0.992004,0.159786,0.447634,-0.069924,52,273,591,6000
1644178802.337015,-0.008423,0.009094,-0.991272,0.312458,0.447634,-0.130992,53,283,585,6016
1644178802.385427,-0.00885,0.008606,-0.992493,0.175053,0.325496,-0.161527,52,277,579,5984
1644178802.433925,-0.010986,0.008728,-0.994934,0.251389,0.340763,-0.115725,42,285,586,6048
1644178802.482829,-0.010986,0.008118,-0.989685,0.175053,0.356031,-0.130992,52,282,596,6064
1644178802.533263,-0.010376,0.010925,-0.992249,0.175053,0.325496,-0.237863,49,275,584,6016
1644178802.583551,-0.011536,0.010071,-0.993347,0.098718,0.417099,-0.130992,43,279,578,6048
1644178802.628708,-0.009155,0.010498,-0.99231,0.175053,0.432366,-0.222595,47,273,582,5952
1644178802.724167,-0.009888,0.010071,-0.990723,0.175053,0.462901,-0.069924,49,285,593,5984
1644178802.772559,-0.005676,0.010498,-0.993042,0.113985,0.432366,-0.069924,45,290,575,5984
1644178802.820929,-0.007996,0.009277,-0.990723,0.266656,0.279695,-0.069924,55,276,585,6016
1644178802.869347,-0.008423,0.010864,-0.992859,0.297191,0.371298,-0.237863,52,268,589,6080
1644178802.917758,-0.010193,0.009827,-0.989746,0.068183,0.478168,-0.207328,43,271,578,6048
1644178802.966125,-0.007141,0.006531,-0.989746,0.312458,0.447634,-0.268397,48,266,599,6080
1644178803.01455,-0.009888,0.008911,-0.990601,0.251389,0.401832,-0.237863,57,277,584,6000
1644178803.06779,-0.007629,0.010437,-0.993652,0.098718,0.508702,-0.14626,59,275,586,6016
1644178803.111326,-0.007202,0.009155,-0.993103,0.281924,0.371298,0.006412,43,279,592,5984
1644178803.15971,-0.009216,0.007812,-0.990479,0.159786,0.478168,-0.085191,51,276,590,6080
1644178803.208081,-0.008362,0.006592,-0.993042,0.190321,0.386565,-0.207328,48,281,590,6000
1644178803.256463,-0.010437,0.009399,-0.992554,0.236122,0.325496,-0.054656,52,275,584,6016
1644178803.304854,-0.010498,0.010925,-0.992615,0.342992,0.340763,-0.024122,51,269,592,6016
1644178803.35327,-0.009277,0.008789,-0.992249,0.08345,0.523969,-0.115725,45,280,586,6000
1644178803.40165,-0.009766,0.011292,-0.993042,0.205588,0.417099,-0.024122,45,273,582,6080
1644178803.45004,-0.007141,0.008789,-0.992676,0.297191,0.325496,-0.207328,43,276,580,5952
1644178803.498416,-0.011047,0.011902,-0.991272,0.236122,0.310229,-0.161527,40,280,593,5984
1644178803.546832,-0.01062,0.008667,-0.992554,0.144519,0.523969,-0.130992,55,279,578,5952
1644178803.595479,-0.00885,0.010376,-0.993896,0.190321,0.432366,-0.100458,45,270,586,6048
1644178803.644013,-0.010437,0.008423,-0.992188,0.434595,0.279695,-0.192061,47,277,586,6080
1644178803.694114,-0.009277,0.008911,-0.994385,0.251389,0.310229,-0.024122,48,276,578,6064
1644178803.744309,-0.00824,0.008972,-0.993286,0.220855,0.447634,-0.039389,36,276,592,6016
1644178803.789494,-0.010803,0.01239,-0.990967,0.129252,0.310229,-0.14626,51,286,585,6016
1644178803.885591,-0.009155,0.009277,-0.991455,0.281924,0.401832,-0.176794,49,280,584,6016
1644178803.934016,-0.009033,0.010986,-0.988098,0.342992,0.386565,-0.024122,59,273,586,6016
1644178803.982432,-0.007629,0.010681,-0.991943,0.175053,0.401832,-0.14626,45,280,582,6016
1644178804.030784,-0.012451,0.008911,-0.991577,0.175053,0.417099,-0.100458,47,280,584,6048
1644178804.079262,-0.011292,0.00885,-0.992004,0.08345,0.539237,0.006412,57,280,577,5952
1644178804.127577,-0.007141,0.010681,-0.991089,0.220855,0.386565,-0.054656,57,270,582,6064
1644178804.176506,-0.010254,0.008606,-0.993835,0.098718,0.508702,-0.054656,40,275,577,6048
1644178804.22434,-0.009949,0.009644,-0.991577,0.129252,0.371298,-0.069924,41,276,587,6016
1644178804.272754,-0.010986,0.007935,-0.99054,0.129252,0.417099,-0.237863,49,282,589,5984
1644178804.321114,-0.006897,0.008728,-0.991577,0.327725,0.417099,-0.100458,48,286,590,5984
1644178804.369525,-0.008423,0.010132,-0.988708,0.022382,0.340763,-0.008855,51,274,585,6000
1644178804.417916,-0.00885,0.008911,-0.992676,0.159786,0.386565,-0.161527,47,277,584,5984
1644178804.466313,-0.010559,0.013245,-0.989929,0.068183,0.325496,-0.054656,54,280,593,6000
1644178804.514777,-0.008728,0.00946,-0.991516,0.190321,0.340763,-0.024122,46,279,587,6080
1644178804.563121,-0.008301,0.009827,-0.992432,0.297191,0.401832,-0.039389,43,279,578,6016
1644178804.61149,-0.008667,0.007629,-0.992981,0.159786,0.310229,-0.207328,49,275,589,6016
1644178804.659878,-0.008423,0.011597,-0.994324,0.266656,0.523969,-0.130992,53,264,578,6080
1644178804.708612,-0.008728,0.010864,-0.991394,0.098718,0.386565,-0.192061,43,276,587,6016
1644178804.756672,-0.011475,0.010132,-0.990295,0.281924,0.401832,-0.054656,54,275,593,5984
1644178804.807157,-0.007996,0.008545,-0.990356,0.052916,0.340763,-0.176794,49,280,584,6064
1644178804.857216,-0.009949,0.013245,-0.991089,0.08345,0.417099,-0.314198,52,280,586,6000
1644178804.907373,-0.008728,0.008484,-0.989441,0.190321,0.401832,-0.008855,61,277,584,6080
1644178804.951766,-0.009155,0.013611,-0.990662,0.327725,0.508702,-0.100458,54,285,575,6016
1644178805.059346,-0.012878,0.007629,-0.992249,0.190321,0.432366,-0.192061,48,276,587,6016
1644178805.096726,-0.009521,0.00946,-0.991272,0.08345,0.432366,-0.100458,47,282,584,5952
1644178805.14375,-0.007324,0.011719,-0.992004,0.312458,0.294962,-0.054656,43,283,587,6016
1644178805.192237,-0.007935,0.009277,-0.990784,0.190321,0.356031,-0.069924,53,286,576,5904
1644178805.240537,-0.007996,0.011475,-0.992126,0.08345,0.386565,-0.283664,46,271,583,6000
1644178805.288974,-0.008484,0.009949,-0.994019,0.129252,0.386565,-0.085191,51,276,587,6064
1644178805.337335,-0.007263,0.007751,-0.988831,0.205588,0.432366,-0.039389,60,271,590,6080
1644178805.385726,-0.010254,0.008728,-0.992676,0.220855,0.462901,-0.100458,52,270,582,6016
1644178805.434112,-0.008972,0.00946,-0.990845,0.373527,0.386565,-0.100458,46,291,585,6016
1644178805.482527,-0.007324,0.010315,-0.991028,0.205588,0.294962,-0.14626,52,282,582,6016
1644178805.530906,-0.00885,0.009521,-0.990601,0.205588,0.386565,-0.054656,52,275,593,5952
1644178805.579555,-0.007935,0.00946,-0.99115,0.297191,0.356031,-0.115725,47,280,586,6000
1644178805.629857,-0.008545,0.011719,-0.991516,0.175053,0.462901,-0.115725,47,280,584,6000
1644178805.680488,-0.008972,0.007812,-0.993103,0.266656,0.417099,-0.069924,45,275,584,6016
1644178805.725357,-0.009827,0.011292,-0.990662,0.373527,0.188092,-0.14626,48,279,580,6000
1644178805.821272,-0.011414,0.008545,-0.992676,0.220855,0.24916,0.052214,51,283,592,6048
1644178805.869665,-0.004395,0.007019,-0.989868,0.159786,0.493435,-0.161527,54,280,584,6016
1644178805.918045,-0.008301,0.007996,-0.992798,0.297191,0.508702,-0.161527,51,283,578,6016
1644178805.966464,-0.009338,0.009338,-0.99353,0.220855,0.325496,0.036947,54,277,586,6000
1644178806.014848,-0.008911,0.009216,-0.989807,0.190321,0.493435,-0.100458,57,280,586,5984
1644178806.063352,-0.00946,0.007507,-0.990356,0.404061,0.432366,0.006412,49,282,586,6080
1644178806.111619,-0.007507,0.012268,-0.98999,0.129252,0.417099,-0.100458,46,271,580,6048
1644178806.159996,-0.00769,0.011658,-0.991394,0.220855,0.356031,-0.161527,46,291,587,6000
1644178806.208378,-0.00769,0.010437,-0.991394,0.144519,0.585038,-0.069924,46,283,587,6016
1644178806.25679,-0.00885,0.010132,-0.99054,0.236122,0.386565,0.021679,43,281,587,6000
1644178806.305265,-0.007874,0.006775,-0.992065,0.312458,0.371298,-0.024122,54,277,572,6000
1644178806.35359,-0.01062,0.010376,-0.993713,0.236122,0.539237,-0.115725,52,273,586,6064
1644178806.401962,-0.007507,0.011414,-0.989502,0.342992,0.432366,-0.25313,46,283,580,6080
1644178806.450354,-0.008911,0.010559,-0.992981,0.007115,0.310229,-0.100458,48,279,587,6016
1644178806.498756,-0.009521,0.010193,-0.992188,0.220855,0.417099,-0.222595,45,273,598,5904
1644178806.547136,-0.008667,0.010376,-0.990723,0.251389,0.24916,-0.237863,48,283,594,6016
1644178806.595534,-0.010132,0.007996,-0.991333,0.113985,0.356031,-0.085191,53,276,590,6000
1644178806.643918,-0.007629,0.011108,-0.991882,0.388794,0.386565,-0.100458,48,283,590,6064
1644178806.692366,-0.009521,0.009949,-0.99176,0.327725,0.325496,-0.14626,47,277,591,6000
1644178806.74231,-0.008301,0.010193,-0.991821,0.281924,0.432366,-0.085191,51,274,583,5984
1644178806.792579,-0.008118,0.010193,-0.992004,0.236122,0.356031,-0.268397,52,275,593,6016
1644178806.838658,-0.009277,0.00946,-0.994141,0.144519,0.417099,-0.054656,39,281,578,6016
1644178806.93436,-0.007935,0.010132,-0.989563,0.144519,0.432366,-0.054656,53,286,583,6080
1644178806.982723,-0.007996,0.009216,-0.992371,0.266656,0.371298,-0.14626,41,281,580,6064
1644178807.031075,-0.008179,0.007935,-0.990173,0.220855,0.462901,0.174351,51,274,587,6016
1644178807.07962,-0.007568,0.008972,-0.992615,0.144519,0.264427,-0.25313,45,282,584,5984
1644178807.127851,-0.01178,0.012268,-0.991089,0.251389,0.356031,-0.069924,53,266,583,6016
1644178807.176219,-0.010071,0.009827,-0.991333,0.113985,0.325496,-0.161527,48,274,585,6048
1644178807.22463,-0.009277,0.010681,-0.994873,0.190321,0.356031,-0.054656,36,288,585,6048
1644178807.273008,-0.008423,0.008484,-0.990906,0.098718,0.371298,0.021679,49,280,584,5984
1644178807.321418,-0.007996,0.010925,-0.992676,0.190321,0.478168,-0.14626,48,276,587,6080
1644178807.369803,-0.00708,0.011597,-0.990112,0.251389,0.493435,-0.176794,41,279,583,6000
1644178807.418192,-0.009399,0.009766,-0.991455,0.342992,0.432366,0.098015,52,280,589,6000
1644178807.466594,-0.01001,0.010498,-0.99115,0.129252,0.417099,-0.115725,41,274,583,6080
1644178807.51523,-0.005432,0.008911,-0.992859,0.037649,0.157557,-0.024122,57,277,584,6064
1644178807.563395,-0.010193,0.010742,-0.991394,0.159786,0.417099,-0.100458,53,283,573,6016
1644178807.611761,-0.006897,0.010376,-0.989807,0.297191,0.340763,-0.100458,49,273,586,6016
1644178807.660153,-0.008362,0.009277,-0.992737,0.220855,0.401832,-0.008855,49,285,586,6016
1644178807.708545,-0.010925,0.009766,-0.989502,0.205588,0.386565,-0.039389,54,277,589,6080
1644178807.756905,-0.006226,0.01001,-0.991577,0.190321,0.264427,-0.085191,51,271,594,6016
1644178807.805322,-0.010681,0.00769,-0.993347,0.251389,0.340763,-0.039389,49,268,582,6016
1644178807.853854,-0.00885,0.012939,-0.988464,0.205588,0.508702,-0.069924,49,277,586,5984
1644178807.904972,-0.007385,0.008484,-0.991394,0.205588,0.310229,-0.161527,46,283,590,6016
1644178807.955449,-0.009827,0.00647,-0.992554,-0.008153,0.279695,0.006412,40,282,593,6000
1644178807.999914,-0.007385,0.009216,-0.991638,0.266656,0.356031,-0.085191,52,270,584,6016
1644178808.098381,-0.010132,0.010498,-0.991943,0.113985,0.417099,-0.085191,51,281,578,5984
1644178808.144111,-0.01123,0.009277,-0.991943,0.251389,0.371298,-0.161527,58,269,578,6048
1644178808.192462,-0.008667,0.011414,-0.990723,0.190321,0.356031,-0.268397,48,271,578,6016
1644178808.240855,-0.010681,0.008301,-0.993103,0.190321,0.310229,-0.069924,58,279,578,6016
1644178808.289231,-0.009094,0.008972,-0.991943,0.251389,0.401832,-0.14626,45,273,579,6016
1644178808.337648,-0.009644,0.009766,-0.991211,0.251389,0.356031,-0.14626,48,271,580,6000
1644178808.386042,-0.009155,0.007996,-0.991211,0.175053,0.493435,0.036947,52,280,579,6016
1644178808.434442,-0.009399,0.006592,-0.990662,0.068183,0.569771,-0.085191,54,290,582,5952
1644178808.482839,-0.010803,0.012451,-0.991394,0.205588,0.356031,-0.115725,52,275,582,5984
1644178808.531217,-0.009949,0.009888,-0.994141,0.327725,0.401832,-0.054656,59,268,591,6016
1644178808.579599,-0.008667,0.00824,-0.991638,0.281924,0.432366,-0.039389,46,269,599,6048
1644178808.627992,-0.009094,0.007385,-0.991333,0.175053,0.401832,-0.161527,55,271,590,6080
1644178808.67639,-0.009338,0.010071,-0.992859,0.327725,0.356031,-0.100458,47,277,586,6016
1644178808.724784,-0.009277,0.010437,-0.993225,0.175053,0.432366,0.006412,57,275,596,6016
1644178808.773187,-0.005676,0.006958,-0.992554,0.205588,0.294962,-0.054656,49,277,589,5984
1644178808.821582,-0.008606,0.00885,-0.993286,0.144519,0.386565,-0.222595,35,277,586,6048
1644178808.870644,-0.010864,0.006775,-0.991882,0.220855,0.386565,-0.100458,57,273,589,6064
1644178808.921114,-0.012146,0.010864,-0.993103,0.312458,0.493435,-0.069924,47,277,589,6080
1644178808.972292,-0.008301,0.012085,-0.993408,0.297191,0.356031,-0.054656,52,282,589,6016
1644178809.016222,-0.008972,0.009399,-0.992432,0.190321,0.462901,-0.100458,45,273,589,5984
1644178809.111912,-0.00824,0.008972,-0.992432,0.281924,0.356031,-0.192061,48,276,592,5984
1644178809.160325,-0.007507,0.011902,-0.990112,0.007115,0.478168,-0.161527,48,279,578,6000
1644178809.208697,-0.006165,0.006897,-0.994873,0.404061,0.493435,-0.100458,47,277,589,6080
1644178809.257109,-0.007446,0.010498,-0.992798,0.159786,0.462901,0.006412,47,282,584,6016
1644178809.305483,-0.008972,0.010376,-0.992249,0.266656,0.417099,-0.268397,52,265,586,6048
1644178809.353879,-0.010376,0.011841,-0.992798,0.373527,0.462901,-0.039389,42,277,591,6064
1644178809.402282,-0.007996,0.008667,-0.992126,0.312458,0.462901,-0.176794,47,280,582,6016
1644178809.450666,-0.009033,0.007263,-0.993164,0.281924,0.417099,-0.14626,47,277,572,6048
1644178809.499035,-0.009766,0.00647,-0.991394,0.266656,0.386565,-0.069924,47,285,577,6080
1644178809.547428,-0.005554,0.011169,-0.992615,0.022382,0.432366,-0.054656,51,286,587,6000
1644178809.596214,-0.009827,0.009521,-0.993469,0.327725,0.432366,-0.176794,55,279,585,5952
1644178809.644224,-0.006897,0.011658,-0.991577,0.251389,0.356031,-0.100458,49,270,582,5984
1644178809.692638,-0.009399,0.009888,-0.990784,0.220855,0.447634,-0.054656,48,276,587,6016
1644178809.741014,-0.009583,0.009827,-0.994507,0.236122,0.325496,-0.207328,47,273,589,6000
1644178809.789401,-0.011597,0.010254,-0.992065,0.144519,0.371298,-0.314198,47,282,582,6000
1644178809.83777,-0.008728,0.009644,-0.992981,0.159786,0.371298,-0.207328,48,276,585,5984
1644178809.886236,-0.007202,0.005493,-0.993896,0.068183,0.371298,-0.024122,45,282,596,6000
1644178809.934667,-0.00769,0.010498,-0.99292,0.266656,0.401832,-0.161527,52,282,584,6016
1644178809.983041,-0.010071,0.008911,-0.991882,0.342992,0.447634,-0.039389,48,271,587,5984
1644178810.033207,-0.008118,0.010254,-0.988831,0.144519,0.356031,-0.054656,52,282,579,5952
1644178810.083275,-0.009338,0.010498,-0.993652,0.175053,0.447634,-0.054656,57,277,582,5984
1644178810.132611,-0.011169,0.01062,-0.991089,0.113985,0.310229,-0.14626,54,280,586,6016
1644178810.177624,-0.008972,0.00946,-0.990601,0.297191,0.478168,-0.130992,48,271,585,6080
1644178810.273343,-0.00946,0.008057,-0.992249,0.175053,0.203359,-0.039389,61,277,586,5952
1644178810.321713,-0.01001,0.010742,-0.992126,0.220855,0.478168,-0.192061,51,276,580,5984
1644178810.370103,-0.009949,0.009705,-0.992859,0.08345,0.218626,-0.130992,58,276,590,6000
1644178810.418505,-0.008972,0.009521,-0.994629,0.190321,0.294962,-0.100458,51,274,592,6048
1644178810.466906,-0.008301,0.00946,-0.993103,0.281924,0.417099,-0.192061,43,269,580,6016
1644178810.515291,-0.010132,0.007324,-0.989502,0.342992,0.325496,-0.100458,51,271,587,6016
1644178810.563693,-0.008911,0.007935,-0.99231,0.220855,0.523969,-0.039389,42,280,586,6048
1644178810.612061,-0.012268,0.010864,-0.992126,0.144519,0.417099,0.006412,41,283,587,6000
1644178810.66047,-0.008118,0.008667,-0.993164,0.281924,0.340763,-0.039389,46,276,590,6048
1644178810.70886,-0.006348,0.010864,-0.990234,0.236122,0.371298,0.098015,49,280,596,6016
1644178810.757253,-0.008301,0.010925,-0.989868,0.266656,0.294962,-0.054656,55,281,578,6000
1644178810.805661,-0.006348,0.011719,-0.988831,0.373527,0.340763,-0.024122,46,281,587,6048
1644178810.854089,-0.00824,0.012817,-0.992065,0.327725,0.294962,-0.085191,47,275,586,6064
1644178810.902489,-0.008667,0.01001,-0.993164,0.205588,0.523969,-0.222595,54,270,586,6048
1644178810.950863,-0.006897,0.00592,-0.9953,0.236122,0.417099,-0.039389,53,271,583,5984
1644178810.999232,-0.007935,0.009399,-0.992615,0.144519,0.432366,-0.192061,49,268,589,6000
1644178811.06513,-0.007141,0.010559,-0.993347,0.220855,0.294962,-0.192061,47,277,593,6048
1644178811.10126,-0.007935,0.011414,-0.99115,0.190321,0.386565,-0.176794,51,274,597,5984
1644178811.146456,-0.008118,0.007629,-0.99054,0.08345,0.340763,-0.161527,58,279,578,6016
1644178811.192816,-0.008423,0.008911,-0.98877,0.449863,0.493435,-0.161527,60,276,583,6016
1644178811.243264,-0.006714,0.010315,-0.989685,0.404061,0.340763,-0.130992,58,279,592,6080
1644178811.293633,-0.005737,0.011292,-0.99115,0.190321,0.356031,0.006412,51,274,580,5952
1644178811.33864,-0.007263,0.013367,-0.990051,0.373527,0.447634,-0.039389,43,279,571,6000
1644178811.434878,-0.008423,0.011719,-0.993042,0.08345,0.188092,-0.115725,46,269,590,5984
1644178811.48313,-0.011414,0.010986,-0.99054,0.068183,0.294962,-0.14626,51,271,597,6016
1644178811.531504,-0.005249,0.010315,-0.992737,0.251389,0.478168,-0.100458,55,281,580,5984
1644178811.579903,-0.010864,0.010315,-0.993591,0.251389,0.371298,-0.069924,48,276,585,6048
1644178811.6283,-0.011108,0.010376,-0.992004,0.342992,0.310229,-0.14626,53,286,592,6016
1644178811.676687,-0.011719,0.008667,-0.992004,0.281924,0.447634,0.036947,42,277,591,6048
1644178811.72512,-0.010132,0.009644,-0.991211,0.281924,0.417099,-0.008855,52,280,584,6016
1644178811.773499,-0.009888,0.009766,-0.993103,0.052916,0.417099,-0.039389,54,273,591,6048
1644178811.821933,-0.006592,0.01178,-0.992249,0.251389,0.24916,-0.024122,53,266,583,5984
1644178811.870307,-0.008179,0.010742,-0.992371,0.068183,0.340763,0.082748,47,275,589,6016
1644178811.918704,-0.012207,0.010315,-0.991333,0.098718,0.233893,-0.085191,47,275,589,5984
1644178811.967091,-0.01001,0.010254,-0.994263,0.175053,0.264427,-0.024122,53,279,592,6080
1644178812.015469,-0.009216,0.010132,-0.991943,0.220855,0.371298,-0.176794,53,283,585,6080
1644178812.069234,-0.009521,0.007874,-0.993103,0.159786,0.340763,-0.115725,47,277,591,6000
1644178812.112262,-0.009521,0.006958,-0.99115,0.144519,0.356031,-0.039389,53,269,587,6016
1644178812.16062,-0.010498,0.008972,-0.989624,0.205588,0.386565,-0.14626,46,274,594,6080
1644178812.209017,-0.011414,0.008423,-0.991638,0.098718,0.478168,-0.054656,38,275,579,6080
1644178812.257381,-0.007996,0.012024,-0.99353,0.236122,0.264427,-0.161527,52,265,589,6080
1644178812.305813,-0.010559,0.010193,-0.990417,0.312458,0.371298,-0.085191,48,283,594,5984
1644178812.35429,-0.009827,0.009155,-0.989502,0.236122,0.462901,-0.100458,42,280,575,5984
1644178812.404789,-0.007385,0.006897,-0.989807,0.190321,0.508702,-0.039389,57,277,584,5984
1644178812.454989,-0.007263,0.011292,-0.990234,0.419328,0.294962,-0.054656,46,276,585,5952
1644178812.500123,-0.010315,0.00885,-0.993347,0.159786,0.447634,-0.14626,40,273,586,6000
1644178812.596142,-0.006409,0.012024,-0.991821,0.281924,0.386565,-0.130992,52,277,575,6080
1644178812.644536,-0.008972,0.010681,-0.992981,0.205588,0.264427,-0.008855,49,275,584,6016
1644178812.692945,-0.007812,0.009583,-0.992615,0.266656,0.401832,-0.008855,43,271,597,6016
1644178812.741319,-0.007751,0.007874,-0.991028,0.144519,0.462901,0.021679,43,271,578,5984
1644178812.789711,-0.00708,0.00885,-0.992798,0.190321,0.432366,-0.207328,46,283,580,5984
1644178812.838144,-0.009033,0.009033,-0.99054,0.144519,0.523969,-0.024122,40,277,589,6016
1644178812.886541,-0.008423,0.009155,-0.989624,0.480397,0.462901,-0.161527,47,277,579,5952
1644178812.934946,-0.009766,0.01001,-0.991943,0.220855,0.386565,-0.14626,53,271,592,6016
1644178812.983323,-0.007446,0.009277,-0.99176,0.129252,0.310229,0.052214,39,276,587,6080
1644178813.031704,-0.010132,0.007568,-0.993958,0.373527,0.340763,-0.207328,48,281,583,6048
1644178813.081346,-0.007751,0.011108,-0.993286,0.205588,0.432366,-0.024122,54,290,591,5984
1644178813.128423,-0.007141,0.01062,-0.989441,0.144519,0.310229,-0.069924,48,276,576,5952
1644178813.176858,-0.007812,0.009705,-0.992493,0.342992,0.554504,-0.314198,53,274,583,6048
1644178813.225248,-0.012329,0.01062,-0.993652,0.266656,0.523969,-0.192061,51,279,592,5984
1644178813.273667,-0.008728,0.005798,-0.991577,0.175053,0.356031,-0.130992,57,277,579,5984
1644178813.323873,-0.008972,0.009033,-0.993408,0.190321,0.478168,-0.268397,51,279,585,6016
1644178813.374192,-0.005737,0.007629,-0.990662,0.205588,0.340763,-0.14626,54,277,579,6000
1644178813.419362,-0.009277,0.009644,-0.993591,0.113985,0.386565,-0.176794,42,268,586,6016
1644178813.515576,-0.008362,0.009399,-0.993591,0.312458,0.325496,-0.115725,47,277,586,6080
1644178813.563998,-0.00946,0.00708,-0.992432,0.220855,0.386565,-0.130992,39,283,578,6016
1644178813.612402,-0.009705,0.012024,-0.99408,0.205588,0.523969,-0.100458,45,270,579,6112
1644178813.660757,-0.010986,0.008728,-0.988525,0.175053,0.417099,-0.085191,47,277,572,5936
1644178813.70917,-0.009033,0.008667,-0.992798,0.251389,0.432366,-0.039389,47,273,586,6048
1644178813.757533,-0.009216,0.009766,-0.992126,0.281924,0.447634,0.021679,54,280,584,6048
1644178813.805954,-0.008118,0.011414,-0.992126,0.190321,0.371298,-0.25313,53,274,580,6000
1644178813.85439,-0.007751,0.010132,-0.988708,0.205588,0.417099,-0.268397,54,285,579,6048
1644178813.9028,-0.006836,0.008484,-0.991516,0.205588,0.401832,-0.054656,54,277,577,6064
1644178813.951159,-0.010254,0.007629,-0.991638,0.236122,0.447634,-0.085191,46,271,578,6016
1644178813.999524,-0.008911,0.007996,-0.992798,0.022382,0.417099,-0.085191,49,277,591,6080
1644178814.066289,-0.00769,0.007874,-0.992065,0.297191,0.386565,-0.024122,57,273,586,6016
1644178814.098722,-0.008606,0.008545,-0.99176,0.08345,0.539237,0.006412,58,266,587,6016
1644178814.14472,-0.009277,0.008423,-0.994568,0.129252,0.447634,-0.207328,46,281,580,6080
1644178814.193102,-0.01001,0.008057,-0.992432,0.205588,0.401832,-0.25313,48,271,578,6016
1644178814.241495,-0.009277,0.007751,-0.990356,0.251389,0.356031,-0.192061,54,280,586,6048
1644178814.28987,-0.010742,0.009949,-0.988342,0.251389,0.401832,-0.085191,48,274,587,6064
1644178814.338262,-0.006897,0.012329,-0.990906,0.342992,0.447634,-0.100458,55,279,585,6016
1644178814.386652,-0.009338,0.009277,-0.994385,0.068183,0.554504,-0.283664,47,275,586,5952
1644178814.43575,-0.010254,0.010315,-0.993286,0.251389,0.554504,-0.069924,48,276,578,5984
1644178814.48643,-0.008301,0.006348,-0.992737,0.129252,0.462901,-0.039389,49,277,593,6016
1644178814.536782,-0.006897,0.013733,-0.994507,0.175053,0.371298,-0.024122,41,281,590,6080
1644178814.581505,-0.010132,0.007568,-0.991943,0.266656,0.417099,-0.161527,46,281,576,6016
1644178814.676999,-0.009705,0.009338,-0.989319,0.190321,0.340763,-0.024122,48,274,583,6048
1644178814.725408,-0.009338,0.00708,-0.991882,0.236122,0.371298,0.113282,43,279,587,6048
1644178814.773803,-0.010803,0.011475,-0.990845,0.205588,0.340763,-0.161527,46,279,592,5952
1644178814.822388,-0.009216,0.010254,-0.990784,0.205588,0.523969,-0.192061,55,269,578,6048
1644178814.870617,-0.008789,0.009705,-0.99292,0.388794,0.493435,-0.176794,47,282,579,5984
1644178814.919015,-0.010803,0.011292,-0.992249,0.129252,0.325496,-0.176794,53,269,587,5952
1644178814.967396,-0.007568,0.012329,-0.990295,0.236122,0.356031,-0.100458,40,285,584,5984
1644178815.015798,-0.00647,0.009155,-0.990662,0.007115,0.325496,-0.14626,42,280,589,6000
1644178815.065676,-0.010498,0.009399,-0.991699,0.175053,0.417099,-0.161527,51,279,587,5984
1644178815.112629,-0.010986,0.008911,-0.994324,0.266656,0.478168,-0.100458,46,279,594,5936
1644178815.160937,-0.007812,0.008057,-0.990662,0.220855,0.523969,0.174351,53,279,587,6064
1644178815.209327,-0.008911,0.012451,-0.991516,0.388794,0.371298,-0.054656,54,282,584,6000
1644178815.25769,-0.013367,0.010864,-0.993347,0.404061,0.325496,-0.024122,49,277,577,5984
1644178815.30611,-0.010864,0.009888,-0.991211,0.175053,0.356031,-0.14626,51,283,585,6080
1644178815.354485,-0.008301,0.007629,-0.990906,0.037649,0.432366,0.006412,43,283,585,6048
1644178815.402908,-0.008789,0.011047,-0.990723,0.251389,0.340763,-0.085191,54,273,593,6064
1644178815.451273,-0.007812,0.00824,-0.987549,0.419328,0.264427,-0.069924,45,275,589,6048
1644178815.499644,-0.007568,0.012085,-0.99292,0.205588,0.356031,-0.024122,46,271,585,5984
1644178815.548349,-0.007446,0.010742,-0.99292,0.205588,0.310229,-0.25313,53,279,583,6064
1644178815.597702,-0.006958,0.00885,-0.991211,0.236122,0.432366,-0.192061,48,276,592,6000
1644178815.648113,-0.01178,0.010803,-0.990234,0.281924,0.462901,-0.054656,52,275,579,5984
1644178815.698362,-0.009094,0.009033,-0.993958,0.236122,0.432366,-0.237863,54,280,589,6048
1644178815.790019,-0.010742,0.00708,-0.989868,0.251389,0.310229,0.006412,43,283,590,6048
1644178815.838409,-0.010071,0.011414,-0.991516,0.144519,0.356031,-0.192061,51,269,590,6048
1644178815.886842,-0.01001,0.011169,-0.991028,0.434595,0.371298,-0.085191,53,279,585,6048
1644178815.935234,-0.012146,0.011169,-0.992249,0.388794,0.432366,-0.14626,49,275,589,6048
1644178815.983633,-0.009949,0.012573,-0.991089,0.113985,0.401832,-0.054656,47,277,582,6016
1644178816.032036,-0.009094,0.009705,-0.991821,0.266656,0.432366,-0.314198,51,274,580,6048
1644178816.085247,-0.008911,0.009644,-0.990356,0.266656,0.432366,-0.069924,55,271,594,6048
1644178816.128792,-0.008484,0.010681,-0.991699,0.449863,0.340763,0.052214,59,277,589,6080
1644178816.177173,-0.009583,0.009216,-0.989868,0.35826,0.554504,-0.14626,42,270,589,6000
1644178816.225558,-0.006287,0.008545,-0.991943,0.205588,0.24916,0.006412,41,276,578,6080
1644178816.273937,-0.008606,0.011414,-0.990662,0.266656,0.386565,0.021679,53,274,594,6064
1644178816.322368,-0.00769,0.007568,-0.993286,0.190321,0.508702,-0.100458,52,273,582,5984
1644178816.370733,-0.004822,0.008301,-0.996094,0.281924,0.264427,-0.008855,43,286,578,6080
1644178816.419126,-0.009399,0.009705,-0.992004,0.312458,0.310229,-0.100458,52,273,593,5984
1644178816.467512,-0.007141,0.010315,-0.991821,0.175053,0.401832,-0.192061,57,280,582,6000
1644178816.515911,-0.008301,0.007812,-0.99292,0.190321,0.447634,0.098015,43,274,590,6016
1644178816.564309,-0.008118,0.010559,-0.992737,0.129252,0.203359,-0.115725,55,274,580,6016
1644178816.612707,-0.008972,0.009583,-0.991699,0.297191,0.432366,-0.130992,52,270,577,6064
1644178816.6611,-0.010803,0.009827,-0.99176,0.388794,0.310229,0.006412,45,277,593,6080
1644178816.710216,-0.009705,0.008606,-0.990295,0.052916,0.478168,-0.14626,46,274,585,6016
1644178816.760851,-0.012817,0.006531,-0.99176,0.190321,0.371298,-0.176794,42,270,586,6112
1644178816.811116,-0.008667,0.006897,-0.991516,0.159786,0.401832,-0.115725,51,276,576,6016
1644178816.856646,-0.01062,0.009216,-0.992554,0.190321,0.371298,-0.085191,47,275,584,6000
1644178816.951479,-0.006958,0.010986,-0.993042,0.266656,0.340763,-0.024122,53,283,585,6000
1644178816.999871,-0.008728,0.011475,-0.992065,0.266656,0.432366,-0.161527,40,275,572,6016
1644178817.061319,-0.009705,0.010986,-0.990601,0.190321,0.417099,-0.115725,51,279,587,5984
1644178817.099082,-0.00824,0.014221,-0.990845,0.281924,0.447634,-0.039389,47,275,584,6048
1644178817.145208,-0.00824,0.009827,-0.993591,0.205588,0.447634,0.021679,52,275,584,6016
1644178817.19343,-0.008118,0.008362,-0.99353,0.312458,0.310229,-0.008855,54,275,586,5952
1644178817.241805,-0.010925,0.007324,-0.993896,0.175053,0.310229,-0.054656,47,270,572,6016
1644178817.290195,-0.010559,0.007935,-0.990662,0.159786,0.462901,-0.069924,46,276,585,6000
1644178817.338583,-0.007507,0.009277,-0.991577,0.068183,0.325496,-0.161527,60,276,583,6048
1644178817.386968,-0.010681,0.009583,-0.991882,0.08345,0.447634,-0.130992,52,275,582,6016
1644178817.435362,-0.007507,0.009705,-0.991272,0.327725,0.325496,-0.069924,49,273,579,6000
1644178817.483746,-0.009338,0.010559,-0.992737,0.251389,0.340763,-0.161527,52,280,589,6000
1644178817.532267,-0.007446,0.006653,-0.992493,0.037649,0.493435,-0.024122,45,263,589,6048
1644178817.58055,-0.008972,0.010681,-0.991638,0.113985,0.386565,-0.25313,58,266,587,5984
1644178817.629135,-0.01062,0.008545,-0.991516,0.312458,0.310229,-0.069924,48,279,580,6080
1644178817.679495,-0.008118,0.012756,-0.991943,0.220855,0.401832,-0.085191,53,274,587,6048
1644178817.729874,-0.006653,0.009338,-0.988831,0.205588,0.279695,-0.100458,53,281,587,5904
1644178817.774818,-0.009583,0.010498,-0.990234,0.205588,0.371298,-0.039389,49,282,586,5984
1644178817.870883,-0.00824,0.009277,-0.992004,0.251389,0.417099,-0.14626,52,280,584,5936
1644178817.919308,-0.009094,0.011169,-0.993591,0.159786,0.371298,-0.085191,47,275,582,5984
1644178817.967702,-0.012451,0.010315,-0.993042,0.236122,0.386565,-0.161527,52,277,591,6048
1644178818.016094,-0.00824,0.010071,-0.992615,0.449863,0.401832,-0.298931,41,266,592,6000
1644178818.068698,-0.010315,0.007324,-0.991638,0.236122,0.356031,-0.115725,52,275,584,6000
1644178818.112896,-0.01001,0.006653,-0.991455,0.205588,0.340763,-0.085191,53,271,580,6016
1644178818.161251,-0.008057,0.011169,-0.991333,0.007115,0.371298,0.006412,66,275,584,6016
1644178818.209699,-0.008606,0.012207,-0.990051,0.190321,0.401832,0.006412,40,287,586,6064
1644178818.258065,-0.007019,0.009705,-0.991211,0.175053,0.447634,-0.130992,41,266,585,6016
1644178818.306439,-0.009705,0.011414,-0.990967,0.205588,0.371298,-0.130992,51,274,590,5936
1644178818.354847,-0.009094,0.012573,-0.993652,0.159786,0.478168,0.021679,42,280,579,6016
1644178818.403254,-0.010986,0.010376,-0.991577,0.46513,0.569771,-0.085191,47,282,600,6048
1644178818.451633,-0.010376,0.010132,-0.99292,0.236122,0.417099,-0.008855,54,265,591,6048
1644178818.500034,-0.010071,0.008728,-0.99231,0.144519,0.356031,-0.161527,51,276,583,6016
1644178818.548428,-0.008911,0.012817,-0.990112,0.190321,0.218626,-0.069924,52,282,584,6080
1644178818.596818,-0.009033,0.009155,-0.992126,0.159786,0.325496,-0.130992,55,281,590,5984
1644178818.6452,-0.00824,0.009277,-0.990356,0.205588,0.386565,-0.176794,45,273,596,6016
1644178818.693642,-0.008484,0.009094,-0.990662,0.113985,0.478168,-0.176794,45,277,596,5952
1644178818.742253,-0.011475,0.008423,-0.991455,0.144519,0.432366,-0.176794,35,275,593,6000
1644178818.792653,-0.009399,0.009705,-0.99054,0.175053,0.493435,-0.100458,49,270,589,6080
1644178818.843553,-0.010254,0.011292,-0.991089,0.266656,0.264427,-0.008855,55,274,587,6000
1644178818.887862,-0.011658,0.010803,-0.993713,0.297191,0.356031,-0.222595,48,279,590,5984
1644178818.98401,-0.010193,0.011353,-0.98999,0.419328,0.493435,-0.100458,46,264,573,5984
1644178819.032433,-0.009399,0.009338,-0.994446,0.205588,0.310229,-0.115725,49,282,575,6080
1644178819.080801,-0.007874,0.010376,-0.991089,0.144519,0.432366,-0.115725,55,266,590,6000
1644178819.129063,-0.00885,0.008057,-0.992432,0.251389,0.264427,-0.054656,43,286,583,6048
1644178819.177468,-0.008789,0.006226,-0.993774,0.236122,0.417099,-0.008855,43,286,590,6080
1644178819.225859,-0.010437,0.009216,-0.992676,0.159786,0.386565,-0.161527,53,266,580,6016
1644178819.274235,-0.009644,0.011658,-0.993286,0.236122,0.417099,-0.039389,45,280,584,6000
1644178819.322657,-0.009216,0.012268,-0.992676,0.236122,0.447634,-0.069924,54,263,579,5984
1644178819.371048,-0.009277,0.011353,-0.994324,0.08345,0.462901,-0.100458,52,275,579,6048
1644178819.419419,-0.00946,0.011292,-0.98999,0.190321,0.386565,-0.161527,46,274,587,6048
1644178819.46783,-0.009155,0.009583,-0.989563,0.113985,0.417099,-0.039389,41,281,580,6000
1644178819.516195,-0.007751,0.010376,-0.992676,0.312458,0.386565,-0.069924,51,266,576,5984
1644178819.5647,-0.010071,0.011719,-0.992126,0.342992,0.508702,-0.100458,40,292,577,6064
1644178819.613022,-0.01178,0.011169,-0.992249,0.312458,0.310229,-0.14626,46,281,585,5984
1644178819.661405,-0.008789,0.007935,-0.993408,0.175053,0.279695,-0.130992,57,273,586,6048
1644178819.709791,-0.009521,0.011169,-0.992371,0.220855,0.432366,-0.039389,47,270,582,5984
1644178819.758183,-0.009338,0.011169,-0.991577,0.220855,0.371298,-0.100458,53,276,590,6016
1644178819.806763,-0.010681,0.01001,-0.988159,0.190321,0.340763,-0.161527,58,283,585,6048
1644178819.855453,-0.009827,0.009399,-0.991211,0.205588,0.371298,-0.222595,59,273,591,5984
1644178819.905848,-0.009521,0.007446,-0.992676,0.205588,0.508702,-0.085191,42,275,589,6000
1644178819.956417,-0.007751,0.007935,-0.990601,0.266656,0.371298,-0.085191,51,276,583,5952
1644178820.000671,-0.00946,0.010193,-0.991943,0.098718,0.264427,-0.237863,48,274,573,6064
1644178820.097261,-0.012329,0.010193,-0.994263,0.190321,0.356031,-0.069924,47,277,586,6000
1644178820.145463,-0.008301,0.010132,-0.993225,0.098718,0.340763,-0.085191,47,282,577,6016
1644178820.193716,-0.006592,0.010498,-0.991272,0.419328,0.432366,-0.100458,47,273,584,6016
1644178820.242076,-0.009705,0.008179,-0.994019,0.144519,0.172824,-0.085191,55,269,585,6080
1644178820.290466,-0.00708,0.006714,-0.992188,0.113985,0.462901,-0.268397,52,280,577,6016
1644178820.338876,-0.007874,0.008972,-0.991882,0.205588,0.493435,-0.085191,49,273,584,5952
1644178820.387278,-0.009644,0.008667,-0.99231,0.190321,0.539237,-0.115725,48,283,583,5984
1644178820.435665,-0.011047,0.009644,-0.990417,0.159786,0.371298,-0.161527,47,277,593,6064
1644178820.484065,-0.008057,0.009033,-0.992065,0.236122,0.356031,-0.130992,47,265,586,6048
1644178820.532479,-0.010376,0.009949,-0.993774,0.327725,0.417099,-0.176794,53,281,587,6080
1644178820.580853,-0.010132,0.010681,-0.992432,0.312458,0.325496,-0.161527,52,280,589,5984
1644178820.629246,-0.008911,0.00946,-0.990845,0.098718,0.371298,-0.024122,53,274,587,6016
1644178820.677625,-0.009766,0.009949,-0.99115,0.35826,0.356031,-0.130992,55,276,583,6080
1644178820.726017,-0.007935,0.008789,-0.992188,0.281924,0.478168,-0.176794,55,279,585,6016
1644178820.774418,-0.007385,0.009583,-0.994019,0.342992,0.371298,-0.100458,51,279,578,6000
1644178820.822864,-0.010071,0.010437,-0.991577,0.327725,0.340763,-0.024122,39,274,592,6016
1644178820.871232,-0.012817,0.010986,-0.991882,0.251389,0.462901,0.067481,54,270,586,6016
1644178820.919646,-0.008606,0.006287,-0.990356,0.205588,0.310229,-0.176794,49,270,579,5984
1644178820.968288,-0.007935,0.008545,-0.992493,0.190321,0.371298,-0.039389,42,275,582,6016
1644178821.018795,-0.009827,0.011963,-0.993408,0.297191,0.447634,0.021679,42,277,586,6000
1644178821.113188,-0.01239,0.012939,-0.992737,0.068183,0.447634,0.006412,48,276,585,6048
1644178821.16154,-0.007202,0.010254,-0.99115,0.007115,0.478168,-0.069924,53,269,580,5984
1644178821.209947,-0.010498,0.011475,-0.992065,0.113985,0.279695,-0.008855,46,274,583,5984
1644178821.258319,-0.007385,0.007812,-0.991699,0.175053,0.386565,-0.054656,55,281,580,5984
1644178821.306701,-0.010254,0.009521,-0.995239,0.220855,0.386565,0.036947,49,275,582,6016
1644178821.355151,-0.007874,0.008728,-0.991089,0.190321,0.188092,-0.192061,41,276,576,6016
1644178821.403519,-0.006287,0.009521,-0.99231,0.175053,0.310229,0.098015,58,269,587,6016
1644178821.451915,-0.007385,0.01001,-0.994568,0.159786,0.432366,-0.100458,49,282,584,6016
1644178821.50028,-0.008789,0.008301,-0.992737,0.159786,0.310229,-0.069924,40,280,589,6000
1644178821.548694,-0.008545,0.010864,-0.99115,0.190321,0.386565,-0.192061,49,273,591,6048
1644178821.597079,-0.009949,0.009094,-0.990173,0.312458,0.310229,-0.207328,52,280,586,6016
1644178821.645478,-0.009033,0.009705,-0.988037,0.281924,0.371298,-0.222595,53,281,585,6048
1644178821.693881,-0.008179,0.00708,-0.992432,0.190321,0.554504,-0.054656,53,274,585,5952
1644178821.742254,-0.009033,0.008789,-0.991028,0.281924,0.279695,-0.14626,54,273,582,6016
1644178821.790647,-0.010437,0.010559,-0.98999,0.159786,0.401832,-0.237863,55,283,585,5984
1644178821.839059,-0.008423,0.009216,-0.991882,0.236122,0.478168,0.021679,48,274,583,6048
1644178821.887482,-0.00769,0.010132,-0.994507,0.205588,0.401832,-0.085191,46,283,590,6000
1644178821.936216,-0.010254,0.011047,-0.991577,0.297191,0.462901,-0.085191,52,287,582,6016
1644178821.984281,-0.00769,0.008484,-0.992554,0.373527,0.294962,-0.054656,51,281,576,5984
1644178822.034142,-0.008728,0.01062,-0.99353,0.236122,0.401832,-0.130992,36,276,590,6048
1644178822.094187,-0.011475,0.007812,-0.989868,0.297191,0.310229,-0.14626,49,273,579,6016
1644178822.134315,-0.008484,0.012085,-0.99115,0.052916,0.340763,-0.054656,51,266,585,6000
1644178822.178504,-0.007263,0.010742,-0.992432,0.281924,0.417099,-0.192061,47,294,579,6048
1644178822.274834,-0.006042,0.009033,-0.990112,0.266656,0.417099,-0.161527,52,277,582,6000
1644178822.322956,-0.01001,0.008545,-0.992615,0.113985,0.432366,0.006412,43,271,580,5984
1644178822.371336,-0.01001,0.008179,-0.991028,0.297191,0.401832,-0.207328,43,266,587,6064
1644178822.419744,-0.006348,0.008057,-0.992371,0.190321,0.340763,-0.161527,49,275,589,6016
1644178822.46814,-0.010681,0.008179,-0.990967,0.190321,0.417099,-0.085191,42,275,582,6016
1644178822.516533,-0.010376,0.007629,-0.990723,0.175053,0.478168,-0.14626,60,274,587,6016
1644178822.564966,-0.008728,0.007629,-0.990906,0.251389,0.432366,-0.115725,52,277,591,6000
1644178822.613323,-0.009155,0.009644,-0.995667,0.327725,0.432366,-0.054656,52,290,586,5952
1644178822.661721,-0.008118,0.011841,-0.99231,0.052916,0.493435,-0.115725,48,279,583,5952
1644178822.71008,-0.00885,0.009338,-0.990601,0.08345,0.417099,-0.085191,42,282,596,5952
1644178822.758485,-0.009399,0.010986,-0.993347,0.220855,0.310229,-0.192061,52,273,586,6048
1644178822.806887,-0.010254,0.008484,-0.994507,0.251389,0.417099,-0.237863,47,270,584,5952
1644178822.855314,-0.009033,0.010315,-0.991821,0.220855,0.417099,-0.268397,66,277,579,6048
1644178822.903718,-0.01001,0.011902,-0.991394,0.08345,0.432366,-0.222595,45,273,584,6080
1644178822.95216,-0.007446,0.010864,-0.991516,0.266656,0.340763,-0.024122,52,292,591,5984
1644178823.000454,-0.008301,0.00824,-0.991577,0.205588,0.447634,0.036947,55,274,590,6016
1644178823.066925,-0.010864,0.01001,-0.992188,0.251389,0.310229,-0.161527,49,273,584,6080
1644178823.100221,-0.010132,0.008057,-0.992737,0.236122,0.340763,-0.130992,43,279,597,5984
1644178823.147749,-0.009338,0.009521,-0.995544,0.098718,0.447634,-0.14626,46,276,585,5952
1644178823.196767,-0.009338,0.008667,-0.993103,0.388794,0.310229,-0.115725,53,269,583,6048
1644178823.246719,-0.009521,0.009338,-0.990601,-0.038687,0.386565,-0.237863,51,274,580,6048
1644178823.291839,-0.009705,0.008362,-0.993835,0.159786,0.340763,-0.207328,53,276,592,6016
1644178823.387579,-0.010376,0.010254,-0.991089,0.35826,0.294962,-0.115725,55,279,580,6080
1644178823.435964,-0.008423,0.00885,-0.991577,0.190321,0.356031,-0.130992,53,286,580,6080
1644178823.484838,-0.009094,0.009644,-0.989868,0.220855,0.279695,-0.024122,47,273,577,6080
1644178823.532779,-0.009827,0.011108,-0.991577,0.236122,0.417099,-0.283664,45,275,582,5952
1644178823.581166,-0.007202,0.009705,-0.993469,0.205588,0.325496,0.021679,36,271,576,6048
1644178823.629523,-0.011963,0.012268,-0.994812,0.251389,0.356031,-0.237863,47,273,586,6048
1644178823.677919,-0.007263,0.010986,-0.99408,0.190321,0.294962,0.021679,49,282,584,5984
1644178823.726336,-0.010437,0.007019,-0.990112,0.266656,0.401832,-0.100458,47,268,584,6048
1644178823.774741,-0.007629,0.006531,-0.991272,0.236122,0.371298,-0.039389,52,273,584,6016
1644178823.823141,-0.008667,0.011841,-0.988159,0.220855,0.478168,-0.130992,46,274,585,6000
1644178823.871581,-0.010498,0.008179,-0.989441,0.175053,0.386565,0.021679,43,279,578,6016
1644178823.919943,-0.007996,0.013062,-0.989563,0.129252,0.508702,-0.14626,42,280,586,6048
1644178823.968335,-0.008301,0.010315,-0.990112,0.098718,0.386565,-0.069924,48,281,585,6080
1644178824.016736,-0.008789,0.010376,-0.991516,0.434595,0.432366,-0.130992,45,270,593,6016
1644178824.0841,-0.006042,0.01123,-0.98999,0.220855,0.447634,0.036947,47,277,593,5984
1644178824.113796,-0.008301,0.011597,-0.99231,0.175053,0.401832,-0.100458,53,269,597,6016
1644178824.16186,-0.008118,0.011047,-0.991333,0.205588,0.417099,0.006412,41,279,580,6016
1644178824.210248,-0.008667,0.012512,-0.99353,0.08345,0.432366,-0.283664,48,283,592,5952
1644178824.259852,-0.007935,0.01239,-0.99054,0.175053,0.371298,0.021679,48,281,583,6048
1644178824.308596,-0.009033,0.011353,-0.989441,0.220855,0.264427,-0.085191,45,287,582,6016
1644178824.358906,-0.009155,0.009094,-0.989136,0.098718,0.371298,-0.085191,47,277,582,5952
1644178824.409268,-0.008606,0.010193,-0.991699,0.175053,0.447634,-0.024122,48,279,587,6064
1644178824.500617,-0.007202,0.011108,-0.991272,0.312458,0.462901,-0.069924,47,265,584,6112
1644178824.54898,-0.010986,0.01239,-0.992065,0.236122,0.401832,-0.237863,52,280,589,6064
1644178824.597401,-0.008301,0.009827,-0.991699,0.251389,0.401832,0.082748,55,279,585,6000
1644178824.645782,-0.008545,0.009521,-0.989685,0.251389,0.371298,0.067481,47,270,579,6000
1644178824.694184,-0.008789,0.009521,-0.992371,0.266656,0.356031,-0.14626,59,275,589,5984
1644178824.742603,-0.006165,0.011414,-0.991638,0.35826,0.340763,-0.100458,39,288,580,6048
1644178824.790968,-0.007874,0.008667,-0.990601,0.129252,0.432366,0.006412,48,271,578,6016
1644178824.839357,-0.009949,0.01123,-0.991272,0.052916,0.294962,-0.161527,55,271,585,6080
1644178824.887781,-0.00885,0.007812,-0.992126,0.220855,0.447634,-0.100458,48,274,585,6016
1644178824.936185,-0.009399,0.008789,-0.992676,0.098718,0.371298,-0.069924,52,277,589,6064
1644178824.984711,-0.011169,0.012024,-0.99115,0.205588,0.356031,-0.100458,53,291,590,6048
1644178825.032995,-0.011108,0.009216,-0.992798,0.281924,0.310229,-0.222595,65,283,585,6000
1644178825.081894,-0.006714,0.011719,-0.992065,0.052916,0.386565,-0.100458,45,273,591,5936
1644178825.129739,-0.008423,0.008911,-0.992737,0.236122,0.478168,-0.100458,47,275,584,6048
1644178825.178106,-0.008484,0.010315,-0.990784,0.281924,0.371298,-0.100458,53,281,587,6016
1644178825.22648,-0.009338,0.008789,-0.992004,0.220855,0.325496,-0.161527,49,270,593,6048
1644178825.274875,-0.00769,0.007385,-0.992188,0.144519,0.554504,-0.161527,43,274,585,5984
1644178825.323466,-0.009216,0.010376,-0.992126,0.205588,0.310229,-0.024122,53,288,590,6000
1644178825.372748,-0.009583,0.009216,-0.990662,0.190321,0.356031,-0.069924,47,273,591,5984
1644178825.423094,-0.008606,0.012756,-0.989441,0.266656,0.462901,-0.192061,51,274,585,5984
1644178825.473398,-0.008972,0.009216,-0.989197,0.266656,0.279695,-0.069924,43,271,587,6016
1644178825.56543,-0.01062,0.009827,-0.992676,0.35826,0.462901,0.036947,46,262,597,6016
1644178825.613644,-0.007568,0.009277,-0.994019,0.144519,0.508702,-0.176794,53,281,571,6016
1644178825.662014,-0.010193,0.009155,-0.992493,0.404061,0.401832,-0.100458,41,283,590,6048
1644178825.710404,-0.007202,0.00885,-0.994141,0.175053,0.401832,-0.039389,42,280,582,6048
1644178825.758775,-0.012024,0.007446,-0.99469,0.236122,0.508702,-0.100458,46,269,587,6000
1644178825.8072,-0.010254,0.010498,-0.994507,0.297191,0.386565,-0.14626,51,281,583,5952
1644178825.855577,-0.007935,0.010193,-0.992981,0.312458,0.432366,0.067481,47,273,579,6080
1644178825.904028,-0.009277,0.009521,-0.993103,0.281924,0.356031,0.036947,57,263,589,6000
1644178825.952425,-0.00769,0.010315,-0.992126,0.281924,0.478168,-0.069924,53,279,580,6000
1644178826.00079,-0.011169,0.010193,-0.992188,0.251389,0.493435,-0.054656,53,281,587,6000
1644178826.066945,-0.009033,0.01062,-0.991516,0.205588,0.508702,-0.192061,52,280,591,6000
1644178826.102273,-0.008667,0.010559,-0.99115,0.190321,0.417099,-0.130992,46,281,587,6016
1644178826.145968,-0.009521,0.007935,-0.995361,0.266656,0.325496,-0.054656,39,276,592,6000
1644178826.194381,-0.010071,0.012024,-0.989319,0.037649,0.432366,-0.115725,48,279,587,6016
1644178826.242777,-0.00946,0.007568,-0.991577,0.388794,0.340763,-0.054656,54,282,591,6064
1644178826.291158,-0.008667,0.007935,-0.991272,0.220855,0.447634,-0.024122,42,280,593,6080
1644178826.339554,-0.009888,0.01123,-0.992737,0.205588,0.554504,-0.222595,51,276,590,5984
1644178826.388332,-0.009521,0.009827,-0.994446,0.342992,0.462901,-0.176794,51,271,592,6000
1644178826.436576,-0.00885,0.00708,-0.993591,0.297191,0.157557,-0.130992,51,281,592,6048
1644178826.486946,-0.010376,0.010071,-0.993713,0.281924,0.401832,0.036947,38,273,589,5984
1644178826.537274,-0.009338,0.01062,-0.990601,0.159786,0.24916,-0.130992,45,273,575,6048
1644178826.587436,-0.009583,0.011169,-0.991333,0.281924,0.325496,-0.14626,46,283,583,6016
1644178826.678292,-0.008789,0.010071,-0.989136,0.068183,0.478168,-0.237863,48,274,590,6080
1644178826.72668,-0.008179,0.012207,-0.987122,0.220855,0.447634,-0.008855,41,279,585,6016
1644178826.775252,-0.008545,0.010925,-0.989502,0.281924,0.432366,-0.176794,48,271,587,6080
1644178826.823472,-0.006287,0.009155,-0.992798,0.297191,0.508702,-0.054656,45,277,577,5936
1644178826.871855,-0.009216,0.011841,-0.992615,0.281924,0.294962,-0.024122,54,277,591,6048
1644178826.92026,-0.009338,0.008728,-0.991211,0.327725,0.401832,-0.115725,34,279,592,6016
1644178826.968647,-0.009094,0.010559,-0.991699,0.022382,0.432366,-0.115725,54,273,579,6016
1644178827.017046,-0.006165,0.009705,-0.992371,0.159786,0.417099,-0.130992,57,270,577,6000
1644178827.069761,-0.007385,0.010254,-0.990967,0.144519,0.203359,-0.100458,48,264,583,6016
1644178827.113807,-0.008423,0.01001,-0.99292,0.297191,0.294962,-0.054656,48,276,583,6080
1644178827.162238,-0.008545,0.009338,-0.992249,0.129252,0.310229,-0.115725,47,270,596,6000
1644178827.210566,-0.007935,0.010071,-0.993896,0.129252,0.356031,-0.115725,48,269,573,6000
1644178827.258936,-0.011292,0.009216,-0.992676,0.388794,0.294962,-0.039389,47,277,582,6080
1644178827.307356,-0.00946,0.009277,-0.992859,0.159786,0.279695,-0.115725,52,270,589,5984
1644178827.355746,-0.009216,0.009766,-0.99176,0.266656,0.371298,-0.115725,49,268,589,6080
1644178827.404113,-0.009399,0.009705,-0.993958,0.236122,0.325496,-0.085191,47,273,596,6080
1644178827.45255,-0.007385,0.009155,-0.991516,0.266656,0.432366,-0.161527,45,285,582,5984
1644178827.500891,-0.007385,0.009766,-0.990112,0.220855,0.417099,-0.207328,51,274,597,6064
1644178827.549324,-0.008484,0.012146,-0.993591,0.297191,0.401832,-0.14626,41,276,594,6128
1644178827.598346,-0.006714,0.009155,-0.991394,0.251389,0.432366,-0.024122,52,280,584,6016
1644178827.648885,-0.008667,0.009338,-0.989746,0.327725,0.325496,-0.085191,52,277,582,5984
1644178827.698988,-0.008484,0.008545,-0.990173,0.144519,0.478168,0.036947,46,276,585,6016
1644178827.743996,-0.010925,0.010986,-0.991333,0.159786,0.325496,-0.207328,49,280,582,6016
1644178827.839691,-0.00769,0.010315,-0.993225,0.113985,0.371298,-0.25313,49,282,582,6080
1644178827.888088,-0.007507,0.009399,-0.991821,0.052916,0.371298,-0.039389,40,277,582,6016
1644178827.936471,-0.011475,0.009644,-0.991577,0.434595,0.325496,-0.130992,51,288,587,6000
1644178827.98489,-0.005859,0.007935,-0.991028,0.205588,0.462901,0.281221,42,277,586,5984
1644178828.033252,-0.007141,0.010376,-0.991882,0.373527,0.478168,-0.176794,45,268,591,6000
1644178828.081827,-0.008423,0.009827,-0.991089,0.205588,0.462901,-0.085191,46,283,578,6064
1644178828.130018,-0.010681,0.009338,-0.993896,0.205588,0.325496,0.098015,46,281,573,6064
1644178828.178422,-0.006836,0.012268,-0.993042,0.022382,0.417099,-0.085191,47,277,584,6064
1644178828.226808,-0.007568,0.010193,-0.992859,0.205588,0.493435,-0.161527,52,270,582,6016
1644178828.275203,-0.007507,0.009705,-0.989807,0.281924,0.340763,-0.207328,55,276,580,6048
1644178828.323598,-0.009583,0.009521,-0.990723,0.175053,0.371298,0.067481,43,283,585,6048
1644178828.371979,-0.007812,0.011902,-0.991882,0.312458,0.401832,-0.14626,36,281,594,6000
1644178828.420377,-0.007507,0.009277,-0.990173,0.266656,0.371298,-0.161527,39,276,587,6048
1644178828.468771,-0.010559,0.010437,-0.99469,0.35826,0.508702,-0.039389,49,277,582,5952
1644178828.51716,-0.009888,0.010498,-0.994507,0.297191,0.340763,-0.054656,43,279,583,6080
1644178828.565536,-0.012146,0.010315,-0.992676,0.052916,0.371298,-0.176794,45,273,584,6016
1644178828.613935,-0.010376,0.00824,-0.987854,0.35826,0.233893,-0.039389,45,270,589,6016
1644178828.662312,-0.009705,0.009644,-0.993164,0.297191,0.294962,-0.130992,58,281,585,6064
1644178828.710731,-0.008179,0.010681,-0.992065,0.144519,0.401832,-0.161527,45,285,591,6064
1644178828.759297,-0.01123,0.01001,-0.989136,0.297191,0.310229,-0.039389,52,270,589,6016
1644178828.810123,-0.008179,0.009216,-0.990479,0.205588,0.401832,-0.039389,38,277,584,6048
1644178828.860802,-0.009766,0.010254,-0.993347,0.144519,0.447634,0.021679,51,271,580,6080
1644178828.905569,-0.009705,0.00885,-0.992676,0.159786,0.432366,-0.085191,46,274,594,6048
1644178829.001115,-0.007874,0.007141,-0.988953,0.129252,0.462901,-0.314198,43,286,585,6016
1644178829.065074,-0.007996,0.010742,-0.990906,0.266656,0.432366,-0.130992,59,280,589,6080
1644178829.09796,-0.008728,0.011292,-0.994751,0.266656,0.401832,-0.069924,36,269,587,5984
1644178829.146251,-0.008179,0.01178,-0.994446,0.190321,0.279695,-0.024122,54,273,577,5984
1644178829.194721,-0.007324,0.007446,-0.990845,0.113985,0.386565,-0.085191,41,266,578,6016
1644178829.243044,-0.008728,0.009583,-0.992615,0.388794,0.478168,-0.069924,59,270,586,6000
1644178829.291425,-0.008423,0.006042,-0.993286,0.251389,0.386565,-0.085191,43,279,580,5984
1644178829.339823,-0.009705,0.008484,-0.989685,0.327725,0.417099,-0.130992,51,279,587,5984
1644178829.388216,-0.009033,0.008667,-0.992798,0.251389,0.615573,-0.14626,53,271,592,6016
1644178829.436602,-0.010315,0.007446,-0.993591,0.220855,0.508702,0.082748,49,277,572,6048
1644178829.485048,-0.011047,0.008728,-0.990295,0.220855,0.523969,0.006412,42,285,593,6016
1644178829.533387,-0.011902,0.010559,-0.994812,0.236122,0.417099,-0.222595,52,277,589,6016
1644178829.581817,-0.009399,0.011902,-0.992615,0.190321,0.401832,-0.222595,51,274,580,5984
1644178829.63229,-0.008301,0.009644,-0.991455,0.175053,0.340763,0.021679,55,274,597,6064
1644178829.68238,-0.009277,0.009399,-0.993835,0.266656,0.417099,-0.008855,54,285,582,5984
1644178829.72756,-0.009766,0.012207,-0.990784,0.08345,0.447634,0.052214,49,287,582,6016
1644178829.823781,-0.009155,0.010742,-0.993958,0.129252,0.24916,-0.14626,38,275,591,6000
1644178829.872424,-0.006775,0.008667,-0.994568,0.297191,0.371298,-0.298931,41,291,585,5952
1644178829.920541,-0.009888,0.008789,-0.992676,0.342992,0.417099,-0.085191,57,287,575,6016
1644178829.968954,-0.008972,0.010559,-0.992249,0.129252,0.585038,-0.130992,41,274,580,5984
1644178830.017349,-0.012451,0.010681,-0.995361,0.159786,0.401832,0.052214,33,273,582,6128
1644178830.068792,-0.010254,0.007507,-0.992737,0.342992,0.417099,-0.192061,48,269,590,6048
1644178830.114177,-0.010193,0.008972,-0.99292,0.404061,0.386565,-0.008855,48,276,585,6016
1644178830.162503,-0.011963,0.008362,-0.992615,-0.008153,0.386565,-0.161527,40,270,577,6048
1644178830.21089,-0.008118,0.008362,-0.988037,0.266656,0.310229,-0.192061,46,288,590,6016
1644178830.259284,-0.01178,0.011841,-0.993469,0.251389,0.432366,-0.085191,35,285,589,5984
1644178830.307642,-0.008972,0.008423,-0.991211,-0.008153,0.371298,-0.100458,43,281,585,5952
1644178830.356058,-0.009033,0.007996,-0.990784,0.08345,0.508702,-0.008855,53,283,580,6016
1644178830.404463,-0.008179,0.010864,-0.990417,0.220855,0.508702,-0.237863,45,280,593,6080
1644178830.452868,-0.008179,0.011047,-0.99054,0.312458,0.493435,-0.268397,52,273,591,5984
1644178830.50124,-0.00946,0.010376,-0.993408,0.266656,0.310229,-0.008855,53,283,583,6000
1644178830.549621,-0.010376,0.009766,-0.990723,0.144519,0.401832,-0.069924,47,277,579,6080
1644178830.59801,-0.011108,0.008118,-0.994446,0.205588,0.493435,-0.161527,51,281,583,6048
1644178830.646406,-0.010986,0.01062,-0.993347,0.08345,0.478168,-0.069924,52,275,582,6016
1644178830.694818,-0.009827,0.01239,-0.992615,0.08345,0.462901,-0.024122,47,273,593,6016
1644178830.743268,-0.009705,0.010437,-0.993591,0.129252,0.447634,-0.176794,55,288,580,6016
1644178830.793716,-0.00708,0.009277,-0.993347,0.205588,0.432366,-0.25313,49,277,586,6016
1644178830.843957,-0.006531,0.011597,-0.992432,0.113985,0.508702,-0.024122,39,269,580,6016
1644178830.889658,-0.008545,0.014099,-0.992249,0.236122,0.417099,-0.008855,41,279,587,6080
1644178830.985405,-0.009888,0.009277,-0.991577,0.373527,0.447634,-0.024122,49,275,582,6064
1644178831.033608,-0.008911,0.009521,-0.991333,0.175053,0.417099,-0.069924,49,268,577,6000
1644178831.082166,-0.009155,0.012512,-0.989197,0.236122,0.310229,-0.176794,49,277,591,5984
1644178831.130361,-0.00824,0.010681,-0.992004,0.113985,0.325496,-0.115725,51,281,578,6016
1644178831.178726,-0.009338,0.008789,-0.992676,0.190321,0.493435,-0.039389,48,271,578,5952
1644178831.22712,-0.010803,0.010437,-0.98999,0.159786,0.569771,-0.069924,46,276,580,6016
1644178831.275507,-0.009766,0.008972,-0.991638,0.251389,0.447634,0.067481,58,283,594,5952
1644178831.323908,-0.008179,0.010986,-0.991577,0.129252,0.386565,-0.161527,35,273,575,5984
1644178831.37232,-0.011597,0.009949,-0.990906,0.297191,0.371298,-0.130992,38,282,582,5984
1644178831.420691,-0.009094,0.007141,-0.993408,0.236122,0.432366,-0.054656,36,279,580,5984
1644178831.469073,-0.008972,0.010071,-0.99115,0.251389,0.432366,-0.14626,55,274,594,6016
1644178831.517463,-0.010559,0.00946,-0.991699,0.388794,0.386565,-0.161527,54,280,586,5984
1644178831.565856,-0.009277,0.01123,-0.993103,0.297191,0.478168,-0.344733,43,271,578,6000
1644178831.614232,-0.006653,0.00885,-0.990906,-0.02342,0.371298,-0.085191,54,273,589,6000
1644178831.662642,-0.005615,0.007874,-0.99115,0.266656,0.340763,-0.161527,53,276,580,5984
1644178831.71104,-0.009155,0.010254,-0.988953,0.220855,0.356031,-0.192061,51,271,592,6016
1644178831.75941,-0.00946,0.011414,-0.989685,0.251389,0.478168,-0.161527,46,269,594,6048
1644178831.807792,-0.007812,0.010559,-0.992615,0.175053,0.432366,-0.039389,42,277,584,6000
1644178831.856298,-0.009216,0.011658,-0.991943,0.159786,0.478168,-0.176794,41,279,583,5952
1644178831.905847,-0.00885,0.011658,-0.993591,0.175053,0.371298,-0.054656,46,279,583,6000
1644178831.956359,-0.00824,0.010742,-0.991699,0.236122,0.523969,0.082748,53,266,585,5984
1644178832.06291,-0.01001,0.010742,-0.991943,0.266656,0.401832,-0.14626,51,274,585,6016
1644178832.098398,-0.008179,0.009155,-0.990845,0.190321,0.417099,-0.192061,45,268,593,6016
1644178832.146609,-0.008728,0.009277,-0.99176,0.236122,0.401832,-0.115725,60,269,580,6016
1644178832.195095,-0.006531,0.010864,-0.991638,0.251389,0.386565,0.021679,51,281,578,6048
1644178832.24332,-0.01001,0.01062,-0.992371,0.220855,0.539237,-0.115725,47,275,584,6016
1644178832.291751,-0.008423,0.008362,-0.990356,0.281924,0.462901,-0.283664,48,274,585,5984
1644178832.340138,-0.008789,0.00824,-0.992798,0.068183,0.294962,-0.115725,36,281,580,6048
1644178832.388504,-0.008789,0.012451,-0.992249,0.281924,0.432366,-0.008855,46,279,578,6016
1644178832.436935,-0.009705,0.012878,-0.991699,0.129252,0.432366,-0.054656,41,276,590,6016
1644178832.485302,-0.008362,0.010193,-0.993042,0.175053,0.478168,-0.298931,57,280,589,6000
1644178832.533701,-0.012512,0.00885,-0.988892,0.312458,0.691908,-0.130992,51,269,587,6048
1644178832.582162,-0.006165,0.00885,-0.990784,0.266656,0.493435,-0.14626,48,276,580,6080
1644178832.630518,-0.010559,0.01001,-0.992737,0.419328,0.294962,-0.161527,49,273,582,6064
1644178832.680404,-0.009888,0.009338,-0.990784,0.190321,0.539237,-0.161527,49,275,589,6000
1644178832.730592,-0.007141,0.008362,-0.993225,0.251389,0.401832,-0.14626,49,282,589,6000
1644178832.780931,-0.008667,0.009949,-0.990662,0.266656,0.508702,-0.176794,58,279,587,6016
1644178832.872665,-0.008301,0.009583,-0.992798,0.35826,0.294962,-0.054656,48,269,587,5984
1644178832.920873,-0.007263,0.011047,-0.990295,0.342992,0.356031,-0.085191,40,277,598,6000
1644178832.96927,-0.010803,0.010681,-0.990967,0.175053,0.508702,0.006412,46,281,583,6048
1644178833.017653,-0.010681,0.008484,-0.990662,0.297191,0.310229,-0.176794,55,283,583,6080
1644178833.070014,-0.008911,0.01062,-0.993835,0.144519,0.493435,0.006412,54,273,586,6080
1644178833.114411,-0.010376,0.010864,-0.991333,0.251389,0.523969,0.006412,42,282,586,6048
1644178833.162853,-0.01001,0.014038,-0.991699,0.251389,0.325496,-0.161527,53,271,576,6048
1644178833.211231,-0.008606,0.008911,-0.992249,0.236122,0.401832,-0.14626,53,276,576,6080
1644178833.259628,-0.008057,0.010376,-0.990662,0.144519,0.340763,-0.298931,60,274,578,5984
1644178833.307991,-0.009033,0.008972,-0.989075,0.205588,0.493435,-0.207328,54,277,584,6080
1644178833.356413,-0.005676,0.009705,-0.99231,0.327725,0.325496,-0.085191,41,276,583,6048
1644178833.404829,-0.01001,0.009033,-0.989258,0.266656,0.356031,-0.14626,54,277,591,6048
1644178833.45319,-0.007141,0.007507,-0.990723,0.266656,0.432366,-0.115725,54,282,579,6080
1644178833.501546,-0.007935,0.008423,-0.99469,0.175053,0.294962,-0.176794,57,268,568,6048
1644178833.549953,-0.008057,0.010315,-0.989685,0.190321,0.386565,-0.100458,54,273,591,6016
1644178833.598342,-0.012756,0.008972,-0.991028,0.236122,0.417099,-0.008855,47,277,589,6016
1644178833.646767,-0.01123,0.009583,-0.991028,0.312458,0.462901,-0.085191,43,276,590,5984
1644178833.695512,-0.010254,0.007446,-0.993591,0.236122,0.371298,-0.161527,51,281,590,6000
1644178833.743686,-0.00885,0.010193,-0.989197,0.281924,0.508702,0.021679,40,282,584,6048
1644178833.793962,-0.010681,0.011047,-0.993103,0.266656,0.356031,-0.14626,45,270,584,6016
1644178833.844168,-0.009644,0.010864,-0.989258,0.281924,0.401832,-0.115725,46,276,587,6016
1644178833.894301,-0.010376,0.008423,-0.99292,0.205588,0.371298,-0.100458,49,285,577,5984
1644178833.985482,-0.009155,0.009705,-0.989868,0.434595,0.447634,0.006412,51,274,578,6064
1644178834.033915,-0.007751,0.010681,-0.992676,0.281924,0.417099,-0.069924,59,275,579,5984
1644178834.082976,-0.007996,0.00885,-0.993164,0.236122,0.401832,-0.085191,47,285,586,5984
1644178834.130632,-0.007996,0.011292,-0.99353,0.220855,0.417099,-0.192061,46,279,587,6048
1644178834.179027,-0.011047,0.010132,-0.988525,0.281924,0.539237,-0.268397,43,288,578,6064
1644178834.227425,-0.008423,0.011169,-0.992249,0.266656,0.462901,-0.130992,57,282,584,6016
1644178834.275802,-0.007568,0.010071,-0.992737,0.342992,0.356031,-0.054656,55,288,585,6048
1644178834.324217,-0.009827,0.007996,-0.990906,0.205588,0.432366,-0.069924,46,281,571,6016
1644178834.372629,-0.007202,0.008362,-0.991821,0.297191,0.386565,-0.344733,48,276,578,6080
1644178834.42097,-0.007812,0.009583,-0.990601,0.281924,0.417099,-0.115725,48,274,590,6080
1644178834.469387,-0.011108,0.00885,-0.992615,0.236122,0.478168,-0.039389,48,279,587,6080
1644178834.517782,-0.007629,0.008484,-0.993408,0.175053,0.371298,-0.024122,52,282,582,6048
1644178834.566173,-0.011292,0.009583,-0.992065,0.144519,0.340763,-0.008855,43,274,585,6000
1644178834.614613,-0.008667,0.010559,-0.991821,0.327725,0.508702,0.082748,53,276,585,6048
1644178834.662972,-0.008728,0.009338,-0.989746,0.113985,0.401832,-0.14626,46,274,587,6016
1644178834.71135,-0.009766,0.010925,-0.992126,0.35826,0.294962,0.036947,61,280,586,6016
1644178834.759744,-0.007996,0.008667,-0.992004,0.220855,0.417099,-0.100458,53,286,578,6080
1644178834.808327,-0.00885,0.009705,-0.991394,0.205588,0.325496,-0.024122,51,281,592,6016
1644178834.856878,-0.011292,0.008362,-0.993164,0.175053,0.523969,-0.130992,54,280,596,6000
1644178834.907385,-0.007874,0.009949,-0.989014,0.220855,0.340763,-0.161527,46,279,590,6016
1644178834.957363,-0.007996,0.01123,-0.991211,0.297191,0.432366,-0.085191,48,269,590,6016
1644178835.0664,-0.010071,0.011719,-0.991943,0.251389,0.493435,-0.14626,46,271,590,6064
1644178835.101147,-0.009216,0.007812,-0.992981,0.327725,0.478168,-0.161527,49,277,598,6080
1644178835.146885,-0.013428,0.008423,-0.992188,0.220855,0.417099,-0.039389,53,276,585,6000
1644178835.195293,-0.008972,0.006653,-0.992493,0.236122,0.523969,-0.039389,51,276,583,6048
1644178835.24366,-0.009338,0.007874,-0.991333,0.251389,0.462901,0.006412,60,279,585,5952
1644178835.292061,-0.01001,0.010986,-0.991455,0.266656,0.386565,-0.008855,42,287,586,6016
1644178835.340453,-0.010254,0.009888,-0.993286,0.205588,0.340763,-0.069924,52,277,589,6016
1644178835.388802,-0.00708,0.007507,-0.992859,0.144519,0.493435,0.021679,47,273,589,6000
1644178835.437224,-0.006775,0.009644,-0.99054,0.220855,0.386565,-0.115725,45,277,582,6000
1644178835.485616,-0.008667,0.010559,-0.990662,0.068183,0.432366,-0.085191,51,281,587,6016
1644178835.534346,-0.008057,0.007568,-0.991272,0.129252,0.432366,-0.039389,47,282,591,6000
1644178835.583294,-0.007568,0.009094,-0.992737,0.434595,0.447634,-0.161527,48,281,583,5984
1644178835.633869,-0.009399,0.009399,-0.98877,0.190321,0.325496,-0.054656,58,269,580,6080
1644178835.684,-0.008606,0.010315,-0.991394,0.342992,0.417099,-0.25313,47,282,591,6064
1644178835.776017,-0.009277,0.009705,-0.993652,0.220855,0.401832,-0.161527,57,282,582,6048
1644178835.824387,-0.009399,0.009705,-0.991394,0.251389,0.447634,-0.100458,42,270,591,6080
1644178835.872803,-0.007812,0.010742,-0.988098,0.129252,0.447634,-0.130992,47,287,577,5952
1644178835.92115,-0.008728,0.007629,-0.991394,0.175053,0.279695,-0.069924,58,276,585,6160
1644178835.969591,-0.00708,0.006897,-0.991821,0.449863,0.371298,0.12855,48,279,585,5984
1644178836.017942,-0.008545,0.006836,-0.993469,0.220855,0.493435,0.021679,47,280,584,5936
1644178836.068444,-0.012451,0.010437,-0.98999,0.205588,0.356031,-0.069924,48,281,585,6080
1644178836.115038,-0.009766,0.007568,-0.991699,0.205588,0.340763,-0.14626,51,288,590,6064
1644178836.16313,-0.008057,0.010071,-0.99231,0.266656,0.371298,-0.237863,51,279,580,5984
1644178836.211505,-0.010986,0.010803,-0.992126,0.266656,0.356031,-0.222595,48,279,585,5952
1644178836.259905,-0.009949,0.012329,-0.989502,0.190321,0.356031,-0.085191,55,276,580,6048
1644178836.308269,-0.006165,0.011047,-0.988953,0.113985,0.523969,0.006412,49,275,584,6048
1644178836.356683,-0.010437,0.01355,-0.98999,0.342992,0.356031,-0.085191,41,286,585,6048
1644178836.405159,-0.008728,0.01062,-0.995361,0.205588,0.523969,-0.14626,54,287,589,6048
1644178836.453477,-0.010254,0.011597,-0.991394,0.281924,0.386565,0.143817,54,277,586,6000
1644178836.501835,-0.005615,0.007935,-0.989868,0.144519,0.371298,-0.054656,48,271,594,6016
1644178836.550262,-0.008118,0.009583,-0.993835,0.297191,0.417099,-0.024122,43,286,585,6016
1644178836.598619,-0.009705,0.010193,-0.992126,0.144519,0.523969,-0.14626,60,269,583,6000
1644178836.647038,-0.010315,0.00946,-0.993042,0.220855,0.432366,0.006412,45,270,593,6000
1644178836.695909,-0.00824,0.012695,-0.994568,0.190321,0.417099,-0.100458,54,275,589,5984
1644178836.746508,-0.009644,0.011597,-0.99231,0.281924,0.447634,-0.054656,61,275,586,6064
1644178836.796507,-0.009399,0.009827,-0.991455,0.251389,0.386565,-0.176794,52,277,589,6048
1644178836.841569,-0.008972,0.011108,-0.989502,0.312458,0.325496,0.067481,45,280,589,6048
1644178836.937424,-0.01178,0.007446,-0.990234,0.220855,0.371298,-0.069924,49,282,582,6048
1644178836.985804,-0.007019,0.010742,-0.991882,0.35826,0.462901,-0.161527,54,277,582,6016
1644178837.034213,-0.009216,0.008972,-0.991516,0.312458,0.279695,-0.085191,57,270,593,6000
1644178837.08726,-0.011292,0.008728,-0.992065,0.129252,0.340763,-0.024122,51,286,583,5984
1644178837.131,-0.008911,0.011597,-0.99176,0.113985,0.371298,-0.192061,58,281,583,6080
1644178837.179353,-0.009644,0.011719,-0.992859,0.373527,0.310229,-0.085191,45,285,582,5984
1644178837.227741,-0.009827,0.009277,-0.993774,0.205588,0.371298,-0.024122,48,274,585,6016
1644178837.276105,-0.008789,0.009705,-0.990723,0.251389,0.447634,0.006412,47,282,589,6048
1644178837.324519,-0.012817,0.010803,-0.992065,0.159786,0.462901,-0.039389,64,275,577,6048
1644178837.37293,-0.00769,0.012146,-0.992371,0.175053,0.493435,-0.14626,45,268,582,5952
1644178837.421293,-0.01062,0.008728,-0.99176,0.312458,0.585038,-0.268397,46,274,592,6000
1644178837.46971,-0.010071,0.007996,-0.993103,0.08345,0.371298,-0.054656,49,287,582,5952
1644178837.51809,-0.007568,0.00769,-0.993225,0.281924,0.371298,-0.115725,52,280,586,6000
1644178837.566495,-0.007935,0.010742,-0.991516,0.251389,0.325496,-0.207328,52,277,582,6080
1644178837.614887,-0.011353,0.009705,-0.992432,0.480397,0.401832,-0.14626,43,281,583,6016
1644178837.663281,-0.009155,0.009155,-0.991638,0.175053,0.462901,-0.069924,47,280,579,6048
1644178837.711666,-0.008179,0.008728,-0.99054,0.35826,0.325496,0.113282,49,263,584,6000
1644178837.760052,-0.009705,0.009766,-0.994324,0.312458,0.478168,-0.192061,46,281,580,5952
1644178837.808431,-0.011536,0.00824,-0.99353,0.266656,0.371298,-0.069924,58,281,583,6016
1644178837.857385,-0.010925,0.009827,-0.9953,0.251389,0.386565,-0.176794,39,276,580,6048
1644178837.908535,-0.01001,0.009583,-0.991272,0.159786,0.386565,-0.039389,54,268,589,6048
1644178837.958768,-0.009277,0.011353,-0.99231,0.281924,0.432366,-0.192061,48,274,590,6048
1644178838.067859,-0.005432,0.009338,-0.99176,0.159786,0.340763,-0.222595,52,277,586,5984
1644178838.102236,-0.00592,0.009521,-0.993225,0.113985,0.233893,-0.130992,41,279,585,5952
1644178838.147225,-0.009644,0.014709,-0.991882,0.159786,0.401832,-0.207328,43,291,580,6016
1644178838.195588,-0.008545,0.012451,-0.993896,0.312458,0.432366,-0.054656,36,281,583,6048
1644178838.243949,-0.008301,0.008728,-0.992126,0.312458,0.432366,0.006412,61,277,593,5984
1644178838.292356,-0.009521,0.008118,-0.993713,0.220855,0.401832,0.006412,43,283,580,6048
1644178838.340752,-0.006958,0.008972,-0.990356,0.190321,0.462901,-0.054656,45,285,584,6016
1644178838.389144,-0.007263,0.009399,-0.98822,0.220855,0.432366,0.006412,48,279,585,5984
1644178838.437548,-0.007996,0.011108,-0.992554,0.342992,0.462901,-0.039389,48,266,583,6064
1644178838.485911,-0.010925,0.011047,-0.992493,0.281924,0.310229,0.021679,45,273,582,5984
1644178838.534335,-0.008118,0.007629,-0.991821,0.205588,0.401832,-0.161527,36,269,585,6080
1644178838.584248,-0.008789,0.010742,-0.988586,0.190321,0.478168,-0.024122,49,270,582,6016
1644178838.634904,-0.008667,0.008972,-0.98938,0.159786,0.340763,-0.176794,48,271,585,6016
1644178838.679536,-0.008484,0.008789,-0.992432,0.190321,0.447634,-0.024122,48,281,578,6016
1644178838.776264,-0.008667,0.011292,-0.992004,0.281924,0.356031,-0.115725,48,271,580,6064
1644178838.824859,-0.008545,0.008362,-0.992981,0.327725,0.356031,-0.069924,48,283,580,6000
1644178838.873102,-0.005127,0.006775,-0.991272,0.251389,0.523969,-0.115725,47,268,579,6016
1644178838.921493,-0.007141,0.009705,-0.991516,0.266656,0.356031,-0.054656,62,279,587,6000
1644178838.969896,-0.00592,0.008301,-0.993286,0.144519,0.493435,0.036947,57,275,579,6016
1644178839.018265,-0.007568,0.009583,-0.994019,0.220855,0.493435,-0.192061,46,276,590,6000
1644178839.070312,-0.00769,0.007996,-0.991882,0.08345,0.340763,-0.039389,46,281,587,6080
1644178839.115228,-0.007446,0.010559,-0.993652,0.113985,0.493435,-0.008855,55,290,586,6000
1644178839.163464,-0.010132,0.010681,-0.991455,0.190321,0.600305,-0.100458,49,275,589,5984
1644178839.211849,-0.010803,0.009033,-0.990662,0.281924,0.325496,-0.14626,54,285,591,5952
1644178839.26023,-0.010071,0.008545,-0.993774,0.251389,0.432366,-0.069924,51,271,590,6000
1644178839.308624,-0.008545,0.011353,-0.994385,0.129252,0.356031,-0.14626,43,276,573,5936
1644178839.357017,-0.008606,0.010559,-0.99176,0.190321,0.371298,-0.176794,42,282,586,6016
1644178839.40541,-0.011841,0.011475,-0.991333,0.220855,0.279695,-0.039389,46,276,576,5984
1644178839.45382,-0.00946,0.008911,-0.993286,0.266656,0.493435,0.052214,43,286,585,6000
1644178839.502246,-0.01123,0.007996,-0.992859,0.281924,0.386565,-0.237863,59,280,586,5984
1644178839.550602,-0.008789,0.008789,-0.990662,0.205588,0.447634,0.052214,47,282,586,6000
1644178839.599331,-0.009766,0.008728,-0.992554,0.220855,0.462901,-0.14626,47,277,584,6016
1644178839.647407,-0.01062,0.007324,-0.991699,0.297191,0.417099,-0.039389,47,285,582,5984
1644178839.697352,-0.006897,0.00885,-0.992126,0.342992,0.585038,-0.14626,48,269,590,6000
1644178839.747499,-0.00946,0.009644,-0.992371,0.281924,0.340763,-0.054656,48,276,590,6016
1644178839.797965,-0.011353,0.011353,-0.992249,0.175053,0.356031,-0.207328,47,280,584,6048
1644178839.842425,-0.006775,0.011475,-0.990662,0.297191,0.432366,0.052214,34,274,587,5984
1644178839.937734,-0.009766,0.010925,-0.993164,0.404061,0.417099,0.006412,48,276,585,6000
1644178839.986121,-0.008057,0.010071,-0.99115,0.144519,0.371298,-0.14626,51,274,592,6000
1644178840.034495,-0.008301,0.010681,-0.991394,0.236122,0.401832,-0.100458,53,281,585,5984
1644178840.082996,-0.00885,0.008606,-0.994324,0.129252,0.340763,-0.268397,47,290,593,5984
1644178840.131239,-0.007446,0.010559,-0.992249,0.220855,0.554504,-0.039389,51,276,580,6064
1644178840.179648,-0.00708,0.009216,-0.992493,0.220855,0.386565,-0.130992,42,270,575,6016
1644178840.228329,-0.00769,0.009521,-0.991333,0.08345,0.294962,-0.222595,49,277,584,6016
1644178840.276416,-0.007996,0.009521,-0.991943,0.236122,0.371298,-0.115725,42,277,584,6016
1644178840.324803,-0.004822,0.007202,-0.989197,0.113985,0.340763,-0.283664,49,282,579,6080
1644178840.373237,-0.008911,0.009949,-0.99054,0.205588,0.417099,0.006412,54,277,593,6016
1644178840.421618,-0.008057,0.009949,-0.991882,0.052916,0.401832,-0.207328,42,273,582,6048
1644178840.470005,-0.00824,0.012634,-0.993347,0.312458,0.447634,-0.054656,58,266,580,6000
1644178840.518412,-0.011658,0.013123,-0.992371,0.190321,0.386565,-0.069924,40,280,591,5952
1644178840.566801,-0.009338,0.012085,-0.989136,0.190321,0.340763,-0.069924,47,282,591,5984
1644178840.615242,-0.006897,0.009338,-0.990112,0.08345,0.325496,-0.161527,43,279,587,6080
1644178840.663587,-0.010803,0.009033,-0.990723,0.281924,0.478168,-0.161527,48,293,594,6048
1644178840.711975,-0.010559,0.011047,-0.990479,0.327725,0.386565,-0.14626,40,280,579,5984
1644178840.76035,-0.008057,0.010071,-0.98938,0.327725,0.523969,-0.207328,45,270,586,6000
1644178840.808794,-0.010986,0.011108,-0.990112,0.342992,0.356031,-0.115725,51,274,583,6016
1644178840.858676,-0.008789,0.012024,-0.989563,0.098718,0.386565,-0.100458,52,285,579,6016
1644178840.908565,-0.010864,0.010498,-0.990051,0.144519,0.447634,-0.024122,49,268,589,6048
1644178840.958854,-0.010193,0.009216,-0.989197,0.175053,0.523969,-0.024122,45,275,596,6048
1644178841.067195,-0.011353,0.013855,-0.992554,0.220855,0.371298,-0.024122,55,286,583,6000
1644178841.102474,-0.010132,0.012085,-0.993042,0.113985,0.401832,-0.008855,47,273,577,6064
1644178841.147511,-0.005493,0.00946,-0.992004,0.266656,0.478168,-0.100458,39,279,578,6000
1644178841.195896,-0.008301,0.009644,-0.992188,0.159786,0.386565,-0.039389,48,283,583,6000
1644178841.244287,-0.007935,0.009216,-0.992981,0.175053,0.294962,0.006412,46,286,590,6016
1644178841.292675,-0.009338,0.012024,-0.991638,0.251389,0.356031,0.067481,55,291,580,6048
1644178841.341067,-0.010498,0.009583,-0.992615,0.144519,0.356031,-0.14626,41,291,573,6064
1644178841.389476,-0.010071,0.005493,-0.990723,0.35826,0.478168,-0.085191,48,283,583,6000
1644178841.437846,-0.008728,0.011108,-0.992004,0.312458,0.432366,-0.237863,54,277,591,6000
1644178841.486239,-0.00708,0.011108,-0.990051,0.236122,0.523969,-0.100458,54,277,586,6000
1644178841.535004,-0.008484,0.010254,-0.990234,0.205588,0.325496,-0.024122,54,282,582,6048
1644178841.583761,-0.009644,0.011536,-0.992981,0.159786,0.462901,-0.039389,51,279,592,6016
1644178841.634329,-0.007202,0.007996,-0.990906,0.251389,0.24916,-0.130992,49,280,586,6080
1644178841.684391,-0.008362,0.012878,-0.99231,0.251389,0.493435,-0.008855,49,282,582,6000
1644178841.729495,-0.007202,0.009705,-0.990784,0.327725,0.24916,-0.085191,48,283,578,6016
1644178841.825522,-0.010315,0.012207,-0.991028,0.068183,0.462901,-0.085191,48,276,592,6000
1644178841.873434,-0.010986,0.010803,-0.993774,0.281924,0.447634,-0.176794,47,280,584,6016
1644178841.921815,-0.007629,0.008667,-0.992432,0.175053,0.462901,-0.100458,42,270,584,6016
1644178841.970201,-0.00885,0.008667,-0.990173,0.144519,0.310229,-0.024122,51,271,585,5984
1644178842.018601,-0.008667,0.008179,-0.99353,0.312458,0.493435,-0.329466,52,277,579,6000
1644178842.069679,-0.009644,0.008545,-0.992859,0.068183,0.462901,-0.207328,51,276,592,6080
1644178842.115381,-0.009705,0.010986,-0.992859,0.251389,0.356031,-0.115725,46,281,594,5984
1644178842.163757,-0.009155,0.010681,-0.994324,0.098718,0.371298,-0.069924,51,274,587,6064
1644178842.212173,-0.010559,0.005981,-0.992432,0.312458,0.310229,-0.008855,48,271,592,6016
1644178842.260515,-0.009644,0.008728,-0.992126,0.35826,0.325496,-0.283664,54,280,586,5952
1644178842.308899,-0.007324,0.006165,-0.99115,0.068183,0.493435,-0.024122,48,281,594,6016
1644178842.357308,-0.011292,0.009766,-0.990356,0.404061,0.401832,-0.039389,49,275,579,6016
1644178842.405739,-0.009766,0.008301,-0.991821,0.144519,0.401832,-0.14626,54,287,591,6064
1644178842.454102,-0.010864,0.009277,-0.991882,0.175053,0.417099,-0.100458,47,282,589,6016
1644178842.50251,-0.011047,0.008301,-0.992493,0.236122,0.233893,-0.054656,51,271,587,6080
1644178842.550853,-0.010925,0.010376,-0.995422,0.281924,0.447634,-0.176794,45,282,582,5984
1644178842.599279,-0.007874,0.010803,-0.994568,0.266656,0.417099,-0.085191,55,276,585,5984
1644178842.647663,-0.009583,0.008423,-0.99231,0.266656,0.310229,-0.100458,53,271,578,6016
1644178842.696105,-0.010254,0.009888,-0.988953,0.419328,0.371298,-0.176794,52,277,589,6016
1644178842.744988,-0.010498,0.00946,-0.993347,0.144519,0.508702,-0.192061,40,280,582,6016
1644178842.795566,-0.011108,0.00708,-0.991821,0.251389,0.371298,-0.115725,49,273,586,6016
1644178842.846348,-0.004089,0.006531,-0.992188,0.251389,0.371298,-0.130992,57,277,596,6000
1644178842.890994,-0.008667,0.009644,-0.989258,0.144519,0.325496,-0.237863,54,270,589,6112
1644178842.986429,-0.007996,0.007874,-0.99231,0.159786,0.432366,-0.14626,46,286,585,6048
1644178843.034904,-0.008179,0.009888,-0.992249,0.266656,0.386565,-0.130992,41,279,585,6000
1644178843.083365,-0.00769,0.010254,-0.992981,0.266656,0.508702,-0.054656,49,275,584,6016
1644178843.131617,-0.006531,0.012085,-0.993042,0.312458,0.264427,0.006412,43,279,583,5936
1644178843.179959,-0.00769,0.009583,-0.989624,0.312458,0.539237,0.006412,55,269,578,6064
1644178843.228351,-0.008972,0.008911,-0.994141,0.175053,0.493435,-0.085191,57,265,584,6016
1644178843.276726,-0.007751,0.010132,-0.992249,0.297191,0.447634,-0.207328,47,275,591,5952
1644178843.325177,-0.010376,0.00885,-0.98999,0.098718,0.493435,-0.130992,52,275,582,6016
1644178843.373521,-0.010681,0.008728,-0.994751,0.129252,0.294962,-0.100458,54,273,577,6048
1644178843.42193,-0.00946,0.008423,-0.991455,0.205588,0.508702,-0.344733,45,282,584,5984
1644178843.47032,-0.008728,0.007202,-0.991638,0.159786,0.447634,0.021679,59,280,584,6080
1644178843.518726,-0.009888,0.008545,-0.992249,0.220855,0.569771,-0.130992,42,285,579,6000
1644178843.567091,-0.007874,0.013062,-0.993286,0.236122,0.325496,0.036947,47,280,584,6048
1644178843.61551,-0.008118,0.011902,-0.989441,0.236122,0.462901,-0.024122,49,280,593,5952
1644178843.663884,-0.009155,0.01123,-0.99054,0.190321,0.356031,-0.100458,62,266,585,6016
1644178843.712298,-0.008179,0.009155,-0.994019,0.327725,0.386565,-0.25313,47,275,586,6048
1644178843.760671,-0.007385,0.00946,-0.990479,0.220855,0.279695,-0.039389,54,277,589,6016
1644178843.809067,-0.009705,0.009949,-0.990356,0.037649,0.432366,-0.161527,60,279,590,6080
1644178843.857507,-0.008301,0.00769,-0.989258,0.266656,0.356031,-0.069924,53,283,583,6016
1644178843.907937,-0.009705,0.009521,-0.992371,0.236122,0.371298,-0.008855,49,277,572,6048
1644178843.958077,-0.00708,0.010559,-0.989197,0.052916,0.325496,-0.207328,52,270,582,6016
1644178844.060767,-0.007568,0.008545,-0.989868,0.068183,0.340763,-0.039389,46,271,587,5984
1644178844.102204,-0.007141,0.011353,-0.991882,0.175053,0.356031,-0.054656,41,279,587,5984
1644178844.14782,-0.008606,0.009766,-0.991821,0.236122,0.188092,-0.161527,49,280,586,6048
1644178844.196182,-0.007263,0.008301,-0.991028,0.144519,0.432366,-0.130992,48,286,587,6000
1644178844.244695,-0.010681,0.009094,-0.991516,0.159786,0.478168,0.021679,43,283,587,6000
1644178844.293004,-0.01001,0.011292,-0.991455,0.342992,0.294962,-0.085191,46,279,580,5984
1644178844.341388,-0.009521,0.011475,-0.992432,0.236122,0.401832,-0.024122,49,277,579,6000
1644178844.389775,-0.00708,0.009644,-0.990234,0.236122,0.447634,-0.008855,41,276,590,6000
1644178844.438172,-0.007202,0.011169,-0.99408,0.159786,0.417099,-0.008855,54,290,586,6016
1644178844.486561,-0.009155,0.008728,-0.989929,0.266656,0.386565,-0.130992,47,280,589,5952
1644178844.534997,-0.009399,0.010864,-0.990173,0.281924,0.432366,-0.14626,49,273,586,6016
1644178844.583362,-0.008484,0.008179,-0.988525,0.113985,0.371298,-0.054656,58,271,578,5952
1644178844.631743,-0.009705,0.008545,-0.992004,0.220855,0.310229,-0.161527,49,273,577,6016
1644178844.680515,-0.010681,0.009949,-0.993408,0.08345,0.462901,-0.192061,52,277,577,6080
1644178844.731239,-0.011658,0.010742,-0.993408,0.129252,0.523969,-0.14626,36,271,576,5984
1644178844.781216,-0.012573,0.00885,-0.990112,0.175053,0.508702,-0.222595,48,271,587,5984
1644178844.826349,-0.007996,0.009216,-0.990845,0.327725,0.340763,-0.085191,51,279,580,6048
1644178844.922422,-0.007019,0.011536,-0.990967,0.144519,0.447634,-0.192061,57,282,577,6000
1644178844.970515,-0.012024,0.009277,-0.99054,0.144519,0.371298,-0.237863,43,276,580,6016
1644178845.01892,-0.010071,0.010254,-0.991821,0.159786,0.310229,-0.176794,45,277,579,6016
1644178845.067347,-0.007812,0.01062,-0.994995,0.46513,0.386565,-0.130992,48,274,578,6016
1644178845.115663,-0.009399,0.008606,-0.994202,0.144519,0.371298,-0.008855,53,283,585,6016
1644178845.164043,-0.009155,0.01062,-0.992554,0.236122,0.508702,-0.054656,43,283,587,5952
1644178845.212449,-0.008972,0.010376,-0.991882,0.342992,0.386565,-0.085191,51,281,587,6016
1644178845.260825,-0.007874,0.009155,-0.989624,0.327725,0.417099,-0.176794,59,280,582,6016
1644178845.309225,-0.008179,0.007507,-0.990662,0.052916,0.447634,0.052214,54,273,582,5984
1644178845.357626,-0.009094,0.009338,-0.991394,0.205588,0.432366,-0.085191,48,276,590,6048
1644178845.40601,-0.009888,0.009033,-0.991516,0.007115,0.523969,-0.130992,53,283,585,5984
1644178845.454408,-0.009094,0.008118,-0.988586,0.220855,0.508702,0.067481,45,280,582,6048
1644178845.502815,-0.008728,0.010132,-0.990906,0.175053,0.646107,0.021679,43,276,587,6048
1644178845.551186,-0.009277,0.010559,-0.988464,0.144519,0.401832,-0.176794,54,270,586,6000
1644178845.599578,-0.009338,0.008911,-0.991394,0.266656,0.24916,-0.161527,43,279,587,6000
1644178845.647942,-0.009949,0.014038,-0.995544,0.175053,0.386565,-0.176794,49,280,579,6016
1644178845.696353,-0.008789,0.008728,-0.991394,0.159786,0.447634,-0.085191,54,273,584,6048
1644178845.744767,-0.008606,0.011108,-0.993774,0.205588,0.371298,-0.14626,55,283,583,6016
1644178845.794766,-0.00946,0.00824,-0.994507,0.373527,0.447634,-0.176794,43,269,587,6080
1644178845.844684,-0.007568,0.007263,-0.989258,0.281924,0.447634,-0.115725,47,277,584,6048
1644178845.894819,-0.009644,0.011414,-0.992493,0.373527,0.432366,0.021679,51,281,573,6016
1644178845.939177,-0.010376,0.010071,-0.994446,0.220855,0.417099,-0.176794,49,265,591,6048
1644178846.035393,-0.009155,0.010132,-0.992737,0.022382,0.325496,0.021679,42,277,586,6000
1644178846.083612,-0.009705,0.011719,-0.992004,0.205588,0.24916,-0.100458,60,283,587,5952
1644178846.131876,-0.008606,0.009338,-0.989685,0.144519,0.478168,-0.161527,54,280,577,5984
1644178846.180262,-0.009033,0.010437,-0.990112,0.08345,0.356031,-0.130992,54,282,582,6000
1644178846.228683,-0.010376,0.009338,-0.989258,0.251389,0.478168,-0.054656,53,269,585,6048
1644178846.277075,-0.008911,0.009949,-0.988708,0.175053,0.447634,-0.115725,40,273,579,5936
1644178846.325456,-0.007751,0.008606,-0.99176,0.159786,0.462901,-0.176794,46,281,573,6016
1644178846.373863,-0.007446,0.009094,-0.991089,0.144519,0.478168,-0.085191,51,274,585,5984
1644178846.422273,-0.00946,0.009644,-0.99115,0.129252,0.325496,-0.207328,47,285,591,6016
1644178846.470638,-0.006836,0.008423,-0.992615,0.281924,0.386565,-0.176794,55,281,580,6016
1644178846.519029,-0.009949,0.012207,-0.988464,0.159786,0.325496,-0.100458,60,276,585,6000
1644178846.567419,-0.009766,0.008789,-0.989868,0.113985,0.417099,-0.161527,54,277,584,6080
1644178846.615808,-0.011963,0.011536,-0.99353,0.190321,0.386565,0.12855,57,277,582,6000
1644178846.664215,-0.008911,0.008606,-0.994263,0.129252,0.386565,-0.130992,49,275,584,6048
1644178846.712606,-0.008789,0.010681,-0.989868,0.159786,0.401832,-0.115725,52,275,591,5984
1644178846.76098,-0.007446,0.006775,-0.994141,0.175053,0.417099,-0.069924,43,283,592,5984
1644178846.809411,-0.009705,0.008423,-0.992432,0.220855,0.447634,-0.161527,49,270,584,6048
1644178846.857823,-0.007446,0.010193,-0.990295,0.266656,0.447634,-0.130992,49,273,579,6048
1644178846.90623,-0.009705,0.009949,-0.991943,0.205588,0.294962,-0.100458,46,269,573,5984
1644178846.955899,-0.010803,0.011902,-0.988892,0.220855,0.340763,-0.100458,57,285,579,6016
1644178847.006365,-0.012329,0.009827,-0.994385,0.220855,0.401832,-0.207328,45,277,579,6000
1644178847.069164,-0.008301,0.012085,-0.992126,0.052916,0.310229,-0.039389,54,277,589,5936
1644178847.107954,-0.007935,0.01062,-0.989807,0.266656,0.63084,-0.069924,43,283,587,6000
1644178847.196502,-0.010803,0.008911,-0.991516,0.251389,0.447634,-0.054656,51,286,585,6016
1644178847.244919,-0.008484,0.008667,-0.990967,0.205588,0.279695,-0.100458,48,269,578,6064
1644178847.293306,-0.007446,0.007141,-0.994202,0.297191,0.371298,-0.14626,43,274,583,5984
1644178847.3417,-0.007812,0.011108,-0.994751,0.175053,0.325496,-0.268397,41,279,592,6048
1644178847.390083,-0.008911,0.009949,-0.991943,0.236122,0.386565,-0.192061,52,273,572,6112
1644178847.438487,-0.010986,0.00946,-0.991455,0.312458,0.279695,-0.054656,47,282,575,6112
1644178847.486863,-0.009277,0.009338,-0.994873,0.190321,0.447634,-0.039389,54,275,577,6064
1644178847.535277,-0.009827,0.008484,-0.993958,0.388794,0.264427,-0.192061,47,277,577,5984
1644178847.583653,-0.007935,0.009338,-0.991333,0.068183,0.356031,-0.161527,48,283,580,6016
1644178847.632055,-0.010193,0.012329,-0.99176,0.342992,0.539237,-0.039389,49,280,584,5984
1644178847.680416,-0.005737,0.010315,-0.990356,0.190321,0.386565,-0.161527,47,270,584,6016
1644178847.728838,-0.007202,0.010864,-0.991272,0.35826,0.310229,-0.069924,46,274,583,6016
1644178847.777225,-0.005615,0.011475,-0.991882,0.190321,0.386565,-0.130992,48,266,585,6000
1644178847.825636,-0.008728,0.009155,-0.99115,0.190321,0.371298,-0.054656,58,269,580,5904
1644178847.874054,-0.007507,0.009521,-0.991699,0.281924,0.371298,-0.100458,53,269,587,6000
1644178847.92245,-0.009338,0.009949,-0.990723,0.266656,0.356031,-0.130992,52,275,584,6048
1644178847.970823,-0.010193,0.011292,-0.993347,0.312458,0.417099,0.006412,42,275,582,6048
1644178848.019233,-0.007568,0.010315,-0.991699,0.266656,0.447634,0.036947,47,270,582,6080
1644178848.091413,-0.007507,0.010315,-0.990417,0.220855,0.24916,-0.069924,46,276,583,6016
1644178848.12129,-0.009277,0.011719,-0.993103,0.159786,0.401832,-0.085191,46,283,587,6000
1644178848.165652,-0.008118,0.008118,-0.98938,0.327725,0.493435,-0.085191,41,274,590,6016
1644178848.261137,-0.008484,0.009644,-0.993042,0.251389,0.371298,-0.130992,51,286,587,6000
1644178848.309537,-0.007996,0.008911,-0.992615,0.297191,0.401832,-0.161527,58,279,580,6000
1644178848.357926,-0.010132,0.00885,-0.989929,0.281924,0.371298,0.067481,48,281,580,6016
1644178848.406297,-0.007202,0.008972,-0.991272,0.175053,0.600305,-0.115725,42,287,582,6016
1644178848.454729,-0.009338,0.008484,-0.989563,0.342992,0.340763,0.021679,46,271,594,6080
1644178848.503091,-0.009338,0.008911,-0.994812,0.297191,0.340763,-0.283664,47,277,584,6016
1644178848.551554,-0.010376,0.010986,-0.989685,0.342992,0.493435,-0.024122,46,274,590,5984
1644178848.599885,-0.007812,0.007019,-0.991211,0.251389,0.371298,-0.192061,47,277,582,6016
1644178848.648292,-0.007202,0.008118,-0.991394,0.342992,0.371298,0.067481,49,282,586,6016
1644178848.696657,-0.01123,0.00824,-0.991577,0.35826,0.417099,-0.161527,51,279,592,6080
1644178848.745181,-0.008911,0.008057,-0.991638,0.113985,0.310229,-0.054656,57,287,589,6064
1644178848.793478,-0.007324,0.012268,-0.991394,0.205588,0.523969,-0.085191,48,276,571,5904
1644178848.841902,-0.009827,0.011597,-0.988892,0.220855,0.462901,-0.085191,54,285,582,6000
1644178848.890286,-0.008789,0.011353,-0.992065,0.251389,0.371298,-0.024122,49,287,591,6000
1644178848.938672,-0.009216,0.008789,-0.992126,0.08345,0.493435,-0.130992,42,282,584,6048
1644178848.987064,-0.007812,0.012695,-0.990601,0.281924,0.432366,-0.25313,53,274,590,6016
1644178849.035419,-0.006348,0.008606,-0.988647,0.266656,0.386565,0.052214,43,279,587,6112
1644178849.095509,-0.004578,0.01123,-0.991089,0.236122,0.371298,-0.161527,49,282,589,6048
1644178849.132231,-0.006958,0.011719,-0.991394,0.251389,0.478168,-0.039389,52,275,582,6016
1644178849.180812,-0.007629,0.01062,-0.991699,0.220855,0.371298,-0.115725,59,280,582,6016
1644178849.231365,-0.008789,0.010681,-0.988647,0.236122,0.233893,-0.069924,52,268,596,6048
1644178849.281546,-0.010864,0.010559,-0.992737,0.312458,0.310229,-0.176794,45,270,579,6048
1644178849.326579,-0.007141,0.01062,-0.992859,0.175053,0.508702,-0.176794,45,282,582,6080
1644178849.42257,-0.008972,0.007202,-0.991943,0.159786,0.310229,-0.100458,43,281,578,6016
1644178849.470941,-0.008362,0.014587,-0.990112,0.342992,0.417099,-0.14626,52,277,586,5952
1644178849.519343,-0.011108,0.008362,-0.991577,0.388794,0.340763,-0.115725,48,279,580,6016
1644178849.567728,-0.01062,0.010803,-0.994812,0.175053,0.417099,-0.115725,58,271,576,6112
1644178849.61612,-0.008484,0.009888,-0.989929,0.281924,0.264427,-0.176794,46,274,583,5984
1644178849.66451,-0.008728,0.006592,-0.993469,0.35826,0.325496,-0.069924,53,274,590,5936
1644178849.712926,-0.009277,0.008423,-0.990723,0.236122,0.493435,-0.237863,45,285,570,5984
1644178849.761311,-0.00824,0.010742,-0.991821,0.205588,0.462901,-0.069924,39,271,592,6048
1644178849.809692,-0.011169,0.009583,-0.993835,0.175053,0.478168,-0.069924,46,283,578,5952
1644178849.858113,-0.008362,0.01239,-0.990662,0.190321,0.417099,-0.130992,55,276,590,6016
1644178849.906497,-0.007385,0.01001,-0.989441,0.129252,0.340763,-0.222595,51,286,587,6048
1644178849.954946,-0.010193,0.008423,-0.991821,0.175053,0.294962,0.052214,47,275,579,5984
1644178850.003304,-0.010742,0.006531,-0.991638,0.08345,0.401832,-0.069924,53,276,592,6000
1644178850.069373,-0.008545,0.006836,-0.991577,0.35826,0.386565,-0.100458,53,279,580,6016
1644178850.100151,-0.010742,0.007568,-0.992554,0.312458,0.447634,-0.085191,52,275,586,6048
1644178850.148466,-0.009338,0.011108,-0.991455,0.190321,0.371298,-0.039389,51,281,585,6064
1644178850.196832,-0.012085,0.009827,-0.991394,0.281924,0.386565,-0.130992,61,280,584,6016
1644178850.245219,-0.010559,0.006531,-0.990723,0.327725,0.447634,-0.054656,48,276,583,6016
1644178850.293608,-0.010193,0.01178,-0.992554,0.251389,0.386565,-0.100458,65,281,578,6064
1644178850.34236,-0.008789,0.008972,-0.991943,0.175053,0.371298,-0.024122,51,276,583,6048
1644178850.392751,-0.00885,0.009155,-0.993042,0.205588,0.325496,-0.115725,39,274,585,5936
1644178850.443208,-0.009155,0.010071,-0.99115,0.510931,0.417099,-0.14626,40,285,586,6000
1644178850.488273,-0.008911,0.009521,-0.99231,0.220855,0.371298,-0.161527,48,269,587,5984
1644178850.58398,-0.008484,0.010742,-0.991577,0.098718,0.401832,-0.100458,46,281,583,6048
1644178850.632396,-0.011536,0.010376,-0.991638,0.35826,0.279695,-0.054656,55,279,590,6064
1644178850.68075,-0.010315,0.00885,-0.99292,0.205588,0.493435,0.082748,51,271,583,5984
1644178850.729158,-0.008423,0.009644,-0.995361,0.098718,0.371298,-0.176794,53,279,576,5984
1644178850.777535,-0.009216,0.009399,-0.991028,0.312458,0.493435,0.021679,47,282,586,6016
1644178850.825918,-0.007324,0.009216,-0.992493,0.175053,0.478168,-0.161527,38,280,586,6000
1644178850.874375,-0.008789,0.01355,-0.992615,0.205588,0.356031,0.021679,41,274,573,6016
1644178850.922736,-0.009399,0.009155,-0.991455,0.297191,0.523969,-0.008855,51,271,583,6016
1644178850.971151,-0.010315,0.009094,-0.991577,0.129252,0.310229,-0.008855,52,285,582,6016
1644178851.019535,-0.007935,0.010376,-0.991516,0.220855,0.371298,-0.115725,45,277,586,6048
1644178851.074512,-0.007141,0.008423,-0.991394,0.190321,0.401832,-0.130992,46,271,587,5984
1644178851.116331,-0.010315,0.012146,-0.99353,0.266656,0.310229,-0.085191,57,273,591,5952
1644178851.164713,-0.010742,0.007385,-0.988464,0.312458,0.386565,-0.008855,41,271,573,6016
1644178851.213088,-0.012146,0.010742,-0.992798,0.251389,0.401832,-0.024122,45,275,591,6000
1644178851.261441,-0.010315,0.008728,-0.990112,0.175053,0.478168,-0.14626,57,285,582,5984
1644178851.309848,-0.009033,0.009766,-0.994141,0.190321,0.401832,-0.024122,47,275,575,6000
1644178851.358255,-0.008179,0.009338,-0.990662,0.327725,0.447634,-0.36,47,282,579,6064
1644178851.40664,-0.010681,0.01062,-0.992981,0.159786,0.417099,0.036947,48,276,585,6016
1644178851.455059,-0.009766,0.010742,-0.995544,0.220855,0.371298,0.006412,55,279,585,6016
1644178851.503831,-0.005737,0.010742,-0.989075,0.312458,0.340763,0.006412,45,282,584,5984
1644178851.553635,-0.013977,0.007812,-0.991516,0.419328,0.310229,-0.039389,52,277,586,6064
1644178851.603878,-0.010803,0.008118,-0.989197,0.144519,0.294962,-0.192061,43,276,590,5984
1644178851.649059,-0.00647,0.008972,-0.991272,0.129252,0.493435,-0.14626,38,277,579,6048
1644178851.745394,-0.00824,0.007263,-0.991943,0.007115,0.356031,0.052214,53,276,590,6048
1644178851.793782,-0.010193,0.008667,-0.991211,0.327725,0.462901,-0.14626,42,277,579,6000
1644178851.842386,-0.010742,0.00885,-0.991577,0.251389,0.478168,-0.25313,48,276,585,5984
1644178851.890598,-0.008606,0.008484,-0.992065,0.159786,0.371298,-0.085191,45,280,586,6080
1644178851.938972,-0.006836,0.008667,-0.992981,0.220855,0.493435,-0.100458,53,276,578,6000
1644178851.987364,-0.009094,0.00885,-0.99353,0.113985,0.432366,-0.130992,48,276,590,6016
1644178852.035758,-0.00824,0.008789,-0.992432,0.281924,0.523969,-0.14626,51,274,594,6016
1644178852.090547,-0.008972,0.008911,-0.992065,0.205588,0.294962,-0.192061,58,279,585,6064
1644178852.132633,-0.003601,0.010742,-0.992126,0.281924,0.371298,-0.069924,48,281,578,5984
1644178852.180879,-0.007446,0.012085,-0.995178,-0.008153,0.356031,-0.039389,48,276,585,6080
1644178852.229318,-0.00647,0.010254,-0.989929,0.251389,0.294962,-0.14626,47,277,596,6048
1644178852.277699,-0.007751,0.009216,-0.990112,0.190321,0.417099,-0.192061,51,283,587,5984
1644178852.326087,-0.007568,0.006592,-0.993896,0.190321,0.539237,-0.207328,49,282,584,6080
1644178852.374513,-0.00946,0.008545,-0.991516,0.236122,0.401832,-0.100458,51,276,587,6080
1644178852.424723,-0.009705,0.008301,-0.990967,0.190321,0.340763,-0.161527,41,276,587,6048
1644178852.47536,-0.008423,0.01178,-0.991821,0.266656,0.325496,-0.207328,49,275,591,6080
1644178852.520591,-0.009155,0.010437,-0.990479,0.068183,0.401832,-0.130992,53,274,590,5984
1644178852.616429,-0.009766,0.00885,-0.991028,0.129252,0.417099,-0.039389,53,286,571,6000
1644178852.664868,-0.008911,0.006958,-0.991089,0.08345,0.432366,-0.039389,53,269,573,5984
1644178852.713222,-0.009521,0.008301,-0.991211,0.08345,0.356031,-0.161527,53,276,587,6000
1644178852.761594,-0.010925,0.009888,-0.991516,0.35826,0.386565,-0.069924,49,280,579,6048
1644178852.809997,-0.007202,0.01123,-0.992981,0.327725,0.386565,-0.176794,49,270,579,6048
1644178852.858392,-0.005737,0.009033,-0.989685,0.251389,0.340763,-0.192061,53,276,580,6016
1644178852.906816,-0.006775,0.009827,-0.991882,0.144519,0.325496,-0.039389,45,273,572,5984
1644178852.955292,-0.010376,0.009094,-0.989441,0.190321,0.340763,-0.268397,58,271,578,6080
1644178853.003612,-0.007385,0.010193,-0.992676,0.129252,0.432366,0.021679,41,286,576,5984
1644178853.06026,-0.009888,0.009338,-0.991943,0.220855,0.233893,-0.069924,58,279,580,6000
1644178853.100942,-0.010193,0.009094,-0.990845,0.266656,0.432366,-0.161527,38,277,589,6000
1644178853.148788,-0.007629,0.008728,-0.990906,0.281924,0.447634,-0.100458,55,281,583,6080
1644178853.197175,-0.009583,0.012085,-0.992004,0.08345,0.24916,0.098015,60,274,576,5984
1644178853.245578,-0.008972,0.008667,-0.990784,0.297191,0.371298,0.021679,60,271,585,6000
1644178853.29395,-0.009766,0.008911,-0.992004,0.312458,0.340763,-0.069924,49,277,589,5984
1644178853.342377,-0.009705,0.00769,-0.991272,0.236122,0.478168,0.021679,47,273,579,5984
1644178853.390745,-0.012146,0.011597,-0.992188,0.312458,0.340763,0.036947,51,283,594,6048
1644178853.43945,-0.009949,0.007141,-0.991516,0.297191,0.356031,-0.161527,52,285,579,6016
1644178853.487531,-0.005981,0.010498,-0.990601,0.113985,0.356031,0.006412,57,277,589,5984
1644178853.537664,-0.007141,0.008972,-0.990173,0.281924,0.432366,-0.130992,55,274,578,6016
1644178853.587941,-0.009338,0.008118,-0.993103,0.205588,0.356031,-0.100458,49,287,582,5984
1644178853.638157,-0.008118,0.00824,-0.990295,0.175053,0.432366,-0.14626,46,269,590,6080
1644178853.682649,-0.009216,0.013306,-0.994385,0.159786,0.493435,-0.085191,41,279,587,5984
1644178853.777883,-0.00946,0.007019,-0.993835,0.281924,0.478168,-0.024122,53,281,569,6000
1644178853.826258,-0.007385,0.008484,-0.99115,0.266656,0.508702,-0.100458,36,279,580,6080
1644178853.874679,-0.009766,0.010193,-0.994019,0.190321,0.432366,-0.14626,51,281,583,6048
1644178853.923097,-0.011719,0.00946,-0.992981,0.236122,0.401832,-0.298931,47,273,586,6016
1644178853.971439,-0.010498,0.007812,-0.990051,0.312458,0.325496,-0.115725,46,279,583,6080
1644178854.01986,-0.010864,0.007874,-0.993164,0.342992,0.569771,-0.222595,55,276,578,5984
1644178854.069407,-0.00946,0.009949,-0.992676,0.281924,0.508702,-0.054656,47,275,589,6016
1644178854.116603,-0.008057,0.010742,-0.994019,0.190321,0.294962,-0.085191,47,280,586,6048
1644178854.165107,-0.010132,0.009033,-0.993042,0.175053,0.447634,-0.069924,49,280,582,6016
1644178854.213387,-0.009888,0.011841,-0.990112,0.190321,0.279695,-0.115725,43,276,580,6048
1644178854.261773,-0.011475,0.009277,-0.991638,0.205588,0.24916,-0.375267,48,279,585,6048
1644178854.310141,-0.008179,0.00769,-0.99231,0.205588,0.386565,-0.161527,46,286,590,6080
1644178854.358553,-0.012207,0.009888,-0.992004,0.251389,0.401832,-0.085191,47,273,582,6016
1644178854.406944,-0.008911,0.009399,-0.990784,0.236122,0.325496,-0.054656,51,283,590,6016
1644178854.455309,-0.006287,0.010437,-0.991882,0.068183,0.401832,-0.192061,47,282,584,5984
1644178854.503702,-0.010925,0.00824,-0.991455,0.266656,0.523969,-0.268397,45,277,591,6000
1644178854.552336,-0.007629,0.009583,-0.992859,0.159786,0.356031,-0.298931,49,280,589,6016
1644178854.600513,-0.009338,0.010742,-0.98999,0.144519,0.508702,-0.192061,52,277,579,6000
1644178854.648898,-0.011353,0.01062,-0.992432,0.159786,0.356031,0.006412,48,286,580,5952
1644178854.697863,-0.008972,0.008667,-0.991943,0.159786,0.432366,-0.237863,46,276,594,6016
1644178854.748344,-0.011414,0.008545,-0.991333,0.480397,0.356031,-0.054656,55,279,590,6080
1644178854.798718,-0.008484,0.011475,-0.992981,0.220855,0.371298,-0.130992,48,281,580,6048
1644178854.843795,-0.008423,0.006775,-0.991699,0.236122,0.294962,-0.054656,45,270,577,6080
1644178854.939281,-0.008301,0.010498,-0.991089,0.220855,0.569771,-0.115725,55,286,590,6080
1644178854.987701,-0.009888,0.010254,-0.990845,0.068183,0.325496,-0.100458,57,270,579,6080
1644178855.036081,-0.006226,0.009705,-0.991516,0.327725,0.447634,-0.130992,55,264,590,6048
1644178855.088207,-0.008789,0.010254,-0.994385,0.144519,0.356031,-0.100458,51,269,594,6080
1644178855.132849,-0.012329,0.012695,-0.989868,0.312458,0.493435,-0.176794,52,275,584,6064
1644178855.181223,-0.007507,0.011169,-0.991821,0.190321,0.340763,0.006412,46,271,580,5984
1644178855.229621,-0.010376,0.009155,-0.990051,0.281924,0.447634,-0.25313,54,277,593,6048
1644178855.278009,-0.006958,0.008484,-0.993835,0.281924,0.432366,-0.390534,51,279,578,6000
1644178855.32638,-0.013916,0.006958,-0.992981,0.205588,0.478168,-0.36,43,274,585,6000
1644178855.374802,-0.008484,0.010132,-0.992371,0.266656,0.325496,-0.14626,51,271,583,6016
1644178855.423187,-0.008667,0.008301,-0.991943,0.266656,0.478168,-0.115725,46,279,585,5984
1644178855.47158,-0.010193,0.009521,-0.992188,0.190321,0.310229,-0.100458,39,269,583,6048
1644178855.520028,-0.010742,0.009705,-0.99176,0.129252,0.401832,-0.176794,49,275,593,6000
1644178855.568358,-0.008911,0.009338,-0.993103,0.251389,0.279695,-0.130992,52,282,584,5952
1644178855.616744,-0.009766,0.008118,-0.993164,0.175053,0.447634,0.021679,47,277,593,5952
1644178855.665176,-0.010437,0.010742,-0.993225,0.220855,0.478168,-0.222595,48,274,590,6064
1644178855.71353,-0.014343,0.008606,-0.989929,0.297191,0.493435,-0.130992,45,273,584,6048
1644178855.762259,-0.008911,0.011902,-0.992188,0.266656,0.386565,-0.100458,48,283,587,6048
1644178855.810955,-0.009644,0.008301,-0.988586,0.159786,0.401832,-0.024122,38,285,584,6016
1644178855.861973,-0.010193,0.010559,-0.991882,0.052916,0.340763,-0.085191,49,273,579,6112
1644178855.912304,-0.012329,0.009033,-0.991699,0.205588,0.478168,-0.161527,55,283,590,6016
1644178855.956748,-0.009705,0.012451,-0.989807,0.35826,0.447634,-0.161527,46,276,580,6000
1644178856.061001,-0.009888,0.00946,-0.99115,0.205588,0.447634,-0.100458,46,276,578,6080
1644178856.103145,-0.007141,0.010498,-0.992004,0.449863,0.340763,-0.130992,57,290,582,6016
1644178856.149059,-0.009644,0.009521,-0.991638,0.281924,0.432366,-0.085191,47,280,584,6048
1644178856.197464,-0.003113,0.010498,-0.991455,0.098718,0.24916,-0.115725,47,277,586,5952
1644178856.245829,-0.008667,0.007812,-0.992493,0.159786,0.447634,-0.024122,58,276,590,5984
1644178856.294261,-0.009216,0.009521,-0.991882,0.190321,0.279695,-0.039389,52,275,589,6000
1644178856.342649,-0.007141,0.012085,-0.990723,0.251389,0.340763,-0.100458,54,277,589,5984
1644178856.390995,-0.010742,0.010193,-0.990784,0.205588,0.432366,-0.024122,46,293,578,6000
1644178856.439423,-0.006653,0.01178,-0.993103,0.113985,0.386565,-0.115725,46,293,576,6080
1644178856.487796,-0.009888,0.011169,-0.993286,0.175053,0.432366,-0.100458,48,281,585,6048
1644178856.536195,-0.007874,0.011597,-0.992798,0.113985,0.447634,-0.161527,51,276,585,6016
1644178856.584653,-0.008728,0.008728,-0.993103,0.312458,0.325496,-0.054656,55,276,587,6064
1644178856.633518,-0.008972,0.009827,-0.99353,0.205588,0.233893,-0.054656,42,280,582,6016
1644178856.684034,-0.011353,0.01001,-0.990295,0.159786,0.325496,-0.222595,49,273,577,6048
1644178856.734112,-0.006409,0.008728,-0.990051,0.404061,0.325496,-0.176794,52,275,584,6000
1644178856.779191,-0.01001,0.009949,-0.992188,0.220855,0.432366,-0.176794,46,281,583,6016
1644178856.875244,-0.007568,0.007751,-0.994568,0.297191,0.386565,-0.069924,60,279,587,6080
1644178856.923384,-0.007324,0.010376,-0.995178,0.266656,0.356031,-0.115725,43,276,587,5936
1644178856.971755,-0.008484,0.01178,-0.990845,0.052916,0.264427,-0.039389,49,290,584,6016
1644178857.020135,-0.009338,0.009216,-0.992798,0.220855,0.462901,-0.039389,53,274,569,6016
1644178857.068964,-0.009888,0.00946,-0.99231,0.175053,0.386565,-0.237863,51,279,583,5984
1644178857.116912,-0.011108,0.006653,-0.991577,-0.053954,0.523969,-0.085191,49,273,577,6000
1644178857.165293,-0.009644,0.010254,-0.992249,0.220855,0.523969,-0.039389,46,271,580,6080
1644178857.213702,-0.012146,0.007996,-0.992798,0.144519,0.417099,-0.237863,53,281,583,6080
1644178857.262089,-0.009888,0.01062,-0.993103,0.190321,0.401832,-0.039389,54,275,584,6048
1644178857.310448,-0.008484,0.008423,-0.995972,0.266656,0.24916,0.098015,41,269,585,6048
1644178857.358857,-0.009155,0.008728,-0.993469,0.175053,0.462901,-0.237863,53,281,583,6080
1644178857.407265,-0.006714,0.012634,-0.993286,0.297191,0.63084,-0.008855,45,280,579,6000
1644178857.455652,-0.007935,0.008423,-0.991821,0.251389,0.417099,-0.069924,52,277,582,6016
1644178857.504062,-0.008728,0.008179,-0.992798,0.190321,0.386565,-0.069924,51,279,585,5984
1644178857.552454,-0.007507,0.010254,-0.991272,0.113985,0.386565,-0.085191,57,270,586,6128
1644178857.600834,-0.009521,0.009644,-0.99176,0.281924,0.401832,-0.207328,51,276,585,5984
1644178857.649185,-0.008972,0.010803,-0.991577,0.144519,0.233893,-0.039389,43,279,585,5952
1644178857.697587,-0.008301,0.009155,-0.99353,0.190321,0.401832,-0.176794,52,270,584,6048
1644178857.745976,-0.008606,0.009705,-0.991821,0.037649,0.462901,-0.283664,45,270,584,5984
1644178857.79442,-0.005676,0.007385,-0.98999,0.220855,0.417099,-0.130992,51,281,580,6016
1644178857.844964,-0.008911,0.010254,-0.99115,0.129252,0.432366,0.052214,46,276,587,6080
1644178857.896186,-0.010742,0.010864,-0.992676,0.327725,0.386565,-0.024122,49,277,582,6016
1644178857.940667,-0.009644,0.012756,-0.992371,0.236122,0.371298,-0.115725,43,286,580,6016
1644178858.036372,-0.010559,0.010132,-0.992493,0.373527,0.508702,-0.054656,48,281,585,5984
1644178858.08554,-0.008057,0.010132,-0.991943,0.129252,0.325496,-0.115725,51,269,594,5984
1644178858.133183,-0.008545,0.014526,-0.992676,0.220855,0.462901,-0.115725,60,271,587,6000
1644178858.18154,-0.011475,0.011841,-0.989502,0.297191,0.356031,-0.039389,49,273,577,5984
1644178858.229936,-0.007812,0.010315,-0.989807,0.159786,0.340763,-0.069924,53,283,580,6000
1644178858.278284,-0.008606,0.00946,-0.991882,0.098718,0.417099,-0.008855,47,290,579,6048
1644178858.326706,-0.009705,0.00946,-0.99176,0.266656,0.356031,-0.008855,49,273,593,5984
1644178858.375208,-0.009766,0.010925,-0.993469,0.220855,0.279695,0.082748,49,280,584,6000
1644178858.423517,-0.006531,0.010437,-0.991882,0.190321,0.401832,-0.268397,52,275,584,5936
1644178858.471893,-0.007629,0.010864,-0.991699,0.007115,0.294962,-0.237863,45,277,593,6000
1644178858.520276,-0.01178,0.00946,-0.994995,0.312458,0.356031,-0.024122,45,277,584,6048
1644178858.568672,-0.009033,0.010559,-0.993286,0.098718,0.432366,-0.039389,42,275,584,5984
1644178858.61706,-0.008301,0.009644,-0.988831,0.190321,0.356031,-0.069924,52,285,584,5984
1644178858.665466,-0.008606,0.009583,-0.993164,0.266656,0.417099,-0.069924,57,275,600,6048
1644178858.713832,-0.011108,0.008911,-0.990845,0.297191,0.310229,-0.085191,51,269,594,6000
1644178858.762254,-0.008301,0.008606,-0.993042,0.205588,0.493435,-0.115725,60,283,580,5984
1644178858.810622,-0.009766,0.007996,-0.991638,0.190321,0.493435,-0.039389,43,283,592,5984
1644178858.860034,-0.007507,0.010315,-0.991089,0.052916,0.401832,-0.100458,58,276,580,5984
1644178858.910169,-0.007996,0.008911,-0.990479,0.068183,0.386565,-0.054656,52,282,591,6080
1644178858.960507,-0.009766,0.00885,-0.99353,0.190321,0.417099,-0.237863,53,266,585,6016
1644178859.06504,-0.009644,0.01001,-0.992615,0.312458,0.371298,-0.14626,49,285,591,6080
1644178859.102242,-0.008179,0.007568,-0.993347,0.129252,0.325496,-0.25313,51,279,585,6000
1644178859.149412,-0.007996,0.010498,-0.990723,0.129252,0.233893,-0.085191,55,286,585,6048
1644178859.197771,-0.010254,0.011169,-0.99115,0.281924,0.585038,-0.207328,49,275,582,6016
1644178859.246128,-0.007751,0.011108,-0.990967,0.159786,0.172824,-0.054656,48,286,573,6000
1644178859.294536,-0.01239,0.00769,-0.994019,0.205588,0.371298,-0.100458,53,276,578,6000
1644178859.342963,-0.010071,0.007874,-0.993225,0.159786,0.233893,-0.069924,48,283,587,6016
1644178859.391334,-0.009094,0.009949,-0.992371,0.297191,0.401832,0.006412,51,274,583,5984
1644178859.439721,-0.010315,0.010986,-0.991272,0.251389,0.24916,-0.100458,36,276,583,6064
1644178859.48812,-0.005859,0.007324,-0.991394,0.342992,0.386565,-0.024122,53,283,583,6112
1644178859.536474,-0.009705,0.01178,-0.992249,0.220855,0.462901,-0.115725,59,282,584,6048
1644178859.584887,-0.010254,0.007507,-0.99408,0.190321,0.401832,-0.25313,45,275,584,6016
1644178859.633544,-0.009766,0.009338,-0.993591,0.281924,0.432366,0.021679,54,280,593,6000
1644178859.682384,-0.007019,0.011658,-0.993225,0.236122,0.462901,-0.008855,41,271,583,6080
1644178859.732928,-0.010559,0.008362,-0.991089,0.327725,0.356031,0.052214,47,277,582,6048
1644178859.783134,-0.008728,0.010864,-0.991089,0.190321,0.24916,-0.085191,52,265,589,5888
1644178859.828059,-0.009277,0.007629,-0.991028,0.251389,0.356031,0.082748,45,285,584,6000
1644178859.923707,-0.009521,0.009583,-0.991882,0.35826,0.523969,-0.054656,55,286,587,6016
1644178859.972077,-0.009155,0.012329,-0.99176,0.236122,0.417099,-0.115725,57,268,572,5952
1644178860.020603,-0.007935,0.009399,-0.99231,0.327725,0.264427,-0.100458,43,279,580,6016
1644178860.069078,-0.01001,0.009583,-0.991272,0.205588,0.462901,-0.115725,55,269,587,6000
1644178860.117207,-0.011963,0.010559,-0.990417,0.312458,0.310229,-0.024122,47,280,586,6000
1644178860.165577,-0.011047,0.009521,-0.992493,0.159786,0.417099,-0.069924,53,279,583,6016
1644178860.214015,-0.010376,0.011108,-0.992004,0.281924,0.294962,0.006412,58,274,580,6016
1644178860.262406,-0.009888,0.007812,-0.989807,0.220855,0.417099,-0.192061,47,277,584,6064
1644178860.310775,-0.008789,0.009094,-0.989319,0.373527,0.264427,-0.36,40,282,586,5984
1644178860.359172,-0.006409,0.011047,-0.991028,0.220855,0.386565,-0.100458,48,274,592,6048
1644178860.407576,-0.010864,0.007385,-0.993103,0.220855,0.371298,-0.314198,45,280,591,6000
1644178860.455971,-0.00708,0.009644,-0.992615,0.266656,0.493435,-0.161527,41,274,587,6000
1644178860.504382,-0.010681,0.011108,-0.989624,0.052916,0.462901,-0.176794,47,277,596,6016
1644178860.552765,-0.007568,0.011047,-0.993591,0.266656,0.386565,0.052214,42,275,582,6048
1644178860.601141,-0.007446,0.007446,-0.994629,0.281924,0.356031,0.006412,43,286,587,6000
1644178860.649536,-0.008789,0.011902,-0.991272,0.281924,0.401832,-0.054656,48,286,587,6080
1644178860.697915,-0.010681,0.007019,-0.991821,0.281924,0.493435,-0.161527,42,275,572,6048
1644178860.746305,-0.008301,0.007385,-0.993408,0.388794,0.417099,-0.130992,55,288,585,6000
1644178860.794997,-0.009827,0.007568,-0.989868,0.052916,0.188092,-0.176794,53,279,580,6000
1644178860.844607,-0.008606,0.010498,-0.992065,0.190321,0.264427,-0.085191,57,275,586,6064
1644178860.894773,-0.010559,0.008911,-0.990906,0.205588,0.340763,-0.069924,46,269,583,5984
1644178860.94534,-0.007385,0.007568,-0.991577,0.388794,0.462901,-0.085191,55,279,587,6000
1644178860.9892,-0.010803,0.008606,-0.992493,0.404061,0.554504,-0.161527,51,274,587,6000
1644178861.085458,-0.005493,0.010742,-0.992249,0.327725,0.371298,-0.024122,53,274,590,5952
1644178861.133469,-0.010437,0.01001,-0.994263,0.251389,0.386565,-0.054656,45,275,577,6016
1644178861.181836,-0.013123,0.010681,-0.992493,0.159786,0.417099,-0.024122,57,275,589,6016
1644178861.23023,-0.011414,0.008484,-0.991394,0.297191,0.508702,-0.192061,53,266,585,6016
1644178861.27862,-0.009583,0.009827,-0.994385,0.327725,0.462901,-0.008855,45,273,584,6080
1644178861.327028,-0.010315,0.009827,-0.991394,0.175053,0.447634,0.006412,53,279,578,5984
1644178861.375412,-0.007141,0.009766,-0.993164,-0.008153,0.188092,-0.085191,39,279,585,6064
1644178861.4238,-0.008667,0.008667,-0.992371,0.175053,0.417099,-0.207328,39,291,592,6000
1644178861.472219,-0.010925,0.006592,-0.991089,0.297191,0.462901,-0.085191,52,280,589,6064
1644178861.520587,-0.009216,0.007568,-0.992249,0.113985,0.508702,-0.085191,39,283,578,6016
1644178861.568991,-0.006958,0.006531,-0.990845,0.297191,0.523969,-0.069924,55,283,580,6048
1644178861.617381,-0.009155,0.007324,-0.993591,0.022382,0.325496,-0.207328,46,283,578,6016
1644178861.665766,-0.010864,0.009705,-0.991394,0.388794,0.218626,-0.039389,47,282,584,6016
1644178861.714164,-0.005371,0.01062,-0.992859,0.251389,0.371298,-0.008855,47,268,584,6016
1644178861.762538,-0.008606,0.005066,-0.993408,0.190321,0.356031,-0.237863,52,280,584,6000
1644178861.810978,-0.007446,0.010986,-0.989197,0.35826,0.264427,-0.024122,49,282,577,6016
1644178861.859378,-0.007507,0.006714,-0.988831,0.342992,0.432366,-0.100458,51,286,597,6016
1644178861.907762,-0.011047,0.00769,-0.991943,0.312458,0.371298,-0.161527,42,273,589,6016
1644178861.956142,-0.008118,0.007996,-0.991699,0.236122,0.24916,-0.024122,54,268,589,6048
1644178862.005938,-0.010132,0.009399,-0.990234,0.098718,0.356031,-0.14626,49,273,584,5984
1644178862.082371,-0.007629,0.009705,-0.99469,0.388794,0.371298,-0.024122,60,281,583,5952
1644178862.11376,-0.008911,0.010315,-0.992249,0.159786,0.401832,-0.069924,46,279,583,6048
1644178862.15061,-0.010925,0.009888,-0.993591,0.35826,0.24916,-0.100458,46,266,583,6000
1644178862.246462,-0.008362,0.011719,-0.992249,0.190321,0.539237,-0.25313,45,282,586,6048
1644178862.294867,-0.010986,0.011047,-0.990906,0.159786,0.386565,0.006412,54,275,577,6016
1644178862.343266,-0.011353,0.010437,-0.991516,0.312458,0.432366,-0.085191,60,274,583,5984
1644178862.391647,-0.011108,0.008057,-0.993042,0.373527,0.417099,-0.100458,40,265,577,6016
1644178862.440048,-0.008423,0.009338,-0.990906,0.129252,0.462901,-0.008855,48,279,590,6000
1644178862.488424,-0.01062,0.006897,-0.992065,0.251389,0.371298,-0.161527,46,274,580,6064
1644178862.536836,-0.010742,0.011719,-0.990723,0.159786,0.356031,-0.115725,59,280,589,6000
1644178862.585215,-0.008789,0.009583,-0.993103,0.220855,0.356031,-0.192061,47,280,586,6000
1644178862.633625,-0.011841,0.00885,-0.994263,0.388794,0.371298,-0.100458,39,276,587,6064
1644178862.681976,-0.00769,0.008484,-0.9953,0.159786,0.371298,-0.008855,59,275,584,5984
1644178862.730391,-0.008789,0.010803,-0.991699,0.08345,0.462901,-0.054656,55,283,573,6016
1644178862.778786,-0.009338,0.007812,-0.993408,0.205588,0.401832,-0.100458,49,280,591,6048
1644178862.827217,-0.008484,0.010803,-0.990967,0.159786,0.432366,-0.176794,47,270,586,6016
1644178862.875574,-0.010986,0.009827,-0.99176,0.205588,0.371298,-0.100458,46,274,585,5984
1644178862.923995,-0.007568,0.009521,-0.989258,0.159786,0.340763,0.067481,47,275,591,6064
1644178862.972415,-0.00885,0.011475,-0.99176,0.236122,0.371298,-0.069924,49,277,593,5984
1644178863.020784,-0.008545,0.010193,-0.991577,0.220855,0.386565,0.052214,45,282,586,6016
1644178863.080767,-0.007935,0.009155,-0.990723,0.159786,0.371298,-0.054656,59,270,579,6048
1644178863.165903,-0.007385,0.007751,-0.989075,0.251389,0.462901,-0.237863,41,276,578,6016
1644178863.214306,-0.004395,0.010864,-0.991455,0.113985,0.340763,-0.008855,48,274,583,6048
1644178863.262701,-0.008118,0.010559,-0.990906,0.159786,0.478168,-0.161527,52,280,579,6016
1644178863.311094,-0.008911,0.010376,-0.992004,0.281924,0.356031,-0.176794,49,277,589,6016
1644178863.359492,-0.007874,0.009399,-0.993225,0.236122,0.417099,-0.085191,54,280,582,6016
1644178863.407886,-0.008606,0.01178,-0.989319,0.281924,0.417099,-0.161527,49,270,589,6080
1644178863.45627,-0.007141,0.010559,-0.992249,0.251389,0.264427,-0.130992,59,282,584,5984
1644178863.504696,-0.007568,0.007202,-0.990417,0.312458,0.386565,-0.115725,40,282,589,6000
1644178863.553074,-0.01001,0.008728,-0.993225,0.251389,0.554504,-0.130992,49,277,570,6016
1644178863.601452,-0.008423,0.007812,-0.993713,0.266656,0.264427,-0.161527,49,280,584,5984
1644178863.649839,-0.006897,0.009766,-0.99292,0.251389,0.401832,-0.115725,46,279,583,6048
1644178863.698231,-0.006165,0.009644,-0.993408,0.220855,0.401832,-0.237863,45,270,589,5984
1644178863.746598,-0.008728,0.01239,-0.994202,0.175053,0.386565,-0.100458,58,271,590,5984
1644178863.795139,-0.010193,0.012451,-0.993286,0.190321,0.493435,-0.222595,46,264,587,6064
1644178863.843458,-0.00885,0.007263,-0.992676,0.312458,0.233893,-0.085191,48,262,587,6000
1644178863.89184,-0.009399,0.006714,-0.990967,0.327725,0.401832,0.006412,58,274,583,6000
1644178863.940213,-0.007874,0.008789,-0.990967,0.190321,0.356031,-0.008855,46,286,580,6000
1644178863.988623,-0.009521,0.009827,-0.99176,0.098718,0.508702,-0.085191,57,275,589,6112
1644178864.037042,-0.007324,0.011475,-0.989319,0.236122,0.432366,0.006412,54,268,589,6000
1644178864.087534,-0.008545,0.011353,-0.994324,0.281924,0.417099,-0.115725,43,276,580,6016
1644178864.137551,-0.010071,0.010193,-0.991516,0.113985,0.371298,-0.192061,57,280,586,6048
1644178864.185978,-0.00592,0.009521,-0.990601,0.220855,0.294962,-0.054656,48,286,592,6048
1644178864.231051,-0.008179,0.008789,-0.989807,0.098718,0.493435,-0.115725,46,271,578,6016
1644178864.327322,-0.008667,0.01062,-0.99292,0.251389,0.508702,-0.176794,49,292,577,6016
1644178864.375705,-0.009521,0.008911,-0.99231,0.266656,0.417099,-0.085191,47,275,582,6016
1644178864.424117,-0.008423,0.01062,-0.993652,0.342992,0.386565,0.006412,42,282,577,5984
1644178864.47252,-0.008179,0.012146,-0.99054,0.159786,0.371298,-0.176794,51,283,587,6064
1644178864.520881,-0.007874,0.012695,-0.993652,0.098718,0.340763,0.036947,49,277,584,6016
1644178864.56929,-0.009583,0.009033,-0.991882,0.144519,0.462901,0.006412,38,270,579,6080
1644178864.617668,-0.00769,0.012085,-0.992615,0.220855,0.325496,-0.069924,41,274,578,5952
1644178864.666069,-0.007935,0.008606,-0.990845,0.297191,0.554504,-0.115725,48,283,578,6016
1644178864.714477,-0.009338,0.011047,-0.989502,0.159786,0.417099,-0.115725,45,282,586,6016
1644178864.762884,-0.012695,0.008667,-0.992432,0.175053,0.371298,-0.085191,48,274,585,6016
1644178864.81126,-0.010437,0.011169,-0.991272,0.220855,0.401832,-0.14626,47,268,589,6016
1644178864.859693,-0.006042,0.010376,-0.992065,0.175053,0.371298,-0.039389,47,275,577,6000
1644178864.908083,-0.010437,0.010925,-0.992188,0.342992,0.462901,-0.14626,57,282,582,6048
1644178864.956439,-0.009766,0.006836,-0.993103,0.190321,0.523969,-0.130992,48,271,583,6000
1644178865.00484,-0.008911,0.008606,-0.994507,0.281924,0.462901,0.036947,48,279,587,6080
1644178865.067918,-0.011597,0.008118,-0.993896,0.144519,0.386565,-0.237863,40,273,589,6064
1644178865.105158,-0.005432,0.009644,-0.993591,0.098718,0.417099,-0.222595,47,273,589,6048
1644178865.149998,-0.007568,0.008423,-0.993469,0.190321,0.432366,-0.192061,49,277,591,6000
1644178865.198384,-0.008484,0.008911,-0.992432,0.312458,0.386565,-0.298931,52,280,584,6000
1644178865.247422,-0.009583,0.009644,-0.9953,0.281924,0.478168,-0.024122,42,273,575,6016
1644178865.297978,-0.011047,0.010681,-0.993896,0.251389,0.539237,-0.008855,48,271,578,6048
1644178865.348023,-0.010803,0.010986,-0.991638,0.236122,0.310229,-0.039389,58,274,583,5952
1644178865.393062,-0.006409,0.009338,-0.992432,0.266656,0.493435,-0.008855,54,273,575,5984
1644178865.488738,-0.011047,0.010559,-0.988892,0.327725,0.432366,-0.207328,58,274,587,5952
1644178865.537115,-0.007385,0.010437,-0.995178,0.327725,0.356031,0.052214,42,282,584,5952
1644178865.585501,-0.011169,0.010132,-0.995911,0.159786,0.432366,-0.130992,60,274,587,5984
1644178865.633888,-0.006897,0.008972,-0.99176,0.205588,0.325496,-0.039389,40,275,582,6016
1644178865.682383,-0.011108,0.011353,-0.992737,0.144519,0.386565,-0.222595,52,280,586,6048
1644178865.730698,-0.007996,0.00824,-0.98999,0.266656,0.325496,-0.085191,46,274,583,6080
1644178865.779093,-0.009583,0.007324,-0.99292,0.404061,0.386565,-0.130992,51,281,583,5952
1644178865.827466,-0.012085,0.009216,-0.99115,0.266656,0.554504,-0.268397,49,270,584,6016
1644178865.875932,-0.010864,0.011475,-0.988403,0.08345,0.371298,-0.024122,42,287,589,5984
1644178865.924334,-0.010498,0.010498,-0.991638,0.175053,0.325496,0.006412,47,270,584,5984
1644178865.972728,-0.008728,0.012024,-0.992737,0.220855,0.432366,0.052214,45,282,593,6048
1644178866.021101,-0.008972,0.009033,-0.992065,0.113985,0.447634,-0.024122,46,281,592,6016
1644178866.09069,-0.008484,0.008057,-0.993408,0.281924,0.401832,-0.222595,51,276,592,5952
1644178866.119226,-0.009521,0.007507,-0.991882,0.113985,0.371298,-0.069924,51,288,590,6016
1644178866.169617,-0.007446,0.00885,-0.990479,0.220855,0.157557,-0.14626,51,276,585,6080
1644178866.21887,-0.009155,0.010498,-0.995178,0.220855,0.294962,0.021679,54,273,589,5984
1644178866.263778,-0.007874,0.010376,-0.988831,0.281924,0.554504,-0.054656,52,282,579,6016
1644178866.359811,-0.008423,0.009644,-0.991333,0.159786,0.401832,0.052214,47,277,575,6016
1644178866.40819,-0.007996,0.011108,-0.991089,0.190321,0.523969,-0.100458,53,281,578,6016
1644178866.456583,-0.009521,0.00946,-0.990662,0.190321,0.340763,-0.14626,45,277,584,6016
1644178866.505029,-0.009216,0.00824,-0.99353,0.220855,0.478168,-0.176794,49,280,586,6016
1644178866.55335,-0.009827,0.011536,-0.993408,0.297191,0.432366,-0.237863,54,282,589,6048
1644178866.601759,-0.010437,0.011658,-0.990784,0.098718,0.432366,-0.039389,48,281,571,6016
1644178866.650157,-0.011597,0.011536,-0.993164,0.220855,0.356031,-0.130992,46,271,583,5984
1644178866.698541,-0.009644,0.005676,-0.992493,0.129252,0.386565,-0.176794,46,286,587,6080
1644178866.746923,-0.008179,0.009094,-0.99054,0.297191,0.462901,-0.25313,45,280,598,6016
1644178866.795339,-0.007568,0.005432,-0.990051,0.190321,0.417099,-0.176794,52,282,589,6016
1644178866.84374,-0.009338,0.009888,-0.991211,0.281924,0.356031,-0.069924,52,277,575,5984
1644178866.892247,-0.009094,0.010559,-0.991638,0.312458,0.340763,-0.207328,49,287,586,5936
1644178866.940549,-0.008606,0.008057,-0.990173,0.297191,0.264427,-0.14626,40,277,586,6000
1644178866.98893,-0.009216,0.013245,-0.992737,0.220855,0.478168,-0.008855,47,290,582,5952
1644178867.037295,-0.009094,0.007568,-0.992737,0.251389,0.310229,-0.069924,46,276,583,6000
1644178867.09669,-0.010437,0.00769,-0.992737,0.175053,0.508702,-0.100458,54,273,593,6000
1644178867.134127,-0.006714,0.008545,-0.990601,0.251389,0.401832,-0.25313,47,275,589,6016
1644178867.182491,-0.010193,0.01123,-0.991211,0.113985,0.24916,-0.222595,49,270,582,6048
1644178867.230871,-0.008972,0.008789,-0.993164,0.342992,0.188092,-0.207328,46,266,583,6000
1644178867.280263,-0.011719,0.010315,-0.992493,0.236122,0.508702,-0.207328,52,273,589,6128
