epoch,acc_x,acc_y,acc_z,rot_x,rot_y,rot_z,mag_x,mag_y,mag_z,temp
1644173700.013947,-0.013916,0.00946,-0.993774,0.281924,0.24916,-0.100458,64,263,584,5760
1644173700.063907,-0.013611,0.005615,-0.99408,0.297191,0.417099,-0.039389,49,280,579,5648
1644173700.110699,-0.010864,0.008789,-0.995972,0.266656,0.356031,-0.054656,46,281,583,5712
1644173700.159061,-0.010986,0.006592,-0.994568,0.236122,0.523969,-0.161527,51,279,569,5728
1644173700.207458,-0.00769,0.009644,-0.991394,0.190321,0.401832,-0.085191,35,273,579,5696
1644173700.255847,-0.011841,0.009827,-0.993225,0.205588,0.493435,-0.008855,52,275,577,5712
1644173700.304256,-0.009338,0.00824,-0.99231,0.327725,0.386565,-0.130992,43,276,576,5760
1644173700.352651,-0.010437,0.009949,-0.992493,0.205588,0.523969,-0.085191,53,274,576,5664
1644173700.401035,-0.009705,0.009094,-0.993347,0.312458,0.447634,-0.130992,43,274,578,5696
1644173700.449419,-0.010742,0.008606,-0.992371,0.281924,0.401832,-0.161527,49,275,584,5728
1644173700.497807,-0.009521,0.008057,-0.99292,0.312458,0.432366,-0.161527,45,268,570,5648
1644173700.546196,-0.011169,0.00885,-0.992737,0.281924,0.310229,-0.207328,49,277,575,5696
1644173700.594622,-0.008972,0.009827,-0.991089,0.144519,0.417099,-0.115725,46,264,573,5760
1644173700.643424,-0.007812,0.009644,-0.992432,0.327725,0.417099,0.067481,47,270,577,5664
1644173700.693637,-0.011475,0.01062,-0.993713,0.220855,0.600305,-0.024122,52,270,579,5728
1644173700.743871,-0.010071,0.00885,-0.990479,0.297191,0.462901,-0.115725,48,276,585,5728
1644173700.789091,-0.010254,0.008301,-0.993164,0.159786,0.310229,-0.130992,43,276,573,5728
1644173700.884925,-0.010254,0.009277,-0.993958,0.236122,0.462901,-0.054656,42,268,572,5712
1644173700.933371,-0.011047,0.008118,-0.992676,0.46513,0.310229,-0.039389,53,271,580,5776
1644173700.981725,-0.009155,0.007874,-0.993652,0.220855,0.386565,-0.100458,46,276,576,5696
1644173701.030131,-0.009094,0.008118,-0.992249,0.281924,0.432366,-0.115725,40,268,582,5760
1644173701.0786,-0.011902,0.010986,-0.991943,0.251389,0.569771,-0.115725,46,271,578,5664
1644173701.126882,-0.008545,0.008606,-0.991943,0.266656,0.432366,-0.115725,52,275,570,5776
1644173701.175261,-0.012024,0.008667,-0.992249,0.220855,0.539237,-0.176794,57,285,568,5664
1644173701.22367,-0.008301,0.008667,-0.995239,0.190321,0.356031,-0.024122,57,270,577,5648
1644173701.272033,-0.01239,0.006714,-0.991211,0.098718,0.386565,-0.25313,53,276,580,5712
1644173701.320449,-0.010193,0.012146,-0.99292,0.312458,0.264427,-0.130992,53,279,576,5760
1644173701.368813,-0.009521,0.006226,-0.99176,0.159786,0.371298,-0.14626,52,277,572,5712
1644173701.417232,-0.014465,0.005981,-0.991333,0.327725,0.340763,-0.085191,49,268,577,5696
1644173701.465625,-0.011597,0.009949,-0.991943,0.144519,0.325496,-0.085191,58,276,571,5696
1644173701.513996,-0.010742,0.008301,-0.990051,0.220855,0.508702,-0.130992,53,286,578,5728
1644173701.562417,-0.008545,0.009399,-0.992432,0.220855,0.401832,0.021679,49,273,572,5696
1644173701.610794,-0.011169,0.010132,-0.993896,0.205588,0.447634,-0.100458,52,275,582,5712
1644173701.659174,-0.009949,0.010132,-0.994324,0.312458,0.508702,-0.085191,53,276,573,5728
1644173701.707583,-0.012146,0.010071,-0.993286,0.220855,0.447634,-0.176794,48,271,571,5712
1644173701.755973,-0.008606,0.008179,-0.989258,0.297191,0.310229,-0.100458,40,273,577,5712
1644173701.804692,-0.011841,0.006592,-0.992493,0.159786,0.478168,-0.192061,49,273,579,5728
1644173701.855716,-0.012939,0.007629,-0.99292,0.190321,0.356031,-0.268397,51,269,569,5648
1644173701.906416,-0.008545,0.00824,-0.990967,0.129252,0.386565,-0.024122,45,270,572,5664
1644173701.950873,-0.011414,0.007263,-0.993958,0.251389,0.325496,-0.130992,49,273,579,5728
1644173702.055144,-0.012634,0.009216,-0.990723,0.251389,0.371298,-0.130992,55,279,585,5696
1644173702.096648,-0.009277,0.009216,-0.993286,0.281924,0.325496,-0.222595,53,283,580,5712
1644173702.143088,-0.008972,0.008606,-0.992676,0.205588,0.24916,-0.008855,45,273,579,5760
1644173702.191473,-0.01001,0.009216,-0.994568,0.236122,0.371298,-0.008855,45,260,582,5712
1644173702.239864,-0.010559,0.00885,-0.992615,0.251389,0.432366,-0.039389,43,276,571,5664
1644173702.288259,-0.012512,0.007263,-0.992432,0.281924,0.447634,-0.192061,55,281,576,5712
1644173702.336654,-0.011719,0.009705,-0.990662,0.251389,0.310229,-0.176794,57,277,582,5728
1644173702.385086,-0.008362,0.006165,-0.992676,0.281924,0.386565,-0.085191,60,279,576,5712
1644173702.433438,-0.009888,0.008484,-0.992554,0.129252,0.417099,-0.207328,47,280,575,5760
1644173702.481817,-0.01062,0.010254,-0.993896,0.404061,0.401832,-0.25313,57,277,582,5712
1644173702.530406,-0.01178,0.012878,-0.993958,0.251389,0.569771,-0.039389,48,271,583,5696
1644173702.579166,-0.010559,0.008667,-0.99469,0.419328,0.386565,-0.14626,58,281,580,5712
1644173702.629553,-0.01123,0.008179,-0.991333,0.159786,0.478168,-0.192061,55,279,573,5760
1644173702.679868,-0.01001,0.006836,-0.99115,0.251389,0.569771,0.006412,47,275,586,5664
1644173702.724889,-0.008301,0.006409,-0.991882,0.220855,0.386565,-0.039389,49,270,575,5712
1644173702.820563,-0.010132,0.006958,-0.991821,0.297191,0.203359,-0.222595,45,275,572,5696
1644173702.868928,-0.01239,0.008545,-0.990784,0.251389,0.371298,-0.237863,46,276,573,5760
1644173702.917387,-0.011475,0.006775,-0.993347,0.281924,0.432366,-0.222595,53,269,569,5728
1644173702.965865,-0.011292,0.009521,-0.992615,0.220855,0.508702,-0.069924,51,283,585,5696
1644173703.014161,-0.007385,0.010559,-0.992676,0.297191,0.340763,-0.115725,53,286,573,5728
1644173703.062888,-0.009216,0.012817,-0.991577,0.220855,0.493435,0.174351,39,276,576,5728
1644173703.110885,-0.00946,0.010193,-0.992188,0.35826,0.508702,-0.039389,49,285,584,5664
1644173703.1593,-0.009766,0.010559,-0.994324,0.220855,0.325496,-0.161527,59,270,568,5696
1644173703.207685,-0.008606,0.005615,-0.993652,0.281924,0.356031,-0.14626,48,279,576,5696
1644173703.256076,-0.010803,0.009216,-0.992004,0.327725,0.371298,-0.085191,53,276,580,5696
1644173703.304475,-0.009644,0.010132,-0.990234,0.220855,0.386565,-0.130992,53,271,585,5728
1644173703.352872,-0.007935,0.009888,-0.992493,0.312458,0.325496,-0.069924,52,270,572,5696
1644173703.40122,-0.008118,0.008057,-0.990784,0.281924,0.371298,0.021679,48,266,578,5696
1644173703.449645,-0.010254,0.010132,-0.994385,0.144519,0.325496,0.082748,53,276,566,5712
1644173703.498041,-0.012268,0.008789,-0.991821,0.144519,0.340763,0.052214,47,275,579,5664
1644173703.546409,-0.010559,0.008667,-0.99115,0.236122,0.508702,-0.039389,51,259,571,5696
1644173703.59478,-0.013306,0.006836,-0.991943,0.144519,0.432366,-0.192061,54,273,584,5760
1644173703.643253,-0.011719,0.010071,-0.993591,0.175053,0.554504,-0.069924,52,268,584,5712
1644173703.691604,-0.010315,0.007935,-0.992065,0.266656,0.462901,-0.008855,45,277,577,5696
1644173703.740094,-0.012024,0.009521,-0.993225,0.281924,0.493435,-0.314198,54,280,577,5664
1644173703.79113,-0.01239,0.009644,-0.99469,0.220855,0.294962,0.006412,52,275,577,5696
1644173703.841677,-0.010925,0.012634,-0.994629,0.129252,0.432366,-0.024122,58,264,576,5760
1644173703.886247,-0.00708,0.009216,-0.992615,0.266656,0.417099,-0.024122,46,271,569,5696
1644173703.981973,-0.010315,0.008911,-0.995483,0.236122,0.447634,-0.176794,46,271,576,5664
1644173704.03033,-0.007751,0.010132,-0.992432,0.312458,0.386565,-0.14626,61,273,570,5648
1644173704.07995,-0.009277,0.008911,-0.992798,0.159786,0.539237,-0.008855,53,276,576,5696
1644173704.12711,-0.014587,0.00769,-0.991028,0.190321,0.386565,-0.130992,47,280,579,5664
1644173704.175494,-0.012024,0.008484,-0.991333,0.251389,0.447634,-0.176794,45,275,570,5760
1644173704.2239,-0.01178,0.009155,-0.993042,0.327725,0.432366,-0.100458,41,266,576,5664
1644173704.272264,-0.012085,0.007874,-0.99408,0.449863,0.432366,-0.054656,47,263,577,5696
1644173704.320677,-0.00946,0.009644,-0.992188,0.08345,0.386565,-0.039389,54,277,582,5712
1644173704.369066,-0.010193,0.009644,-0.991394,0.251389,0.554504,-0.039389,42,275,568,5664
1644173704.417459,-0.010681,0.008789,-0.993042,0.236122,0.508702,-0.085191,48,281,571,5664
1644173704.465845,-0.010864,0.008057,-0.993286,0.388794,0.371298,0.036947,62,271,569,5760
1644173704.514219,-0.011658,0.009583,-0.991638,0.159786,0.432366,0.021679,51,279,576,5760
1644173704.562635,-0.008911,0.009033,-0.990295,0.236122,0.447634,-0.069924,40,265,572,5728
1644173704.611015,-0.010376,0.006653,-0.990417,0.129252,0.462901,-0.008855,51,274,576,5712
1644173704.659368,-0.008362,0.007996,-0.993591,0.251389,0.493435,-0.008855,48,274,573,5664
1644173704.707799,-0.009583,0.007385,-0.992126,0.251389,0.417099,-0.085191,53,283,576,5696
1644173704.756172,-0.010742,0.008301,-0.992432,0.159786,0.401832,-0.100458,43,271,576,5728
1644173704.805024,-0.012451,0.01178,-0.992065,0.342992,0.157557,-0.100458,47,275,577,5760
1644173704.853023,-0.01178,0.009705,-0.989685,0.220855,0.462901,0.036947,43,271,571,5760
1644173704.902797,-0.011108,0.009033,-0.992126,0.266656,0.462901,-0.085191,55,266,587,5728
1644173704.953143,-0.011658,0.006104,-0.991882,0.098718,0.478168,-0.039389,46,269,583,5664
1644173705.0034,-0.012085,0.009766,-0.992126,0.449863,0.478168,-0.237863,41,271,578,5712
1644173705.07778,-0.011841,0.011292,-0.991516,0.419328,0.447634,0.082748,53,274,583,5728
1644173705.143331,-0.01001,0.01062,-0.990601,0.373527,0.508702,-0.130992,43,269,569,5696
1644173705.191702,-0.011047,0.008423,-0.993347,0.404061,0.310229,-0.161527,52,268,575,5712
1644173705.240106,-0.010498,0.008118,-0.990417,0.35826,0.340763,-0.024122,52,280,575,5696
1644173705.28845,-0.009277,0.012085,-0.98999,0.312458,0.340763,-0.115725,54,270,579,5648
1644173705.336874,-0.012268,0.005859,-0.993164,0.404061,0.462901,-0.024122,59,273,575,5776
1644173705.385264,-0.010986,0.005676,-0.993469,0.404061,0.493435,-0.069924,48,264,585,5696
1644173705.433678,-0.013,0.006042,-0.992737,0.266656,0.401832,-0.222595,60,281,573,5664
1644173705.482045,-0.013855,0.010559,-0.992798,0.190321,0.310229,-0.115725,59,273,579,5808
1644173705.530441,-0.01001,0.007935,-0.992554,0.312458,0.294962,-0.054656,51,274,569,5648
1644173705.578836,-0.012451,0.005981,-0.993652,0.312458,0.447634,-0.207328,51,283,569,5696
1644173705.627225,-0.010071,0.009338,-0.991699,0.251389,0.447634,-0.14626,52,268,572,5760
1644173705.675619,-0.010254,0.009277,-0.995728,0.312458,0.340763,-0.14626,47,273,575,5776
1644173705.724025,-0.010254,0.007751,-0.991333,0.175053,0.325496,-0.130992,49,287,579,5696
1644173705.772418,-0.013794,0.010681,-0.992554,0.342992,0.356031,-0.069924,45,275,582,5760
1644173705.820804,-0.01123,0.008789,-0.993042,0.35826,0.325496,-0.008855,47,277,572,5664
1644173705.869188,-0.013367,0.008057,-0.990723,0.159786,0.386565,-0.14626,46,279,585,5664
1644173705.917601,-0.011292,0.01062,-0.993774,0.190321,0.432366,-0.192061,43,276,578,5760
1644173705.966301,-0.012024,0.007996,-0.993347,0.022382,0.386565,-0.222595,43,279,571,5664
1644173706.0144,-0.011841,0.01001,-0.988281,0.175053,0.279695,-0.115725,49,275,575,5696
1644173706.075186,-0.011353,0.007324,-0.992676,0.266656,0.371298,-0.085191,55,271,583,5712
1644173706.159505,-0.011719,0.008789,-0.992859,0.251389,0.401832,-0.115725,59,285,579,5696
1644173706.207891,-0.012756,0.009216,-0.991272,0.281924,0.386565,-0.054656,55,286,580,5728
1644173706.256284,-0.010986,0.00885,-0.990723,0.190321,0.264427,-0.115725,41,271,578,5712
1644173706.304851,-0.010376,0.007385,-0.990967,0.205588,0.310229,-0.222595,49,280,570,5696
1644173706.353098,-0.008118,0.01178,-0.993469,0.266656,0.447634,-0.069924,43,279,566,5728
1644173706.401472,-0.011169,0.008606,-0.990479,0.266656,0.417099,-0.161527,55,279,576,5760
1644173706.449858,-0.008423,0.007263,-0.991577,0.159786,0.310229,0.189618,40,277,579,5808
1644173706.49822,-0.012024,0.009216,-0.992493,0.205588,0.462901,-0.207328,47,282,568,5776
1644173706.546649,-0.013062,0.009644,-0.993408,0.297191,0.325496,-0.008855,46,276,580,5696
1644173706.595164,-0.008972,0.009155,-0.993896,0.251389,0.478168,0.082748,49,277,577,5696
1644173706.643446,-0.010437,0.009888,-0.995667,0.220855,0.447634,-0.100458,46,274,573,5696
1644173706.691822,-0.015137,0.011597,-0.993958,0.236122,0.279695,-0.161527,55,276,573,5728
1644173706.740214,-0.008911,0.010864,-0.992859,0.175053,0.401832,-0.085191,55,291,580,5728
1644173706.788607,-0.01001,0.010498,-0.995728,0.251389,0.508702,-0.176794,40,265,568,5696
1644173706.83704,-0.011292,0.008911,-0.990906,0.312458,0.462901,-0.054656,40,277,579,5776
1644173706.885394,-0.009705,0.012695,-0.994202,0.404061,0.417099,-0.054656,46,274,580,5728
1644173706.93381,-0.008362,0.00885,-0.994812,0.266656,0.172824,-0.100458,51,281,578,5712
1644173706.982247,-0.009094,0.008057,-0.99115,0.08345,0.386565,-0.085191,52,270,579,5728
1644173707.030601,-0.010925,0.010315,-0.9953,0.342992,0.447634,-0.024122,38,287,582,5664
1644173707.087539,-0.011353,0.009338,-0.993164,0.220855,0.386565,-0.115725,52,273,575,5712
1644173707.130734,-0.008301,0.01001,-0.992859,0.251389,0.508702,-0.008855,53,269,576,5712
1644173707.179523,-0.009338,0.009766,-0.99292,0.297191,0.508702,-0.100458,46,279,585,5648
1644173707.224339,-0.00946,0.007141,-0.991089,0.342992,0.310229,0.052214,45,277,577,5728
1644173707.320882,-0.011414,0.005798,-0.993774,0.281924,0.279695,-0.207328,48,288,576,5696
1644173707.369283,-0.011658,0.00531,-0.992065,0.251389,0.386565,-0.161527,55,271,569,5712
1644173707.417667,-0.011108,0.009827,-0.993774,0.373527,0.340763,-0.25313,57,275,577,5728
1644173707.466064,-0.010498,0.008179,-0.993103,0.373527,0.325496,-0.176794,58,281,576,5728
1644173707.514464,-0.011475,0.005798,-0.99176,0.190321,0.371298,-0.069924,39,276,571,5696
1644173707.562875,-0.010437,0.010376,-0.992493,0.236122,0.401832,-0.25313,54,270,570,5712
1644173707.61127,-0.011963,0.010132,-0.992981,0.251389,0.340763,-0.176794,36,283,578,5648
1644173707.659637,-0.01123,0.009888,-0.993286,0.220855,0.478168,-0.054656,46,276,578,5776
1644173707.70803,-0.012512,0.00592,-0.994324,0.251389,0.386565,-0.054656,46,279,580,5760
1644173707.756423,-0.009705,0.007568,-0.992737,0.342992,0.294962,-0.054656,51,269,578,5664
1644173707.804836,-0.009399,0.007568,-0.993225,0.297191,0.386565,-0.161527,52,282,579,5728
1644173707.853272,-0.00946,0.00946,-0.993835,0.297191,0.417099,-0.161527,42,277,570,5728
1644173707.901622,-0.014038,0.007324,-0.991638,0.129252,0.356031,-0.115725,49,282,577,5696
1644173707.950024,-0.01001,0.007202,-0.994812,0.190321,0.279695,-0.14626,52,280,579,5776
1644173707.998382,-0.010559,0.010864,-0.994324,0.144519,0.401832,-0.115725,52,285,582,5728
1644173708.058092,-0.010742,0.010071,-0.992554,0.113985,0.356031,0.036947,51,269,583,5648
1644173708.100013,-0.010864,0.009399,-0.995361,0.266656,0.539237,-0.085191,51,286,578,5696
1644173708.143543,-0.010315,0.008606,-0.991516,0.190321,0.417099,-0.130992,45,277,579,5696
1644173708.191929,-0.009888,0.007385,-0.994202,0.312458,0.356031,-0.176794,52,273,579,5648
1644173708.240406,-0.009705,0.010864,-0.994202,0.236122,0.585038,-0.14626,46,271,576,5760
1644173708.29082,-0.01123,0.010803,-0.992371,0.404061,0.539237,-0.115725,48,264,578,5696
1644173708.341048,-0.009521,0.010193,-0.991699,0.220855,0.340763,0.036947,47,280,582,5728
1644173708.386174,-0.009277,0.006714,-0.99115,0.129252,0.401832,-0.192061,54,280,579,5664
1644173708.482387,-0.009338,0.011536,-0.994812,0.281924,0.325496,0.036947,47,270,577,5696
1644173708.530662,-0.010986,0.006653,-0.992493,0.251389,0.447634,-0.222595,53,279,585,5712
1644173708.579052,-0.009583,0.005493,-0.991882,0.175053,0.401832,-0.161527,38,285,575,5760
1644173708.627446,-0.009583,0.008118,-0.992676,0.113985,0.340763,-0.024122,48,281,573,5696
1644173708.675832,-0.012024,0.009644,-0.993408,0.144519,0.417099,0.021679,42,282,575,5664
1644173708.724234,-0.011292,0.008057,-0.991394,0.236122,0.294962,-0.039389,60,274,576,5760
1644173708.772652,-0.009766,0.006958,-0.991699,0.190321,0.447634,-0.054656,47,275,570,5696
1644173708.821017,-0.010925,0.008301,-0.992554,0.190321,0.310229,-0.237863,54,277,570,5712
1644173708.869443,-0.012939,0.009644,-0.992249,0.175053,0.462901,-0.069924,49,273,575,5664
1644173708.917799,-0.007568,0.006531,-0.994934,0.144519,0.401832,-0.054656,57,265,572,5760
1644173708.966218,-0.010681,0.008057,-0.99176,0.190321,0.356031,0.143817,42,273,579,5696
1644173709.014718,-0.011475,0.010437,-0.99292,0.449863,0.447634,0.006412,49,273,577,5728
1644173709.06881,-0.012573,0.008118,-0.993591,0.190321,0.325496,0.006412,42,271,571,5712
1644173709.111397,-0.012085,0.007446,-0.992188,0.205588,0.401832,-0.039389,48,271,580,5696
1644173709.159762,-0.010681,0.005615,-0.994202,0.205588,0.264427,-0.100458,41,264,573,5664
1644173709.208135,-0.007629,0.008545,-0.993286,0.342992,0.356031,-0.130992,52,268,575,5776
1644173709.256509,-0.012329,0.009583,-0.992371,0.251389,0.447634,-0.039389,46,274,590,5696
1644173709.304905,-0.010376,0.007568,-0.990662,0.236122,0.310229,-0.130992,54,277,575,5664
1644173709.353287,-0.011475,0.008301,-0.994141,0.342992,0.462901,-0.039389,45,273,582,5728
1644173709.402089,-0.00946,0.010071,-0.995605,0.251389,0.386565,-0.192061,54,275,579,5696
1644173709.452756,-0.010864,0.009644,-0.992432,0.144519,0.371298,-0.069924,46,271,576,5760
1644173709.502833,-0.008423,0.011658,-0.99353,0.220855,0.279695,-0.161527,51,276,580,5728
1644173709.54788,-0.011841,0.010498,-0.993042,0.251389,0.432366,0.082748,47,275,584,5712
1644173709.643661,-0.009949,0.009827,-0.991638,0.373527,0.523969,-0.237863,47,265,582,5808
1644173709.692045,-0.013794,0.005432,-0.993713,0.35826,0.493435,-0.314198,49,273,575,5696
1644173709.74043,-0.009766,0.008667,-0.992004,0.342992,0.218626,-0.222595,47,277,586,5760
1644173709.788824,-0.011597,0.008728,-0.990784,0.205588,0.188092,-0.054656,45,273,570,5664
1644173709.837215,-0.008301,0.007751,-0.993225,0.297191,0.386565,-0.237863,43,276,571,5728
1644173709.885633,-0.015137,0.008789,-0.992249,0.236122,0.371298,-0.14626,52,265,572,5696
1644173709.934043,-0.011475,0.013245,-0.994873,0.312458,0.340763,0.006412,59,280,572,5696
1644173709.982449,-0.009338,0.012268,-0.991455,0.251389,0.386565,-0.192061,49,275,579,5648
1644173710.030816,-0.009155,0.008057,-0.993286,0.251389,0.447634,-0.100458,51,269,571,5696
1644173710.082543,-0.010437,0.007996,-0.991638,0.419328,0.417099,0.006412,61,277,582,5712
1644173710.127598,-0.010254,0.005981,-0.991028,0.205588,0.508702,-0.115725,53,271,573,5664
1644173710.175964,-0.013123,0.008545,-0.993958,0.297191,0.432366,-0.176794,48,281,576,5648
1644173710.224348,-0.013367,0.007996,-0.994995,0.159786,0.417099,-0.100458,49,273,570,5696
1644173710.272718,-0.010986,0.009888,-0.992859,0.373527,0.417099,-0.192061,59,270,586,5760
1644173710.321096,-0.012024,0.007568,-0.992615,0.236122,0.371298,-0.024122,48,271,578,5712
1644173710.369604,-0.009338,0.009888,-0.991272,0.312458,0.417099,0.021679,49,263,570,5648
1644173710.418387,-0.012451,0.00885,-0.991943,0.113985,0.401832,-0.085191,57,268,572,5712
1644173710.468944,-0.009644,0.007324,-0.99231,0.220855,0.539237,-0.192061,46,269,587,5760
1644173710.519046,-0.011963,0.008118,-0.990906,0.113985,0.401832,-0.085191,43,276,562,5712
1644173710.56408,-0.008911,0.009521,-0.991516,0.266656,0.462901,-0.222595,42,277,572,5712
1644173710.659852,-0.009705,0.008911,-0.990723,0.281924,0.386565,-0.130992,51,271,564,5696
1644173710.708234,-0.00885,0.010681,-0.993225,0.175053,0.585038,-0.024122,48,269,571,5808
1644173710.756616,-0.013672,0.010803,-0.990112,0.434595,0.386565,-0.222595,48,281,578,5776
1644173710.80526,-0.009949,0.008972,-0.991638,0.312458,0.478168,-0.115725,59,275,570,5632
1644173710.85342,-0.010742,0.010071,-0.992065,0.266656,0.371298,-0.008855,39,276,576,5728
1644173710.901848,-0.013733,0.008728,-0.993652,0.159786,0.417099,0.067481,39,274,587,5760
1644173710.950219,-0.011597,0.009705,-0.992126,0.220855,0.462901,-0.115725,48,269,564,5760
1644173710.998658,-0.009399,0.009155,-0.993286,0.46513,0.478168,0.067481,53,269,576,5696
1644173711.064162,-0.010681,0.010254,-0.991211,0.342992,0.386565,-0.024122,36,279,583,5728
1644173711.095608,-0.008972,0.010437,-0.99292,0.236122,0.310229,-0.100458,52,275,586,5696
1644173711.143833,-0.010559,0.009277,-0.993408,0.144519,0.340763,-0.085191,43,276,578,5760
1644173711.192252,-0.010498,0.007874,-0.991821,0.113985,0.325496,-0.039389,39,279,580,5728
1644173711.24057,-0.011475,0.008606,-0.992859,0.113985,0.218626,-0.207328,52,285,565,5712
1644173711.288959,-0.012146,0.008301,-0.99353,0.08345,0.417099,-0.085191,48,276,576,5712
1644173711.337316,-0.013306,0.008057,-0.990601,0.190321,0.325496,0.052214,51,269,566,5712
1644173711.386326,-0.011169,0.007507,-0.99292,0.098718,0.401832,-0.176794,58,266,585,5728
1644173711.434116,-0.010559,0.008484,-0.996582,0.175053,0.523969,-0.176794,52,280,568,5696
1644173711.482514,-0.014465,0.008972,-0.991211,0.175053,0.417099,-0.069924,53,274,578,5664
1644173711.531007,-0.010986,0.007324,-0.993164,0.220855,0.294962,-0.039389,51,271,578,5760
1644173711.581713,-0.010986,0.005798,-0.992065,0.236122,0.24916,-0.25313,53,271,569,5696
1644173711.631666,-0.012573,0.00769,-0.992737,0.251389,0.233893,-0.192061,41,274,576,5760
1644173711.676755,-0.01123,0.00946,-0.992126,0.312458,0.585038,0.067481,52,273,575,5696
1644173711.77287,-0.009644,0.006409,-0.991455,0.159786,0.325496,-0.054656,55,279,571,5776
1644173711.821217,-0.01062,0.00885,-0.994507,0.144519,0.386565,-0.024122,52,277,577,5696
1644173711.869619,-0.010071,0.007874,-0.993652,0.388794,0.371298,-0.14626,42,268,575,5712
1644173711.918051,-0.008789,0.007507,-0.99469,0.144519,0.417099,-0.100458,52,275,568,5760
1644173711.966449,-0.009583,0.011536,-0.99292,0.251389,0.417099,-0.069924,59,277,575,5664
1644173712.01485,-0.011658,0.008728,-0.99408,0.236122,0.371298,-0.069924,47,268,579,5696
1644173712.067716,-0.013611,0.00769,-0.990356,0.175053,0.401832,-0.024122,54,270,582,5760
1644173712.111573,-0.007202,0.009399,-0.994202,0.190321,0.264427,-0.085191,52,273,579,5712
1644173712.159984,-0.011475,0.007263,-0.996948,0.205588,0.279695,-0.039389,49,282,577,5664
1644173712.208344,-0.009216,0.009583,-0.99231,0.098718,0.401832,0.052214,49,270,577,5632
1644173712.256754,-0.012268,0.008606,-0.992859,0.098718,0.462901,-0.024122,57,273,577,5728
1644173712.30523,-0.012573,0.006897,-0.992859,0.022382,0.417099,-0.069924,62,274,576,5728
1644173712.353535,-0.013306,0.009827,-0.993408,0.190321,0.478168,-0.100458,40,273,577,5728
1644173712.401936,-0.010498,0.008362,-0.995361,0.220855,0.264427,-0.024122,54,270,584,5776
1644173712.450319,-0.011475,0.00885,-0.991516,0.236122,0.325496,0.067481,46,279,576,5712
1644173712.498685,-0.012451,0.011108,-0.989807,0.220855,0.386565,0.036947,55,276,578,5664
1644173712.5471,-0.01001,0.009583,-0.994385,0.190321,0.417099,-0.069924,48,276,571,5696
1644173712.595474,-0.013123,0.008423,-0.992065,0.251389,0.447634,-0.039389,55,266,566,5728
1644173712.643882,-0.009949,0.009155,-0.991577,0.236122,0.462901,-0.176794,36,274,576,5760
1644173712.692619,-0.010742,0.010376,-0.9953,0.144519,0.432366,-0.054656,49,273,570,5712
1644173712.743074,-0.011841,0.006653,-0.993896,0.175053,0.539237,-0.054656,49,275,572,5760
1644173712.794672,-0.013,0.009766,-0.991699,0.266656,0.233893,-0.054656,54,270,572,5712
1644173712.838837,-0.008484,0.007996,-0.991943,0.281924,0.340763,-0.130992,45,275,575,5760
1644173712.934274,-0.009705,0.008423,-0.991516,0.342992,0.340763,-0.054656,57,273,575,5696
1644173712.982671,-0.013123,0.006226,-0.992065,0.175053,0.356031,-0.161527,49,277,586,5696
1644173713.031038,-0.015564,0.00824,-0.993286,0.312458,0.401832,-0.069924,59,275,582,5696
1644173713.079587,-0.008545,0.006897,-0.992065,0.297191,0.386565,-0.054656,42,273,591,5696
1644173713.127788,-0.010742,0.009766,-0.99115,0.236122,0.478168,-0.14626,49,263,579,5728
1644173713.176176,-0.012878,0.007507,-0.991455,0.052916,0.493435,-0.115725,48,276,573,5696
1644173713.22461,-0.00946,0.009216,-0.991211,0.297191,0.462901,-0.14626,54,277,570,5760
1644173713.272965,-0.007751,0.010925,-0.991211,0.312458,0.401832,-0.008855,55,274,583,5696
1644173713.321342,-0.011475,0.009888,-0.993469,0.236122,0.172824,-0.161527,43,279,569,5664
1644173713.369755,-0.010681,0.006775,-0.992126,0.159786,0.386565,-0.085191,54,277,577,5728
1644173713.418133,-0.010498,0.00708,-0.994385,0.434595,0.523969,-0.161527,55,276,580,5648
1644173713.466514,-0.008179,0.010071,-0.992126,0.297191,0.462901,-0.115725,46,279,566,5712
1644173713.514912,-0.013855,0.008789,-0.993469,0.312458,0.508702,-0.14626,47,273,586,5696
1644173713.563323,-0.010315,0.012146,-0.993042,0.297191,0.218626,0.052214,43,276,573,5664
1644173713.611699,-0.013733,0.008606,-0.994019,0.129252,0.371298,-0.14626,42,282,586,5712
1644173713.660088,-0.009338,0.009644,-0.992004,0.236122,0.508702,-0.085191,52,273,577,5696
1644173713.708475,-0.007935,0.006836,-0.993103,0.342992,0.356031,-0.329466,38,270,584,5664
1644173713.756836,-0.011292,0.008789,-0.99115,0.220855,0.386565,-0.115725,36,279,571,5728
1644173713.805305,-0.007935,0.010376,-0.991516,0.220855,0.432366,-0.008855,52,273,579,5696
1644173713.854965,-0.011353,0.009338,-0.992798,0.113985,0.386565,-0.054656,53,269,566,5696
1644173713.905237,-0.01178,0.006104,-0.991272,0.190321,0.661374,-0.115725,49,282,575,5712
1644173713.955494,-0.009766,0.005554,-0.99292,0.098718,0.447634,0.052214,48,271,580,5712
1644173714.000018,-0.008545,0.007935,-0.993164,0.342992,0.264427,-0.039389,49,270,577,5760
1644173714.096341,-0.009827,0.006226,-0.99115,0.205588,0.356031,-0.130992,47,282,572,5712
1644173714.143989,-0.013428,0.009399,-0.990723,0.342992,0.508702,0.021679,43,274,578,5664
1644173714.192412,-0.007446,0.010803,-0.995911,0.220855,0.264427,-0.161527,39,276,569,5712
1644173714.24077,-0.009583,0.006897,-0.990784,0.312458,0.401832,-0.008855,57,282,582,5712
1644173714.289162,-0.010254,0.009216,-0.992432,0.327725,0.493435,-0.054656,47,273,577,5664
1644173714.337559,-0.008057,0.013733,-0.992371,0.175053,0.462901,-0.222595,46,276,590,5728
1644173714.385949,-0.008423,0.006897,-0.991638,0.175053,0.356031,-0.115725,54,285,575,5648
1644173714.434337,-0.010986,0.010559,-0.991699,0.312458,0.478168,-0.130992,49,275,579,5728
1644173714.482774,-0.008911,0.009338,-0.992737,0.159786,0.386565,-0.069924,42,273,582,5776
1644173714.532757,-0.010132,0.006958,-0.990417,-0.008153,0.218626,-0.100458,51,269,576,5664
1644173714.582855,-0.013855,0.007874,-0.993286,0.297191,0.447634,-0.085191,46,274,583,5664
1644173714.632886,-0.011963,0.006958,-0.995117,0.144519,0.294962,-0.115725,47,282,570,5776
1644173714.724861,-0.009521,0.008484,-0.989868,0.251389,0.371298,-0.176794,47,275,570,5712
1644173714.773082,-0.010803,0.00824,-0.990295,0.251389,0.340763,-0.085191,47,277,577,5696
1644173714.821476,-0.009033,0.011597,-0.993286,0.190321,0.447634,-0.069924,57,277,570,5808
1644173714.869895,-0.01178,0.007874,-0.994934,0.312458,0.432366,-0.054656,54,290,575,5728
1644173714.918265,-0.009277,0.006836,-0.995056,0.220855,0.325496,-0.054656,52,268,572,5712
1644173714.966654,-0.011597,0.007019,-0.994873,0.175053,0.401832,-0.130992,51,271,585,5712
1644173715.015167,-0.013245,0.007751,-0.996521,0.297191,0.417099,-0.268397,54,273,570,5712
1644173715.065552,-0.011475,0.006775,-0.993774,0.297191,0.401832,-0.085191,55,276,580,5728
1644173715.111839,-0.010498,0.01178,-0.992676,0.251389,0.401832,0.021679,55,274,583,5760
1644173715.160222,-0.010925,0.005981,-0.996094,0.190321,0.325496,-0.192061,46,269,576,5712
1644173715.20859,-0.010193,0.011658,-0.988892,0.342992,0.63084,-0.069924,57,268,584,5728
1644173715.256976,-0.012146,0.008362,-0.991516,0.388794,0.401832,0.067481,41,283,576,5760
1644173715.305362,-0.011963,0.010254,-0.991516,0.297191,0.294962,-0.024122,53,276,571,5696
1644173715.353747,-0.010193,0.009827,-0.990601,0.220855,0.417099,-0.130992,51,271,571,5696
1644173715.402188,-0.012024,0.008911,-0.992554,0.251389,0.493435,-0.161527,57,282,575,5712
1644173715.450545,-0.009583,0.008606,-0.991089,0.190321,0.508702,-0.115725,62,274,580,5664
1644173715.498947,-0.011719,0.005615,-0.991943,0.129252,0.371298,-0.085191,45,277,572,5728
1644173715.54732,-0.011658,0.007874,-0.991089,0.190321,0.523969,0.006412,51,281,580,5696
1644173715.59569,-0.009644,0.009399,-0.993896,0.312458,0.310229,0.036947,57,287,579,5648
1644173715.644451,-0.012573,0.008484,-0.991699,0.175053,0.279695,-0.054656,51,274,576,5728
1644173715.695116,-0.011353,0.006165,-0.993286,0.236122,0.462901,-0.024122,43,271,578,5728
1644173715.745176,-0.010315,0.009216,-0.996094,0.266656,0.462901,-0.069924,53,279,578,5728
1644173715.79031,-0.014343,0.009216,-0.993408,0.129252,0.371298,-0.054656,51,286,571,5696
1644173715.886085,-0.010681,0.008911,-0.990112,0.175053,0.325496,-0.237863,54,268,577,5712
1644173715.9345,-0.011841,0.008423,-0.991699,-0.008153,0.279695,-0.100458,43,279,569,5696
1644173715.982888,-0.010559,0.009094,-0.991211,0.159786,0.294962,-0.14626,41,274,576,5776
1644173716.031261,-0.011169,0.006897,-0.994324,0.312458,0.356031,-0.024122,45,273,582,5728
1644173716.079695,-0.011536,0.007019,-0.995544,0.144519,0.417099,-0.192061,46,281,573,5728
1644173716.128063,-0.011841,0.00647,-0.99408,0.297191,0.371298,-0.008855,47,275,575,5712
1644173716.176398,-0.012085,0.008484,-0.992126,0.312458,0.371298,-0.176794,49,273,579,5648
1644173716.224793,-0.011108,0.008545,-0.991577,0.205588,0.432366,-0.130992,49,280,575,5760
1644173716.273185,-0.010925,0.009277,-0.989929,0.312458,0.493435,-0.100458,53,276,569,5648
1644173716.321592,-0.012268,0.00824,-0.992371,0.312458,0.401832,-0.115725,53,279,569,5664
1644173716.369985,-0.012756,0.010986,-0.99353,0.220855,0.401832,-0.14626,54,277,584,5728
1644173716.418338,-0.012451,0.007324,-0.99054,0.266656,0.462901,0.036947,48,276,573,5712
1644173716.466758,-0.006775,0.009338,-0.993591,0.251389,0.401832,0.052214,43,283,573,5696
1644173716.515233,-0.014526,0.010132,-0.994141,0.220855,0.325496,-0.085191,54,280,582,5760
1644173716.56352,-0.008423,0.008789,-0.992615,0.312458,0.417099,-0.161527,58,264,576,5728
1644173716.611938,-0.013367,0.010803,-0.99292,0.312458,0.264427,-0.115725,59,277,582,5760
1644173716.66031,-0.012146,0.009705,-0.99292,0.190321,0.310229,-0.008855,54,277,577,5712
1644173716.70868,-0.013611,0.010376,-0.992065,0.266656,0.371298,-0.054656,49,275,591,5712
1644173716.757089,-0.010437,0.011169,-0.989563,0.129252,0.340763,-0.115725,53,266,573,5696
1644173716.805553,-0.010193,0.00946,-0.994019,0.266656,0.401832,-0.039389,41,283,578,5712
1644173716.856326,-0.014038,0.01001,-0.992188,0.175053,0.340763,-0.192061,54,275,579,5664
1644173716.907221,-0.012512,0.006775,-0.99115,0.251389,0.310229,0.021679,49,273,582,5664
1644173716.951715,-0.01123,0.009399,-0.993408,0.297191,0.493435,0.036947,38,270,577,5712
1644173717.064237,-0.011292,0.011719,-0.992737,0.297191,0.386565,-0.085191,58,279,571,5696
1644173717.098902,-0.010681,0.007507,-0.993774,0.144519,0.478168,-0.085191,52,280,579,5760
1644173717.144284,-0.011902,0.009766,-0.991638,0.251389,0.310229,-0.100458,51,281,571,5728
1644173717.192597,-0.007751,0.010498,-0.992615,0.251389,0.310229,-0.085191,48,274,578,5664
1644173717.240998,-0.00824,0.008667,-0.99408,0.220855,0.462901,-0.054656,48,269,573,5696
1644173717.289388,-0.010864,0.010803,-0.994385,0.404061,0.294962,-0.085191,51,281,571,5712
1644173717.337791,-0.013062,0.008667,-0.993774,0.266656,0.417099,-0.024122,52,273,582,5664
1644173717.386453,-0.009583,0.009766,-0.99115,0.327725,0.371298,-0.054656,43,281,576,5696
1644173717.434608,-0.00769,0.008545,-0.992798,0.220855,0.386565,-0.100458,48,269,573,5760
1644173717.483133,-0.009583,0.010132,-0.997986,0.434595,0.401832,-0.161527,52,268,577,5776
1644173717.531406,-0.011292,0.008606,-0.994385,0.205588,0.493435,-0.008855,40,285,575,5728
1644173717.580741,-0.013672,0.007324,-0.993103,0.297191,0.294962,-0.024122,45,275,582,5728
1644173717.631157,-0.010559,0.010559,-0.992126,0.236122,0.401832,-0.207328,61,277,579,5760
1644173717.68131,-0.011353,0.010681,-0.991272,0.266656,0.493435,-0.237863,54,265,568,5760
1644173717.773342,-0.010376,0.007019,-0.993042,0.220855,0.447634,-0.054656,45,273,565,5664
1644173717.821698,-0.010254,0.008301,-0.992004,0.159786,0.401832,-0.207328,52,280,582,5728
1644173717.870085,-0.011658,0.009155,-0.991333,0.342992,0.401832,-0.176794,57,270,584,5760
1644173717.91852,-0.010437,0.010132,-0.99231,0.266656,0.310229,-0.069924,46,276,580,5648
1644173717.966932,-0.010559,0.009583,-0.993591,0.205588,0.432366,-0.008855,46,279,576,5664
1644173718.015292,-0.010864,0.007507,-0.994873,0.236122,0.417099,-0.115725,47,277,586,5712
1644173718.070376,-0.012207,0.010315,-0.992737,0.236122,0.462901,0.036947,52,273,577,5728
1644173718.112018,-0.01239,0.00946,-0.991699,0.266656,0.462901,-0.222595,57,275,582,5664
1644173718.160422,-0.008362,0.007751,-0.992004,0.266656,0.554504,-0.25313,51,281,576,5712
1644173718.208809,-0.011169,0.008911,-0.99176,0.35826,0.401832,-0.130992,45,265,572,5664
1644173718.258569,-0.011108,0.010803,-0.993835,0.373527,0.478168,-0.069924,47,268,579,5760
1644173718.305575,-0.009827,0.010864,-0.99292,0.175053,0.432366,-0.115725,57,287,579,5664
1644173718.354105,-0.007996,0.008179,-0.995728,0.297191,0.493435,-0.100458,49,270,584,5712
1644173718.402384,-0.005066,0.010071,-0.991272,0.113985,0.447634,-0.039389,49,277,582,5728
1644173718.45139,-0.011108,0.008057,-0.991638,0.297191,0.478168,-0.054656,53,274,580,5760
1644173718.505234,-0.011047,0.011047,-0.994385,0.404061,0.493435,-0.085191,55,283,580,5648
1644173718.554668,-0.011902,0.010925,-0.992859,-0.008153,0.554504,0.036947,59,275,577,5696
1644173718.59675,-0.00946,0.009033,-0.99353,0.312458,0.508702,-0.039389,54,282,584,5712
1644173718.692718,-0.009644,0.008179,-0.993103,0.220855,0.310229,0.021679,47,280,579,5760
1644173718.741107,-0.011169,0.009888,-0.991211,0.266656,0.432366,-0.14626,55,274,576,5712
1644173718.789493,-0.012329,0.006348,-0.990967,0.159786,0.554504,0.052214,52,285,579,5728
1644173718.837894,-0.011597,0.008972,-0.989502,0.297191,0.356031,-0.222595,41,279,585,5728
1644173718.886292,-0.009949,0.009277,-0.993652,0.205588,0.310229,-0.176794,43,283,571,5712
1644173718.934753,-0.010254,0.006775,-0.990784,0.236122,0.371298,-0.085191,53,281,573,5712
1644173718.983078,-0.010559,0.008728,-0.993225,0.251389,0.401832,-0.130992,46,271,573,5776
1644173719.031474,-0.012085,0.010803,-0.992615,0.098718,0.294962,-0.100458,61,277,579,5760
1644173719.079935,-0.010559,0.011597,-0.992859,0.297191,0.356031,0.082748,51,271,583,5776
1644173719.128253,-0.009399,0.009338,-0.993164,0.266656,0.523969,-0.176794,52,273,579,5712
1644173719.176626,-0.00946,0.008789,-0.995789,0.159786,0.340763,-0.207328,51,286,573,5696
1644173719.225088,-0.008545,0.009705,-0.993896,0.190321,0.493435,-0.161527,57,277,584,5728
1644173719.273389,-0.013306,0.009033,-0.99176,0.327725,0.340763,-0.222595,64,273,582,5760
1644173719.321798,-0.013,0.006592,-0.994507,0.113985,0.386565,-0.085191,46,274,578,5728
1644173719.370307,-0.009705,0.008545,-0.993835,0.266656,0.401832,-0.024122,54,277,584,5712
1644173719.419139,-0.01178,0.007202,-0.994812,0.205588,0.417099,-0.100458,51,269,580,5760
1644173719.469457,-0.013489,0.007385,-0.992615,0.419328,0.432366,-0.222595,52,275,591,5664
1644173719.521017,-0.012939,0.008911,-0.992554,0.190321,0.447634,-0.130992,53,281,564,5696
1644173719.565349,-0.009216,0.007812,-0.994629,0.342992,0.310229,-0.039389,52,268,570,5776
1644173719.660574,-0.009949,0.009705,-0.994141,0.327725,0.585038,-0.192061,49,273,577,5648
1644173719.708969,-0.012329,0.007812,-0.991516,0.129252,0.508702,-0.039389,61,273,579,5712
1644173719.757347,-0.011292,0.006897,-0.988892,0.144519,0.401832,-0.130992,65,283,578,5776
1644173719.805749,-0.011414,0.010742,-0.99408,0.220855,0.432366,0.036947,51,281,580,5696
1644173719.854145,-0.010986,0.010986,-0.992798,0.205588,0.447634,-0.176794,43,281,578,5760
1644173719.902554,-0.012024,0.008362,-0.99176,0.281924,0.264427,-0.069924,42,277,582,5728
1644173719.950938,-0.007996,0.009155,-0.989258,0.236122,0.356031,-0.161527,47,273,579,5664
1644173719.999286,-0.01178,0.007019,-0.993164,0.098718,0.401832,0.006412,46,274,578,5760
1644173720.060295,-0.010559,0.007263,-0.992737,0.388794,0.264427,-0.039389,61,282,575,5696
1644173720.096209,-0.010071,0.010376,-0.992188,0.236122,0.493435,-0.222595,48,274,583,5728
1644173720.144473,-0.011169,0.009338,-0.993103,0.190321,0.508702,-0.130992,47,280,584,5712
1644173720.192869,-0.01355,0.008057,-0.993469,0.220855,0.310229,0.006412,55,274,583,5664
1644173720.241235,-0.01062,0.009949,-0.989136,0.327725,0.508702,-0.192061,47,280,577,5696
1644173720.289622,-0.00946,0.012268,-0.99292,0.113985,0.432366,-0.024122,47,275,570,5664
1644173720.338023,-0.007019,0.010498,-0.992859,0.220855,0.386565,-0.207328,53,271,580,5760
1644173720.386405,-0.009888,0.010315,-0.992798,0.220855,0.447634,-0.314198,52,275,584,5712
1644173720.434807,-0.009888,0.009705,-0.989746,0.35826,0.447634,-0.085191,51,274,580,5696
1644173720.483184,-0.009399,0.01062,-0.993042,0.404061,0.447634,-0.25313,36,264,578,5808
1644173720.531591,-0.010315,0.009094,-0.992065,0.236122,0.523969,-0.085191,49,268,579,5696
1644173720.580281,-0.010681,0.007141,-0.991577,0.144519,0.478168,-0.039389,46,266,573,5712
1644173720.630857,-0.010437,0.01062,-0.991577,0.281924,0.401832,-0.008855,45,265,570,5712
1644173720.680961,-0.011719,0.006897,-0.994995,0.190321,0.294962,-0.069924,51,271,587,5696
1644173720.726064,-0.009399,0.008728,-0.994385,0.129252,0.432366,-0.176794,47,275,572,5696
1644173720.821926,-0.010864,0.006592,-0.992859,0.175053,0.371298,-0.100458,51,276,576,5712
1644173720.870342,-0.010437,0.008179,-0.991638,0.236122,0.325496,-0.207328,48,264,571,5696
1644173720.918731,-0.011597,0.006104,-0.992126,0.35826,0.432366,-0.222595,45,270,568,5696
1644173720.967129,-0.009094,0.008972,-0.99176,0.205588,0.386565,-0.100458,55,271,569,5728
1644173721.01552,-0.008911,0.006897,-0.994568,0.327725,0.401832,-0.054656,52,277,568,5712
1644173721.069847,-0.009521,0.007507,-0.993835,0.266656,0.401832,-0.115725,53,281,571,5696
1644173721.11227,-0.012207,0.010071,-0.994324,0.297191,0.264427,-0.176794,58,281,580,5664
1644173721.160629,-0.00824,0.010864,-0.99469,0.281924,0.462901,-0.161527,59,273,570,5664
1644173721.209047,-0.009094,0.007629,-0.99292,0.205588,0.401832,-0.207328,57,273,575,5712
1644173721.257404,-0.008972,0.009277,-0.994751,0.220855,0.493435,-0.115725,49,290,572,5664
1644173721.305847,-0.008179,0.007751,-0.991882,0.251389,0.462901,0.021679,52,285,575,5712
1644173721.362514,-0.010254,0.008545,-0.992432,0.297191,0.356031,-0.100458,52,280,579,5728
1644173721.402589,-0.010071,0.008301,-0.992859,0.281924,0.462901,-0.192061,51,266,592,5696
1644173721.451012,-0.008606,0.009277,-0.992004,0.08345,0.417099,-0.192061,51,266,585,5664
1644173721.499572,-0.01178,0.010559,-0.991333,0.388794,0.417099,-0.100458,48,266,590,5712
1644173721.552514,-0.00946,0.011658,-0.994446,0.220855,0.478168,-0.069924,54,275,582,5760
1644173721.601626,-0.010315,0.00885,-0.991333,0.205588,0.432366,0.006412,48,269,578,5664
1644173721.647763,-0.010315,0.007629,-0.991638,0.419328,0.356031,-0.024122,48,274,580,5696
1644173721.711644,-0.008789,0.008972,-0.992126,0.236122,0.356031,-0.008855,47,275,591,5712
1644173721.749516,-0.009888,0.010132,-0.992126,0.113985,0.447634,-0.298931,46,276,592,5728
1644173721.838184,-0.012634,0.007935,-0.990723,0.236122,0.478168,-0.008855,54,270,586,5696
1644173721.886504,-0.009766,0.01062,-0.993225,0.312458,0.386565,-0.054656,46,266,566,5728
1644173721.943063,-0.01001,0.009033,-0.991699,0.144519,0.478168,0.067481,54,280,572,5760
1644173721.985076,-0.009277,0.011047,-0.992554,0.388794,0.401832,-0.039389,53,281,573,5696
1644173722.031686,-0.011353,0.007263,-0.994019,0.419328,0.340763,-0.115725,45,280,579,5696
1644173722.094842,-0.009949,0.011536,-0.99115,0.297191,0.523969,-0.085191,52,280,572,5728
1644173722.143275,-0.01239,0.007751,-0.992981,0.327725,0.386565,-0.130992,52,273,572,5728
1644173722.179444,-0.009644,0.009216,-0.99231,0.281924,0.615573,0.006412,43,274,576,5776
1644173722.225246,-0.008545,0.007568,-0.991943,0.312458,0.523969,-0.008855,55,271,578,5808
1644173722.273612,-0.011047,0.009216,-0.991577,0.312458,0.462901,-0.222595,53,281,578,5696
1644173722.322045,-0.009277,0.00885,-0.992065,0.297191,0.478168,-0.115725,46,269,583,5664
1644173722.371945,-0.012329,0.009033,-0.991821,0.327725,0.356031,-0.14626,54,270,572,5696
1644173722.422585,-0.011597,0.013062,-0.99292,0.251389,0.356031,-0.115725,39,279,566,5760
1644173722.467232,-0.011414,0.011169,-0.993958,0.35826,0.371298,-0.054656,54,277,572,5808
1644173722.56404,-0.00647,0.006226,-0.991821,0.327725,0.508702,-0.054656,45,280,565,5664
1644173722.612418,-0.010803,0.008057,-0.991699,0.236122,0.493435,-0.14626,59,273,572,5664
1644173722.66077,-0.009644,0.010071,-0.993774,0.297191,0.585038,0.052214,49,273,575,5728
1644173722.709198,-0.010315,0.008789,-0.99353,0.220855,0.371298,-0.176794,45,270,572,5664
1644173722.757563,-0.011292,0.009399,-0.994446,0.190321,0.478168,-0.176794,45,275,575,5712
1644173722.805988,-0.014526,0.010803,-0.993164,0.373527,0.539237,-0.085191,47,275,584,5728
1644173722.854358,-0.011414,0.010132,-0.990479,0.098718,0.401832,-0.161527,55,276,576,5776
1644173722.902775,-0.010742,0.010498,-0.991638,0.144519,0.401832,-0.100458,54,270,565,5696
1644173722.951162,-0.013855,0.007629,-0.994202,0.312458,0.386565,-0.161527,39,279,580,5712
1644173722.999515,-0.009155,0.009949,-0.991638,0.251389,0.462901,-0.130992,43,269,578,5712
1644173723.055003,-0.010742,0.008179,-0.993225,0.35826,0.386565,-0.115725,46,281,573,5696
1644173723.096317,-0.009705,0.01062,-0.994263,0.190321,0.417099,-0.024122,49,282,584,5664
1644173723.144717,-0.008667,0.005981,-0.992065,0.342992,0.462901,-0.054656,47,275,582,5696
1644173723.193087,-0.009338,0.008545,-0.991638,0.220855,0.447634,-0.085191,47,275,565,5728
1644173723.241498,-0.011658,0.008545,-0.990295,0.266656,0.523969,-0.039389,49,277,589,5776
1644173723.289886,-0.010193,0.008362,-0.991028,0.312458,0.417099,-0.161527,49,275,572,5696
1644173723.338252,-0.013245,0.007568,-0.992371,0.190321,0.310229,-0.085191,51,274,583,5648
1644173723.386801,-0.010986,0.006042,-0.988525,0.281924,0.233893,0.113282,41,276,580,5648
1644173723.43516,-0.012756,0.010864,-0.992981,0.281924,0.432366,-0.161527,53,266,580,5648
1644173723.485208,-0.010559,0.009155,-0.994812,0.068183,0.523969,-0.161527,46,279,576,5776
1644173723.535279,-0.01123,0.00769,-0.99115,0.46513,0.478168,-0.085191,48,279,580,5664
1644173723.585621,-0.01123,0.009521,-0.992126,0.342992,0.264427,-0.130992,52,280,575,5696
1644173723.630292,-0.011719,0.008179,-0.991455,0.297191,0.417099,-0.069924,49,275,570,5696
1644173723.72546,-0.011536,0.00946,-0.993958,0.098718,0.279695,0.052214,47,270,575,5696
1644173723.773775,-0.010986,0.009216,-0.993164,0.159786,0.447634,0.021679,46,279,578,5696
1644173723.822413,-0.011292,0.008606,-0.991211,0.251389,0.325496,-0.192061,51,274,583,5696
1644173723.870573,-0.008911,0.008057,-0.991638,0.35826,0.508702,0.067481,54,275,570,5696
1644173723.918967,-0.010315,0.008301,-0.993835,0.175053,0.386565,-0.192061,54,285,575,5648
1644173723.967366,-0.007385,0.011292,-0.992798,0.388794,0.508702,-0.14626,48,271,576,5696
1644173724.015737,-0.01123,0.008179,-0.991699,0.388794,0.386565,-0.024122,57,275,577,5760
1644173724.069987,-0.010559,0.009094,-0.991333,0.236122,0.462901,-0.039389,49,263,586,5760
1644173724.11249,-0.007996,0.006836,-0.992615,0.190321,0.478168,0.067481,45,285,577,5712
1644173724.160884,-0.010071,0.008606,-0.990967,0.220855,0.401832,-0.054656,43,266,580,5696
1644173724.209272,-0.010132,0.009033,-0.993713,0.205588,0.401832,-0.14626,57,268,570,5664
1644173724.257674,-0.012329,0.006531,-0.992615,0.342992,0.401832,-0.100458,49,280,579,5760
1644173724.30603,-0.012878,0.008545,-0.99353,0.159786,0.386565,-0.161527,48,274,578,5696
1644173724.354458,-0.01062,0.009705,-0.993774,0.327725,0.371298,-0.130992,49,270,584,5696
1644173724.402862,-0.01062,0.009521,-0.99353,0.220855,0.371298,-0.130992,53,283,576,5696
1644173724.451196,-0.012329,0.008301,-0.991333,0.312458,0.447634,-0.100458,48,271,587,5712
1644173724.499582,-0.008728,0.008301,-0.991028,0.297191,0.462901,-0.115725,43,276,569,5728
1644173724.548007,-0.011902,0.005432,-0.992554,0.419328,0.554504,-0.115725,45,255,584,5696
1644173724.596373,-0.013672,0.007812,-0.993774,0.35826,0.386565,-0.161527,49,263,584,5696
1644173724.645,-0.010376,0.008911,-0.993896,0.35826,0.447634,-0.039389,53,274,571,5728
1644173724.695112,-0.012024,0.008667,-0.993286,0.312458,0.432366,-0.192061,43,286,569,5728
1644173724.745439,-0.010864,0.009033,-0.995972,0.266656,0.508702,-0.192061,49,277,582,5712
1644173724.790499,-0.010132,0.007019,-0.992065,0.35826,0.401832,-0.039389,57,275,586,5776
1644173724.886765,-0.011719,0.010376,-0.992249,0.175053,0.417099,0.052214,54,273,579,5696
1644173724.935373,-0.011658,0.005432,-0.992065,0.236122,0.401832,-0.024122,47,275,570,5760
1644173724.983576,-0.009766,0.008606,-0.995972,0.236122,0.386565,-0.130992,43,274,576,5696
1644173725.03191,-0.008301,0.008972,-0.992676,0.281924,0.462901,0.006412,51,276,576,5776
1644173725.080406,-0.014099,0.010498,-0.990967,0.144519,0.462901,0.052214,52,285,579,5760
1644173725.12867,-0.009155,0.011658,-0.989258,0.190321,0.294962,0.021679,41,274,580,5696
1644173725.177094,-0.012268,0.006958,-0.989258,0.266656,0.294962,-0.069924,52,275,572,5696
1644173725.225471,-0.009521,0.008667,-0.993042,0.342992,0.417099,0.052214,46,276,578,5712
1644173725.273864,-0.009277,0.007812,-0.992981,0.342992,0.585038,-0.115725,52,282,575,5760
1644173725.322248,-0.01178,0.008728,-0.992859,0.175053,0.340763,-0.069924,47,275,572,5712
1644173725.370663,-0.009338,0.009277,-0.993103,0.449863,0.401832,-0.039389,54,275,577,5760
1644173725.419033,-0.013,0.007812,-0.992188,0.266656,0.325496,0.082748,55,279,585,5760
1644173725.467428,-0.009949,0.008301,-0.990845,0.297191,0.325496,-0.024122,60,279,580,5696
1644173725.515812,-0.010437,0.006409,-0.994873,0.297191,0.401832,-0.268397,52,275,577,5712
1644173725.564213,-0.010681,0.01123,-0.996277,0.220855,0.401832,-0.130992,58,276,573,5760
1644173725.612622,-0.010742,0.011658,-0.992554,0.297191,0.356031,-0.069924,52,277,579,5664
1644173725.660994,-0.011108,0.008911,-0.992126,0.388794,0.447634,-0.039389,42,275,584,5728
1644173725.709381,-0.012573,0.009155,-0.99231,0.404061,0.325496,-0.207328,40,275,577,5712
1644173725.757777,-0.007935,0.007019,-0.993103,0.266656,0.417099,0.006412,53,279,580,5712
1644173725.806842,-0.008057,0.009399,-0.992798,0.220855,0.371298,-0.222595,53,274,578,5664
1644173725.857731,-0.012085,0.008789,-0.993286,0.190321,0.401832,-0.161527,47,280,572,5664
1644173725.908044,-0.010864,0.011353,-0.990723,0.068183,0.386565,-0.024122,45,277,563,5712
1644173725.952628,-0.013733,0.009338,-0.992188,0.388794,0.523969,0.006412,49,277,577,5696
1644173726.057582,-0.011108,0.009094,-0.994385,0.388794,0.233893,-0.069924,52,277,575,5760
1644173726.099254,-0.011902,0.006348,-0.992737,0.068183,0.203359,-0.100458,58,274,583,5760
1644173726.144891,-0.009277,0.007507,-0.992004,0.251389,0.340763,-0.115725,58,276,580,5664
1644173726.193304,-0.011047,0.00647,-0.993347,0.327725,0.371298,-0.100458,53,279,580,5696
1644173726.241663,-0.009888,0.008606,-0.991394,0.236122,0.325496,-0.115725,51,264,571,5728
1644173726.290045,-0.013,0.009399,-0.994629,0.205588,0.371298,-0.100458,48,271,576,5664
1644173726.338462,-0.013123,0.009644,-0.993591,0.297191,0.508702,-0.024122,43,266,573,5712
1644173726.386866,-0.011658,0.008057,-0.99176,0.068183,0.508702,-0.069924,45,275,579,5696
1644173726.435237,-0.011169,0.007812,-0.992737,0.220855,0.462901,-0.115725,48,269,573,5760
1644173726.483628,-0.007935,0.009399,-0.992737,0.220855,0.493435,-0.054656,47,275,579,5696
1644173726.532025,-0.010681,0.008484,-0.992676,0.297191,0.493435,-0.085191,46,276,578,5696
1644173726.580421,-0.012085,0.007874,-0.993713,0.266656,0.24916,-0.14626,51,269,587,5760
1644173726.628831,-0.012573,0.010803,-0.987732,0.175053,0.493435,-0.039389,55,279,569,5664
1644173726.67869,-0.012634,0.00824,-0.991333,0.342992,0.401832,-0.100458,46,276,571,5728
1644173726.728981,-0.010742,0.010498,-0.990784,0.266656,0.294962,0.006412,52,277,568,5760
1644173726.779452,-0.01001,0.00885,-0.991577,0.312458,0.447634,-0.024122,52,273,572,5696
1644173726.870824,-0.011475,0.006714,-0.99292,0.113985,0.356031,-0.039389,51,271,573,5728
1644173726.91915,-0.010864,0.008606,-0.995544,0.205588,0.569771,-0.085191,49,275,568,5712
1644173726.967568,-0.013245,0.008911,-0.994141,0.08345,0.371298,-0.268397,47,270,582,5712
1644173727.015971,-0.009155,0.008362,-0.989929,0.190321,0.294962,-0.176794,49,270,572,5712
1644173727.066868,-0.009583,0.008667,-0.995361,0.220855,0.417099,-0.130992,39,274,585,5648
1644173727.112729,-0.013367,0.008789,-0.989746,0.327725,0.417099,-0.161527,51,279,576,5696
1644173727.161098,-0.009521,0.007751,-0.994263,0.297191,0.294962,0.021679,54,265,575,5712
1644173727.209505,-0.008789,0.008362,-0.99353,0.281924,0.233893,-0.069924,52,280,575,5760
1644173727.257893,-0.011963,0.009583,-0.991211,0.297191,0.371298,-0.176794,46,281,571,5696
1644173727.306256,-0.012085,0.009338,-0.993103,0.190321,0.294962,-0.115725,61,275,575,5712
1644173727.354711,-0.010193,0.010193,-0.994324,0.220855,0.417099,-0.192061,54,290,577,5712
1644173727.403073,-0.008911,0.01178,-0.993469,0.251389,0.294962,-0.192061,48,276,578,5760
1644173727.451466,-0.010803,0.008789,-0.994507,0.480397,0.325496,0.006412,52,273,579,5728
1644173727.499846,-0.01062,0.007874,-0.992004,0.220855,0.340763,-0.008855,55,279,576,5776
1644173727.5482,-0.012207,0.008606,-0.992676,0.236122,0.508702,-0.054656,47,277,589,5760
1644173727.596622,-0.009888,0.008728,-0.994141,0.342992,0.386565,-0.100458,57,280,584,5696
1644173727.645048,-0.010071,0.011169,-0.993652,0.037649,0.539237,-0.14626,55,279,580,5696
1644173727.693409,-0.011475,0.009705,-0.993896,0.205588,0.401832,-0.115725,52,265,579,5776
1644173727.741798,-0.012695,0.008301,-0.992981,0.113985,0.264427,-0.222595,60,276,571,5696
1644173727.790498,-0.009888,0.00946,-0.993347,0.159786,0.478168,-0.115725,51,274,587,5664
1644173727.842617,-0.012329,0.009583,-0.993164,0.190321,0.356031,-0.14626,49,273,586,5760
1644173727.892474,-0.012634,0.010803,-0.995483,0.281924,0.386565,-0.054656,49,273,568,5712
1644173727.936834,-0.008484,0.007385,-0.99408,0.129252,0.447634,-0.115725,54,270,572,5728
1644173728.032456,-0.011658,0.009216,-0.989014,0.159786,0.508702,-0.161527,45,270,582,5664
1644173728.081051,-0.011963,0.007202,-0.992126,0.404061,0.462901,-0.039389,36,276,578,5712
1644173728.12896,-0.01239,0.00885,-0.99231,0.129252,0.462901,-0.176794,52,282,570,5696
1644173728.177523,-0.013489,0.009827,-0.991882,0.175053,0.386565,-0.329466,34,274,580,5712
1644173728.2257,-0.009644,0.011536,-0.993469,0.327725,0.478168,-0.130992,54,268,577,5664
1644173728.274073,-0.011902,0.007324,-0.993774,0.281924,0.325496,-0.161527,52,275,572,5696
1644173728.32251,-0.011597,0.006592,-0.992981,0.190321,0.539237,-0.130992,52,277,582,5712
1644173728.370872,-0.00885,0.009949,-0.992493,0.251389,0.386565,-0.130992,54,277,577,5728
1644173728.419264,-0.011536,0.011719,-0.991455,0.297191,0.371298,-0.085191,64,275,577,5760
1644173728.467658,-0.012085,0.009766,-0.991272,0.35826,0.356031,-0.176794,48,276,580,5728
1644173728.51605,-0.010742,0.005493,-0.992798,0.220855,0.478168,0.113282,47,277,584,5696
1644173728.564425,-0.009033,0.009338,-0.991516,0.281924,0.279695,-0.085191,52,282,579,5760
1644173728.612853,-0.010193,0.008423,-0.994141,0.220855,0.523969,-0.085191,54,275,575,5760
1644173728.661223,-0.009399,0.004944,-0.9953,0.388794,0.539237,-0.100458,51,279,571,5776
1644173728.709606,-0.009521,0.008179,-0.990784,0.35826,0.417099,-0.25313,54,273,577,5760
1644173728.757977,-0.009766,0.010132,-0.991211,0.404061,0.356031,-0.100458,52,268,584,5712
1644173728.806364,-0.010071,0.011475,-0.99408,0.159786,0.447634,-0.130992,46,274,571,5648
1644173728.855205,-0.010376,0.005676,-0.991699,0.205588,0.539237,-0.054656,49,268,575,5728
1644173728.905054,-0.012756,0.00946,-0.993164,0.205588,0.508702,0.006412,48,269,580,5712
1644173728.95541,-0.012268,0.00824,-0.99469,0.236122,0.356031,-0.085191,49,277,582,5760
1644173729.005438,-0.010071,0.00769,-0.992737,0.220855,0.554504,0.052214,48,266,578,5696
1644173729.096982,-0.011353,0.009705,-0.994934,0.236122,0.356031,-0.085191,55,279,576,5776
1644173729.145217,-0.011169,0.007385,-0.993042,0.205588,0.417099,-0.192061,47,275,579,5712
1644173729.193547,-0.008667,0.010864,-0.992554,0.266656,0.386565,0.006412,57,282,568,5760
1644173729.241909,-0.012207,0.009216,-0.994629,0.327725,0.493435,0.036947,52,277,568,5712
1644173729.29031,-0.008667,0.008179,-0.99353,0.297191,0.356031,-0.176794,49,275,579,5696
1644173729.33868,-0.010864,0.008301,-0.994446,0.129252,0.401832,-0.085191,46,279,576,5760
1644173729.387073,-0.010925,0.009705,-0.991943,0.373527,0.432366,-0.207328,49,270,586,5664
1644173729.435478,-0.009949,0.008667,-0.99292,0.190321,0.462901,-0.024122,47,270,582,5728
1644173729.483868,-0.010498,0.010132,-0.993103,0.35826,0.401832,-0.14626,46,281,583,5728
1644173729.532271,-0.012512,0.007263,-0.992615,0.251389,0.356031,-0.268397,49,285,565,5728
1644173729.580645,-0.010803,0.009827,-0.991272,0.220855,0.447634,-0.192061,57,282,579,5696
1644173729.629044,-0.013794,0.007385,-0.992737,0.388794,0.417099,-0.069924,59,275,577,5696
1644173729.677416,-0.011353,0.00769,-0.993469,0.236122,0.371298,-0.161527,46,279,578,5712
1644173729.725809,-0.012207,0.009399,-0.993408,0.281924,0.325496,-0.024122,51,281,576,5664
1644173729.77422,-0.009583,0.008423,-0.989746,0.190321,0.462901,-0.008855,48,274,571,5776
1644173729.822608,-0.011658,0.008728,-0.997009,0.281924,0.233893,-0.176794,53,274,571,5696
1644173729.871024,-0.009338,0.010437,-0.993591,0.312458,0.371298,-0.176794,51,276,578,5776
1644173729.919696,-0.013611,0.008484,-0.993347,0.220855,0.401832,-0.085191,49,282,582,5696
1644173729.967832,-0.008057,0.008057,-0.992188,0.297191,0.371298,0.036947,52,255,584,5648
1644173730.017782,-0.008423,0.006409,-0.993774,0.342992,0.386565,0.052214,46,266,580,5728
1644173730.084834,-0.01123,0.00824,-0.992554,0.281924,0.478168,-0.176794,46,283,573,5696
1644173730.118615,-0.011597,0.009521,-0.993164,0.236122,0.478168,0.021679,49,270,572,5776
1644173730.162834,-0.011902,0.005371,-0.991455,0.281924,0.447634,-0.100458,53,279,576,5696
1644173730.258091,-0.010986,0.009644,-0.996277,0.190321,0.264427,0.006412,52,277,584,5632
1644173730.306478,-0.013977,0.008118,-0.993469,0.098718,0.493435,-0.237863,46,274,585,5728
1644173730.35488,-0.010315,0.009277,-0.993225,0.281924,0.478168,0.006412,53,276,573,5712
1644173730.403305,-0.008667,0.009338,-0.993164,0.159786,0.447634,-0.054656,52,280,575,5696
1644173730.451659,-0.008972,0.010925,-0.992432,0.113985,0.493435,-0.25313,53,264,571,5696
1644173730.50007,-0.009033,0.00946,-0.992065,0.327725,0.554504,-0.008855,47,280,575,5712
1644173730.548449,-0.010437,0.009766,-0.995544,0.297191,0.523969,-0.024122,55,269,562,5712
1644173730.596843,-0.011658,0.011292,-0.991638,0.266656,0.401832,-0.192061,57,275,584,5728
1644173730.645234,-0.012146,0.009338,-0.993164,0.35826,0.508702,0.021679,46,279,571,5664
1644173730.693617,-0.009766,0.006409,-0.989807,0.281924,0.493435,-0.329466,46,271,576,5696
1644173730.742017,-0.008118,0.008789,-0.993958,0.281924,0.417099,-0.130992,52,282,575,5760
1644173730.790401,-0.008728,0.007629,-0.994568,0.266656,0.478168,-0.207328,52,265,575,5728
1644173730.838794,-0.011536,0.008972,-0.992371,0.236122,0.371298,-0.207328,36,271,583,5728
1644173730.887233,-0.009644,0.008667,-0.992676,0.220855,0.371298,-0.192061,47,273,563,5728
1644173730.935641,-0.011414,0.00946,-0.989746,0.373527,0.417099,0.036947,52,280,579,5776
1644173730.98402,-0.009827,0.009949,-0.990173,0.266656,0.447634,-0.192061,46,269,580,5664
1644173731.032454,-0.013062,0.008362,-0.993652,0.251389,0.493435,-0.130992,54,280,575,5728
1644173731.088171,-0.01062,0.009888,-0.993774,0.220855,0.371298,-0.176794,47,265,575,5760
1644173731.131862,-0.010193,0.008423,-0.992065,0.342992,0.203359,-0.115725,48,279,580,5760
1644173731.182858,-0.012268,0.010803,-0.992981,0.35826,0.462901,-0.008855,45,275,572,5664
1644173731.227033,-0.010315,0.009399,-0.991699,0.388794,0.432366,0.006412,47,275,589,5664
1644173731.32276,-0.009583,0.007263,-0.993164,0.205588,0.401832,-0.054656,57,270,572,5696
1644173731.371115,-0.013184,0.009949,-0.994507,0.281924,0.401832,-0.039389,45,273,575,5728
1644173731.419533,-0.010681,0.006226,-0.994202,0.266656,0.401832,0.006412,52,270,575,5696
1644173731.467903,-0.012146,0.00592,-0.992554,0.251389,0.478168,0.021679,49,275,577,5600
1644173731.516326,-0.01178,0.008179,-0.994751,0.144519,0.264427,-0.039389,45,275,572,5712
1644173731.564728,-0.012024,0.008972,-0.991882,0.342992,0.310229,-0.008855,55,279,566,5696
1644173731.613126,-0.00769,0.00885,-0.99292,0.281924,0.493435,-0.14626,46,271,583,5712
1644173731.661491,-0.008179,0.010742,-0.992188,0.449863,0.462901,-0.069924,58,269,583,5664
1644173731.709891,-0.007263,0.009583,-0.991455,0.342992,0.493435,-0.024122,46,271,573,5664
1644173731.758256,-0.01001,0.00885,-0.993042,0.388794,0.356031,-0.069924,52,270,575,5664
1644173731.806655,-0.011353,0.010437,-0.991333,0.129252,0.371298,-0.008855,53,269,576,5760
1644173731.855181,-0.012451,0.008423,-0.992493,0.220855,0.279695,-0.283664,54,277,584,5712
1644173731.903454,-0.007751,0.008179,-0.991943,0.35826,0.356031,-0.115725,55,279,571,5696
1644173731.951841,-0.009521,0.006714,-0.991272,0.068183,0.447634,-0.237863,49,273,577,5712
1644173732.000228,-0.009949,0.007202,-0.993042,0.297191,0.356031,-0.054656,53,279,573,5760
1644173732.06177,-0.007751,0.009827,-0.99176,0.312458,0.386565,-0.054656,58,281,571,5760
1644173732.099459,-0.010742,0.007385,-0.995728,0.297191,0.478168,-0.14626,47,277,579,5712
1644173732.145362,-0.011169,0.010864,-0.992859,0.312458,0.401832,-0.039389,43,281,580,5712
1644173732.193765,-0.007812,0.007263,-0.98999,0.220855,0.310229,-0.054656,47,275,579,5632
1644173732.243205,-0.012634,0.008667,-0.991333,0.236122,0.432366,-0.14626,42,280,575,5696
1644173732.293219,-0.009033,0.007263,-0.993286,0.236122,0.478168,-0.054656,43,279,580,5760
1644173732.343429,-0.010803,0.006714,-0.992126,0.419328,0.63084,-0.100458,47,277,582,5728
1644173732.388512,-0.009705,0.008789,-0.99176,0.205588,0.462901,-0.130992,53,271,566,5776
1644173732.48411,-0.006836,0.009399,-0.991516,0.373527,0.585038,-0.024122,53,276,583,5712
1644173732.532503,-0.010742,0.008667,-0.990601,0.266656,0.417099,-0.115725,55,269,571,5712
1644173732.580871,-0.010071,0.008484,-0.990845,0.526198,0.554504,-0.130992,45,275,570,5696
1644173732.629257,-0.012329,0.007996,-0.993713,0.190321,0.417099,0.082748,45,277,584,5664
1644173732.67765,-0.011902,0.011108,-0.993164,0.144519,0.432366,-0.14626,49,277,572,5696
1644173732.72604,-0.010132,0.008606,-0.992188,0.251389,0.294962,0.006412,48,279,573,5696
1644173732.774431,-0.010803,0.009277,-0.991882,0.266656,0.371298,0.006412,57,287,572,5776
1644173732.822896,-0.011353,0.008484,-0.991028,0.190321,0.24916,-0.069924,57,268,582,5776
1644173732.87126,-0.009644,0.008789,-0.992676,0.144519,0.340763,-0.100458,51,269,576,5760
1644173732.919659,-0.014526,0.010132,-0.992249,0.281924,0.401832,-0.192061,51,269,573,5696
1644173732.968043,-0.011047,0.008606,-0.992432,-0.038687,0.279695,0.021679,53,271,578,5664
1644173733.016428,-0.011536,0.00946,-0.992126,0.251389,0.493435,-0.237863,47,280,575,5728
1644173733.067716,-0.013428,0.009094,-0.993591,0.037649,0.340763,0.006412,42,275,579,5696
1644173733.113201,-0.013794,0.011658,-0.993958,0.236122,0.447634,0.036947,54,275,579,5696
1644173733.161565,-0.009583,0.009644,-0.991699,0.144519,0.417099,0.113282,48,283,580,5664
1644173733.209961,-0.010681,0.011353,-0.991333,0.281924,0.401832,-0.222595,39,271,576,5728
1644173733.258312,-0.012512,0.011353,-0.995178,0.281924,0.493435,-0.176794,55,269,576,5728
1644173733.306732,-0.008667,0.009827,-0.993958,0.236122,0.462901,-0.024122,42,285,586,5696
1644173733.355329,-0.011841,0.012268,-0.989929,0.266656,0.233893,0.082748,51,274,578,5696
1644173733.403834,-0.010864,0.009399,-0.994568,0.098718,0.371298,-0.085191,45,275,577,5760
1644173733.454366,-0.010925,0.006226,-0.990662,0.266656,0.417099,-0.085191,51,283,571,5712
1644173733.504467,-0.012939,0.004883,-0.993591,0.281924,0.493435,-0.14626,51,276,573,5728
1644173733.549532,-0.010864,0.009277,-0.992249,0.144519,0.417099,-0.069924,53,276,562,5696
1644173733.645453,-0.00946,0.011108,-0.992615,0.113985,0.356031,-0.039389,49,275,568,5760
1644173733.693865,-0.010315,0.010315,-0.993835,0.266656,0.508702,-0.085191,49,275,575,5664
1644173733.742391,-0.007629,0.007751,-0.990967,0.388794,0.310229,-0.008855,51,264,583,5712
1644173733.790625,-0.013123,0.009644,-0.992493,0.220855,0.325496,-0.039389,55,266,571,5696
1644173733.839068,-0.010742,0.009705,-0.990784,0.205588,0.340763,0.067481,47,273,577,5728
1644173733.88746,-0.012329,0.008728,-0.989807,0.190321,0.386565,-0.054656,48,269,576,5664
1644173733.935855,-0.012024,0.007812,-0.995361,0.098718,0.447634,-0.130992,42,268,577,5808
1644173733.984253,-0.009399,0.010437,-0.990845,0.312458,0.478168,-0.039389,48,271,573,5664
1644173734.032659,-0.01062,0.009338,-0.991455,0.281924,0.432366,-0.130992,46,271,578,5712
1644173734.084832,-0.014404,0.007019,-0.995361,0.236122,0.386565,-0.069924,59,277,582,5760
1644173734.129402,-0.014832,0.009155,-0.992737,0.129252,0.462901,-0.283664,47,277,575,5696
1644173734.177764,-0.011597,0.007812,-0.993286,0.220855,0.233893,-0.008855,57,277,572,5712
1644173734.226166,-0.010132,0.008667,-0.993896,0.220855,0.340763,-0.039389,58,274,592,5760
1644173734.274532,-0.010254,0.006653,-0.993774,0.266656,0.371298,-0.14626,52,282,579,5664
1644173734.323109,-0.011292,0.007385,-0.995178,0.205588,0.279695,0.036947,46,271,583,5728
1644173734.37166,-0.011902,0.01001,-0.994629,0.205588,0.401832,-0.130992,47,270,577,5664
1644173734.420597,-0.012695,0.008301,-0.993713,0.312458,0.356031,-0.14626,41,279,578,5712
1644173734.471142,-0.010803,0.009521,-0.99292,0.205588,0.417099,-0.069924,58,276,571,5648
1644173734.521305,-0.014465,0.010254,-0.991577,0.312458,0.447634,-0.115725,51,274,578,5760
1644173734.566307,-0.009888,0.00824,-0.996277,0.052916,0.401832,0.006412,48,266,569,5664
1644173734.661674,-0.009338,0.010498,-0.992188,0.297191,0.294962,-0.100458,55,281,571,5696
1644173734.710048,-0.011047,0.006897,-0.994385,0.175053,0.447634,-0.14626,47,270,572,5696
1644173734.75843,-0.012207,0.009338,-0.994446,0.205588,0.310229,-0.14626,40,282,575,5696
1644173734.806836,-0.009888,0.008362,-0.991333,0.327725,0.294962,-0.115725,49,273,575,5712
1644173734.855271,-0.012756,0.009705,-0.992188,0.098718,0.539237,-0.115725,52,273,579,5728
1644173734.903678,-0.013062,0.006287,-0.994202,0.266656,0.462901,-0.054656,43,276,576,5728
1644173734.952075,-0.010864,0.009888,-0.993469,0.098718,0.386565,-0.039389,53,279,578,5760
1644173735.000427,-0.012695,0.008057,-0.992126,0.236122,0.447634,-0.054656,51,276,576,5728
1644173735.065697,-0.011902,0.01001,-0.99469,0.251389,0.508702,0.006412,51,274,585,5760
1644173735.100688,-0.013855,0.00769,-0.991577,0.312458,0.432366,-0.039389,45,273,572,5728
1644173735.145584,-0.013062,0.007141,-0.992676,0.266656,0.401832,-0.130992,47,285,570,5712
1644173735.193965,-0.010559,0.007385,-0.989929,0.281924,0.340763,-0.100458,57,263,570,5728
1644173735.242374,-0.010925,0.008301,-0.992676,0.236122,0.432366,0.036947,42,277,591,5760
1644173735.290761,-0.008667,0.009216,-0.992126,0.297191,0.432366,-0.14626,51,281,576,5728
1644173735.339158,-0.012756,0.007263,-0.992859,0.342992,0.493435,-0.100458,43,276,571,5696
1644173735.387522,-0.007385,0.00824,-0.992737,0.281924,0.447634,0.036947,52,275,579,5712
1644173735.435902,-0.012939,0.00824,-0.992004,0.205588,0.478168,-0.176794,55,259,571,5776
1644173735.484313,-0.010986,0.011292,-0.992249,0.419328,0.585038,-0.054656,57,273,582,5696
1644173735.532755,-0.012512,0.006897,-0.993042,0.129252,0.493435,-0.024122,46,271,576,5760
1644173735.582371,-0.011658,0.009216,-0.992432,0.144519,0.432366,-0.100458,45,275,577,5664
1644173735.632633,-0.009705,0.007996,-0.993835,0.297191,0.386565,0.036947,51,271,578,5760
1644173735.682895,-0.01178,0.007263,-0.991821,0.404061,0.508702,-0.008855,48,281,583,5696
1644173735.77486,-0.012634,0.006104,-0.993469,0.312458,0.478168,-0.085191,45,273,589,5728
1644173735.823082,-0.01178,0.005249,-0.99176,0.205588,0.539237,-0.024122,49,282,575,5728
1644173735.871481,-0.011353,0.006836,-0.992432,0.129252,0.676641,-0.115725,43,269,571,5712
1644173735.919873,-0.01123,0.008606,-0.993591,0.35826,0.294962,-0.024122,47,270,577,5712
1644173735.968256,-0.010986,0.010681,-0.989868,0.327725,0.401832,-0.100458,52,282,577,5712
1644173736.016652,-0.010071,0.009705,-0.993103,0.342992,0.371298,-0.024122,53,274,573,5712
1644173736.079608,-0.012146,0.007935,-0.993103,0.251389,0.401832,-0.14626,42,275,577,5712
1644173736.122307,-0.010254,0.007996,-0.991638,0.35826,0.539237,-0.085191,47,280,575,5696
1644173736.161833,-0.010803,0.007446,-0.995056,0.342992,0.554504,-0.130992,43,276,569,5728
1644173736.210278,-0.013611,0.009094,-0.992371,0.236122,0.24916,-0.192061,45,287,582,5712
1644173736.258647,-0.010437,0.005676,-0.992554,0.190321,0.401832,-0.161527,53,274,576,5696
1644173736.306974,-0.010803,0.010986,-0.993347,0.220855,0.386565,-0.14626,58,269,580,5648
1644173736.355356,-0.010193,0.009827,-0.992737,0.281924,0.371298,-0.054656,59,277,582,5696
1644173736.403754,-0.01123,0.007568,-0.993347,0.281924,0.493435,-0.130992,46,276,583,5664
1644173736.452176,-0.009644,0.009216,-0.992798,0.312458,0.432366,-0.039389,55,281,583,5664
1644173736.500508,-0.01123,0.005798,-0.991272,0.175053,0.401832,-0.069924,48,281,576,5760
1644173736.548896,-0.008484,0.008789,-0.990967,0.35826,0.417099,-0.054656,46,276,580,5696
1644173736.59729,-0.013428,0.01001,-0.991882,0.144519,0.356031,0.021679,46,269,583,5664
1644173736.64862,-0.012634,0.007568,-0.994934,0.129252,0.493435,-0.283664,48,269,569,5728
1644173736.70591,-0.012146,0.006042,-0.990906,0.251389,0.554504,-0.161527,46,286,580,5664
1644173736.762332,-0.009766,0.008179,-0.99353,0.251389,0.447634,-0.222595,53,279,587,5728
1644173736.839288,-0.011475,0.006775,-0.992065,0.205588,0.478168,0.006412,64,275,593,5664
1644173736.887611,-0.010925,0.009155,-0.992004,0.495664,0.401832,-0.069924,46,266,576,5648
1644173736.93598,-0.010193,0.010376,-0.992004,0.251389,0.523969,-0.161527,53,271,583,5728
1644173736.984535,-0.011963,0.008301,-0.995544,0.327725,0.279695,0.052214,52,273,598,5664
1644173737.032837,-0.009644,0.009399,-0.994873,0.159786,0.462901,-0.069924,51,283,580,5760
1644173737.081332,-0.009155,0.009094,-0.99408,-0.02342,0.417099,0.006412,51,279,580,5648
1644173737.12968,-0.013977,0.007568,-0.992432,0.510931,0.539237,-0.115725,57,277,577,5696
1644173737.178168,-0.009216,0.006042,-0.994324,0.281924,0.401832,-0.115725,49,273,586,5760
1644173737.226928,-0.010498,0.007751,-0.995178,0.449863,0.447634,-0.192061,51,279,569,5648
1644173737.281351,-0.010498,0.011169,-0.993469,0.175053,0.432366,0.021679,39,266,578,5696
1644173737.32332,-0.009705,0.008362,-0.990906,0.159786,0.493435,-0.039389,43,276,580,5696
1644173737.371564,-0.010437,0.008545,-0.994446,0.266656,0.539237,-0.161527,47,282,577,5696
1644173737.419964,-0.00946,0.006653,-0.992859,0.251389,0.356031,0.067481,60,283,585,5776
1644173737.468337,-0.01239,0.011902,-0.992798,0.175053,0.233893,-0.008855,43,271,566,5712
1644173737.517292,-0.009949,0.010559,-0.995667,0.312458,0.401832,0.006412,57,280,579,5696
1644173737.567268,-0.012939,0.008728,-0.991211,0.08345,0.401832,-0.130992,46,276,583,5760
1644173737.617404,-0.009521,0.006775,-0.992371,0.434595,0.432366,-0.192061,40,270,579,5760
1644173737.662323,-0.00824,0.009338,-0.992554,0.342992,0.432366,-0.14626,45,282,579,5664
1644173737.758673,-0.010559,0.008972,-0.993713,0.434595,0.432366,-0.176794,42,273,572,5664
1644173737.807053,-0.012756,0.009338,-0.993347,0.342992,0.386565,-0.039389,46,276,578,5664
1644173737.855441,-0.010925,0.011047,-0.992432,0.220855,0.356031,-0.14626,48,274,566,5648
1644173737.903856,-0.010498,0.010193,-0.993469,0.35826,0.585038,-0.069924,52,280,577,5696
1644173737.952393,-0.010376,0.009521,-0.992493,0.175053,0.401832,0.036947,46,274,564,5664
1644173738.000617,-0.010803,0.009277,-0.993591,0.251389,0.508702,-0.008855,60,274,578,5664
1644173738.060234,-0.009338,0.009277,-0.995056,0.35826,0.554504,-0.115725,43,276,573,5696
1644173738.099192,-0.011658,0.010254,-0.993286,0.327725,0.554504,-0.14626,49,275,575,5696
1644173738.145785,-0.010925,0.009338,-0.990906,0.159786,0.340763,-0.054656,47,275,575,5728
1644173738.19419,-0.011108,0.008728,-0.992249,0.35826,0.401832,-0.14626,51,276,578,5712
1644173738.242594,-0.009155,0.007935,-0.991638,0.144519,0.386565,-0.14626,48,269,578,5728
1644173738.290994,-0.012146,0.009705,-0.992615,0.236122,0.264427,-0.069924,53,276,578,5664
1644173738.339412,-0.009949,0.010742,-0.992126,0.281924,0.417099,-0.115725,54,277,582,5728
1644173738.387815,-0.00885,0.009216,-0.991455,0.236122,0.554504,-0.039389,54,280,579,5712
1644173738.436191,-0.007935,0.009644,-0.99231,0.068183,0.386565,-0.237863,41,283,587,5696
1644173738.48463,-0.010925,0.010254,-0.993164,0.236122,0.462901,-0.207328,42,273,579,5696
1644173738.532988,-0.011597,0.008789,-0.992432,0.251389,0.539237,-0.115725,54,265,577,5696
1644173738.581664,-0.01062,0.009949,-0.992004,0.190321,0.340763,-0.192061,46,266,571,5760
1644173738.631983,-0.009094,0.010559,-0.992065,0.037649,0.203359,-0.100458,42,275,575,5760
1644173738.68253,-0.012512,0.010315,-0.991272,0.281924,0.417099,0.006412,51,276,573,5728
1644173738.726986,-0.007019,0.009094,-0.991821,0.297191,0.294962,0.082748,49,268,575,5712
1644173738.823361,-0.010376,0.008179,-0.994629,0.236122,0.294962,-0.161527,46,274,571,5712
1644173738.871719,-0.008728,0.011292,-0.99353,0.236122,0.279695,-0.054656,52,273,577,5696
1644173738.920089,-0.012207,0.007263,-0.991882,0.281924,0.401832,-0.268397,58,274,569,5728
1644173738.9685,-0.010986,0.007263,-0.99115,0.144519,0.356031,-0.024122,53,283,571,5712
1644173739.016859,-0.010742,0.006958,-0.992371,0.388794,0.401832,0.036947,51,279,578,5728
1644173739.072948,-0.010986,0.009094,-0.994812,0.113985,0.569771,-0.14626,54,268,579,5728
1644173739.11362,-0.010681,0.010498,-0.993774,0.327725,0.356031,-0.237863,46,269,583,5712
1644173739.162056,-0.014282,0.008179,-0.992554,0.175053,0.462901,-0.039389,48,274,576,5696
1644173739.210443,-0.011414,0.007996,-0.99353,0.373527,0.401832,-0.115725,45,270,572,5648
1644173739.258857,-0.008545,0.005493,-0.992432,0.327725,0.508702,-0.161527,51,281,571,5696
1644173739.307225,-0.009583,0.009766,-0.993042,0.266656,0.478168,-0.130992,55,274,578,5664
1644173739.356735,-0.009094,0.009399,-0.993835,0.098718,0.340763,-0.100458,51,279,573,5760
1644173739.404022,-0.009094,0.006653,-0.992004,0.08345,0.447634,-0.130992,41,274,580,5696
1644173739.452389,-0.00885,0.006592,-0.991333,0.373527,0.447634,-0.008855,53,279,566,5760
1644173739.500755,-0.01062,0.01062,-0.991577,0.404061,0.493435,-0.14626,46,262,573,5664
1644173739.549171,-0.007629,0.008606,-0.992981,0.297191,0.356031,-0.161527,53,276,578,5696
1644173739.59756,-0.011902,0.009644,-0.990051,0.190321,0.401832,-0.115725,46,276,578,5728
1644173739.64613,-0.008667,0.009338,-0.989868,0.266656,0.508702,-0.14626,55,281,578,5760
1644173739.694697,-0.012939,0.008606,-0.992615,0.281924,0.310229,-0.192061,43,281,576,5776
1644173739.74511,-0.011658,0.008911,-0.995911,0.434595,0.432366,-0.024122,41,271,573,5664
1644173739.794917,-0.011841,0.008728,-0.994324,0.266656,0.386565,0.006412,46,264,569,5696
1644173739.845014,-0.00885,0.008118,-0.989929,0.205588,0.401832,0.036947,43,279,573,5712
1644173739.936322,-0.007812,0.008118,-0.992981,0.404061,0.432366,-0.039389,45,282,570,5712
1644173739.984884,-0.009766,0.008911,-0.991455,0.236122,0.340763,-0.024122,48,276,578,5712
1644173740.033092,-0.008972,0.006104,-0.993286,0.251389,0.478168,-0.192061,42,275,582,5696
1644173740.081549,-0.010132,0.006409,-0.991028,0.312458,0.63084,-0.14626,49,282,565,5728
1644173740.129822,-0.011047,0.009216,-0.991272,0.35826,0.523969,0.082748,48,274,569,5760
1644173740.178213,-0.010986,0.008179,-0.995056,0.205588,0.310229,-0.176794,51,279,576,5728
1644173740.226609,-0.009399,0.006775,-0.991821,0.052916,0.462901,-0.298931,55,274,576,5664
1644173740.275053,-0.008484,0.008789,-0.992554,0.281924,0.417099,-0.207328,52,270,575,5664
1644173740.323399,-0.013184,0.008667,-0.993408,0.205588,0.371298,-0.008855,53,266,573,5712
1644173740.37179,-0.007996,0.008667,-0.993164,0.144519,0.432366,-0.085191,43,276,571,5760
1644173740.420179,-0.010681,0.007996,-0.992249,0.190321,0.417099,-0.008855,57,273,582,5648
1644173740.468572,-0.011292,0.00885,-0.990295,0.373527,0.386565,-0.222595,55,271,573,5712
1644173740.516955,-0.010376,0.007507,-0.991699,0.251389,0.386565,-0.024122,49,275,582,5664
1644173740.565332,-0.011597,0.008545,-0.994507,0.08345,0.325496,0.143817,59,275,577,5760
1644173740.613736,-0.012207,0.009888,-0.99176,0.190321,0.417099,-0.192061,53,264,583,5664
1644173740.662168,-0.009155,0.010376,-0.993103,0.129252,0.340763,-0.14626,60,279,576,5664
1644173740.710517,-0.008057,0.008118,-0.995117,0.297191,0.340763,-0.100458,64,273,572,5712
1644173740.758916,-0.01001,0.009216,-0.99292,0.220855,0.401832,-0.130992,53,266,578,5712
1644173740.807333,-0.009216,0.01062,-0.990417,0.327725,0.417099,-0.069924,45,268,568,5776
1644173740.856589,-0.010986,0.009338,-0.991882,0.251389,0.432366,-0.100458,48,279,580,5664
1644173740.90686,-0.01123,0.006348,-0.99176,0.190321,0.493435,-0.085191,49,280,584,5696
1644173740.957856,-0.010559,0.010254,-0.99292,0.251389,0.371298,-0.130992,60,274,564,5760
1644173741.001723,-0.013489,0.008911,-0.992249,0.251389,0.447634,-0.176794,58,274,578,5600
1644173741.099951,-0.013916,0.006836,-0.992065,0.35826,0.462901,-0.25313,62,286,578,5712
1644173741.146036,-0.009827,0.00824,-0.99469,0.434595,0.371298,0.006412,54,265,577,5760
1644173741.194424,-0.009277,0.009766,-0.993225,0.281924,0.478168,-0.100458,58,271,573,5664
1644173741.242823,-0.008728,0.012695,-0.994324,0.190321,0.676641,-0.100458,42,277,579,5728
1644173741.291218,-0.012451,0.00885,-0.994019,0.388794,0.462901,-0.14626,47,275,575,5712
1644173741.339595,-0.01178,0.010071,-0.993835,0.312458,0.340763,-0.008855,51,274,583,5728
1644173741.387994,-0.009644,0.008789,-0.993469,0.205588,0.371298,-0.130992,49,285,577,5696
1644173741.436381,-0.008789,0.007263,-0.991699,0.175053,0.417099,0.006412,49,273,582,5664
1644173741.48478,-0.01062,0.010925,-0.993652,0.236122,0.386565,-0.054656,45,275,575,5712
1644173741.533169,-0.013489,0.010559,-0.994629,0.312458,0.371298,0.052214,48,266,578,5760
1644173741.581542,-0.009644,0.006104,-0.992432,0.144519,0.340763,-0.054656,45,275,577,5760
1644173741.629943,-0.010254,0.010559,-0.992004,0.205588,0.462901,-0.176794,51,276,583,5712
1644173741.678662,-0.013367,0.008301,-0.991394,0.236122,0.386565,0.021679,53,269,576,5696
1644173741.727611,-0.012451,0.009583,-0.994141,0.312458,0.478168,-0.115725,45,273,575,5760
1644173741.778204,-0.012085,0.007812,-0.992249,0.281924,0.432366,-0.192061,45,275,575,5696
1644173741.828745,-0.009094,0.009827,-0.992859,0.266656,0.264427,0.006412,47,280,579,5696
1644173741.920351,-0.008789,0.009644,-0.993225,0.159786,0.356031,0.021679,39,274,573,5712
1644173741.96871,-0.007507,0.011475,-0.992615,0.159786,0.294962,0.052214,46,281,573,5648
1644173742.017098,-0.010498,0.011108,-0.991028,0.312458,0.386565,-0.115725,55,271,578,5664
1644173742.068291,-0.009521,0.012573,-0.991089,0.052916,0.386565,-0.130992,42,277,575,5664
1644173742.113874,-0.009644,0.009949,-0.992493,0.037649,0.508702,-0.008855,60,271,569,5712
1644173742.162262,-0.01062,0.007446,-0.991577,0.113985,0.523969,-0.054656,55,274,576,5728
1644173742.210641,-0.009399,0.009644,-0.991699,0.266656,0.310229,-0.039389,43,274,578,5712
1644173742.259022,-0.010925,0.008911,-0.992126,0.129252,0.432366,-0.100458,45,275,577,5728
1644173742.307394,-0.009644,0.008972,-0.995361,0.35826,0.386565,-0.024122,40,270,570,5760
1644173742.355814,-0.011536,0.00885,-0.991516,0.327725,0.356031,-0.069924,58,276,580,5696
1644173742.404221,-0.012329,0.005859,-0.992798,0.159786,0.325496,-0.085191,57,273,579,5696
1644173742.452608,-0.008606,0.008057,-0.994141,0.113985,0.462901,-0.207328,58,271,585,5712
1644173742.500954,-0.009827,0.01062,-0.99408,0.281924,0.386565,-0.115725,45,270,577,5776
1644173742.54936,-0.01123,0.007263,-0.990967,0.266656,0.478168,-0.008855,58,276,580,5808
1644173742.597763,-0.009338,0.009216,-0.991699,0.220855,0.24916,0.036947,58,281,573,5664
1644173742.646157,-0.011658,0.009827,-0.992432,0.281924,0.554504,-0.024122,55,271,576,5728
1644173742.694535,-0.01001,0.008484,-0.991455,0.251389,0.310229,-0.115725,40,273,575,5728
1644173742.742943,-0.010559,0.009583,-0.991638,0.113985,0.447634,-0.039389,54,275,577,5664
1644173742.791339,-0.01001,0.006775,-0.993591,0.205588,0.401832,0.021679,47,280,572,5696
1644173742.840616,-0.012329,0.007019,-0.994385,0.190321,0.600305,0.036947,53,283,580,5696
1644173742.891424,-0.010132,0.00708,-0.993103,0.251389,0.356031,-0.039389,53,269,573,5712
1644173742.941854,-0.013245,0.010315,-0.992859,0.251389,0.24916,-0.024122,51,271,580,5696
1644173742.986291,-0.008484,0.007568,-0.991394,0.297191,0.478168,-0.024122,61,280,563,5696
1644173743.081803,-0.011108,0.006836,-0.990234,0.129252,0.401832,-0.039389,47,268,572,5728
1644173743.130054,-0.011108,0.007263,-0.990723,0.220855,0.508702,-0.008855,46,276,573,5760
1644173743.178443,-0.011536,0.010193,-0.993103,0.480397,0.432366,-0.100458,54,285,575,5648
1644173743.226825,-0.010742,0.008545,-0.992737,0.175053,0.356031,-0.237863,41,279,571,5664
1644173743.275223,-0.009949,0.009521,-0.99469,0.419328,0.325496,-0.268397,52,275,572,5760
1644173743.323675,-0.009399,0.006409,-0.99292,0.205588,0.371298,-0.085191,48,276,578,5696
1644173743.372238,-0.007568,0.008545,-0.990112,0.388794,0.539237,-0.008855,45,277,572,5712
1644173743.420407,-0.01062,0.010986,-0.995056,0.159786,0.478168,-0.237863,46,281,578,5712
1644173743.468786,-0.012451,0.007935,-0.990784,0.159786,0.401832,-0.115725,55,271,580,5728
1644173743.517171,-0.010254,0.007629,-0.991394,0.404061,0.569771,-0.069924,52,280,584,5808
1644173743.565578,-0.01001,0.010376,-0.99115,0.220855,0.432366,-0.161527,51,279,583,5696
1644173743.613957,-0.009155,0.008301,-0.991821,0.281924,0.478168,0.052214,39,279,576,5664
1644173743.662381,-0.012085,0.00769,-0.9953,0.281924,0.417099,-0.085191,46,279,580,5696
1644173743.710723,-0.009705,0.00769,-0.990051,0.251389,0.417099,-0.130992,47,270,579,5712
1644173743.759103,-0.011597,0.005188,-0.994995,0.144519,0.478168,-0.024122,58,279,571,5728
1644173743.807523,-0.009827,0.006592,-0.993469,0.236122,0.432366,0.006412,51,281,571,5664
1644173743.855962,-0.011963,0.009766,-0.995605,0.327725,0.340763,-0.176794,55,281,583,5696
1644173743.904433,-0.009888,0.008972,-0.993835,0.205588,0.432366,-0.069924,48,279,569,5648
1644173743.952731,-0.009827,0.009216,-0.99054,0.205588,0.340763,0.021679,49,270,582,5696
1644173744.002499,-0.01355,0.009155,-0.991821,0.236122,0.569771,-0.054656,46,281,571,5712
1644173744.075866,-0.010498,0.008362,-0.990967,0.297191,0.340763,0.052214,52,275,586,5648
1644173744.10467,-0.009888,0.008728,-0.992371,0.129252,0.478168,-0.237863,49,282,577,5664
1644173744.19487,-0.013306,0.007629,-0.991028,0.236122,0.325496,-0.024122,49,282,575,5696
1644173744.243052,-0.010925,0.009155,-0.993286,0.342992,0.386565,-0.054656,46,269,571,5760
1644173744.291414,-0.010742,0.008362,-0.991699,0.281924,0.462901,-0.115725,54,273,568,5664
1644173744.339817,-0.008972,0.009644,-0.988953,0.220855,0.340763,-0.222595,49,282,579,5760
1644173744.388217,-0.012512,0.008606,-0.990356,0.312458,0.371298,-0.14626,46,276,580,5728
1644173744.436603,-0.009644,0.009705,-0.991699,0.297191,0.386565,-0.130992,53,274,576,5664
1644173744.485026,-0.012451,0.008545,-0.991821,0.342992,0.356031,0.052214,40,263,577,5664
1644173744.533401,-0.011536,0.009583,-0.992493,0.297191,0.478168,0.052214,45,275,579,5664
1644173744.581783,-0.011353,0.009644,-0.993774,0.251389,0.554504,-0.039389,48,276,571,5760
1644173744.630175,-0.011841,0.009827,-0.995178,0.312458,0.310229,-0.130992,55,274,566,5696
1644173744.678557,-0.012268,0.00769,-0.992493,0.190321,0.493435,-0.054656,42,273,582,5712
1644173744.726954,-0.011353,0.00885,-0.993896,0.220855,0.523969,-0.130992,47,275,572,5760
1644173744.775337,-0.01178,0.005981,-0.992004,0.35826,0.233893,-0.115725,53,276,573,5664
1644173744.82375,-0.01178,0.005493,-0.996094,0.144519,0.325496,-0.192061,53,271,566,5808
1644173744.872181,-0.01062,0.008179,-0.992554,0.297191,0.462901,0.021679,48,266,573,5664
1644173744.920544,-0.011353,0.012512,-0.993042,0.190321,0.386565,0.067481,46,274,573,5664
1644173744.968945,-0.013306,0.008667,-0.993469,0.266656,0.417099,-0.207328,53,266,569,5712
1644173745.017405,-0.011475,0.005676,-0.993042,0.220855,0.508702,-0.207328,55,269,580,5712
1644173745.082762,-0.009094,0.007141,-0.992676,0.297191,0.417099,-0.085191,49,273,579,5728
1644173745.162707,-0.013184,0.008057,-0.995483,0.281924,0.462901,-0.024122,42,268,570,5728
1644173745.210872,-0.010193,0.010498,-0.99292,0.327725,0.462901,-0.222595,55,269,573,5648
1644173745.259233,-0.010803,0.011963,-0.991455,0.251389,0.493435,0.021679,46,279,571,5728
1644173745.307647,-0.009766,0.007324,-0.994568,0.297191,0.386565,-0.039389,55,271,576,5728
1644173745.356014,-0.011719,0.009277,-0.990051,0.205588,0.386565,0.052214,46,274,571,5696
1644173745.404429,-0.010254,0.010193,-0.992004,0.419328,0.386565,-0.14626,49,275,584,5664
1644173745.452823,-0.013611,0.007507,-0.992432,0.205588,0.554504,-0.222595,42,268,568,5776
1644173745.501196,-0.013,0.009277,-0.992859,0.312458,0.279695,-0.008855,45,270,577,5696
1644173745.549594,-0.01123,0.00885,-0.990784,0.404061,0.539237,0.006412,59,275,575,5664
1644173745.597965,-0.011597,0.011353,-0.993164,0.159786,0.371298,-0.237863,57,273,575,5696
1644173745.646373,-0.009705,0.008545,-0.993164,0.098718,0.447634,-0.054656,54,275,572,5696
1644173745.694788,-0.010315,0.007935,-0.991089,0.297191,0.447634,-0.039389,52,268,582,5664
1644173745.743163,-0.009277,0.007141,-0.995117,0.175053,0.310229,-0.14626,40,268,586,5728
1644173745.791554,-0.01062,0.008362,-0.990906,0.35826,0.493435,-0.161527,52,282,575,5664
1644173745.839905,-0.006287,0.007446,-0.993225,0.159786,0.447634,0.006412,49,270,586,5760
1644173745.888364,-0.011902,0.01001,-0.992676,0.220855,0.508702,-0.054656,52,270,577,5808
1644173745.936751,-0.013,0.00708,-0.991333,0.312458,0.401832,-0.115725,55,274,578,5696
1644173745.985534,-0.011047,0.008972,-0.991089,0.388794,0.386565,-0.100458,51,266,573,5760
1644173746.033841,-0.009827,0.008728,-0.993591,0.35826,0.417099,-0.039389,52,273,577,5664
1644173746.090923,-0.009216,0.00769,-0.99353,0.266656,0.203359,-0.100458,39,279,569,5696
1644173746.178778,-0.012207,0.007996,-0.989258,0.281924,0.478168,-0.176794,41,269,576,5696
1644173746.227083,-0.011292,0.009705,-0.992126,0.281924,0.417099,-0.130992,53,276,571,5648
1644173746.275475,-0.014282,0.00946,-0.994446,0.205588,0.432366,-0.192061,47,282,572,5696
1644173746.323891,-0.013184,0.011047,-0.992737,0.175053,0.340763,-0.100458,52,273,570,5664
1644173746.372281,-0.012268,0.007202,-0.993408,0.220855,0.462901,0.036947,41,271,578,5664
1644173746.420672,-0.007996,0.006836,-0.992432,0.129252,0.371298,-0.161527,51,276,573,5728
1644173746.469057,-0.009094,0.008301,-0.990723,0.037649,0.371298,-0.024122,48,274,571,5648
1644173746.517458,-0.011902,0.008911,-0.991638,0.159786,0.279695,-0.130992,48,274,578,5696
1644173746.56584,-0.008545,0.00946,-0.993042,0.190321,0.386565,-0.024122,55,276,578,5760
1644173746.614253,-0.009644,0.007385,-0.990417,0.098718,0.325496,0.067481,49,275,570,5728
1644173746.662616,-0.013306,0.007568,-0.993347,0.144519,0.539237,-0.069924,52,282,572,5712
1644173746.711025,-0.012329,0.007263,-0.993958,0.327725,0.325496,-0.176794,53,271,571,5728
1644173746.75939,-0.010925,0.008179,-0.990601,0.113985,0.447634,-0.176794,49,285,572,5728
1644173746.807803,-0.011353,0.008728,-0.99408,0.037649,0.417099,-0.100458,41,264,576,5664
1644173746.856178,-0.008911,0.010132,-0.991211,0.205588,0.432366,-0.024122,49,270,577,5728
1644173746.904626,-0.01001,0.00769,-0.991882,0.266656,0.478168,-0.115725,54,275,591,5712
1644173746.952974,-0.012451,0.01062,-0.993713,0.159786,0.447634,-0.069924,64,273,575,5728
1644173747.002327,-0.013184,0.00885,-0.994751,0.190321,0.417099,0.220153,52,282,568,5664
1644173747.068826,-0.011047,0.008423,-0.991089,0.220855,0.356031,-0.054656,58,276,578,5696
1644173747.098791,-0.010193,0.011902,-0.993225,0.08345,0.523969,0.006412,51,269,573,5712
1644173747.151323,-0.010376,0.006836,-0.994507,0.113985,0.401832,-0.25313,51,274,573,5696
1644173747.243304,-0.012451,0.00647,-0.991577,0.190321,0.356031,0.021679,52,273,570,5776
1644173747.291667,-0.011292,0.008972,-0.990784,0.205588,0.417099,-0.039389,59,270,577,5760
1644173747.340039,-0.010925,0.011658,-0.99353,0.251389,0.371298,-0.069924,47,277,575,5728
1644173747.388428,-0.014099,0.01001,-0.993042,0.08345,0.432366,-0.024122,42,270,570,5712
1644173747.436831,-0.008972,0.006958,-0.992798,0.281924,0.508702,-0.069924,45,282,575,5648
1644173747.485221,-0.010925,0.009277,-0.990723,0.129252,0.554504,-0.100458,43,279,569,5664
1644173747.533621,-0.013062,0.010132,-0.994568,0.342992,0.371298,-0.161527,43,279,566,5696
1644173747.582006,-0.011414,0.009216,-0.99231,0.327725,0.325496,-0.054656,47,275,575,5696
1644173747.630411,-0.00885,0.007507,-0.992615,0.098718,0.493435,-0.222595,48,276,571,5712
1644173747.678775,-0.010864,0.010254,-0.99292,0.266656,0.478168,0.052214,43,279,578,5696
1644173747.72719,-0.009338,0.009521,-0.992126,0.373527,0.432366,-0.222595,43,276,576,5664
1644173747.775548,-0.009216,0.007446,-0.992615,0.297191,0.401832,-0.024122,49,270,579,5664
1644173747.824019,-0.012695,0.009705,-0.992737,0.327725,0.585038,-0.130992,41,283,580,5696
1644173747.872401,-0.010742,0.008667,-0.989807,0.205588,0.294962,-0.100458,49,275,586,5712
1644173747.920754,-0.012329,0.009766,-0.994934,0.342992,0.508702,0.006412,40,265,565,5696
1644173747.969173,-0.011047,0.007324,-0.993652,0.220855,0.539237,-0.192061,47,268,575,5712
1644173748.017546,-0.01062,0.006592,-0.992432,0.251389,0.294962,-0.192061,47,275,575,5696
1644173748.083041,-0.012146,0.009521,-0.993896,0.327725,0.401832,0.113282,58,283,573,5728
1644173748.162702,-0.009094,0.008972,-0.991272,0.190321,0.523969,-0.207328,49,275,570,5712
1644173748.211092,-0.01178,0.01123,-0.993225,0.541466,0.569771,-0.085191,45,280,582,5728
1644173748.259454,-0.012085,0.010254,-0.993103,0.266656,0.432366,0.021679,49,270,570,5712
1644173748.307852,-0.010376,0.008606,-0.993958,0.35826,0.279695,-0.069924,42,265,572,5760
1644173748.356238,-0.008423,0.008545,-0.992981,0.266656,0.432366,-0.14626,55,279,580,5760
1644173748.404662,-0.011108,0.005859,-0.993164,0.281924,0.539237,-0.283664,43,276,578,5712
1644173748.453051,-0.011536,0.008972,-0.993469,0.251389,0.356031,-0.024122,51,276,578,5728
1644173748.50141,-0.009583,0.01001,-0.992737,0.190321,0.478168,-0.069924,43,274,585,5728
1644173748.549816,-0.010132,0.008728,-0.99292,0.190321,0.417099,0.021679,47,285,572,5664
1644173748.598219,-0.009399,0.009705,-0.993469,0.312458,0.539237,0.006412,52,273,577,5696
1644173748.646607,-0.010986,0.008484,-0.99469,0.35826,0.539237,-0.14626,48,271,571,5664
1644173748.695112,-0.007996,0.009766,-0.992004,0.419328,0.371298,0.021679,52,275,575,5696
1644173748.743386,-0.011414,0.007935,-0.993591,0.404061,0.294962,-0.115725,58,276,578,5664
1644173748.79177,-0.01062,0.007446,-0.992004,0.113985,0.417099,-0.039389,55,271,576,5696
1644173748.840204,-0.010986,0.008179,-0.992126,0.373527,0.264427,-0.161527,49,280,568,5760
1644173748.888601,-0.009827,0.010376,-0.990051,0.190321,0.294962,0.113282,55,279,590,5728
1644173748.936989,-0.010254,0.010132,-0.994263,0.236122,0.401832,-0.024122,51,279,578,5696
1644173748.985413,-0.011047,0.011353,-0.989136,0.205588,0.417099,-0.176794,55,269,571,5712
1644173749.03379,-0.011414,0.009399,-0.990479,0.144519,0.447634,-0.115725,52,275,579,5776
1644173749.093148,-0.009521,0.008545,-0.993469,0.266656,0.279695,-0.115725,49,277,575,5728
1644173749.13357,-0.011047,0.009766,-0.993774,0.144519,0.356031,-0.222595,55,269,569,5760
1644173749.182743,-0.011414,0.010315,-0.995422,0.190321,0.310229,-0.039389,45,273,575,5696
1644173749.227673,-0.010498,0.008545,-0.993713,0.236122,0.447634,0.021679,55,274,576,5696
1644173749.324064,-0.006409,0.00946,-0.992188,0.281924,0.462901,0.006412,45,270,570,5808
1644173749.372469,-0.010376,0.011658,-0.993347,0.312458,0.233893,-0.069924,58,279,569,5696
1644173749.420853,-0.009644,0.00885,-0.989136,0.220855,0.417099,0.006412,57,277,575,5760
1644173749.46924,-0.008911,0.005676,-0.992004,0.281924,0.310229,-0.069924,42,280,582,5760
1644173749.517632,-0.010315,0.01001,-0.989807,0.159786,0.493435,0.006412,53,276,571,5712
1644173749.566018,-0.009644,0.01123,-0.991943,0.281924,0.432366,-0.069924,48,276,571,5696
1644173749.614415,-0.010376,0.010498,-0.992432,0.251389,0.401832,-0.054656,42,275,577,5648
1644173749.662821,-0.011169,0.008911,-0.99054,0.220855,0.340763,-0.192061,47,273,579,5728
1644173749.711206,-0.008545,0.007874,-0.991394,0.007115,0.340763,-0.054656,49,277,584,5760
1644173749.759588,-0.012451,0.010193,-0.990601,0.266656,0.294962,-0.069924,46,274,580,5728
1644173749.807966,-0.007507,0.007019,-0.994019,0.266656,0.523969,-0.100458,53,274,573,5696
1644173749.856416,-0.010986,0.007874,-0.993286,0.129252,0.478168,0.006412,54,273,575,5696
1644173749.904818,-0.014404,0.012512,-0.995422,0.266656,0.264427,-0.115725,51,281,562,5696
1644173749.953184,-0.012329,0.008301,-0.99176,0.266656,0.432366,-0.130992,49,282,575,5760
1644173750.001551,-0.007019,0.010864,-0.989746,0.098718,0.386565,-0.14626,55,281,578,5760
1644173750.062402,-0.008789,0.009766,-0.991943,0.205588,0.462901,-0.192061,46,271,576,5664
1644173750.098439,-0.010559,0.008606,-0.99115,0.113985,0.356031,-0.085191,52,275,572,5664
1644173750.146731,-0.011169,0.009338,-0.991882,0.190321,0.203359,-0.100458,45,268,570,5728
1644173750.195146,-0.012146,0.009644,-0.992554,0.144519,0.386565,-0.008855,55,281,569,5728
1644173750.243613,-0.006897,0.005859,-0.991943,0.159786,0.462901,-0.130992,51,276,573,5712
1644173750.293603,-0.012451,0.007935,-0.991333,0.342992,0.493435,-0.054656,53,286,576,5712
1644173750.343987,-0.009766,0.009827,-0.98999,0.266656,0.401832,-0.130992,51,271,578,5728
1644173750.389194,-0.013855,0.008789,-0.993286,0.205588,0.340763,-0.069924,49,265,575,5712
1644173750.485437,-0.009399,0.009033,-0.992798,0.113985,0.401832,-0.115725,49,273,570,5648
1644173750.533859,-0.012268,0.008728,-0.993591,0.144519,0.356031,-0.100458,47,273,563,5664
1644173750.582389,-0.010254,0.008728,-0.994263,0.266656,0.447634,-0.100458,46,274,576,5728
1644173750.630629,-0.007996,0.011597,-0.989441,0.190321,0.417099,-0.14626,55,276,564,5712
1644173750.679006,-0.011475,0.009277,-0.992188,0.113985,0.478168,0.082748,51,274,576,5776
1644173750.72739,-0.011536,0.010559,-0.990784,0.205588,0.493435,-0.024122,41,274,576,5696
1644173750.775785,-0.010986,0.00769,-0.996521,-0.099756,0.417099,-0.115725,53,266,566,5728
1644173750.824181,-0.010681,0.009338,-0.992798,0.266656,0.493435,-0.115725,55,283,569,5728
1644173750.872631,-0.012878,0.008057,-0.993286,0.144519,0.539237,-0.192061,51,271,580,5760
1644173750.920994,-0.010437,0.007996,-0.990845,0.144519,0.508702,-0.161527,61,282,577,5664
1644173750.969392,-0.009033,0.008179,-0.993896,0.327725,0.417099,-0.192061,46,281,571,5728
1644173751.01781,-0.01178,0.011108,-0.991455,0.297191,0.386565,0.052214,51,269,571,5712
1644173751.075649,-0.010254,0.007324,-0.989929,0.404061,0.401832,-0.039389,52,277,584,5712
1644173751.114632,-0.011841,0.007874,-0.992126,0.404061,0.478168,-0.176794,48,266,580,5696
1644173751.162941,-0.008301,0.00824,-0.99231,0.297191,0.432366,-0.130992,54,275,577,5728
1644173751.211287,-0.008911,0.009521,-0.991455,0.35826,0.264427,0.036947,49,282,584,5696
1644173751.259714,-0.009583,0.009216,-0.996094,0.342992,0.371298,-0.008855,53,276,578,5712
1644173751.308059,-0.009827,0.008606,-0.991577,0.251389,0.417099,0.113282,48,281,573,5664
1644173751.35648,-0.008484,0.010071,-0.991516,0.266656,0.386565,-0.039389,53,274,569,5760
1644173751.405644,-0.010742,0.010925,-0.99292,0.266656,0.493435,-0.130992,48,279,576,5712
1644173751.456161,-0.009155,0.009827,-0.993225,0.297191,0.417099,-0.14626,40,270,575,5696
1644173751.506267,-0.009705,0.009216,-0.992004,0.251389,0.340763,-0.14626,55,276,573,5728
1644173751.551178,-0.011292,0.009216,-0.994019,0.113985,0.478168,-0.008855,52,273,577,5696
1644173751.646816,-0.010803,0.009399,-0.993896,0.190321,0.523969,-0.192061,52,268,582,5648
1644173751.695436,-0.00946,0.007996,-0.992859,0.266656,0.294962,-0.024122,51,276,573,5632
1644173751.743617,-0.011719,0.010803,-0.993347,0.35826,0.447634,-0.115725,47,277,575,5664
1644173751.791992,-0.011536,0.007935,-0.990356,0.266656,0.462901,-0.039389,47,282,572,5712
1644173751.840389,-0.009949,0.004333,-0.994263,0.205588,0.493435,-0.039389,46,283,564,5712
1644173751.888819,-0.011902,0.009827,-0.994202,0.251389,0.493435,-0.207328,42,273,577,5712
1644173751.937213,-0.011047,0.006836,-0.990967,0.205588,0.447634,-0.100458,47,275,575,5648
1644173751.985602,-0.009888,0.008362,-0.991638,0.159786,0.493435,-0.024122,55,262,583,5712
1644173752.033992,-0.012939,0.00647,-0.992126,0.327725,0.493435,-0.054656,48,274,573,5696
1644173752.090802,-0.011292,0.003418,-0.993835,0.175053,0.340763,-0.054656,55,281,578,5696
1644173752.13075,-0.010864,0.008789,-0.991638,0.175053,0.310229,-0.039389,54,282,575,5760
1644173752.17913,-0.009705,0.010437,-0.991028,0.236122,0.462901,-0.069924,54,277,582,5664
1644173752.227515,-0.013,0.009705,-0.990906,0.220855,0.417099,-0.222595,48,269,571,5712
1644173752.275904,-0.010132,0.008057,-0.994446,0.159786,0.432366,-0.024122,46,276,576,5728
1644173752.325297,-0.009949,0.008362,-0.990906,0.266656,0.386565,-0.039389,43,281,580,5760
1644173752.37583,-0.012451,0.010376,-0.99231,0.342992,0.478168,-0.207328,53,279,580,5776
1644173752.426738,-0.011719,0.007751,-0.990051,0.205588,0.386565,-0.115725,52,273,575,5664
1644173752.517846,-0.010559,0.008301,-0.993103,0.236122,0.264427,-0.130992,53,271,576,5712
1644173752.56624,-0.010132,0.009827,-0.992676,0.434595,0.462901,-0.100458,54,290,577,5712
1644173752.61485,-0.010132,0.009094,-0.992004,0.159786,0.371298,0.021679,47,275,575,5664
1644173752.663043,-0.013,0.008484,-0.993835,0.312458,0.386565,-0.024122,45,258,577,5728
1644173752.711415,-0.011353,0.010376,-0.994324,0.236122,0.401832,-0.024122,45,285,575,5712
1644173752.7598,-0.008728,0.00885,-0.992981,0.342992,0.233893,-0.161527,52,280,575,5664
1644173752.808209,-0.013,0.009644,-0.9953,0.236122,0.356031,-0.069924,53,276,569,5760
1644173752.856601,-0.009888,0.007935,-0.990906,0.144519,0.417099,-0.14626,42,268,582,5664
1644173752.905161,-0.012268,0.007568,-0.992676,0.190321,0.585038,-0.115725,52,280,572,5712
1644173752.953439,-0.008789,0.012939,-0.988831,0.312458,0.478168,-0.008855,61,277,565,5696
1644173753.001811,-0.007874,0.008606,-0.992859,0.220855,0.401832,-0.069924,45,280,572,5728
1644173753.062049,-0.010742,0.011902,-0.991943,0.388794,0.432366,-0.115725,65,269,585,5664
1644173753.098991,-0.01239,0.008606,-0.990662,0.190321,0.264427,-0.176794,57,282,572,5696
1644173753.146974,-0.011475,0.011169,-0.993835,0.236122,0.493435,-0.100458,42,275,575,5696
1644173753.195369,-0.010986,0.006958,-0.993896,0.175053,0.478168,-0.039389,36,274,583,5696
1644173753.243759,-0.007874,0.006897,-0.99292,0.327725,0.417099,-0.176794,48,274,571,5712
1644173753.292275,-0.011963,0.009155,-0.990662,0.236122,0.462901,-0.130992,43,266,576,5696
1644173753.340848,-0.010742,0.010437,-0.993774,0.220855,0.493435,0.067481,52,275,570,5696
1644173753.388936,-0.012268,0.011292,-0.990601,0.175053,0.539237,-0.024122,54,265,561,5728
1644173753.438927,-0.010376,0.008728,-0.994507,0.297191,0.447634,-0.161527,47,270,579,5728
1644173753.489339,-0.011658,0.007935,-0.991699,0.281924,0.417099,-0.024122,46,276,576,5712
1644173753.539301,-0.011047,0.009583,-0.992371,0.327725,0.478168,-0.054656,48,279,573,5728
1644173753.583814,-0.007935,0.011292,-0.990601,0.297191,0.340763,-0.100458,48,274,580,5712
1644173753.679272,-0.009827,0.007812,-0.993713,0.327725,0.447634,-0.100458,43,279,580,5664
1644173753.727656,-0.010315,0.00824,-0.994263,0.388794,0.554504,-0.024122,53,274,569,5760
1644173753.776059,-0.010132,0.010376,-0.994324,0.266656,0.615573,-0.176794,47,268,584,5712
1644173753.824456,-0.009949,0.00946,-0.992188,0.312458,0.386565,-0.14626,61,268,577,5696
1644173753.872869,-0.012146,0.008057,-0.993164,0.236122,0.523969,0.067481,62,276,571,5776
1644173753.921243,-0.009827,0.007141,-0.990234,0.159786,0.447634,-0.069924,57,285,575,5648
1644173753.969645,-0.012085,0.009766,-0.994568,0.205588,0.447634,-0.054656,54,270,568,5776
1644173754.018017,-0.011841,0.009399,-0.992798,0.159786,0.371298,-0.161527,52,277,577,5712
1644173754.068714,-0.010132,0.007935,-0.99054,0.205588,0.386565,-0.069924,60,279,578,5696
1644173754.114804,-0.009583,0.009766,-0.992065,0.404061,0.447634,-0.161527,42,280,577,5696
1644173754.163134,-0.01355,0.008606,-0.994751,0.266656,0.356031,-0.085191,55,276,571,5728
1644173754.211518,-0.009399,0.008728,-0.992798,0.327725,0.401832,-0.130992,49,273,565,5648
1644173754.25991,-0.010132,0.009155,-0.991638,0.297191,0.447634,0.021679,54,275,582,5760
1644173754.308318,-0.008179,0.008179,-0.99292,0.281924,0.386565,-0.054656,55,281,576,5696
1644173754.356716,-0.007385,0.010193,-0.993774,0.175053,0.188092,-0.085191,54,273,565,5648
1644173754.405147,-0.007141,0.006714,-0.994995,0.205588,0.523969,-0.024122,47,282,568,5760
1644173754.453491,-0.01178,0.007202,-0.990234,0.312458,0.462901,-0.161527,53,274,583,5760
1644173754.501854,-0.01062,0.007202,-0.994202,0.113985,0.493435,-0.176794,53,274,578,5712
1644173754.550301,-0.010254,0.009644,-0.992493,0.297191,0.447634,-0.100458,51,281,573,5728
1644173754.599096,-0.008179,0.007935,-0.992981,0.373527,0.279695,-0.130992,49,273,570,5696
1644173754.649433,-0.013855,0.009705,-0.994385,0.312458,0.386565,-0.192061,60,279,566,5696
1644173754.699783,-0.013245,0.008179,-0.993408,0.312458,0.493435,-0.024122,55,271,583,5696
1644173754.744796,-0.013367,0.008179,-0.993774,0.129252,0.508702,0.021679,43,281,571,5776
1644173754.84069,-0.00946,0.01001,-0.98999,0.236122,0.401832,-0.069924,51,269,569,5776
1644173754.889048,-0.011108,0.00824,-0.992981,0.342992,0.386565,-0.207328,52,275,572,5760
1644173754.937437,-0.011292,0.009033,-0.993652,0.342992,0.447634,-0.069924,47,270,572,5712
1644173754.985859,-0.011353,0.007507,-0.992737,0.113985,0.462901,-0.237863,51,274,569,5664
1644173755.034229,-0.012512,0.008301,-0.992798,0.159786,0.447634,-0.14626,49,273,568,5808
1644173755.085591,-0.012451,0.008423,-0.992126,0.251389,0.493435,-0.14626,59,273,584,5696
1644173755.130973,-0.008789,0.00885,-0.990234,0.312458,0.585038,-0.069924,59,277,570,5696
1644173755.179355,-0.009644,0.010864,-0.989197,0.220855,0.462901,-0.054656,51,276,585,5712
1644173755.227747,-0.013123,0.008911,-0.992554,0.35826,0.462901,-0.069924,48,279,583,5696
1644173755.27611,-0.012512,0.009521,-0.993286,0.327725,0.447634,-0.130992,47,273,579,5696
1644173755.324526,-0.011292,0.009705,-0.992249,0.312458,0.462901,-0.008855,54,277,579,5728
1644173755.373408,-0.01001,0.009094,-0.991272,0.129252,0.462901,-0.161527,46,269,580,5712
1644173755.421637,-0.009766,0.007568,-0.994629,0.037649,0.401832,-0.085191,49,287,575,5696
1644173755.471979,-0.00946,0.00824,-0.991455,0.46513,0.523969,-0.085191,48,279,580,5760
1644173755.522173,-0.009521,0.007507,-0.992798,0.190321,0.325496,-0.176794,52,285,577,5728
1644173755.567245,-0.010742,0.010193,-0.992676,0.159786,0.386565,-0.069924,46,276,573,5712
1644173755.663265,-0.006226,0.007629,-0.991638,0.144519,0.371298,-0.130992,51,269,571,5600
1644173755.711644,-0.011475,0.010925,-0.992432,0.404061,0.493435,-0.069924,43,257,578,5760
1644173755.760021,-0.00769,0.013733,-0.992737,0.175053,0.447634,-0.176794,57,277,575,5664
1644173755.808424,-0.010864,0.008118,-0.991333,0.342992,0.432366,-0.069924,55,279,569,5728
1644173755.856856,-0.009949,0.008728,-0.992004,0.327725,0.432366,-0.008855,49,270,575,5712
1644173755.905247,-0.011292,0.007812,-0.991638,0.190321,0.386565,-0.207328,58,274,573,5760
1644173755.953659,-0.007568,0.006958,-0.991821,0.129252,0.462901,-0.039389,54,273,577,5664
1644173756.002012,-0.01001,0.00946,-0.99115,0.236122,0.188092,-0.085191,55,271,573,5712
1644173756.066637,-0.011475,0.006226,-0.993042,0.175053,0.386565,-0.14626,43,283,583,5696
1644173756.10144,-0.008972,0.005615,-0.993591,0.35826,0.493435,-0.024122,61,287,577,5696
1644173756.147158,-0.007751,0.011658,-0.993652,0.35826,0.539237,-0.25313,49,277,568,5696
1644173756.195559,-0.012573,0.010376,-0.992065,0.449863,0.401832,-0.161527,54,275,579,5760
1644173756.243922,-0.009949,0.007263,-0.993225,0.327725,0.63084,-0.054656,41,279,573,5664
1644173756.292359,-0.01355,0.010315,-0.991089,0.098718,0.294962,-0.161527,51,276,573,5696
1644173756.340732,-0.012878,0.008057,-0.990906,0.129252,0.432366,-0.14626,51,279,571,5760
1644173756.389131,-0.010254,0.008484,-0.992371,0.266656,0.371298,-0.115725,46,276,580,5664
1644173756.437519,-0.010254,0.008545,-0.990784,0.404061,0.432366,0.036947,55,279,566,5696
1644173756.485899,-0.009644,0.00769,-0.992737,0.190321,0.493435,-0.085191,55,276,585,5760
1644173756.534498,-0.009338,0.007935,-0.990601,0.327725,0.310229,0.006412,47,282,570,5712
1644173756.583186,-0.012512,0.00647,-0.992737,0.144519,0.523969,-0.039389,55,274,571,5664
1644173756.63371,-0.011353,0.012085,-0.993835,0.190321,0.386565,-0.130992,46,271,585,5712
1644173756.68392,-0.00647,0.008972,-0.991028,0.236122,0.539237,-0.085191,52,268,570,5664
1644173756.72876,-0.012207,0.007263,-0.99176,0.281924,0.508702,-0.100458,48,274,576,5664
1644173756.825264,-0.009949,0.008667,-0.995056,0.281924,0.554504,-0.14626,48,276,573,5696
1644173756.873061,-0.012817,0.006287,-0.994629,0.08345,0.63084,-0.176794,52,273,575,5728
1644173756.921465,-0.014099,0.009033,-0.992249,0.159786,0.447634,-0.207328,59,265,586,5728
1644173756.970727,-0.007507,0.007019,-0.993591,0.312458,0.386565,-0.054656,46,274,564,5776
1644173757.018248,-0.012024,0.010437,-0.99292,0.175053,0.539237,-0.161527,36,276,569,5808
1644173757.069448,-0.012268,0.010864,-0.993286,0.312458,0.340763,-0.100458,64,273,575,5648
1644173757.11506,-0.011169,0.008484,-0.994324,0.297191,0.356031,0.006412,54,273,575,5760
1644173757.16337,-0.01532,0.008423,-0.9953,0.175053,0.523969,0.006412,57,268,568,5760
1644173757.211988,-0.011536,0.008484,-0.990967,0.129252,0.218626,-0.069924,51,264,564,5760
1644173757.260156,-0.010864,0.00824,-0.993286,0.236122,0.432366,-0.069924,46,271,569,5712
1644173757.308531,-0.011292,0.006653,-0.996094,0.220855,0.340763,-0.069924,40,275,579,5696
1644173757.35692,-0.011475,0.010803,-0.990173,0.327725,0.356031,-0.039389,51,271,578,5776
1644173757.405338,-0.009155,0.00708,-0.992432,0.236122,0.401832,-0.008855,42,273,575,5728
1644173757.453731,-0.011719,0.006836,-0.992493,0.281924,0.417099,-0.115725,51,279,583,5696
1644173757.502223,-0.014587,0.008606,-0.993774,0.342992,0.493435,-0.192061,57,280,577,5760
1644173757.550496,-0.013,0.010254,-0.990356,0.113985,0.386565,-0.161527,45,280,575,5696
1644173757.598861,-0.010498,0.00708,-0.9953,0.281924,0.24916,-0.176794,49,265,570,5776
1644173757.647281,-0.010742,0.00824,-0.992249,0.297191,0.386565,-0.008855,47,270,579,5696
1644173757.695834,-0.011169,0.00824,-0.994141,0.312458,0.417099,-0.039389,51,274,583,5728
1644173757.744957,-0.014038,0.009033,-0.993774,0.251389,0.279695,-0.039389,42,273,568,5696
1644173757.795421,-0.006714,0.009827,-0.99115,0.113985,0.371298,-0.100458,49,268,577,5728
1644173757.845628,-0.010498,0.008911,-0.995178,0.281924,0.508702,-0.024122,53,269,583,5760
1644173757.890762,-0.01001,0.007507,-0.992676,0.266656,0.493435,-0.161527,53,266,576,5696
1644173757.986057,-0.011414,0.010986,-0.992188,0.281924,0.386565,-0.069924,57,277,572,5696
1644173758.034443,-0.013062,0.006042,-0.993225,0.175053,0.478168,-0.161527,53,271,566,5696
1644173758.085986,-0.012085,0.007324,-0.991455,0.175053,0.447634,-0.192061,57,270,568,5664
1644173758.131217,-0.010803,0.009094,-0.99176,0.068183,0.417099,-0.054656,48,274,573,5728
1644173758.179582,-0.011047,0.009216,-0.992188,0.144519,0.340763,-0.222595,54,282,565,5664
1644173758.227976,-0.013123,0.007996,-0.992859,0.297191,0.401832,-0.069924,42,265,575,5712
1644173758.276361,-0.010864,0.008911,-0.991882,0.342992,0.401832,-0.039389,49,273,572,5696
1644173758.324754,-0.009949,0.009033,-0.992554,0.312458,0.478168,-0.085191,47,275,572,5776
1644173758.373159,-0.006897,0.010559,-0.992615,0.022382,0.279695,-0.054656,49,270,572,5664
1644173758.42151,-0.012451,0.009827,-0.994751,0.236122,0.401832,-0.024122,57,280,575,5696
1644173758.469923,-0.013611,0.007751,-0.993652,0.144519,0.386565,-0.024122,54,273,565,5728
1644173758.518317,-0.012451,0.008545,-0.992981,0.220855,0.478168,-0.024122,51,288,571,5728
1644173758.566705,-0.009338,0.006653,-0.993286,0.175053,0.539237,-0.207328,49,268,570,5664
1644173758.615186,-0.012634,0.009216,-0.993164,0.297191,0.325496,-0.115725,60,271,578,5696
1644173758.663473,-0.01178,0.009216,-0.992798,0.190321,0.310229,-0.14626,52,273,575,5696
1644173758.71188,-0.00708,0.006592,-0.990173,0.327725,0.432366,-0.176794,52,273,575,5712
1644173758.760275,-0.011414,0.008179,-0.991577,0.342992,0.325496,-0.039389,58,274,583,5696
1644173758.808682,-0.01355,0.00531,-0.994812,0.236122,0.417099,-0.100458,53,281,585,5728
1644173758.857091,-0.010376,0.005981,-0.992737,0.220855,0.447634,0.036947,49,277,561,5696
1644173758.906698,-0.009766,0.009033,-0.993164,0.281924,0.340763,-0.054656,46,276,578,5648
1644173758.956995,-0.012695,0.011047,-0.993103,0.205588,0.294962,-0.161527,46,281,571,5760
1644173759.007032,-0.010071,0.008057,-0.990051,0.220855,0.325496,0.174351,55,276,578,5776
1644173759.075536,-0.007507,0.010803,-0.993164,0.327725,0.417099,-0.008855,49,277,579,5808
1644173759.147447,-0.010437,0.007996,-0.992859,0.46513,0.340763,-0.130992,36,279,578,5696
1644173759.19577,-0.009521,0.009766,-0.991638,0.144519,0.462901,0.006412,48,276,573,5696
1644173759.244184,-0.008179,0.006775,-0.991028,0.236122,0.493435,-0.054656,49,270,565,5712
1644173759.292533,-0.010559,0.005066,-0.99469,0.251389,0.371298,-0.130992,51,276,580,5696
1644173759.340955,-0.011719,0.006287,-0.994629,0.098718,0.386565,-0.14626,53,269,566,5728
1644173759.389346,-0.012085,0.009949,-0.990479,0.022382,0.462901,-0.222595,48,279,573,5776
1644173759.437742,-0.00824,0.007507,-0.992554,0.129252,0.356031,0.052214,42,268,568,5760
1644173759.486111,-0.011475,0.007751,-0.994263,0.190321,0.462901,-0.14626,49,273,579,5808
1644173759.534521,-0.014893,0.009705,-0.99353,0.312458,0.264427,0.021679,40,280,582,5760
1644173759.582919,-0.007568,0.009705,-0.994019,0.373527,0.539237,0.021679,47,275,570,5648
1644173759.631307,-0.009521,0.007263,-0.994019,0.220855,0.310229,0.052214,46,283,569,5760
1644173759.67966,-0.009888,0.009949,-0.992798,0.251389,0.615573,-0.130992,49,260,572,5696
1644173759.728081,-0.008118,0.005615,-0.992859,0.281924,0.523969,-0.024122,54,277,568,5696
1644173759.77647,-0.01062,0.005737,-0.991516,0.129252,0.24916,-0.222595,48,274,580,5696
1644173759.824887,-0.010437,0.008545,-0.993713,0.220855,0.447634,-0.024122,45,287,565,5760
1644173759.873305,-0.012268,0.00824,-0.993958,0.297191,0.401832,-0.298931,55,266,580,5696
1644173759.921661,-0.011719,0.008423,-0.994629,0.236122,0.325496,-0.14626,52,268,589,5664
1644173759.970367,-0.014465,0.00824,-0.991577,0.220855,0.325496,-0.25313,49,277,561,5760
1644173760.018449,-0.013855,0.010132,-0.99292,0.098718,0.386565,0.067481,46,279,576,5712
1644173760.091155,-0.013245,0.010254,-0.992188,0.205588,0.462901,-0.069924,58,279,580,5712
1644173760.116263,-0.009155,0.009216,-0.990906,0.190321,0.554504,-0.069924,54,265,584,5696
1644173760.211999,-0.011536,0.007874,-0.991638,0.190321,0.478168,0.021679,52,280,577,5648
1644173760.260364,-0.010742,0.008057,-0.992981,0.205588,0.417099,-0.130992,52,282,575,5696
1644173760.308742,-0.012207,0.009399,-0.992737,0.190321,0.294962,-0.069924,52,273,575,5712
1644173760.357162,-0.011047,0.008911,-0.990967,0.297191,0.294962,-0.008855,51,274,571,5664
1644173760.405563,-0.010071,0.010925,-0.993225,0.159786,0.417099,-0.161527,51,276,576,5728
1644173760.453956,-0.008423,0.01062,-0.991638,0.312458,0.432366,-0.115725,52,263,577,5696
1644173760.502321,-0.010315,0.01001,-0.994263,0.312458,0.325496,0.036947,59,268,572,5696
1644173760.550691,-0.012634,0.008057,-0.993408,0.266656,0.356031,-0.069924,53,274,583,5696
1644173760.599121,-0.012939,0.008423,-0.993225,-0.008153,0.493435,-0.054656,57,277,579,5696
1644173760.647513,-0.01062,0.007935,-0.993347,0.175053,0.325496,-0.237863,45,277,577,5760
1644173760.695901,-0.011292,0.006836,-0.993408,0.312458,0.523969,-0.176794,53,266,576,5728
1644173760.744304,-0.01178,0.006348,-0.992737,0.068183,0.432366,-0.176794,49,273,572,5648
1644173760.7927,-0.011902,0.011658,-0.991943,0.159786,0.279695,-0.115725,49,268,579,5696
1644173760.841071,-0.011719,0.009583,-0.991272,0.190321,0.371298,-0.069924,48,274,571,5776
1644173760.889518,-0.008484,0.009644,-0.992615,0.281924,0.340763,-0.100458,46,279,576,5648
1644173760.937865,-0.013855,0.00708,-0.990784,0.35826,0.585038,-0.100458,47,280,568,5712
1644173760.986284,-0.011108,0.009644,-0.99408,0.190321,0.325496,-0.054656,49,282,579,5696
1644173761.035587,-0.013123,0.008545,-0.9953,0.297191,0.417099,0.067481,43,271,562,5664
1644173761.094285,-0.010498,0.006531,-0.994995,0.220855,0.417099,-0.085191,45,268,586,5776
1644173761.132982,-0.015808,0.007263,-0.992798,0.236122,0.447634,-0.176794,49,270,584,5712
1644173761.183288,-0.013489,0.009888,-0.991394,0.312458,0.417099,-0.054656,55,269,569,5664
1644173761.233716,-0.013306,0.009644,-0.989929,0.220855,0.493435,0.082748,45,282,573,5728
1644173761.278278,-0.009216,0.009216,-0.991516,0.052916,0.340763,-0.130992,62,281,576,5712
1644173761.373425,-0.011108,0.003784,-0.994263,0.373527,0.340763,-0.161527,59,280,568,5696
1644173761.421804,-0.014221,0.007202,-0.993469,0.266656,0.417099,-0.039389,55,266,569,5712
1644173761.470186,-0.010132,0.006226,-0.992676,0.098718,0.447634,-0.115725,60,266,578,5696
1644173761.518586,-0.010498,0.007446,-0.992371,0.312458,0.493435,-0.237863,45,277,568,5712
1644173761.56694,-0.01239,0.009033,-0.992615,0.251389,0.310229,-0.130992,53,276,571,5728
1644173761.615364,-0.010681,0.008301,-0.991821,0.312458,0.478168,-0.192061,45,268,577,5664
1644173761.663762,-0.013123,0.012024,-0.995483,0.266656,0.493435,-0.237863,42,275,579,5696
1644173761.712171,-0.009521,0.006531,-0.99176,0.220855,0.356031,-0.069924,49,275,565,5696
1644173761.760549,-0.011963,0.008972,-0.993408,0.175053,0.371298,0.036947,45,285,561,5664
1644173761.808935,-0.009338,0.007874,-0.991638,0.251389,0.386565,-0.130992,43,281,571,5728
1644173761.857322,-0.008972,0.009705,-0.991089,0.312458,0.462901,-0.054656,54,270,572,5728
1644173761.905713,-0.01001,0.010132,-0.99353,0.113985,0.417099,-0.069924,49,275,572,5760
1644173761.954092,-0.01239,0.007202,-0.992798,0.35826,0.401832,-0.161527,51,281,571,5664
1644173762.002502,-0.009094,0.00824,-0.992859,0.190321,0.371298,-0.268397,51,279,569,5728
1644173762.064844,-0.010681,0.009338,-0.991455,0.327725,0.63084,-0.069924,54,282,572,5648
1644173762.099436,-0.011353,0.006348,-0.992615,0.342992,0.401832,-0.054656,38,270,584,5760
1644173762.147623,-0.009644,0.00769,-0.991394,0.327725,0.340763,-0.130992,51,279,587,5696
1644173762.195982,-0.008423,0.00885,-0.992004,0.327725,0.447634,-0.008855,53,279,573,5760
1644173762.244412,-0.011047,0.009827,-0.992004,0.373527,0.356031,0.036947,45,280,582,5696
1644173762.293052,-0.012329,0.010071,-0.993713,0.35826,0.386565,-0.14626,53,274,577,5760
1644173762.343543,-0.010193,0.010376,-0.992676,0.175053,0.356031,-0.130992,43,269,573,5664
1644173762.393853,-0.010864,0.010071,-0.992859,0.159786,0.340763,-0.237863,51,276,585,5696
1644173762.438748,-0.011353,0.007019,-0.993286,0.236122,0.462901,-0.14626,52,273,577,5728
1644173762.534868,-0.010559,0.009277,-0.993347,0.068183,0.310229,0.036947,54,275,579,5776
1644173762.583142,-0.012817,0.007446,-0.992371,0.327725,0.371298,-0.039389,45,265,570,5648
1644173762.631532,-0.01062,0.008789,-0.99231,0.251389,0.493435,-0.039389,58,274,573,5696
1644173762.679919,-0.01123,0.008301,-0.993103,0.144519,0.554504,-0.069924,58,274,578,5696
1644173762.728322,-0.011414,0.007996,-0.993591,0.281924,0.462901,-0.054656,52,277,572,5696
1644173762.7767,-0.012146,0.00824,-0.991089,0.266656,0.478168,-0.115725,41,274,583,5712
1644173762.825271,-0.011047,0.008789,-0.991821,0.327725,0.279695,-0.130992,49,270,575,5712
1644173762.873535,-0.012878,0.010376,-0.992065,0.342992,0.493435,-0.085191,49,270,577,5728
1644173762.921921,-0.011902,0.008667,-0.992859,0.205588,0.493435,-0.069924,41,271,578,5664
1644173762.970298,-0.010376,0.009949,-0.993408,0.281924,0.340763,-0.039389,47,275,582,5664
1644173763.018703,-0.009705,0.006348,-0.993164,0.205588,0.432366,-0.222595,54,275,577,5760
1644173763.070607,-0.009094,0.007996,-0.99176,0.327725,0.523969,-0.115725,52,285,593,5648
1644173763.115456,-0.013245,0.008118,-0.993835,0.052916,0.371298,-0.008855,52,275,589,5728
1644173763.163834,-0.011169,0.009155,-0.99353,0.129252,0.417099,-0.085191,57,277,577,5728
1644173763.212244,-0.010742,0.009399,-0.993469,0.251389,0.539237,-0.192061,53,279,585,5696
1644173763.260589,-0.009338,0.008057,-0.99115,0.327725,0.508702,-0.100458,58,281,587,5760
1644173763.309007,-0.00946,0.00946,-0.994385,0.251389,0.417099,-0.039389,57,282,577,5712
1644173763.357397,-0.011902,0.008911,-0.997437,0.419328,0.356031,-0.115725,47,270,577,5712
1644173763.405784,-0.012573,0.009338,-0.993042,0.297191,0.294962,-0.085191,58,271,583,5728
1644173763.454525,-0.008301,0.008057,-0.991638,0.251389,0.371298,-0.024122,60,279,585,5696
1644173763.504744,-0.00946,0.011841,-0.996338,0.175053,0.386565,-0.207328,45,277,584,5760
1644173763.555169,-0.010315,0.010559,-0.991333,0.251389,0.340763,-0.130992,54,273,577,5760
1644173763.600117,-0.011902,0.008972,-0.99408,0.297191,0.401832,-0.14626,46,276,578,5696
1644173763.696104,-0.011597,0.00946,-0.992859,0.404061,0.233893,0.036947,51,286,573,5664
1644173763.744527,-0.010559,0.009705,-0.992432,0.312458,0.371298,-0.207328,57,277,577,5648
1644173763.792922,-0.012085,0.00946,-0.991882,0.190321,0.356031,-0.024122,53,276,578,5696
1644173763.84134,-0.010376,0.010498,-0.99115,0.113985,0.401832,-0.161527,51,269,576,5696
1644173763.889706,-0.010498,0.011169,-0.99231,0.175053,0.539237,-0.069924,42,273,572,5648
1644173763.938129,-0.011047,0.008972,-0.991516,0.159786,0.432366,-0.100458,54,270,579,5696
1644173763.98651,-0.00946,0.012207,-0.991943,0.342992,0.417099,-0.069924,34,274,580,5760
1644173764.034897,-0.010193,0.010864,-0.994446,0.190321,0.447634,-0.207328,45,275,577,5664
1644173764.095812,-0.009827,0.009583,-0.993042,0.281924,0.371298,-0.069924,52,277,575,5728
1644173764.131668,-0.011353,0.007141,-0.991455,0.190321,0.539237,-0.039389,58,269,571,5760
1644173764.180043,-0.008606,0.010742,-0.992676,0.144519,0.401832,0.021679,49,273,582,5760
1644173764.228433,-0.009094,0.007996,-0.992065,0.297191,0.462901,-0.222595,47,270,572,5712
1644173764.276814,-0.007568,0.011963,-0.993347,0.205588,0.340763,0.021679,57,275,579,5696
1644173764.325202,-0.009888,0.006714,-0.992432,0.236122,0.417099,-0.069924,55,271,580,5776
1644173764.373644,-0.012207,0.008911,-0.991882,0.266656,0.356031,-0.008855,57,287,570,5664
1644173764.422681,-0.010986,0.009277,-0.991699,0.220855,0.325496,-0.192061,54,277,577,5712
1644173764.472996,-0.009399,0.008972,-0.994385,0.113985,0.356031,-0.192061,51,271,571,5808
1644173764.523333,-0.012451,0.008667,-0.991028,0.251389,0.310229,0.006412,52,280,572,5696
1644173764.568353,-0.011475,0.008484,-0.99292,0.190321,0.508702,-0.192061,49,282,572,5696
1644173764.66396,-0.012024,0.009094,-0.996155,0.251389,0.356031,-0.054656,42,277,577,5664
1644173764.712481,-0.013245,0.007263,-0.993164,0.190321,0.417099,-0.130992,45,273,568,5696
1644173764.760707,-0.009705,0.008057,-0.991333,0.159786,0.279695,-0.039389,48,274,576,5696
1644173764.809111,-0.012146,0.012207,-0.993774,0.297191,0.554504,-0.054656,55,283,573,5712
1644173764.857538,-0.011047,0.007751,-0.994446,0.129252,0.386565,-0.039389,49,282,572,5712
1644173764.905919,-0.011597,0.00769,-0.992065,0.113985,0.508702,0.067481,41,279,578,5664
1644173764.954336,-0.010498,0.010742,-0.994019,0.297191,0.386565,-0.176794,49,275,577,5648
1644173765.002694,-0.008606,0.009033,-0.992859,0.419328,0.386565,-0.237863,48,266,576,5664
1644173765.066167,-0.009155,0.011169,-0.99231,0.251389,0.386565,-0.100458,46,274,571,5712
1644173765.099501,-0.012817,0.007141,-0.994568,0.190321,0.615573,-0.039389,61,282,575,5696
1644173765.147849,-0.011963,0.00708,-0.992554,0.08345,0.462901,-0.054656,57,280,572,5696
1644173765.196243,-0.009399,0.008301,-0.990479,0.388794,0.356031,-0.085191,45,273,584,5728
1644173765.244704,-0.011169,0.009338,-0.991882,0.220855,0.478168,0.052214,51,274,576,5664
1644173765.293033,-0.009644,0.011719,-0.992859,0.251389,0.493435,0.006412,61,270,572,5664
1644173765.341414,-0.008972,0.01239,-0.994507,0.205588,0.310229,0.052214,51,271,566,5760
1644173765.389799,-0.013306,0.009827,-0.992737,0.251389,0.554504,-0.115725,54,273,579,5760
1644173765.438195,-0.011719,0.008362,-0.991638,0.281924,0.462901,-0.161527,40,265,582,5728
1644173765.486586,-0.009277,0.010925,-0.992615,0.08345,0.340763,-0.14626,45,270,577,5760
1644173765.535088,-0.011292,0.008972,-0.994934,0.220855,0.417099,-0.085191,40,265,579,5712
1644173765.58349,-0.01001,0.010803,-0.991882,0.35826,0.371298,-0.054656,58,271,571,5760
1644173765.63385,-0.007874,0.008118,-0.990967,0.342992,0.401832,-0.192061,43,276,569,5728
1644173765.684124,-0.006897,0.007629,-0.993469,0.129252,0.462901,-0.14626,49,270,582,5712
1644173765.729259,-0.008911,0.008301,-0.995056,0.190321,0.508702,-0.207328,55,276,573,5696
1644173765.8254,-0.011353,0.009277,-0.993469,0.281924,0.371298,-0.176794,49,268,584,5712
1644173765.873756,-0.011169,0.010864,-0.991699,0.175053,0.462901,-0.14626,51,271,573,5696
1644173765.922402,-0.009277,0.009949,-0.990295,0.297191,0.462901,0.006412,45,280,579,5776
1644173765.970538,-0.00708,0.011475,-0.99292,0.419328,0.310229,-0.054656,47,282,570,5664
1644173766.018919,-0.010437,0.011108,-0.992188,0.098718,0.462901,-0.14626,47,275,584,5712
1644173766.075027,-0.008667,0.008667,-0.993896,0.312458,0.554504,-0.161527,53,283,580,5776
1644173766.115684,-0.009766,0.00769,-0.992798,0.236122,0.371298,-0.161527,58,269,576,5712
1644173766.164061,-0.011047,0.006836,-0.990784,0.159786,0.340763,-0.100458,60,274,578,5648
1644173766.212465,-0.010925,0.009888,-0.990662,0.281924,0.401832,-0.054656,61,273,575,5696
1644173766.260844,-0.010315,0.007935,-0.991516,0.205588,0.417099,-0.161527,46,269,569,5760
1644173766.309202,-0.010437,0.010559,-0.992188,0.327725,0.508702,-0.100458,48,269,583,5712
1644173766.35761,-0.012634,0.010376,-0.990723,0.159786,0.508702,-0.222595,57,277,586,5728
1644173766.406008,-0.011902,0.009277,-0.991882,0.068183,0.371298,-0.085191,53,271,573,5696
1644173766.454413,-0.010437,0.007263,-0.98877,0.297191,0.417099,0.021679,49,280,575,5696
1644173766.502805,-0.011414,0.009033,-0.992859,0.251389,0.279695,-0.039389,59,265,582,5696
1644173766.551189,-0.010315,0.007751,-0.99115,0.220855,0.401832,-0.069924,49,280,579,5664
1644173766.59957,-0.009277,0.006958,-0.991516,0.342992,0.386565,0.006412,54,273,577,5776
1644173766.647941,-0.008911,0.00885,-0.992859,0.129252,0.569771,0.006412,49,275,582,5728
1644173766.696355,-0.010681,0.009399,-0.993408,0.404061,0.554504,0.006412,45,275,591,5664
1644173766.745525,-0.01239,0.008667,-0.991699,0.205588,0.585038,-0.054656,43,276,585,5824
1644173766.795987,-0.012329,0.009766,-0.993958,0.342992,0.569771,-0.115725,43,276,580,5776
1644173766.846385,-0.009949,0.009155,-0.992371,0.175053,0.508702,0.006412,42,277,589,5664
1644173766.891566,-0.012207,0.008423,-0.988831,0.236122,0.386565,-0.161527,54,270,570,5728
1644173766.986723,-0.012329,0.012024,-0.995361,0.236122,0.294962,-0.161527,54,282,579,5696
1644173767.035372,-0.01178,0.007263,-0.995422,0.312458,0.478168,-0.054656,48,274,576,5696
1644173767.083587,-0.011719,0.01001,-0.992371,0.236122,0.432366,-0.161527,43,264,590,5776
1644173767.131927,-0.008789,0.007568,-0.992126,0.281924,0.523969,-0.192061,49,270,579,5696
1644173767.180258,-0.008606,0.012085,-0.990173,0.281924,0.356031,-0.207328,41,271,583,5728
1644173767.228656,-0.008362,0.008423,-0.990356,0.297191,0.401832,0.036947,38,275,584,5712
1644173767.277037,-0.011353,0.007751,-0.993652,0.022382,0.447634,0.021679,54,275,577,5696
