epoch,acc_x,acc_y,acc_z,rot_x,rot_y,rot_z,mag_x,mag_y,mag_z,temp
1644163500.025754,-0.009033,0.01001,-0.993225,0.312458,0.417099,-0.207328,55,269,576,5536
1644163500.083939,-0.010376,0.011353,-0.992981,0.220855,0.493435,-0.039389,53,274,578,5648
1644163500.122518,-0.010559,0.010864,-0.993591,0.175053,0.508702,-0.14626,61,265,591,5552
1644163500.170872,-0.00708,0.011047,-0.991272,0.373527,0.63084,-0.115725,51,276,576,5536
1644163500.219271,-0.009338,0.007202,-0.991943,0.175053,0.401832,-0.130992,59,270,577,5552
1644163500.26764,-0.011414,0.010315,-0.994385,0.159786,0.493435,-0.085191,47,275,577,5600
1644163500.316049,-0.008118,0.010498,-0.992126,0.175053,0.356031,-0.039389,51,283,566,5536
1644163500.364675,-0.010193,0.009888,-0.991211,0.251389,0.493435,-0.100458,51,269,585,5552
1644163500.414909,-0.011597,0.009583,-0.989929,0.297191,0.462901,-0.130992,52,280,570,5584
1644163500.465156,-0.008667,0.009766,-0.988098,0.098718,0.386565,-0.054656,52,282,589,5584
1644163500.510299,-0.008789,0.009155,-0.987549,0.205588,0.279695,-0.115725,45,273,589,5584
1644163500.606376,-0.007324,0.010742,-0.991333,0.190321,0.447634,-0.054656,47,282,572,5536
1644163500.65484,-0.008301,0.011658,-0.989441,0.220855,0.447634,-0.14626,58,276,580,5536
1644163500.703192,-0.009033,0.012878,-0.988708,0.297191,0.294962,-0.039389,57,273,575,5600
1644163500.751565,-0.009521,0.010376,-0.988464,0.236122,0.340763,-0.039389,46,276,576,5536
1644163500.799959,-0.008545,0.010315,-0.992859,0.205588,0.386565,-0.192061,49,287,565,5536
1644163500.84836,-0.009705,0.009399,-0.990967,0.404061,0.386565,-0.192061,41,276,571,5472
1644163500.896775,-0.010132,0.010254,-0.988525,0.113985,0.493435,-0.161527,53,283,578,5552
1644163500.945266,-0.010132,0.011841,-0.991821,0.251389,0.386565,0.098015,57,280,579,5552
1644163500.993562,-0.010681,0.009583,-0.992859,0.159786,0.310229,-0.039389,52,270,575,5552
1644163501.058582,-0.010559,0.009094,-0.99292,0.190321,0.386565,-0.024122,54,270,584,5536
1644163501.090328,-0.01001,0.010071,-0.991577,0.098718,0.417099,-0.115725,59,275,584,5536
1644163501.138684,-0.010437,0.008057,-0.994934,0.159786,0.401832,-0.039389,51,276,571,5536
1644163501.187078,-0.007812,0.010864,-0.99054,0.022382,0.447634,-0.100458,57,275,586,5536
1644163501.235464,-0.012634,0.011414,-0.99231,0.404061,0.493435,-0.14626,51,279,578,5520
1644163501.283842,-0.01123,0.012695,-0.989685,0.266656,0.417099,-0.192061,52,280,577,5552
1644163501.332291,-0.009155,0.009583,-0.991455,0.342992,0.600305,-0.085191,57,275,577,5536
1644163501.380648,-0.01062,0.010376,-0.990784,0.129252,0.432366,-0.085191,52,277,577,5584
1644163501.429023,-0.011292,0.008423,-0.992126,0.159786,0.493435,-0.25313,48,274,569,5536
1644163501.477752,-0.009216,0.008789,-0.988831,0.068183,0.325496,0.021679,47,273,582,5488
1644163501.528383,-0.010071,0.009216,-0.994446,0.297191,0.401832,-0.176794,55,274,578,5648
1644163501.578376,-0.012085,0.012146,-0.99115,0.236122,0.447634,-0.176794,52,280,572,5584
1644163501.623488,-0.012268,0.009277,-0.990967,0.236122,0.417099,-0.176794,49,277,575,5584
1644163501.719355,-0.01001,0.009216,-0.991638,0.159786,0.432366,0.067481,53,271,573,5600
1644163501.767735,-0.010315,0.006409,-0.99292,0.113985,0.432366,-0.161527,53,264,580,5632
1644163501.816132,-0.009094,0.009766,-0.989441,0.144519,0.401832,0.036947,57,273,589,5600
1644163501.864643,-0.009583,0.006958,-0.992188,0.342992,0.508702,-0.039389,52,282,570,5552
1644163501.912996,-0.011353,0.011047,-0.990112,0.190321,0.356031,-0.069924,55,279,578,5536
1644163501.961335,-0.009888,0.010315,-0.99176,0.297191,0.493435,0.036947,58,276,580,5600
1644163502.009761,-0.008667,0.011108,-0.992859,0.175053,0.447634,-0.100458,43,269,578,5648
1644163502.060037,-0.009399,0.008789,-0.993713,0.190321,0.371298,-0.192061,60,274,576,5584
1644163502.106526,-0.009583,0.011169,-0.992188,0.404061,0.371298,-0.192061,49,277,568,5632
1644163502.154899,-0.007874,0.009583,-0.993774,0.281924,0.447634,-0.14626,46,274,573,5584
1644163502.203291,-0.009888,0.008789,-0.993713,0.281924,0.417099,-0.100458,53,281,576,5600
1644163502.251663,-0.011047,0.010132,-0.991333,0.281924,0.462901,-0.298931,42,282,575,5584
1644163502.30006,-0.008911,0.009399,-0.991577,0.159786,0.218626,-0.085191,52,275,572,5584
1644163502.348443,-0.012207,0.008301,-0.992126,0.312458,0.386565,-0.024122,53,269,587,5536
1644163502.396794,-0.008667,0.008545,-0.990356,0.297191,0.523969,0.006412,55,271,566,5536
1644163502.445224,-0.011475,0.010742,-0.991333,0.236122,0.478168,-0.085191,57,285,575,5552
1644163502.49362,-0.008118,0.008972,-0.989075,0.236122,0.493435,-0.14626,64,270,572,5536
1644163502.542313,-0.009094,0.008606,-0.991455,0.113985,0.371298,-0.054656,47,273,579,5584
1644163502.590381,-0.008423,0.007019,-0.992249,0.266656,0.508702,0.067481,62,274,590,5584
1644163502.640345,-0.012756,0.007446,-0.993408,0.220855,0.233893,-0.008855,47,277,575,5600
1644163502.690322,-0.008423,0.009094,-0.992065,0.113985,0.401832,-0.054656,42,275,575,5584
1644163502.740369,-0.012939,0.01123,-0.993896,0.190321,0.386565,-0.130992,47,268,582,5536
1644163502.83265,-0.009094,0.009216,-0.992493,0.312458,0.356031,0.052214,43,271,576,5632
1644163502.880768,-0.01123,0.013306,-0.991455,0.08345,0.508702,-0.115725,53,274,580,5552
1644163502.929163,-0.010376,0.011108,-0.993408,0.205588,0.401832,-0.054656,49,285,572,5584
1644163502.977547,-0.009216,0.011658,-0.992432,0.266656,0.478168,-0.130992,58,281,573,5536
1644163503.025928,-0.008728,0.008789,-0.990051,0.342992,0.432366,-0.115725,55,274,578,5584
1644163503.077349,-0.011414,0.009399,-0.99115,0.08345,0.401832,-0.100458,48,281,583,5488
1644163503.122708,-0.010925,0.007812,-0.992432,0.159786,0.371298,-0.14626,51,264,573,5584
1644163503.171065,-0.011902,0.012085,-0.992493,0.404061,0.539237,-0.024122,41,281,571,5584
1644163503.219475,-0.007202,0.009521,-0.993591,0.419328,0.462901,-0.085191,54,275,570,5648
1644163503.267854,-0.012207,0.008545,-0.991455,0.205588,0.417099,-0.161527,55,271,576,5536
1644163503.316243,-0.009277,0.007019,-0.990845,0.113985,0.310229,-0.161527,41,271,573,5600
1644163503.364647,-0.012329,0.009155,-0.991821,0.220855,0.310229,-0.100458,57,282,582,5536
1644163503.413045,-0.009277,0.009949,-0.994263,0.327725,0.447634,-0.161527,54,277,572,5536
1644163503.461404,-0.010559,0.011292,-0.989746,0.312458,0.508702,-0.039389,47,273,575,5600
1644163503.510018,-0.010193,0.009766,-0.992676,0.388794,0.325496,-0.100458,53,279,580,5536
1644163503.55972,-0.009766,0.007263,-0.990967,0.251389,0.386565,-0.115725,51,269,576,5584
1644163503.60967,-0.010864,0.011475,-0.992554,0.373527,0.371298,-0.25313,53,264,576,5600
1644163503.659966,-0.010315,0.009827,-0.992432,0.144519,0.432366,-0.024122,54,275,568,5552
1644163503.751744,-0.00885,0.014343,-0.993042,0.236122,0.356031,0.021679,52,275,577,5552
1644163503.800129,-0.007874,0.008118,-0.993042,0.175053,0.508702,-0.237863,48,279,587,5520
1644163503.848529,-0.013184,0.011841,-0.991516,0.327725,0.462901,-0.039389,49,275,577,5584
1644163503.896956,-0.011841,0.011902,-0.990784,0.251389,0.478168,0.021679,51,266,571,5600
1644163503.945355,-0.00769,0.009399,-0.993225,0.419328,0.447634,-0.25313,55,276,583,5488
1644163503.993736,-0.010437,0.009033,-0.990479,0.144519,0.340763,-0.207328,40,273,575,5584
1644163504.056267,-0.009827,0.008789,-0.991455,0.220855,0.462901,-0.069924,48,274,578,5488
1644163504.090479,-0.009888,0.007629,-0.99115,0.144519,0.417099,-0.130992,57,273,579,5584
1644163504.138915,-0.010437,0.008972,-0.991516,0.220855,0.523969,0.021679,47,273,570,5648
1644163504.187307,-0.009521,0.010742,-0.993835,0.312458,0.356031,-0.100458,38,280,568,5584
1644163504.235691,-0.01239,0.00824,-0.990906,0.205588,0.325496,0.036947,45,277,570,5584
1644163504.284065,-0.01178,0.009155,-0.992859,0.159786,0.478168,-0.054656,49,273,586,5536
1644163504.332494,-0.009399,0.009827,-0.987671,0.175053,0.340763,-0.237863,49,275,577,5632
1644163504.380859,-0.008606,0.009155,-0.992493,0.220855,0.462901,-0.069924,48,276,578,5536
1644163504.42926,-0.009399,0.007812,-0.992188,0.297191,0.447634,-0.039389,51,271,578,5584
1644163504.47761,-0.005676,0.008057,-0.991516,0.266656,0.478168,-0.115725,45,277,575,5536
1644163504.526331,-0.011719,0.010376,-0.992371,0.144519,0.462901,-0.130992,49,273,582,5584
1644163504.57486,-0.010681,0.009766,-0.989441,0.113985,0.24916,-0.222595,60,274,580,5536
1644163504.624837,-0.010071,0.009277,-0.991882,0.220855,0.447634,-0.176794,52,273,575,5600
1644163504.6748,-0.012817,0.00946,-0.990295,0.037649,0.371298,-0.14626,52,270,570,5536
1644163504.725037,-0.010803,0.00769,-0.991394,0.266656,0.462901,-0.024122,45,275,577,5536
1644163504.816395,-0.010315,0.011353,-0.991638,0.175053,0.401832,-0.207328,55,276,569,5552
1644163504.864918,-0.010742,0.01062,-0.986938,0.35826,0.478168,-0.008855,59,273,563,5536
1644163504.913135,-0.010925,0.007202,-0.991577,0.236122,0.371298,-0.14626,49,273,570,5536
1644163504.961538,-0.009949,0.011414,-0.991089,0.205588,0.508702,-0.008855,46,269,569,5600
1644163505.009903,-0.010437,0.010559,-0.991699,0.327725,0.325496,-0.130992,47,268,575,5552
1644163505.058556,-0.011292,0.011353,-0.992126,0.236122,0.294962,-0.176794,43,279,578,5648
1644163505.106671,-0.008057,0.010864,-0.992493,0.113985,0.447634,-0.161527,46,276,569,5600
1644163505.155102,-0.009033,0.008789,-0.993835,0.236122,0.447634,-0.024122,54,265,584,5584
1644163505.203468,-0.009399,0.009277,-0.990662,0.052916,0.462901,-0.008855,52,277,572,5584
1644163505.251826,-0.010315,0.010803,-0.990295,0.175053,0.523969,-0.192061,52,277,570,5584
1644163505.300246,-0.010254,0.009827,-0.989868,0.266656,0.462901,-0.100458,45,270,572,5536
1644163505.348636,-0.009521,0.010742,-0.989807,0.190321,0.386565,-0.130992,49,268,582,5632
1644163505.397018,-0.010193,0.010254,-0.993408,0.129252,0.310229,-0.054656,54,275,572,5648
1644163505.445403,-0.009094,0.010681,-0.991821,0.190321,0.508702,-0.085191,57,265,575,5600
1644163505.493796,-0.010803,0.009338,-0.992554,0.312458,0.294962,-0.14626,43,281,578,5584
1644163505.542202,-0.008301,0.010254,-0.990662,0.327725,0.401832,0.036947,54,285,572,5536
1644163505.590585,-0.012939,0.009766,-0.988708,0.144519,0.417099,-0.222595,46,281,573,5600
1644163505.638963,-0.007019,0.012207,-0.98877,-0.02342,0.478168,-0.054656,57,270,575,5488
1644163505.687359,-0.010071,0.010803,-0.991882,0.068183,0.371298,-0.192061,58,276,576,5632
1644163505.736019,-0.009277,0.011292,-0.990601,0.236122,0.401832,-0.115725,49,275,563,5600
1644163505.786525,-0.009583,0.00946,-0.992615,0.129252,0.401832,-0.192061,53,274,573,5536
1644163505.837667,-0.009094,0.012085,-0.991394,0.297191,0.478168,-0.085191,55,276,578,5584
1644163505.881991,-0.006592,0.008789,-0.990051,0.159786,0.294962,-0.100458,41,269,569,5584
1644163505.977724,-0.010132,0.011353,-0.991943,0.266656,0.493435,-0.069924,48,266,578,5536
1644163506.026117,-0.006836,0.012573,-0.989319,0.266656,0.325496,-0.008855,43,274,583,5536
1644163506.077147,-0.006958,0.010132,-0.992432,0.297191,0.462901,0.052214,46,271,573,5584
1644163506.122871,-0.010498,0.010254,-0.993774,0.281924,0.554504,0.036947,58,276,576,5536
1644163506.171234,-0.009644,0.013977,-0.992004,0.251389,0.401832,-0.069924,48,274,573,5584
1644163506.21965,-0.011536,0.007812,-0.987671,0.251389,0.386565,0.021679,51,276,573,5632
1644163506.268036,-0.009949,0.007141,-0.993286,0.266656,0.569771,0.052214,49,275,577,5600
1644163506.316396,-0.010681,0.008789,-0.990234,0.251389,0.462901,-0.100458,46,269,573,5488
1644163506.364798,-0.00885,0.012573,-0.989685,0.205588,0.493435,-0.115725,52,270,577,5536
1644163506.413211,-0.010742,0.006653,-0.991211,0.281924,0.523969,-0.024122,52,273,575,5584
1644163506.461578,-0.012939,0.010925,-0.990662,0.205588,0.447634,-0.039389,43,271,573,5552
1644163506.509975,-0.009338,0.010925,-0.991882,0.190321,0.508702,-0.085191,43,279,580,5584
1644163506.558339,-0.011414,0.008545,-0.990967,0.098718,0.417099,-0.207328,45,273,572,5488
1644163506.606767,-0.010071,0.006714,-0.990051,0.175053,0.417099,-0.283664,46,269,571,5552
1644163506.655202,-0.010437,0.007568,-0.991394,0.236122,0.432366,-0.085191,52,273,577,5584
1644163506.703553,-0.00708,0.009216,-0.992859,0.236122,0.340763,0.021679,60,271,578,5520
1644163506.75192,-0.010498,0.010559,-0.991516,0.312458,0.508702,-0.161527,48,271,583,5520
1644163506.800375,-0.011169,0.011169,-0.991089,0.281924,0.523969,-0.115725,49,270,575,5584
1644163506.848786,-0.010925,0.010376,-0.993774,0.266656,0.356031,-0.222595,45,277,582,5552
1644163506.899533,-0.009155,0.009644,-0.991211,0.098718,0.325496,-0.161527,55,279,564,5584
1644163506.949041,-0.007568,0.008545,-0.99054,0.281924,0.539237,-0.192061,53,274,583,5600
1644163507.053916,-0.010742,0.01239,-0.993103,0.342992,0.417099,0.082748,61,270,572,5584
1644163507.090701,-0.008423,0.008972,-0.992188,0.35826,0.478168,-0.100458,52,270,593,5600
1644163507.139117,-0.011963,0.010437,-0.991821,0.144519,0.401832,-0.130992,52,277,563,5600
1644163507.18746,-0.008972,0.012634,-0.993347,0.266656,0.325496,-0.130992,55,281,573,5600
1644163507.235855,-0.01178,0.007568,-0.990295,0.281924,0.340763,-0.176794,47,270,575,5584
1644163507.284241,-0.010986,0.009277,-0.990295,0.312458,0.447634,-0.115725,48,279,573,5552
1644163507.332643,-0.007935,0.009399,-0.992737,0.129252,0.569771,-0.14626,57,280,577,5584
1644163507.38101,-0.00885,0.012756,-0.990784,0.113985,0.432366,0.082748,41,279,583,5600
1644163507.42936,-0.008789,0.010437,-0.990906,0.281924,0.523969,-0.14626,62,271,569,5600
1644163507.477762,-0.010254,0.010193,-0.992249,0.281924,0.371298,-0.130992,59,275,582,5600
1644163507.526185,-0.010864,0.007751,-0.989746,0.266656,0.264427,-0.14626,45,280,582,5584
1644163507.574615,-0.00885,0.009949,-0.990967,0.388794,0.371298,-0.008855,55,271,590,5536
1644163507.622975,-0.007629,0.011719,-0.991394,0.113985,0.462901,-0.130992,54,277,575,5584
1644163507.672653,-0.010986,0.010864,-0.992188,0.281924,0.325496,-0.024122,53,279,578,5648
1644163507.722059,-0.010498,0.011597,-0.992493,0.159786,0.478168,-0.100458,53,266,585,5472
1644163507.772266,-0.009766,0.010742,-0.99292,0.052916,0.508702,-0.039389,65,279,583,5536
1644163507.818135,-0.010864,0.009277,-0.989807,0.327725,0.310229,-0.14626,51,283,576,5536
1644163507.913352,-0.009216,0.010254,-0.990845,0.236122,0.371298,-0.008855,61,270,565,5536
1644163507.96173,-0.008789,0.011414,-0.991089,0.312458,0.493435,-0.115725,54,280,575,5632
1644163508.010101,-0.010498,0.010742,-0.99115,-0.02342,0.325496,0.036947,46,269,583,5552
1644163508.058561,-0.01001,0.009155,-0.993286,0.327725,0.478168,-0.176794,59,282,582,5600
1644163508.106902,-0.013123,0.006958,-0.992859,0.220855,0.356031,-0.054656,45,268,575,5552
1644163508.156031,-0.012878,0.01001,-0.992004,0.342992,0.371298,-0.115725,49,273,572,5584
1644163508.203652,-0.008545,0.010254,-0.99115,0.388794,0.432366,-0.115725,51,274,580,5552
1644163508.252025,-0.008667,0.010376,-0.989075,0.220855,0.508702,-0.25313,49,275,572,5584
1644163508.300433,-0.00824,0.00946,-0.992737,0.266656,0.386565,-0.115725,41,274,580,5552
1644163508.348812,-0.010437,0.010437,-0.990662,0.388794,0.585038,-0.314198,55,276,569,5584
1644163508.397179,-0.008728,0.01001,-0.990967,0.297191,0.417099,-0.237863,48,281,573,5552
1644163508.445601,-0.011658,0.009644,-0.992676,0.098718,0.340763,-0.100458,45,268,586,5536
1644163508.493973,-0.012939,0.010681,-0.992249,0.205588,0.386565,-0.024122,47,263,579,5648
1644163508.542408,-0.005737,0.009521,-0.98877,0.297191,0.432366,-0.14626,46,279,573,5584
1644163508.591014,-0.007874,0.010925,-0.991272,0.220855,0.432366,0.082748,52,290,575,5584
1644163508.639128,-0.009521,0.010559,-0.991455,0.266656,0.264427,-0.161527,54,287,568,5600
1644163508.687511,-0.007202,0.011047,-0.989868,0.205588,0.310229,-0.176794,42,277,577,5536
1644163508.735934,-0.009766,0.013,-0.99054,0.190321,0.432366,-0.085191,49,280,575,5584
1644163508.784328,-0.008301,0.009583,-0.993042,0.281924,0.356031,-0.130992,43,283,573,5632
1644163508.834313,-0.007019,0.011353,-0.990723,0.159786,0.585038,-0.069924,47,270,582,5536
1644163508.884313,-0.010376,0.010193,-0.990295,0.281924,0.478168,-0.024122,54,277,579,5600
1644163508.934668,-0.007812,0.007263,-0.994019,0.236122,0.462901,-0.008855,46,276,576,5632
1644163508.978966,-0.012756,0.008545,-0.991821,0.251389,0.569771,-0.069924,47,282,565,5584
1644163509.076783,-0.010559,0.009338,-0.990173,0.373527,0.386565,-0.100458,42,280,568,5536
1644163509.123101,-0.008057,0.010132,-0.991211,0.205588,0.478168,0.036947,52,273,570,5520
1644163509.17145,-0.01123,0.010254,-0.991028,0.373527,0.356031,-0.130992,45,268,572,5584
1644163509.219827,-0.010437,0.009644,-0.992798,0.251389,0.447634,-0.14626,57,277,572,5584
1644163509.268227,-0.010437,0.008118,-0.993286,0.236122,0.508702,-0.054656,48,276,573,5600
1644163509.316589,-0.01001,0.009521,-0.989746,0.312458,0.294962,-0.237863,53,279,576,5552
1644163509.36504,-0.009338,0.009949,-0.992676,0.08345,0.417099,-0.14626,57,270,577,5584
1644163509.413401,-0.011414,0.007935,-0.991455,0.205588,0.554504,0.036947,46,262,573,5584
1644163509.461793,-0.01239,0.009644,-0.990967,0.08345,0.478168,-0.085191,57,275,575,5584
1644163509.510162,-0.00769,0.009033,-0.991333,0.342992,0.417099,-0.024122,46,279,573,5648
1644163509.558578,-0.010132,0.009827,-0.994629,0.342992,0.356031,-0.085191,46,271,580,5632
1644163509.606966,-0.008606,0.00885,-0.989197,0.266656,0.478168,-0.054656,43,276,578,5600
1644163509.655699,-0.010254,0.007385,-0.990845,0.35826,0.371298,-0.115725,48,274,571,5648
1644163509.703749,-0.010986,0.008667,-0.991638,0.388794,0.462901,-0.222595,51,274,576,5584
1644163509.752189,-0.007019,0.01239,-0.99353,0.312458,0.386565,-0.115725,58,283,573,5600
1644163509.800517,-0.007568,0.010254,-0.990845,0.190321,0.493435,-0.237863,46,269,576,5584
1644163509.848948,-0.011536,0.008362,-0.992493,0.159786,0.386565,0.036947,61,268,570,5552
1644163509.897342,-0.008728,0.007935,-0.993164,0.175053,0.478168,-0.054656,47,277,575,5552
1644163509.946744,-0.011536,0.006897,-0.993103,0.297191,0.447634,-0.085191,43,279,578,5600
1644163509.996838,-0.012451,0.007446,-0.991638,0.266656,0.585038,-0.069924,51,271,578,5648
1644163510.090853,-0.00946,0.009155,-0.992798,0.266656,0.294962,-0.115725,55,274,583,5600
1644163510.139282,-0.008911,0.005859,-0.991821,0.35826,0.386565,-0.161527,58,274,569,5648
1644163510.18764,-0.008972,0.009399,-0.991455,0.404061,0.447634,-0.039389,49,277,577,5536
1644163510.236033,-0.010132,0.011108,-0.989075,0.251389,0.386565,-0.024122,51,276,571,5536
1644163510.284429,-0.011902,0.009216,-0.992554,0.251389,0.508702,-0.100458,52,270,577,5520
1644163510.332823,-0.008423,0.011475,-0.992737,0.190321,0.340763,-0.115725,53,269,571,5584
1644163510.381195,-0.00946,0.010498,-0.98999,0.449863,0.401832,-0.039389,43,279,576,5536
1644163510.429596,-0.010376,0.010986,-0.992493,0.220855,0.340763,-0.085191,57,268,575,5536
1644163510.477957,-0.009949,0.011108,-0.990417,0.236122,0.310229,-0.039389,49,277,572,5488
1644163510.526375,-0.00885,0.009277,-0.990723,0.236122,0.310229,0.067481,54,270,570,5584
1644163510.574771,-0.009338,0.012451,-0.988586,0.266656,0.356031,-0.085191,58,288,576,5600
1644163510.623168,-0.009827,0.01178,-0.991699,0.419328,0.554504,-0.130992,46,276,576,5552
1644163510.671543,-0.011353,0.007629,-0.990906,0.220855,0.447634,-0.054656,55,266,573,5600
1644163510.720015,-0.009399,0.010254,-0.991272,0.327725,0.417099,-0.039389,45,270,570,5600
1644163510.769622,-0.009583,0.010132,-0.992737,0.220855,0.432366,-0.024122,52,277,577,5552
1644163510.819804,-0.007996,0.010315,-0.992981,0.327725,0.310229,-0.268397,49,273,570,5552
1644163510.870546,-0.013,0.007507,-0.994385,0.220855,0.386565,-0.207328,48,274,578,5584
1644163510.961951,-0.012939,0.012024,-0.989441,0.510931,0.218626,-0.085191,59,273,579,5584
1644163511.010291,-0.009583,0.008545,-0.992188,0.236122,0.493435,-0.130992,60,279,571,5520
1644163511.058938,-0.009155,0.010803,-0.990051,0.312458,0.523969,0.067481,46,281,580,5552
1644163511.107095,-0.013,0.010437,-0.99115,0.129252,0.218626,-0.161527,58,274,569,5600
1644163511.155439,-0.009155,0.009766,-0.993164,0.220855,0.508702,-0.161527,59,270,570,5552
1644163511.203824,-0.008911,0.010071,-0.989502,0.297191,0.523969,0.006412,48,266,578,5552
1644163511.252216,-0.010254,0.009766,-0.989746,0.266656,0.340763,0.006412,48,276,569,5584
1644163511.300613,-0.005981,0.009705,-0.993164,0.419328,0.386565,-0.115725,46,271,578,5600
1644163511.349005,-0.006592,0.009033,-0.990051,0.297191,0.356031,0.052214,49,268,568,5536
1644163511.397404,-0.009705,0.010681,-0.994019,0.312458,0.462901,-0.115725,53,281,573,5600
1644163511.445788,-0.008911,0.012756,-0.992676,0.190321,0.371298,-0.069924,52,280,579,5536
1644163511.494158,-0.009155,0.009033,-0.988831,0.342992,0.462901,0.113282,49,280,582,5584
1644163511.542572,-0.013855,0.008362,-0.989441,0.098718,0.386565,-0.069924,42,265,579,5584
1644163511.590957,-0.008484,0.008301,-0.990479,0.052916,0.386565,-0.115725,54,270,570,5552
1644163511.63935,-0.008789,0.011719,-0.991577,0.266656,0.447634,-0.329466,46,279,580,5584
1644163511.68774,-0.009827,0.012939,-0.992065,0.220855,0.447634,-0.100458,55,274,571,5600
1644163511.736123,-0.009033,0.008301,-0.990051,0.220855,0.386565,-0.222595,48,276,580,5696
1644163511.784631,-0.009827,0.008972,-0.99054,0.159786,0.447634,-0.14626,51,269,571,5536
1644163511.834072,-0.010925,0.009094,-0.993896,0.159786,0.447634,-0.008855,47,280,572,5600
1644163511.884559,-0.008362,0.010742,-0.992432,0.190321,0.371298,-0.237863,60,276,580,5536
1644163511.934508,-0.008911,0.011536,-0.991333,0.251389,0.294962,-0.14626,52,273,575,5552
1644163511.979244,-0.008972,0.008423,-0.990967,0.08345,0.447634,-0.192061,52,275,563,5584
1644163512.079012,-0.01001,0.007568,-0.992676,0.205588,0.432366,-0.207328,59,277,584,5552
1644163512.123258,-0.011169,0.007019,-0.991272,0.144519,0.493435,0.036947,57,275,575,5552
1644163512.171642,-0.010986,0.01062,-0.993652,0.129252,0.447634,-0.054656,54,275,577,5648
1644163512.220034,-0.008606,0.00946,-0.990417,0.449863,0.462901,-0.161527,45,275,568,5648
1644163512.268417,-0.010437,0.010315,-0.993408,0.35826,0.340763,0.021679,47,277,575,5584
1644163512.316825,-0.007324,0.010742,-0.99115,0.297191,0.325496,-0.054656,55,276,576,5648
1644163512.365189,-0.009277,0.009888,-0.991394,0.113985,0.478168,-0.069924,57,270,572,5488
1644163512.413586,-0.008484,0.011902,-0.991211,0.312458,0.417099,-0.100458,49,268,584,5600
1644163512.461973,-0.008911,0.009827,-0.994385,0.205588,0.294962,-0.115725,57,273,579,5552
1644163512.510352,-0.010803,0.009521,-0.993835,0.144519,0.417099,-0.054656,48,269,578,5552
1644163512.558731,-0.008423,0.009827,-0.992126,0.236122,0.310229,-0.085191,57,275,572,5552
1644163512.607153,-0.009583,0.008179,-0.991821,0.190321,0.386565,-0.054656,57,265,565,5648
1644163512.655547,-0.010315,0.00946,-0.993225,0.373527,0.371298,-0.14626,51,279,578,5536
1644163512.703936,-0.010376,0.009583,-0.992554,0.312458,0.417099,-0.039389,52,280,577,5552
1644163512.752295,-0.011475,0.010803,-0.993225,0.373527,0.478168,0.036947,52,273,577,5584
1644163512.800746,-0.006958,0.010864,-0.990295,0.236122,0.539237,-0.161527,55,274,566,5600
1644163512.849151,-0.009705,0.009216,-0.991394,0.342992,0.432366,-0.054656,47,277,579,5552
1644163512.899245,-0.00946,0.010498,-0.993286,0.220855,0.325496,-0.161527,48,276,583,5536
1644163512.949163,-0.011353,0.010254,-0.994202,0.098718,0.493435,-0.024122,49,277,568,5584
1644163513.052834,-0.010315,0.008667,-0.989685,0.281924,0.325496,-0.100458,60,274,580,5600
1644163513.091052,-0.011047,0.009705,-0.992493,0.205588,0.371298,-0.054656,53,266,576,5536
1644163513.139436,-0.009583,0.012024,-0.994385,0.175053,0.447634,-0.176794,55,274,571,5584
1644163513.187823,-0.011841,0.008606,-0.990601,0.251389,0.493435,0.006412,52,277,568,5520
1644163513.236226,-0.009705,0.010498,-0.992615,0.297191,0.340763,-0.207328,49,280,577,5600
1644163513.284711,-0.00946,0.007568,-0.990112,0.266656,0.462901,-0.115725,53,279,566,5584
1644163513.33302,-0.011047,0.009521,-0.991394,0.297191,0.508702,-0.054656,48,274,578,5600
1644163513.381403,-0.01001,0.009949,-0.993469,0.159786,0.478168,0.006412,52,277,575,5536
1644163513.429786,-0.009827,0.009949,-0.993225,0.205588,0.386565,-0.100458,47,270,570,5552
1644163513.478191,-0.007385,0.008362,-0.993347,0.251389,0.386565,-0.054656,55,274,576,5584
1644163513.526564,-0.012573,0.007751,-0.988953,0.251389,0.432366,-0.024122,49,277,579,5536
1644163513.574999,-0.009705,0.011047,-0.990601,0.251389,0.523969,-0.14626,46,274,580,5600
1644163513.623343,-0.008606,0.010071,-0.990845,0.052916,0.371298,-0.069924,49,270,568,5584
1644163513.671723,-0.009949,0.011719,-0.991821,0.236122,0.478168,0.006412,52,277,568,5584
1644163513.720288,-0.009216,0.012146,-0.990051,0.08345,0.172824,0.006412,52,277,577,5648
1644163513.770894,-0.01062,0.009827,-0.989014,0.220855,0.539237,-0.192061,46,276,576,5584
1644163513.82219,-0.008118,0.009521,-0.992188,0.312458,0.478168,0.021679,52,280,565,5552
1644163513.866485,-0.011169,0.009338,-0.993774,0.159786,0.356031,-0.039389,51,269,571,5632
1644163513.962379,-0.009399,0.012268,-0.992065,0.297191,0.417099,-0.100458,43,274,571,5584
1644163514.010491,-0.007996,0.009583,-0.989807,0.297191,0.478168,-0.054656,46,274,566,5584
1644163514.058935,-0.011047,0.009155,-0.993347,0.312458,0.493435,-0.14626,46,266,566,5536
1644163514.107267,-0.006836,0.009155,-0.992493,0.159786,0.432366,0.052214,47,275,572,5600
1644163514.155628,-0.011169,0.006653,-0.98877,0.35826,0.462901,-0.115725,47,273,577,5632
1644163514.204033,-0.009888,0.011047,-0.990295,0.46513,0.417099,-0.100458,48,262,580,5552
1644163514.252397,-0.009521,0.010742,-0.989685,0.159786,0.646107,0.021679,52,265,565,5584
1644163514.30081,-0.00885,0.009033,-0.993652,0.373527,0.432366,0.036947,47,280,582,5552
1644163514.349178,-0.008789,0.00946,-0.989624,0.205588,0.356031,-0.085191,47,280,577,5584
1644163514.397593,-0.010437,0.006592,-0.991516,0.175053,0.478168,-0.115725,46,271,578,5584
1644163514.445985,-0.01001,0.010681,-0.991211,0.144519,0.417099,-0.069924,60,271,571,5536
1644163514.49436,-0.007996,0.007935,-0.991028,0.342992,0.356031,-0.054656,62,274,576,5584
1644163514.542778,-0.010681,0.01062,-0.993774,0.159786,0.417099,-0.115725,48,269,576,5536
1644163514.591161,-0.010864,0.008667,-0.993896,0.205588,0.417099,-0.024122,51,274,576,5632
1644163514.639511,-0.006409,0.01001,-0.992798,0.404061,0.310229,-0.069924,46,279,573,5584
1644163514.687936,-0.009644,0.010498,-0.993042,0.266656,0.371298,-0.039389,53,274,576,5536
1644163514.736313,-0.010071,0.006958,-0.993347,0.220855,0.462901,-0.085191,52,273,584,5600
1644163514.784714,-0.008545,0.010864,-0.991638,0.175053,0.478168,-0.008855,49,275,565,5584
1644163514.833098,-0.010315,0.00885,-0.991699,0.098718,0.386565,-0.008855,52,275,579,5584
1644163514.883597,-0.009705,0.011719,-0.991028,0.113985,0.417099,-0.069924,59,260,584,5648
1644163514.933253,-0.011353,0.012512,-0.988892,0.08345,0.386565,-0.222595,59,270,575,5584
1644163514.983507,-0.010986,0.010986,-0.99231,0.205588,0.371298,-0.14626,58,279,576,5536
1644163515.028127,-0.010376,0.009644,-0.989197,0.190321,0.340763,-0.024122,57,277,568,5664
1644163515.123482,-0.009277,0.006836,-0.989197,0.236122,0.63084,-0.069924,53,274,573,5536
1644163515.17182,-0.010925,0.008972,-0.992493,0.159786,0.325496,-0.222595,51,271,576,5584
1644163515.220213,-0.010864,0.011169,-0.992798,0.281924,0.356031,-0.054656,45,275,572,5584
1644163515.2686,-0.011536,0.012878,-0.992188,0.220855,0.478168,-0.039389,49,265,570,5584
1644163515.317001,-0.009949,0.00946,-0.992065,0.281924,0.417099,-0.085191,51,276,576,5600
1644163515.365381,-0.012817,0.006958,-0.994507,0.144519,0.447634,-0.054656,43,271,571,5584
1644163515.413779,-0.009277,0.012817,-0.991028,0.281924,0.478168,-0.100458,53,279,566,5584
1644163515.462195,-0.011414,0.007812,-0.993958,0.159786,0.432366,-0.176794,52,273,570,5600
1644163515.510566,-0.009644,0.011047,-0.990234,0.388794,0.447634,-0.054656,49,273,575,5520
1644163515.55896,-0.010437,0.009399,-0.991394,0.190321,0.279695,-0.008855,53,266,566,5536
1644163515.607329,-0.010376,0.008484,-0.993103,0.175053,0.462901,-0.054656,53,274,571,5536
1644163515.655725,-0.008057,0.011353,-0.992126,0.052916,0.356031,-0.024122,41,271,573,5632
1644163515.704142,-0.010071,0.011292,-0.993469,0.220855,0.432366,0.021679,52,277,570,5488
1644163515.752527,-0.012024,0.010132,-0.99176,0.327725,0.417099,-0.222595,48,271,578,5600
1644163515.800911,-0.008911,0.011108,-0.990417,0.342992,0.401832,-0.192061,47,273,577,5584
1644163515.849332,-0.009338,0.009338,-0.990784,0.159786,0.386565,-0.115725,51,281,585,5584
1644163515.897732,-0.008789,0.009399,-0.990234,0.144519,0.340763,-0.237863,52,275,575,5552
1644163515.946385,-0.010681,0.010986,-0.98999,0.342992,0.447634,0.036947,51,274,571,5552
1644163515.994523,-0.007996,0.006653,-0.991272,0.129252,0.325496,-0.008855,51,269,578,5584
1644163516.06679,-0.008972,0.010071,-0.992065,0.297191,0.600305,-0.25313,52,273,586,5600
1644163516.094185,-0.011658,0.00946,-0.991882,0.312458,0.539237,-0.054656,52,270,572,5584
1644163516.144219,-0.008484,0.013489,-0.990234,0.236122,0.325496,-0.130992,43,274,569,5584
1644163516.188737,-0.00647,0.011414,-0.992188,0.205588,0.523969,0.021679,58,279,571,5552
1644163516.284863,-0.007629,0.011108,-0.993164,0.297191,0.340763,-0.130992,40,263,572,5520
1644163516.333208,-0.011047,0.009521,-0.992126,0.113985,0.340763,-0.161527,55,279,571,5600
1644163516.381577,-0.009827,0.009338,-0.991516,0.175053,0.462901,-0.069924,48,274,576,5584
1644163516.429974,-0.012573,0.011414,-0.994446,0.281924,0.478168,-0.008855,53,281,573,5648
1644163516.478357,-0.013428,0.010864,-0.992065,0.281924,0.371298,0.052214,46,271,578,5584
1644163516.526744,-0.010071,0.01123,-0.991943,0.342992,0.523969,-0.085191,51,274,576,5584
1644163516.575165,-0.011536,0.009216,-0.991699,0.08345,0.417099,-0.024122,54,282,570,5536
1644163516.623539,-0.008301,0.00885,-0.990723,0.342992,0.508702,-0.14626,48,271,573,5552
1644163516.671914,-0.008057,0.009705,-0.991943,0.236122,0.569771,-0.069924,43,276,578,5536
1644163516.720314,-0.011353,0.010742,-0.991333,0.342992,0.386565,-0.054656,49,260,568,5552
1644163516.768704,-0.010864,0.009705,-0.990906,0.175053,0.432366,-0.237863,39,274,576,5632
1644163516.817106,-0.006409,0.011597,-0.993042,0.037649,0.310229,-0.130992,53,279,576,5584
1644163516.865545,-0.010437,0.006653,-0.991638,0.297191,0.417099,-0.085191,45,273,570,5584
1644163516.913918,-0.008789,0.010498,-0.989502,0.266656,0.508702,-0.100458,42,270,577,5584
1644163516.962329,-0.006958,0.010132,-0.993164,0.297191,0.462901,-0.008855,51,281,573,5552
1644163517.010701,-0.009338,0.009399,-0.992432,0.312458,0.401832,-0.008855,54,275,577,5536
1644163517.066113,-0.008545,0.008789,-0.991394,0.35826,0.401832,-0.100458,59,275,570,5600
1644163517.108327,-0.010254,0.008301,-0.989563,0.190321,0.539237,-0.008855,51,279,571,5600
1644163517.158603,-0.011047,0.010193,-0.992737,0.236122,0.478168,-0.130992,43,274,571,5536
1644163517.208975,-0.009583,0.008728,-0.993347,0.098718,0.508702,-0.069924,54,275,570,5600
1644163517.253672,-0.012573,0.009521,-0.990601,0.419328,0.585038,-0.008855,57,280,570,5536
1644163517.349423,-0.010498,0.009155,-0.990601,0.251389,0.294962,-0.085191,43,271,571,5600
1644163517.397813,-0.013611,0.010376,-0.993469,0.236122,0.432366,-0.268397,58,271,580,5648
1644163517.446193,-0.010864,0.007446,-0.992126,0.129252,0.523969,-0.069924,47,275,575,5584
1644163517.494643,-0.010925,0.012268,-0.98999,0.175053,0.462901,0.113282,49,263,575,5600
1644163517.543015,-0.010803,0.009766,-0.992737,0.297191,0.386565,-0.14626,49,273,579,5584
1644163517.591368,-0.010254,0.009277,-0.99115,0.373527,0.569771,-0.222595,55,279,571,5552
1644163517.639765,-0.011597,0.007812,-0.989807,0.251389,0.310229,-0.085191,52,275,579,5600
1644163517.688157,-0.013428,0.008057,-0.993164,0.159786,0.462901,-0.100458,46,262,573,5648
1644163517.736548,-0.010864,0.010254,-0.991638,0.205588,0.401832,-0.283664,47,270,570,5536
1644163517.78496,-0.013245,0.009033,-0.990295,0.266656,0.569771,-0.039389,46,274,580,5632
1644163517.833342,-0.010742,0.007812,-0.989014,0.205588,0.386565,-0.100458,58,271,576,5536
1644163517.881723,-0.010742,0.007263,-0.990601,0.175053,0.462901,0.113282,45,263,570,5584
1644163517.930078,-0.011536,0.00885,-0.990417,0.327725,0.294962,0.006412,55,281,576,5552
1644163517.978517,-0.014893,0.01001,-0.992981,0.144519,0.386565,-0.130992,51,276,573,5584
1644163518.026894,-0.01001,0.009338,-0.994446,0.251389,0.340763,-0.024122,53,274,569,5472
1644163518.077553,-0.011963,0.005676,-0.993164,0.251389,0.386565,0.036947,58,274,580,5584
1644163518.123639,-0.012268,0.006531,-0.993225,0.159786,0.386565,0.052214,54,265,568,5584
1644163518.172014,-0.010864,0.009766,-0.991577,0.175053,0.554504,0.052214,60,279,578,5536
1644163518.22059,-0.012207,0.011597,-0.990967,0.281924,0.371298,-0.130992,51,281,576,5536
1644163518.269553,-0.009155,0.008484,-0.990295,0.404061,0.432366,0.052214,51,276,569,5584
1644163518.319762,-0.011169,0.009216,-0.989868,0.220855,0.401832,-0.024122,42,275,577,5584
1644163518.370973,-0.011108,0.007385,-0.993225,0.373527,0.386565,-0.130992,54,277,577,5536
1644163518.415128,-0.007751,0.01001,-0.992126,0.281924,0.493435,-0.115725,41,276,571,5600
1644163518.510741,-0.009216,0.007629,-0.990295,0.266656,0.340763,-0.161527,47,268,577,5632
1644163518.559108,-0.010437,0.00824,-0.992737,0.388794,0.417099,-0.085191,49,270,575,5536
1644163518.607509,-0.008972,0.007935,-0.991455,0.297191,0.508702,-0.207328,48,271,569,5488
1644163518.655918,-0.008789,0.007141,-0.993774,0.373527,0.386565,-0.14626,51,274,578,5536
1644163518.704317,-0.007996,0.010071,-0.989197,0.281924,0.478168,-0.008855,59,275,570,5584
1644163518.752686,-0.012329,0.01062,-0.988281,0.35826,0.401832,-0.130992,48,274,571,5552
1644163518.801132,-0.010681,0.012207,-0.989929,0.220855,0.356031,-0.14626,45,277,584,5536
1644163518.849521,-0.009949,0.011719,-0.988281,0.159786,0.310229,-0.115725,49,273,563,5600
1644163518.897913,-0.007629,0.009277,-0.991394,0.190321,0.417099,-0.130992,47,282,568,5584
1644163518.946305,-0.013794,0.007263,-0.992493,0.312458,0.386565,-0.14626,57,265,579,5584
1644163518.99473,-0.009888,0.009155,-0.992188,0.159786,0.569771,-0.069924,48,279,580,5552
1644163519.049042,-0.013306,0.011597,-0.990356,0.190321,0.386565,-0.085191,45,282,586,5584
1644163519.091442,-0.010681,0.008972,-0.989197,0.068183,0.356031,-0.283664,61,265,577,5584
1644163519.139811,-0.013062,0.008301,-0.98822,0.205588,0.325496,-0.024122,53,274,585,5600
1644163519.188174,-0.010498,0.008118,-0.990967,0.205588,0.340763,-0.085191,52,277,579,5648
1644163519.236605,-0.009949,0.008301,-0.992859,0.205588,0.417099,-0.054656,52,273,577,5600
1644163519.285044,-0.007874,0.007935,-0.98938,0.388794,0.523969,-0.176794,59,275,572,5600
1644163519.333677,-0.011292,0.010864,-0.992737,0.129252,0.417099,0.082748,54,277,568,5584
1644163519.383019,-0.007935,0.010254,-0.992188,0.419328,0.646107,-0.176794,59,280,572,5536
1644163519.433475,-0.006714,0.012573,-0.990417,0.373527,0.585038,0.052214,54,270,575,5552
1644163519.483579,-0.010681,0.010559,-0.991272,0.281924,0.401832,0.067481,42,265,568,5584
1644163519.575461,-0.010071,0.011902,-0.990662,0.068183,0.432366,-0.039389,53,269,583,5584
1644163519.623736,-0.011353,0.010681,-0.991455,0.144519,0.417099,-0.100458,49,280,582,5584
1644163519.672359,-0.009277,0.012207,-0.992126,0.297191,0.294962,-0.085191,48,276,576,5648
1644163519.720488,-0.009705,0.010437,-0.991882,0.266656,0.554504,-0.100458,52,277,572,5584
1644163519.768897,-0.009827,0.013794,-0.990295,0.312458,0.462901,-0.069924,53,281,559,5584
1644163519.817295,-0.007568,0.012024,-0.99115,0.236122,0.417099,0.098015,52,270,579,5536
1644163519.865709,-0.012817,0.010315,-0.991394,0.236122,0.356031,-0.100458,48,264,573,5584
1644163519.914086,-0.008545,0.00946,-0.99054,0.144519,0.371298,-0.069924,40,273,575,5536
1644163519.962519,-0.010925,0.009644,-0.990967,0.281924,0.417099,-0.130992,42,265,570,5584
1644163520.010889,-0.007507,0.009827,-0.991394,0.404061,0.462901,-0.069924,53,269,573,5600
1644163520.074067,-0.011353,0.010193,-0.992371,0.327725,0.478168,-0.085191,57,280,579,5536
1644163520.107611,-0.011047,0.008118,-0.989136,0.175053,0.279695,-0.085191,43,271,578,5584
1644163520.156014,-0.012024,0.009888,-0.989136,0.236122,0.432366,-0.100458,49,277,586,5648
1644163520.204407,-0.010376,0.011475,-0.990234,0.297191,0.417099,-0.115725,51,269,578,5584
1644163520.252817,-0.01001,0.009155,-0.992371,0.175053,0.508702,-0.115725,45,275,577,5600
1644163520.301187,-0.011108,0.01062,-0.992188,0.037649,0.447634,-0.14626,48,276,580,5456
1644163520.349588,-0.012329,0.009888,-0.991333,0.175053,0.386565,-0.115725,55,271,578,5584
1644163520.397967,-0.008789,0.012451,-0.992004,0.113985,0.478168,-0.024122,48,271,578,5552
1644163520.446355,-0.012817,0.009888,-0.992798,0.205588,0.447634,-0.192061,49,285,577,5584
1644163520.495157,-0.010193,0.007019,-0.99292,0.388794,0.447634,-0.024122,52,282,577,5584
1644163520.544999,-0.009705,0.009583,-0.99115,0.281924,0.417099,0.036947,57,275,579,5552
1644163520.595204,-0.009521,0.008728,-0.989746,0.144519,0.462901,-0.008855,53,283,564,5584
1644163520.640299,-0.011597,0.009827,-0.991333,0.098718,0.493435,-0.069924,58,269,576,5552
1644163520.736683,-0.010132,0.011292,-0.992188,0.144519,0.478168,-0.192061,49,273,586,5584
1644163520.785622,-0.011963,0.012207,-0.99353,0.220855,0.478168,-0.069924,45,277,565,5536
1644163520.833538,-0.010071,0.009705,-0.992615,0.251389,0.325496,-0.207328,51,279,573,5552
1644163520.881886,-0.008606,0.011292,-0.989624,0.190321,0.462901,-0.14626,46,283,566,5552
1644163520.930305,-0.008667,0.009399,-0.990601,0.251389,0.401832,0.036947,47,268,579,5584
1644163520.978692,-0.011536,0.013,-0.992676,0.312458,0.462901,0.036947,51,269,573,5584
1644163521.027077,-0.008972,0.010925,-0.991638,0.098718,0.493435,-0.115725,43,274,571,5648
1644163521.077836,-0.007446,0.011597,-0.991821,0.175053,0.585038,-0.115725,46,279,580,5584
1644163521.123803,-0.010559,0.011353,-0.991272,0.190321,0.325496,-0.14626,49,270,572,5600
1644163521.172232,-0.006958,0.009338,-0.993652,0.312458,0.523969,-0.024122,53,286,580,5584
1644163521.22059,-0.010254,0.012024,-0.992981,0.175053,0.600305,-0.054656,55,283,578,5552
1644163521.26899,-0.011475,0.012512,-0.98938,0.251389,0.462901,-0.069924,49,273,582,5552
1644163521.31738,-0.00946,0.008972,-0.992432,0.205588,0.493435,-0.100458,62,281,583,5584
1644163521.365777,-0.009827,0.012024,-0.993164,0.037649,0.493435,-0.085191,40,285,572,5584
1644163521.414167,-0.012085,0.007507,-0.992554,0.220855,0.417099,-0.115725,59,270,570,5600
1644163521.462567,-0.008911,0.010315,-0.992065,0.281924,0.478168,0.021679,51,276,569,5584
1644163521.510965,-0.010437,0.011597,-0.993958,0.236122,0.493435,-0.161527,45,280,577,5600
1644163521.559659,-0.012451,0.008728,-0.992249,0.266656,0.493435,-0.100458,60,271,573,5632
1644163521.610329,-0.011658,0.009155,-0.993286,0.022382,0.401832,-0.069924,46,283,573,5648
1644163521.660213,-0.011414,0.008118,-0.990479,0.327725,0.478168,0.036947,52,268,577,5584
1644163521.705519,-0.011658,0.010071,-0.988647,0.419328,0.371298,-0.130992,54,270,579,5536
1644163521.801275,-0.006836,0.011169,-0.991394,0.281924,0.554504,0.036947,49,273,575,5648
1644163521.849718,-0.011108,0.008667,-0.992004,0.236122,0.539237,-0.024122,55,274,576,5536
1644163521.898096,-0.009216,0.011902,-0.993286,0.236122,0.432366,-0.222595,54,268,575,5600
1644163521.946497,-0.013184,0.010376,-0.99054,0.312458,0.371298,-0.100458,45,270,568,5648
1644163521.994889,-0.011658,0.011047,-0.995178,0.281924,0.401832,-0.14626,54,268,579,5584
1644163522.052716,-0.009949,0.008423,-0.991943,0.190321,0.371298,-0.222595,42,268,582,5584
1644163522.091612,-0.009399,0.009888,-0.994507,0.419328,0.554504,0.098015,45,275,572,5648
1644163522.140024,-0.010986,0.009766,-0.990479,0.159786,0.356031,-0.085191,53,279,571,5552
1644163522.188402,-0.009277,0.009033,-0.991333,0.297191,0.63084,-0.100458,48,274,580,5648
1644163522.236796,-0.007751,0.010071,-0.990723,0.220855,0.447634,0.052214,59,277,582,5552
1644163522.285186,-0.010559,0.009888,-0.990662,0.175053,0.447634,-0.25313,48,271,580,5536
1644163522.333546,-0.009949,0.011047,-0.99353,0.297191,0.432366,-0.008855,55,266,566,5584
1644163522.381977,-0.011658,0.006897,-0.990356,0.342992,0.371298,-0.115725,57,275,586,5584
1644163522.430353,-0.010986,0.006714,-0.990784,0.35826,0.279695,-0.008855,46,281,576,5600
1644163522.47888,-0.010376,0.007935,-0.992188,0.175053,0.539237,0.052214,48,269,571,5584
1644163522.529425,-0.009644,0.011658,-0.990845,0.281924,0.447634,-0.192061,53,281,580,5648
1644163522.579581,-0.009583,0.008301,-0.990723,0.251389,0.554504,-0.024122,46,271,573,5600
1644163522.624717,-0.009583,0.012146,-0.995056,0.190321,0.386565,-0.024122,57,280,575,5552
1644163522.72069,-0.009277,0.010803,-0.989807,0.404061,0.417099,-0.008855,53,283,571,5584
1644163522.769086,-0.010193,0.009155,-0.992432,0.113985,0.478168,0.113282,54,275,565,5584
1644163522.817471,-0.009521,0.00946,-0.990112,0.35826,0.386565,-0.14626,49,277,570,5584
1644163522.865908,-0.010681,0.011353,-0.990601,0.297191,0.508702,-0.283664,45,265,575,5552
1644163522.914309,-0.010742,0.008301,-0.991333,0.236122,0.462901,-0.25313,51,266,571,5552
1644163522.962663,-0.012817,0.012939,-0.991821,0.312458,0.356031,-0.085191,54,270,568,5600
1644163523.011073,-0.00708,0.010437,-0.990112,0.190321,0.432366,-0.161527,52,273,577,5552
1644163523.063643,-0.00946,0.009399,-0.992249,0.281924,0.539237,0.082748,54,275,579,5600
1644163523.107848,-0.012085,0.009644,-0.993225,0.266656,0.447634,-0.115725,40,280,568,5536
1644163523.15622,-0.010132,0.010132,-0.990845,0.297191,0.539237,-0.069924,49,275,577,5632
1644163523.204692,-0.01178,0.010315,-0.991943,0.220855,0.432366,-0.024122,55,271,580,5584
1644163523.25302,-0.010986,0.009583,-0.990295,0.388794,0.417099,-0.069924,41,271,569,5584
1644163523.301376,-0.009155,0.009216,-0.990479,0.312458,0.462901,-0.130992,51,269,571,5536
1644163523.349777,-0.011841,0.007141,-0.992188,0.297191,0.417099,-0.207328,43,271,573,5536
1644163523.398149,-0.012756,0.009644,-0.990112,0.251389,0.401832,-0.100458,53,281,578,5584
1644163523.446549,-0.010193,0.009949,-0.990479,0.144519,0.493435,-0.085191,47,273,572,5600
1644163523.494925,-0.008911,0.008911,-0.990601,0.266656,0.371298,-0.161527,46,281,571,5600
1644163523.543333,-0.009338,0.009888,-0.992432,0.190321,0.462901,0.021679,52,275,586,5536
1644163523.591707,-0.010193,0.009949,-0.992859,0.205588,0.356031,-0.100458,51,269,576,5472
1644163523.64014,-0.007751,0.009888,-0.990479,0.327725,0.432366,0.082748,51,274,578,5552
1644163523.690299,-0.009827,0.008667,-0.993103,0.281924,0.401832,-0.085191,52,275,579,5552
1644163523.740663,-0.010376,0.009216,-0.991821,0.266656,0.569771,-0.008855,52,290,568,5584
1644163523.78573,-0.006958,0.010498,-0.991638,0.08345,0.447634,-0.161527,58,274,573,5584
1644163523.88237,-0.010742,0.007812,-0.990723,0.159786,0.462901,-0.192061,45,270,570,5584
1644163523.93047,-0.009277,0.012817,-0.99176,0.190321,0.356031,-0.115725,51,269,569,5664
1644163523.978871,-0.012146,0.011719,-0.990295,0.312458,0.508702,-0.085191,51,269,587,5552
1644163524.02726,-0.008301,0.011719,-0.991211,0.388794,0.493435,-0.024122,48,279,580,5584
1644163524.078704,-0.009155,0.008423,-0.994629,0.388794,0.508702,-0.222595,49,270,575,5552
1644163524.124074,-0.008423,0.009155,-0.990967,0.205588,0.417099,-0.222595,48,276,578,5584
1644163524.172424,-0.011536,0.007324,-0.990967,0.205588,0.417099,-0.161527,49,268,565,5536
1644163524.220767,-0.009949,0.012695,-0.989685,0.373527,0.340763,-0.008855,48,271,566,5600
1644163524.269182,-0.009644,0.01123,-0.993835,0.037649,0.325496,-0.100458,49,277,568,5584
1644163524.317576,-0.010559,0.011414,-0.993042,0.266656,0.478168,-0.085191,61,277,575,5552
1644163524.365966,-0.011841,0.010193,-0.992188,0.190321,0.539237,0.006412,61,265,577,5552
1644163524.414345,-0.007141,0.011475,-0.990112,0.236122,0.447634,-0.25313,52,275,579,5584
1644163524.462752,-0.012634,0.006592,-0.991699,0.144519,0.523969,0.021679,53,271,580,5536
1644163524.511127,-0.009949,0.00769,-0.992493,0.205588,0.340763,-0.100458,46,276,573,5600
1644163524.559594,-0.008545,0.008667,-0.990112,0.236122,0.478168,-0.207328,43,279,571,5536
1644163524.608654,-0.01001,0.009033,-0.99231,0.236122,0.447634,-0.130992,53,279,580,5600
1644163524.659009,-0.010132,0.011597,-0.990356,0.281924,0.417099,-0.085191,49,270,572,5520
1644163524.709049,-0.011719,0.008118,-0.992981,0.159786,0.432366,-0.100458,49,268,579,5584
1644163524.754084,-0.009094,0.012207,-0.992615,0.08345,0.386565,-0.100458,57,253,582,5600
1644163524.849875,-0.011536,0.011841,-0.991028,0.312458,0.294962,-0.100458,41,269,583,5552
1644163524.898276,-0.008118,0.012085,-0.991211,0.098718,0.554504,-0.115725,57,270,568,5600
1644163524.946661,-0.007996,0.009521,-0.99115,0.297191,0.325496,-0.100458,47,273,575,5584
1644163524.995106,-0.007324,0.01123,-0.992432,0.236122,0.600305,-0.069924,51,271,573,5536
1644163525.052265,-0.009155,0.009766,-0.99176,0.373527,0.493435,-0.069924,54,265,575,5552
1644163525.091847,-0.009888,0.009827,-0.991882,0.327725,0.447634,-0.115725,51,279,576,5600
1644163525.140249,-0.009766,0.012268,-0.991455,0.251389,0.447634,-0.115725,51,276,573,5584
1644163525.18864,-0.009155,0.007629,-0.993835,0.266656,0.432366,-0.085191,49,280,589,5584
1644163525.237022,-0.008423,0.009094,-0.992493,0.205588,0.539237,0.021679,53,271,569,5584
1644163525.285387,-0.013,0.010254,-0.992798,0.175053,0.386565,-0.161527,52,275,568,5600
1644163525.333792,-0.010376,0.012268,-0.989197,0.190321,0.401832,-0.192061,51,279,578,5600
1644163525.382251,-0.010437,0.008911,-0.994995,0.113985,0.371298,-0.008855,54,268,577,5600
1644163525.43058,-0.012024,0.01123,-0.992065,0.236122,0.325496,-0.130992,53,276,578,5552
1644163525.478975,-0.008789,0.009705,-0.991699,0.312458,0.493435,-0.176794,54,282,579,5600
1644163525.527367,-0.010864,0.007568,-0.991272,0.388794,0.340763,-0.069924,52,277,575,5584
1644163525.575749,-0.012268,0.007812,-0.991272,0.175053,0.447634,-0.192061,53,276,585,5584
1644163525.624191,-0.011719,0.012207,-0.992065,0.297191,0.325496,-0.14626,51,271,583,5584
1644163525.672896,-0.009399,0.009583,-0.991882,0.236122,0.478168,-0.207328,52,287,572,5552
1644163525.723512,-0.008789,0.007507,-0.99176,0.159786,0.447634,-0.115725,40,270,572,5584
1644163525.773939,-0.008484,0.009216,-0.995178,0.236122,0.310229,-0.130992,51,269,576,5552
1644163525.818664,-0.01239,0.011597,-0.992065,0.236122,0.554504,-0.192061,45,273,577,5648
1644163525.914461,-0.011597,0.009094,-0.992188,0.236122,0.325496,-0.100458,48,269,578,5600
1644163525.962885,-0.011536,0.007629,-0.991882,0.236122,0.417099,-0.054656,43,269,576,5600
1644163526.011242,-0.010803,0.012878,-0.993286,0.297191,0.417099,-0.237863,54,277,575,5584
1644163526.061106,-0.011841,0.010437,-0.990295,0.266656,0.508702,-0.024122,58,281,571,5536
1644163526.107996,-0.009216,0.006226,-0.99176,0.190321,0.523969,-0.192061,48,283,562,5552
1644163526.156389,-0.008667,0.008118,-0.991821,0.236122,0.508702,-0.176794,51,274,576,5584
1644163526.204792,-0.007935,0.009705,-0.992554,0.373527,0.310229,-0.207328,41,271,573,5552
1644163526.253164,-0.010132,0.011841,-0.990295,0.220855,0.294962,-0.176794,49,275,577,5584
1644163526.301563,-0.013184,0.00708,-0.991638,0.266656,0.417099,-0.161527,58,274,576,5536
1644163526.349951,-0.008728,0.007996,-0.992432,0.205588,0.325496,-0.054656,52,280,572,5536
1644163526.398342,-0.010742,0.011047,-0.990906,0.35826,0.539237,-0.222595,40,275,570,5600
1644163526.446736,-0.011536,0.008911,-0.99292,0.434595,0.356031,-0.069924,52,280,579,5600
1644163526.495205,-0.005554,0.008118,-0.990051,0.297191,0.432366,-0.161527,51,266,573,5488
1644163526.543493,-0.012024,0.012207,-0.993835,0.297191,0.340763,-0.130992,58,274,580,5584
1644163526.591915,-0.009583,0.009705,-0.993042,0.159786,0.615573,-0.100458,51,276,576,5552
1644163526.6403,-0.008057,0.008301,-0.990601,0.175053,0.371298,-0.192061,51,281,576,5648
1644163526.688687,-0.008911,0.009766,-0.991699,0.175053,0.508702,-0.039389,51,276,583,5648
1644163526.737073,-0.010864,0.008484,-0.991943,0.175053,0.493435,-0.008855,47,270,575,5536
1644163526.785526,-0.009644,0.008667,-0.99054,0.312458,0.401832,-0.14626,49,280,575,5584
1644163526.835052,-0.010376,0.010864,-0.992004,0.190321,0.417099,-0.161527,55,276,573,5552
1644163526.885483,-0.009888,0.009033,-0.99176,0.251389,0.539237,-0.100458,48,262,578,5584
1644163526.935629,-0.009094,0.008545,-0.992371,0.281924,0.340763,0.006412,51,274,569,5600
1644163526.980437,-0.012756,0.007751,-0.993774,0.220855,0.478168,0.052214,57,273,579,5552
1644163527.077299,-0.013062,0.006958,-0.98999,0.220855,0.401832,-0.237863,45,270,575,5648
1644163527.124179,-0.008789,0.010315,-0.991211,0.190321,0.417099,-0.176794,54,280,570,5648
1644163527.17258,-0.011475,0.008972,-0.991882,0.068183,0.401832,0.021679,53,279,578,5536
1644163527.220977,-0.01062,0.010864,-0.990479,0.190321,0.478168,-0.207328,51,281,578,5536
1644163527.269369,-0.008972,0.010742,-0.989746,0.236122,0.493435,-0.115725,48,274,576,5552
1644163527.317741,-0.006409,0.010437,-0.990906,0.251389,0.401832,-0.085191,55,281,571,5456
1644163527.366123,-0.008789,0.011108,-0.990845,0.159786,0.325496,-0.085191,53,274,578,5600
1644163527.414531,-0.009644,0.007629,-0.994873,0.190321,0.554504,-0.176794,51,276,566,5648
1644163527.462949,-0.007507,0.010864,-0.990784,0.297191,0.462901,-0.069924,46,279,564,5584
1644163527.511324,-0.008301,0.012146,-0.991455,0.342992,0.371298,-0.054656,58,281,583,5584
1644163527.559704,-0.009827,0.009888,-0.991882,0.266656,0.340763,-0.039389,57,273,579,5552
1644163527.608093,-0.009338,0.011536,-0.991394,0.281924,0.386565,-0.14626,46,274,571,5600
1644163527.656479,-0.009583,0.010437,-0.989502,0.297191,0.539237,-0.192061,57,277,582,5536
1644163527.704898,-0.010681,0.010742,-0.990295,0.175053,0.24916,0.082748,53,271,583,5584
1644163527.753253,-0.010315,0.010132,-0.991272,0.205588,0.478168,-0.054656,51,269,580,5584
1644163527.801697,-0.009949,0.01123,-0.990356,0.236122,0.340763,-0.054656,58,276,573,5584
1644163527.850075,-0.011169,0.011108,-0.990906,0.281924,0.386565,-0.161527,49,285,579,5600
1644163527.898487,-0.011292,0.008423,-0.989319,0.266656,0.386565,-0.100458,48,269,576,5536
1644163527.947734,-0.010742,0.01062,-0.990112,0.175053,0.615573,-0.115725,49,273,577,5600
1644163528.051197,-0.009521,0.011353,-0.994507,0.144519,0.386565,-0.115725,46,276,580,5600
1644163528.091994,-0.012146,0.009949,-0.988953,0.159786,0.417099,-0.085191,55,266,578,5552
1644163528.140398,-0.009155,0.009521,-0.989868,0.190321,0.356031,-0.207328,46,276,576,5600
1644163528.188784,-0.009949,0.00885,-0.988831,0.404061,0.310229,-0.207328,49,273,577,5584
1644163528.237172,-0.013306,0.007202,-0.994507,0.388794,0.386565,-0.054656,45,275,579,5584
1644163528.28554,-0.010132,0.007874,-0.991272,0.312458,0.356031,-0.176794,48,279,578,5712
1644163528.333977,-0.007629,0.009338,-0.992065,0.327725,0.447634,-0.207328,61,268,577,5552
1644163528.382362,-0.011597,0.009705,-0.99292,0.327725,0.417099,-0.176794,64,275,568,5632
1644163528.430729,-0.009521,0.01123,-0.992676,0.251389,0.432366,-0.176794,57,280,577,5584
1644163528.479129,-0.013306,0.009705,-0.992432,0.266656,0.523969,-0.176794,51,279,585,5552
1644163528.527515,-0.009827,0.009705,-0.991211,0.236122,0.432366,-0.25313,47,265,572,5536
1644163528.575907,-0.009521,0.007568,-0.99115,0.419328,0.340763,-0.329466,48,271,578,5552
1644163528.625832,-0.010498,0.008911,-0.991272,0.266656,0.508702,-0.161527,52,273,579,5552
1644163528.676178,-0.009277,0.010864,-0.993408,0.251389,0.279695,-0.176794,61,270,575,5520
1644163528.726231,-0.008423,0.008667,-0.992249,0.175053,0.462901,-0.054656,51,283,578,5552
1644163528.817883,-0.011292,0.010193,-0.994385,-0.008153,0.386565,-0.100458,47,275,577,5648
1644163528.866251,-0.010864,0.011353,-0.991455,0.175053,0.356031,-0.115725,57,277,577,5632
1644163528.914729,-0.010864,0.008667,-0.989319,0.342992,0.340763,-0.161527,53,269,573,5584
1644163528.963077,-0.010498,0.009644,-0.990112,0.220855,0.432366,-0.283664,51,276,585,5584
1644163529.011424,-0.010254,0.012817,-0.989746,0.327725,0.478168,-0.344733,45,275,575,5584
1644163529.059942,-0.009521,0.010193,-0.993896,0.266656,0.493435,-0.069924,51,279,578,5584
1644163529.108227,-0.010559,0.008911,-0.992126,0.190321,0.356031,-0.25313,54,268,572,5632
1644163529.156582,-0.010498,0.010742,-0.989319,0.312458,0.447634,0.021679,41,283,569,5584
1644163529.205011,-0.009705,0.00946,-0.991882,0.327725,0.478168,-0.100458,61,282,579,5600
1644163529.253366,-0.010254,0.008057,-0.991821,0.35826,0.447634,-0.222595,48,271,583,5536
1644163529.301748,-0.01001,0.007874,-0.989136,0.404061,0.340763,-0.161527,51,274,580,5584
1644163529.350127,-0.008057,0.008911,-0.989868,0.190321,0.600305,-0.069924,58,276,578,5536
1644163529.398546,-0.010132,0.009644,-0.991882,0.205588,0.356031,0.021679,51,279,583,5584
1644163529.446919,-0.009949,0.00824,-0.991821,0.113985,0.310229,-0.024122,51,276,571,5552
1644163529.495319,-0.011536,0.009033,-0.99054,0.113985,0.417099,-0.192061,51,276,578,5584
1644163529.543718,-0.011292,0.008423,-0.991272,0.388794,0.371298,-0.039389,48,271,578,5600
1644163529.592145,-0.010132,0.013428,-0.989685,0.297191,0.371298,-0.054656,54,270,577,5536
1644163529.640481,-0.010315,0.012695,-0.991333,0.342992,0.401832,-0.115725,49,275,579,5536
1644163529.68888,-0.009827,0.007324,-0.991577,0.342992,0.371298,-0.115725,45,275,575,5552
1644163529.737287,-0.007385,0.008179,-0.992065,0.266656,0.447634,-0.115725,48,271,571,5600
1644163529.787707,-0.009949,0.010925,-0.993103,0.113985,0.478168,-0.069924,54,270,579,5584
1644163529.838257,-0.008301,0.010193,-0.993347,0.251389,0.371298,-0.054656,57,270,589,5552
1644163529.883426,-0.012085,0.009216,-0.991943,0.342992,0.279695,-0.115725,55,279,580,5600
1644163529.979256,-0.009949,0.01062,-0.991028,0.312458,0.401832,-0.008855,53,264,569,5600
1644163530.02764,-0.009216,0.009338,-0.990051,0.220855,0.356031,-0.039389,42,280,570,5632
1644163530.077768,-0.01123,0.01001,-0.989014,0.251389,0.447634,-0.207328,52,282,575,5536
1644163530.124429,-0.010071,0.010986,-0.990601,0.281924,0.401832,-0.130992,48,274,566,5600
1644163530.172799,-0.007874,0.009338,-0.98999,0.236122,0.417099,-0.085191,54,282,579,5600
1644163530.221171,-0.009094,0.01123,-0.994507,0.281924,0.462901,-0.054656,47,273,575,5584
1644163530.269664,-0.011414,0.009705,-0.993652,0.342992,0.508702,-0.14626,49,270,577,5600
1644163530.318073,-0.010864,0.010925,-0.993164,0.251389,0.432366,-0.115725,46,269,571,5600
1644163530.366483,-0.009827,0.008545,-0.989807,0.144519,0.447634,-0.176794,57,290,572,5584
1644163530.414727,-0.008972,0.010864,-0.99292,0.220855,0.417099,-0.039389,55,269,569,5552
1644163530.46313,-0.009583,0.009583,-0.991333,0.297191,0.432366,-0.14626,47,275,570,5584
1644163530.511484,-0.009705,0.011841,-0.989929,0.205588,0.371298,-0.25313,46,271,573,5584
1644163530.559903,-0.010864,0.010925,-0.994446,0.266656,0.417099,0.036947,58,281,578,5536
1644163530.608293,-0.010132,0.011169,-0.988464,0.266656,0.417099,0.021679,48,271,576,5584
1644163530.656685,-0.01178,0.010742,-0.992371,0.205588,0.371298,-0.115725,42,268,582,5552
1644163530.705114,-0.00946,0.005188,-0.994141,0.312458,0.508702,-0.054656,54,273,577,5552
1644163530.753429,-0.008728,0.008118,-0.992615,0.251389,0.340763,-0.054656,48,279,580,5600
1644163530.801841,-0.009644,0.010803,-0.990356,0.236122,0.462901,-0.085191,46,264,576,5536
1644163530.850283,-0.009705,0.008301,-0.991272,0.342992,0.508702,0.021679,54,268,584,5584
1644163530.90011,-0.009521,0.007996,-0.991272,0.190321,0.554504,-0.069924,55,266,578,5664
1644163530.950638,-0.012695,0.010437,-0.99292,0.236122,0.432366,-0.054656,48,269,564,5600
1644163531.044914,-0.010681,0.009583,-0.990234,0.159786,0.508702,-0.14626,48,271,578,5584
1644163531.092261,-0.009949,0.008728,-0.988647,0.327725,0.493435,-0.054656,52,273,586,5584
1644163531.140599,-0.010498,0.009827,-0.991821,0.281924,0.325496,-0.298931,51,274,571,5600
1644163531.188978,-0.011353,0.007507,-0.991577,0.220855,0.432366,-0.130992,52,270,584,5584
1644163531.237347,-0.009521,0.009705,-0.991821,0.266656,0.401832,-0.14626,49,275,572,5552
1644163531.285739,-0.010498,0.009399,-0.992615,0.404061,0.386565,-0.054656,53,274,578,5600
1644163531.334144,-0.011597,0.012268,-0.990723,0.220855,0.294962,-0.069924,53,269,569,5536
1644163531.38254,-0.008301,0.007812,-0.989868,0.251389,0.279695,-0.100458,48,271,583,5552
1644163531.430923,-0.006653,0.008789,-0.990723,0.022382,0.432366,-0.054656,51,269,566,5584
1644163531.479317,-0.01178,0.010315,-0.992188,0.266656,0.432366,-0.024122,47,275,577,5648
1644163531.527699,-0.014221,0.007629,-0.993347,0.327725,0.478168,-0.237863,52,275,589,5536
1644163531.576083,-0.010376,0.010254,-0.992432,0.480397,0.325496,-0.100458,53,286,578,5584
1644163531.624483,-0.01001,0.009827,-0.991699,0.220855,0.508702,-0.25313,48,276,580,5552
1644163531.672888,-0.008179,0.008545,-0.993347,0.342992,0.462901,-0.115725,55,266,578,5536
1644163531.721245,-0.00824,0.009094,-0.993042,0.251389,0.356031,0.021679,54,277,582,5536
1644163531.769651,-0.010071,0.009705,-0.992004,0.205588,0.478168,-0.115725,58,276,580,5584
1644163531.818045,-0.009888,0.008972,-0.990479,0.236122,0.585038,-0.024122,54,277,572,5536
1644163531.866476,-0.012146,0.009705,-0.990601,0.327725,0.310229,-0.222595,53,279,580,5600
1644163531.915702,-0.010376,0.008484,-0.993774,0.266656,0.493435,0.082748,51,274,585,5584
1644163531.96578,-0.007446,0.011475,-0.990723,0.297191,0.417099,-0.130992,53,271,573,5552
1644163532.016281,-0.011353,0.007935,-0.989258,0.281924,0.371298,-0.085191,34,266,580,5488
1644163532.067351,-0.009277,0.007507,-0.991699,0.159786,0.447634,-0.039389,54,275,579,5552
1644163532.156796,-0.007812,0.012268,-0.990723,0.266656,0.539237,-0.069924,49,273,584,5552
1644163532.205274,-0.008423,0.008057,-0.993225,0.404061,0.432366,-0.130992,49,277,568,5600
1644163532.253585,-0.010193,0.00885,-0.990845,0.159786,0.371298,-0.069924,46,283,569,5552
1644163532.301966,-0.01239,0.007812,-0.992493,0.388794,0.340763,-0.024122,54,270,586,5536
1644163532.350367,-0.009644,0.008545,-0.991577,0.281924,0.462901,-0.008855,60,276,566,5600
1644163532.398773,-0.008606,0.010986,-0.991516,0.281924,0.417099,-0.115725,54,270,572,5584
1644163532.447155,-0.011475,0.009583,-0.99176,0.312458,0.478168,-0.14626,51,271,578,5584
1644163532.495521,-0.009094,0.010559,-0.989929,0.08345,0.356031,-0.176794,48,269,580,5600
1644163532.543941,-0.009766,0.009277,-0.991516,0.159786,0.371298,-0.161527,52,275,575,5536
1644163532.59234,-0.008728,0.010315,-0.993408,0.297191,0.401832,-0.054656,47,275,575,5584
1644163532.640714,-0.007874,0.010742,-0.993652,0.281924,0.478168,-0.115725,47,280,579,5600
1644163532.689095,-0.01062,0.007751,-0.991028,0.159786,0.63084,-0.207328,54,275,575,5552
1644163532.737504,-0.010681,0.008667,-0.990967,0.220855,0.417099,-0.161527,42,277,589,5520
1644163532.785881,-0.010193,0.010986,-0.992249,0.175053,0.325496,-0.054656,52,268,577,5584
1644163532.83425,-0.010193,0.009277,-0.990479,0.205588,0.508702,-0.039389,43,279,580,5536
1644163532.882646,-0.010742,0.009644,-0.991211,0.144519,0.478168,-0.222595,48,276,578,5632
1644163532.931045,-0.012207,0.00946,-0.990723,0.327725,0.356031,-0.085191,59,280,577,5552
1644163532.97978,-0.008667,0.008911,-0.992676,0.251389,0.356031,0.036947,54,280,577,5536
1644163533.028204,-0.007874,0.01001,-0.990601,0.373527,0.493435,-0.069924,45,275,577,5520
1644163533.080595,-0.009277,0.010254,-0.990723,0.281924,0.401832,0.006412,46,276,578,5488
1644163533.129579,-0.007141,0.01123,-0.990967,0.404061,0.386565,-0.100458,47,270,575,5600
1644163533.22137,-0.009399,0.009521,-0.992371,0.404061,0.432366,-0.085191,53,274,569,5536
1644163533.269738,-0.010254,0.009766,-0.991089,0.220855,0.279695,-0.085191,51,269,571,5584
1644163533.318146,-0.009338,0.007385,-0.992126,0.220855,0.401832,0.021679,53,269,571,5552
1644163533.36655,-0.009705,0.009399,-0.994141,0.159786,0.340763,-0.085191,43,276,578,5552
1644163533.414918,-0.009644,0.008972,-0.992615,0.35826,0.493435,0.021679,43,271,569,5584
1644163533.463305,-0.008606,0.009644,-0.990356,0.236122,0.386565,-0.25313,48,279,576,5552
1644163533.51172,-0.009338,0.009949,-0.99054,0.266656,0.401832,-0.207328,46,271,573,5584
1644163533.560093,-0.010071,0.009399,-0.993469,0.220855,0.447634,-0.130992,39,274,573,5648
1644163533.608478,-0.009949,0.011536,-0.990601,0.297191,0.356031,-0.039389,54,277,572,5536
1644163533.65686,-0.00824,0.009583,-0.990234,0.144519,0.401832,-0.14626,43,276,573,5552
1644163533.705286,-0.01001,0.011169,-0.990417,0.236122,0.508702,-0.161527,49,268,565,5648
1644163533.753664,-0.008362,0.010071,-0.992859,0.373527,0.462901,-0.024122,52,270,579,5600
1644163533.802089,-0.010254,0.011902,-0.991089,0.220855,0.569771,-0.176794,48,262,585,5600
1644163533.850469,-0.008545,0.008606,-0.991577,0.297191,0.447634,-0.069924,49,277,575,5584
1644163533.898866,-0.009766,0.008484,-0.991577,0.342992,0.386565,-0.115725,45,280,579,5600
1644163533.947253,-0.01001,0.01001,-0.989868,0.266656,0.401832,-0.25313,57,268,579,5552
1644163533.995619,-0.009888,0.009705,-0.989929,0.342992,0.325496,-0.085191,49,270,575,5536
1644163534.063112,-0.009277,0.009583,-0.990967,0.312458,0.447634,-0.130992,53,274,578,5648
1644163534.092375,-0.009277,0.008362,-0.992432,0.327725,0.447634,-0.039389,47,285,570,5600
1644163534.140967,-0.009766,0.007935,-0.989807,0.129252,0.432366,-0.024122,51,276,573,5584
1644163534.191578,-0.00946,0.006897,-0.990356,0.251389,0.493435,-0.14626,53,274,583,5632
1644163534.242256,-0.013062,0.010071,-0.992798,0.159786,0.386565,-0.192061,49,270,582,5584
1644163534.286865,-0.010437,0.009766,-0.991211,0.159786,0.401832,-0.100458,42,273,572,5600
1644163534.382722,-0.011353,0.009705,-0.993469,0.175053,0.340763,-0.024122,54,275,579,5648
1644163534.43112,-0.00769,0.009216,-0.991699,0.205588,0.310229,-0.039389,54,280,572,5600
1644163534.479496,-0.008972,0.009216,-0.991699,0.327725,0.493435,-0.085191,52,268,582,5584
1644163534.527898,-0.006531,0.01123,-0.992371,0.205588,0.356031,-0.008855,49,270,577,5600
1644163534.576278,-0.009216,0.01062,-0.989441,0.205588,0.661374,-0.207328,57,270,577,5584
1644163534.624685,-0.008545,0.00824,-0.991516,0.251389,0.340763,-0.069924,54,277,579,5536
1644163534.673075,-0.01001,0.008179,-0.993591,0.113985,0.493435,-0.192061,55,271,571,5632
1644163534.721442,-0.012695,0.011108,-0.990295,0.236122,0.432366,-0.192061,53,264,573,5584
1644163534.769846,-0.012451,0.006226,-0.992493,0.266656,0.478168,-0.085191,55,269,583,5584
1644163534.818286,-0.006592,0.011475,-0.990356,0.159786,0.417099,-0.14626,54,287,579,5632
1644163534.866668,-0.00946,0.011292,-0.991516,0.373527,0.310229,-0.176794,51,274,564,5584
1644163534.915215,-0.009216,0.012146,-0.992493,0.175053,0.462901,-0.085191,67,276,578,5648
1644163534.963457,-0.00824,0.010559,-0.991821,0.236122,0.478168,0.082748,51,279,569,5536
1644163535.011815,-0.010864,0.007996,-0.991455,0.251389,0.432366,-0.069924,59,273,584,5536
1644163535.071183,-0.00769,0.009949,-0.989441,0.297191,0.325496,-0.054656,39,279,576,5584
1644163535.108547,-0.009216,0.010803,-0.99176,0.388794,0.371298,-0.130992,57,277,565,5632
1644163535.156974,-0.008911,0.010071,-0.990417,0.251389,0.417099,0.021679,55,271,576,5600
1644163535.20687,-0.00769,0.012939,-0.989868,0.220855,0.356031,-0.115725,48,271,576,5552
1644163535.256897,-0.008911,0.00885,-0.990784,0.220855,0.386565,-0.207328,53,274,573,5552
1644163535.307058,-0.008362,0.011719,-0.990417,0.266656,0.539237,0.006412,52,275,572,5552
1644163535.398913,-0.012695,0.007141,-0.992493,0.098718,0.417099,-0.161527,54,265,584,5536
1644163535.447281,-0.011841,0.010864,-0.992737,0.236122,0.401832,-0.176794,57,265,565,5536
1644163535.495676,-0.009033,0.009766,-0.988647,0.281924,0.493435,-0.115725,49,275,572,5552
1644163535.544101,-0.008301,0.00824,-0.992615,0.312458,0.447634,-0.069924,49,273,586,5584
1644163535.592469,-0.009155,0.01123,-0.992737,0.251389,0.279695,-0.008855,43,281,576,5520
1644163535.640869,-0.009583,0.009216,-0.991943,0.175053,0.417099,-0.115725,52,277,575,5536
1644163535.689246,-0.006165,0.008972,-0.991394,0.251389,0.432366,-0.14626,43,279,573,5648
1644163535.737651,-0.008362,0.011719,-0.991882,0.251389,0.310229,-0.085191,51,266,578,5536
1644163535.786031,-0.010803,0.010925,-0.989746,0.281924,0.554504,0.082748,48,276,573,5600
1644163535.834489,-0.012207,0.00885,-0.990906,0.266656,0.432366,0.021679,46,264,576,5536
1644163535.882875,-0.012268,0.009766,-0.99115,0.190321,0.371298,-0.069924,58,283,576,5584
1644163535.931268,-0.007996,0.013794,-0.992371,0.190321,0.371298,-0.329466,55,283,576,5600
1644163535.97965,-0.010925,0.011292,-0.990417,0.205588,0.294962,-0.130992,46,276,569,5584
1644163536.028039,-0.007202,0.009888,-0.990906,0.236122,0.417099,-0.069924,55,276,578,5584
1644163536.079658,-0.011047,0.010193,-0.988586,0.251389,0.279695,-0.14626,54,280,577,5536
1644163536.124766,-0.010132,0.008667,-0.989868,0.297191,0.356031,-0.039389,48,271,571,5584
1644163536.173174,-0.009827,0.012085,-0.990356,0.266656,0.432366,-0.237863,49,280,579,5536
1644163536.221542,-0.008423,0.010742,-0.990356,0.388794,0.294962,-0.237863,58,283,583,5472
1644163536.269915,-0.009705,0.012146,-0.994141,0.281924,0.356031,-0.008855,45,277,575,5584
1644163536.318827,-0.010498,0.011353,-0.992065,0.220855,0.401832,0.021679,54,280,584,5600
1644163536.368527,-0.010437,0.00708,-0.990845,0.251389,0.615573,-0.008855,47,275,575,5584
1644163536.418855,-0.008179,0.013,-0.99054,0.312458,0.523969,0.098015,53,271,573,5584
1644163536.463864,-0.009583,0.008911,-0.990784,0.236122,0.356031,-0.069924,53,274,576,5648
1644163536.560278,-0.009399,0.010681,-0.991882,0.297191,0.386565,-0.161527,42,277,577,5488
1644163536.608646,-0.010437,0.010986,-0.989319,0.205588,0.432366,-0.14626,54,270,577,5584
1644163536.657044,-0.009949,0.011963,-0.99292,0.281924,0.356031,-0.192061,51,274,571,5536
1644163536.705458,-0.010559,0.006897,-0.990601,0.419328,0.508702,-0.069924,45,275,577,5552
1644163536.753832,-0.011536,0.009521,-0.989502,0.281924,0.264427,-0.085191,52,280,568,5536
1644163536.802247,-0.008911,0.00824,-0.992432,0.404061,0.508702,-0.054656,54,275,572,5632
1644163536.850674,-0.009216,0.008545,-0.993286,0.281924,0.462901,-0.100458,45,270,575,5552
1644163536.899056,-0.011719,0.008301,-0.993591,0.144519,0.432366,-0.085191,55,271,573,5536
1644163536.947446,-0.006592,0.008911,-0.989685,0.236122,0.462901,-0.069924,53,274,576,5584
1644163536.995803,-0.007996,0.010925,-0.990784,0.404061,0.417099,-0.14626,57,268,579,5584
1644163537.051871,-0.010925,0.008545,-0.991028,0.205588,0.447634,-0.207328,51,279,569,5456
1644163537.092613,-0.011047,0.007874,-0.989197,0.144519,0.615573,-0.100458,54,273,577,5536
1644163537.140963,-0.013245,0.01062,-0.991943,0.266656,0.356031,-0.024122,49,277,584,5536
1644163537.189356,-0.008789,0.010315,-0.990967,0.175053,0.417099,-0.024122,51,276,578,5488
1644163537.237753,-0.009094,0.009216,-0.991394,0.342992,0.401832,-0.069924,42,277,582,5536
1644163537.286116,-0.007996,0.012451,-0.990967,0.266656,0.294962,-0.161527,48,281,578,5584
1644163537.334517,-0.010498,0.009155,-0.98877,0.068183,0.554504,-0.085191,65,279,585,5584
1644163537.382928,-0.01001,0.009827,-0.994629,0.236122,0.371298,-0.100458,51,269,580,5600
1644163537.431313,-0.010437,0.006958,-0.991211,0.098718,0.63084,-0.100458,47,268,582,5584
1644163537.480455,-0.009888,0.012024,-0.992798,0.205588,0.401832,-0.14626,53,269,573,5584
1644163537.530573,-0.009888,0.008545,-0.992859,0.251389,0.447634,-0.008855,47,268,572,5584
1644163537.580698,-0.011047,0.011414,-0.992676,0.342992,0.218626,-0.130992,51,279,580,5536
1644163537.625909,-0.009033,0.007935,-0.990112,0.220855,0.325496,-0.008855,57,273,579,5520
1644163537.721643,-0.012695,0.008545,-0.991699,0.266656,0.371298,-0.054656,52,275,570,5536
1644163537.770029,-0.009827,0.007996,-0.989502,0.297191,0.417099,-0.25313,54,282,565,5488
1644163537.818422,-0.008362,0.00647,-0.992554,0.08345,0.462901,0.067481,47,273,575,5552
1644163537.866848,-0.009338,0.008484,-0.991943,0.236122,0.279695,0.036947,48,271,573,5552
1644163537.915242,-0.013611,0.009338,-0.991394,0.175053,0.279695,-0.024122,43,269,569,5552
1644163537.963642,-0.011047,0.009888,-0.994507,0.281924,0.310229,-0.008855,54,270,577,5600
1644163538.012032,-0.009155,0.011475,-0.992249,0.342992,0.493435,-0.115725,51,283,576,5648
1644163538.061239,-0.009399,0.010193,-0.990295,0.098718,0.417099,-0.039389,46,281,580,5584
1644163538.108789,-0.009644,0.009277,-0.992676,0.175053,0.462901,-0.069924,52,275,572,5600
1644163538.157166,-0.010498,0.010254,-0.988098,0.144519,0.447634,-0.115725,51,269,576,5600
1644163538.205544,-0.009399,0.01123,-0.99115,0.297191,0.356031,-0.192061,52,275,582,5552
1644163538.25397,-0.010864,0.013123,-0.991272,0.236122,0.401832,0.021679,45,270,582,5584
1644163538.302313,-0.008545,0.010986,-0.99176,0.342992,0.340763,0.159084,52,270,572,5584
1644163538.350739,-0.010742,0.012695,-0.990479,0.281924,0.401832,-0.192061,59,275,584,5552
1644163538.399081,-0.00946,0.008179,-0.993958,0.129252,0.401832,0.006412,41,274,573,5536
1644163538.447504,-0.010498,0.010681,-0.992859,0.327725,0.432366,-0.069924,46,264,576,5584
1644163538.495868,-0.008484,0.008484,-0.989868,0.266656,0.356031,-0.054656,55,266,576,5584
1644163538.544284,-0.010071,0.008545,-0.993042,0.190321,0.523969,-0.024122,52,273,575,5600
1644163538.592691,-0.009827,0.006042,-0.994019,0.220855,0.401832,-0.085191,51,274,576,5552
1644163538.642467,-0.009399,0.012268,-0.991211,0.159786,0.310229,-0.283664,70,281,583,5600
1644163538.692766,-0.010376,0.006042,-0.992249,0.266656,0.508702,-0.039389,52,273,579,5600
1644163538.743034,-0.010559,0.009399,-0.994873,0.297191,0.478168,-0.100458,47,275,584,5584
1644163538.835138,-0.009644,0.012207,-0.990112,0.297191,0.432366,-0.100458,55,271,571,5584
1644163538.883058,-0.009827,0.010376,-0.990906,0.342992,0.203359,-0.100458,51,279,576,5600
1644163538.931405,-0.011292,0.007568,-0.989014,0.129252,0.325496,-0.192061,49,270,565,5552
1644163538.979821,-0.011169,0.009583,-0.991943,0.190321,0.386565,-0.069924,59,268,582,5584
1644163539.028216,-0.010986,0.009521,-0.987427,0.342992,0.233893,-0.115725,49,275,570,5552
1644163539.078863,-0.012268,0.009521,-0.991638,0.251389,0.493435,0.036947,51,276,587,5536
1644163539.12503,-0.009583,0.010376,-0.991943,0.297191,0.493435,-0.085191,48,281,571,5584
1644163539.173368,-0.009583,0.009521,-0.99115,0.251389,0.615573,0.021679,55,269,569,5632
1644163539.221741,-0.009155,0.008911,-0.994324,0.220855,0.478168,-0.115725,51,276,573,5584
1644163539.270126,-0.005432,0.008667,-0.990967,0.220855,0.523969,-0.085191,60,271,583,5632
1644163539.318515,-0.007141,0.008728,-0.99176,0.342992,0.294962,-0.039389,46,264,564,5632
1644163539.366914,-0.012024,0.008728,-0.99231,0.419328,0.356031,-0.207328,45,277,579,5552
1644163539.415306,-0.009521,0.007568,-0.991028,0.129252,0.462901,0.021679,48,262,590,5552
1644163539.463696,-0.008057,0.008179,-0.99353,0.297191,0.478168,-0.085191,46,269,587,5600
1644163539.512041,-0.010986,0.011353,-0.990112,0.312458,0.371298,-0.024122,46,276,583,5584
1644163539.560533,-0.009033,0.012207,-0.990417,0.281924,0.325496,-0.039389,54,285,572,5696
1644163539.609109,-0.007324,0.011414,-0.992371,0.220855,0.325496,-0.207328,54,270,584,5536
1644163539.658619,-0.008972,0.009583,-0.991211,0.190321,0.417099,-0.192061,36,269,580,5536
1644163539.70873,-0.011047,0.009033,-0.994995,0.144519,0.417099,-0.14626,47,273,577,5632
1644163539.759223,-0.008911,0.007935,-0.991272,0.388794,0.386565,-0.024122,52,260,582,5536
1644163539.850848,-0.011597,0.008667,-0.992371,0.220855,0.386565,-0.14626,51,276,573,5584
1644163539.899239,-0.008789,0.00592,-0.992981,0.312458,0.523969,-0.192061,49,265,572,5536
1644163539.94762,-0.007996,0.009155,-0.990662,0.297191,0.417099,-0.069924,57,270,577,5600
1644163539.996005,-0.012207,0.006104,-0.992737,0.220855,0.554504,-0.039389,55,279,573,5584
1644163540.049703,-0.008972,0.009888,-0.992798,0.342992,0.508702,-0.237863,55,269,580,5552
1644163540.092806,-0.013062,0.010742,-0.992065,0.129252,0.508702,-0.054656,52,273,582,5584
1644163540.141191,-0.007385,0.010559,-0.992493,0.388794,0.523969,-0.100458,54,270,577,5584
1644163540.189581,-0.010376,0.009705,-0.991638,0.220855,0.462901,0.098015,48,259,576,5520
1644163540.237977,-0.012024,0.007996,-0.994751,0.220855,0.417099,-0.100458,48,274,583,5584
1644163540.286344,-0.009033,0.010925,-0.989746,0.281924,0.432366,-0.115725,52,290,575,5520
1644163540.334781,-0.010925,0.010254,-0.991211,0.205588,0.417099,-0.207328,49,282,575,5536
1644163540.383164,-0.010498,0.012024,-0.98938,0.281924,0.447634,-0.024122,51,276,583,5584
1644163540.43155,-0.009033,0.013,-0.991516,0.297191,0.508702,-0.176794,55,279,578,5552
1644163540.479922,-0.008179,0.01001,-0.992249,0.190321,0.356031,-0.130992,49,280,579,5584
1644163540.528307,-0.010681,0.008789,-0.993958,0.190321,0.462901,-0.14626,54,275,575,5600
1644163540.576707,-0.011292,0.009583,-0.988525,0.236122,0.325496,-0.161527,55,269,587,5600
1644163540.625149,-0.007996,0.010925,-0.991577,0.297191,0.401832,-0.130992,59,273,584,5600
1644163540.673495,-0.011536,0.009705,-0.992004,0.113985,0.432366,0.021679,45,277,582,5584
1644163540.722939,-0.00885,0.009521,-0.993164,0.327725,0.371298,-0.176794,53,262,583,5552
1644163540.77355,-0.010681,0.008972,-0.994263,0.312458,0.371298,-0.039389,54,273,584,5584
1644163540.823812,-0.00946,0.009094,-0.99176,0.113985,0.340763,-0.176794,47,277,582,5584
1644163540.868322,-0.008484,0.009888,-0.98877,0.113985,0.356031,-0.039389,49,270,575,5584
1644163540.963838,-0.008606,0.009094,-0.991882,0.205588,0.569771,-0.085191,47,275,570,5584
1644163541.012418,-0.009705,0.013855,-0.992004,0.129252,0.676641,-0.024122,55,276,583,5664
1644163541.060768,-0.008606,0.011719,-0.991394,0.220855,0.447634,0.006412,59,275,584,5584
1644163541.108945,-0.010132,0.009033,-0.994141,0.220855,0.462901,-0.024122,42,273,577,5552
1644163541.157342,-0.011597,0.00885,-0.992676,0.281924,0.478168,0.159084,48,274,578,5536
1644163541.205729,-0.009338,0.008362,-0.994324,0.373527,0.218626,-0.054656,58,276,578,5552
1644163541.254098,-0.012146,0.010193,-0.991577,0.144519,0.310229,-0.115725,43,279,571,5600
1644163541.302537,-0.012695,0.010315,-0.991699,0.312458,0.310229,-0.069924,47,273,584,5536
1644163541.350909,-0.009033,0.009949,-0.990417,0.327725,0.371298,-0.14626,47,275,577,5584
1644163541.3993,-0.012207,0.012268,-0.991882,0.205588,0.417099,-0.14626,48,269,576,5536
1644163541.447682,-0.008606,0.010681,-0.991821,0.251389,0.340763,-0.14626,40,277,579,5584
1644163541.496047,-0.011292,0.010376,-0.991333,0.129252,0.340763,-0.237863,55,279,585,5552
1644163541.544472,-0.009644,0.009705,-0.991089,0.312458,0.462901,-0.008855,51,271,580,5584
1644163541.592866,-0.009644,0.011841,-0.990295,0.297191,0.447634,-0.039389,46,276,583,5584
1644163541.641254,-0.008545,0.008789,-0.990479,0.236122,0.432366,-0.176794,46,266,583,5584
1644163541.689641,-0.009583,0.010071,-0.991699,0.159786,0.401832,-0.115725,46,271,576,5600
1644163541.738024,-0.01001,0.008118,-0.993713,0.266656,0.325496,-0.100458,52,270,579,5472
1644163541.786803,-0.009094,0.01123,-0.988647,0.190321,0.417099,-0.039389,46,271,578,5648
1644163541.834891,-0.009644,0.008789,-0.989746,0.175053,0.325496,-0.25313,46,269,580,5600
1644163541.884705,-0.010986,0.009827,-0.990723,0.327725,0.401832,-0.100458,52,282,577,5488
1644163541.934828,-0.008667,0.010193,-0.989685,0.068183,0.523969,-0.024122,53,269,576,5584
1644163541.984876,-0.010925,0.008362,-0.991089,0.144519,0.432366,0.052214,42,277,579,5536
1644163542.029506,-0.009705,0.011536,-0.991699,0.205588,0.462901,-0.085191,54,275,577,5552
1644163542.125375,-0.008667,0.010193,-0.99115,0.373527,0.447634,-0.024122,55,269,585,5552
1644163542.173551,-0.011169,0.009827,-0.991028,0.220855,0.325496,-0.069924,45,285,577,5584
1644163542.221928,-0.00885,0.00824,-0.992065,0.281924,0.478168,-0.130992,48,279,573,5648
1644163542.27031,-0.010437,0.008606,-0.991577,0.190321,0.218626,-0.008855,49,270,584,5536
1644163542.318724,-0.011475,0.011597,-0.99292,0.312458,0.523969,-0.176794,49,268,579,5536
1644163542.367086,-0.009949,0.00824,-0.99054,0.342992,0.371298,-0.14626,54,270,579,5584
1644163542.415475,-0.010925,0.010498,-0.992737,0.159786,0.386565,-0.085191,55,276,576,5552
1644163542.463883,-0.011414,0.010315,-0.990479,0.266656,0.417099,-0.25313,59,268,577,5552
1644163542.512285,-0.007751,0.010925,-0.989929,0.266656,0.600305,-0.039389,49,280,577,5552
1644163542.560661,-0.013184,0.011597,-0.991577,0.419328,0.432366,-0.115725,46,276,578,5600
1644163542.609058,-0.009399,0.011292,-0.989746,0.297191,0.310229,-0.130992,45,275,577,5584
1644163542.657414,-0.011353,0.009033,-0.992615,0.236122,0.447634,-0.008855,45,285,577,5536
1644163542.705801,-0.009949,0.010132,-0.990417,0.144519,0.340763,-0.054656,52,277,579,5536
1644163542.754237,-0.00946,0.009705,-0.993591,0.35826,0.432366,-0.008855,38,280,568,5584
1644163542.80266,-0.012268,0.01001,-0.99176,0.35826,0.493435,-0.207328,51,281,580,5584
1644163542.851049,-0.010254,0.007812,-0.992737,0.266656,0.356031,-0.039389,54,277,568,5600
1644163542.89942,-0.01123,0.010437,-0.993103,0.373527,0.340763,0.036947,53,271,592,5648
1644163542.948196,-0.008606,0.009644,-0.99353,0.373527,0.401832,-0.329466,38,270,577,5632
1644163542.996198,-0.011902,0.007263,-0.992676,0.144519,0.493435,-0.14626,58,274,580,5600
1644163543.067431,-0.01062,0.012085,-0.993713,0.281924,0.386565,-0.069924,52,273,582,5584
1644163543.096884,-0.009399,0.008728,-0.991028,0.068183,0.325496,-0.115725,40,270,570,5600
1644163543.145563,-0.012573,0.010681,-0.991516,-0.02342,0.417099,-0.14626,53,269,578,5584
1644163543.190595,-0.012634,0.01062,-0.993835,0.266656,0.539237,0.036947,57,277,582,5536
1644163543.286501,-0.00824,0.010437,-0.993835,0.068183,0.447634,-0.085191,47,277,575,5552
1644163543.334947,-0.013428,0.010742,-0.991821,0.266656,0.24916,-0.085191,55,276,573,5584
1644163543.383302,-0.010498,0.007202,-0.994934,0.068183,0.417099,-0.039389,60,264,583,5552
1644163543.431674,-0.010864,0.007446,-0.992065,0.220855,0.356031,-0.024122,51,279,580,5488
1644163543.48008,-0.010986,0.009033,-0.993286,0.251389,0.508702,-0.100458,54,277,575,5648
1644163543.528452,-0.008423,0.00769,-0.993469,0.312458,0.417099,-0.085191,46,271,566,5584
1644163543.576846,-0.013062,0.009583,-0.994019,0.281924,0.447634,-0.054656,43,271,580,5472
1644163543.625245,-0.007446,0.009644,-0.988586,0.068183,0.417099,-0.100458,49,275,565,5600
1644163543.67364,-0.011536,0.010803,-0.991455,0.098718,0.447634,-0.069924,45,270,582,5648
1644163543.722027,-0.012207,0.009399,-0.992188,0.236122,0.447634,-0.085191,51,269,566,5536
1644163543.770418,-0.010437,0.013794,-0.991577,0.281924,0.432366,-0.237863,43,266,580,5600
1644163543.818836,-0.00946,0.008423,-0.992371,0.342992,0.432366,-0.100458,52,268,572,5584
1644163543.867219,-0.012817,0.010803,-0.990845,0.220855,0.386565,-0.100458,45,275,575,5600
1644163543.915603,-0.006775,0.007263,-0.993286,0.08345,0.462901,-0.115725,39,276,576,5648
1644163543.96399,-0.007751,0.011414,-0.990662,0.251389,0.325496,-0.192061,54,270,586,5584
1644163544.012424,-0.009399,0.010681,-0.99231,0.327725,0.401832,-0.100458,42,277,577,5552
1644163544.067858,-0.011841,0.012512,-0.990662,0.266656,0.462901,-0.14626,47,275,577,5552
1644163544.109401,-0.009216,0.01178,-0.992554,0.297191,0.508702,-0.039389,48,276,580,5584
1644163544.158237,-0.005737,0.009521,-0.992859,0.08345,0.401832,-0.024122,46,269,578,5584
1644163544.208815,-0.01062,0.011169,-0.987976,0.205588,0.386565,-0.192061,46,271,580,5552
1644163544.258975,-0.01062,0.009094,-0.989807,0.373527,0.356031,-0.161527,45,275,575,5584
1644163544.303864,-0.006836,0.013184,-0.990662,0.220855,0.493435,0.052214,49,277,579,5584
1644163544.399493,-0.009216,0.008057,-0.98938,0.297191,0.493435,-0.054656,53,283,569,5536
1644163544.447851,-0.013062,0.01001,-0.993103,0.175053,0.478168,-0.115725,48,279,578,5584
1644163544.496244,-0.00885,0.007446,-0.990479,0.281924,0.325496,-0.039389,58,281,571,5536
1644163544.544858,-0.011719,0.010071,-0.989929,0.175053,0.24916,-0.100458,59,273,572,5520
1644163544.593076,-0.011597,0.014343,-0.993652,0.266656,0.371298,0.052214,43,274,569,5536
1644163544.641433,-0.012085,0.010742,-0.991028,0.327725,0.279695,-0.085191,49,270,577,5536
1644163544.689837,-0.011414,0.008972,-0.992065,0.419328,0.585038,-0.039389,47,282,575,5552
1644163544.738223,-0.012085,0.011536,-0.991638,0.35826,0.401832,-0.024122,55,274,576,5552
1644163544.786593,-0.012146,0.009277,-0.993591,0.159786,0.462901,-0.130992,47,273,584,5584
1644163544.83519,-0.014465,0.008423,-0.990723,0.159786,0.508702,-0.100458,40,276,580,5552
1644163544.88343,-0.010681,0.007874,-0.988403,0.205588,0.508702,-0.054656,51,271,583,5600
1644163544.931824,-0.011719,0.009644,-0.994324,0.266656,0.386565,-0.207328,55,271,576,5552
1644163544.980208,-0.009338,0.008484,-0.992432,0.251389,0.310229,-0.237863,47,277,584,5552
1644163545.028586,-0.007751,0.009277,-0.990906,0.281924,0.310229,-0.130992,59,277,568,5584
1644163545.08076,-0.009094,0.011414,-0.98999,0.266656,0.585038,-0.207328,47,270,582,5584
1644163545.1253,-0.012512,0.009094,-0.991699,0.236122,0.523969,-0.237863,49,263,579,5648
1644163545.173731,-0.010254,0.009216,-0.990417,0.266656,0.432366,-0.024122,48,276,580,5584
1644163545.222248,-0.010742,0.010803,-0.992188,0.297191,0.386565,-0.14626,55,283,587,5552
1644163545.270487,-0.006226,0.008423,-0.99115,0.342992,0.585038,-0.298931,49,280,582,5648
1644163545.319293,-0.009521,0.007996,-0.991821,0.190321,0.294962,-0.069924,49,277,586,5648
1644163545.369435,-0.013672,0.006592,-0.991394,0.388794,0.294962,-0.039389,49,277,579,5520
1644163545.41985,-0.009583,0.011841,-0.991516,0.220855,0.371298,-0.14626,57,273,579,5600
1644163545.464749,-0.010193,0.00824,-0.993408,0.373527,0.447634,-0.115725,42,273,572,5584
1644163545.560849,-0.009216,0.009399,-0.990723,0.205588,0.310229,0.052214,48,276,571,5584
1644163545.609243,-0.013184,0.008789,-0.99353,0.129252,0.371298,-0.115725,49,273,577,5488
1644163545.657626,-0.01178,0.009094,-0.991394,0.312458,0.569771,-0.085191,45,268,572,5648
1644163545.706018,-0.012329,0.008667,-0.990417,0.419328,0.417099,-0.176794,51,281,580,5584
1644163545.754398,-0.007812,0.008423,-0.993408,0.205588,0.478168,-0.100458,52,265,579,5536
1644163545.802821,-0.009583,0.006653,-0.992004,0.190321,0.432366,0.021679,57,268,575,5600
1644163545.851196,-0.011658,0.007324,-0.992371,0.159786,0.478168,-0.161527,53,279,583,5600
1644163545.899623,-0.010925,0.009155,-0.992371,0.297191,0.478168,-0.085191,60,266,587,5536
1644163545.948017,-0.009033,0.010437,-0.99115,0.342992,0.417099,-0.207328,54,280,577,5584
1644163545.99638,-0.009583,0.010925,-0.993591,0.205588,0.401832,-0.298931,52,273,572,5648
1644163546.051817,-0.009033,0.008423,-0.990723,0.175053,0.462901,0.052214,42,270,577,5584
1644163546.093211,-0.013489,0.008972,-0.990051,0.266656,0.401832,-0.161527,36,279,566,5536
1644163546.141538,-0.008972,0.009094,-0.989014,0.220855,0.371298,-0.14626,54,277,579,5584
1644163546.189919,-0.01062,0.01001,-0.992676,0.297191,0.386565,-0.161527,49,275,575,5520
1644163546.238291,-0.012451,0.008057,-0.990784,0.327725,0.432366,-0.130992,57,280,572,5600
1644163546.286675,-0.010315,0.008423,-0.991089,0.251389,0.401832,-0.039389,51,274,571,5584
1644163546.335143,-0.011902,0.010376,-0.991638,0.327725,0.310229,-0.130992,47,273,586,5488
1644163546.383494,-0.012329,0.008484,-0.989319,0.159786,0.447634,0.021679,53,271,571,5600
1644163546.433259,-0.009155,0.010254,-0.990845,0.312458,0.554504,-0.25313,43,271,571,5584
1644163546.483498,-0.00824,0.010498,-0.990784,0.297191,0.539237,-0.069924,51,271,578,5584
1644163546.533513,-0.007385,0.011414,-0.990906,0.205588,0.417099,-0.192061,54,268,577,5600
1644163546.625447,-0.009399,0.009827,-0.992065,0.144519,0.356031,0.021679,46,286,578,5584
1644163546.673835,-0.008667,0.008667,-0.991333,0.251389,0.371298,-0.176794,47,280,572,5584
1644163546.72239,-0.009827,0.007019,-0.990601,0.281924,0.417099,-0.054656,53,281,571,5584
1644163546.770599,-0.010193,0.006958,-0.991577,0.281924,0.508702,-0.100458,46,274,573,5648
1644163546.818989,-0.01001,0.009949,-0.990173,0.312458,0.417099,-0.100458,42,268,570,5584
1644163546.867404,-0.010254,0.010132,-0.993591,0.312458,0.279695,0.021679,57,268,584,5584
1644163546.915806,-0.011536,0.008301,-0.994751,0.373527,0.325496,-0.008855,62,269,566,5584
1644163546.96421,-0.013306,0.01178,-0.991577,0.342992,0.371298,-0.008855,46,266,573,5552
1644163547.012622,-0.009216,0.013123,-0.98999,0.205588,0.356031,0.021679,53,276,569,5584
1644163547.069188,-0.007935,0.011475,-0.992371,0.129252,0.615573,-0.222595,33,273,579,5584
1644163547.109353,-0.010864,0.00946,-0.990906,0.190321,0.432366,-0.161527,54,277,572,5648
1644163547.157703,-0.011658,0.009949,-0.990845,0.388794,0.386565,-0.314198,45,268,577,5584
1644163547.20613,-0.009521,0.009827,-0.992065,0.419328,0.401832,-0.192061,53,269,573,5584
1644163547.254523,-0.01001,0.010864,-0.992859,0.098718,0.356031,-0.222595,43,276,578,5536
1644163547.30289,-0.012146,0.011108,-0.990234,0.205588,0.462901,-0.054656,57,273,577,5584
1644163547.351275,-0.012634,0.007019,-0.990601,0.327725,0.462901,-0.192061,54,263,584,5584
1644163547.39965,-0.009521,0.010071,-0.992554,0.159786,0.523969,-0.237863,54,277,577,5600
1644163547.448057,-0.008606,0.00885,-0.991272,0.113985,0.356031,-0.054656,57,282,584,5600
1644163547.496448,-0.011963,0.009033,-0.991943,0.175053,0.401832,-0.085191,54,270,575,5584
1644163547.544995,-0.010071,0.007446,-0.99115,0.373527,0.615573,-0.039389,57,265,575,5584
1644163547.595262,-0.010437,0.00946,-0.991943,0.220855,0.462901,-0.100458,46,271,576,5552
1644163547.645703,-0.009949,0.011841,-0.991028,0.266656,0.478168,-0.25313,57,268,579,5520
1644163547.690306,-0.011047,0.011108,-0.993286,0.297191,0.432366,-0.008855,49,275,584,5552
1644163547.786782,-0.00885,0.009521,-0.992004,0.297191,0.356031,-0.085191,49,275,572,5536
1644163547.835366,-0.009338,0.009155,-0.992004,0.175053,0.325496,-0.100458,49,270,577,5584
1644163547.883621,-0.010498,0.009521,-0.99054,0.205588,0.523969,-0.024122,51,274,571,5536
1644163547.932007,-0.011108,0.010681,-0.989746,0.175053,0.233893,-0.161527,54,275,577,5600
1644163547.9804,-0.012451,0.009155,-0.996399,0.098718,0.325496,-0.130992,51,276,576,5552
1644163548.028795,-0.012573,0.00946,-0.99176,0.35826,0.417099,-0.069924,52,275,568,5552
1644163548.080216,-0.011536,0.004578,-0.994751,0.220855,0.447634,-0.069924,61,275,586,5600
1644163548.125564,-0.008972,0.010132,-0.992737,0.205588,0.401832,0.052214,53,283,585,5648
1644163548.173898,-0.012451,0.008728,-0.98999,0.205588,0.356031,-0.069924,53,266,590,5552
1644163548.222339,-0.008911,0.009399,-0.990723,0.236122,0.417099,-0.069924,51,283,571,5552
1644163548.270695,-0.009033,0.007446,-0.993286,0.205588,0.386565,-0.161527,59,273,572,5536
1644163548.319082,-0.011475,0.011475,-0.991211,0.159786,0.325496,-0.192061,49,263,572,5584
1644163548.367473,-0.009521,0.009277,-0.990112,0.281924,0.432366,-0.115725,53,271,576,5600
1644163548.415883,-0.007568,0.010071,-0.991089,0.220855,0.401832,-0.161527,48,266,578,5600
1644163548.46427,-0.010803,0.010315,-0.990356,0.144519,0.340763,-0.100458,52,275,582,5584
1644163548.512674,-0.009094,0.008484,-0.991516,0.129252,0.615573,-0.054656,52,275,579,5600
1644163548.561035,-0.010986,0.009033,-0.993591,0.144519,0.325496,-0.14626,51,279,585,5584
1644163548.609452,-0.011841,0.011475,-0.992615,0.205588,0.462901,-0.192061,40,280,570,5584
1644163548.659578,-0.010132,0.010742,-0.990479,0.236122,0.356031,-0.069924,53,276,573,5600
1644163548.709707,-0.012756,0.011475,-0.992371,0.281924,0.478168,-0.054656,53,276,587,5536
1644163548.759714,-0.011841,0.009338,-0.991943,0.281924,0.386565,-0.039389,58,286,580,5600
1644163548.851381,-0.007996,0.009583,-0.992859,0.068183,0.356031,-0.100458,39,271,569,5584
1644163548.89981,-0.009766,0.010986,-0.991516,0.266656,0.325496,-0.039389,51,274,569,5648
1644163548.948197,-0.011353,0.00769,-0.991638,0.190321,0.401832,-0.115725,55,279,580,5552
1644163548.996576,-0.013123,0.01001,-0.992065,0.236122,0.401832,-0.069924,52,273,575,5584
1644163549.050564,-0.011292,0.011597,-0.991028,0.434595,0.569771,-0.039389,52,273,577,5520
1644163549.093376,-0.010193,0.011047,-0.992126,0.175053,0.264427,-0.069924,54,273,572,5584
1644163549.141768,-0.008545,0.009827,-0.991516,0.205588,0.432366,-0.024122,46,279,573,5600
1644163549.190158,-0.009827,0.006714,-0.993469,0.266656,0.493435,-0.115725,51,276,569,5584
1644163549.238537,-0.009521,0.00769,-0.990601,0.190321,0.371298,-0.024122,41,283,585,5584
1644163549.286893,-0.010986,0.010803,-0.992004,0.35826,0.478168,-0.115725,54,273,570,5584
1644163549.33534,-0.012634,0.00946,-0.991089,0.266656,0.310229,-0.130992,48,269,578,5536
1644163549.383717,-0.011169,0.009399,-0.990723,0.129252,0.371298,0.052214,53,283,573,5584
1644163549.432077,-0.009644,0.008606,-0.992004,0.068183,0.340763,-0.25313,57,268,579,5536
1644163549.480496,-0.01123,0.008972,-0.993469,0.266656,0.432366,-0.176794,54,275,575,5600
1644163549.528899,-0.013855,0.007385,-0.992737,0.266656,0.478168,-0.054656,51,269,576,5536
1644163549.577273,-0.012573,0.007202,-0.991089,0.404061,0.539237,-0.054656,52,280,579,5584
1644163549.625667,-0.009338,0.00708,-0.991577,0.08345,0.325496,0.021679,53,266,573,5536
1644163549.674399,-0.011169,0.01123,-0.994385,0.342992,0.447634,-0.161527,52,273,577,5536
1644163549.722469,-0.009888,0.010254,-0.993591,0.08345,0.340763,0.082748,55,266,585,5536
1644163549.772878,-0.008911,0.008972,-0.992004,0.190321,0.447634,-0.024122,49,277,570,5584
1644163549.823297,-0.009766,0.008118,-0.992798,0.113985,0.401832,-0.25313,49,273,572,5584
1644163549.86792,-0.011902,0.007751,-0.994385,0.373527,0.340763,0.036947,59,273,579,5600
1644163549.964444,-0.008484,0.008423,-0.991699,0.281924,0.340763,-0.207328,48,281,573,5536
1644163550.012775,-0.01001,0.009644,-0.993958,0.220855,0.432366,-0.115725,55,283,578,5584
1644163550.061223,-0.009216,0.009705,-0.994263,0.312458,0.432366,0.021679,47,277,582,5552
1644163550.109511,-0.01001,0.010681,-0.993225,0.205588,0.478168,-0.100458,58,279,587,5552
1644163550.157913,-0.011719,0.009705,-0.991882,0.373527,0.447634,-0.176794,47,273,577,5552
1644163550.206291,-0.010437,0.011414,-0.994141,0.281924,0.356031,-0.130992,52,275,572,5600
1644163550.254683,-0.010498,0.009705,-0.989868,0.113985,0.356031,-0.161527,48,271,583,5520
1644163550.303107,-0.010864,0.009277,-0.992188,0.159786,0.462901,-0.039389,45,273,582,5552
1644163550.351475,-0.010132,0.009338,-0.99176,0.068183,0.371298,-0.14626,46,274,578,5600
1644163550.399875,-0.010864,0.009949,-0.992798,0.236122,0.356031,0.067481,46,274,578,5584
1644163550.448258,-0.011963,0.006958,-0.991394,0.159786,0.386565,-0.069924,51,281,569,5552
1644163550.496624,-0.009644,0.008789,-0.992126,0.281924,0.325496,-0.298931,49,275,568,5584
1644163550.545184,-0.011719,0.008667,-0.992737,0.35826,0.462901,-0.176794,51,276,585,5600
1644163550.593442,-0.009338,0.011353,-0.993164,0.327725,0.417099,-0.100458,51,276,578,5648
1644163550.641827,-0.009033,0.011047,-0.991333,0.220855,0.371298,-0.085191,58,281,580,5632
1644163550.690197,-0.008728,0.00708,-0.992493,0.220855,0.310229,-0.069924,55,286,576,5600
1644163550.738593,-0.009705,0.013,-0.990051,0.129252,0.447634,-0.100458,53,276,585,5584
1644163550.787841,-0.009705,0.007874,-0.992126,0.281924,0.417099,-0.130992,43,279,587,5520
1644163550.838722,-0.008545,0.009033,-0.989319,0.281924,0.371298,-0.085191,51,266,583,5584
1644163550.888981,-0.010925,0.00946,-0.990967,0.281924,0.401832,-0.192061,52,275,586,5584
1644163550.933581,-0.012512,0.01123,-0.99231,0.159786,0.462901,-0.14626,55,269,576,5600
1644163551.028981,-0.010559,0.010986,-0.990601,0.266656,0.401832,-0.085191,53,276,576,5584
1644163551.080306,-0.010498,0.009277,-0.988708,0.327725,0.447634,0.021679,52,270,577,5584
1644163551.125689,-0.010498,0.009827,-0.99115,0.35826,0.447634,0.021679,48,276,566,5552
1644163551.174105,-0.009644,0.008667,-0.990784,0.251389,0.401832,-0.130992,53,271,578,5600
1644163551.222506,-0.007812,0.007935,-0.992676,0.236122,0.340763,-0.085191,46,274,573,5632
1644163551.270865,-0.012024,0.008423,-0.993286,0.113985,0.478168,-0.069924,58,274,573,5536
1644163551.319274,-0.013062,0.007751,-0.989563,0.281924,0.417099,-0.14626,47,270,579,5536
1644163551.36767,-0.008789,0.010193,-0.992615,0.190321,0.447634,-0.054656,51,274,580,5600
1644163551.416062,-0.008118,0.008301,-0.992004,0.419328,0.356031,-0.008855,52,277,582,5600
1644163551.464464,-0.010986,0.010315,-0.993408,0.281924,0.294962,-0.176794,43,276,569,5584
1644163551.516254,-0.013123,0.010376,-0.990417,0.281924,0.325496,-0.207328,51,274,580,5648
1644163551.561223,-0.008057,0.011292,-0.990173,0.251389,0.401832,-0.14626,55,266,576,5488
1644163551.609619,-0.009583,0.010132,-0.993164,0.144519,0.478168,-0.100458,59,277,570,5552
1644163551.658,-0.011292,0.007263,-0.991333,0.205588,0.462901,-0.008855,54,270,586,5584
1644163551.70639,-0.009521,0.008789,-0.991699,0.052916,0.478168,-0.130992,59,268,570,5600
1644163551.754765,-0.010193,0.009277,-0.992737,0.129252,0.462901,-0.054656,41,274,573,5536
1644163551.803227,-0.009338,0.011353,-0.992493,0.236122,0.417099,-0.054656,40,275,579,5584
1644163551.851958,-0.008728,0.011597,-0.991089,0.144519,0.401832,-0.054656,53,274,585,5584
1644163551.900435,-0.009277,0.008118,-0.989685,0.159786,0.294962,-0.085191,58,279,578,5536
1644163551.950604,-0.008484,0.010742,-0.993286,0.205588,0.508702,-0.222595,39,262,583,5536
1644163552.052559,-0.011475,0.009399,-0.992859,0.281924,0.478168,-0.161527,52,265,575,5536
1644163552.093572,-0.011475,0.010803,-0.993286,0.08345,0.401832,-0.008855,51,283,576,5488
1644163552.141904,-0.009949,0.010315,-0.989685,0.35826,0.417099,0.052214,52,275,577,5584
1644163552.190291,-0.011414,0.009399,-0.992249,0.190321,0.478168,-0.069924,52,277,579,5552
1644163552.238702,-0.014282,0.010132,-0.991394,0.144519,0.371298,0.082748,53,271,578,5584
1644163552.287077,-0.010254,0.008545,-0.991394,0.190321,0.569771,-0.192061,60,276,580,5584
1644163552.335476,-0.006958,0.009644,-0.990173,0.129252,0.417099,-0.039389,39,274,569,5552
1644163552.383873,-0.013367,0.007751,-0.991882,0.327725,0.508702,-0.25313,58,274,569,5536
1644163552.432271,-0.011353,0.010132,-0.991394,0.129252,0.24916,0.021679,42,280,575,5584
1644163552.48064,-0.00885,0.011414,-0.992371,0.281924,0.340763,-0.085191,45,270,570,5648
1644163552.529039,-0.010986,0.010193,-0.990723,0.251389,0.340763,0.082748,46,286,590,5584
1644163552.577389,-0.009399,0.008789,-0.99115,0.205588,0.401832,-0.085191,53,274,576,5632
1644163552.625808,-0.009644,0.009766,-0.989746,0.236122,0.356031,-0.024122,45,275,577,5520
1644163552.674193,-0.010742,0.010681,-0.993591,0.342992,0.493435,-0.085191,48,274,580,5600
1644163552.722634,-0.009644,0.009033,-0.994141,0.327725,0.417099,-0.085191,53,271,569,5536
1644163552.770986,-0.010254,0.006775,-0.991028,0.236122,0.401832,-0.14626,51,264,580,5536
1644163552.822082,-0.010986,0.009216,-0.991028,0.281924,0.401832,-0.100458,53,274,571,5600
1644163552.872279,-0.010681,0.008301,-0.993347,0.297191,0.432366,-0.024122,49,275,572,5552
1644163552.916774,-0.011597,0.010559,-0.990967,0.220855,0.493435,-0.298931,45,273,582,5584
1644163553.013009,-0.011169,0.012573,-0.992065,0.434595,0.417099,-0.085191,49,282,582,5584
1644163553.061561,-0.008179,0.008667,-0.991577,0.251389,0.401832,-0.039389,47,277,586,5536
1644163553.109695,-0.007507,0.008057,-0.991577,0.175053,0.615573,-0.192061,60,274,580,5584
1644163553.15808,-0.011597,0.007385,-0.994629,0.129252,0.417099,-0.161527,54,263,582,5584
1644163553.206457,-0.009521,0.007996,-0.991577,0.297191,0.478168,-0.237863,55,269,578,5552
1644163553.254879,-0.010742,0.008972,-0.993591,0.175053,0.462901,-0.14626,43,271,580,5584
1644163553.303288,-0.010376,0.009705,-0.995239,0.08345,0.356031,-0.039389,58,283,564,5552
1644163553.351687,-0.008484,0.009827,-0.991089,0.297191,0.462901,0.006412,52,277,572,5584
1644163553.40006,-0.010071,0.010315,-0.992065,0.281924,0.340763,-0.237863,55,269,571,5536
1644163553.448479,-0.011292,0.009949,-0.993774,0.236122,0.325496,-0.237863,57,270,572,5632
1644163553.496813,-0.008972,0.008728,-0.992737,0.342992,0.401832,-0.192061,45,275,575,5520
1644163553.545305,-0.009949,0.009949,-0.996216,0.404061,0.371298,-0.14626,43,274,571,5584
1644163553.593628,-0.011292,0.008423,-0.98938,0.175053,0.310229,-0.100458,47,287,577,5552
1644163553.642001,-0.011475,0.010132,-0.991699,0.236122,0.493435,-0.130992,49,273,565,5584
1644163553.690389,-0.010437,0.011108,-0.993286,0.266656,0.539237,-0.161527,52,287,579,5600
1644163553.738786,-0.013672,0.012207,-0.991089,0.159786,0.24916,-0.069924,54,273,570,5536
1644163553.78719,-0.01123,0.011902,-0.992798,0.373527,0.432366,-0.14626,54,265,577,5488
1644163553.83569,-0.011902,0.012146,-0.993103,0.113985,0.294962,-0.161527,43,276,569,5632
1644163553.884004,-0.008606,0.008606,-0.993408,0.220855,0.432366,-0.14626,49,275,579,5584
1644163553.933907,-0.008606,0.007996,-0.990906,0.205588,0.447634,-0.054656,61,275,572,5536
1644163553.984058,-0.012695,0.010681,-0.991699,0.190321,0.371298,-0.176794,53,274,573,5584
1644163554.034223,-0.00946,0.010437,-0.991577,0.404061,0.493435,-0.100458,48,274,583,5552
1644163554.079536,-0.010742,0.010864,-0.99176,0.342992,0.478168,-0.069924,60,279,585,5600
1644163554.174298,-0.010315,0.010559,-0.989014,0.190321,0.447634,0.021679,51,279,573,5600
1644163554.222697,-0.010437,0.008667,-0.992737,0.251389,0.508702,-0.14626,45,287,568,5600
1644163554.271078,-0.012268,0.008484,-0.994141,0.175053,0.432366,-0.130992,51,276,571,5600
1644163554.319443,-0.009949,0.009216,-0.990173,0.281924,0.432366,-0.054656,53,276,571,5584
1644163554.367861,-0.010742,0.007935,-0.993347,0.068183,0.462901,-0.054656,52,282,570,5552
1644163554.416241,-0.011292,0.012634,-0.990845,0.236122,0.432366,-0.085191,51,274,583,5536
1644163554.464752,-0.008911,0.01062,-0.991089,0.175053,0.508702,-0.14626,54,265,582,5584
1644163554.513056,-0.010742,0.007996,-0.988892,0.113985,0.340763,0.006412,49,282,579,5584
1644163554.561419,-0.007812,0.007568,-0.992126,0.236122,0.356031,0.113282,62,279,580,5520
1644163554.609805,-0.011169,0.007446,-0.992188,0.175053,0.615573,0.082748,51,271,573,5584
1644163554.658209,-0.01062,0.010925,-0.989868,0.236122,0.24916,-0.008855,55,269,573,5584
1644163554.706594,-0.010498,0.011292,-0.993225,0.251389,0.432366,-0.085191,45,277,577,5600
1644163554.755146,-0.012817,0.009094,-0.99353,0.159786,0.432366,-0.283664,45,277,570,5536
1644163554.803377,-0.011169,0.008728,-0.991272,0.312458,0.340763,0.006412,45,280,584,5520
1644163554.851804,-0.011169,0.01062,-0.994507,0.342992,0.462901,0.021679,58,271,585,5536
1644163554.900164,-0.009094,0.005249,-0.99231,0.190321,0.386565,-0.14626,62,279,573,5584
1644163554.948578,-0.011536,0.010864,-0.990723,0.205588,0.600305,-0.268397,58,274,576,5584
1644163554.99697,-0.009827,0.012024,-0.991943,0.144519,0.432366,-0.237863,41,276,576,5584
1644163555.054874,-0.00885,0.008423,-0.992493,0.404061,0.401832,-0.176794,52,273,577,5600
1644163555.094755,-0.01355,0.007385,-0.993469,0.220855,0.432366,-0.039389,52,270,579,5648
1644163555.14504,-0.010803,0.011047,-0.992493,0.266656,0.340763,0.006412,51,269,580,5648
1644163555.194047,-0.009155,0.009521,-0.993652,0.113985,0.554504,-0.14626,48,281,576,5584
1644163555.239182,-0.012268,0.011292,-0.990906,0.46513,0.508702,-0.039389,49,275,575,5584
1644163555.33564,-0.009216,0.010864,-0.991272,0.205588,0.478168,-0.176794,51,279,573,5584
1644163555.384073,-0.007874,0.00885,-0.990295,0.266656,0.508702,-0.298931,45,282,577,5552
1644163555.432454,-0.008057,0.010986,-0.991211,0.190321,0.371298,-0.115725,45,268,575,5584
1644163555.480826,-0.010925,0.00946,-0.990479,0.327725,0.386565,-0.100458,55,274,576,5600
1644163555.529217,-0.008484,0.00824,-0.991699,0.144519,0.340763,-0.192061,54,273,572,5584
1644163555.577603,-0.012146,0.007202,-0.993225,0.129252,0.294962,-0.176794,45,273,584,5536
1644163555.625991,-0.007568,0.009216,-0.990601,0.266656,0.462901,-0.161527,60,271,573,5536
1644163555.674412,-0.011719,0.009644,-0.992798,0.129252,0.386565,-0.100458,45,270,582,5584
1644163555.722772,-0.01123,0.010437,-0.992065,0.281924,0.432366,-0.024122,43,262,573,5584
1644163555.771184,-0.011719,0.010132,-0.988159,0.129252,0.523969,-0.054656,46,276,566,5536
1644163555.819567,-0.010376,0.008301,-0.991272,0.266656,0.371298,-0.085191,47,277,575,5600
1644163555.868036,-0.009644,0.011353,-0.990417,0.266656,0.386565,-0.008855,53,274,576,5632
1644163555.91636,-0.009949,0.01001,-0.991333,0.251389,0.508702,-0.069924,47,268,568,5552
1644163555.964786,-0.009827,0.008972,-0.991394,0.297191,0.417099,-0.207328,54,265,577,5584
1644163556.013188,-0.010254,0.008057,-0.992249,0.144519,0.417099,-0.039389,51,279,569,5552
1644163556.080805,-0.008118,0.008057,-0.990234,0.327725,0.462901,-0.069924,51,276,580,5600
1644163556.110545,-0.011353,0.009277,-0.992981,0.236122,0.432366,-0.115725,52,282,575,5536
1644163556.161433,-0.011169,0.01062,-0.988281,0.052916,0.539237,-0.207328,53,271,566,5600
1644163556.210185,-0.009094,0.009033,-0.989746,0.190321,0.417099,-0.100458,51,269,580,5488
1644163556.255226,-0.00769,0.010254,-0.989502,0.297191,0.508702,-0.14626,47,270,577,5600
1644163556.351835,-0.008057,0.011108,-0.993286,0.022382,0.340763,-0.008855,49,273,572,5600
1644163556.400229,-0.013,0.008911,-0.99115,0.129252,0.478168,-0.161527,55,276,583,5584
1644163556.448632,-0.00885,0.007263,-0.993042,0.46513,0.478168,-0.069924,55,279,571,5600
1644163556.497031,-0.011902,0.011169,-0.993286,0.312458,0.294962,0.067481,54,273,572,5536
1644163556.545412,-0.010559,0.008362,-0.991577,0.205588,0.356031,-0.054656,57,268,572,5552
1644163556.593811,-0.010071,0.009644,-0.990295,0.434595,0.493435,-0.039389,58,276,576,5552
1644163556.642205,-0.008545,0.009766,-0.993408,0.205588,0.432366,-0.024122,57,270,570,5632
1644163556.690598,-0.00946,0.011414,-0.991394,0.327725,0.569771,-0.054656,40,277,577,5552
1644163556.738989,-0.011169,0.009033,-0.99176,0.236122,0.508702,0.021679,48,276,576,5584
1644163556.787369,-0.01062,0.010925,-0.99115,0.236122,0.585038,-0.054656,54,273,572,5456
1644163556.83576,-0.009277,0.01178,-0.98999,0.35826,0.386565,-0.14626,49,277,572,5552
1644163556.884215,-0.009888,0.007874,-0.990356,0.251389,0.310229,0.036947,47,282,572,5536
1644163556.93258,-0.011169,0.009033,-0.99115,0.266656,0.340763,-0.222595,54,275,577,5600
1644163556.980968,-0.012329,0.007568,-0.992371,0.266656,0.264427,-0.115725,49,275,572,5520
1644163557.029355,-0.009399,0.012329,-0.991028,0.175053,0.508702,-0.054656,51,288,564,5552
1644163557.079494,-0.00946,0.009216,-0.991333,0.052916,0.462901,-0.176794,51,269,578,5552
1644163557.126101,-0.01001,0.00946,-0.992004,0.205588,0.600305,-0.115725,49,280,570,5552
1644163557.1745,-0.008972,0.011475,-0.990417,0.205588,0.325496,-0.039389,57,277,572,5584
1644163557.222893,-0.008118,0.011414,-0.991516,0.037649,0.478168,-0.100458,49,277,582,5600
1644163557.271287,-0.009766,0.009827,-0.994873,0.342992,0.478168,-0.039389,41,271,569,5600
1644163557.321834,-0.010925,0.012085,-0.99115,0.220855,0.310229,-0.192061,43,269,583,5600
1644163557.372012,-0.01123,0.00885,-0.993042,0.144519,0.478168,-0.069924,48,269,569,5584
1644163557.417112,-0.010132,0.010803,-0.991821,0.098718,0.447634,-0.237863,53,276,583,5536
1644163557.513217,-0.008362,0.009277,-0.990967,0.175053,0.401832,-0.130992,51,269,571,5536
1644163557.56159,-0.009888,0.009644,-0.991516,0.098718,0.356031,-0.100458,52,275,579,5552
1644163557.610001,-0.008667,0.007324,-0.99115,0.144519,0.279695,-0.161527,53,271,566,5584
1644163557.658395,-0.010803,0.009033,-0.993103,0.220855,0.356031,-0.085191,57,275,570,5584
1644163557.706783,-0.007324,0.01001,-0.98999,0.281924,0.508702,-0.085191,39,274,576,5552
1644163557.755189,-0.00824,0.006775,-0.993225,0.190321,0.508702,-0.130992,36,269,569,5536
1644163557.803617,-0.010742,0.010132,-0.99231,0.220855,0.432366,-0.25313,53,271,583,5536
1644163557.851996,-0.010742,0.011658,-0.989868,0.220855,0.462901,-0.329466,55,269,576,5584
1644163557.90038,-0.011902,0.008545,-0.990479,0.266656,0.539237,-0.039389,51,274,564,5600
1644163557.948773,-0.009521,0.010071,-0.989746,0.327725,0.401832,-0.237863,52,277,572,5552
1644163557.997131,-0.009338,0.007263,-0.99176,0.205588,0.447634,-0.115725,52,270,575,5584
1644163558.051186,-0.011597,0.01062,-0.99054,0.266656,0.401832,-0.054656,47,265,582,5632
1644163558.093932,-0.011536,0.008606,-0.992188,0.144519,0.462901,-0.024122,52,280,577,5600
1644163558.142305,-0.010925,0.008484,-0.990479,0.266656,0.447634,-0.115725,52,270,577,5584
1644163558.190685,-0.008667,0.00708,-0.992676,0.236122,0.508702,-0.115725,57,268,570,5600
1644163558.239078,-0.010925,0.011292,-0.993042,0.159786,0.401832,-0.14626,53,264,580,5600
1644163558.287471,-0.010742,0.012451,-0.991394,0.266656,0.447634,0.052214,52,265,568,5584
1644163558.335872,-0.01001,0.01001,-0.991211,0.281924,0.432366,-0.039389,48,266,583,5552
1644163558.384448,-0.009705,0.008972,-0.991821,0.144519,0.478168,-0.130992,48,286,571,5584
1644163558.434919,-0.008606,0.011292,-0.991943,0.327725,0.462901,0.036947,46,276,587,5600
1644163558.485226,-0.010315,0.012695,-0.993103,0.236122,0.462901,-0.069924,55,269,578,5536
1644163558.530301,-0.01001,0.010315,-0.991516,0.08345,0.233893,-0.054656,52,265,568,5632
1644163558.626182,-0.011658,0.011292,-0.991699,0.068183,0.447634,-0.069924,54,285,575,5584
1644163558.674835,-0.010132,0.007996,-0.992676,0.342992,0.371298,-0.039389,53,271,583,5488
1644163558.723017,-0.012573,0.007568,-0.99054,0.190321,0.493435,-0.130992,54,273,577,5488
1644163558.771355,-0.010437,0.008606,-0.990295,0.236122,0.356031,-0.192061,49,277,575,5648
1644163558.819784,-0.007507,0.008362,-0.992065,0.266656,0.600305,-0.207328,58,271,573,5584
1644163558.868181,-0.012207,0.010071,-0.991394,0.251389,0.417099,-0.085191,46,274,578,5600
1644163558.916577,-0.011353,0.01001,-0.989319,0.205588,0.447634,-0.176794,55,266,576,5600
1644163558.965088,-0.009583,0.009705,-0.99176,0.190321,0.294962,-0.130992,45,273,572,5552
1644163559.013341,-0.01062,0.009094,-0.991943,0.190321,0.462901,-0.100458,55,271,580,5584
1644163559.067515,-0.00824,0.009033,-0.989258,0.312458,0.310229,-0.069924,51,271,585,5552
1644163559.110095,-0.011414,0.010498,-0.992249,0.312458,0.478168,-0.069924,52,268,582,5552
1644163559.158484,-0.008545,0.01123,-0.990417,0.129252,0.493435,-0.024122,53,274,573,5584
1644163559.206882,-0.010315,0.010254,-0.992615,0.129252,0.493435,-0.039389,49,277,572,5536
1644163559.255282,-0.012451,0.006592,-0.990845,0.251389,0.264427,-0.008855,53,276,578,5536
1644163559.303655,-0.009644,0.00824,-0.993652,0.251389,0.417099,-0.207328,54,270,579,5584
1644163559.352029,-0.008911,0.012024,-0.989502,0.373527,0.523969,-0.14626,49,292,572,5584
1644163559.400407,-0.008911,0.009766,-0.990479,0.434595,0.386565,-0.14626,49,270,575,5584
1644163559.448822,-0.011169,0.008789,-0.991882,0.236122,0.401832,-0.039389,53,276,585,5536
1644163559.497214,-0.012451,0.007874,-0.993896,0.144519,0.356031,-0.207328,49,270,575,5584
1644163559.545856,-0.012756,0.008301,-0.990601,0.220855,0.554504,-0.207328,48,264,576,5584
1644163559.596406,-0.007935,0.012024,-0.991089,0.281924,0.294962,-0.100458,54,280,579,5600
1644163559.64643,-0.011841,0.011536,-0.993042,0.404061,0.325496,-0.069924,48,276,573,5552
1644163559.691557,-0.009705,0.005737,-0.990662,0.098718,0.356031,-0.268397,48,274,576,5488
1644163559.787547,-0.007446,0.010315,-0.992371,0.159786,0.325496,0.067481,47,287,568,5584
1644163559.836359,-0.00885,0.009277,-0.98999,0.236122,0.417099,-0.039389,52,270,575,5552
1644163559.884374,-0.006958,0.009033,-0.991699,0.266656,0.340763,-0.039389,46,274,571,5584
1644163559.932753,-0.007568,0.009827,-0.990051,0.129252,0.386565,-0.039389,52,280,582,5648
1644163559.981147,-0.008911,0.007996,-0.989319,0.281924,0.554504,-0.069924,52,277,572,5520
1644163560.029543,-0.009766,0.007446,-0.991638,0.297191,0.356031,-0.054656,54,275,579,5584
1644163560.081135,-0.011475,0.011597,-0.98999,0.205588,0.432366,-0.207328,41,286,580,5600
1644163560.126267,-0.009766,0.010193,-0.992371,0.175053,0.401832,-0.176794,47,273,565,5600
1644163560.174715,-0.007996,0.010742,-0.99176,0.159786,0.478168,-0.054656,57,277,570,5552
1644163560.223088,-0.00769,0.008484,-0.991455,0.281924,0.310229,-0.100458,54,270,591,5552
1644163560.271458,-0.009949,0.009277,-0.989075,0.159786,0.386565,-0.207328,49,282,575,5632
1644163560.319849,-0.010376,0.009338,-0.991638,0.236122,0.401832,-0.207328,52,270,572,5488
1644163560.368254,-0.008667,0.009644,-0.990662,0.266656,0.340763,-0.069924,57,273,579,5584
1644163560.416625,-0.010376,0.008728,-0.991394,0.342992,0.310229,-0.054656,46,262,587,5584
1644163560.465054,-0.011902,0.009399,-0.990417,0.113985,0.432366,0.12855,52,277,577,5584
1644163560.513395,-0.01123,0.009888,-0.994141,0.220855,0.294962,-0.207328,49,280,579,5584
1644163560.562378,-0.011414,0.011108,-0.992432,0.220855,0.447634,-0.039389,46,271,585,5584
1644163560.61278,-0.010376,0.011658,-0.991211,0.236122,0.340763,-0.100458,51,274,592,5584
1644163560.663398,-0.009399,0.009827,-0.991211,0.35826,0.447634,-0.039389,42,280,586,5488
1644163560.708091,-0.010864,0.010681,-0.992615,0.205588,0.401832,-0.085191,49,275,575,5584
1644163560.803798,-0.011719,0.01355,-0.99231,0.113985,0.340763,-0.115725,48,281,571,5584
1644163560.852406,-0.011597,0.013062,-0.990723,0.129252,0.447634,-0.085191,55,274,576,5600
1644163560.900559,-0.010742,0.010925,-0.989014,0.297191,0.386565,-0.130992,40,277,570,5536
1644163560.948948,-0.012024,0.011353,-0.991394,0.297191,0.356031,-0.039389,55,274,580,5584
1644163560.997346,-0.012817,0.008301,-0.992981,0.205588,0.233893,-0.222595,48,269,578,5584
1644163561.055043,-0.008423,0.009277,-0.993713,0.297191,0.356031,-0.008855,48,269,578,5584
1644163561.094105,-0.007874,0.011475,-0.989502,0.205588,0.447634,-0.298931,49,268,584,5584
1644163561.142492,-0.010742,0.008545,-0.99231,0.342992,0.340763,-0.024122,54,280,572,5584
1644163561.190874,-0.012085,0.010559,-0.992615,0.342992,0.371298,0.082748,49,270,575,5584
1644163561.239267,-0.009705,0.009705,-0.988159,0.220855,0.401832,-0.14626,61,277,579,5600
1644163561.287659,-0.009644,0.005859,-0.99176,0.236122,0.371298,-0.176794,49,285,579,5600
1644163561.336034,-0.009399,0.008911,-0.991272,0.251389,0.401832,-0.14626,59,275,579,5552
1644163561.384425,-0.011902,0.009399,-0.990417,0.266656,0.279695,-0.130992,51,276,578,5584
1644163561.432815,-0.012024,0.011108,-0.991821,0.266656,0.356031,-0.069924,61,275,579,5584
1644163561.481203,-0.010864,0.01123,-0.991638,0.404061,0.478168,-0.161527,45,270,582,5536
1644163561.529576,-0.012085,0.009033,-0.991455,0.251389,0.356031,0.143817,43,264,578,5584
1644163561.577992,-0.010986,0.010437,-0.990662,0.236122,0.432366,-0.161527,40,280,586,5584
1644163561.626759,-0.012146,0.009277,-0.993164,0.236122,0.279695,-0.130992,47,273,579,5584
1644163561.676958,-0.010437,0.009338,-0.993042,0.113985,0.417099,-0.069924,43,283,564,5536
1644163561.727259,-0.013184,0.010376,-0.991394,0.297191,0.493435,-0.100458,45,277,582,5536
1644163561.772177,-0.008972,0.007874,-0.990845,0.327725,0.386565,-0.100458,59,268,572,5488
1644163561.868359,-0.009888,0.008911,-0.991516,0.159786,0.493435,-0.161527,48,266,564,5600
1644163561.916752,-0.01239,0.007507,-0.99292,0.297191,0.539237,-0.085191,46,274,578,5536
1644163561.965183,-0.010315,0.006592,-0.992859,0.297191,0.386565,-0.085191,60,279,566,5536
1644163562.01356,-0.009583,0.00885,-0.992859,0.205588,0.432366,-0.069924,53,286,576,5552
1644163562.062014,-0.013977,0.008362,-0.990845,0.266656,0.340763,-0.161527,60,269,592,5600
1644163562.110324,-0.010986,0.007935,-0.991577,0.281924,0.356031,-0.069924,51,281,580,5584
1644163562.158685,-0.008545,0.011841,-0.992065,0.190321,0.462901,-0.085191,62,266,573,5536
1644163562.207076,-0.008972,0.012573,-0.989746,0.327725,0.401832,-0.085191,53,269,576,5536
1644163562.255454,-0.011902,0.009277,-0.992798,0.175053,0.264427,-0.100458,53,276,571,5584
1644163562.303874,-0.00885,0.010742,-0.98877,0.251389,0.386565,-0.069924,43,276,576,5552
1644163562.352243,-0.010254,0.010071,-0.991394,0.297191,0.386565,-0.054656,48,274,573,5552
1644163562.400624,-0.012634,0.010559,-0.990356,0.297191,0.294962,0.067481,48,281,580,5648
1644163562.448979,-0.009033,0.007385,-0.99353,0.327725,0.340763,-0.100458,43,279,569,5584
1644163562.497408,-0.010986,0.011719,-0.992065,0.205588,0.523969,-0.100458,47,277,572,5536
1644163562.545799,-0.011108,0.009888,-0.990173,0.236122,0.371298,-0.054656,47,270,582,5648
1644163562.594191,-0.009094,0.011475,-0.995667,0.266656,0.447634,-0.085191,49,275,579,5536
1644163562.642594,-0.013245,0.008972,-0.994507,0.449863,0.462901,-0.008855,43,269,580,5552
1644163562.691002,-0.01001,0.010193,-0.991211,0.297191,0.478168,-0.130992,55,281,583,5600
1644163562.739605,-0.009338,0.00885,-0.992676,0.281924,0.401832,-0.207328,46,281,578,5584
1644163562.78893,-0.010864,0.00946,-0.990601,0.159786,0.233893,0.021679,55,279,576,5536
1644163562.839626,-0.011353,0.010132,-0.993652,0.297191,0.432366,-0.069924,49,282,568,5600
1644163562.890321,-0.014404,0.006775,-0.994568,0.159786,0.340763,0.067481,54,273,570,5536
1644163562.981326,-0.00885,0.009277,-0.992981,0.281924,0.310229,-0.130992,53,276,583,5600
1644163563.02975,-0.008789,0.008545,-0.992432,0.419328,0.325496,0.098015,51,276,576,5600
1644163563.080912,-0.008789,0.010132,-0.991577,0.113985,0.508702,-0.069924,57,273,582,5584
1644163563.126539,-0.011658,0.007507,-0.990601,0.08345,0.539237,0.021679,58,283,578,5552
1644163563.174895,-0.012146,0.010559,-0.994324,0.388794,0.569771,-0.115725,49,273,577,5648
1644163563.223281,-0.009521,0.008606,-0.995178,0.342992,0.432366,-0.069924,46,274,576,5536
1644163563.271658,-0.009155,0.008423,-0.990295,0.190321,0.447634,-0.039389,45,282,568,5600
1644163563.320053,-0.010254,0.009521,-0.995178,0.46513,0.386565,-0.039389,61,277,575,5536
1644163563.368427,-0.010803,0.009583,-0.99115,0.266656,0.356031,-0.100458,40,268,575,5488
1644163563.41682,-0.01062,0.011658,-0.993469,0.144519,0.401832,-0.14626,46,271,583,5632
1644163563.465207,-0.011353,0.011292,-0.992615,0.266656,0.432366,-0.161527,49,282,579,5600
1644163563.513588,-0.010315,0.009644,-0.991089,0.236122,0.523969,-0.039389,45,270,584,5536
1644163563.561995,-0.013916,0.008789,-0.995239,0.144519,0.447634,-0.069924,53,279,587,5584
1644163563.610402,-0.010376,0.00885,-0.993591,0.190321,0.417099,-0.085191,47,282,584,5600
1644163563.659975,-0.011841,0.010864,-0.989868,0.052916,0.340763,-0.14626,54,270,584,5648
1644163563.710305,-0.012024,0.009338,-0.991333,0.404061,0.386565,0.052214,55,266,580,5552
1644163563.76057,-0.012024,0.009583,-0.991089,0.297191,0.386565,0.052214,45,270,563,5600
1644163563.85265,-0.012512,0.010681,-0.990173,0.388794,0.371298,-0.024122,59,282,572,5584
1644163563.900745,-0.009155,0.009338,-0.990662,0.190321,0.478168,-0.176794,52,282,575,5584
1644163563.949142,-0.010742,0.008667,-0.992126,0.236122,0.417099,-0.176794,39,276,573,5536
1644163563.997522,-0.009766,0.007751,-0.990601,0.281924,0.493435,-0.130992,51,269,573,5584
1644163564.052377,-0.012268,0.008728,-0.992249,0.220855,0.340763,-0.100458,57,275,579,5552
1644163564.094282,-0.010742,0.007019,-0.98938,0.175053,0.462901,-0.024122,61,275,575,5584
1644163564.142719,-0.008667,0.010559,-0.992432,0.281924,0.386565,-0.237863,46,274,580,5632
1644163564.191092,-0.010559,0.00885,-0.991394,0.281924,0.447634,-0.192061,51,276,578,5536
1644163564.239496,-0.00946,0.008484,-0.991638,0.251389,0.294962,-0.222595,46,291,578,5520
1644163564.288198,-0.009949,0.011108,-0.991394,0.297191,0.493435,-0.115725,45,277,575,5552
1644163564.336232,-0.012329,0.009827,-0.99231,0.236122,0.478168,-0.115725,49,270,584,5536
1644163564.384665,-0.005127,0.009521,-0.992981,0.297191,0.432366,-0.176794,53,279,573,5536
1644163564.433081,-0.009155,0.008423,-0.994873,0.373527,0.371298,-0.115725,40,275,572,5536
1644163564.481442,-0.010864,0.011169,-0.992188,0.190321,0.340763,-0.085191,46,276,573,5584
1644163564.530041,-0.01062,0.011597,-0.991699,0.205588,0.447634,-0.115725,47,280,572,5584
1644163564.578577,-0.01355,0.010437,-0.995178,0.312458,0.294962,-0.008855,49,280,565,5584
1644163564.62902,-0.011719,0.012024,-0.993042,0.35826,0.447634,-0.100458,58,266,573,5600
1644163564.679321,-0.007751,0.007935,-0.993164,0.388794,0.356031,-0.115725,47,277,577,5696
1644163564.723776,-0.009766,0.009094,-0.988281,0.297191,0.432366,0.021679,55,269,576,5600
1644163564.820139,-0.01239,0.005432,-0.99176,0.281924,0.325496,-0.451603,47,273,579,5584
1644163564.868546,-0.008484,0.010071,-0.991882,0.419328,0.386565,-0.115725,59,270,572,5648
1644163564.916946,-0.006958,0.010498,-0.992798,0.373527,0.615573,-0.192061,52,277,568,5536
1644163564.965324,-0.010376,0.010803,-0.993774,0.236122,0.401832,-0.100458,52,273,561,5536
1644163565.013719,-0.010986,0.008545,-0.99353,0.205588,0.432366,-0.100458,55,274,569,5584
1644163565.062293,-0.011047,0.007751,-0.991028,0.297191,0.264427,-0.069924,58,274,578,5584
1644163565.110452,-0.010559,0.008301,-0.992676,0.190321,0.462901,-0.039389,42,268,584,5600
1644163565.158868,-0.011292,0.009705,-0.992554,0.220855,0.401832,-0.192061,47,273,572,5648
1644163565.207255,-0.00946,0.009094,-0.994324,0.327725,0.294962,-0.085191,35,270,572,5648
1644163565.255651,-0.012451,0.010254,-0.993347,0.129252,0.371298,-0.130992,51,271,576,5536
1644163565.304044,-0.012024,0.010132,-0.991089,0.342992,0.310229,-0.161527,54,277,570,5600
1644163565.352441,-0.009583,0.00885,-0.991516,0.266656,0.279695,-0.314198,55,276,585,5600
1644163565.400815,-0.010315,0.009155,-0.99231,0.327725,0.356031,-0.069924,52,268,568,5536
1644163565.449201,-0.009766,0.012207,-0.993652,0.266656,0.432366,-0.085191,52,277,579,5600
1644163565.497609,-0.011292,0.009155,-0.991577,0.281924,0.356031,-0.024122,42,280,575,5552
1644163565.545991,-0.010559,0.01062,-0.992188,0.220855,0.401832,-0.115725,53,279,583,5520
1644163565.594363,-0.012451,0.009094,-0.992432,0.205588,0.371298,-0.130992,51,281,566,5584
1644163565.642786,-0.010864,0.005676,-0.992432,0.251389,0.462901,-0.008855,45,260,579,5552
1644163565.691168,-0.01062,0.010864,-0.987366,0.236122,0.447634,-0.176794,54,268,579,5584
1644163565.739681,-0.009338,0.010864,-0.994019,0.236122,0.493435,-0.237863,51,281,571,5600
1644163565.790551,-0.011597,0.010742,-0.991333,0.175053,0.371298,-0.192061,54,277,572,5584
1644163565.841194,-0.011047,0.011108,-0.993286,0.190321,0.371298,-0.039389,49,282,577,5584
1644163565.886014,-0.011353,0.009827,-0.990112,0.297191,0.493435,-0.039389,52,277,572,5600
1644163565.98154,-0.010925,0.01178,-0.988953,0.098718,0.340763,-0.161527,52,275,575,5600
1644163566.029932,-0.01239,0.006653,-0.992493,0.342992,0.294962,-0.069924,49,265,572,5648
1644163566.078513,-0.011292,0.008484,-0.995178,0.159786,0.325496,-0.14626,57,280,582,5472
1644163566.12664,-0.007751,0.010681,-0.991516,0.297191,0.462901,-0.115725,47,285,579,5600
1644163566.175083,-0.009399,0.011597,-0.99115,0.419328,0.386565,-0.176794,57,280,572,5584
1644163566.223427,-0.01001,0.012329,-0.991089,0.266656,0.417099,-0.008855,52,275,582,5648
1644163566.271818,-0.010986,0.009888,-0.992371,0.281924,0.447634,0.006412,41,279,573,5600
1644163566.320223,-0.006958,0.008972,-0.994141,0.220855,0.264427,-0.115725,48,269,576,5584
1644163566.368621,-0.009521,0.00885,-0.993042,0.373527,0.401832,0.021679,41,279,576,5584
1644163566.417006,-0.00824,0.008301,-0.989502,0.236122,0.493435,0.021679,45,277,577,5584
1644163566.465401,-0.007568,0.007385,-0.989624,0.175053,0.462901,-0.25313,45,270,572,5584
1644163566.513779,-0.011169,0.010132,-0.990173,0.35826,0.523969,-0.130992,45,268,575,5552
1644163566.562234,-0.010986,0.008545,-0.993408,0.08345,0.554504,-0.14626,52,287,575,5584
1644163566.610574,-0.011963,0.008911,-0.991394,0.342992,0.417099,0.021679,36,271,578,5552
1644163566.658981,-0.009827,0.007935,-0.98999,0.312458,0.386565,-0.222595,53,279,580,5536
1644163566.707346,-0.011902,0.007568,-0.992432,0.35826,0.386565,-0.130992,49,280,572,5584
1644163566.755713,-0.010986,0.010559,-0.989441,0.129252,0.417099,-0.161527,57,275,570,5552
1644163566.804184,-0.01062,0.011902,-0.993103,0.190321,0.188092,0.021679,46,276,573,5536
1644163566.853036,-0.009033,0.009644,-0.990417,0.342992,0.462901,-0.161527,57,275,575,5600
1644163566.90334,-0.008728,0.010498,-0.989197,0.220855,0.447634,-0.024122,54,277,570,5552
1644163566.954244,-0.010803,0.01001,-0.990295,0.251389,0.325496,-0.161527,49,277,572,5584
1644163567.05151,-0.008728,0.010376,-0.990112,0.327725,0.417099,-0.008855,65,281,580,5584
1644163567.094488,-0.010925,0.006409,-0.993225,0.297191,0.478168,-0.161527,48,281,573,5584
1644163567.142859,-0.008484,0.007507,-0.99054,0.266656,0.356031,0.052214,53,279,580,5552
1644163567.191254,-0.009644,0.009399,-0.992126,0.266656,0.340763,0.098015,47,282,572,5584
1644163567.23965,-0.009277,0.011353,-0.993713,0.190321,0.279695,-0.192061,54,265,577,5584
