epoch,acc_x,acc_y,acc_z,rot_x,rot_y,rot_z,mag_x,mag_y,mag_z,temp
1644189900.015626,-0.007324,0.00885,-0.98999,0.297191,0.401832,-0.176794,58,276,576,6240
1644189900.064946,-0.008118,0.005676,-0.992676,0.205588,0.432366,-0.024122,58,276,580,6224
1644189900.112351,-0.010559,0.009033,-0.992554,0.297191,0.478168,-0.130992,55,276,580,6240
1644189900.160758,-0.007629,0.010254,-0.990479,0.159786,0.386565,-0.130992,53,281,587,6224
1644189900.209156,-0.008667,0.009216,-0.989075,0.220855,0.462901,-0.054656,51,271,585,6224
1644189900.257516,-0.006836,0.010803,-0.989746,0.129252,0.523969,-0.054656,48,279,592,6288
1644189900.305933,-0.00946,0.009705,-0.99469,0.220855,0.340763,0.036947,51,276,592,6240
1644189900.354337,-0.005737,0.011658,-0.991272,0.281924,0.371298,0.006412,51,262,578,6240
1644189900.402743,-0.012573,0.008972,-0.989075,0.159786,0.447634,-0.130992,49,285,589,6224
1644189900.451111,-0.010132,0.007935,-0.993652,0.342992,0.401832,-0.008855,53,283,580,6240
1644189900.499789,-0.008118,0.013123,-0.989807,0.251389,0.462901,-0.130992,51,266,585,6256
1644189900.548139,-0.009155,0.007812,-0.992615,0.236122,0.478168,-0.100458,54,277,586,6224
1644189900.598679,-0.009399,0.005676,-0.992676,0.251389,0.401832,-0.25313,42,268,582,6224
1644189900.648702,-0.008362,0.008484,-0.992249,0.113985,0.478168,-0.115725,47,277,575,6224
1644189900.693874,-0.006104,0.00885,-0.992004,0.266656,0.432366,-0.176794,48,279,580,6240
1644189900.789872,-0.009033,0.008911,-0.989624,0.205588,0.188092,0.006412,59,275,584,6224
1644189900.838245,-0.008667,0.010315,-0.993103,0.052916,0.508702,-0.069924,45,270,577,6240
1644189900.886698,-0.00946,0.010559,-0.994202,0.266656,0.356031,-0.085191,48,281,585,6240
1644189900.935188,-0.007446,0.006897,-0.99176,0.175053,0.356031,-0.100458,47,282,572,6224
1644189900.983506,-0.009705,0.011353,-0.99292,0.35826,0.432366,0.021679,51,274,576,6240
1644189901.031876,-0.010376,0.00885,-0.990601,0.068183,0.523969,-0.085191,48,279,592,6192
1644189901.080418,-0.006653,0.011047,-0.992371,0.281924,0.478168,-0.207328,47,268,579,6304
1644189901.128614,-0.009277,0.009277,-0.991699,0.220855,0.310229,-0.024122,52,280,572,6224
1644189901.177011,-0.009033,0.009521,-0.99176,0.251389,0.371298,0.006412,46,271,583,6256
1644189901.225406,-0.008118,0.008972,-0.992188,0.236122,0.615573,-0.14626,57,265,593,6224
1644189901.273803,-0.008545,0.010132,-0.993652,0.220855,0.340763,-0.14626,55,269,587,6240
1644189901.32225,-0.011597,0.007324,-0.991455,0.190321,0.478168,-0.069924,53,271,583,6240
1644189901.370572,-0.00946,0.008179,-0.989014,0.098718,0.356031,-0.054656,51,281,583,6224
1644189901.418975,-0.00824,0.009583,-0.993103,0.175053,0.356031,-0.085191,51,281,583,6160
1644189901.46737,-0.007751,0.01001,-0.993164,0.220855,0.447634,-0.14626,52,290,586,6288
1644189901.515772,-0.008728,0.009888,-0.99176,0.312458,0.340763,0.021679,58,279,594,6176
1644189901.564156,-0.010376,0.009705,-0.989807,0.190321,0.539237,0.098015,52,275,589,6256
1644189901.612555,-0.008179,0.00946,-0.994995,0.35826,0.432366,0.021679,54,273,586,6224
1644189901.660949,-0.00885,0.011414,-0.99054,0.236122,0.386565,-0.039389,59,275,582,6240
1644189901.709818,-0.011841,0.008179,-0.992371,0.35826,0.24916,0.021679,51,264,580,6224
1644189901.76033,-0.005676,0.009521,-0.990845,0.205588,0.462901,-0.039389,59,273,584,6288
1644189901.810447,-0.008179,0.009155,-0.992981,0.205588,0.401832,-0.054656,49,273,584,6240
1644189901.856057,-0.010071,0.009583,-0.993164,0.236122,0.462901,-0.069924,47,268,589,6224
1644189901.951335,-0.006653,0.006775,-0.990601,0.159786,0.279695,-0.024122,42,285,582,6224
1644189901.999705,-0.010559,0.008667,-0.991394,0.205588,0.447634,-0.176794,43,274,583,6240
1644189902.048114,-0.007141,0.009583,-0.992432,0.297191,0.432366,-0.115725,46,279,590,6240
1644189902.096599,-0.009766,0.010864,-0.99054,0.327725,0.462901,0.006412,55,279,580,6176
1644189902.144902,-0.009155,0.011536,-0.991394,0.281924,0.417099,-0.192061,57,277,575,6160
1644189902.193293,-0.009949,0.007751,-0.99408,0.281924,0.462901,-0.14626,42,268,582,6224
1644189902.241659,-0.010071,0.009521,-0.989502,0.129252,0.401832,-0.130992,41,279,590,6256
1644189902.29004,-0.010193,0.008667,-0.991394,0.236122,0.432366,-0.069924,45,280,582,6192
1644189902.338443,-0.011963,0.010925,-0.990356,0.098718,0.447634,-0.085191,53,266,587,6256
1644189902.386839,-0.010254,0.010437,-0.992676,0.159786,0.569771,0.021679,49,270,586,6192
1644189902.435239,-0.008911,0.010193,-0.991638,0.327725,0.264427,-0.14626,52,270,586,6224
1644189902.483622,-0.008301,0.008545,-0.992249,0.175053,0.569771,0.006412,46,276,587,6224
1644189902.532004,-0.008789,0.008606,-0.993591,0.251389,0.523969,-0.222595,51,281,583,6240
1644189902.580396,-0.008057,0.009155,-0.989563,0.220855,0.447634,-0.207328,53,288,583,6240
1644189902.628789,-0.009094,0.011414,-0.991028,0.251389,0.508702,-0.192061,54,277,600,6304
1644189902.677655,-0.007385,0.008118,-0.992126,0.220855,0.478168,-0.039389,53,271,576,6224
1644189902.7282,-0.005798,0.009521,-0.995728,0.220855,0.371298,0.052214,55,279,583,6224
1644189902.778358,-0.009033,0.009155,-0.989807,0.327725,0.325496,-0.176794,49,277,584,6224
1644189902.823251,-0.01062,0.008423,-0.99353,0.220855,0.325496,-0.14626,47,273,582,6192
1644189902.919202,-0.010132,0.009155,-0.992981,0.312458,0.462901,-0.054656,42,285,586,6224
1644189902.96758,-0.010376,0.010254,-0.991028,0.266656,0.325496,-0.085191,49,277,579,6224
1644189903.015979,-0.008606,0.008972,-0.991394,0.281924,0.432366,-0.085191,39,269,590,6240
1644189903.069102,-0.01062,0.010071,-0.991943,0.35826,0.340763,-0.039389,49,277,582,6224
1644189903.112778,-0.010559,0.008423,-0.993469,0.220855,0.539237,0.021679,52,280,589,6224
1644189903.161156,-0.011475,0.009521,-0.989929,0.129252,0.508702,-0.14626,49,277,584,6288
1644189903.209524,-0.009216,0.008911,-0.993408,0.419328,0.279695,-0.161527,53,276,585,6240
1644189903.257881,-0.009338,0.008606,-0.994202,0.236122,0.585038,-0.069924,43,279,583,6288
1644189903.306314,-0.011475,0.009888,-0.992737,0.175053,0.371298,-0.085191,52,273,579,6192
1644189903.354726,-0.008606,0.01062,-0.991638,0.327725,0.462901,0.036947,46,279,585,6256
1644189903.403118,-0.009888,0.008667,-0.988464,0.175053,0.294962,-0.069924,46,276,585,6224
1644189903.451484,-0.008667,0.008057,-0.990784,0.220855,0.401832,-0.176794,45,275,582,6288
1644189903.499881,-0.009644,0.006653,-0.991394,0.113985,0.401832,-0.085191,57,275,582,6176
1644189903.548268,-0.009277,0.01062,-0.992249,0.35826,0.401832,-0.115725,47,277,589,6160
1644189903.596644,-0.00769,0.011536,-0.990662,0.098718,0.386565,0.021679,57,282,589,6256
1644189903.645088,-0.009521,0.007263,-0.995422,0.297191,0.478168,-0.100458,48,274,590,6224
1644189903.693449,-0.006958,0.005554,-0.993713,0.342992,0.508702,0.006412,48,279,585,6256
1644189903.74184,-0.008057,0.007385,-0.990295,0.297191,0.417099,-0.14626,45,277,582,6304
1644189903.790231,-0.008667,0.008362,-0.993408,0.251389,0.417099,-0.100458,51,279,583,6256
1644189903.838943,-0.010315,0.008972,-0.994873,0.342992,0.294962,-0.207328,46,281,585,6224
1644189903.889457,-0.008484,0.00946,-0.992065,0.175053,0.447634,-0.192061,46,291,578,6224
1644189903.940472,-0.009338,0.009155,-0.991516,0.266656,0.417099,-0.054656,53,279,583,6288
1644189903.985159,-0.008423,0.009399,-0.989197,0.281924,0.279695,0.021679,46,281,580,6176
1644189904.082055,-0.009399,0.010315,-0.989502,0.08345,0.356031,-0.14626,49,270,582,6224
1644189904.128976,-0.007935,0.009949,-0.992004,0.327725,0.325496,-0.176794,48,274,587,6192
1644189904.177373,-0.011719,0.011414,-0.993591,0.175053,0.432366,-0.039389,36,276,585,6224
1644189904.225765,-0.010803,0.00946,-0.991577,0.281924,0.371298,0.036947,46,283,580,6176
1644189904.274145,-0.006287,0.008667,-0.991577,0.220855,0.340763,-0.161527,52,265,579,6256
1644189904.322576,-0.009705,0.008179,-0.994263,0.373527,0.371298,0.006412,41,262,585,6240
1644189904.370958,-0.007996,0.008606,-0.992188,0.297191,0.401832,-0.008855,49,280,579,6160
1644189904.419349,-0.011475,0.011292,-0.99231,0.312458,0.478168,-0.039389,48,274,576,6224
1644189904.467731,-0.008545,0.007507,-0.992371,0.205588,0.523969,-0.039389,58,279,590,6256
1644189904.516111,-0.007507,0.011047,-0.988342,0.236122,0.340763,-0.14626,54,282,596,6224
1644189904.564543,-0.009644,0.008606,-0.992798,0.220855,0.417099,-0.085191,52,275,577,6160
1644189904.612941,-0.009094,0.007019,-0.992249,0.342992,0.447634,-0.069924,45,277,589,6176
1644189904.661289,-0.007874,0.009705,-0.989502,0.037649,0.356031,-0.115725,54,275,584,6224
1644189904.709708,-0.008362,0.009521,-0.991089,0.342992,0.279695,-0.024122,48,281,583,6224
1644189904.758071,-0.008179,0.010071,-0.991455,0.251389,0.493435,-0.024122,54,273,598,6304
1644189904.806532,-0.006775,0.009399,-0.988953,0.251389,0.401832,-0.176794,46,281,576,6224
1644189904.854906,-0.011963,0.010559,-0.99292,0.297191,0.356031,0.021679,42,273,589,6176
1644189904.903334,-0.006775,0.008423,-0.991272,0.236122,0.386565,0.021679,47,275,579,6240
1644189904.952817,-0.007629,0.011963,-0.992188,0.098718,0.447634,-0.237863,53,281,585,6240
1644189905.003126,-0.009216,0.009338,-0.993286,0.236122,0.340763,-0.069924,53,274,585,6240
1644189905.075493,-0.007324,0.010254,-0.990295,0.144519,0.310229,-0.054656,42,280,586,6240
1644189905.145421,-0.007446,0.008179,-0.991699,0.281924,0.600305,-0.024122,49,275,582,6224
1644189905.193633,-0.006897,0.009094,-0.994019,0.190321,0.356031,-0.161527,53,274,578,6256
1644189905.24203,-0.008057,0.00885,-0.988647,0.205588,0.279695,-0.085191,46,283,576,6224
1644189905.290398,-0.007446,0.00885,-0.994995,0.266656,0.401832,-0.039389,48,269,585,6240
1644189905.338809,-0.007141,0.009216,-0.991821,0.251389,0.462901,-0.100458,42,275,586,6240
1644189905.38719,-0.006958,0.010315,-0.993225,0.266656,0.508702,0.006412,45,280,579,6240
1644189905.435584,-0.011108,0.005981,-0.992798,0.205588,0.386565,-0.100458,55,276,580,6240
1644189905.484435,-0.008484,0.008301,-0.993042,0.297191,0.340763,0.052214,45,275,586,6224
1644189905.532398,-0.011047,0.009766,-0.99231,0.35826,0.294962,0.052214,43,279,594,6224
1644189905.58077,-0.007507,0.00708,-0.992737,0.35826,0.447634,-0.069924,60,274,587,6192
1644189905.629177,-0.009399,0.009888,-0.98999,0.327725,0.386565,0.006412,54,277,586,6224
1644189905.677566,-0.009766,0.00769,-0.990051,0.297191,0.417099,-0.008855,57,270,584,6224
1644189905.725968,-0.009766,0.007568,-0.991211,0.190321,0.615573,-0.14626,48,279,590,6256
1644189905.774355,-0.009583,0.008789,-0.993591,0.159786,0.478168,-0.069924,53,271,580,6240
1644189905.822794,-0.007629,0.00824,-0.993103,0.297191,0.493435,-0.115725,60,274,587,6224
1644189905.871174,-0.00885,0.008301,-0.991821,0.205588,0.340763,-0.115725,54,268,586,6288
1644189905.919564,-0.007446,0.008545,-0.99408,0.220855,0.294962,0.021679,55,271,590,6224
1644189905.968297,-0.010315,0.007874,-0.991821,0.312458,0.432366,-0.054656,55,274,590,6224
1644189906.016363,-0.008972,0.010864,-0.988403,0.129252,0.462901,-0.039389,46,283,580,6176
1644189906.113107,-0.007751,0.009094,-0.992737,0.175053,0.294962,-0.100458,46,283,583,6240
1644189906.161454,-0.007141,0.009155,-0.991638,0.404061,0.554504,-0.085191,48,276,576,6224
1644189906.209857,-0.009888,0.009094,-0.991516,0.35826,0.340763,0.006412,48,281,587,6176
1644189906.258262,-0.011902,0.012207,-0.992432,0.342992,0.478168,-0.039389,47,280,575,6224
1644189906.306662,-0.009277,0.008484,-0.992676,0.236122,0.371298,-0.069924,42,275,582,6224
1644189906.355089,-0.007263,0.010803,-0.990479,0.159786,0.432366,-0.14626,46,266,580,6224
1644189906.403448,-0.006104,0.008362,-0.986877,0.236122,0.325496,-0.100458,41,283,580,6224
1644189906.451849,-0.011353,0.009399,-0.99176,0.251389,0.462901,-0.130992,40,277,572,6240
1644189906.500217,-0.011597,0.008423,-0.992004,0.205588,0.462901,-0.024122,48,279,590,6192
1644189906.548643,-0.007019,0.008118,-0.990967,0.297191,0.356031,-0.207328,54,287,584,6224
1644189906.597034,-0.006531,0.008789,-0.990967,0.266656,0.356031,-0.054656,48,271,583,6256
1644189906.645422,-0.010559,0.009949,-0.992065,0.266656,0.401832,0.021679,48,286,578,6224
1644189906.693828,-0.010742,0.008972,-0.991638,0.129252,0.386565,-0.039389,47,280,584,6240
1644189906.742263,-0.008301,0.006042,-0.993896,0.388794,0.432366,-0.100458,42,277,589,6224
1644189906.790605,-0.009521,0.009338,-0.990417,0.205588,0.508702,-0.130992,52,270,579,6240
1644189906.839002,-0.011108,0.012268,-0.991211,0.251389,0.478168,-0.100458,53,279,590,6240
1644189906.887393,-0.010742,0.008301,-0.993347,0.190321,0.447634,-0.054656,46,274,585,6288
1644189906.935974,-0.010986,0.011292,-0.990967,0.159786,0.432366,0.021679,42,277,584,6256
1644189906.984229,-0.007812,0.006958,-0.992493,0.205588,0.539237,0.036947,48,271,580,6224
1644189907.034104,-0.011841,0.009583,-0.991211,0.388794,0.432366,-0.100458,41,274,592,6256
1644189907.09437,-0.00885,0.009827,-0.990479,0.297191,0.401832,-0.069924,49,275,586,6240
1644189907.134444,-0.007935,0.011963,-0.992432,0.220855,0.417099,-0.039389,58,266,585,6224
1644189907.17844,-0.008972,0.009338,-0.992554,0.327725,0.356031,-0.192061,55,271,578,6192
1644189907.274543,-0.007751,0.007507,-0.994995,0.281924,0.401832,-0.100458,46,281,583,6224
1644189907.322925,-0.00946,0.006653,-0.992676,0.251389,0.371298,-0.100458,47,280,584,6256
1644189907.371304,-0.007324,0.007874,-0.990051,0.342992,0.432366,0.067481,42,277,575,6224
1644189907.419689,-0.010742,0.011353,-0.991272,0.297191,0.371298,0.052214,57,270,586,6192
1644189907.468066,-0.010986,0.008972,-0.994751,0.220855,0.432366,-0.314198,41,269,585,6192
1644189907.516493,-0.009033,0.011169,-0.990356,0.281924,0.417099,-0.039389,48,276,580,6192
1644189907.564866,-0.009216,0.010742,-0.993164,0.266656,0.539237,-0.039389,57,282,586,6240
1644189907.613281,-0.009827,0.009094,-0.993103,0.312458,0.478168,-0.069924,46,266,592,6224
1644189907.661683,-0.01062,0.011169,-0.989319,0.098718,0.325496,-0.130992,52,275,591,6224
1644189907.710047,-0.01062,0.008728,-0.99353,0.251389,0.371298,-0.115725,48,266,580,6192
1644189907.758461,-0.009155,0.009766,-0.99231,0.449863,0.279695,-0.115725,51,274,580,6256
1644189907.80686,-0.00946,0.008667,-0.992981,0.251389,0.417099,-0.069924,54,280,577,6224
1644189907.855285,-0.007202,0.011108,-0.990601,0.08345,0.401832,-0.054656,43,276,576,6224
1644189907.903682,-0.009399,0.009644,-0.991699,0.236122,0.432366,0.052214,52,275,584,6240
1644189907.952063,-0.008789,0.009766,-0.991516,0.251389,0.539237,-0.14626,45,273,582,6192
1644189908.00044,-0.011292,0.008728,-0.993286,0.08345,0.417099,-0.069924,45,285,591,6224
1644189908.067671,-0.008911,0.010498,-0.99115,0.190321,0.462901,-0.024122,53,276,583,6256
1644189908.098987,-0.010803,0.006836,-0.993042,0.251389,0.325496,0.006412,54,273,589,6224
1644189908.14562,-0.008057,0.006714,-0.995239,0.205588,0.279695,-0.115725,51,281,585,6288
1644189908.194081,-0.008606,0.011169,-0.990601,0.251389,0.417099,-0.085191,59,290,584,6176
1644189908.244145,-0.008301,0.010681,-0.991333,0.35826,0.432366,-0.115725,61,277,593,6224
1644189908.294473,-0.007935,0.008972,-0.990173,0.175053,0.417099,-0.008855,45,280,579,6288
1644189908.339565,-0.007385,0.009888,-0.989563,0.373527,0.325496,-0.085191,42,275,582,6192
1644189908.435945,-0.009338,0.00946,-0.99469,0.159786,0.523969,-0.222595,51,281,592,6240
1644189908.484362,-0.012573,0.009888,-0.992676,0.190321,0.371298,-0.100458,52,268,591,6224
1644189908.532777,-0.01001,0.010132,-0.990356,0.251389,0.462901,-0.039389,55,279,580,6224
1644189908.58113,-0.01062,0.009521,-0.989746,0.251389,0.386565,-0.283664,54,282,593,6240
1644189908.629529,-0.010742,0.009399,-0.991943,0.220855,0.356031,-0.024122,40,282,584,6224
1644189908.677924,-0.008179,0.009216,-0.99115,0.068183,0.478168,-0.008855,49,270,589,6240
1644189908.726288,-0.007202,0.009338,-0.991943,0.205588,0.356031,-0.100458,58,274,585,6224
1644189908.77472,-0.010193,0.008911,-0.991577,0.266656,0.386565,-0.115725,47,273,589,6224
1644189908.823125,-0.01178,0.010193,-0.993591,0.159786,0.356031,0.021679,43,276,585,6192
1644189908.871527,-0.007324,0.010254,-0.99231,0.098718,0.63084,-0.222595,46,276,576,6240
1644189908.919923,-0.010925,0.006348,-0.993774,0.373527,0.523969,-0.069924,53,266,580,6288
1644189908.968332,-0.009216,0.00769,-0.993835,0.251389,0.386565,-0.100458,45,280,596,6240
1644189909.016718,-0.011047,0.010681,-0.995117,0.037649,0.401832,-0.115725,52,285,591,6240
1644189909.073958,-0.00946,0.008667,-0.989075,0.068183,0.417099,0.021679,46,279,571,6256
1644189909.113528,-0.010742,0.00946,-0.993103,0.220855,0.401832,-0.039389,49,275,589,6176
1644189909.161862,-0.014648,0.007385,-0.991943,0.342992,0.432366,-0.024122,43,283,578,6256
1644189909.210255,-0.008362,0.008972,-0.99646,0.144519,0.585038,-0.130992,53,262,578,6224
1644189909.258646,-0.008911,0.008484,-0.989502,0.251389,0.340763,-0.130992,47,282,579,6304
1644189909.30732,-0.010315,0.007202,-0.990295,0.068183,0.478168,-0.039389,53,274,580,6224
1644189909.356151,-0.008972,0.01001,-0.993347,0.266656,0.523969,-0.069924,49,285,589,6224
1644189909.406631,-0.008301,0.010193,-0.993591,0.220855,0.325496,-0.054656,43,283,576,6304
1644189909.456746,-0.008545,0.009827,-0.991638,0.113985,0.294962,-0.024122,45,277,589,6240
1644189909.501768,-0.008606,0.006958,-0.991333,0.175053,0.401832,-0.085191,57,275,586,6240
1644189909.597375,-0.007568,0.007507,-0.993713,0.190321,0.340763,-0.008855,41,276,580,6224
1644189909.645774,-0.009705,0.008118,-0.996155,0.251389,0.493435,-0.085191,49,255,586,6256
1644189909.694177,-0.010864,0.010986,-0.992798,0.159786,0.356031,-0.085191,49,263,589,6192
1644189909.742589,-0.009155,0.009033,-0.991577,0.144519,0.24916,-0.14626,52,285,584,6240
1644189909.790962,-0.009644,0.00708,-0.993225,0.266656,0.447634,0.006412,51,279,573,6224
1644189909.83935,-0.009338,0.010498,-0.992004,0.220855,0.462901,-0.008855,59,277,586,6256
1644189909.887788,-0.008179,0.008606,-0.993408,0.205588,0.493435,-0.008855,48,274,580,6240
1644189909.936185,-0.010071,0.009277,-0.993042,0.144519,0.310229,-0.054656,51,281,580,6240
1644189909.984776,-0.009094,0.009583,-0.993103,0.129252,0.417099,-0.237863,47,277,586,6224
1644189910.032979,-0.009399,0.006836,-0.993469,0.342992,0.325496,-0.054656,45,270,582,6240
1644189910.095362,-0.010132,0.01001,-0.991943,0.281924,0.417099,-0.222595,49,280,589,6240
1644189910.129773,-0.008362,0.005127,-0.991211,0.205588,0.523969,0.006412,42,275,589,6192
1644189910.178113,-0.010681,0.010742,-0.992004,0.449863,0.310229,-0.085191,53,279,592,6240
1644189910.226504,-0.01001,0.008423,-0.992493,0.159786,0.432366,-0.054656,55,279,587,6224
1644189910.274963,-0.009338,0.011414,-0.991516,0.159786,0.233893,-0.085191,51,279,585,6224
1644189910.324254,-0.008789,0.011169,-0.99231,0.144519,0.523969,-0.069924,45,273,584,6224
1644189910.374626,-0.010254,0.005859,-0.991699,0.190321,0.447634,-0.130992,49,280,591,6224
1644189910.424906,-0.009399,0.008667,-0.990356,0.281924,0.325496,-0.115725,60,283,580,6240
1644189910.516882,-0.010254,0.01062,-0.990723,0.190321,0.233893,-0.115725,45,282,582,6224
1644189910.5654,-0.010376,0.007996,-0.994385,0.281924,0.233893,-0.008855,45,273,575,6176
1644189910.613652,-0.008362,0.010376,-0.990845,0.190321,0.310229,-0.207328,53,279,585,6224
1644189910.66205,-0.006897,0.009033,-0.990784,0.297191,0.279695,-0.130992,46,283,580,6256
1644189910.710432,-0.008362,0.011902,-0.991943,0.175053,0.462901,-0.115725,52,280,572,6224
1644189910.758814,-0.009949,0.012085,-0.991394,0.175053,0.447634,-0.085191,40,277,582,6224
1644189910.807209,-0.010925,0.011719,-0.991394,0.327725,0.478168,-0.069924,45,282,586,6224
1644189910.855609,-0.009827,0.009521,-0.99292,0.205588,0.310229,-0.085191,47,268,593,6160
1644189910.904057,-0.00885,0.009766,-0.992676,0.35826,0.462901,0.021679,51,276,583,6288
1644189910.952459,-0.008362,0.01001,-0.993774,0.220855,0.462901,-0.069924,49,277,593,6256
1644189911.000816,-0.01178,0.010254,-0.993652,0.220855,0.432366,-0.069924,48,271,578,6240
1644189911.049219,-0.009644,0.011414,-0.993713,0.205588,0.523969,0.006412,39,274,587,6240
1644189911.100128,-0.009827,0.005188,-0.992798,0.144519,0.294962,-0.130992,46,281,592,6224
1644189911.146006,-0.010376,0.010498,-0.990662,0.129252,0.462901,-0.085191,60,274,578,6256
1644189911.194417,-0.006287,0.007507,-0.993835,0.266656,0.371298,-0.115725,45,277,575,6240
1644189911.242778,-0.007324,0.008301,-0.98999,0.281924,0.493435,-0.130992,55,274,594,6288
1644189911.291178,-0.01123,0.01239,-0.993408,0.419328,0.447634,0.021679,42,275,582,6160
1644189911.339701,-0.009399,0.010132,-0.991638,0.236122,0.447634,-0.207328,55,271,578,6192
1644189911.38799,-0.009949,0.010559,-0.991455,0.251389,0.432366,0.021679,51,276,583,6240
1644189911.437931,-0.009888,0.011047,-0.990479,0.144519,0.432366,-0.039389,54,270,579,6224
1644189911.488247,-0.011963,0.00885,-0.991821,0.190321,0.340763,-0.039389,40,277,593,6288
1644189911.538462,-0.010254,0.012207,-0.992798,0.129252,0.294962,-0.130992,38,270,591,6256
1644189911.582766,-0.008789,0.008728,-0.987976,0.144519,0.340763,0.036947,52,277,575,6240
1644189911.678308,-0.006836,0.010254,-0.991943,0.35826,0.279695,-0.069924,36,271,580,6240
1644189911.726721,-0.009338,0.009949,-0.991455,0.220855,0.493435,0.052214,46,281,573,6128
1644189911.775145,-0.007568,0.009338,-0.994019,0.297191,0.447634,-0.176794,47,273,575,6224
1644189911.823509,-0.010193,0.012634,-0.993042,0.190321,0.340763,0.006412,53,271,587,6256
1644189911.871916,-0.009521,0.008911,-0.993774,0.342992,0.417099,0.036947,52,280,582,6240
1644189911.920297,-0.008179,0.009766,-0.994324,0.342992,0.356031,-0.054656,45,285,584,6240
1644189911.968701,-0.007812,0.009644,-0.990112,0.297191,0.462901,-0.222595,46,269,583,6192
1644189912.017079,-0.010254,0.01062,-0.989807,0.281924,0.462901,-0.039389,58,276,585,6192
1644189912.07235,-0.008972,0.010742,-0.993225,0.144519,0.401832,-0.054656,52,273,586,6240
1644189912.113832,-0.011292,0.006592,-0.993469,0.08345,0.386565,0.052214,47,275,589,6192
1644189912.16225,-0.010315,0.010315,-0.992859,0.190321,0.432366,-0.085191,49,273,582,6192
1644189912.210628,-0.013306,0.010254,-0.992981,0.236122,0.539237,0.006412,53,286,587,6176
1644189912.258998,-0.012024,0.012024,-0.992126,0.220855,0.478168,-0.192061,43,271,583,6224
1644189912.307372,-0.009399,0.010193,-0.990601,0.175053,0.371298,-0.115725,52,275,584,6240
1644189912.355793,-0.007019,0.011414,-0.990173,0.266656,0.447634,-0.115725,59,290,584,6192
1644189912.404185,-0.00885,0.009094,-0.991211,0.373527,0.356031,0.036947,45,270,572,6240
1644189912.452607,-0.008545,0.008484,-0.991455,0.266656,0.462901,-0.069924,49,285,577,6240
1644189912.500958,-0.01062,0.006836,-0.992371,0.251389,0.569771,0.036947,46,274,583,6224
1644189912.549633,-0.008545,0.005737,-0.990479,0.113985,0.462901,-0.008855,46,269,592,6256
1644189912.598993,-0.010498,0.006653,-0.994812,0.251389,0.493435,-0.100458,45,275,575,6240
1644189912.649394,-0.008545,0.010498,-0.99292,0.190321,0.401832,-0.085191,57,277,586,6240
1644189912.699697,-0.010132,0.008972,-0.990662,0.312458,0.508702,-0.161527,48,274,587,6240
1644189912.791334,-0.008972,0.011169,-0.992004,0.205588,0.569771,0.021679,46,269,587,6304
1644189912.839746,-0.01062,0.008545,-0.993347,0.251389,0.447634,0.021679,51,269,578,6256
1644189912.888191,-0.009094,0.008057,-0.990662,0.220855,0.493435,-0.069924,48,279,580,6176
1644189912.936547,-0.00647,0.011536,-0.993164,0.342992,0.386565,0.021679,51,276,587,6256
1644189912.984946,-0.009094,0.010193,-0.991394,0.35826,0.371298,-0.207328,46,281,576,6256
1644189913.033346,-0.009583,0.010559,-0.98999,0.342992,0.417099,-0.100458,48,279,580,6224
1644189913.081863,-0.013,0.011047,-0.992126,0.205588,0.462901,-0.176794,48,266,592,6224
1644189913.130031,-0.009583,0.009216,-0.990356,0.159786,0.432366,-0.192061,52,285,582,6224
1644189913.178487,-0.009705,0.008972,-0.990295,0.251389,0.478168,-0.054656,52,277,584,6224
1644189913.226868,-0.008606,0.011047,-0.992554,0.297191,0.554504,-0.176794,58,269,590,6192
1644189913.275272,-0.010864,0.009338,-0.993408,0.266656,0.356031,-0.008855,48,271,578,6192
1644189913.323664,-0.009705,0.007935,-0.993103,0.266656,0.478168,-0.085191,52,270,591,6224
1644189913.372062,-0.009521,0.005249,-0.992126,0.236122,0.401832,-0.237863,51,279,583,6224
1644189913.420439,-0.010132,0.008911,-0.992432,0.327725,0.356031,-0.085191,47,277,579,6192
1644189913.468871,-0.009827,0.009033,-0.990723,0.205588,0.447634,-0.176794,54,280,591,6288
1644189913.517222,-0.008179,0.010559,-0.991516,0.175053,0.417099,-0.008855,51,274,583,6176
1644189913.565622,-0.008728,0.008179,-0.99292,0.113985,0.493435,-0.024122,46,281,580,6176
1644189913.614019,-0.009033,0.007751,-0.990112,0.037649,0.447634,-0.237863,42,268,579,6176
1644189913.662437,-0.010559,0.007263,-0.994141,0.312458,0.432366,-0.115725,60,259,585,6256
1644189913.711332,-0.007141,0.011475,-0.991699,0.205588,0.523969,-0.207328,43,274,580,6256
1644189913.761853,-0.006348,0.008972,-0.991394,0.098718,0.462901,-0.283664,52,280,577,6256
1644189913.813003,-0.006348,0.009399,-0.991455,0.113985,0.462901,-0.115725,52,273,584,6256
1644189913.8578,-0.009583,0.009094,-0.992676,0.251389,0.401832,-0.176794,42,270,577,6176
1644189913.952823,-0.009888,0.008484,-0.992676,0.35826,0.417099,-0.161527,46,276,580,6240
1644189914.001192,-0.009338,0.008789,-0.99292,0.052916,0.401832,-0.069924,53,269,585,6240
1644189914.060556,-0.012024,0.009644,-0.991211,0.312458,0.310229,-0.008855,53,266,585,6240
1644189914.098079,-0.009094,0.004456,-0.992615,0.144519,0.325496,0.021679,45,285,582,6240
1644189914.146328,-0.011047,0.010071,-0.993408,0.159786,0.340763,-0.024122,47,275,579,6256
1644189914.194764,-0.009094,0.006775,-0.991211,0.129252,0.310229,-0.176794,45,280,589,6240
1644189914.243099,-0.008789,0.01001,-0.993042,0.35826,0.386565,-0.14626,53,271,592,6240
1644189914.291484,-0.008911,0.010193,-0.989929,0.098718,0.294962,-0.222595,53,279,580,6240
1644189914.339909,-0.010132,0.006592,-0.990051,0.236122,0.478168,-0.100458,43,283,587,6224
1644189914.388299,-0.009766,0.008179,-0.991882,0.205588,0.478168,-0.115725,55,266,592,6240
1644189914.436698,-0.011108,0.009583,-0.994629,0.175053,0.493435,0.052214,52,273,586,6224
1644189914.485121,-0.010681,0.009155,-0.994995,0.251389,0.371298,-0.176794,54,275,579,6240
1644189914.533518,-0.011597,0.01001,-0.991028,0.281924,0.386565,-0.237863,53,283,576,6160
1644189914.583661,-0.008423,0.006592,-0.992126,-0.099756,0.493435,-0.192061,48,283,585,6256
1644189914.633996,-0.009521,0.008545,-0.990051,0.205588,0.325496,0.006412,49,273,576,6224
1644189914.679189,-0.011475,0.009766,-0.991516,0.175053,0.417099,-0.085191,41,281,580,6128
1644189914.775431,-0.009521,0.011108,-0.989868,0.266656,0.371298,0.036947,60,274,587,6224
1644189914.823852,-0.009583,0.011169,-0.993164,0.205588,0.417099,-0.085191,49,285,582,6192
1644189914.872426,-0.009888,0.009399,-0.992004,0.35826,0.356031,0.113282,54,282,582,6224
1644189914.920657,-0.011108,0.010864,-0.994263,0.266656,0.356031,-0.085191,52,280,579,6240
1644189914.969046,-0.012451,0.009094,-0.992065,0.266656,0.417099,-0.069924,46,274,594,6192
1644189915.017454,-0.01062,0.00885,-0.990845,0.35826,0.340763,0.098015,49,268,579,6304
1644189915.067107,-0.009827,0.009644,-0.991272,0.220855,0.432366,-0.161527,55,276,594,6240
1644189915.114228,-0.009216,0.006042,-0.991516,0.281924,0.401832,-0.054656,39,279,587,6240
1644189915.162608,-0.007935,0.01001,-0.989075,0.297191,0.432366,-0.069924,48,271,587,6240
1644189915.210964,-0.009216,0.009644,-0.993225,0.281924,0.432366,-0.130992,43,279,578,6192
1644189915.259365,-0.009155,0.010376,-0.991699,0.297191,0.447634,-0.176794,55,274,592,6192
1644189915.307742,-0.010376,0.008179,-0.990662,0.159786,0.401832,-0.008855,62,279,587,6224
1644189915.356137,-0.010132,0.010498,-0.990662,0.297191,0.508702,-0.14626,51,264,590,6240
1644189915.404667,-0.007751,0.008545,-0.992798,0.08345,0.386565,0.006412,38,273,586,6256
1644189915.452936,-0.010437,0.01062,-0.991028,0.312458,0.340763,0.036947,45,263,582,6240
1644189915.501315,-0.008972,0.010254,-0.99115,0.281924,0.462901,-0.161527,54,277,591,6224
1644189915.549745,-0.008362,0.007812,-0.989136,0.129252,0.478168,-0.039389,48,266,587,6176
1644189915.598129,-0.008606,0.009033,-0.992798,0.404061,0.371298,-0.008855,45,277,582,6224
1644189915.646494,-0.007019,0.013062,-0.992432,0.236122,0.478168,0.12855,45,275,591,6192
1644189915.695152,-0.009399,0.008118,-0.98999,0.297191,0.279695,-0.25313,53,274,592,6192
1644189915.745572,-0.005005,0.006897,-0.991089,0.175053,0.478168,-0.115725,54,285,589,6240
1644189915.795946,-0.007324,0.008118,-0.992432,0.281924,0.233893,-0.039389,58,279,583,6160
1644189915.840859,-0.006042,0.009338,-0.992126,0.251389,0.371298,-0.100458,42,273,575,6256
1644189915.936898,-0.005859,0.009033,-0.991089,0.113985,0.325496,0.006412,55,271,590,6192
1644189915.985449,-0.009216,0.009583,-0.992249,0.08345,0.417099,-0.192061,48,274,597,6224
1644189916.033703,-0.008118,0.010498,-0.991394,0.113985,0.356031,-0.008855,53,271,583,6192
1644189916.082295,-0.007812,0.010376,-0.996338,0.022382,0.462901,-0.024122,43,269,585,6256
1644189916.130482,-0.007935,0.009094,-0.99292,0.205588,0.233893,-0.085191,48,266,580,6160
1644189916.178832,-0.011414,0.009583,-0.993469,0.220855,0.432366,-0.14626,54,277,586,6256
1644189916.227228,-0.007446,0.006958,-0.992798,0.327725,0.340763,-0.115725,58,271,576,6224
1644189916.275619,-0.01123,0.007812,-0.992676,0.144519,0.462901,-0.024122,46,276,585,6224
1644189916.324021,-0.006592,0.008972,-0.989868,0.312458,0.340763,-0.115725,45,280,579,6176
1644189916.372434,-0.010803,0.011353,-0.993103,0.281924,0.401832,0.067481,46,266,585,6224
1644189916.420809,-0.009583,0.00885,-0.99054,0.373527,0.462901,-0.283664,36,279,583,6176
1644189916.469213,-0.012207,0.008362,-0.990967,0.175053,0.432366,-0.054656,60,281,590,6176
1644189916.517591,-0.010193,0.009155,-0.990845,0.052916,0.371298,-0.085191,43,276,573,6256
1644189916.565985,-0.008179,0.009338,-0.991943,0.159786,0.356031,0.006412,43,279,583,6240
1644189916.614379,-0.008667,0.006714,-0.988892,0.144519,0.401832,0.082748,53,286,583,6224
1644189916.662779,-0.011841,0.007935,-0.992859,0.129252,0.447634,-0.069924,41,279,590,6304
1644189916.711154,-0.009583,0.00885,-0.991943,0.297191,0.371298,-0.14626,51,271,585,6256
1644189916.759552,-0.008667,0.008606,-0.991699,0.236122,0.462901,-0.085191,49,280,584,6240
1644189916.807953,-0.006409,0.009277,-0.990234,0.175053,0.462901,0.006412,47,282,589,6240
1644189916.857372,-0.012268,0.007202,-0.994812,0.098718,0.264427,-0.085191,49,273,586,6224
1644189916.907943,-0.009521,0.008301,-0.993591,0.236122,0.447634,-0.085191,40,275,582,6224
1644189916.958196,-0.010193,0.009705,-0.990967,0.266656,0.478168,-0.25313,52,277,579,6192
1644189917.002707,-0.010559,0.008667,-0.991699,0.190321,0.356031,-0.039389,46,276,585,6224
1644189917.09842,-0.011475,0.011963,-0.992798,0.297191,0.340763,-0.085191,52,273,591,6224
1644189917.14672,-0.010498,0.008484,-0.99585,0.327725,0.432366,-0.115725,49,273,579,6288
1644189917.195129,-0.00946,0.008118,-0.992493,0.281924,0.493435,-0.161527,62,283,583,6224
1644189917.243495,-0.007935,0.012268,-0.99176,0.297191,0.325496,-0.192061,57,270,586,6336
1644189917.291885,-0.007324,0.011353,-0.992554,0.35826,0.340763,0.052214,57,277,591,6192
1644189917.340275,-0.008911,0.007996,-0.989868,0.297191,0.310229,-0.14626,48,266,590,6240
1644189917.388674,-0.007996,0.008545,-0.993347,0.220855,0.386565,-0.069924,49,287,572,6240
1644189917.437068,-0.007874,0.007263,-0.991333,0.129252,0.401832,-0.024122,47,275,589,6240
1644189917.485444,-0.006104,0.009338,-0.989258,0.342992,0.356031,-0.130992,49,275,589,6224
1644189917.533855,-0.00769,0.010376,-0.993103,0.159786,0.386565,-0.085191,45,270,575,6224
1644189917.582253,-0.008911,0.00885,-0.992432,0.266656,0.462901,-0.176794,52,280,589,6256
1644189917.63063,-0.010925,0.007935,-0.990662,0.205588,0.325496,-0.069924,43,274,587,6224
1644189917.679029,-0.008301,0.011108,-0.994446,0.190321,0.523969,-0.085191,47,280,584,6224
1644189917.727418,-0.010315,0.010803,-0.991577,0.098718,0.462901,0.006412,55,274,583,6256
1644189917.775807,-0.008911,0.009277,-0.991577,0.144519,0.447634,-0.069924,48,264,587,6224
1644189917.824206,-0.01123,0.008789,-0.993835,0.266656,0.523969,-0.024122,46,281,585,6192
1644189917.87266,-0.009949,0.007202,-0.989685,0.190321,0.417099,-0.100458,46,274,578,6256
1644189917.921052,-0.01062,0.008545,-0.994812,0.342992,0.294962,-0.069924,39,262,587,6224
1644189917.969966,-0.007019,0.006836,-0.992615,0.175053,0.417099,-0.14626,53,271,585,6224
1644189918.020432,-0.006775,0.008057,-0.992371,0.449863,0.371298,-0.100458,58,271,583,6192
1644189918.114635,-0.006775,0.011841,-0.98877,0.297191,0.569771,-0.100458,41,274,583,6192
1644189918.162992,-0.011353,0.010437,-0.99231,0.159786,0.356031,-0.008855,48,281,571,6288
1644189918.211356,-0.010193,0.00708,-0.988892,0.098718,0.447634,0.067481,54,275,575,6192
1644189918.259722,-0.009949,0.006165,-0.994141,0.190321,0.478168,-0.176794,47,277,589,6224
1644189918.308141,-0.007996,0.008972,-0.991272,0.175053,0.386565,-0.283664,60,274,585,6176
1644189918.35653,-0.00946,0.009583,-0.991516,0.236122,0.371298,0.021679,51,276,587,6224
1644189918.404919,-0.009155,0.010498,-0.992004,0.373527,0.508702,-0.024122,54,280,586,6240
1644189918.453325,-0.007568,0.010254,-0.991638,0.327725,0.447634,-0.069924,53,281,583,6224
1644189918.501692,-0.008057,0.012207,-0.991943,0.220855,0.493435,-0.115725,45,282,596,6224
1644189918.550102,-0.00647,0.010376,-0.99176,0.113985,0.417099,-0.054656,53,281,580,6256
1644189918.59849,-0.008301,0.009094,-0.990234,0.144519,0.569771,-0.192061,51,274,580,6256
1644189918.646931,-0.007263,0.012085,-0.992676,0.159786,0.401832,-0.237863,47,275,589,6240
1644189918.695294,-0.00824,0.009155,-0.991821,0.297191,0.432366,-0.161527,49,275,577,6224
1644189918.743682,-0.007935,0.010071,-0.993164,0.159786,0.539237,-0.069924,54,270,589,6256
1644189918.792048,-0.010193,0.00946,-0.992249,0.052916,0.462901,-0.207328,52,273,584,6240
1644189918.840465,-0.009277,0.009827,-0.991821,0.159786,0.569771,-0.039389,49,282,589,6240
1644189918.888892,-0.009338,0.009521,-0.990723,0.236122,0.340763,-0.176794,42,275,593,6224
1644189918.937289,-0.010193,0.01123,-0.991699,0.236122,0.493435,-0.069924,48,274,580,6192
1644189918.985713,-0.00885,0.008667,-0.992859,0.175053,0.325496,-0.085191,45,273,586,6240
1644189919.035215,-0.009277,0.010437,-0.991211,0.098718,0.386565,-0.008855,48,266,576,6176
1644189919.094791,-0.012085,0.01062,-0.989807,0.159786,0.401832,-0.268397,52,275,584,6240
1644189919.135081,-0.008545,0.009094,-0.990295,0.236122,0.371298,0.006412,61,277,589,6176
1644189919.180053,-0.010315,0.009521,-0.992981,0.022382,0.462901,-0.069924,52,275,593,6288
1644189919.275979,-0.008118,0.011108,-0.993164,0.236122,0.401832,-0.069924,58,274,580,6256
1644189919.324415,-0.008606,0.008484,-0.992615,0.373527,0.523969,-0.039389,59,280,586,6240
1644189919.372789,-0.009827,0.011108,-0.990723,0.175053,0.447634,-0.039389,51,279,592,6288
1644189919.421175,-0.00885,0.007141,-0.992188,0.312458,0.386565,-0.207328,49,290,579,6224
1644189919.469554,-0.008728,0.010254,-0.991577,0.251389,0.417099,-0.039389,53,271,578,6176
1644189919.517972,-0.008911,0.009399,-0.992554,0.113985,0.523969,-0.085191,49,277,582,6240
1644189919.566344,-0.006897,0.010498,-0.991089,0.175053,0.264427,-0.054656,52,280,584,6224
1644189919.614757,-0.007324,0.010071,-0.990112,0.129252,0.432366,0.174351,43,279,578,6304
1644189919.663151,-0.008423,0.01178,-0.989319,0.297191,0.508702,-0.024122,42,275,596,6192
1644189919.711543,-0.007324,0.010071,-0.992432,0.35826,0.279695,-0.039389,43,271,583,6240
1644189919.759931,-0.008728,0.009888,-0.990906,0.236122,0.432366,-0.100458,52,273,586,6256
1644189919.808339,-0.010437,0.006714,-0.992554,0.312458,0.340763,0.021679,51,283,578,6192
1644189919.856716,-0.007996,0.008545,-0.991272,0.35826,0.310229,0.036947,45,273,582,6240
1644189919.905182,-0.007751,0.011658,-0.991943,0.220855,0.386565,-0.207328,46,276,583,6176
1644189919.953521,-0.009033,0.009521,-0.992249,0.190321,0.478168,0.006412,51,281,583,6224
1644189920.001905,-0.011719,0.008057,-0.991638,0.297191,0.417099,-0.008855,51,281,583,6288
1644189920.061051,-0.00708,0.00824,-0.990784,0.419328,0.462901,-0.054656,49,287,586,6288
1644189920.104352,-0.007202,0.007141,-0.989319,0.327725,0.63084,-0.069924,58,274,587,6224
1644189920.147045,-0.011047,0.008972,-0.993103,0.175053,0.417099,-0.024122,46,279,578,6176
1644189920.195628,-0.009766,0.008789,-0.9953,0.098718,0.462901,-0.115725,43,271,587,6240
1644189920.246129,-0.007507,0.010071,-0.988953,0.342992,0.417099,-0.008855,46,276,580,6176
1644189920.296297,-0.008118,0.009033,-0.993225,0.327725,0.340763,0.113282,48,266,578,6192
1644189920.341319,-0.009644,0.007751,-0.992188,0.175053,0.493435,0.036947,54,273,572,6240
1644189920.43742,-0.008179,0.006531,-0.992676,0.205588,0.478168,-0.100458,47,275,586,6256
1644189920.485799,-0.008484,0.010681,-0.992554,0.327725,0.432366,-0.024122,52,268,582,6240
1644189920.534219,-0.007751,0.011902,-0.992615,0.281924,0.554504,-0.085191,43,276,583,6160
1644189920.582613,-0.007874,0.00946,-0.994019,0.297191,0.417099,-0.024122,55,281,583,6240
1644189920.630995,-0.008179,0.011353,-0.991882,0.08345,0.233893,-0.161527,45,273,577,6256
1644189920.679391,-0.007629,0.010254,-0.991394,0.297191,0.447634,-0.054656,46,283,578,6176
1644189920.727788,-0.009216,0.009338,-0.991638,0.236122,0.371298,-0.054656,46,266,583,6240
1644189920.776177,-0.009888,0.007568,-0.988892,0.266656,0.447634,0.067481,40,282,579,6224
1644189920.824772,-0.008972,0.009521,-0.993958,0.190321,0.478168,-0.130992,54,280,586,6240
1644189920.873018,-0.01123,0.010376,-0.993408,0.144519,0.493435,-0.085191,46,279,590,6256
1644189920.921407,-0.009583,0.008301,-0.989929,0.175053,0.325496,-0.115725,54,275,584,6288
1644189920.96979,-0.008362,0.009888,-0.993042,0.266656,0.325496,-0.314198,51,269,580,6224
1644189921.018192,-0.00769,0.010132,-0.993835,0.159786,0.386565,0.006412,59,270,589,6192
1644189921.080409,-0.011047,0.010254,-0.994385,0.098718,0.417099,-0.054656,60,274,583,6256
1644189921.11571,-0.008118,0.009399,-0.993347,0.190321,0.325496,0.021679,49,265,584,6240
1644189921.163324,-0.010071,0.010132,-0.990234,0.266656,0.554504,-0.14626,51,262,587,6224
1644189921.211711,-0.009399,0.005859,-0.991882,0.220855,0.432366,-0.115725,49,273,591,6240
1644189921.260136,-0.007324,0.00946,-0.99292,0.342992,0.325496,-0.085191,47,280,582,6192
1644189921.310004,-0.009949,0.011292,-0.991516,0.08345,0.340763,-0.085191,47,268,586,6192
1644189921.360098,-0.010254,0.010132,-0.994324,0.251389,0.447634,-0.207328,57,275,593,6256
1644189921.410318,-0.007935,0.00769,-0.988708,0.113985,0.478168,-0.085191,54,268,591,6240
1644189921.502389,-0.00885,0.00531,-0.991577,0.373527,0.462901,-0.024122,58,269,585,6176
1644189921.550456,-0.011536,0.009705,-0.990845,0.449863,0.218626,-0.039389,43,276,576,6224
1644189921.59884,-0.010376,0.010437,-0.990845,0.388794,0.371298,0.021679,54,270,579,6224
1644189921.647253,-0.01062,0.007202,-0.993042,0.144519,0.401832,-0.024122,48,274,573,6240
1644189921.695636,-0.010986,0.008728,-0.990295,0.297191,0.417099,0.021679,47,285,589,6224
1644189921.744034,-0.008667,0.00885,-0.993225,0.388794,0.371298,-0.024122,49,268,579,6192
1644189921.792448,-0.009033,0.009094,-0.993774,0.220855,0.233893,0.036947,43,279,585,6224
1644189921.840848,-0.005859,0.01123,-0.990112,0.251389,0.493435,-0.069924,60,269,587,6224
1644189921.889266,-0.007812,0.010132,-0.992188,0.037649,0.447634,-0.115725,46,274,583,6256
1644189921.937658,-0.007324,0.007751,-0.989197,0.312458,0.554504,-0.130992,42,275,575,6256
1644189921.986024,-0.009644,0.008667,-0.990906,0.251389,0.310229,-0.176794,55,274,578,6192
1644189922.034456,-0.010803,0.012329,-0.993225,0.297191,0.508702,-0.115725,47,282,584,6224
1644189922.095424,-0.009644,0.010376,-0.99054,0.281924,0.432366,-0.039389,54,275,586,6224
1644189922.131166,-0.008484,0.009277,-0.991211,0.159786,0.447634,-0.161527,52,277,589,6240
1644189922.179573,-0.00824,0.011597,-0.99115,0.236122,0.417099,-0.085191,45,287,584,6240
1644189922.227979,-0.009888,0.00824,-0.992065,0.281924,0.356031,-0.069924,53,276,583,6256
1644189922.276861,-0.009766,0.009338,-0.993896,0.098718,0.386565,-0.25313,49,277,579,6192
1644189922.327476,-0.008179,0.010498,-0.992065,0.220855,0.371298,-0.14626,53,266,585,6304
1644189922.377661,-0.006226,0.007874,-0.990295,0.190321,0.478168,-0.176794,48,276,580,6224
1644189922.422548,-0.010742,0.006653,-0.989746,0.144519,0.646107,-0.024122,52,280,582,6224
1644189922.518305,-0.00946,0.008057,-0.992432,0.159786,0.325496,-0.100458,53,281,587,6240
1644189922.566694,-0.006165,0.008301,-0.990723,0.266656,0.417099,-0.130992,49,290,575,6224
1644189922.615344,-0.00946,0.00769,-0.9953,0.144519,0.585038,-0.054656,53,283,583,6304
1644189922.663508,-0.00946,0.008728,-0.992981,0.175053,0.417099,-0.085191,41,281,592,6224
1644189922.711901,-0.008118,0.008362,-0.994446,0.281924,0.386565,-0.100458,54,270,579,6192
1644189922.760274,-0.007751,0.010254,-0.992554,0.159786,0.417099,0.036947,58,264,585,6224
1644189922.808683,-0.006897,0.006042,-0.991821,0.266656,0.447634,0.052214,57,277,584,6240
1644189922.857092,-0.01001,0.009216,-0.992859,0.08345,0.478168,0.113282,54,277,582,6160
1644189922.905511,-0.009521,0.008484,-0.9953,0.251389,0.325496,-0.115725,54,275,589,6256
1644189922.953917,-0.007263,0.013489,-0.993103,0.327725,0.493435,-0.237863,52,275,589,6176
1644189923.00235,-0.008667,0.009644,-0.991516,0.480397,0.478168,0.021679,49,275,589,6224
1644189923.05068,-0.008789,0.010132,-0.993042,0.159786,0.279695,-0.176794,53,276,580,6240
1644189923.10314,-0.008606,0.010315,-0.992126,0.312458,0.401832,-0.054656,48,274,590,6240
1644189923.147454,-0.010498,0.006958,-0.991028,0.144519,0.417099,-0.069924,51,276,573,6224
1644189923.195836,-0.008728,0.00885,-0.989929,0.205588,0.508702,-0.115725,53,283,583,6224
1644189923.244223,-0.007996,0.009277,-0.990967,0.190321,0.447634,-0.176794,53,276,599,6224
1644189923.292621,-0.008728,0.008423,-0.991699,0.098718,0.386565,-0.008855,36,288,587,6192
1644189923.341011,-0.007446,0.009155,-0.991455,0.175053,0.356031,-0.100458,46,283,578,6224
1644189923.389412,-0.006775,0.009277,-0.993774,0.281924,0.401832,-0.14626,42,277,596,6192
1644189923.437848,-0.013184,0.009583,-0.992004,0.281924,0.294962,-0.161527,38,265,589,6224
1644189923.488184,-0.008057,0.010925,-0.993286,0.175053,0.279695,0.174351,51,286,583,6240
1644189923.538563,-0.008118,0.01355,-0.99292,0.159786,0.401832,-0.054656,51,276,585,6256
1644189923.583476,-0.008667,0.010803,-0.990845,0.236122,0.493435,-0.039389,61,277,586,6192
1644189923.679761,-0.008179,0.010193,-0.994873,0.404061,0.279695,0.021679,54,282,589,6224
1644189923.728137,-0.010132,0.01001,-0.990601,0.312458,0.24916,-0.054656,53,259,587,6192
1644189923.776535,-0.010315,0.007996,-0.992554,0.190321,0.462901,0.098015,54,273,593,6176
1644189923.825192,-0.009216,0.009399,-0.992859,0.312458,0.401832,-0.100458,47,273,586,6256
1644189923.873374,-0.00708,0.009644,-0.993042,0.220855,0.508702,-0.008855,45,275,584,6224
1644189923.921766,-0.007202,0.009521,-0.992371,0.251389,0.417099,-0.14626,46,279,576,6256
1644189923.970149,-0.008301,0.008667,-0.993225,0.236122,0.310229,-0.085191,53,279,587,6224
1644189924.018545,-0.009644,0.009521,-0.991089,0.159786,0.356031,-0.130992,47,275,593,6224
1644189924.070139,-0.009766,0.01178,-0.991516,0.068183,0.356031,0.021679,47,280,596,6240
1644189924.11532,-0.008606,0.012329,-0.992065,0.175053,0.417099,0.021679,54,273,579,6256
1644189924.163708,-0.010986,0.010193,-0.992798,0.129252,0.356031,-0.130992,53,279,594,6176
1644189924.212204,-0.007568,0.009583,-0.991211,0.251389,0.432366,-0.054656,38,285,591,6192
1644189924.26046,-0.006714,0.00824,-0.990906,0.175053,0.325496,-0.054656,39,279,597,6224
1644189924.308869,-0.009338,0.009094,-0.993591,0.190321,0.401832,-0.085191,51,274,587,6224
1644189924.357261,-0.009644,0.011108,-0.993835,0.220855,0.432366,-0.375267,51,279,578,6288
1644189924.405668,-0.007446,0.009949,-0.99292,0.251389,0.478168,-0.390534,49,268,589,6288
1644189924.454047,-0.008545,0.008545,-0.990601,0.297191,0.569771,-0.008855,45,282,589,6256
1644189924.50242,-0.008118,0.008911,-0.990051,0.113985,0.386565,-0.069924,49,280,593,6192
1644189924.550823,-0.008301,0.009033,-0.990295,0.342992,0.386565,-0.024122,48,276,590,6256
1644189924.599559,-0.009033,0.011414,-0.99115,0.205588,0.386565,-0.039389,46,271,580,6224
1644189924.649963,-0.008179,0.010132,-0.991394,0.129252,0.447634,-0.130992,48,271,580,6128
1644189924.700667,-0.008667,0.008789,-0.99115,0.342992,0.417099,0.006412,45,280,579,6224
1644189924.745305,-0.010193,0.008118,-0.991028,0.190321,0.386565,-0.161527,49,268,591,6224
1644189924.841194,-0.012207,0.008118,-0.993652,0.220855,0.340763,-0.085191,59,273,582,6224
1644189924.889618,-0.012939,0.007935,-0.991943,0.373527,0.356031,-0.085191,55,276,587,6240
1644189924.938007,-0.009705,0.006348,-0.989563,0.175053,0.478168,-0.085191,49,280,575,6240
1644189924.98639,-0.007263,0.005249,-0.991699,0.175053,0.417099,0.036947,47,275,579,6192
1644189925.034807,-0.01062,0.009277,-0.99585,0.266656,0.432366,-0.085191,47,275,579,6176
1644189925.083217,-0.010437,0.005676,-0.989685,0.312458,0.325496,-0.039389,41,281,585,6240
1644189925.131595,-0.007507,0.006104,-0.993469,0.220855,0.478168,-0.14626,52,273,577,6240
1644189925.179955,-0.009705,0.010681,-0.99231,0.297191,0.340763,-0.14626,60,271,587,6128
1644189925.228343,-0.007935,0.008057,-0.992554,0.175053,0.417099,-0.039389,52,275,589,6224
1644189925.276702,-0.007996,0.009583,-0.992676,0.190321,0.401832,-0.085191,53,274,587,6240
1644189925.325212,-0.008667,0.009521,-0.99292,0.281924,0.585038,-0.115725,45,280,579,6304
1644189925.373527,-0.010498,0.008362,-0.991821,0.342992,0.462901,-0.130992,55,271,585,6288
1644189925.421883,-0.005798,0.00946,-0.992981,0.129252,0.294962,-0.008855,47,280,584,6240
1644189925.470298,-0.009216,0.01123,-0.99353,0.129252,0.386565,-0.069924,49,282,582,6224
1644189925.518691,-0.01001,0.008667,-0.993164,0.297191,0.508702,-0.237863,49,275,582,6192
1644189925.567056,-0.009094,0.008545,-0.992432,0.236122,0.508702,-0.054656,49,277,586,6240
1644189925.61548,-0.007324,0.00885,-0.99292,0.266656,0.340763,-0.130992,53,276,594,6176
1644189925.663874,-0.006226,0.007996,-0.992249,0.281924,0.432366,-0.222595,53,271,585,6256
1644189925.71234,-0.009033,0.005859,-0.992859,0.190321,0.386565,-0.039389,52,285,593,6176
1644189925.761181,-0.009888,0.009705,-0.990723,0.205588,0.478168,-0.176794,54,277,582,6240
1644189925.811723,-0.011292,0.010925,-0.99292,0.220855,0.478168,0.036947,46,276,580,6224
1644189925.861805,-0.009888,0.009644,-0.992249,0.220855,0.417099,0.067481,49,277,589,6224
1644189925.907253,-0.009338,0.007446,-0.992615,0.312458,0.417099,-0.069924,55,274,578,6304
1644189926.002676,-0.00946,0.012085,-0.989868,0.281924,0.294962,-0.14626,40,277,575,6192
1644189926.063962,-0.005798,0.009155,-0.990784,0.236122,0.356031,-0.069924,48,291,587,6240
1644189926.101094,-0.01001,0.00885,-0.994019,0.251389,0.432366,-0.024122,48,283,594,6256
1644189926.147809,-0.008301,0.006409,-0.994507,0.098718,0.417099,-0.176794,45,275,584,6240
1644189926.196203,-0.007996,0.010498,-0.993408,0.220855,0.401832,-0.130992,45,270,582,6256
1644189926.244882,-0.008911,0.007385,-0.993103,0.068183,0.523969,-0.14626,42,280,589,6256
1644189926.292975,-0.010376,0.011047,-0.994446,0.35826,0.310229,-0.115725,55,276,587,6256
1644189926.341375,-0.008179,0.010132,-0.992004,0.175053,0.539237,-0.207328,52,275,579,6192
1644189926.389759,-0.011292,0.007263,-0.991272,0.373527,0.233893,-0.115725,52,270,586,6224
1644189926.438132,-0.012085,0.008118,-0.993652,0.342992,0.294962,-0.100458,40,273,586,6224
1644189926.486549,-0.008545,0.009644,-0.993652,0.312458,0.478168,-0.115725,53,286,587,6224
1644189926.534996,-0.007324,0.010803,-0.991394,0.312458,0.539237,-0.176794,52,282,577,6256
1644189926.583328,-0.013,0.010681,-0.99231,0.342992,0.386565,-0.283664,58,271,594,6256
1644189926.6319,-0.008423,0.010864,-0.990784,0.251389,0.462901,0.036947,51,281,594,6176
1644189926.681255,-0.010193,0.008911,-0.99353,0.159786,0.447634,-0.100458,47,287,591,6224
1644189926.731649,-0.00946,0.006592,-0.994202,0.236122,0.646107,-0.176794,46,274,587,6240
1644189926.781888,-0.008423,0.007202,-0.992249,0.220855,0.294962,-0.14626,49,270,596,6240
1644189926.873776,-0.010559,0.008667,-0.993469,0.434595,0.539237,0.036947,53,274,594,6224
1644189926.922412,-0.007568,0.009949,-0.99115,0.35826,0.356031,-0.176794,40,275,582,6224
1644189926.97051,-0.009766,0.010437,-0.990356,0.144519,0.294962,-0.14626,41,271,583,6224
1644189927.018919,-0.010193,0.01062,-0.991516,0.159786,0.356031,0.052214,58,274,587,6224
1644189927.067819,-0.010498,0.006104,-0.992432,0.312458,0.493435,-0.069924,58,274,580,6240
1644189927.115631,-0.007446,0.012695,-0.990295,0.205588,0.447634,-0.008855,52,275,584,6240
1644189927.164063,-0.010071,0.007629,-0.993774,0.205588,0.386565,-0.115725,45,265,584,6224
1644189927.212457,-0.007935,0.008362,-0.992798,0.312458,0.371298,-0.115725,46,279,583,6224
1644189927.260853,-0.005676,0.013123,-0.991638,0.388794,0.569771,-0.069924,46,276,592,6128
1644189927.309211,-0.01062,0.010071,-0.993286,0.266656,0.508702,-0.161527,43,281,580,6240
1644189927.35763,-0.010254,0.009949,-0.992065,0.205588,0.432366,-0.008855,53,293,583,6224
1644189927.405994,-0.009705,0.008728,-0.992676,0.205588,0.417099,-0.115725,47,277,591,6256
1644189927.454424,-0.011841,0.008606,-0.993042,0.373527,0.493435,-0.069924,51,271,585,6240
1644189927.502798,-0.005615,0.009521,-0.993713,0.266656,0.508702,0.052214,48,276,576,6192
1644189927.551204,-0.008728,0.010742,-0.992249,0.098718,0.386565,-0.054656,49,285,579,6224
1644189927.599593,-0.010315,0.009827,-0.991577,0.159786,0.218626,-0.085191,54,273,575,6224
1644189927.647987,-0.006897,0.011108,-0.992432,0.35826,0.386565,-0.054656,51,276,594,6192
1644189927.696373,-0.007568,0.009094,-0.989685,0.113985,0.432366,-0.069924,51,266,590,6224
1644189927.744779,-0.009521,0.008301,-0.992981,0.251389,0.325496,-0.024122,61,275,593,6224
1644189927.794782,-0.008484,0.008911,-0.994446,0.220855,0.279695,-0.054656,52,275,586,6192
1644189927.844846,-0.009949,0.009399,-0.993347,0.373527,0.264427,-0.024122,51,274,576,6224
1644189927.894912,-0.009155,0.00885,-0.993286,0.220855,0.371298,-0.100458,52,287,584,6256
1644189927.939537,-0.010925,0.006775,-0.99231,0.373527,0.478168,0.036947,47,273,582,6224
1644189928.035407,-0.008972,0.010986,-0.992859,0.159786,0.340763,-0.054656,45,285,586,6224
1644189928.083643,-0.009338,0.009827,-0.993469,0.129252,0.279695,-0.130992,57,282,582,6192
1644189928.13219,-0.01001,0.010681,-0.989929,0.281924,0.325496,-0.100458,51,274,590,6240
1644189928.180384,-0.01001,0.009399,-0.994751,0.098718,0.371298,-0.222595,48,286,580,6240
1644189928.228713,-0.010559,0.008606,-0.990845,0.327725,0.432366,-0.14626,48,279,587,6256
1644189928.277078,-0.01062,0.010437,-0.989624,0.220855,0.462901,-0.176794,45,260,582,6192
1644189928.325486,-0.01001,0.008728,-0.99408,0.266656,0.478168,0.036947,42,285,586,6240
1644189928.373913,-0.00824,0.008728,-0.991028,0.144519,0.539237,-0.130992,48,276,585,6240
1644189928.422294,-0.010193,0.008057,-0.994873,0.236122,0.417099,-0.054656,47,275,582,6224
1644189928.47064,-0.008118,0.010681,-0.992004,0.08345,0.432366,-0.085191,49,273,584,6224
1644189928.519058,-0.01062,0.012085,-0.990906,0.175053,0.523969,-0.130992,46,271,585,6224
1644189928.567458,-0.008789,0.013,-0.99231,0.022382,0.493435,-0.176794,53,274,585,6304
1644189928.615851,-0.010132,0.008606,-0.994202,0.266656,0.447634,-0.176794,59,273,582,6224
1644189928.664245,-0.01062,0.011292,-0.992188,0.297191,0.569771,-0.192061,43,274,592,6160
1644189928.712643,-0.01062,0.006592,-0.992676,0.327725,0.447634,-0.115725,40,275,572,6192
1644189928.761025,-0.00885,0.011658,-0.991516,0.342992,0.493435,-0.283664,49,282,579,6176
1644189928.810119,-0.009705,0.009155,-0.99469,0.342992,0.340763,-0.085191,43,276,583,6176
1644189928.861093,-0.009888,0.009399,-0.988037,0.220855,0.447634,0.036947,46,274,580,6224
1644189928.911271,-0.009888,0.008667,-0.990967,0.129252,0.523969,-0.130992,45,285,582,6288
1644189928.955861,-0.007751,0.008179,-0.991699,0.159786,0.340763,-0.100458,51,274,592,6256
1644189929.0686,-0.007935,0.007812,-0.993835,0.251389,0.447634,-0.085191,46,279,590,6240
1644189929.102081,-0.008667,0.009094,-0.992981,0.266656,0.432366,-0.069924,42,273,591,6240
1644189929.148165,-0.012207,0.00824,-0.992249,0.266656,0.539237,-0.192061,62,281,573,6224
1644189929.196577,-0.010132,0.007751,-0.992004,0.205588,0.417099,-0.14626,49,273,586,6240
1644189929.245073,-0.009155,0.011841,-0.991394,0.190321,0.386565,-0.100458,54,277,586,6240
1644189929.293354,-0.00824,0.009033,-0.994873,0.220855,0.401832,-0.085191,57,273,579,6224
1644189929.341736,-0.010315,0.007996,-0.989746,0.342992,0.371298,0.082748,54,280,584,6288
1644189929.390109,-0.01123,0.005493,-0.992432,0.281924,0.401832,-0.161527,42,275,593,6176
1644189929.438528,-0.008667,0.008606,-0.991699,0.175053,0.478168,0.052214,42,285,598,6240
1644189929.486894,-0.010376,0.009827,-0.990967,0.113985,0.478168,-0.176794,54,277,586,6240
1644189929.535773,-0.007446,0.009399,-0.993896,0.236122,0.294962,-0.222595,48,269,583,6224
1644189929.586513,-0.007263,0.013,-0.990417,0.327725,0.356031,-0.008855,47,268,589,6224
1644189929.636554,-0.007141,0.008728,-0.991577,0.251389,0.478168,-0.069924,49,270,586,6240
1644189929.681369,-0.010803,0.006531,-0.994812,0.281924,0.340763,-0.161527,52,270,582,6224
1644189929.777268,-0.007751,0.008545,-0.990295,0.159786,0.478168,-0.268397,51,269,583,6240
1644189929.825639,-0.008118,0.011047,-0.990051,0.144519,0.462901,-0.237863,48,274,585,6240
1644189929.874099,-0.00769,0.009521,-0.989319,0.281924,0.371298,-0.085191,49,277,579,6288
1644189929.922522,-0.009705,0.010071,-0.990967,0.251389,0.386565,-0.36,46,271,585,6224
1644189929.97089,-0.009216,0.011841,-0.992004,0.297191,0.371298,-0.14626,52,280,582,6192
1644189930.019283,-0.007141,0.010315,-0.991943,0.022382,0.310229,-0.268397,52,275,572,6176
1644189930.068756,-0.010376,0.008362,-0.992615,0.220855,0.493435,-0.161527,48,276,583,6256
1644189930.116065,-0.008423,0.008423,-0.989563,0.266656,0.340763,-0.024122,57,282,584,6224
1644189930.164409,-0.011597,0.009766,-0.991638,0.251389,0.493435,-0.069924,47,275,586,6256
1644189930.212837,-0.009827,0.008057,-0.991638,0.266656,0.432366,-0.237863,51,283,576,6240
1644189930.261211,-0.009827,0.011292,-0.992798,0.327725,0.386565,-0.161527,54,280,577,6224
1644189930.309595,-0.009338,0.007996,-0.993835,0.113985,0.447634,-0.14626,40,275,589,6240
1644189930.357954,-0.007996,0.011902,-0.994446,0.159786,0.615573,-0.176794,47,265,584,6224
1644189930.406387,-0.009827,0.008789,-0.993225,0.281924,0.432366,-0.024122,52,268,582,6192
1644189930.454782,-0.007629,0.009766,-0.9953,0.129252,0.478168,-0.115725,41,279,585,6256
1644189930.503155,-0.00647,0.010681,-0.993958,0.281924,0.432366,-0.100458,52,277,593,6224
1644189930.551573,-0.011475,0.006348,-0.993286,0.327725,0.24916,-0.130992,43,281,597,6224
1644189930.599954,-0.010071,0.009216,-0.993591,0.068183,0.508702,-0.054656,40,270,582,6224
1644189930.64835,-0.006042,0.008423,-0.992249,0.251389,0.386565,-0.069924,60,266,580,6176
1644189930.697025,-0.009094,0.006653,-0.991028,0.388794,0.401832,-0.192061,36,274,580,6240
1644189930.747944,-0.009155,0.01123,-0.993408,0.251389,0.386565,-0.14626,52,270,584,6224
1644189930.797696,-0.007629,0.008301,-0.991089,0.251389,0.310229,-0.069924,52,275,575,6240
1644189930.842787,-0.007202,0.012573,-0.991028,0.236122,0.401832,-0.14626,49,277,584,6240
1644189930.938746,-0.008423,0.009338,-0.992004,0.190321,0.401832,-0.115725,54,277,586,6224
1644189930.987113,-0.010498,0.009644,-0.990784,0.251389,0.340763,-0.008855,51,279,587,6240
1644189931.035525,-0.010193,0.009949,-0.992065,0.190321,0.432366,-0.100458,53,279,597,6288
1644189931.084023,-0.010132,0.008667,-0.992676,0.236122,0.325496,-0.14626,40,273,591,6256
1644189931.132337,-0.00885,0.010864,-0.991943,0.236122,0.294962,-0.085191,49,277,577,6304
1644189931.180675,-0.009521,0.01001,-0.99231,0.08345,0.371298,0.098015,51,274,576,6240
1644189931.229075,-0.006287,0.01062,-0.990112,0.297191,0.401832,-0.100458,46,274,576,6288
1644189931.277431,-0.005127,0.009888,-0.992004,0.129252,0.264427,-0.008855,51,269,578,6224
1644189931.325852,-0.008423,0.007263,-0.99353,0.022382,0.340763,-0.039389,54,265,582,6256
1644189931.374258,-0.008484,0.011047,-0.989319,0.220855,0.554504,-0.176794,47,270,577,6256
1644189931.422657,-0.00708,0.009338,-0.990417,0.144519,0.233893,-0.192061,58,269,587,6224
1644189931.471033,-0.009094,0.009521,-0.994019,0.159786,0.401832,-0.024122,41,279,585,6304
1644189931.519433,-0.010498,0.010132,-0.990906,0.312458,0.371298,-0.039389,55,274,585,6256
1644189931.567821,-0.00946,0.006714,-0.99176,0.251389,0.371298,-0.085191,52,273,584,6176
1644189931.616182,-0.007874,0.012207,-0.991516,0.312458,0.539237,-0.192061,42,280,577,6240
1644189931.66465,-0.008362,0.010376,-0.992188,0.175053,0.310229,-0.024122,53,271,583,6160
1644189931.713033,-0.010559,0.011169,-0.991272,0.220855,0.325496,-0.161527,46,279,583,6240
1644189931.761381,-0.00647,0.010498,-0.99231,0.404061,0.356031,-0.054656,49,280,579,6256
1644189931.810092,-0.007935,0.011658,-0.991211,0.159786,0.325496,0.021679,42,270,591,6256
1644189931.858876,-0.00946,0.011536,-0.991577,0.419328,0.340763,0.006412,47,273,584,6224
1644189931.909996,-0.005493,0.009888,-0.990295,0.159786,0.508702,-0.069924,45,265,586,6224
1644189931.960416,-0.008911,0.008911,-0.993896,0.35826,0.294962,-0.054656,42,277,579,6224
1644189932.063248,-0.005127,0.009705,-0.98822,0.342992,0.508702,-0.115725,47,285,593,6256
1644189932.103635,-0.011597,0.010864,-0.992004,0.159786,0.401832,-0.207328,52,282,579,6192
1644189932.148542,-0.00885,0.009644,-0.990845,0.297191,0.325496,-0.085191,55,269,587,6224
1644189932.196944,-0.009216,0.008911,-0.991028,0.266656,0.447634,-0.069924,67,276,583,6240
1644189932.245322,-0.008179,0.009827,-0.991821,0.175053,0.371298,-0.100458,58,283,573,6240
1644189932.293736,-0.009888,0.010925,-0.987183,0.144519,0.24916,0.036947,43,291,583,6176
1644189932.342224,-0.005859,0.009827,-0.990295,0.35826,0.386565,-0.024122,54,277,584,6304
1644189932.390503,-0.008057,0.010742,-0.993042,0.449863,0.401832,-0.130992,42,280,579,6128
1644189932.438898,-0.008301,0.010803,-0.992126,0.190321,0.401832,-0.024122,45,280,586,6192
1644189932.487283,-0.007996,0.01239,-0.990845,0.35826,0.508702,-0.085191,55,276,590,6128
1644189932.535677,-0.009827,0.012878,-0.992798,0.35826,0.539237,-0.069924,55,266,580,6224
1644189932.584069,-0.007385,0.011169,-0.991638,0.144519,0.554504,-0.207328,57,275,584,6176
1644189932.632807,-0.009155,0.009521,-0.991089,0.236122,0.356031,0.006412,47,275,589,6224
1644189932.681621,-0.011292,0.010437,-0.990601,0.037649,0.325496,-0.039389,52,280,575,6224
1644189932.732305,-0.007996,0.010254,-0.992615,0.205588,0.356031,0.006412,51,274,580,6288
1644189932.782306,-0.009155,0.011536,-0.990906,0.327725,0.264427,-0.008855,55,281,578,6192
1644189932.827456,-0.005859,0.009888,-0.990356,0.129252,0.386565,-0.130992,49,277,582,6240
1644189932.922889,-0.008606,0.009277,-0.992859,0.159786,0.371298,-0.115725,57,275,575,6224
1644189932.97124,-0.012085,0.009766,-0.992737,0.236122,0.371298,-0.161527,61,275,586,6224
1644189933.019651,-0.009705,0.007141,-0.992798,0.129252,0.356031,-0.14626,53,279,578,6176
1644189933.070233,-0.009338,0.006409,-0.991638,0.266656,0.462901,-0.085191,51,279,585,6176
1644189933.116344,-0.007812,0.012573,-0.992798,0.205588,0.340763,0.006412,40,277,584,6288
1644189933.164795,-0.010315,0.008667,-0.990662,0.144519,0.447634,-0.207328,48,271,580,6224
1644189933.213153,-0.006409,0.010315,-0.994263,0.129252,0.432366,0.067481,46,283,590,6224
1644189933.261573,-0.012268,0.00708,-0.992126,0.281924,0.371298,-0.130992,48,271,585,6256
1644189933.309942,-0.009338,0.006287,-0.991455,0.220855,0.523969,-0.039389,43,279,590,6192
1644189933.358363,-0.009644,0.008301,-0.993652,0.449863,0.432366,-0.054656,45,270,579,6256
1644189933.406765,-0.00946,0.012451,-0.991882,0.236122,0.432366,-0.085191,48,281,580,6176
1644189933.455242,-0.005676,0.00946,-0.991882,0.297191,0.447634,-0.130992,51,276,585,6240
1644189933.503569,-0.006531,0.01062,-0.99408,0.098718,0.554504,-0.039389,48,276,585,6224
1644189933.551942,-0.010437,0.012268,-0.992371,0.220855,0.340763,-0.085191,54,273,584,6176
1644189933.600332,-0.009644,0.010315,-0.993896,0.113985,0.14229,0.082748,49,270,575,6192
1644189933.648722,-0.006409,0.008728,-0.990845,0.251389,0.371298,-0.039389,47,270,589,6240
1644189933.697106,-0.008545,0.009277,-0.992859,0.220855,0.371298,-0.176794,55,288,580,6256
1644189933.7455,-0.009399,0.011108,-0.992004,0.159786,0.401832,0.021679,48,269,587,6224
1644189933.793958,-0.005127,0.009827,-0.992981,0.281924,0.447634,-0.100458,52,268,577,6160
1644189933.846436,-0.010559,0.006653,-0.99231,0.098718,0.386565,-0.14626,57,268,600,6224
1644189933.893904,-0.007629,0.010986,-0.990112,0.08345,0.508702,-0.039389,51,279,583,6240
1644189933.944104,-0.008911,0.012146,-0.995422,0.159786,0.386565,-0.054656,58,281,594,6224
1644189933.98877,-0.012146,0.010986,-0.992554,0.251389,0.432366,-0.085191,53,269,585,6240
1644189934.084929,-0.009888,0.007568,-0.994202,0.220855,0.508702,-0.100458,48,276,587,6224
1644189934.132607,-0.007629,0.010193,-0.991943,0.205588,0.447634,-0.207328,51,276,592,6240
1644189934.18102,-0.01001,0.007996,-0.989868,0.08345,0.371298,-0.237863,42,280,579,6224
1644189934.229436,-0.007263,0.00708,-0.989441,0.236122,0.401832,-0.130992,49,277,582,6240
1644189934.277804,-0.006897,0.010559,-0.994385,0.113985,0.493435,-0.130992,53,274,578,6256
1644189934.326216,-0.004639,0.007019,-0.991516,0.281924,0.493435,-0.192061,49,270,589,6160
1644189934.37465,-0.008911,0.007202,-0.993164,0.266656,0.386565,-0.024122,41,276,573,6240
1644189934.42303,-0.009583,0.009888,-0.992004,0.175053,0.325496,-0.268397,51,271,592,6176
1644189934.471407,-0.007629,0.008484,-0.993347,0.327725,0.401832,-0.237863,45,285,586,6224
1644189934.519842,-0.012085,0.009644,-0.991882,0.266656,0.371298,-0.069924,48,276,583,6224
1644189934.568194,-0.009338,0.010193,-0.991577,0.236122,0.264427,-0.176794,52,273,584,6224
1644189934.61659,-0.007996,0.01001,-0.991211,0.35826,0.233893,-0.008855,58,283,583,6176
1644189934.665102,-0.00592,0.006653,-0.995239,0.35826,0.569771,-0.100458,55,274,587,6288
1644189934.713386,-0.007874,0.01001,-0.994507,0.113985,0.447634,-0.054656,57,287,586,6224
1644189934.76173,-0.012146,0.011902,-0.995117,0.35826,0.294962,-0.008855,49,280,593,6224
1644189934.810202,-0.011475,0.010132,-0.993103,0.175053,0.371298,-0.085191,57,277,584,6240
1644189934.858588,-0.01123,0.009216,-0.993164,0.175053,0.523969,-0.054656,34,274,592,6240
1644189934.90698,-0.009094,0.008057,-0.989685,0.312458,0.356031,-0.222595,54,270,575,6224
1644189934.955384,-0.010986,0.008118,-0.993408,0.144519,0.447634,0.067481,51,274,585,6192
1644189935.005393,-0.011047,0.009399,-0.993164,0.251389,0.432366,-0.161527,43,276,587,6224
1644189935.078212,-0.009827,0.010803,-0.991211,0.220855,0.310229,-0.085191,52,280,586,6128
1644189935.114168,-0.006714,0.01123,-0.99408,0.175053,0.401832,-0.039389,51,279,594,6256
1644189935.150149,-0.010864,0.01001,-0.989929,0.205588,0.386565,0.067481,46,264,587,6192
1644189935.245666,-0.009399,0.009583,-0.990112,0.495664,0.386565,-0.14626,60,276,583,6128
1644189935.294072,-0.00885,0.010559,-0.9953,0.297191,0.386565,-0.054656,59,280,579,6224
1644189935.342487,-0.012817,0.009644,-0.992188,0.113985,0.401832,0.052214,45,277,575,6224
1644189935.39086,-0.007812,0.006836,-0.992493,0.129252,0.401832,0.006412,53,279,587,6224
1644189935.439259,-0.011108,0.012939,-0.996033,0.342992,0.508702,-0.100458,47,277,577,6224
1644189935.487934,-0.011169,0.008911,-0.991882,0.144519,0.493435,0.082748,49,273,582,6224
1644189935.536043,-0.008484,0.009888,-0.993408,0.220855,0.340763,-0.085191,47,273,589,6224
1644189935.584443,-0.008423,0.009338,-0.992004,0.175053,0.462901,-0.100458,49,273,582,6176
1644189935.632863,-0.009827,0.008728,-0.993164,0.205588,0.386565,0.052214,39,281,594,6304
1644189935.681225,-0.006226,0.011536,-0.99292,0.449863,0.401832,-0.100458,54,280,593,6304
1644189935.729616,-0.006653,0.009155,-0.994568,0.266656,0.371298,0.052214,58,279,587,6224
1644189935.778014,-0.008179,0.011536,-0.993652,0.251389,0.340763,0.113282,54,270,589,6224
1644189935.826443,-0.009888,0.009827,-0.991455,0.251389,0.417099,-0.14626,49,270,593,6224
1644189935.874851,-0.007507,0.009094,-0.992615,0.113985,0.523969,-0.130992,47,287,586,6288
1644189935.923242,-0.008423,0.009766,-0.995117,0.312458,0.401832,0.067481,58,274,587,6240
1644189935.971623,-0.005676,0.008545,-0.991272,0.297191,0.569771,-0.14626,51,266,585,6288
1644189936.019987,-0.008301,0.009766,-0.991394,0.281924,0.478168,-0.237863,47,275,575,6224
1644189936.083742,-0.007935,0.008423,-0.992554,0.144519,0.356031,-0.100458,47,282,586,6192
1644189936.121332,-0.01123,0.010986,-0.992615,0.052916,0.478168,-0.054656,46,281,585,6176
1644189936.1701,-0.008545,0.008179,-0.989624,0.175053,0.279695,-0.268397,49,273,589,6288
1644189936.261927,-0.007629,0.007996,-0.991211,0.312458,0.371298,0.052214,52,273,586,6240
1644189936.310377,-0.009277,0.009094,-0.991516,0.175053,0.462901,-0.069924,46,274,576,6256
1644189936.358718,-0.006592,0.010193,-0.990967,0.144519,0.371298,-0.100458,53,283,580,6192
1644189936.407117,-0.006958,0.008118,-0.993225,0.281924,0.432366,-0.008855,49,268,586,6256
1644189936.4555,-0.007996,0.009094,-0.991882,0.236122,0.462901,-0.176794,51,281,590,6256
1644189936.503894,-0.008423,0.009888,-0.990662,0.266656,0.447634,0.067481,49,275,579,6192
1644189936.552316,-0.007935,0.009521,-0.99054,0.449863,0.340763,0.036947,41,281,576,6224
1644189936.600695,-0.012085,0.011047,-0.993652,0.129252,0.386565,-0.176794,47,268,584,6288
1644189936.649051,-0.009949,0.008423,-0.990112,0.449863,0.24916,-0.100458,58,271,590,6240
1644189936.697468,-0.009216,0.010864,-0.99115,0.297191,0.478168,0.006412,55,274,585,6256
1644189936.745854,-0.006958,0.009033,-0.991699,0.220855,0.447634,-0.115725,48,271,576,6192
1644189936.794253,-0.007935,0.010376,-0.990173,0.144519,0.539237,-0.176794,54,273,589,6192
1644189936.842721,-0.009277,0.009583,-0.991455,0.281924,0.432366,-0.054656,54,280,586,6160
1644189936.891086,-0.010437,0.011292,-0.991638,0.312458,0.417099,-0.024122,43,271,592,6224
1644189936.939487,-0.007629,0.008545,-0.989929,0.312458,0.356031,-0.054656,46,276,590,6176
1644189936.98788,-0.009888,0.009094,-0.992432,0.312458,0.294962,-0.054656,54,275,582,6256
1644189937.036271,-0.008423,0.011902,-0.991333,0.205588,0.356031,-0.222595,49,282,589,6240
1644189937.084773,-0.006958,0.00946,-0.991821,0.266656,0.386565,0.021679,46,283,594,6176
1644189937.133039,-0.00708,0.007568,-0.994995,0.175053,0.417099,0.036947,49,273,586,6240
1644189937.181442,-0.010132,0.009766,-0.989258,0.175053,0.401832,0.006412,58,283,585,6224
1644189937.23281,-0.009827,0.009827,-0.99292,0.35826,0.432366,0.021679,53,269,585,6160
1644189937.282438,-0.008118,0.008911,-0.991699,0.327725,0.478168,-0.161527,48,281,576,6240
1644189937.327253,-0.008057,0.010559,-0.992737,0.113985,0.356031,-0.085191,49,268,575,6240
1644189937.423385,-0.011902,0.007568,-0.991394,0.373527,0.523969,-0.054656,43,271,580,6304
1644189937.471762,-0.010071,0.009583,-0.993286,0.297191,0.401832,-0.039389,49,280,584,6304
1644189937.520154,-0.01001,0.007874,-0.992004,0.129252,0.340763,-0.039389,47,282,582,6192
1644189937.568545,-0.010559,0.008728,-0.991272,0.342992,0.462901,-0.039389,59,273,575,6176
1644189937.616935,-0.008301,0.010681,-0.991516,0.35826,0.279695,-0.130992,52,275,586,6240
1644189937.665325,-0.008728,0.01123,-0.991638,0.35826,0.508702,-0.085191,53,279,580,6176
1644189937.713732,-0.008545,0.00824,-0.990723,0.342992,0.279695,-0.039389,49,280,579,6224
1644189937.762167,-0.010437,0.009094,-0.991028,0.098718,0.447634,-0.115725,54,277,577,6240
1644189937.810515,-0.007935,0.005676,-0.993469,0.113985,0.432366,-0.192061,52,270,572,6224
1644189937.858959,-0.009033,0.010437,-0.993225,0.144519,0.24916,-0.085191,53,281,578,6192
1644189937.907324,-0.008484,0.010437,-0.991821,0.297191,0.462901,-0.222595,52,282,586,6224
1644189937.955739,-0.008606,0.009644,-0.993896,0.281924,0.340763,-0.100458,53,269,580,6224
1644189938.004142,-0.008484,0.010925,-0.992981,0.297191,0.417099,-0.14626,53,269,592,6240
1644189938.0695,-0.009888,0.009338,-0.993774,0.205588,0.310229,-0.008855,52,268,577,6256
1644189938.103788,-0.008789,0.008789,-0.992493,0.129252,0.386565,-0.14626,39,271,585,6240
1644189938.149282,-0.00885,0.010254,-0.991516,0.251389,0.371298,-0.176794,57,282,586,6240
1644189938.197669,-0.008789,0.010803,-0.992615,0.190321,0.401832,-0.14626,46,286,594,6240
1644189938.246054,-0.009277,0.010193,-0.991638,0.205588,0.356031,-0.115725,51,274,580,6192
1644189938.294443,-0.008789,0.011475,-0.991516,0.266656,0.447634,-0.14626,49,282,591,6224
1644189938.342896,-0.008362,0.009521,-0.989746,0.266656,0.447634,0.052214,53,281,569,6240
1644189938.392933,-0.007751,0.009583,-0.994568,0.236122,0.417099,-0.176794,45,275,586,6256
1644189938.443329,-0.012207,0.008789,-0.992493,0.08345,0.401832,0.067481,46,276,587,6192
1644189938.488482,-0.010925,0.007812,-0.993958,0.190321,0.356031,-0.054656,49,275,591,6224
1644189938.584833,-0.008545,0.007812,-0.994019,0.281924,0.325496,-0.039389,42,275,586,6240
1644189938.633202,-0.00708,0.008728,-0.990417,0.281924,0.432366,-0.008855,46,279,573,6192
1644189938.681566,-0.007324,0.009705,-0.994202,0.220855,0.386565,0.098015,47,268,584,6224
1644189938.729972,-0.010742,0.009766,-0.993286,0.236122,0.478168,-0.069924,52,280,579,6224
1644189938.778368,-0.009277,0.008606,-0.99176,0.236122,0.401832,-0.161527,48,266,583,6240
1644189938.826754,-0.011902,0.008606,-0.991699,0.190321,0.340763,-0.069924,54,277,577,6224
1644189938.875305,-0.01001,0.010498,-0.989868,0.159786,0.447634,-0.085191,48,283,583,6256
1644189938.923609,-0.008362,0.009277,-0.991699,0.220855,0.371298,-0.054656,52,277,586,6224
1644189938.971978,-0.011047,0.010559,-0.99469,0.373527,0.432366,-0.115725,59,273,579,6224
1644189939.020381,-0.008057,0.006287,-0.99231,0.220855,0.386565,0.021679,46,279,578,6240
1644189939.073472,-0.010986,0.009766,-0.994141,0.342992,0.386565,0.021679,45,273,589,6224
1644189939.117185,-0.008911,0.009521,-0.993652,0.404061,0.294962,-0.039389,43,283,590,6304
1644189939.165497,-0.00769,0.007751,-0.993591,0.281924,0.417099,-0.054656,41,269,587,6256
1644189939.213923,-0.010254,0.010925,-0.993164,0.205588,0.340763,-0.069924,47,277,589,6224
1644189939.262299,-0.012329,0.005859,-0.989624,0.35826,0.432366,-0.008855,46,276,587,6224
1644189939.310705,-0.008057,0.008484,-0.991943,0.098718,0.523969,-0.176794,57,260,593,6192
1644189939.359093,-0.008179,0.010742,-0.992615,0.175053,0.462901,-0.130992,46,276,585,6240
1644189939.407493,-0.007629,0.00708,-0.99176,0.159786,0.493435,-0.130992,55,276,573,6224
1644189939.455858,-0.011108,0.007874,-0.990845,0.144519,0.401832,-0.222595,51,281,585,6224
1644189939.504503,-0.012512,0.008362,-0.993835,0.236122,0.371298,-0.192061,54,285,586,6224
1644189939.55502,-0.00885,0.009644,-0.991638,0.266656,0.432366,-0.161527,52,280,582,6240
1644189939.605313,-0.009827,0.008972,-0.992249,-0.084489,0.462901,0.036947,48,274,585,6192
1644189939.650348,-0.008911,0.009827,-0.992249,0.236122,0.417099,0.021679,51,281,571,6256
1644189939.746224,-0.008728,0.010193,-0.992737,0.037649,0.539237,-0.054656,58,279,580,6240
1644189939.794852,-0.007751,0.010437,-0.993225,0.129252,0.554504,-0.115725,55,274,583,6176
1644189939.843042,-0.013245,0.006958,-0.992493,0.251389,0.417099,-0.176794,55,266,580,6224
1644189939.891448,-0.008911,0.010986,-0.992676,0.266656,0.478168,-0.069924,38,268,575,6224
1644189939.939845,-0.011597,0.010193,-0.990234,0.449863,0.24916,0.082748,48,279,585,6240
1644189939.988234,-0.009155,0.008118,-0.99292,0.007115,0.447634,-0.039389,42,273,579,6240
1644189940.036607,-0.006714,0.009094,-0.991821,0.266656,0.356031,-0.115725,60,276,590,6240
1644189940.090873,-0.010315,0.008118,-0.991516,0.205588,0.508702,-0.069924,48,271,587,6240
1644189940.133447,-0.007935,0.007507,-0.992004,0.434595,0.539237,-0.14626,53,279,580,6240
1644189940.181779,-0.008911,0.008667,-0.989807,0.175053,0.432366,-0.039389,45,265,584,6240
1644189940.230142,-0.010681,0.010193,-0.990051,0.175053,0.325496,-0.085191,48,279,578,6256
1644189940.27857,-0.008789,0.00769,-0.992432,0.144519,0.523969,-0.100458,36,271,583,6224
1644189940.326954,-0.008179,0.012817,-0.995056,0.129252,0.340763,-0.192061,53,283,583,6224
1644189940.375352,-0.011902,0.010681,-0.991455,0.205588,0.432366,-0.207328,49,282,579,6256
1644189940.423748,-0.005493,0.009827,-0.992676,0.190321,0.340763,-0.039389,49,280,582,6224
1644189940.472445,-0.007446,0.006653,-0.991272,0.236122,0.371298,-0.008855,51,276,580,6288
1644189940.521313,-0.009399,0.006714,-0.992676,0.281924,0.371298,-0.039389,54,292,584,6240
1644189940.571852,-0.009766,0.006653,-0.991089,0.236122,0.371298,-0.176794,48,269,583,6224
1644189940.621859,-0.006592,0.00592,-0.988525,0.35826,0.325496,0.159084,48,274,578,6240
1644189940.667224,-0.007629,0.009521,-0.991943,0.312458,0.508702,-0.100458,52,273,582,6256
1644189940.762504,-0.009338,0.006958,-0.99231,0.175053,0.432366,-0.161527,51,279,583,6192
1644189940.810872,-0.008301,0.007935,-0.992737,0.220855,0.310229,-0.115725,46,281,590,6192
1644189940.859249,-0.007446,0.009766,-0.991211,0.08345,0.340763,-0.039389,51,279,587,6224
1644189940.907707,-0.00946,0.008362,-0.992126,0.205588,0.523969,0.067481,49,270,582,6224
1644189940.95611,-0.009827,0.01062,-0.989075,0.129252,0.432366,-0.115725,47,268,579,6256
1644189941.004474,-0.01062,0.008606,-0.990051,0.144519,0.401832,0.052214,55,271,585,6192
1644189941.066862,-0.00769,0.009094,-0.99115,0.220855,0.508702,-0.024122,54,280,582,6192
1644189941.105267,-0.00946,0.008057,-0.992065,0.266656,0.615573,0.021679,48,274,585,6240
1644189941.149671,-0.008911,0.01239,-0.993286,0.251389,0.447634,-0.069924,41,281,580,6240
1644189941.198066,-0.007996,0.012207,-0.992676,0.251389,0.356031,-0.161527,46,271,587,6240
1644189941.246459,-0.010498,0.011047,-0.994202,0.327725,0.417099,-0.085191,48,279,583,6256
1644189941.294863,-0.008728,0.007751,-0.993469,0.312458,0.401832,-0.115725,49,260,591,6336
1644189941.343256,-0.009766,0.011841,-0.993958,0.35826,0.386565,-0.115725,49,282,582,6192
1644189941.391642,-0.010071,0.008484,-0.992981,0.129252,0.478168,-0.039389,41,279,587,6240
1644189941.440033,-0.006287,0.011597,-0.992798,0.175053,0.478168,-0.161527,45,282,582,6288
1644189941.488404,-0.010315,0.007751,-0.992371,0.190321,0.447634,-0.024122,54,275,582,6224
1644189941.536818,-0.010925,0.010132,-0.992249,0.220855,0.478168,-0.100458,57,273,591,6304
1644189941.58548,-0.007751,0.009949,-0.994812,0.220855,0.462901,0.021679,55,276,587,6192
1644189941.635556,-0.006287,0.010132,-0.991516,0.388794,0.356031,-0.130992,43,269,582,6224
1644189941.686066,-0.011536,0.007568,-0.992554,0.388794,0.432366,-0.176794,48,276,583,6224
1644189941.736137,-0.009644,0.010925,-0.99353,0.266656,0.417099,-0.130992,48,269,578,6176
1644189941.827193,-0.007202,0.009521,-0.99054,0.159786,0.401832,-0.054656,59,277,579,6256
1644189941.875548,-0.007324,0.012268,-0.991821,0.205588,0.203359,0.006412,53,279,590,6256
1644189941.923965,-0.007019,0.009033,-0.992493,0.205588,0.478168,-0.085191,38,268,577,6256
1644189941.972409,-0.008789,0.008301,-0.991943,0.190321,0.310229,-0.283664,55,269,578,6256
1644189942.020746,-0.009888,0.009521,-0.990662,0.175053,0.386565,-0.176794,51,276,585,6160
1644189942.072072,-0.012085,0.01001,-0.989685,-0.038687,0.478168,-0.100458,40,270,579,6256
1644189942.11747,-0.007996,0.008179,-0.993225,0.220855,0.462901,-0.268397,54,275,591,6224
1644189942.165892,-0.00769,0.007019,-0.994385,0.175053,0.417099,-0.069924,43,271,580,6224
1644189942.21429,-0.009766,0.009094,-0.992981,0.190321,0.432366,-0.14626,54,273,577,6240
1644189942.262705,-0.008667,0.007141,-0.991699,0.08345,0.447634,-0.069924,52,270,579,6256
1644189942.31105,-0.008972,0.010498,-0.99353,0.266656,0.386565,-0.100458,53,279,585,6256
1644189942.359466,-0.008728,0.011597,-0.990356,0.236122,0.462901,-0.008855,52,280,584,6224
1644189942.407854,-0.010559,0.007385,-0.991516,0.190321,0.401832,-0.100458,48,271,585,6256
1644189942.45626,-0.008606,0.007446,-0.993408,0.251389,0.325496,0.021679,51,274,578,6224
1644189942.50467,-0.005371,0.009216,-0.990967,0.190321,0.386565,-0.039389,46,274,590,6176
1644189942.553012,-0.008972,0.011292,-0.99176,0.205588,0.325496,-0.085191,52,285,577,6240
1644189942.601419,-0.009888,0.009888,-0.993713,0.297191,0.447634,-0.222595,52,282,582,6240
1644189942.649819,-0.005737,0.008789,-0.992859,0.098718,0.386565,-0.054656,53,271,590,6160
1644189942.698206,-0.01062,0.007507,-0.99231,0.113985,0.447634,-0.130992,47,285,584,6256
1644189942.746614,-0.008301,0.011414,-0.991516,0.175053,0.310229,-0.14626,52,273,593,6256
1644189942.797139,-0.008545,0.01062,-0.991516,0.113985,0.356031,-0.161527,48,271,585,6240
1644189942.848479,-0.009033,0.005493,-0.990234,0.342992,0.386565,-0.100458,51,274,585,6224
1644189942.892649,-0.009094,0.007202,-0.994019,0.281924,0.493435,-0.176794,49,280,577,6240
1644189942.988595,-0.008911,0.009949,-0.989075,0.220855,0.462901,-0.176794,46,279,585,6240
1644189943.036984,-0.011658,0.009521,-0.99115,0.327725,0.356031,-0.085191,48,269,580,6240
1644189943.085541,-0.008301,0.007385,-0.994141,0.251389,0.508702,-0.085191,55,281,585,6240
1644189943.133753,-0.009766,0.009827,-0.98999,0.35826,0.447634,-0.069924,51,274,590,6256
1644189943.182162,-0.009155,0.009277,-0.990417,0.144519,0.371298,-0.085191,45,265,579,6240
1644189943.230553,-0.008545,0.009155,-0.993042,0.220855,0.401832,-0.085191,49,285,584,6240
1644189943.278907,-0.010437,0.010132,-0.994202,0.236122,0.401832,-0.115725,47,275,584,6160
1644189943.327323,-0.006348,0.009399,-0.989319,0.190321,0.539237,-0.054656,54,270,589,6160
1644189943.375715,-0.011414,0.011108,-0.994141,0.266656,0.218626,0.067481,42,275,582,6224
1644189943.424109,-0.010437,0.008911,-0.988281,0.266656,0.264427,0.006412,49,280,593,6256
1644189943.472517,-0.007874,0.011597,-0.991272,0.281924,0.417099,-0.054656,55,274,590,6224
1644189943.520882,-0.009399,0.008484,-0.994507,0.052916,0.417099,-0.054656,51,288,583,6240
1644189943.569296,-0.01062,0.012329,-0.99115,0.113985,0.462901,-0.039389,52,277,577,6224
1644189943.617682,-0.00708,0.011169,-0.991333,0.236122,0.523969,0.006412,49,277,575,6176
1644189943.666068,-0.008179,0.009338,-0.993042,0.159786,0.417099,-0.14626,49,277,577,6128
1644189943.714462,-0.010681,0.009888,-0.993958,0.113985,0.600305,-0.054656,51,281,580,6240
1644189943.762874,-0.008728,0.009216,-0.993286,0.175053,0.386565,-0.085191,47,277,589,6240
1644189943.81129,-0.008545,0.01062,-0.995483,0.251389,0.371298,-0.283664,51,269,587,6224
1644189943.86097,-0.007507,0.009338,-0.992676,0.327725,0.279695,-0.054656,52,268,584,6256
1644189943.911201,-0.009888,0.011108,-0.989319,0.098718,0.508702,-0.25313,51,271,587,6224
1644189943.961307,-0.006836,0.007202,-0.99115,0.052916,0.539237,-0.237863,47,270,584,6240
1644189944.006177,-0.004822,0.011841,-0.990967,0.144519,0.356031,-0.161527,52,275,582,6176
1644189944.104692,-0.010254,0.008667,-0.991943,0.037649,0.417099,0.021679,60,276,583,6160
1644189944.149996,-0.009094,0.008728,-0.991821,0.373527,0.462901,-0.069924,47,270,577,6224
1644189944.198401,-0.010925,0.007568,-0.994141,0.190321,0.462901,-0.039389,46,264,587,6224
1644189944.246819,-0.007385,0.007935,-0.992615,0.205588,0.294962,-0.054656,61,275,584,6240
1644189944.295242,-0.009766,0.012329,-0.99353,0.220855,0.401832,-0.054656,47,275,575,6192
1644189944.343585,-0.010437,0.008789,-0.995178,0.373527,0.447634,0.052214,49,265,584,6256
1644189944.391971,-0.008667,0.009277,-0.992615,0.098718,0.493435,-0.222595,58,279,578,6240
1644189944.440337,-0.008118,0.008789,-0.992126,0.144519,0.447634,-0.008855,52,273,596,6256
1644189944.488746,-0.008118,0.007202,-0.99231,0.281924,0.310229,0.036947,46,279,590,6224
1644189944.537145,-0.006348,0.01123,-0.993774,0.266656,0.264427,-0.085191,46,276,590,6224
1644189944.585537,-0.007324,0.012146,-0.992676,0.297191,0.478168,-0.192061,41,274,583,6224
1644189944.633909,-0.011414,0.010925,-0.989929,0.190321,0.371298,-0.161527,51,271,573,6176
1644189944.682678,-0.010315,0.007446,-0.992676,0.159786,0.417099,0.021679,57,273,579,6192
1644189944.731651,-0.009399,0.008118,-0.993347,0.175053,0.462901,0.021679,54,275,589,6240
1644189944.782697,-0.006958,0.012024,-0.992065,0.251389,0.386565,-0.130992,55,266,580,6224
1644189944.827582,-0.009583,0.009155,-0.992126,0.190321,0.356031,-0.100458,45,280,584,6224
1644189944.924321,-0.008667,0.010986,-0.993835,0.159786,0.417099,0.036947,49,265,577,6160
1644189944.972724,-0.00708,0.009705,-0.991821,0.388794,0.447634,-0.008855,47,285,575,6224
1644189945.021073,-0.010376,0.007751,-0.99231,0.175053,0.294962,-0.085191,42,277,586,6256
1644189945.071559,-0.009094,0.00647,-0.990112,0.312458,0.447634,-0.024122,54,273,589,6240
1644189945.117846,-0.009155,0.008423,-0.991394,0.159786,0.569771,-0.054656,43,286,590,6128
1644189945.166263,-0.007874,0.009216,-0.990601,0.205588,0.386565,-0.100458,52,265,577,6256
1644189945.214652,-0.010315,0.008362,-0.992859,0.220855,0.294962,-0.100458,47,280,579,6224
1644189945.263022,-0.007751,0.007507,-0.993774,0.159786,0.401832,-0.161527,54,275,577,6304
1644189945.311416,-0.008789,0.007935,-0.992371,0.266656,0.401832,-0.024122,51,279,585,6224
1644189945.359826,-0.003235,0.009949,-0.993835,0.281924,0.325496,-0.14626,36,281,590,6256
1644189945.40822,-0.008972,0.01239,-0.99176,0.342992,0.478168,-0.100458,53,276,587,6256
1644189945.456612,-0.010742,0.008301,-0.990234,0.236122,0.356031,-0.054656,40,273,575,6240
1644189945.505125,-0.007507,0.007751,-0.994507,0.129252,0.462901,-0.069924,47,273,584,6192
1644189945.55342,-0.00946,0.008423,-0.992371,0.098718,0.203359,-0.192061,54,275,589,6160
1644189945.6018,-0.010437,0.007446,-0.990723,0.236122,0.401832,-0.161527,51,271,587,6256
1644189945.650187,-0.007202,0.009399,-0.990906,0.266656,0.325496,-0.161527,47,270,579,6224
1644189945.698585,-0.006897,0.009705,-0.98822,0.342992,0.401832,0.036947,52,273,586,6224
1644189945.746965,-0.008179,0.01001,-0.990967,0.251389,0.325496,-0.192061,43,274,592,6192
1644189945.795359,-0.010803,0.010254,-0.990906,0.220855,0.447634,-0.115725,49,270,575,6240
1644189945.845249,-0.008972,0.00946,-0.990906,0.236122,0.523969,-0.130992,48,274,583,6224
1644189945.894852,-0.006348,0.009583,-0.992249,0.342992,0.264427,-0.192061,47,275,579,6240
1644189945.945332,-0.00708,0.010254,-0.994385,0.251389,0.371298,-0.054656,51,269,585,6160
1644189945.989887,-0.010071,0.009277,-0.994446,0.205588,0.478168,0.006412,48,269,578,6288
1644189946.087973,-0.00824,0.010071,-0.99115,0.190321,0.523969,-0.008855,51,274,583,6192
1644189946.134141,-0.007812,0.009338,-0.993713,0.190321,0.417099,0.098015,45,270,584,6288
1644189946.182533,-0.007935,0.007996,-0.991516,0.312458,0.264427,-0.130992,62,274,585,6256
1644189946.230899,-0.009949,0.007385,-0.992371,0.144519,0.356031,-0.024122,51,283,580,6240
1644189946.279274,-0.007263,0.008789,-0.993042,0.175053,0.340763,-0.100458,43,271,576,6224
1644189946.327689,-0.01062,0.009583,-0.992493,0.113985,0.264427,-0.008855,41,276,580,6192
1644189946.376075,-0.012024,0.010254,-0.990479,0.266656,0.569771,-0.008855,54,270,589,6224
1644189946.424463,-0.010559,0.007996,-0.989502,0.251389,0.371298,-0.069924,46,276,585,6224
1644189946.472875,-0.007812,0.008423,-0.989868,0.281924,0.447634,-0.14626,42,270,596,6128
1644189946.521261,-0.011597,0.005737,-0.991943,0.037649,0.523969,-0.085191,52,270,582,6240
1644189946.569653,-0.010437,0.00885,-0.988708,0.129252,0.310229,-0.069924,53,274,585,6224
1644189946.618047,-0.008667,0.010132,-0.993103,0.266656,0.356031,-0.085191,45,282,582,6224
1644189946.66644,-0.010254,0.006958,-0.991455,0.052916,0.279695,0.021679,40,285,586,6224
1644189946.714864,-0.010986,0.007202,-0.992737,0.297191,0.554504,-0.237863,58,276,597,6240
1644189946.763223,-0.009521,0.009521,-0.99176,0.266656,0.325496,-0.100458,46,279,583,6304
1644189946.811615,-0.009766,0.00769,-0.993774,0.388794,0.386565,-0.283664,45,265,579,6224
1644189946.86004,-0.011169,0.009216,-0.994629,0.08345,0.401832,-0.039389,57,275,586,6192
1644189946.909947,-0.007751,0.005798,-0.992065,0.327725,0.371298,-0.14626,47,270,570,6224
1644189946.9601,-0.009583,0.006714,-0.9953,0.251389,0.478168,-0.298931,39,271,585,6192
1644189947.064492,-0.004822,0.009521,-0.992065,0.236122,0.233893,-0.024122,53,266,585,6256
1644189947.102996,-0.00824,0.010559,-0.99231,0.159786,0.432366,-0.130992,51,271,590,6224
1644189947.150377,-0.007019,0.009705,-0.993225,0.281924,0.417099,-0.100458,49,265,579,6224
1644189947.198772,-0.009399,0.010071,-0.992798,0.297191,0.356031,-0.085191,67,279,592,6224
1644189947.247136,-0.011047,0.01123,-0.990295,0.266656,0.508702,-0.100458,57,277,575,6160
1644189947.295549,-0.011536,0.007751,-0.99292,0.251389,0.386565,-0.130992,41,286,585,6224
1644189947.343952,-0.009155,0.008179,-0.993469,0.266656,0.371298,-0.100458,53,279,583,6224
1644189947.392347,-0.008545,0.010986,-0.994995,0.35826,0.447634,-0.008855,54,280,570,6240
1644189947.440722,-0.009583,0.007141,-0.992554,0.236122,0.340763,0.036947,48,283,587,6288
1644189947.489319,-0.010071,0.010376,-0.992065,0.205588,0.294962,-0.222595,45,277,579,6224
1644189947.53751,-0.006958,0.009399,-0.992615,0.190321,0.569771,-0.115725,47,282,586,6224
1644189947.585919,-0.007385,0.01062,-0.992004,0.144519,0.462901,-0.054656,51,283,594,6224
1644189947.6343,-0.010315,0.011963,-0.988647,0.266656,0.417099,-0.008855,49,282,584,6224
1644189947.682956,-0.009155,0.01355,-0.992065,0.327725,0.401832,-0.207328,47,282,575,6240
1644189947.733417,-0.009399,0.006653,-0.993286,0.297191,0.417099,0.052214,48,274,580,6224
1644189947.783775,-0.009827,0.008301,-0.990601,0.297191,0.264427,0.006412,49,275,579,6240
1644189947.828721,-0.010986,0.007751,-0.991943,0.281924,0.417099,-0.069924,55,274,583,6240
1644189947.924888,-0.010437,0.009827,-0.989075,0.159786,0.386565,-0.085191,47,275,579,6256
1644189947.973072,-0.00769,0.009583,-0.991943,0.205588,0.218626,-0.130992,54,273,586,6224
1644189948.021482,-0.008362,0.007935,-0.99408,0.312458,0.386565,-0.085191,42,273,579,6240
1644189948.069924,-0.007446,0.011963,-0.994385,0.373527,0.462901,0.021679,53,274,580,6256
1644189948.118248,-0.005737,0.008484,-0.991943,0.098718,0.539237,-0.054656,45,290,589,6240
1644189948.166595,-0.009094,0.009033,-0.991333,0.190321,0.325496,-0.069924,36,269,576,6256
1644189948.215053,-0.010925,0.009888,-0.994263,0.220855,0.401832,-0.176794,48,276,587,6240
1644189948.263417,-0.011597,0.007568,-0.991211,0.312458,0.417099,0.082748,49,273,589,6192
1644189948.311789,-0.008789,0.008301,-0.994019,0.327725,0.310229,-0.130992,51,271,585,6256
1644189948.360164,-0.009766,0.009033,-0.992065,0.190321,0.462901,-0.008855,46,274,590,6224
1644189948.408558,-0.010437,0.01001,-0.992981,0.312458,0.447634,-0.115725,49,275,582,6240
1644189948.45698,-0.008179,0.006104,-0.993347,0.159786,0.523969,-0.085191,54,280,584,6224
1644189948.505354,-0.011353,0.00708,-0.992981,0.220855,0.523969,-0.115725,49,273,577,6256
1644189948.553775,-0.008972,0.01001,-0.992981,0.205588,0.356031,-0.25313,45,280,589,6304
1644189948.602245,-0.010559,0.007263,-0.991699,0.175053,0.401832,-0.161527,51,271,592,6240
1644189948.650557,-0.007751,0.01001,-0.993958,0.037649,0.264427,-0.100458,42,280,582,6240
1644189948.698938,-0.008118,0.011353,-0.994263,0.220855,0.447634,-0.222595,51,274,587,6240
1644189948.747307,-0.007874,0.007996,-0.992065,0.144519,0.462901,-0.100458,57,277,589,6160
1644189948.79583,-0.010254,0.010315,-0.99054,0.175053,0.310229,-0.130992,41,279,590,6224
1644189948.84424,-0.009644,0.010376,-0.989685,0.205588,0.264427,-0.085191,45,277,575,6240
1644189948.895756,-0.007935,0.009766,-0.992737,0.220855,0.340763,-0.008855,48,266,592,6224
1644189948.946079,-0.008911,0.007935,-0.993408,0.297191,0.340763,-0.115725,59,285,577,6240
1644189948.990571,-0.010498,0.00885,-0.992004,0.236122,0.386565,-0.054656,46,269,580,6176
1644189949.08619,-0.009216,0.009216,-0.993713,0.251389,0.386565,-0.14626,53,283,585,6256
1644189949.134492,-0.010315,0.009155,-0.99231,0.220855,0.493435,-0.054656,43,283,583,6224
1644189949.182924,-0.009094,0.009338,-0.994629,0.297191,0.569771,-0.161527,51,281,576,6304
1644189949.231304,-0.00708,0.007507,-0.992798,0.312458,0.24916,-0.130992,46,264,594,6192
1644189949.279678,-0.010193,0.008667,-0.990417,0.098718,0.417099,-0.039389,55,283,583,6224
1644189949.328091,-0.009949,0.008057,-0.993713,0.236122,0.24916,-0.130992,46,276,576,6240
1644189949.376461,-0.009216,0.01001,-0.992493,0.266656,0.432366,-0.14626,55,274,580,6224
1644189949.424895,-0.010803,0.007324,-0.993652,0.205588,0.371298,-0.085191,53,281,580,6160
1644189949.473253,-0.008179,0.009155,-0.991272,0.342992,0.356031,-0.008855,48,276,587,6224
1644189949.521672,-0.008789,0.007446,-0.989014,0.098718,0.279695,0.082748,54,287,584,6240
1644189949.570057,-0.00885,0.006531,-0.993774,0.144519,0.356031,-0.100458,51,276,583,6256
1644189949.61846,-0.008301,0.007812,-0.992615,0.236122,0.508702,-0.115725,49,280,579,6240
1644189949.666841,-0.010498,0.009155,-0.992737,0.129252,0.340763,-0.100458,57,275,577,6288
1644189949.715242,-0.007751,0.009583,-0.994202,0.251389,0.462901,-0.054656,52,275,582,6240
1644189949.763631,-0.008972,0.007874,-0.990967,0.281924,0.539237,-0.14626,48,276,576,6240
1644189949.812026,-0.008423,0.010803,-0.992493,0.205588,0.417099,-0.222595,47,275,584,6224
1644189949.860404,-0.010803,0.007812,-0.990601,0.159786,0.310229,-0.130992,48,276,578,6112
1644189949.908823,-0.010437,0.008423,-0.993652,0.068183,0.417099,-0.085191,52,277,586,6240
1644189949.957618,-0.009094,0.008789,-0.990662,0.251389,0.325496,0.006412,41,281,597,6240
1644189950.065445,-0.007263,0.007812,-0.993835,0.175053,0.371298,-0.069924,47,270,586,6304
1644189950.105546,-0.008789,0.010681,-0.992249,0.327725,0.432366,-0.039389,52,265,596,6288
1644189950.150737,-0.008179,0.008118,-0.991882,0.220855,0.401832,-0.237863,43,269,576,6240
1644189950.199129,-0.008423,0.01123,-0.992004,0.266656,0.432366,-0.237863,47,280,579,6256
1644189950.247499,-0.008728,0.009155,-0.992615,0.251389,0.539237,-0.024122,53,279,585,6304
1644189950.295885,-0.008972,0.008179,-0.992798,0.144519,0.264427,-0.054656,52,268,586,6176
1644189950.344307,-0.005554,0.009766,-0.990417,0.266656,0.310229,0.021679,46,279,597,6256
1644189950.392712,-0.011963,0.008179,-0.995056,0.312458,0.401832,-0.130992,54,270,584,6224
1644189950.441101,-0.012634,0.008911,-0.993286,0.098718,0.386565,-0.039389,51,269,587,6224
1644189950.48951,-0.010132,0.009338,-0.992615,0.144519,0.264427,-0.100458,53,281,580,6240
1644189950.537876,-0.010315,0.01178,-0.991943,0.159786,0.432366,-0.100458,45,268,593,6256
1644189950.586273,-0.009888,0.00946,-0.993225,0.220855,0.401832,-0.054656,43,283,587,6224
1644189950.634672,-0.008728,0.008057,-0.991028,0.068183,0.462901,-0.115725,52,275,589,6224
1644189950.683093,-0.008606,0.008423,-0.994629,0.205588,0.386565,-0.100458,59,270,589,6240
1644189950.733052,-0.008667,0.008057,-0.993225,0.144519,0.401832,-0.14626,62,276,580,6128
1644189950.783329,-0.009033,0.009033,-0.991394,0.205588,0.478168,-0.176794,52,275,579,6224
1644189950.829289,-0.008484,0.008423,-0.991028,0.251389,0.401832,-0.085191,45,275,586,6240
1644189950.925373,-0.009949,0.008606,-0.99231,0.037649,0.417099,-0.14626,54,280,572,6304
1644189950.973464,-0.007996,0.007446,-0.993591,0.190321,0.523969,0.067481,45,265,584,6192
1644189951.021856,-0.010986,0.009827,-0.992859,0.373527,0.447634,-0.207328,51,269,592,6192
1644189951.070294,-0.006653,0.009827,-0.992615,0.388794,0.493435,-0.100458,54,273,591,6224
1644189951.118583,-0.009155,0.007202,-0.991333,0.113985,0.264427,-0.130992,55,271,583,6224
1644189951.16698,-0.005981,0.009827,-0.993286,0.098718,0.417099,-0.192061,49,277,591,6256
1644189951.215368,-0.008606,0.009766,-0.992432,0.220855,0.569771,-0.14626,48,274,585,6240
1644189951.263773,-0.011658,0.008728,-0.990601,0.220855,0.386565,-0.100458,52,277,593,6256
1644189951.312196,-0.011169,0.012085,-0.994568,0.251389,0.371298,-0.161527,54,277,579,6240
1644189951.360558,-0.006836,0.009705,-0.990479,0.129252,0.462901,-0.25313,51,276,587,6192
1644189951.408953,-0.006104,0.007141,-0.990967,0.113985,0.432366,-0.069924,53,281,585,6224
1644189951.457348,-0.007812,0.008911,-0.991943,0.312458,0.340763,-0.14626,51,281,594,6192
1644189951.505744,-0.008545,0.012207,-0.991516,0.251389,0.294962,-0.008855,48,281,583,6256
1644189951.554137,-0.007568,0.01001,-0.993591,0.266656,0.356031,-0.176794,52,282,596,6224
1644189951.602556,-0.009766,0.008301,-0.994141,0.068183,0.294962,-0.054656,49,273,584,6224
1644189951.650917,-0.010071,0.008667,-0.994873,0.327725,0.462901,-0.14626,48,274,585,6240
1644189951.699319,-0.00824,0.007019,-0.993103,0.144519,0.371298,-0.176794,49,277,589,6192
1644189951.747666,-0.009216,0.008179,-0.991333,0.129252,0.371298,-0.024122,48,286,580,6224
1644189951.796101,-0.009277,0.011047,-0.99353,0.297191,0.401832,-0.115725,42,277,593,6288
1644189951.84525,-0.008789,0.006653,-0.992737,0.220855,0.447634,0.021679,51,269,578,6240
1644189951.896204,-0.008728,0.008057,-0.993042,0.068183,0.539237,-0.207328,42,275,584,6224
1644189951.946763,-0.00946,0.010742,-0.994385,0.175053,0.432366,-0.176794,60,271,590,6256
1644189951.991015,-0.011902,0.008362,-0.993347,0.144519,0.401832,-0.14626,49,273,584,6224
1644189952.08663,-0.010071,0.009338,-0.991882,0.236122,0.432366,-0.024122,52,270,582,6224
1644189952.134899,-0.009216,0.010925,-0.990967,0.266656,0.371298,-0.283664,47,268,582,6256
1644189952.183266,-0.009949,0.010498,-0.992493,0.159786,0.417099,-0.130992,46,281,587,6224
1644189952.231625,-0.00769,0.010864,-0.992432,0.175053,0.447634,-0.100458,55,291,590,6224
1644189952.280008,-0.00824,0.005554,-0.988831,0.190321,0.523969,-0.14626,49,268,589,6224
1644189952.328417,-0.009277,0.010681,-0.988892,0.266656,0.523969,-0.039389,49,268,570,6240
1644189952.376801,-0.007996,0.00885,-0.991394,0.251389,0.417099,-0.069924,48,271,587,6240
1644189952.425196,-0.008423,0.010254,-0.992859,0.327725,0.401832,0.021679,36,276,583,6256
1644189952.473601,-0.007935,0.007507,-0.992493,0.08345,0.539237,-0.100458,52,273,586,6240
1644189952.521996,-0.006042,0.011719,-0.991394,0.175053,0.417099,-0.039389,47,270,582,6240
1644189952.570389,-0.008972,0.007141,-0.993408,0.297191,0.310229,-0.024122,54,270,582,6192
1644189952.618779,-0.011414,0.008179,-0.99292,0.175053,0.340763,-0.054656,48,269,580,6224
1644189952.667173,-0.008911,0.008667,-0.993286,0.266656,0.401832,-0.14626,47,285,586,6240
1644189952.715561,-0.008545,0.00824,-0.993042,0.35826,0.478168,0.006412,51,274,576,6240
1644189952.763951,-0.008789,0.008728,-0.99353,0.297191,0.356031,-0.054656,52,280,579,6224
1644189952.812359,-0.008057,0.009583,-0.992371,0.251389,0.447634,-0.100458,62,276,583,6240
1644189952.860783,-0.009766,0.010925,-0.992737,0.007115,0.356031,-0.069924,47,277,586,6240
1644189952.909173,-0.008972,0.010864,-0.991272,0.236122,0.401832,0.006412,51,279,587,6176
1644189952.957587,-0.01178,0.008789,-0.993896,0.220855,0.417099,-0.085191,52,273,584,6240
1644189953.007047,-0.007996,0.007874,-0.990234,0.312458,0.310229,-0.085191,52,280,593,6288
1644189953.105203,-0.008728,0.008789,-0.990417,0.159786,0.462901,-0.176794,52,270,582,6240
1644189953.151124,-0.008423,0.011108,-0.993652,0.281924,0.401832,-0.130992,62,271,580,6240
1644189953.199487,-0.010315,0.010925,-0.993958,0.052916,0.294962,-0.222595,46,264,578,6192
1644189953.24786,-0.009033,0.008362,-0.992432,0.297191,0.233893,-0.130992,49,285,586,6224
1644189953.29628,-0.007446,0.010071,-0.992798,0.281924,0.462901,-0.100458,43,274,583,6224
1644189953.344731,-0.015076,0.00769,-0.994629,0.266656,0.462901,-0.192061,49,282,591,6224
1644189953.39308,-0.009705,0.007935,-0.992554,0.236122,0.432366,-0.100458,51,274,580,6224
1644189953.441465,-0.010193,0.00531,-0.991821,0.220855,0.539237,0.052214,42,280,584,6224
1644189953.489878,-0.008545,0.009399,-0.992065,0.342992,0.340763,-0.100458,59,273,572,6176
1644189953.538263,-0.008728,0.00647,-0.989746,0.312458,0.417099,-0.176794,51,279,587,6160
1644189953.586633,-0.01178,0.005737,-0.995789,0.220855,0.508702,-0.115725,46,271,587,6240
1644189953.635071,-0.01001,0.009766,-0.99408,0.281924,0.508702,-0.024122,43,274,599,6160
1644189953.683664,-0.008972,0.00531,-0.990967,0.266656,0.585038,-0.192061,55,274,585,6224
1644189953.734083,-0.00946,0.009155,-0.992981,0.129252,0.478168,-0.039389,45,280,579,6224
1644189953.784294,-0.006775,0.009888,-0.990112,0.297191,0.432366,0.036947,55,276,592,6224
1644189953.829457,-0.010071,0.007812,-0.991028,0.220855,0.310229,-0.100458,45,277,584,6240
1644189953.925442,-0.008057,0.012512,-0.993408,0.236122,0.417099,-0.100458,45,280,577,6192
1644189953.973829,-0.011841,0.012573,-0.991577,0.144519,0.508702,-0.207328,49,270,579,6240
1644189954.022424,-0.009399,0.010315,-0.990784,0.342992,0.401832,-0.085191,39,279,587,6192
1644189954.072977,-0.010925,0.00946,-0.992554,0.281924,0.417099,-0.054656,48,281,592,6224
1644189954.118905,-0.009521,0.010193,-0.989502,0.266656,0.569771,-0.237863,53,274,597,6224
1644189954.167348,-0.008484,0.009644,-0.993042,0.266656,0.417099,0.113282,48,266,585,6240
1644189954.215735,-0.008789,0.011292,-0.989807,0.251389,0.294962,-0.25313,52,270,584,6192
1644189954.264147,-0.006714,0.01001,-0.993896,0.175053,0.371298,-0.008855,54,260,579,6288
1644189954.312514,-0.008301,0.009705,-0.993408,0.266656,0.569771,0.052214,53,274,594,6224
1644189954.360936,-0.009521,0.009033,-0.98999,0.419328,0.523969,-0.207328,55,269,578,6256
1644189954.409324,-0.012695,0.007263,-0.99292,0.281924,0.447634,-0.192061,46,274,578,6240
1644189954.45772,-0.010681,0.006897,-0.991211,0.175053,0.340763,-0.130992,46,269,590,6224
1644189954.506073,-0.008728,0.00769,-0.993591,0.388794,0.340763,-0.237863,53,271,592,6192
1644189954.55452,-0.010132,0.008606,-0.992554,0.190321,0.325496,-0.024122,57,265,579,6224
1644189954.60291,-0.009583,0.011169,-0.990601,0.236122,0.401832,0.052214,46,279,580,6176
1644189954.651285,-0.006714,0.008423,-0.990845,0.08345,0.432366,-0.115725,42,280,586,6176
1644189954.699666,-0.009338,0.012756,-0.992859,0.144519,0.310229,-0.024122,53,264,590,6224
1644189954.748047,-0.007507,0.008728,-0.993347,0.144519,0.294962,-0.039389,57,273,582,6256
1644189954.796709,-0.007751,0.011536,-0.992371,0.159786,0.417099,-0.130992,42,277,589,6224
1644189954.845708,-0.007385,0.009216,-0.992249,0.342992,0.356031,-0.085191,45,282,589,6160
1644189954.896012,-0.010071,0.00824,-0.991028,0.312458,0.462901,-0.054656,41,276,587,6240
1644189954.946461,-0.008606,0.010254,-0.99408,0.312458,0.569771,0.006412,45,270,593,6176
1644189954.990849,-0.008057,0.010986,-0.988892,0.175053,0.63084,0.021679,53,262,580,6256
1644189955.087981,-0.007202,0.008789,-0.992798,0.037649,0.340763,-0.130992,54,277,591,6192
1644189955.135268,-0.006958,0.010437,-0.991943,0.312458,0.401832,-0.130992,45,277,579,6240
1644189955.183601,-0.008423,0.009094,-0.993469,0.281924,0.203359,-0.25313,49,275,579,6192
1644189955.231988,-0.006714,0.01062,-0.992371,0.113985,0.356031,-0.039389,58,271,583,6192
1644189955.280366,-0.010437,0.010315,-0.989441,0.236122,0.264427,-0.192061,48,274,576,6224
1644189955.328779,-0.007141,0.005127,-0.993713,0.190321,0.539237,-0.054656,52,287,579,6240
1644189955.377171,-0.008911,0.008301,-0.993408,0.205588,0.310229,-0.161527,51,279,580,6224
1644189955.425566,-0.009949,0.012451,-0.99176,0.251389,0.523969,0.082748,54,273,579,6192
1644189955.47397,-0.006348,0.008667,-0.993103,0.220855,0.417099,-0.176794,58,266,583,6240
1644189955.522382,-0.010925,0.005066,-0.993164,0.281924,0.371298,0.006412,53,274,585,6224
1644189955.570753,-0.009888,0.008057,-0.994263,0.113985,0.401832,-0.14626,48,279,585,6160
1644189955.619139,-0.009583,0.005798,-0.992859,0.312458,0.523969,-0.008855,51,288,587,6240
1644189955.667529,-0.007507,0.00769,-0.992249,0.46513,0.157557,-0.115725,52,275,582,6224
1644189955.715918,-0.011414,0.011108,-0.991394,0.281924,0.462901,-0.008855,47,280,589,6240
1644189955.764305,-0.007935,0.008057,-0.994934,0.220855,0.386565,-0.024122,40,282,577,6224
1644189955.812777,-0.009033,0.009644,-0.991211,0.220855,0.447634,-0.054656,42,273,591,6256
1644189955.861147,-0.011719,0.009583,-0.992676,0.220855,0.63084,-0.069924,51,276,590,6256
1644189955.909557,-0.010071,0.011047,-0.992676,0.08345,0.417099,-0.039389,40,280,586,6224
1644189955.958467,-0.007812,0.009705,-0.991882,0.175053,0.539237,-0.192061,51,271,592,6240
1644189956.067534,-0.009766,0.010925,-0.991211,0.236122,0.401832,0.113282,49,277,593,6224
1644189956.105243,-0.005981,0.008606,-0.991821,0.144519,0.417099,-0.024122,55,274,583,6256
1644189956.15147,-0.009399,0.010437,-0.992188,0.236122,0.401832,-0.130992,54,277,586,6192
1644189956.199848,-0.010681,0.011475,-0.990234,0.35826,0.539237,-0.039389,55,276,592,6192
1644189956.248231,-0.009399,0.010376,-0.990601,0.037649,0.417099,-0.14626,45,273,584,6240
1644189956.296636,-0.010315,0.006226,-0.992981,0.281924,0.371298,-0.115725,48,281,592,6240
1644189956.34516,-0.00769,0.009705,-0.991211,0.175053,0.401832,0.036947,42,277,584,6256
1644189956.393451,-0.009644,0.007446,-0.992432,0.007115,0.356031,0.021679,45,263,579,6192
1644189956.441822,-0.006653,0.011108,-0.991333,0.205588,0.432366,-0.176794,48,279,592,6240
1644189956.490215,-0.006714,0.01001,-0.994446,0.312458,0.462901,0.052214,45,275,589,6256
1644189956.53861,-0.009827,0.009277,-0.992188,0.098718,0.417099,-0.024122,38,280,582,6240
1644189956.587,-0.010132,0.01062,-0.994568,0.35826,0.279695,-0.161527,42,273,589,6192
1644189956.635685,-0.010193,0.008789,-0.989014,0.113985,0.310229,-0.130992,49,270,593,6224
1644189956.685078,-0.008362,0.009094,-0.992615,0.129252,0.386565,-0.130992,57,275,579,6240
1644189956.735404,-0.006653,0.011047,-0.993958,0.312458,0.539237,-0.14626,55,274,590,6256
1644189956.785517,-0.009155,0.007629,-0.990967,0.159786,0.340763,-0.008855,47,273,582,6128
1644189956.8774,-0.01001,0.012939,-0.992004,0.190321,0.432366,-0.115725,54,270,584,6192
1644189956.925774,-0.011169,0.009521,-0.993286,0.251389,0.432366,0.021679,46,281,585,6224
1644189956.974202,-0.008301,0.010376,-0.988708,0.388794,0.523969,-0.085191,42,265,584,6224
1644189957.022564,-0.00885,0.006409,-0.991821,0.373527,0.493435,-0.069924,43,276,576,6192
1644189957.073027,-0.008911,0.01123,-0.989197,0.068183,0.493435,-0.039389,66,280,582,6224
1644189957.119272,-0.00824,0.010498,-0.989746,0.144519,0.340763,-0.008855,55,279,585,6256
1644189957.167708,-0.008423,0.010681,-0.989502,0.159786,0.356031,-0.039389,41,279,585,6224
1644189957.216111,-0.010376,0.007324,-0.993042,0.190321,0.401832,-0.237863,52,277,579,6256
1644189957.264522,-0.007507,0.010498,-0.993225,0.220855,0.310229,-0.130992,48,271,590,6224
1644189957.31289,-0.009583,0.012268,-0.990906,0.113985,0.447634,-0.024122,46,293,580,6240
1644189957.361286,-0.006348,0.010071,-0.991882,0.297191,0.554504,-0.161527,55,279,592,6256
1644189957.409677,-0.007935,0.012268,-0.99353,0.266656,0.401832,-0.115725,45,287,582,6224
1644189957.458073,-0.008484,0.007446,-0.990479,0.129252,0.447634,-0.130992,53,266,587,6256
1644189957.506446,-0.012573,0.009949,-0.991455,0.175053,0.356031,-0.222595,52,277,575,6224
1644189957.554872,-0.008728,0.010498,-0.991638,0.251389,0.432366,0.021679,47,290,584,6256
1644189957.603249,-0.007568,0.009888,-0.991089,0.129252,0.523969,-0.069924,39,279,583,6224
1644189957.651614,-0.006226,0.012024,-0.991272,0.251389,0.386565,-0.085191,40,282,582,6240
1644189957.700038,-0.006714,0.008911,-0.993408,0.342992,0.417099,0.021679,46,266,573,6224
1644189957.748406,-0.007568,0.009583,-0.993958,0.052916,0.432366,-0.054656,55,276,585,6176
1644189957.796983,-0.009888,0.012207,-0.994629,0.129252,0.310229,-0.115725,53,276,585,6160
1644189957.848203,-0.011169,0.010803,-0.992432,0.419328,0.386565,-0.14626,58,271,580,6240
1644189957.899059,-0.010986,0.009949,-0.990173,0.205588,0.340763,-0.237863,45,280,584,6288
1644189957.943252,-0.010254,0.007385,-0.993713,0.129252,0.371298,0.021679,49,275,584,6224
1644189958.038804,-0.007263,0.010132,-0.990479,0.373527,0.386565,0.006412,45,282,584,6256
1644189958.087536,-0.006897,0.011475,-0.99231,0.129252,0.493435,-0.069924,36,274,585,6224
1644189958.135596,-0.010132,0.009155,-0.99292,0.236122,0.432366,-0.039389,49,277,584,6176
1644189958.183982,-0.009644,0.012878,-0.988892,0.159786,0.447634,-0.039389,48,276,587,6288
1644189958.232373,-0.009399,0.010559,-0.990967,0.190321,0.462901,-0.100458,58,271,592,6224
1644189958.280766,-0.008301,0.010559,-0.99115,0.373527,0.279695,-0.008855,48,279,585,6192
1644189958.329155,-0.007202,0.00647,-0.992004,0.190321,0.386565,-0.054656,49,280,575,6224
1644189958.377558,-0.009583,0.008728,-0.992676,0.175053,0.508702,-0.054656,48,271,576,6224
1644189958.425938,-0.010437,0.006348,-0.993958,0.251389,0.432366,-0.130992,45,265,584,6176
1644189958.474359,-0.011292,0.011536,-0.990295,0.129252,0.478168,-0.176794,45,273,596,6224
1644189958.522743,-0.009521,0.009705,-0.992737,0.175053,0.508702,-0.130992,45,273,577,6224
1644189958.571098,-0.011169,0.01001,-0.990051,0.266656,0.401832,-0.130992,36,271,587,6192
1644189958.619506,-0.011658,0.008728,-0.995056,0.159786,0.279695,-0.008855,42,277,586,6288
1644189958.6679,-0.00885,0.009766,-0.989929,0.098718,0.310229,-0.085191,55,274,587,6240
1644189958.716269,-0.008789,0.012634,-0.990173,0.052916,0.279695,-0.115725,49,277,593,6240
1644189958.7647,-0.007324,0.008789,-0.992493,0.08345,0.447634,-0.192061,47,280,593,6224
1644189958.813104,-0.009216,0.009827,-0.994812,0.144519,0.310229,-0.024122,48,283,592,6256
1644189958.861515,-0.009827,0.01239,-0.99115,0.297191,0.523969,-0.130992,58,266,583,6240
1644189958.910339,-0.006958,0.004395,-0.99115,0.281924,0.523969,-0.054656,52,275,586,6288
1644189958.961051,-0.008179,0.006592,-0.990051,0.098718,0.310229,-0.024122,47,277,596,6256
1644189959.061776,-0.007263,0.008667,-0.991699,0.342992,0.432366,-0.161527,57,280,589,6192
1644189959.107285,-0.009583,0.009766,-0.992981,0.129252,0.478168,-0.207328,58,281,594,6192
1644189959.151842,-0.006592,0.007996,-0.993164,0.220855,0.294962,-0.039389,53,271,585,6192
1644189959.200223,-0.012451,0.010498,-0.992859,0.388794,0.493435,0.098015,58,276,569,6192
1644189959.248597,-0.009521,0.009033,-0.993591,0.434595,0.386565,-0.039389,46,288,578,6240
1644189959.297015,-0.00769,0.009399,-0.990234,0.297191,0.462901,-0.069924,41,269,583,6288
1644189959.345399,-0.008667,0.011047,-0.991211,0.266656,0.493435,-0.176794,52,275,579,6240
1644189959.393818,-0.008484,0.00885,-0.992798,0.281924,0.401832,0.067481,53,279,580,6240
1644189959.442233,-0.008606,0.010437,-0.991882,0.266656,0.386565,-0.069924,42,280,575,6224
1644189959.490612,-0.008301,0.009338,-0.990845,0.266656,0.539237,-0.115725,54,275,596,6176
1644189959.53897,-0.005676,0.006165,-0.98999,0.220855,0.371298,-0.039389,49,287,586,6256
1644189959.587337,-0.008301,0.008789,-0.988159,0.297191,0.462901,-0.085191,49,270,584,6240
1644189959.635761,-0.008606,0.008545,-0.994263,0.205588,0.508702,-0.115725,52,282,596,6224
1644189959.684153,-0.006958,0.011108,-0.993652,0.297191,0.417099,-0.039389,58,281,587,6240
1644189959.732535,-0.010437,0.010193,-0.992249,0.373527,0.371298,-0.115725,47,273,584,6224
1644189959.780951,-0.006226,0.007263,-0.989685,0.068183,0.462901,-0.14626,47,275,586,6240
1644189959.830914,-0.009033,0.009827,-0.993408,0.08345,0.432366,-0.115725,61,275,584,6240
1644189959.881589,-0.007507,0.012268,-0.991394,0.327725,0.478168,-0.207328,53,276,592,6256
1644189959.931689,-0.006226,0.007751,-0.991943,0.251389,0.386565,-0.069924,59,270,586,6224
1644189959.97645,-0.007568,0.009338,-0.994934,0.404061,0.401832,-0.14626,48,281,585,6224
1644189960.071406,-0.012024,0.009705,-0.990662,0.388794,0.386565,-0.085191,47,277,589,6240
1644189960.119692,-0.01001,0.009888,-0.9953,0.022382,0.371298,-0.024122,54,275,575,6224
1644189960.16806,-0.007141,0.011597,-0.99292,0.220855,0.447634,-0.130992,55,276,585,6240
1644189960.216483,-0.008606,0.010498,-0.995667,0.281924,0.340763,-0.161527,51,279,576,6288
1644189960.264887,-0.009888,0.010681,-0.993896,0.281924,0.432366,-0.054656,55,279,587,6160
1644189960.313249,-0.011597,0.010559,-0.991089,0.281924,0.432366,-0.069924,60,271,578,6256
1644189960.361667,-0.010193,0.011108,-0.990173,0.220855,0.371298,-0.14626,59,275,575,6224
1644189960.410052,-0.008911,0.00824,-0.992065,0.266656,0.310229,-0.115725,51,276,566,6240
1644189960.458449,-0.007019,0.008911,-0.990356,0.281924,0.462901,-0.176794,43,274,585,6224
1644189960.506845,-0.011108,0.008728,-0.989929,0.220855,0.401832,-0.069924,57,270,582,6240
1644189960.55528,-0.006226,0.01123,-0.991028,0.175053,0.371298,-0.054656,54,280,586,6224
1644189960.603605,-0.005249,0.012085,-0.992188,0.373527,0.508702,-0.024122,58,264,585,6224
1644189960.652015,-0.012512,0.011841,-0.995667,0.281924,0.447634,-0.085191,49,270,577,6192
1644189960.700411,-0.009094,0.00824,-0.992493,0.236122,0.279695,-0.14626,52,275,589,6160
1644189960.748797,-0.009277,0.009216,-0.990784,0.404061,0.432366,-0.085191,52,265,589,6240
1644189960.79724,-0.00946,0.01001,-0.98999,0.251389,0.218626,-0.100458,45,287,586,6160
1644189960.845632,-0.007874,0.009766,-0.992371,0.205588,0.539237,-0.069924,49,282,579,6240
1644189960.894384,-0.011841,0.007935,-0.991028,0.281924,0.447634,-0.024122,52,280,586,6256
1644189960.942446,-0.007935,0.011963,-0.991577,0.266656,0.462901,0.006412,45,280,596,6224
1644189960.992484,-0.006653,0.006897,-0.990417,0.190321,0.203359,-0.054656,51,271,585,6240
1644189961.042689,-0.00769,0.011963,-0.990967,0.419328,0.462901,-0.039389,42,275,589,6240
1644189961.089728,-0.006714,0.009644,-0.993103,0.205588,0.417099,-0.039389,52,275,577,6256
1644189961.137437,-0.011536,0.009827,-0.99231,0.342992,0.585038,-0.069924,57,285,589,6240
1644189961.232724,-0.008118,0.009583,-0.992615,0.312458,0.493435,-0.054656,46,276,578,6224
1644189961.281101,-0.008362,0.009644,-0.993652,0.297191,0.325496,-0.115725,51,274,576,6192
1644189961.329506,-0.008057,0.008606,-0.994019,0.297191,0.462901,-0.008855,59,275,575,6224
1644189961.377906,-0.00885,0.008423,-0.987671,0.113985,0.432366,-0.192061,48,271,580,6224
1644189961.426301,-0.010559,0.00946,-0.990051,0.342992,0.493435,-0.024122,45,270,584,6224
1644189961.474703,-0.008545,0.007996,-0.99231,0.190321,0.401832,0.006412,47,270,584,6192
1644189961.523102,-0.009033,0.011169,-0.993347,0.251389,0.386565,-0.14626,60,279,592,6240
1644189961.571479,-0.008362,0.011841,-0.991089,0.342992,0.478168,-0.024122,58,271,571,6192
1644189961.619853,-0.010132,0.008301,-0.991089,0.388794,0.432366,-0.222595,46,279,583,6224
1644189961.668275,-0.006775,0.007629,-0.991943,0.205588,0.432366,-0.054656,52,277,577,6304
1644189961.716671,-0.009155,0.006287,-0.989563,0.144519,0.478168,-0.069924,58,266,587,6224
1644189961.76514,-0.010193,0.010315,-0.990723,0.175053,0.24916,-0.008855,48,274,585,6192
1644189961.813509,-0.005676,0.007202,-0.991699,0.312458,0.554504,-0.024122,48,271,580,6192
1644189961.861848,-0.008179,0.009521,-0.989563,0.236122,0.432366,-0.069924,49,275,577,6176
1644189961.910287,-0.008423,0.008545,-0.991211,0.281924,0.447634,-0.024122,51,279,587,6160
1644189961.958668,-0.006226,0.008484,-0.992798,0.236122,0.310229,-0.100458,52,275,575,6256
1644189962.007028,-0.008911,0.010132,-0.991455,0.037649,0.508702,-0.130992,59,275,593,6240
1644189962.068987,-0.007324,0.009033,-0.992981,0.205588,0.478168,-0.054656,45,268,589,6288
1644189962.106091,-0.005615,0.00769,-0.991943,0.251389,0.340763,-0.024122,53,281,580,6224
1644189962.152326,-0.008301,0.010254,-0.991333,0.113985,0.478168,-0.024122,54,280,596,6192
1644189962.202358,-0.011353,0.010132,-0.991089,0.220855,0.340763,-0.25313,35,275,582,6256
1644189962.252594,-0.007141,0.011963,-0.991577,0.327725,0.310229,-0.008855,52,275,586,6224
1644189962.297894,-0.008545,0.00885,-0.990112,0.251389,0.401832,0.006412,48,283,583,6304
1644189962.39418,-0.008972,0.010498,-0.990295,0.159786,0.401832,-0.100458,54,275,577,6240
1644189962.442569,-0.00708,0.012329,-0.994751,0.159786,0.386565,0.036947,47,270,582,6256
1644189962.490928,-0.008972,0.00824,-0.993958,0.312458,0.493435,0.021679,45,265,582,6336
1644189962.539327,-0.006775,0.008789,-0.990295,0.281924,0.432366,-0.176794,55,279,578,6240
1644189962.58773,-0.009155,0.009216,-0.992676,0.220855,0.340763,-0.115725,47,273,579,6160
1644189962.636124,-0.009644,0.009216,-0.991882,0.251389,0.401832,-0.085191,43,286,580,6176
1644189962.684527,-0.00531,0.007874,-0.991272,0.281924,0.356031,-0.176794,47,273,575,6288
1644189962.732933,-0.010681,0.010132,-0.993225,0.281924,0.356031,-0.100458,55,274,583,6160
1644189962.781308,-0.009644,0.008545,-0.992432,0.297191,0.401832,-0.130992,62,281,585,6240
1644189962.829741,-0.006531,0.011108,-0.991577,0.251389,0.417099,-0.039389,49,277,584,6240
1644189962.878134,-0.007996,0.009338,-0.992493,0.327725,0.371298,-0.085191,41,281,585,6224
1644189962.926531,-0.006714,0.008972,-0.991272,0.373527,0.279695,-0.039389,49,280,584,6240
1644189962.974936,-0.01001,0.009888,-0.991028,0.129252,0.356031,-0.237863,55,274,592,6224
1644189963.023314,-0.008667,0.009216,-0.99231,0.159786,0.417099,0.021679,52,275,584,6224
1644189963.084484,-0.009583,0.010681,-0.990234,0.144519,0.508702,-0.100458,65,274,585,6256
1644189963.121238,-0.009583,0.008484,-0.993713,0.266656,0.493435,-0.161527,52,277,582,6256
1644189963.171519,-0.006592,0.010864,-0.991333,0.35826,0.356031,-0.054656,47,282,589,6240
1644189963.221677,-0.007629,0.009583,-0.990479,0.175053,0.508702,-0.14626,52,280,579,6176
1644189963.266645,-0.007874,0.010254,-0.990417,0.144519,0.401832,-0.100458,48,276,587,6224
1644189963.362002,-0.009644,0.011047,-0.990967,0.236122,0.310229,0.006412,59,273,591,6224
1644189963.41042,-0.008179,0.01239,-0.994934,0.129252,0.432366,-0.085191,52,268,577,6192
1644189963.458799,-0.012146,0.012207,-0.994019,0.205588,0.417099,-0.054656,49,282,575,6192
1644189963.507181,-0.011292,0.012817,-0.993591,0.068183,0.356031,-0.024122,55,274,583,6224
1644189963.555592,-0.009277,0.009033,-0.992676,0.052916,0.401832,0.052214,45,280,582,6224
1644189963.603992,-0.007324,0.008606,-0.990967,0.281924,0.432366,0.082748,46,271,576,6224
1644189963.6524,-0.009827,0.009521,-0.990356,0.236122,0.24916,0.159084,48,271,585,6256
1644189963.700783,-0.007385,0.010742,-0.990662,0.220855,0.310229,0.021679,55,281,587,6176
1644189963.749142,-0.008423,0.011414,-0.992065,-0.02342,0.432366,-0.100458,47,260,577,6160
1644189963.797573,-0.010071,0.010742,-0.990112,0.236122,0.340763,-0.237863,46,281,587,6224
1644189963.846001,-0.009583,0.011353,-0.991577,0.205588,0.310229,-0.207328,54,268,579,6192
1644189963.894405,-0.005493,0.010742,-0.99231,0.388794,0.279695,-0.100458,52,280,584,6240
1644189963.942781,-0.009583,0.009338,-0.992065,0.312458,0.417099,-0.100458,43,283,590,6240
1644189963.991164,-0.009155,0.009338,-0.995056,0.327725,0.371298,-0.069924,52,280,586,6288
1644189964.039569,-0.01062,0.008545,-0.993042,0.144519,0.386565,-0.161527,43,274,590,6224
1644189964.087997,-0.006592,0.010925,-0.991272,0.251389,0.478168,-0.008855,52,270,600,6256
1644189964.136324,-0.006226,0.009094,-0.99469,0.144519,0.478168,-0.115725,49,270,589,6128
1644189964.184714,-0.008423,0.004089,-0.992981,0.236122,0.63084,-0.25313,43,274,583,6256
1644189964.233114,-0.007568,0.010864,-0.989868,0.144519,0.478168,-0.054656,34,283,580,6192
1644189964.281674,-0.009888,0.008362,-0.988098,0.342992,0.417099,0.12855,42,280,582,6240
1644189964.332263,-0.007568,0.009399,-0.993958,0.251389,0.478168,0.036947,55,279,583,6224
1644189964.382502,-0.007263,0.008057,-0.990356,0.205588,0.340763,0.052214,47,282,586,6128
1644189964.427458,-0.01001,0.009827,-0.990601,0.159786,0.432366,-0.069924,53,266,580,6304
1644189964.523483,-0.007996,0.008789,-0.990601,0.35826,0.523969,-0.161527,49,280,579,6240
1644189964.571839,-0.010864,0.00946,-0.992554,0.297191,0.478168,-0.069924,58,276,585,6240
1644189964.620244,-0.00885,0.010803,-0.991943,0.281924,0.462901,0.052214,52,282,570,6240
1644189964.668633,-0.011414,0.01178,-0.990784,0.373527,0.310229,0.021679,57,277,586,6192
1644189964.717028,-0.008423,0.010498,-0.991333,0.388794,0.432366,0.006412,46,274,585,6256
1644189964.765413,-0.008606,0.008667,-0.991455,0.35826,0.294962,-0.054656,41,293,590,6224
1644189964.813828,-0.008789,0.007568,-0.990906,0.175053,0.24916,-0.161527,41,279,585,6224
1644189964.862273,-0.009644,0.010437,-0.992126,0.220855,0.264427,-0.054656,49,273,586,6240
1644189964.910634,-0.010315,0.008728,-0.99231,0.159786,0.432366,-0.14626,48,271,583,6256
1644189964.959028,-0.006592,0.010437,-0.993469,0.144519,0.539237,-0.039389,42,277,584,6160
1644189965.007428,-0.010376,0.010437,-0.992981,0.159786,0.310229,0.036947,53,276,592,6224
1644189965.062517,-0.008789,0.009949,-0.992554,0.129252,0.371298,-0.115725,52,277,584,6224
1644189965.104234,-0.008423,0.010376,-0.99231,0.404061,0.478168,-0.039389,51,279,590,6192
1644189965.152585,-0.009277,0.009521,-0.991089,0.144519,0.417099,-0.14626,45,282,582,6224
1644189965.200931,-0.010437,0.008972,-0.992859,0.266656,0.371298,-0.100458,53,281,590,6224
1644189965.249362,-0.007324,0.006165,-0.99408,0.068183,0.569771,-0.192061,49,275,591,6176
1644189965.297739,-0.008789,0.009766,-0.993958,0.144519,0.356031,-0.069924,48,279,580,6240
1644189965.346113,-0.009644,0.007751,-0.993225,0.068183,0.447634,-0.024122,55,274,587,6192
1644189965.39452,-0.008789,0.007568,-0.992432,0.251389,0.340763,0.021679,35,268,572,6256
1644189965.44297,-0.008057,0.010437,-0.99176,0.342992,0.478168,-0.115725,41,264,583,6176
1644189965.493347,-0.011597,0.009216,-0.993347,0.251389,0.432366,-0.085191,40,273,579,6256
1644189965.543311,-0.009033,0.007751,-0.992126,0.190321,0.325496,-0.130992,46,274,583,6224
1644189965.588354,-0.008301,0.007263,-0.990967,0.342992,0.401832,-0.054656,54,277,582,6128
1644189965.684901,-0.005493,0.007751,-0.992554,0.236122,0.340763,0.021679,36,281,583,6224
1644189965.733305,-0.009094,0.010132,-0.994263,0.266656,0.432366,0.021679,42,280,591,6176
1644189965.781667,-0.009338,0.009216,-0.993408,0.297191,0.417099,-0.130992,46,288,578,6192
1644189965.83007,-0.00824,0.013184,-0.993591,0.342992,0.417099,-0.085191,52,273,577,6192
1644189965.878546,-0.010132,0.009094,-0.991211,0.144519,0.401832,-0.069924,51,279,587,6288
1644189965.926891,-0.010254,0.009644,-0.990356,0.098718,0.386565,-0.054656,40,268,589,6256
1644189965.975275,-0.008484,0.009766,-0.993774,0.327725,0.340763,-0.069924,43,269,590,6256
1644189966.023701,-0.010559,0.011108,-0.992065,0.220855,0.417099,0.052214,45,275,579,6224
1644189966.076297,-0.008179,0.009033,-0.992493,0.312458,0.432366,-0.069924,54,282,589,6240
1644189966.120493,-0.008423,0.010498,-0.994141,0.266656,0.325496,-0.069924,54,273,586,6304
1644189966.168821,-0.009338,0.010193,-0.991394,0.220855,0.462901,-0.314198,46,274,583,6256
1644189966.217211,-0.008728,0.008545,-0.994202,0.342992,0.386565,-0.008855,43,271,583,6176
1644189966.265611,-0.007324,0.005859,-0.992004,0.205588,0.432366,-0.161527,52,270,589,6192
1644189966.314011,-0.010742,0.009949,-0.993652,0.129252,0.600305,-0.161527,51,283,583,6240
1644189966.362397,-0.008972,0.009888,-0.994934,0.220855,0.462901,-0.085191,45,282,589,6224
1644189966.410777,-0.008667,0.008667,-0.992126,0.297191,0.493435,0.12855,48,266,585,6192
1644189966.459174,-0.011475,0.01062,-0.992126,0.266656,0.432366,-0.100458,51,281,583,6224
1644189966.507551,-0.011108,0.011292,-0.99231,0.266656,0.478168,-0.069924,54,273,584,6240
1644189966.555955,-0.008545,0.009399,-0.992981,0.236122,0.310229,-0.085191,48,281,585,6224
1644189966.604435,-0.008728,0.008484,-0.991089,0.266656,0.371298,-0.085191,53,279,576,6256
1644189966.655153,-0.01001,0.010071,-0.993042,0.052916,0.478168,-0.024122,43,271,585,6240
1644189966.705203,-0.007324,0.010437,-0.993347,0.251389,0.401832,-0.130992,52,275,582,6336
1644189966.750219,-0.009033,0.012939,-0.994873,0.190321,0.356031,-0.25313,41,274,590,6224
1644189966.846302,-0.007202,0.00769,-0.993164,0.373527,0.386565,-0.008855,49,277,593,6224
1644189966.894972,-0.009949,0.011047,-0.993591,0.281924,0.371298,-0.14626,55,274,590,6240
1644189966.943161,-0.009277,0.006775,-0.992859,0.113985,0.417099,-0.039389,49,280,589,6224
1644189966.991537,-0.007812,0.009521,-0.992798,0.266656,0.340763,-0.069924,46,271,578,6176
1644189967.039919,-0.007507,0.006592,-0.992371,0.251389,0.478168,-0.008855,43,279,587,6256
1644189967.088397,-0.00824,0.00708,-0.992371,0.327725,0.462901,-0.14626,49,280,591,6240
1644189967.136718,-0.00769,0.011414,-0.995728,0.342992,0.401832,-0.039389,55,274,583,6176
1644189967.185201,-0.011902,0.009827,-0.991699,0.266656,0.294962,-0.192061,51,283,590,6240
1644189967.233496,-0.007507,0.011353,-0.992859,0.022382,0.432366,-0.100458,54,270,586,6224
1644189967.281858,-0.007507,0.010681,-0.99176,0.037649,0.417099,-0.115725,47,273,589,6240
