epoch,acc_x,acc_y,acc_z,rot_x,rot_y,rot_z,mag_x,mag_y,mag_z,temp
1644159300.029769,-0.01355,0.010742,-0.99054,0.205588,0.447634,0.052214,35,282,577,5344
1644159300.082072,-0.01062,0.009399,-0.990417,0.312458,0.432366,-0.115725,55,274,580,5424
1644159300.126555,-0.011292,0.008667,-0.991577,0.251389,0.585038,-0.085191,51,274,580,5424
1644159300.174902,-0.010681,0.010498,-0.990417,0.266656,0.356031,-0.207328,53,271,578,5456
1644159300.223298,-0.01123,0.010132,-0.992493,0.251389,0.386565,-0.069924,57,275,575,5408
1644159300.271677,-0.007263,0.010803,-0.990662,0.297191,0.356031,-0.024122,51,276,585,5424
1644159300.320075,-0.013245,0.01062,-0.992981,0.281924,0.340763,-0.008855,46,274,571,5424
1644159300.368478,-0.00946,0.012451,-0.993958,0.312458,0.356031,-0.207328,42,275,568,5408
1644159300.416856,-0.010376,0.007812,-0.993958,0.129252,0.478168,-0.222595,46,274,578,5312
1644159300.465285,-0.010742,0.009277,-0.995422,0.281924,0.340763,-0.069924,58,283,576,5456
1644159300.513621,-0.006653,0.008911,-0.99231,0.312458,0.432366,-0.024122,52,280,570,5360
1644159300.562027,-0.013245,0.007935,-0.988647,0.342992,0.432366,-0.069924,49,280,575,5344
1644159300.610404,-0.011047,0.009033,-0.994019,0.205588,0.401832,-0.298931,48,274,576,5424
1644159300.658801,-0.012695,0.007812,-0.99353,0.129252,0.371298,-0.192061,49,287,572,5360
1644159300.707177,-0.01239,0.009521,-0.99469,0.266656,0.462901,-0.085191,54,280,572,5424
1644159300.755546,-0.009949,0.008484,-0.991516,0.113985,0.340763,-0.069924,48,281,573,5360
1644159300.80396,-0.01178,0.009338,-0.991882,0.129252,0.340763,0.021679,46,271,573,5360
1644159300.852846,-0.013916,0.008118,-0.992554,0.236122,0.386565,-0.100458,67,274,571,5344
1644159300.902689,-0.009644,0.00708,-0.99353,0.068183,0.447634,-0.161527,60,276,580,5408
1644159300.953149,-0.012207,0.007141,-0.99408,0.281924,0.462901,0.021679,55,274,569,5424
1644159301.055899,-0.010376,0.011047,-0.993469,0.220855,0.646107,-0.14626,46,264,571,5408
1644159301.09433,-0.013367,0.007874,-0.991272,0.037649,0.462901,0.021679,53,269,573,5344
1644159301.142745,-0.013367,0.011047,-0.991333,0.205588,0.447634,-0.130992,58,266,578,5344
1644159301.191077,-0.010803,0.007935,-0.994568,0.312458,0.569771,-0.069924,48,274,573,5456
1644159301.239469,-0.008301,0.01001,-0.991638,0.312458,0.417099,0.067481,45,275,572,5424
1644159301.287861,-0.010864,0.011963,-0.991577,0.190321,0.462901,-0.039389,47,275,577,5424
1644159301.336243,-0.010376,0.010315,-0.990906,0.175053,0.401832,-0.192061,51,269,573,5344
1644159301.384643,-0.008667,0.01001,-0.98877,0.281924,0.386565,-0.024122,47,273,572,5360
1644159301.433038,-0.010132,0.008301,-0.99176,0.251389,0.569771,0.067481,48,276,578,5424
1644159301.481415,-0.012756,0.00946,-0.994446,0.236122,0.386565,-0.008855,40,273,570,5424
1644159301.529767,-0.009583,0.006958,-0.990356,0.190321,0.493435,-0.039389,43,274,580,5408
1644159301.57819,-0.011597,0.009705,-0.988281,0.236122,0.417099,-0.130992,46,266,569,5456
1644159301.626598,-0.009766,0.010986,-0.991638,0.35826,0.478168,-0.130992,45,285,568,5376
1644159301.675407,-0.008667,0.007507,-0.991455,0.205588,0.279695,-0.069924,42,270,584,5344
1644159301.724163,-0.009033,0.010681,-0.991516,0.098718,0.447634,-0.176794,46,274,573,5424
1644159301.774771,-0.007996,0.011719,-0.994934,0.266656,0.356031,-0.069924,51,276,580,5424
1644159301.824842,-0.011902,0.011536,-0.991516,0.098718,0.447634,-0.100458,52,277,575,5424
1644159301.916982,-0.009644,0.008728,-0.99353,0.373527,0.401832,0.021679,55,269,566,5424
1644159301.965474,-0.008911,0.007019,-0.990112,0.205588,0.310229,-0.130992,47,280,579,5424
1644159302.013739,-0.00885,0.00885,-0.988098,0.113985,0.462901,-0.008855,55,281,580,5424
1644159302.062507,-0.009644,0.011475,-0.991394,0.281924,0.432366,-0.085191,47,263,586,5424
1644159302.110484,-0.008789,0.009705,-0.991333,0.190321,0.264427,-0.054656,49,277,572,5424
1644159302.158867,-0.009949,0.011963,-0.992493,0.205588,0.325496,-0.100458,52,268,565,5344
1644159302.207251,-0.011414,0.009949,-0.993347,0.159786,0.264427,-0.207328,51,271,569,5456
1644159302.255647,-0.011658,0.008789,-0.991089,0.113985,0.447634,-0.069924,39,279,573,5424
1644159302.304044,-0.011292,0.009766,-0.991333,0.159786,0.340763,0.036947,51,274,566,5408
1644159302.352437,-0.010437,0.010437,-0.991882,0.373527,0.523969,-0.054656,47,273,565,5360
1644159302.40081,-0.009644,0.009644,-0.991516,0.205588,0.493435,-0.222595,58,274,573,5408
1644159302.449201,-0.011597,0.009216,-0.991516,0.373527,0.432366,-0.176794,55,271,585,5360
1644159302.497594,-0.012695,0.011169,-0.991638,0.129252,0.371298,0.036947,54,275,575,5408
1644159302.545988,-0.014465,0.009399,-0.990906,0.159786,0.401832,-0.130992,55,279,578,5344
1644159302.594374,-0.012695,0.010437,-0.990417,0.113985,0.462901,-0.100458,47,280,575,5424
1644159302.642772,-0.010681,0.009155,-0.993042,0.281924,0.371298,-0.069924,48,271,576,5376
1644159302.691137,-0.012573,0.00946,-0.992676,0.251389,0.356031,-0.069924,58,286,576,5344
1644159302.739798,-0.012207,0.009155,-0.990295,0.35826,0.264427,-0.069924,54,287,572,5408
1644159302.789027,-0.011841,0.009766,-0.989197,0.373527,0.478168,-0.054656,45,268,575,5424
1644159302.839941,-0.007874,0.010986,-0.991882,0.129252,0.325496,0.021679,51,262,576,5408
1644159302.890389,-0.008667,0.008484,-0.992249,0.220855,0.417099,-0.069924,48,286,576,5360
1644159302.981521,-0.009338,0.006348,-0.990906,0.266656,0.432366,-0.176794,54,280,570,5408
1644159303.029891,-0.009888,0.011536,-0.991882,0.236122,0.493435,0.036947,51,271,571,5360
1644159303.078458,-0.009705,0.00946,-0.992065,0.327725,0.432366,-0.192061,47,268,568,5456
1644159303.126642,-0.012695,0.008606,-0.991821,0.281924,0.462901,-0.192061,49,275,579,5376
1644159303.175076,-0.009888,0.011841,-0.993103,0.251389,0.569771,-0.039389,45,275,575,5344
1644159303.223428,-0.009338,0.010071,-0.992676,0.159786,0.432366,0.036947,48,271,573,5360
1644159303.271835,-0.010742,0.009766,-0.991028,0.327725,0.356031,-0.130992,46,281,564,5376
1644159303.320213,-0.010559,0.009949,-0.989929,0.373527,0.294962,0.021679,49,270,570,5360
1644159303.368691,-0.007874,0.009094,-0.992249,0.175053,0.493435,-0.085191,40,265,579,5408
1644159303.416983,-0.013184,0.008057,-0.991943,0.220855,0.340763,0.098015,48,276,571,5408
1644159303.465378,-0.012695,0.010376,-0.992798,0.190321,0.523969,-0.222595,62,279,583,5408
1644159303.513765,-0.00769,0.009766,-0.990112,0.190321,0.386565,-0.115725,41,274,564,5344
1644159303.562242,-0.011047,0.006714,-0.990479,0.068183,0.523969,-0.008855,54,275,572,5376
1644159303.61054,-0.009399,0.008301,-0.993286,0.236122,0.478168,-0.085191,51,276,576,5424
1644159303.658926,-0.008423,0.009277,-0.990479,0.297191,0.493435,-0.024122,59,273,565,5376
1644159303.707316,-0.009705,0.008606,-0.988953,0.297191,0.417099,-0.207328,49,270,584,5360
1644159303.755692,-0.013062,0.007446,-0.991943,0.266656,0.386565,-0.130992,54,275,582,5408
1644159303.804147,-0.010132,0.010803,-0.992615,0.190321,0.233893,-0.207328,55,276,569,5424
1644159303.853147,-0.011658,0.010498,-0.991089,0.220855,0.523969,-0.008855,52,270,579,5488
1644159303.90322,-0.008423,0.008728,-0.993042,0.159786,0.401832,-0.14626,54,285,589,5456
1644159303.954976,-0.010803,0.008484,-0.993286,0.220855,0.325496,-0.069924,58,276,576,5376
1644159304.056571,-0.010132,0.010132,-0.993835,0.190321,0.371298,-0.130992,54,270,568,5376
1644159304.094454,-0.010925,0.010803,-0.993225,0.159786,0.294962,-0.176794,58,281,576,5344
1644159304.142835,-0.007751,0.011719,-0.993774,0.342992,0.478168,-0.176794,41,271,578,5344
1644159304.191215,-0.010925,0.01123,-0.994263,0.297191,0.417099,-0.054656,53,274,585,5360
1644159304.239613,-0.01178,0.012817,-0.99176,0.236122,0.432366,-0.100458,57,277,570,5376
1644159304.288003,-0.011719,0.009521,-0.993042,0.190321,0.386565,-0.115725,57,273,570,5424
1644159304.336388,-0.009521,0.006409,-0.990845,0.220855,0.356031,-0.176794,48,274,576,5424
1644159304.384812,-0.010071,0.008545,-0.994507,0.236122,0.371298,-0.192061,54,277,565,5424
1644159304.433173,-0.007263,0.009644,-0.993591,0.373527,0.447634,-0.039389,55,262,580,5376
1644159304.481562,-0.010803,0.008362,-0.993347,0.220855,0.401832,0.006412,53,274,580,5360
1644159304.529942,-0.009033,0.010498,-0.992859,0.297191,0.447634,-0.085191,53,276,580,5376
1644159304.578346,-0.013794,0.00769,-0.990662,0.266656,0.432366,-0.039389,65,276,576,5456
1644159304.626711,-0.010559,0.009399,-0.988342,0.297191,0.432366,-0.085191,48,274,573,5408
1644159304.675261,-0.01001,0.007507,-0.990295,0.251389,0.386565,-0.130992,52,280,579,5344
1644159304.723936,-0.010864,0.013733,-0.990417,0.342992,0.493435,-0.130992,54,273,565,5376
1644159304.774529,-0.010437,0.008545,-0.993652,0.281924,0.356031,-0.085191,55,271,583,5344
1644159304.824986,-0.012756,0.011719,-0.993103,0.068183,0.310229,-0.14626,61,270,582,5456
1644159304.870106,-0.01001,0.008301,-0.991089,0.236122,0.401832,-0.100458,43,269,576,5344
1644159304.965462,-0.008179,0.011169,-0.989563,0.388794,0.432366,-0.008855,46,279,576,5360
1644159305.013868,-0.008179,0.010315,-0.993042,0.175053,0.340763,-0.100458,52,270,575,5408
1644159305.062357,-0.014893,0.008179,-0.995483,0.297191,0.585038,-0.130992,46,286,580,5344
1644159305.11064,-0.007996,0.007141,-0.99292,0.388794,0.401832,-0.085191,57,287,589,5344
1644159305.158988,-0.010742,0.009094,-0.99231,0.35826,0.371298,-0.237863,61,275,572,5376
1644159305.207394,-0.008484,0.008179,-0.992004,0.419328,0.462901,-0.100458,51,281,580,5360
1644159305.255777,-0.013306,0.009705,-0.992981,0.220855,0.371298,-0.207328,49,270,579,5456
1644159305.304164,-0.012085,0.009399,-0.993225,0.175053,0.356031,-0.222595,51,279,583,5376
1644159305.352576,-0.012329,0.010559,-0.992249,0.312458,0.310229,0.067481,45,280,565,5424
1644159305.40098,-0.010986,0.009338,-0.993286,0.205588,0.554504,-0.25313,51,286,573,5376
1644159305.449339,-0.00769,0.007874,-0.992249,0.190321,0.508702,-0.161527,49,280,575,5360
1644159305.497711,-0.012939,0.009583,-0.992737,0.08345,0.523969,-0.130992,46,283,578,5456
1644159305.546119,-0.011536,0.007263,-0.992126,0.266656,0.294962,-0.14626,54,277,575,5408
1644159305.5945,-0.011475,0.009888,-0.992493,0.159786,0.279695,-0.008855,62,276,578,5408
1644159305.642902,-0.01062,0.010254,-0.991821,0.342992,0.340763,-0.039389,46,281,571,5376
1644159305.691292,-0.010803,0.00708,-0.991821,0.327725,0.386565,-0.115725,52,280,584,5376
1644159305.739653,-0.00946,0.007324,-0.991516,0.205588,0.493435,-0.069924,51,271,573,5376
1644159305.788072,-0.009888,0.009644,-0.989624,0.190321,0.417099,-0.039389,58,269,583,5456
1644159305.836717,-0.012268,0.009583,-0.993591,0.129252,0.478168,0.098015,64,275,572,5424
1644159305.88831,-0.009583,0.010925,-0.993286,0.251389,0.356031,-0.130992,55,271,573,5376
1644159305.936389,-0.011169,0.008057,-0.991943,0.236122,0.340763,-0.008855,52,263,575,5376
1644159305.986557,-0.010437,0.010925,-0.99231,0.175053,0.356031,-0.222595,49,275,577,5344
1644159306.031296,-0.010437,0.00824,-0.994263,0.251389,0.554504,-0.14626,47,270,584,5424
1644159306.126817,-0.009888,0.010132,-0.993042,0.220855,0.356031,-0.039389,49,265,582,5408
1644159306.175356,-0.010132,0.010559,-0.991943,0.251389,0.432366,-0.161527,46,274,580,5344
1644159306.223573,-0.011169,0.00885,-0.992371,0.236122,0.356031,-0.161527,49,280,565,5344
1644159306.271956,-0.012146,0.007629,-0.994629,0.251389,0.447634,0.12855,55,274,564,5360
1644159306.320343,-0.008484,0.008545,-0.991943,0.205588,0.386565,-0.268397,48,286,569,5408
1644159306.368722,-0.010925,0.008057,-0.992493,0.266656,0.401832,-0.14626,43,276,573,5424
1644159306.417119,-0.01062,0.009094,-0.992004,0.190321,0.386565,-0.176794,43,271,569,5376
1644159306.465503,-0.009949,0.010925,-0.989197,0.236122,0.325496,-0.085191,49,277,582,5408
1644159306.513915,-0.009216,0.009216,-0.993408,0.175053,0.386565,-0.069924,47,280,575,5296
1644159306.562292,-0.011047,0.010864,-0.994324,0.251389,0.493435,-0.192061,51,264,576,5344
1644159306.610684,-0.009277,0.008667,-0.991028,0.281924,0.462901,-0.024122,52,277,561,5456
1644159306.659075,-0.010376,0.010376,-0.991455,0.159786,0.356031,0.006412,55,271,576,5360
1644159306.707464,-0.010864,0.011841,-0.994019,0.297191,0.539237,-0.161527,52,275,572,5408
1644159306.755833,-0.009766,0.00946,-0.99054,0.175053,0.356031,-0.237863,48,266,566,5344
1644159306.804249,-0.013733,0.003479,-0.993774,-0.008153,0.310229,-0.283664,52,273,579,5360
1644159306.852698,-0.009827,0.009705,-0.993652,0.098718,0.478168,0.021679,46,274,576,5344
1644159306.901052,-0.012146,0.008728,-0.990845,0.312458,0.462901,-0.192061,49,277,575,5344
1644159306.949441,-0.011353,0.007324,-0.992188,0.159786,0.24916,-0.115725,48,274,583,5408
1644159306.997845,-0.009277,0.01123,-0.991272,0.205588,0.294962,-0.176794,47,277,577,5376
1644159307.067876,-0.008057,0.008789,-0.992981,0.342992,0.478168,-0.024122,58,279,578,5344
1644159307.103506,-0.011597,0.007812,-0.99231,0.388794,0.386565,-0.069924,55,279,571,5376
1644159307.147994,-0.010437,0.008362,-0.992065,0.251389,0.417099,-0.085191,49,277,568,5376
1644159307.191748,-0.010559,0.010559,-0.992798,0.251389,0.508702,-0.039389,65,279,566,5408
1644159307.288113,-0.010864,0.01062,-0.991821,0.159786,0.401832,-0.161527,52,265,575,5456
1644159307.336506,-0.009338,0.010071,-0.991516,0.159786,0.371298,-0.054656,46,279,569,5408
1644159307.384918,-0.009583,0.010437,-0.990356,0.175053,0.462901,-0.176794,59,277,568,5360
1644159307.433307,-0.009094,0.013123,-0.989502,0.251389,0.371298,-0.14626,47,275,577,5360
1644159307.481689,-0.00824,0.009216,-0.993652,0.159786,0.325496,-0.14626,58,271,573,5424
1644159307.530071,-0.011597,0.011902,-0.993591,0.205588,0.386565,-0.024122,46,266,571,5424
1644159307.57845,-0.011414,0.009888,-0.994385,0.297191,0.447634,-0.115725,55,279,580,5424
1644159307.626851,-0.011108,0.01062,-0.993286,0.159786,0.417099,-0.039389,53,271,569,5424
1644159307.675243,-0.013245,0.010376,-0.990967,0.007115,0.462901,-0.024122,54,268,575,5408
1644159307.723649,-0.01062,0.007629,-0.993042,0.251389,0.478168,-0.069924,60,274,569,5344
1644159307.772035,-0.013733,0.009094,-0.992004,0.159786,0.386565,-0.14626,48,271,587,5424
1644159307.820418,-0.010803,0.009583,-0.992126,0.190321,0.401832,-0.130992,38,275,572,5424
1644159307.868858,-0.01001,0.012878,-0.992981,0.129252,0.401832,-0.161527,45,270,577,5424
1644159307.917242,-0.008789,0.007507,-0.994141,0.159786,0.447634,0.036947,49,277,575,5408
1644159307.965641,-0.009583,0.008972,-0.992859,0.220855,0.356031,-0.176794,51,283,578,5408
1644159308.014015,-0.009644,0.008118,-0.991028,0.297191,0.478168,-0.039389,52,282,579,5408
1644159308.075544,-0.012939,0.008972,-0.988892,0.251389,0.340763,-0.283664,51,274,569,5456
1644159308.111207,-0.012512,0.01062,-0.991516,0.297191,0.401832,-0.14626,59,285,579,5360
1644159308.161193,-0.011169,0.011108,-0.993408,0.281924,0.325496,-0.100458,53,276,576,5408
1644159308.212022,-0.010803,0.009644,-0.990234,0.388794,0.386565,0.006412,49,277,570,5344
1644159308.255979,-0.009155,0.010437,-0.993469,0.205588,0.523969,-0.161527,64,273,577,5376
1644159308.352802,-0.011658,0.009521,-0.990173,0.08345,0.508702,-0.115725,46,271,578,5408
1644159308.401134,-0.011108,0.008423,-0.992126,0.327725,0.478168,0.006412,48,276,571,5344
1644159308.449521,-0.011719,0.009277,-0.992432,0.236122,0.493435,-0.14626,52,270,586,5376
1644159308.497902,-0.01062,0.008728,-0.992126,0.327725,0.371298,-0.176794,53,274,580,5424
1644159308.54627,-0.012695,0.00885,-0.990845,0.190321,0.569771,-0.192061,53,279,576,5376
1644159308.5947,-0.01001,0.008606,-0.992249,0.35826,0.432366,-0.024122,51,271,573,5456
1644159308.643088,-0.010681,0.010925,-0.990784,0.175053,0.310229,-0.069924,33,270,582,5424
1644159308.691463,-0.009521,0.011292,-0.993713,0.129252,0.462901,-0.207328,47,268,579,5456
1644159308.739856,-0.011414,0.008484,-0.988586,0.175053,0.356031,-0.268397,53,279,571,5296
1644159308.788254,-0.010925,0.011902,-0.9953,0.236122,0.279695,-0.085191,49,268,575,5344
1644159308.836639,-0.011414,0.010254,-0.993774,0.175053,0.386565,-0.069924,47,280,579,5360
1644159308.885136,-0.010498,0.006836,-0.994324,0.190321,0.432366,-0.069924,53,269,573,5456
1644159308.933425,-0.012024,0.007507,-0.991577,0.327725,0.432366,-0.130992,57,277,565,5456
1644159308.981796,-0.010559,0.01001,-0.98938,0.251389,0.447634,-0.054656,52,273,586,5376
1644159309.030201,-0.010132,0.009644,-0.993347,0.342992,0.508702,-0.024122,53,271,578,5360
1644159309.084944,-0.008911,0.008789,-0.989502,0.388794,0.462901,-0.024122,43,276,576,5360
1644159309.126982,-0.011169,0.009338,-0.992676,0.205588,0.356031,-0.115725,46,279,573,5456
1644159309.175552,-0.006104,0.011414,-0.992615,0.312458,0.310229,-0.222595,49,277,575,5424
1644159309.224089,-0.009644,0.009094,-0.992554,0.144519,0.417099,-0.25313,49,280,577,5360
1644159309.274311,-0.011475,0.009399,-0.990784,0.190321,0.386565,-0.130992,51,276,576,5408
1644159309.324568,-0.010376,0.007935,-0.991577,0.281924,0.233893,-0.14626,51,286,571,5376
1644159309.369093,-0.012146,0.008911,-0.993408,0.220855,0.432366,-0.25313,55,269,580,5456
1644159309.465682,-0.010132,0.011414,-0.991394,0.205588,0.356031,0.067481,53,274,580,5424
1644159309.517231,-0.013123,0.010254,-0.99231,0.068183,0.432366,-0.207328,46,276,573,5456
1644159309.562485,-0.012878,0.010254,-0.992859,0.266656,0.478168,-0.024122,46,276,569,5424
1644159309.610855,-0.012207,0.006409,-0.99115,0.266656,0.371298,-0.298931,42,273,572,5360
1644159309.659232,-0.008423,0.009644,-0.991272,0.297191,0.462901,-0.100458,39,266,576,5456
1644159309.707623,-0.01001,0.01239,-0.992676,0.129252,0.371298,-0.161527,51,269,576,5344
1644159309.756031,-0.009705,0.008545,-0.991638,0.266656,0.325496,-0.14626,48,281,566,5360
1644159309.804431,-0.01178,0.008179,-0.989929,0.434595,0.417099,-0.069924,52,275,579,5424
1644159309.852846,-0.010254,0.011169,-0.994141,0.281924,0.417099,-0.069924,48,274,578,5360
1644159309.901224,-0.010681,0.010498,-0.989197,0.205588,0.523969,-0.237863,55,276,573,5456
1644159309.94957,-0.010864,0.011536,-0.988953,0.205588,0.294962,-0.283664,48,276,573,5424
1644159309.997976,-0.009827,0.009705,-0.990723,0.251389,0.386565,-0.085191,45,265,570,5360
1644159310.050914,-0.007507,0.012024,-0.993103,0.220855,0.386565,-0.222595,57,273,582,5344
1644159310.094755,-0.011353,0.008179,-0.994629,0.144519,0.371298,-0.192061,52,265,582,5408
1644159310.143119,-0.011169,0.010254,-0.99115,0.297191,0.325496,-0.161527,61,282,584,5456
1644159310.1915,-0.009888,0.01062,-0.992432,0.190321,0.569771,-0.14626,45,273,591,5424
1644159310.239882,-0.010498,0.007874,-0.991516,0.205588,0.508702,-0.176794,53,274,576,5424
1644159310.288272,-0.010498,0.007751,-0.990112,0.251389,0.386565,-0.115725,47,273,579,5376
1644159310.336691,-0.01001,0.01062,-0.993958,0.175053,0.447634,0.021679,39,274,578,5360
1644159310.388508,-0.011963,0.013123,-0.992493,0.205588,0.401832,-0.100458,49,275,582,5408
1644159310.437633,-0.010437,0.008545,-0.990967,0.144519,0.325496,-0.039389,53,269,583,5408
1644159310.482414,-0.010254,0.01062,-0.991638,0.144519,0.325496,-0.130992,53,274,564,5424
1644159310.578593,-0.008057,0.008484,-0.990906,0.220855,0.401832,-0.054656,57,275,577,5424
1644159310.626988,-0.012146,0.008423,-0.993713,0.404061,0.447634,-0.329466,41,269,564,5360
1644159310.675399,-0.00824,0.008301,-0.989624,0.251389,0.356031,0.021679,36,271,571,5360
1644159310.723795,-0.009033,0.007019,-0.991699,0.129252,0.371298,-0.085191,57,282,577,5344
1644159310.772371,-0.011597,0.009766,-0.992004,0.297191,0.508702,-0.130992,53,274,566,5408
1644159310.820607,-0.011108,0.008301,-0.991455,0.236122,0.539237,-0.130992,51,264,580,5424
1644159310.86899,-0.011108,0.009277,-0.992615,0.190321,0.294962,-0.161527,58,271,569,5360
1644159310.917379,-0.01062,0.008118,-0.992981,0.434595,0.493435,-0.161527,51,276,576,5408
1644159310.965734,-0.008118,0.007629,-0.990295,0.236122,0.325496,-0.100458,64,263,584,5424
1644159311.014143,-0.009705,0.009216,-0.99469,0.098718,0.386565,-0.054656,45,275,577,5408
1644159311.067916,-0.00946,0.006531,-0.991821,0.236122,0.264427,-0.14626,41,276,583,5424
1644159311.110914,-0.010986,0.007324,-0.992432,0.205588,0.264427,-0.14626,54,280,572,5456
1644159311.159284,-0.010986,0.011047,-0.992615,0.220855,0.371298,-0.039389,51,276,585,5424
1644159311.207671,-0.01123,0.011475,-0.989746,0.129252,0.356031,0.021679,49,273,572,5424
1644159311.256042,-0.010315,0.006531,-0.99176,0.098718,0.478168,-0.161527,41,274,571,5456
1644159311.304449,-0.010925,0.010681,-0.99408,0.35826,0.432366,-0.14626,45,273,575,5456
1644159311.352854,-0.012573,0.010254,-0.992798,0.205588,0.417099,-0.100458,45,280,575,5456
1644159311.401218,-0.015625,0.006958,-0.990295,0.175053,0.462901,-0.115725,49,270,577,5456
1644159311.44962,-0.008789,0.010376,-0.989075,0.297191,0.310229,-0.130992,58,283,580,5456
1644159311.498837,-0.014587,0.011719,-0.994202,0.190321,0.356031,-0.192061,43,279,571,5360
1644159311.549012,-0.010742,0.009949,-0.993103,0.236122,0.371298,-0.054656,53,276,583,5376
1644159311.598972,-0.008423,0.010315,-0.991089,0.281924,0.493435,-0.192061,53,271,573,5424
1644159311.64408,-0.010132,0.009338,-0.991638,0.144519,0.356031,-0.100458,41,276,573,5360
1644159311.739971,-0.011475,0.010559,-0.990845,0.297191,0.401832,-0.039389,53,276,569,5408
1644159311.788328,-0.011963,0.007385,-0.993347,0.236122,0.310229,-0.024122,55,274,569,5360
1644159311.836776,-0.00946,0.011597,-0.990295,0.281924,0.569771,-0.161527,51,276,578,5424
1644159311.885201,-0.009216,0.008606,-0.99054,0.159786,0.478168,-0.176794,52,275,570,5424
1644159311.933571,-0.010742,0.009583,-0.991699,0.220855,0.386565,-0.100458,54,273,575,5424
1644159311.981931,-0.008301,0.008301,-0.993774,0.327725,0.401832,-0.14626,47,275,577,5376
1644159312.030432,-0.007202,0.012207,-0.99469,0.113985,0.539237,-0.069924,46,274,573,5344
1644159312.081683,-0.012634,0.008972,-0.990906,0.251389,0.371298,-0.14626,46,281,578,5456
1644159312.127079,-0.012634,0.007996,-0.991333,0.007115,0.447634,-0.115725,58,276,580,5376
1644159312.175464,-0.008728,0.009827,-0.993652,0.190321,0.386565,-0.054656,52,265,570,5424
1644159312.22385,-0.011902,0.012207,-0.991272,0.144519,0.493435,-0.161527,49,268,579,5360
1644159312.272255,-0.012573,0.009888,-0.992188,0.266656,0.386565,-0.25313,52,275,589,5344
1644159312.320628,-0.009521,0.010193,-0.992432,0.419328,0.478168,-0.100458,46,269,573,5456
1644159312.368997,-0.010193,0.008301,-0.992615,0.297191,0.447634,-0.115725,55,276,585,5424
1644159312.417395,-0.009766,0.010132,-0.99176,0.373527,0.325496,-0.069924,45,275,582,5376
1644159312.465784,-0.009155,0.008728,-0.994263,0.129252,0.447634,-0.314198,53,269,573,5360
1644159312.514188,-0.013,0.009644,-0.994568,0.327725,0.447634,-0.14626,58,274,571,5344
1644159312.562594,-0.010132,0.008911,-0.991455,0.297191,0.386565,0.021679,46,271,566,5424
1644159312.611021,-0.010681,0.004639,-0.992004,0.312458,0.233893,-0.100458,43,264,573,5408
1644159312.661682,-0.009705,0.008057,-0.993408,0.022382,0.508702,-0.085191,57,275,582,5456
1644159312.711639,-0.009155,0.007263,-0.992615,0.113985,0.523969,-0.085191,43,271,569,5344
1644159312.756837,-0.009888,0.009338,-0.992432,0.175053,0.371298,-0.176794,54,285,577,5312
1644159312.852957,-0.010559,0.008545,-0.993652,0.312458,0.264427,-0.115725,45,277,582,5424
1644159312.901325,-0.010376,0.008362,-0.992798,0.068183,0.508702,-0.085191,41,276,580,5376
1644159312.949719,-0.014771,0.011597,-0.990662,0.35826,0.508702,-0.115725,52,277,577,5344
1644159312.998145,-0.011963,0.009949,-0.988831,0.35826,0.340763,-0.207328,51,274,571,5360
1644159313.056236,-0.010437,0.010742,-0.990845,0.08345,0.462901,-0.039389,46,269,578,5376
1644159313.096565,-0.011108,0.010803,-0.992371,0.037649,0.523969,-0.176794,58,271,580,5456
1644159313.143256,-0.00824,0.009277,-0.992432,0.266656,0.417099,-0.130992,45,273,570,5424
1644159313.191642,-0.012146,0.010498,-0.991638,0.35826,0.371298,-0.024122,52,280,575,5296
1644159313.240032,-0.009338,0.008789,-0.992432,0.144519,0.462901,-0.054656,46,286,576,5408
1644159313.288416,-0.011658,0.007385,-0.994751,0.373527,0.432366,-0.069924,38,277,586,5376
1644159313.336812,-0.009827,0.009705,-0.992493,0.297191,0.340763,-0.069924,43,281,578,5424
1644159313.385256,-0.009216,0.010559,-0.98999,0.190321,0.432366,-0.130992,49,280,579,5424
1644159313.433587,-0.010254,0.009583,-0.99054,0.129252,0.447634,-0.192061,45,275,575,5376
1644159313.481981,-0.008972,0.006348,-0.992188,0.159786,0.447634,-0.161527,51,276,564,5376
1644159313.530359,-0.009338,0.009338,-0.990723,0.251389,0.417099,-0.024122,58,271,578,5456
1644159313.578763,-0.01178,0.006714,-0.992493,0.190321,0.401832,-0.25313,52,277,572,5424
1644159313.627143,-0.013428,0.010742,-0.995972,0.434595,0.356031,-0.069924,43,274,569,5408
1644159313.675533,-0.008667,0.01062,-0.992737,0.113985,0.218626,-0.100458,55,271,587,5424
1644159313.724141,-0.011536,0.009827,-0.990173,0.281924,0.325496,-0.069924,48,274,571,5408
1644159313.774578,-0.01123,0.008362,-0.992249,0.388794,0.401832,-0.161527,55,271,576,5424
1644159313.825254,-0.011414,0.009521,-0.995483,0.281924,0.432366,-0.14626,51,271,573,5424
1644159313.870267,-0.008545,0.009094,-0.992493,0.190321,0.371298,-0.329466,48,279,580,5456
1644159313.96589,-0.009705,0.006836,-0.990601,0.236122,0.325496,-0.161527,47,270,577,5408
1644159314.014285,-0.011841,0.01062,-0.992615,0.236122,0.432366,-0.268397,59,280,572,5408
1644159314.063091,-0.010193,0.010742,-0.992004,0.220855,0.371298,-0.268397,52,268,575,5408
1644159314.111068,-0.008362,0.009155,-0.992371,0.205588,0.523969,-0.100458,43,274,576,5408
1644159314.159412,-0.010803,0.007385,-0.994141,0.175053,0.417099,-0.100458,54,277,584,5344
1644159314.20781,-0.009888,0.008728,-0.991455,0.419328,0.554504,-0.115725,62,264,576,5376
1644159314.256189,-0.01062,0.010742,-0.991638,0.388794,0.401832,-0.130992,49,280,577,5456
1644159314.304634,-0.013489,0.00885,-0.988953,0.113985,0.417099,-0.008855,54,270,586,5424
1644159314.352995,-0.011963,0.010376,-0.991455,0.388794,0.401832,-0.207328,48,283,580,5424
1644159314.401362,-0.012756,0.006775,-0.990051,0.342992,0.371298,-0.085191,51,269,580,5456
1644159314.449762,-0.01239,0.009155,-0.99054,0.327725,0.478168,-0.25313,35,265,591,5424
1644159314.498126,-0.011108,0.011292,-0.991028,0.281924,0.493435,0.021679,52,277,577,5360
1644159314.54654,-0.010681,0.011658,-0.991333,0.159786,0.478168,-0.25313,53,264,564,5344
1644159314.595063,-0.012024,0.009888,-0.992615,0.297191,0.447634,-0.024122,48,281,578,5376
1644159314.643308,-0.009338,0.009644,-0.993774,0.236122,0.447634,0.082748,46,262,571,5424
1644159314.69171,-0.010803,0.008972,-0.989563,0.113985,0.417099,0.006412,54,268,575,5344
1644159314.740097,-0.011719,0.008728,-0.992249,0.312458,0.294962,-0.130992,46,276,580,5424
1644159314.788486,-0.01123,0.009033,-0.992859,0.35826,0.539237,-0.161527,46,269,578,5344
1644159314.836902,-0.012268,0.007324,-0.994507,0.129252,0.386565,-0.192061,51,279,583,5408
1644159314.887217,-0.011536,0.010193,-0.991516,0.388794,0.432366,-0.14626,53,264,578,5376
1644159314.937394,-0.009277,0.009949,-0.993958,0.388794,0.432366,0.021679,55,266,573,5376
1644159314.987257,-0.01123,0.009399,-0.992493,0.404061,0.432366,-0.024122,57,273,575,5456
1644159315.031778,-0.008728,0.007019,-0.993713,0.388794,0.432366,-0.25313,43,279,571,5424
1644159315.127259,-0.010986,0.006714,-0.990906,0.312458,0.447634,-0.115725,46,281,571,5344
1644159315.17558,-0.011353,0.008179,-0.990784,0.266656,0.401832,0.021679,53,271,566,5456
1644159315.223989,-0.012024,0.00885,-0.991211,0.251389,0.462901,-0.115725,49,270,570,5360
1644159315.2724,-0.009094,0.007812,-0.99115,0.327725,0.218626,-0.085191,54,265,565,5408
1644159315.320765,-0.010376,0.010132,-0.993652,0.236122,0.539237,-0.008855,53,279,578,5408
1644159315.369147,-0.009583,0.008179,-0.992432,0.373527,0.493435,-0.192061,49,275,572,5344
1644159315.417537,-0.008118,0.010254,-0.991821,0.266656,0.569771,-0.069924,40,285,577,5360
1644159315.465934,-0.012207,0.006287,-0.992371,0.159786,0.554504,-0.130992,42,270,568,5360
1644159315.514331,-0.011047,0.008728,-0.990967,0.35826,0.462901,-0.130992,52,277,575,5344
1644159315.562737,-0.010559,0.007202,-0.993591,0.419328,0.508702,0.098015,59,268,579,5376
1644159315.611109,-0.012207,0.009216,-0.994324,0.251389,0.417099,-0.069924,54,265,584,5424
1644159315.659498,-0.011047,0.009888,-0.993042,0.08345,0.401832,-0.161527,59,275,575,5360
1644159315.707879,-0.01001,0.007568,-0.993591,0.266656,0.356031,0.082748,58,279,564,5408
1644159315.756259,-0.010864,0.008545,-0.993713,0.220855,0.478168,-0.008855,54,270,584,5456
1644159315.804749,-0.012268,0.007812,-0.993774,0.220855,0.432366,-0.207328,57,280,570,5344
1644159315.853107,-0.009583,0.008789,-0.991699,0.312458,0.417099,-0.283664,59,282,579,5360
1644159315.901473,-0.011963,0.008911,-0.993164,0.159786,0.417099,0.006412,55,274,576,5344
1644159315.949883,-0.011169,0.008484,-0.991516,0.373527,0.447634,-0.14626,42,277,572,5456
1644159316.052317,-0.008545,0.01062,-0.991028,0.220855,0.386565,-0.176794,42,275,577,5424
1644159316.095099,-0.009766,0.008667,-0.992676,0.098718,0.294962,-0.207328,57,280,582,5424
1644159316.143592,-0.009399,0.011353,-0.989563,0.220855,0.401832,-0.039389,49,275,584,5360
1644159316.191773,-0.008911,0.009155,-0.987976,0.404061,0.432366,0.052214,48,274,569,5408
1644159316.24017,-0.011292,0.008911,-0.992249,0.175053,0.340763,-0.100458,57,277,572,5456
1644159316.288525,-0.009949,0.011414,-0.989868,0.327725,0.310229,-0.161527,58,269,571,5376
1644159316.336925,-0.008728,0.007874,-0.988708,0.220855,0.478168,-0.024122,52,275,577,5344
1644159316.385339,-0.011414,0.010864,-0.995789,0.144519,0.371298,-0.085191,65,279,569,5424
1644159316.433697,-0.011292,0.006409,-0.992371,0.266656,0.371298,-0.024122,57,277,577,5424
1644159316.482605,-0.011536,0.006714,-0.993103,0.312458,0.401832,-0.161527,48,279,576,5376
1644159316.530509,-0.009521,0.01001,-0.992126,0.266656,0.294962,-0.161527,47,273,565,5344
1644159316.580338,-0.010498,0.007385,-0.991882,0.220855,0.478168,-0.024122,51,274,583,5376
1644159316.630696,-0.013062,0.009277,-0.990906,0.175053,0.462901,-0.176794,51,269,569,5456
1644159316.675694,-0.010498,0.010498,-0.989868,0.205588,0.371298,-0.237863,42,268,570,5360
1644159316.772495,-0.010437,0.007874,-0.994019,0.175053,0.340763,-0.008855,41,276,587,5376
1644159316.820821,-0.010132,0.012329,-0.993042,0.327725,0.462901,-0.176794,51,271,580,5408
1644159316.869243,-0.008606,0.011658,-0.993958,0.327725,0.462901,-0.192061,46,274,573,5424
1644159316.917643,-0.012756,0.009033,-0.990906,0.08345,0.447634,-0.024122,49,277,570,5424
1644159316.966012,-0.012634,0.009888,-0.99231,0.190321,0.432366,-0.176794,46,266,569,5344
1644159317.014441,-0.010254,0.010193,-0.988708,0.190321,0.432366,-0.085191,45,282,572,5424
1644159317.065724,-0.008118,0.010437,-0.991882,0.251389,0.356031,-0.069924,57,275,579,5360
1644159317.111178,-0.00708,0.009094,-0.992249,0.205588,0.401832,-0.222595,43,271,566,5312
1644159317.159572,-0.01123,0.009399,-0.993225,0.266656,0.417099,-0.207328,46,279,583,5424
1644159317.207931,-0.008911,0.008911,-0.993347,0.312458,0.386565,-0.130992,49,273,582,5376
1644159317.256328,-0.010193,0.008789,-0.993164,0.144519,0.417099,-0.100458,52,273,577,5360
1644159317.304734,-0.011047,0.010986,-0.990723,0.251389,0.478168,-0.069924,51,271,571,5456
1644159317.353113,-0.012268,0.008789,-0.991272,0.373527,0.310229,-0.100458,59,275,586,5312
1644159317.401511,-0.010254,0.008179,-0.991211,0.220855,0.386565,-0.14626,43,286,583,5360
1644159317.449895,-0.00946,0.011047,-0.993469,0.312458,0.340763,-0.100458,49,277,577,5408
1644159317.498289,-0.01239,0.009888,-0.994019,0.35826,0.401832,-0.192061,48,271,569,5456
1644159317.546672,-0.012268,0.011475,-0.986755,0.175053,0.310229,-0.130992,57,277,577,5344
1644159317.595128,-0.010437,0.008606,-0.992554,0.190321,0.294962,-0.024122,57,277,572,5472
1644159317.643723,-0.010986,0.010132,-0.992188,0.098718,0.493435,-0.207328,55,274,573,5344
1644159317.692508,-0.012695,0.007202,-0.99231,0.190321,0.462901,-0.207328,52,270,582,5344
1644159317.74305,-0.010925,0.007935,-0.993591,0.068183,0.417099,-0.085191,52,265,575,5408
1644159317.789062,-0.011292,0.006714,-0.99115,0.266656,0.462901,-0.161527,45,275,579,5408
1644159317.838923,-0.011658,0.009888,-0.992004,0.205588,0.432366,-0.024122,38,282,572,5408
1644159317.933833,-0.012146,0.009399,-0.993774,0.175053,0.478168,-0.237863,54,273,584,5424
1644159317.982277,-0.00946,0.007324,-0.991882,0.205588,0.539237,-0.008855,52,277,568,5344
1644159318.030609,-0.009277,0.011292,-0.991028,0.281924,0.386565,-0.222595,42,265,577,5376
1644159318.082705,-0.010742,0.009094,-0.992676,0.144519,0.478168,-0.100458,55,266,585,5456
1644159318.127338,-0.010559,0.009338,-0.989929,0.281924,0.417099,-0.085191,47,277,575,5360
1644159318.175742,-0.01178,0.008789,-0.993225,0.251389,0.523969,-0.039389,52,282,575,5376
1644159318.224124,-0.009644,0.008118,-0.992249,0.220855,0.310229,-0.268397,53,276,569,5408
1644159318.272546,-0.011536,0.010559,-0.992676,0.373527,0.417099,-0.069924,57,275,570,5360
1644159318.32088,-0.008667,0.008789,-0.989807,0.175053,0.401832,-0.085191,53,271,585,5520
1644159318.369305,-0.010864,0.007812,-0.99176,0.220855,0.493435,-0.130992,53,269,571,5456
1644159318.417696,-0.014404,0.009949,-0.988403,0.266656,0.386565,-0.054656,46,283,580,5360
1644159318.46605,-0.013611,0.006958,-0.991882,0.220855,0.447634,-0.130992,51,271,569,5424
1644159318.514472,-0.010132,0.007385,-0.992126,0.205588,0.569771,-0.207328,55,279,580,5360
1644159318.562868,-0.011047,0.01001,-0.99292,0.404061,0.539237,0.052214,52,275,570,5312
1644159318.611242,-0.010132,0.01062,-0.993408,0.266656,0.401832,-0.069924,59,280,579,5360
1644159318.659633,-0.00946,0.009521,-0.993103,0.297191,0.554504,-0.237863,57,270,589,5456
1644159318.708021,-0.008423,0.006775,-0.990295,0.159786,0.447634,-0.222595,45,287,575,5344
1644159318.756658,-0.009827,0.008789,-0.991455,0.144519,0.325496,-0.085191,58,274,583,5408
1644159318.806393,-0.010559,0.009033,-0.99353,0.312458,0.325496,-0.130992,48,271,578,5456
1644159318.857337,-0.012634,0.010864,-0.991028,0.46513,0.554504,-0.069924,53,279,585,5376
1644159318.901648,-0.012268,0.008789,-0.992981,0.175053,0.493435,-0.192061,46,266,576,5424
1644159318.9984,-0.012634,0.007324,-0.991333,0.068183,0.447634,-0.039389,43,286,578,5408
1644159319.05443,-0.008728,0.007141,-0.993591,0.159786,0.401832,-0.024122,52,280,582,5360
1644159319.095197,-0.00946,0.008179,-0.990479,0.266656,0.432366,-0.222595,51,276,573,5408
1644159319.14353,-0.010681,0.011108,-0.991333,0.190321,0.462901,-0.069924,54,277,575,5456
1644159319.191915,-0.009521,0.01123,-0.992615,0.205588,0.24916,0.082748,49,265,577,5360
1644159319.240294,-0.008667,0.01062,-0.99231,0.35826,0.447634,-0.024122,57,273,572,5408
1644159319.288672,-0.008362,0.010864,-0.994141,0.190321,0.279695,-0.039389,54,263,582,5456
1644159319.337059,-0.007629,0.010864,-0.990784,0.327725,0.294962,-0.192061,54,280,577,5456
1644159319.385461,-0.011597,0.009766,-0.990173,0.327725,0.508702,-0.207328,53,271,571,5424
1644159319.433881,-0.012085,0.007629,-0.992981,0.205588,0.356031,-0.054656,36,266,573,5424
1644159319.482277,-0.009888,0.008972,-0.990356,0.297191,0.493435,-0.207328,51,279,576,5360
1644159319.530644,-0.007812,0.011841,-0.988647,0.175053,0.356031,-0.207328,49,268,577,5424
1644159319.579038,-0.013428,0.010315,-0.994568,0.327725,0.386565,-0.039389,53,279,585,5424
1644159319.627431,-0.012207,0.009888,-0.991211,0.266656,0.417099,-0.085191,54,282,575,5360
1644159319.675815,-0.011108,0.011108,-0.990784,0.251389,0.447634,-0.039389,45,270,586,5408
1644159319.724186,-0.012695,0.012024,-0.993103,0.236122,0.401832,-0.192061,53,279,573,5360
1644159319.772839,-0.010681,0.011292,-0.992798,0.205588,0.401832,-0.085191,52,275,577,5408
1644159319.824574,-0.009033,0.008545,-0.988342,0.190321,0.294962,-0.14626,53,266,571,5376
1644159319.874541,-0.012085,0.00946,-0.993652,0.251389,0.569771,-0.008855,58,279,573,5408
1644159319.92156,-0.012695,0.009827,-0.992065,0.281924,0.508702,-0.344733,43,269,573,5376
1644159320.01456,-0.013672,0.011047,-0.992188,0.129252,0.569771,-0.161527,55,271,578,5424
1644159320.06311,-0.012207,0.008179,-0.991638,0.190321,0.462901,0.052214,46,276,576,5360
1644159320.111341,-0.009705,0.011414,-0.991455,0.266656,0.371298,-0.25313,53,269,569,5408
1644159320.159693,-0.012268,0.008057,-0.992126,0.297191,0.264427,-0.039389,55,274,569,5344
1644159320.208079,-0.009644,0.009033,-0.99292,0.251389,0.493435,-0.100458,49,270,575,5456
1644159320.256455,-0.007751,0.009644,-0.989502,0.129252,0.417099,-0.207328,46,274,573,5456
1644159320.30486,-0.010742,0.007935,-0.992249,0.220855,0.432366,-0.192061,38,273,565,5424
1644159320.353261,-0.012512,0.005798,-0.99115,0.159786,0.401832,-0.039389,43,276,571,5360
1644159320.401657,-0.010864,0.010315,-0.992065,0.297191,0.478168,-0.130992,52,280,570,5408
1644159320.450052,-0.010132,0.010742,-0.990906,0.251389,0.508702,-0.100458,53,279,576,5424
1644159320.498407,-0.012512,0.010376,-0.991516,0.266656,0.325496,-0.176794,43,283,580,5408
1644159320.546796,-0.011292,0.010498,-0.994019,0.205588,0.386565,-0.085191,52,275,568,5472
1644159320.595301,-0.009888,0.00885,-0.991638,0.205588,0.356031,-0.192061,48,281,573,5376
1644159320.643575,-0.01416,0.011902,-0.995605,0.342992,0.371298,-0.192061,53,276,580,5424
1644159320.691981,-0.011597,0.009888,-0.991638,0.220855,0.401832,-0.008855,54,273,577,5456
1644159320.740371,-0.010559,0.008301,-0.99115,0.251389,0.417099,-0.039389,52,280,577,5424
1644159320.788747,-0.011108,0.010132,-0.992126,0.220855,0.218626,-0.085191,49,285,572,5344
1644159320.83796,-0.011047,0.010193,-0.989746,0.113985,0.340763,-0.069924,54,277,570,5424
1644159320.885619,-0.009277,0.008606,-0.989624,0.129252,0.478168,0.006412,57,280,570,5344
1644159320.935064,-0.008789,0.005737,-0.992126,0.297191,0.340763,0.006412,58,276,571,5344
1644159320.985341,-0.010437,0.011963,-0.990723,0.159786,0.417099,-0.069924,42,277,575,5360
1644159321.035706,-0.009033,0.011841,-0.992676,0.327725,0.417099,-0.115725,58,274,578,5424
1644159321.084778,-0.007812,0.009827,-0.991638,0.205588,0.508702,-0.069924,57,280,589,5408
1644159321.175853,-0.008789,0.011108,-0.990723,0.236122,0.554504,-0.054656,51,276,573,5456
1644159321.224275,-0.011902,0.011475,-0.992249,0.159786,0.478168,-0.100458,45,270,572,5360
1644159321.272643,-0.009888,0.010803,-0.992188,0.281924,0.386565,-0.085191,60,269,578,5344
1644159321.321043,-0.010559,0.013245,-0.992371,0.342992,0.371298,-0.176794,53,279,564,5344
1644159321.369425,-0.014343,0.011475,-0.991089,0.220855,0.447634,-0.039389,45,285,584,5424
1644159321.41782,-0.012573,0.011658,-0.992493,0.159786,0.478168,0.052214,41,281,580,5456
1644159321.466208,-0.011047,0.009155,-0.989014,0.388794,0.386565,-0.14626,57,275,570,5424
1644159321.514702,-0.011597,0.011658,-0.990234,0.266656,0.386565,-0.069924,47,280,579,5408
1644159321.563003,-0.01001,0.010254,-0.991638,0.236122,0.523969,-0.14626,46,266,576,5456
1644159321.611374,-0.008972,0.010376,-0.990845,0.373527,0.264427,0.036947,51,269,562,5456
1644159321.659766,-0.00824,0.010193,-0.99469,0.251389,0.569771,-0.115725,43,274,566,5456
1644159321.708158,-0.008911,0.009399,-0.991089,0.220855,0.417099,0.021679,57,275,568,5424
1644159321.756553,-0.009644,0.008362,-0.993408,0.266656,0.447634,-0.100458,53,286,571,5360
1644159321.805114,-0.013794,0.009949,-0.991699,0.266656,0.493435,-0.069924,54,275,579,5424
1644159321.853373,-0.010986,0.008179,-0.986938,0.113985,0.386565,-0.054656,47,277,582,5344
1644159321.901754,-0.014099,0.008911,-0.991211,0.068183,0.508702,-0.085191,51,259,578,5456
1644159321.950146,-0.010986,0.008667,-0.990295,0.297191,0.432366,-0.085191,45,268,582,5424
1644159321.998508,-0.007141,0.010986,-0.99115,0.175053,0.401832,-0.161527,55,269,578,5424
1644159322.061263,-0.008484,0.011536,-0.991699,0.220855,0.508702,-0.237863,43,274,573,5456
1644159322.103114,-0.010864,0.008606,-0.991272,0.327725,0.356031,0.036947,41,274,578,5424
1644159322.147354,-0.007263,0.00885,-0.99176,0.342992,0.417099,-0.100458,49,275,568,5456
1644159322.196044,-0.009155,0.007324,-0.99054,0.404061,0.356031,0.021679,57,270,577,5360
1644159322.241091,-0.00946,0.009888,-0.993042,0.190321,0.447634,0.006412,48,271,569,5456
1644159322.337197,-0.009888,0.009277,-0.99231,0.388794,0.478168,-0.207328,43,274,583,5360
1644159322.385598,-0.013123,0.008301,-0.991455,0.251389,0.264427,-0.192061,61,280,570,5424
1644159322.433998,-0.010132,0.010864,-0.992188,0.144519,0.539237,-0.100458,48,274,578,5360
1644159322.482389,-0.01239,0.010132,-0.991577,0.236122,0.340763,-0.039389,47,273,572,5376
1644159322.530749,-0.009521,0.010254,-0.990906,0.205588,0.554504,-0.069924,51,279,573,5424
1644159322.57916,-0.014587,0.010559,-0.993042,0.281924,0.432366,-0.130992,42,263,563,5424
1644159322.62755,-0.010315,0.008667,-0.991577,0.190321,0.340763,0.067481,52,273,570,5424
1644159322.675923,-0.009766,0.008789,-0.991394,0.342992,0.386565,0.036947,43,274,580,5456
1644159322.724344,-0.011536,0.007629,-0.991211,0.251389,0.432366,-0.069924,49,273,577,5376
1644159322.772743,-0.009827,0.008545,-0.991333,0.129252,0.569771,-0.14626,53,279,573,5360
1644159322.8211,-0.010986,0.013672,-0.995667,0.144519,0.264427,-0.130992,46,276,573,5424
1644159322.86954,-0.01001,0.010376,-0.991333,0.46513,0.401832,0.036947,47,265,575,5424
1644159322.917912,-0.012451,0.010437,-0.992249,0.190321,0.310229,-0.130992,48,276,576,5344
1644159322.966325,-0.008972,0.00885,-0.990417,0.113985,0.417099,-0.024122,57,275,575,5408
1644159323.014726,-0.009888,0.00708,-0.990967,0.113985,0.325496,-0.039389,54,285,572,5376
1644159323.076469,-0.011353,0.007568,-0.991272,0.220855,0.493435,0.098015,54,282,586,5456
1644159323.111498,-0.007812,0.011414,-0.991943,0.236122,0.539237,0.021679,52,265,575,5360
1644159323.160738,-0.010925,0.009644,-0.988892,0.266656,0.478168,-0.039389,47,268,575,5456
1644159323.210962,-0.012268,0.012329,-0.993225,0.175053,0.478168,-0.085191,49,275,568,5344
1644159323.260794,-0.010132,0.009949,-0.992615,0.388794,0.401832,-0.192061,59,275,575,5408
1644159323.305356,-0.00885,0.00708,-0.992554,0.08345,0.462901,-0.130992,54,280,579,5344
1644159323.401833,-0.009338,0.007324,-0.993652,0.266656,0.508702,0.052214,48,271,583,5408
1644159323.450216,-0.012024,0.009155,-0.992493,0.373527,0.340763,0.006412,46,276,580,5424
1644159323.498617,-0.010559,0.009521,-0.992188,0.190321,0.279695,-0.161527,43,281,576,5456
1644159323.546988,-0.011963,0.010376,-0.990723,0.297191,0.340763,-0.192061,53,271,566,5424
1644159323.595366,-0.010925,0.009033,-0.993225,0.236122,0.478168,-0.192061,53,271,569,5408
1644159323.643768,-0.011108,0.009705,-0.990356,0.159786,0.356031,-0.130992,52,270,577,5312
1644159323.692172,-0.013916,0.009399,-0.991577,0.098718,0.432366,-0.008855,53,271,569,5408
1644159323.740555,-0.009583,0.011292,-0.991089,0.236122,0.386565,-0.222595,58,266,578,5424
1644159323.788937,-0.011719,0.011108,-0.991821,0.46513,0.340763,-0.298931,45,280,565,5424
1644159323.837308,-0.010742,0.009216,-0.991394,0.098718,0.447634,0.006412,51,274,573,5472
1644159323.885732,-0.008301,0.009094,-0.991455,0.373527,0.371298,-0.085191,48,281,576,5376
1644159323.934133,-0.00946,0.009216,-0.992493,0.342992,0.462901,-0.054656,58,279,578,5408
1644159323.982514,-0.009155,0.010864,-0.995239,0.159786,0.417099,0.036947,45,265,570,5408
1644159324.030889,-0.012085,0.006775,-0.990051,0.175053,0.386565,-0.069924,53,274,573,5456
1644159324.082635,-0.010742,0.007019,-0.991638,0.037649,0.386565,-0.039389,49,268,577,5408
1644159324.127676,-0.011414,0.007263,-0.991699,0.236122,0.386565,-0.054656,54,270,579,5424
1644159324.176061,-0.009583,0.008118,-0.993286,0.175053,0.462901,-0.176794,45,268,572,5424
1644159324.224673,-0.01001,0.006226,-0.991943,0.220855,0.447634,0.067481,46,274,576,5312
1644159324.272865,-0.01123,0.009155,-0.993286,0.236122,0.340763,-0.176794,58,266,583,5376
1644159324.323167,-0.01178,0.007446,-0.990479,0.281924,0.356031,-0.222595,47,280,582,5424
1644159324.373481,-0.010193,0.010132,-0.991577,0.281924,0.371298,-0.085191,46,281,587,5376
1644159324.423861,-0.010376,0.011047,-0.994385,0.327725,0.24916,-0.100458,48,271,569,5360
1644159324.514937,-0.009949,0.009216,-0.99292,0.068183,0.294962,-0.039389,49,282,579,5408
1644159324.56317,-0.007874,0.009705,-0.99176,0.113985,0.417099,-0.069924,54,273,563,5408
1644159324.611552,-0.008484,0.008484,-0.993469,0.312458,0.417099,-0.176794,60,274,573,5456
1644159324.659941,-0.008545,0.009766,-0.994324,0.190321,0.325496,0.036947,46,281,564,5376
1644159324.708328,-0.011658,0.010498,-0.993286,0.236122,0.508702,-0.069924,48,269,571,5360
1644159324.756703,-0.009094,0.009399,-0.993469,0.327725,0.371298,-0.176794,42,275,579,5376
1644159324.805156,-0.009583,0.011841,-0.992004,0.251389,0.493435,0.067481,66,277,570,5408
1644159324.853518,-0.009399,0.010315,-0.990356,0.297191,0.340763,-0.176794,48,269,576,5344
1644159324.901901,-0.01123,0.009033,-0.992188,0.113985,0.386565,-0.207328,57,268,575,5424
1644159324.950266,-0.011292,0.010742,-0.989746,0.205588,0.432366,0.036947,55,279,569,5376
1644159324.998648,-0.010559,0.009644,-0.992493,0.098718,0.325496,-0.069924,49,273,575,5408
1644159325.055496,-0.009033,0.009338,-0.991821,0.144519,0.417099,-0.085191,55,269,585,5376
1644159325.095433,-0.010193,0.008728,-0.991089,0.159786,0.539237,-0.130992,43,274,566,5344
1644159325.143816,-0.012329,0.011536,-0.990295,0.068183,0.462901,-0.085191,49,282,572,5424
1644159325.192238,-0.011169,0.010864,-0.99292,0.205588,0.508702,-0.130992,52,268,577,5360
1644159325.240558,-0.011047,0.008667,-0.993713,0.297191,0.523969,-0.192061,45,282,582,5456
1644159325.288947,-0.011414,0.007751,-0.98938,0.388794,0.340763,0.036947,59,285,586,5424
1644159325.33736,-0.011536,0.007507,-0.995361,0.297191,0.386565,-0.069924,54,277,584,5456
1644159325.385742,-0.009888,0.010986,-0.994263,0.312458,0.356031,-0.069924,55,269,576,5424
1644159325.434517,-0.009277,0.009216,-0.99353,0.251389,0.462901,-0.069924,54,277,579,5408
1644159325.48508,-0.009827,0.010437,-0.991699,0.144519,0.356031,-0.130992,53,274,580,5472
1644159325.535213,-0.009216,0.009155,-0.993347,0.205588,0.585038,-0.298931,47,273,586,5424
1644159325.580355,-0.009033,0.008484,-0.990356,0.159786,0.401832,-0.176794,55,283,576,5408
1644159325.676068,-0.008667,0.011047,-0.990234,0.327725,0.386565,-0.069924,43,274,578,5408
1644159325.724495,-0.010437,0.010559,-0.992798,0.220855,0.432366,-0.085191,48,274,569,5344
1644159325.772887,-0.011169,0.009644,-0.991821,0.297191,0.462901,-0.283664,49,273,568,5408
1644159325.821309,-0.007935,0.013123,-0.99231,0.342992,0.646107,-0.008855,53,279,571,5344
1644159325.869684,-0.008911,0.010681,-0.993225,0.190321,0.554504,-0.024122,53,283,576,5424
1644159325.918073,-0.011292,0.007263,-0.989929,0.251389,0.386565,-0.100458,46,276,578,5424
1644159325.966452,-0.01001,0.009705,-0.989563,0.266656,0.401832,-0.115725,42,268,570,5376
1644159326.014853,-0.008057,0.01001,-0.989868,0.190321,0.386565,-0.100458,49,263,570,5456
1644159326.065044,-0.009766,0.007935,-0.992065,0.312458,0.447634,-0.039389,48,269,580,5456
1644159326.111615,-0.009033,0.010193,-0.992432,0.159786,0.371298,-0.069924,47,273,554,5424
1644159326.159981,-0.010803,0.007935,-0.99054,0.052916,0.447634,-0.039389,41,274,571,5456
1644159326.208372,-0.009521,0.008423,-0.987976,0.220855,0.386565,-0.054656,52,263,579,5424
1644159326.25676,-0.011108,0.01123,-0.992859,0.236122,0.478168,-0.024122,48,274,569,5456
1644159326.305286,-0.007507,0.007812,-0.991821,0.220855,0.447634,-0.222595,51,269,569,5424
1644159326.353537,-0.009277,0.009338,-0.992249,0.342992,0.401832,0.021679,54,273,577,5344
1644159326.401957,-0.010498,0.00769,-0.991699,0.312458,0.325496,-0.14626,40,285,570,5424
1644159326.450326,-0.010071,0.010254,-0.988525,0.251389,0.340763,-0.100458,58,266,580,5424
1644159326.49867,-0.009399,0.007812,-0.991272,0.281924,0.432366,-0.024122,52,275,577,5424
1644159326.547087,-0.01062,0.00824,-0.991333,0.266656,0.447634,0.006412,48,271,573,5360
1644159326.595563,-0.011658,0.010071,-0.993958,0.205588,0.325496,-0.161527,46,269,580,5424
1644159326.645999,-0.009827,0.011902,-0.992249,0.251389,0.310229,-0.115725,57,273,568,5408
1644159326.696177,-0.010437,0.01178,-0.991211,0.236122,0.508702,-0.069924,39,276,576,5408
1644159326.741259,-0.009827,0.012207,-0.992004,0.266656,0.386565,-0.008855,49,265,575,5312
1644159326.837478,-0.012634,0.006226,-0.991333,0.251389,0.493435,-0.130992,49,275,572,5360
1644159326.885835,-0.009583,0.008301,-0.990417,0.251389,0.447634,-0.176794,49,280,572,5424
1644159326.934266,-0.01123,0.009705,-0.990417,0.312458,0.417099,0.021679,51,274,564,5408
1644159326.982641,-0.009521,0.010071,-0.993347,0.190321,0.447634,-0.039389,47,273,572,5408
1644159327.031032,-0.009277,0.009277,-0.99054,0.297191,0.417099,-0.039389,49,270,582,5456
1644159327.084637,-0.011841,0.008118,-0.99176,0.251389,0.294962,-0.130992,49,277,577,5456
1644159327.127773,-0.011047,0.008728,-0.99176,0.220855,0.462901,-0.054656,49,277,570,5408
1644159327.176158,-0.009888,0.009888,-0.992065,0.266656,0.310229,-0.069924,61,275,575,5408
1644159327.224557,-0.011719,0.010376,-0.98999,0.281924,0.386565,-0.115725,40,277,579,5408
1644159327.272941,-0.009033,0.009094,-0.989319,0.297191,0.462901,-0.039389,48,279,580,5344
1644159327.321328,-0.013306,0.009033,-0.992126,0.251389,0.325496,-0.069924,40,265,579,5296
1644159327.369718,-0.007263,0.01001,-0.991272,0.190321,0.340763,-0.115725,54,277,582,5312
1644159327.418076,-0.013123,0.008728,-0.990906,0.175053,0.340763,0.006412,46,274,573,5408
1644159327.46649,-0.010803,0.010803,-0.992065,0.327725,0.523969,-0.14626,55,279,580,5376
1644159327.514883,-0.013245,0.008545,-0.993225,0.327725,0.401832,-0.130992,58,271,578,5456
1644159327.563261,-0.015808,0.006897,-0.992676,0.281924,0.569771,-0.024122,52,275,577,5424
1644159327.612253,-0.011658,0.009399,-0.991394,0.159786,0.340763,-0.130992,45,277,565,5376
1644159327.662789,-0.013367,0.009338,-0.99353,0.220855,0.493435,-0.161527,59,268,570,5424
1644159327.713048,-0.010803,0.006775,-0.991577,0.297191,0.600305,-0.115725,48,286,583,5344
1644159327.758059,-0.012024,0.010803,-0.991699,0.190321,0.600305,-0.085191,49,273,575,5488
1644159327.853668,-0.012024,0.00885,-0.994019,0.327725,0.401832,-0.100458,51,274,573,5376
1644159327.902035,-0.010193,0.007935,-0.990051,0.266656,0.386565,-0.085191,52,277,575,5408
1644159327.950423,-0.011047,0.00946,-0.992371,0.373527,0.539237,-0.207328,52,275,572,5376
1644159327.9988,-0.009705,0.008301,-0.991211,0.35826,0.432366,-0.14626,53,279,573,5376
1644159328.053019,-0.009827,0.007385,-0.992065,0.312458,0.401832,-0.207328,49,273,572,5376
1644159328.095575,-0.012817,0.011108,-0.991699,0.144519,0.325496,-0.085191,60,271,578,5408
1644159328.143957,-0.009094,0.00647,-0.989319,0.144519,0.294962,-0.176794,62,262,569,5360
1644159328.192355,-0.012451,0.007751,-0.992737,0.251389,0.401832,-0.176794,55,264,573,5376
1644159328.240726,-0.010315,0.008118,-0.992249,0.251389,0.340763,-0.085191,48,274,590,5376
1644159328.289096,-0.016296,0.010986,-0.990601,0.251389,0.478168,-0.054656,48,269,571,5376
1644159328.337517,-0.01001,0.009033,-0.991577,0.312458,0.401832,0.006412,48,262,576,5344
1644159328.385891,-0.012024,0.009155,-0.991577,0.297191,0.539237,-0.130992,38,268,579,5456
1644159328.434257,-0.012268,0.008301,-0.994934,0.175053,0.371298,-0.069924,52,273,586,5376
1644159328.482673,-0.010986,0.008484,-0.993286,0.342992,0.539237,-0.268397,43,276,571,5344
1644159328.531056,-0.011353,0.007446,-0.992676,0.129252,0.24916,-0.085191,55,274,580,5456
1644159328.579717,-0.010132,0.009888,-0.992249,0.281924,0.356031,-0.085191,51,276,576,5376
1644159328.628925,-0.012329,0.011292,-0.991089,0.144519,0.417099,-0.024122,58,286,580,5344
1644159328.679121,-0.010132,0.010132,-0.993164,0.327725,0.386565,-0.008855,41,279,578,5344
1644159328.729559,-0.01355,0.008789,-0.992981,0.251389,0.386565,-0.039389,52,258,579,5344
1644159328.774141,-0.009949,0.01123,-0.992554,0.312458,0.432366,-0.14626,57,273,582,5456
1644159328.869818,-0.011353,0.009338,-0.992554,0.281924,0.478168,-0.054656,46,281,585,5408
1644159328.9182,-0.00885,0.007996,-0.990356,0.251389,0.340763,-0.024122,51,271,576,5424
1644159328.966598,-0.008179,0.007446,-0.991821,0.236122,0.325496,-0.054656,54,265,568,5408
1644159329.015045,-0.012024,0.006836,-0.991455,0.205588,0.340763,-0.130992,55,271,580,5456
1644159329.063466,-0.01239,0.011169,-0.99292,0.266656,0.340763,-0.192061,49,277,582,5376
1644159329.111767,-0.008728,0.009399,-0.994141,0.312458,0.371298,-0.085191,48,276,573,5424
1644159329.160129,-0.013489,0.011658,-0.991455,0.312458,0.462901,-0.161527,51,264,578,5360
1644159329.208511,-0.00946,0.007751,-0.989746,0.113985,0.401832,-0.237863,47,270,568,5344
1644159329.256903,-0.008728,0.01062,-0.991882,0.144519,0.325496,-0.069924,47,268,575,5424
1644159329.305293,-0.010254,0.008972,-0.99469,0.297191,0.478168,-0.024122,54,275,575,5376
1644159329.353709,-0.010498,0.010071,-0.990356,0.236122,0.478168,-0.100458,48,271,571,5408
1644159329.402075,-0.01123,0.01178,-0.992432,0.175053,0.356031,-0.054656,54,275,582,5376
1644159329.450465,-0.009827,0.008179,-0.993774,0.236122,0.493435,-0.176794,49,275,577,5344
1644159329.498845,-0.011292,0.006897,-0.992554,0.297191,0.356031,-0.039389,48,281,578,5344
1644159329.547218,-0.009033,0.009888,-0.991577,0.449863,0.340763,-0.176794,54,273,582,5376
1644159329.595624,-0.009033,0.010437,-0.99353,0.129252,0.615573,-0.069924,33,282,572,5456
1644159329.644022,-0.007263,0.009644,-0.991028,0.159786,0.478168,-0.237863,52,273,572,5456
1644159329.692449,-0.011658,0.00824,-0.992493,0.098718,0.401832,-0.176794,51,276,571,5360
1644159329.741746,-0.012634,0.00824,-0.991943,0.144519,0.478168,-0.161527,51,271,580,5360
1644159329.792353,-0.010864,0.010376,-0.992249,0.098718,0.386565,-0.039389,49,263,572,5424
1644159329.838055,-0.01178,0.011536,-0.992493,0.205588,0.417099,0.006412,43,281,566,5360
1644159329.934431,-0.008545,0.012512,-0.992798,0.281924,0.432366,-0.130992,39,271,580,5376
1644159329.982787,-0.012512,0.008789,-0.993408,0.297191,0.462901,0.006412,51,283,571,5424
1644159330.031173,-0.011902,0.010071,-0.993286,0.236122,0.279695,-0.268397,41,279,576,5360
1644159330.079665,-0.009888,0.008179,-0.994812,0.373527,0.493435,0.021679,54,287,579,5488
1644159330.127937,-0.011658,0.008301,-0.993713,0.266656,0.523969,-0.085191,49,270,572,5424
1644159330.176298,-0.010803,0.010071,-0.994324,0.220855,0.233893,-0.130992,53,276,578,5456
1644159330.224715,-0.010132,0.008545,-0.991028,0.190321,0.371298,-0.161527,57,270,579,5456
1644159330.273099,-0.01123,0.009644,-0.989746,0.251389,0.447634,-0.054656,54,273,577,5408
1644159330.321465,-0.00946,0.008362,-0.992615,0.342992,0.478168,0.098015,43,279,569,5424
1644159330.369846,-0.008484,0.009338,-0.992249,0.388794,0.356031,-0.130992,57,275,582,5456
1644159330.418225,-0.010376,0.009644,-0.991333,0.159786,0.432366,-0.024122,48,269,587,5456
1644159330.466626,-0.012329,0.010071,-0.992798,0.159786,0.401832,-0.130992,54,280,570,5344
1644159330.515057,-0.007385,0.010437,-0.990723,0.251389,0.523969,-0.039389,46,279,578,5456
1644159330.563393,-0.010986,0.007324,-0.990845,0.251389,0.447634,-0.085191,41,276,569,5408
1644159330.61179,-0.012329,0.008972,-0.989868,0.175053,0.340763,-0.192061,47,273,577,5456
1644159330.660184,-0.01355,0.010986,-0.991577,0.327725,0.478168,-0.176794,48,281,576,5424
1644159330.708879,-0.01001,0.010315,-0.992554,0.266656,0.356031,-0.115725,47,273,577,5376
1644159330.760486,-0.00885,0.009521,-0.994324,0.220855,0.569771,-0.130992,57,275,570,5344
1644159330.809713,-0.013489,0.007812,-0.994812,0.236122,0.447634,-0.161527,54,273,589,5408
1644159330.855009,-0.012268,0.009644,-0.992249,0.419328,0.325496,-0.176794,51,279,573,5424
1644159330.950561,-0.006592,0.007202,-0.993774,0.175053,0.401832,-0.222595,49,275,570,5456
1644159330.998948,-0.01355,0.010193,-0.990845,0.373527,0.508702,-0.069924,47,275,575,5376
1644159331.056956,-0.008789,0.009888,-0.9953,0.312458,0.508702,-0.14626,49,275,584,5344
1644159331.095717,-0.009033,0.009033,-0.991882,0.129252,0.508702,-0.039389,59,275,575,5408
1644159331.144117,-0.009705,0.00824,-0.989929,0.312458,0.401832,-0.161527,42,270,572,5424
1644159331.192538,-0.010132,0.007324,-0.993225,0.266656,0.356031,-0.14626,48,266,578,5344
1644159331.240904,-0.011841,0.011414,-0.992554,0.129252,0.493435,-0.192061,51,283,585,5376
1644159331.289272,-0.009827,0.008423,-0.990112,0.281924,0.432366,-0.100458,53,276,576,5424
1644159331.337667,-0.011169,0.010803,-0.991333,0.205588,0.218626,-0.039389,48,264,573,5376
1644159331.386059,-0.010742,0.009644,-0.991211,0.098718,0.432366,-0.176794,54,268,582,5456
1644159331.434452,-0.013611,0.007629,-0.994324,0.129252,0.508702,0.067481,54,270,579,5456
1644159331.482858,-0.011902,0.007324,-0.988953,0.190321,0.279695,0.113282,53,274,578,5456
1644159331.531241,-0.010315,0.006348,-0.99408,0.144519,0.310229,-0.085191,51,269,578,5456
1644159331.5796,-0.012024,0.008118,-0.992493,0.327725,0.386565,-0.069924,46,274,578,5344
1644159331.628007,-0.009094,0.00885,-0.993225,0.190321,0.523969,-0.161527,52,277,575,5360
1644159331.676417,-0.009583,0.011414,-0.993408,0.159786,0.356031,-0.085191,48,279,571,5408
1644159331.726337,-0.009399,0.01062,-0.989624,0.205588,0.478168,-0.115725,53,266,580,5408
1644159331.776772,-0.009888,0.01123,-0.988647,0.297191,0.63084,-0.207328,39,279,576,5344
1644159331.826943,-0.011047,0.009521,-0.989807,0.297191,0.432366,0.021679,52,273,582,5360
1644159331.871341,-0.012207,0.007446,-0.993408,0.236122,0.462901,0.021679,47,277,575,5424
1644159331.96675,-0.010437,0.008606,-0.990051,0.220855,0.310229,0.021679,57,280,577,5472
1644159332.01538,-0.008667,0.008179,-0.989929,0.434595,0.401832,-0.115725,48,276,583,5376
1644159332.063651,-0.008118,0.009216,-0.990234,0.236122,0.447634,-0.192061,43,283,583,5376
1644159332.111844,-0.00946,0.008606,-0.989319,0.251389,0.386565,-0.054656,46,283,576,5408
1644159332.160254,-0.010681,0.010132,-0.989563,0.281924,0.310229,-0.130992,51,274,576,5424
1644159332.208642,-0.010925,0.010376,-0.990967,0.266656,0.371298,-0.176794,43,274,573,5408
1644159332.257017,-0.011169,0.009399,-0.990601,0.251389,0.417099,-0.14626,60,276,576,5456
1644159332.305418,-0.01001,0.007812,-0.99231,0.159786,0.401832,-0.039389,52,277,577,5424
1644159332.353813,-0.008972,0.007507,-0.992371,0.281924,0.279695,-0.024122,45,275,575,5424
1644159332.402215,-0.007996,0.007751,-0.989258,0.281924,0.310229,-0.222595,41,276,562,5424
1644159332.450602,-0.010498,0.010559,-0.989197,0.098718,0.356031,-0.222595,47,277,577,5344
1644159332.49897,-0.011353,0.010193,-0.991577,0.068183,0.264427,-0.054656,46,276,573,5376
1644159332.547378,-0.009583,0.010803,-0.987732,0.113985,0.386565,-0.237863,55,276,583,5376
1644159332.595765,-0.01062,0.010132,-0.992371,0.312458,0.264427,-0.039389,45,273,572,5456
1644159332.644157,-0.014099,0.013428,-0.990845,0.144519,0.401832,-0.024122,48,279,573,5408
1644159332.692568,-0.01123,0.009399,-0.997314,0.281924,0.508702,-0.207328,58,271,585,5360
1644159332.740926,-0.009155,0.010925,-0.992432,0.251389,0.203359,-0.008855,51,276,580,5424
1644159332.789364,-0.012146,0.009094,-0.990723,0.236122,0.203359,-0.085191,48,276,573,5424
1644159332.837754,-0.009399,0.008789,-0.993652,0.312458,0.478168,-0.115725,59,275,579,5408
1644159332.887713,-0.008789,0.008789,-0.992615,0.312458,0.447634,-0.024122,53,276,571,5376
1644159332.938117,-0.010803,0.008789,-0.993103,0.175053,0.386565,-0.008855,42,275,572,5424
1644159332.988627,-0.012512,0.011108,-0.990723,0.205588,0.371298,0.098015,51,271,578,5408
1644159333.079813,-0.008789,0.009705,-0.991272,0.251389,0.478168,-0.024122,43,269,580,5360
1644159333.128028,-0.01062,0.006348,-0.992065,0.205588,0.432366,-0.130992,41,259,576,5424
1644159333.176447,-0.010193,0.007019,-0.994446,0.205588,0.462901,-0.069924,52,270,582,5344
1644159333.224839,-0.012817,0.010132,-0.992493,0.281924,0.279695,-0.085191,54,270,577,5376
1644159333.273204,-0.010803,0.008728,-0.992554,0.266656,0.325496,-0.085191,45,275,570,5360
1644159333.321601,-0.011414,0.008606,-0.992249,0.159786,0.508702,-0.039389,58,274,590,5456
1644159333.370001,-0.01123,0.008545,-0.99176,0.098718,0.417099,-0.054656,53,274,576,5344
1644159333.418397,-0.011414,0.009216,-0.991882,0.098718,0.417099,-0.14626,51,283,576,5424
1644159333.466777,-0.007629,0.007324,-0.992737,0.159786,0.371298,-0.039389,46,276,576,5456
1644159333.515236,-0.013733,0.011475,-0.993042,0.175053,0.417099,0.006412,52,280,579,5456
1644159333.56357,-0.010071,0.009277,-0.991882,0.236122,0.432366,-0.039389,51,271,569,5360
1644159333.611949,-0.010681,0.00885,-0.991028,0.190321,0.478168,-0.161527,43,286,580,5456
1644159333.66029,-0.010315,0.00885,-0.990662,0.495664,0.585038,-0.100458,49,270,577,5408
1644159333.708717,-0.010437,0.00824,-0.993103,0.312458,0.569771,-0.039389,46,271,576,5360
1644159333.757086,-0.011902,0.008606,-0.993164,0.419328,0.569771,-0.054656,55,269,571,5344
1644159333.805533,-0.010132,0.007263,-0.994629,0.220855,0.401832,0.021679,58,286,587,5408
1644159333.853936,-0.010742,0.008728,-0.991211,0.388794,0.371298,-0.176794,48,266,573,5408
1644159333.90255,-0.009705,0.010071,-0.992371,0.35826,0.554504,-0.100458,58,274,578,5344
1644159333.953031,-0.006409,0.007996,-0.992432,0.266656,0.478168,-0.085191,49,275,570,5360
1644159334.052237,-0.011169,0.008545,-0.992188,0.251389,0.539237,-0.054656,52,270,579,5376
1644159334.095859,-0.011047,0.010193,-0.993591,0.419328,0.493435,-0.085191,54,275,579,5360
1644159334.144214,-0.011475,0.009155,-0.991394,0.342992,0.401832,-0.115725,48,279,580,5360
1644159334.19263,-0.013,0.009888,-0.988708,0.129252,0.356031,-0.14626,52,268,577,5408
1644159334.24101,-0.011841,0.00647,-0.992676,0.312458,0.417099,-0.085191,54,273,579,5408
1644159334.289391,-0.009277,0.009766,-0.989075,0.159786,0.371298,-0.100458,49,268,570,5424
1644159334.337774,-0.006897,0.008179,-0.991821,0.236122,0.325496,0.021679,47,280,575,5376
1644159334.386178,-0.009888,0.00885,-0.991821,0.205588,0.24916,0.036947,53,266,573,5344
1644159334.434677,-0.009521,0.007751,-0.995728,0.159786,0.356031,0.098015,59,270,575,5376
1644159334.482969,-0.011475,0.009155,-0.992737,0.251389,0.447634,-0.298931,42,270,570,5360
1644159334.531343,-0.013062,0.009888,-0.99054,0.251389,0.325496,-0.14626,53,274,576,5360
1644159334.579739,-0.008362,0.010864,-0.989929,0.220855,0.386565,0.098015,53,276,580,5376
1644159334.628114,-0.01123,0.008728,-0.993286,0.373527,0.356031,-0.237863,45,265,577,5424
1644159334.676507,-0.009583,0.012451,-0.99231,0.327725,0.386565,-0.176794,53,279,578,5312
1644159334.724884,-0.008179,0.007996,-0.990967,0.190321,0.401832,-0.008855,47,270,589,5376
1644159334.773278,-0.012024,0.008972,-0.992493,0.052916,0.539237,-0.008855,58,271,583,5408
1644159334.822621,-0.009216,0.010498,-0.992004,0.220855,0.478168,-0.237863,53,276,585,5456
1644159334.872596,-0.008728,0.011169,-0.991394,0.236122,0.432366,-0.054656,55,279,580,5344
1644159334.922909,-0.00708,0.011292,-0.993286,0.068183,0.356031,-0.268397,45,277,579,5456
1644159334.967552,-0.013489,0.01001,-0.992371,0.281924,0.386565,-0.130992,48,276,569,5376
1644159335.063723,-0.005371,0.010437,-0.989258,0.190321,0.432366,0.021679,49,285,586,5424
1644159335.112001,-0.010559,0.012573,-0.987671,0.159786,0.432366,-0.039389,42,280,577,5376
1644159335.160383,-0.01178,0.008179,-0.991821,0.236122,0.371298,-0.054656,49,265,565,5360
1644159335.208788,-0.010376,0.008667,-0.992371,0.175053,0.523969,-0.054656,51,276,578,5408
1644159335.257152,-0.006836,0.009338,-0.989624,0.159786,0.386565,-0.054656,43,274,578,5408
1644159335.305548,-0.009827,0.009705,-0.99054,0.220855,0.462901,-0.100458,48,279,573,5408
1644159335.353963,-0.008911,0.011597,-0.993835,0.175053,0.340763,-0.207328,51,271,564,5424
1644159335.402365,-0.009766,0.006592,-0.993225,0.159786,0.386565,0.036947,49,265,572,5360
1644159335.450738,-0.01062,0.008911,-0.990173,0.236122,0.493435,-0.085191,43,269,580,5344
1644159335.499107,-0.010803,0.010437,-0.989746,0.190321,0.264427,-0.039389,53,279,583,5424
1644159335.547514,-0.011597,0.010925,-0.991089,0.052916,0.523969,0.082748,53,269,580,5360
1644159335.595913,-0.007996,0.008972,-0.98999,0.205588,0.462901,-0.115725,59,273,579,5360
1644159335.644309,-0.010559,0.009033,-0.992859,0.342992,0.294962,-0.100458,58,274,578,5408
1644159335.692706,-0.009705,0.009338,-0.992615,0.312458,0.356031,-0.161527,48,274,578,5360
1644159335.741065,-0.011475,0.005676,-0.990051,0.159786,0.386565,-0.14626,48,276,576,5408
1644159335.789503,-0.010498,0.009094,-0.991516,0.175053,0.294962,0.006412,46,276,590,5456
1644159335.83789,-0.012634,0.01062,-0.993225,0.419328,0.432366,-0.130992,45,275,575,5424
1644159335.886505,-0.010193,0.009033,-0.989014,0.281924,0.24916,-0.207328,58,269,573,5456
1644159335.934706,-0.013367,0.008179,-0.990906,0.312458,0.325496,-0.161527,58,271,578,5360
1644159335.984302,-0.011414,0.01062,-0.994019,0.144519,0.478168,-0.085191,45,277,577,5312
1644159336.057586,-0.012634,0.010681,-0.991211,0.251389,0.523969,-0.192061,52,275,582,5456
1644159336.083695,-0.01239,0.008423,-0.990784,0.266656,0.462901,-0.130992,59,270,584,5408
1644159336.176581,-0.009644,0.00824,-0.993835,0.113985,0.554504,-0.069924,57,270,565,5456
1644159336.225199,-0.011841,0.007263,-0.98877,0.220855,0.401832,-0.130992,49,273,570,5424
1644159336.273341,-0.011353,0.009705,-0.990112,0.220855,0.371298,-0.024122,45,270,570,5360
1644159336.321739,-0.010681,0.00769,-0.991943,0.190321,0.401832,-0.115725,52,275,575,5456
1644159336.370123,-0.011719,0.010803,-0.991028,0.297191,0.462901,-0.008855,47,277,565,5424
1644159336.418533,-0.011047,0.012512,-0.991577,0.404061,0.462901,-0.283664,55,262,569,5344
1644159336.466912,-0.009338,0.011536,-0.99176,0.205588,0.417099,-0.069924,48,271,576,5488
1644159336.515308,-0.01001,0.006531,-0.98938,0.236122,0.462901,-0.115725,47,285,568,5456
1644159336.563696,-0.008179,0.008362,-0.990417,0.113985,0.493435,-0.039389,43,276,571,5312
1644159336.61208,-0.012024,0.011292,-0.995911,0.266656,0.508702,-0.100458,47,273,584,5472
1644159336.66048,-0.010437,0.008423,-0.993103,0.297191,0.24916,-0.192061,59,268,579,5408
1644159336.708849,-0.013367,0.008484,-0.990601,0.144519,0.493435,-0.039389,46,274,573,5408
1644159336.757241,-0.01062,0.008057,-0.993164,0.113985,0.523969,-0.039389,55,274,578,5344
1644159336.805606,-0.011169,0.009033,-0.989563,0.297191,0.417099,-0.039389,58,271,585,5360
1644159336.854066,-0.00946,0.010193,-0.992432,0.251389,0.417099,-0.100458,51,274,573,5360
1644159336.902485,-0.008423,0.007141,-0.994629,0.113985,0.462901,-0.100458,51,279,592,5344
1644159336.95084,-0.009521,0.007751,-0.993958,0.113985,0.493435,0.006412,48,274,576,5408
1644159336.999209,-0.009399,0.008911,-0.990601,0.251389,0.340763,-0.069924,49,273,586,5456
1644159337.09601,-0.011963,0.00946,-0.99115,0.205588,0.325496,-0.100458,54,263,579,5424
1644159337.144413,-0.01062,0.01001,-0.993408,0.190321,0.356031,-0.115725,54,268,577,5472
1644159337.19276,-0.007996,0.008484,-0.992371,0.144519,0.462901,-0.100458,40,268,577,5456
1644159337.241125,-0.009338,0.007385,-0.991821,0.220855,0.294962,-0.054656,43,276,580,5360
1644159337.28953,-0.01239,0.008789,-0.99353,0.08345,0.325496,-0.176794,52,270,568,5488
1644159337.337914,-0.011536,0.009094,-0.992554,0.144519,0.417099,-0.039389,46,271,573,5360
1644159337.386299,-0.011108,0.010742,-0.992065,0.159786,0.401832,-0.14626,41,276,573,5344
1644159337.43475,-0.010315,0.007874,-0.991943,0.312458,0.371298,-0.192061,46,271,580,5344
1644159337.483099,-0.009094,0.007874,-0.99176,0.052916,0.523969,-0.176794,52,275,577,5344
1644159337.531476,-0.009216,0.009583,-0.993591,0.281924,0.417099,-0.161527,54,268,579,5424
1644159337.579868,-0.010071,0.009888,-0.993713,0.297191,0.539237,-0.085191,51,276,571,5424
1644159337.628265,-0.012146,0.008545,-0.993713,0.342992,0.401832,-0.161527,51,281,576,5456
1644159337.676632,-0.012939,0.009644,-0.992371,0.220855,0.294962,-0.100458,45,263,586,5472
1644159337.725151,-0.008667,0.011841,-0.993103,0.266656,0.340763,-0.14626,49,270,577,5408
1644159337.773414,-0.010193,0.007568,-0.991272,0.175053,0.432366,-0.100458,59,275,582,5360
1644159337.821792,-0.011292,0.009827,-0.993958,0.236122,0.478168,-0.054656,53,279,571,5360
1644159337.870243,-0.011047,0.008972,-0.991821,0.037649,0.462901,-0.085191,55,274,569,5408
1644159337.91863,-0.009583,0.010254,-0.990662,0.144519,0.218626,-0.085191,47,268,579,5424
1644159337.967067,-0.010071,0.009521,-0.990051,0.175053,0.478168,-0.039389,53,271,578,5360
1644159338.01639,-0.009155,0.012878,-0.99054,0.281924,0.432366,-0.192061,47,270,575,5360
1644159338.077778,-0.007019,0.009644,-0.991821,0.144519,0.401832,-0.085191,58,281,573,5424
1644159338.117257,-0.011169,0.007507,-0.990662,0.190321,0.417099,-0.222595,51,271,578,5456
1644159338.161397,-0.007751,0.00769,-0.993896,0.129252,0.478168,-0.069924,58,262,573,5344
1644159338.257343,-0.010498,0.008972,-0.988403,0.236122,0.340763,-0.100458,47,275,575,5376
1644159338.305722,-0.012329,0.009155,-0.990906,0.220855,0.554504,-0.039389,48,276,571,5424
1644159338.354139,-0.011169,0.010193,-0.990479,0.327725,0.401832,0.006412,55,269,578,5472
1644159338.402533,-0.011292,0.007446,-0.988647,0.144519,0.417099,-0.130992,51,276,571,5344
1644159338.450911,-0.01062,0.009338,-0.990906,0.159786,0.508702,-0.176794,49,268,582,5424
1644159338.499286,-0.011536,0.00885,-0.989807,0.144519,0.371298,0.021679,45,277,579,5456
1644159338.547693,-0.010437,0.011475,-0.99585,0.205588,0.417099,0.052214,54,280,575,5456
1644159338.596082,-0.009949,0.010681,-0.991943,0.220855,0.371298,0.021679,60,279,578,5424
1644159338.644458,-0.008789,0.009827,-0.991638,0.220855,0.356031,-0.176794,55,286,569,5472
1644159338.692871,-0.009216,0.011536,-0.99176,0.342992,0.462901,0.036947,41,281,583,5408
1644159338.741234,-0.010254,0.008057,-0.990845,0.251389,0.294962,-0.176794,41,276,573,5424
1644159338.789638,-0.008545,0.010864,-0.993347,0.205588,0.325496,-0.237863,52,268,577,5456
1644159338.838029,-0.010681,0.009888,-0.994324,0.190321,0.340763,-0.14626,59,268,575,5376
1644159338.886431,-0.012939,0.008789,-0.990906,0.281924,0.386565,-0.100458,54,270,577,5344
1644159338.934821,-0.008179,0.007812,-0.989624,0.251389,0.356031,-0.130992,43,276,576,5456
1644159338.983202,-0.011292,0.010742,-0.991455,0.144519,0.356031,-0.054656,53,276,573,5488
1644159339.044246,-0.01062,0.007385,-0.991577,0.373527,0.432366,-0.115725,61,290,584,5408
1644159339.083615,-0.009155,0.008179,-0.992004,0.205588,0.401832,0.021679,49,273,575,5376
1644159339.128337,-0.010864,0.006348,-0.991821,0.190321,0.371298,-0.054656,49,260,584,5360
1644159339.177511,-0.01178,0.009888,-0.992676,0.297191,0.340763,0.021679,48,269,564,5424
1644159339.228099,-0.010193,0.008911,-0.991455,0.297191,0.24916,-0.039389,58,279,566,5408
1644159339.278362,-0.010864,0.010315,-0.992004,0.266656,0.356031,-0.054656,49,285,584,5456
1644159339.323177,-0.01062,0.011169,-0.989868,0.190321,0.401832,-0.130992,47,277,570,5376
1644159339.418652,-0.011536,0.007996,-0.990417,0.159786,0.508702,-0.115725,48,266,573,5456
1644159339.467033,-0.009766,0.008789,-0.991455,0.312458,0.508702,-0.069924,52,280,568,5456
1644159339.515431,-0.009399,0.009888,-0.991943,0.220855,0.340763,-0.085191,45,265,579,5472
1644159339.563829,-0.011414,0.008972,-0.991638,0.129252,0.508702,-0.115725,53,266,576,5376
1644159339.612393,-0.008606,0.01001,-0.992371,0.342992,0.340763,-0.100458,48,276,578,5376
1644159339.66059,-0.011292,0.00708,-0.992432,0.312458,0.264427,-0.176794,53,271,576,5424
1644159339.708994,-0.011414,0.008911,-0.992737,0.297191,0.279695,-0.039389,46,264,578,5456
1644159339.757371,-0.010376,0.009277,-0.992554,0.190321,0.340763,-0.085191,46,266,566,5424
1644159339.805829,-0.010681,0.013,-0.992493,0.312458,0.294962,-0.008855,52,268,565,5344
1644159339.854218,-0.009766,0.011047,-0.989868,0.342992,0.401832,-0.207328,47,275,565,5456
1644159339.902619,-0.009521,0.008362,-0.99054,0.144519,0.401832,-0.100458,60,271,571,5408
1644159339.950982,-0.010071,0.009033,-0.992737,0.266656,0.340763,-0.008855,46,279,573,5424
1644159339.999377,-0.012329,0.008728,-0.992676,0.220855,0.447634,-0.161527,39,281,585,5312
1644159340.055321,-0.008301,0.012817,-0.990967,0.342992,0.371298,-0.130992,62,276,576,5360
1644159340.096125,-0.011719,0.009033,-0.992188,0.175053,0.401832,-0.024122,47,282,582,5408
1644159340.144523,-0.01123,0.010071,-0.993164,0.251389,0.493435,-0.054656,59,275,575,5456
1644159340.192911,-0.01123,0.009521,-0.99054,0.205588,0.508702,-0.14626,53,276,580,5344
1644159340.241279,-0.010742,0.01001,-0.99353,0.175053,0.218626,-0.176794,46,281,573,5424
1644159340.289667,-0.010437,0.012024,-0.98938,0.434595,0.447634,-0.14626,38,277,584,5424
1644159340.3381,-0.010986,0.009399,-0.991455,0.327725,0.493435,-0.237863,52,265,582,5456
1644159340.388282,-0.013489,0.007019,-0.994995,0.205588,0.401832,-0.069924,36,276,580,5344
1644159340.438678,-0.011902,0.007507,-0.991943,0.190321,0.478168,-0.115725,54,275,572,5376
1644159340.483651,-0.011047,0.005615,-0.990967,0.098718,0.325496,-0.054656,59,282,563,5360
1644159340.579999,-0.008545,0.007141,-0.990784,0.205588,0.554504,-0.085191,58,274,578,5456
1644159340.628379,-0.010437,0.008972,-0.989319,0.419328,0.386565,-0.14626,55,269,576,5344
1644159340.676763,-0.012695,0.007996,-0.991272,0.419328,0.417099,-0.024122,53,274,578,5344
1644159340.725383,-0.012207,0.009705,-0.990601,0.342992,0.279695,-0.085191,46,271,571,5424
1644159340.773565,-0.009033,0.006531,-0.993591,0.098718,0.432366,-0.115725,52,268,575,5376
1644159340.822015,-0.010071,0.011292,-0.992126,0.297191,0.432366,-0.115725,52,265,572,5424
1644159340.870389,-0.012207,0.008606,-0.991272,0.266656,0.478168,-0.100458,51,259,578,5376
1644159340.918779,-0.011597,0.007874,-0.990784,0.129252,0.432366,-0.085191,51,271,583,5408
1644159340.967165,-0.01178,0.008972,-0.993042,0.113985,0.356031,-0.100458,49,263,570,5344
1644159341.015556,-0.010559,0.006836,-0.992737,0.236122,0.447634,0.006412,51,266,566,5408
1644159341.075361,-0.010376,0.009399,-0.990845,0.236122,0.264427,-0.054656,52,270,577,5376
1644159341.11231,-0.010132,0.00946,-0.992798,0.327725,0.325496,-0.100458,54,273,577,5456
1644159341.160676,-0.010498,0.006897,-0.992371,0.526198,0.447634,-0.039389,59,273,577,5344
1644159341.20907,-0.009033,0.010986,-0.991333,0.159786,0.371298,-0.100458,52,280,575,5376
1644159341.257445,-0.012756,0.00824,-0.990601,0.281924,0.508702,-0.130992,57,280,582,5344
1644159341.305814,-0.012329,0.012146,-0.989746,0.159786,0.325496,-0.130992,55,264,580,5424
1644159341.354215,-0.012695,0.010498,-0.992188,0.113985,0.386565,-0.039389,55,276,578,5408
1644159341.402658,-0.010681,0.008362,-0.991882,0.068183,0.478168,0.006412,51,271,576,5376
1644159341.452461,-0.00946,0.005127,-0.990723,0.35826,0.493435,-0.161527,49,268,570,5408
1644159341.502701,-0.010986,0.010437,-0.991882,0.144519,0.523969,-0.115725,53,264,566,5408
1644159341.553141,-0.010315,0.009583,-0.995544,0.205588,0.493435,-0.130992,54,265,575,5376
1644159341.644554,-0.011719,0.006226,-0.992126,0.297191,0.493435,-0.161527,41,271,576,5424
1644159341.692976,-0.012695,0.010681,-0.992065,0.220855,0.417099,-0.130992,48,266,566,5424
1644159341.741355,-0.010254,0.009399,-0.990662,0.312458,0.523969,-0.054656,53,264,576,5424
1644159341.789724,-0.011047,0.009583,-0.989868,0.144519,0.401832,-0.100458,57,282,584,5360
1644159341.838179,-0.011658,0.008179,-0.994263,0.205588,0.325496,-0.192061,52,265,582,5456
1644159341.886553,-0.008545,0.009644,-0.992371,0.373527,0.356031,-0.176794,52,280,575,5408
1644159341.934999,-0.011292,0.008972,-0.992859,0.266656,0.401832,-0.176794,49,265,575,5376
1644159341.983346,-0.012695,0.01123,-0.991821,0.190321,0.310229,-0.100458,36,281,583,5344
1644159342.031729,-0.013367,0.008728,-0.99408,0.35826,0.386565,-0.192061,54,268,577,5424
1644159342.080349,-0.012085,0.005676,-0.992798,0.297191,0.478168,-0.115725,57,275,577,5456
1644159342.128466,-0.009583,0.010925,-0.992981,0.251389,0.294962,-0.100458,53,281,580,5408
1644159342.176855,-0.012878,0.010559,-0.992737,0.251389,0.294962,-0.039389,59,275,577,5424
1644159342.225247,-0.013184,0.00824,-0.992493,0.175053,0.401832,-0.176794,53,276,578,5344
1644159342.27363,-0.01062,0.009583,-0.989258,0.327725,0.432366,-0.024122,43,276,564,5360
1644159342.322023,-0.007385,0.011841,-0.992798,0.297191,0.401832,-0.115725,39,264,573,5408
1644159342.370422,-0.00946,0.008789,-0.992004,0.190321,0.279695,-0.039389,51,274,571,5344
1644159342.418842,-0.010559,0.009094,-0.992676,0.220855,0.585038,0.006412,53,276,583,5344
1644159342.468707,-0.010132,0.00647,-0.992554,0.373527,0.356031,-0.192061,43,276,583,5424
1644159342.519027,-0.010254,0.008362,-0.992615,0.266656,0.432366,-0.085191,53,259,573,5408
1644159342.569317,-0.013306,0.007751,-0.993469,0.342992,0.478168,-0.085191,51,271,569,5456
1644159342.660749,-0.012024,0.009827,-0.995239,0.297191,0.447634,-0.222595,59,268,575,5456
1644159342.709131,-0.009949,0.009827,-0.990356,0.129252,0.310229,-0.130992,49,268,577,5456
1644159342.757509,-0.013,0.008362,-0.990234,0.419328,0.417099,-0.085191,51,271,578,5376
1644159342.805902,-0.009888,0.009583,-0.991272,0.327725,0.386565,-0.176794,59,280,565,5360
1644159342.854363,-0.010437,0.008362,-0.992371,0.220855,0.401832,-0.14626,49,268,579,5360
1644159342.902748,-0.009094,0.007751,-0.992676,0.419328,0.447634,-0.085191,55,279,571,5424
1644159342.951132,-0.008667,0.010742,-0.992737,0.312458,0.386565,-0.054656,49,282,572,5520
1644159342.999491,-0.012695,0.008362,-0.992676,0.297191,0.539237,-0.161527,52,268,579,5424
1644159343.053489,-0.010986,0.00946,-0.989685,0.236122,0.523969,-0.054656,46,276,571,5424
1644159343.096306,-0.010803,0.008179,-0.993835,0.35826,0.447634,-0.115725,51,266,578,5344
1644159343.144718,-0.010864,0.011169,-0.991821,0.281924,0.478168,-0.14626,45,275,572,5424
1644159343.193051,-0.010498,0.007324,-0.99353,0.190321,0.386565,0.006412,51,266,585,5424
1644159343.241438,-0.010559,0.008911,-0.99292,0.297191,0.493435,0.021679,54,277,575,5360
1644159343.289816,-0.007385,0.00946,-0.99353,0.373527,0.203359,-0.100458,46,291,576,5456
1644159343.33821,-0.010681,0.009338,-0.993225,0.419328,0.188092,-0.115725,49,268,577,5424
1644159343.386588,-0.011414,0.009277,-0.99176,0.236122,0.310229,-0.069924,46,276,576,5344
1644159343.435204,-0.007202,0.010803,-0.992859,0.312458,0.447634,-0.085191,45,270,582,5376
1644159343.483364,-0.013611,0.009216,-0.992065,0.297191,0.539237,0.006412,43,281,580,5424
1644159343.532058,-0.01123,0.008728,-0.990112,0.419328,0.539237,-0.207328,49,263,570,5360
1644159343.581826,-0.012024,0.007996,-0.992004,0.35826,0.585038,-0.085191,41,262,571,5344
1644159343.631408,-0.007324,0.009949,-0.990051,0.266656,0.478168,-0.100458,49,282,572,5376
1644159343.681487,-0.011108,0.010986,-0.988586,0.220855,0.325496,-0.115725,51,271,576,5344
1644159343.72647,-0.011353,0.009705,-0.989929,0.175053,0.386565,-0.115725,57,280,577,5424
1644159343.822194,-0.012268,0.008972,-0.991272,0.220855,0.523969,-0.161527,52,277,572,5376
1644159343.870531,-0.011475,0.009644,-0.991882,0.052916,0.356031,-0.161527,49,270,577,5344
1644159343.918893,-0.011292,0.013184,-0.989319,0.251389,0.462901,-0.039389,45,280,577,5424
1644159343.967295,-0.010254,0.009888,-0.990906,0.373527,0.478168,-0.069924,60,271,576,5424
1644159344.015684,-0.012878,0.01001,-0.991272,0.404061,0.310229,-0.100458,53,274,573,5472
1644159344.065131,-0.011047,0.010559,-0.989075,0.190321,0.447634,0.113282,53,276,585,5456
1644159344.112518,-0.009644,0.009155,-0.992676,0.266656,0.417099,-0.024122,52,268,589,5424
1644159344.16082,-0.009399,0.010437,-0.991455,0.175053,0.401832,-0.024122,60,274,576,5360
1644159344.209209,-0.009705,0.008362,-0.990051,0.159786,0.264427,-0.054656,58,276,580,5424
1644159344.257602,-0.009644,0.007996,-0.992615,0.007115,0.386565,0.082748,54,277,577,5408
1644159344.305986,-0.012573,0.010925,-0.993713,0.175053,0.447634,-0.024122,45,273,579,5424
1644159344.354397,-0.010498,0.008606,-0.98938,0.159786,0.493435,-0.130992,47,275,577,5424
1644159344.402791,-0.012207,0.009827,-0.99054,0.220855,0.356031,-0.024122,64,277,586,5360
1644159344.451169,-0.011719,0.009338,-0.993652,0.129252,0.417099,-0.222595,40,277,582,5376
1644159344.499537,-0.012634,0.011047,-0.990479,0.236122,0.371298,-0.161527,51,271,573,5376
1644159344.547934,-0.011536,0.008118,-0.993835,0.251389,0.417099,-0.207328,52,285,577,5456
1644159344.596328,-0.011414,0.010864,-0.991516,0.068183,0.340763,-0.176794,49,285,572,5424
1644159344.644731,-0.010254,0.00824,-0.990234,0.266656,0.24916,-0.237863,49,273,572,5424
1644159344.693445,-0.011658,0.008911,-0.99054,0.159786,0.325496,-0.176794,36,279,585,5344
1644159344.742452,-0.010254,0.007507,-0.990173,0.327725,0.447634,-0.115725,48,279,571,5424
1644159344.79286,-0.011597,0.007996,-0.993347,0.159786,0.386565,-0.085191,49,280,577,5344
1644159344.838644,-0.008545,0.008301,-0.992065,0.251389,0.523969,-0.192061,45,280,579,5360
1644159344.935429,-0.01123,0.009033,-0.990601,0.281924,0.325496,-0.054656,52,282,577,5424
1644159344.983476,-0.010681,0.009888,-0.990417,0.220855,0.493435,-0.130992,49,270,577,5344
1644159345.031864,-0.010254,0.011169,-0.99292,0.098718,0.523969,-0.130992,54,275,575,5408
1644159345.082278,-0.011169,0.006958,-0.992859,0.373527,0.478168,-0.192061,45,287,565,5456
1644159345.128656,-0.014404,0.010315,-0.992676,0.205588,0.386565,-0.100458,55,274,580,5408
1644159345.177,-0.009399,0.00946,-0.992676,0.404061,0.478168,-0.039389,52,270,579,5408
1644159345.225391,-0.008911,0.006287,-0.992981,0.373527,0.401832,-0.192061,58,264,580,5376
1644159345.273769,-0.009888,0.007141,-0.994568,0.281924,0.371298,0.006412,55,279,576,5360
1644159345.322241,-0.011292,0.008911,-0.992126,0.297191,0.447634,-0.100458,47,273,575,5424
1644159345.370551,-0.012024,0.011475,-0.99292,0.266656,0.310229,-0.176794,58,286,578,5456
1644159345.418912,-0.010681,0.010559,-0.990784,0.419328,0.585038,-0.069924,60,269,580,5360
1644159345.467328,-0.011047,0.007202,-0.992676,0.129252,0.24916,0.006412,48,276,573,5408
1644159345.515678,-0.011536,0.007935,-0.994446,0.388794,0.371298,0.098015,45,280,570,5408
1644159345.564111,-0.012207,0.009399,-0.989868,0.190321,0.340763,-0.176794,53,286,564,5472
1644159345.612517,-0.008606,0.010559,-0.990662,0.35826,0.386565,-0.14626,55,271,576,5376
1644159345.660895,-0.009521,0.011047,-0.993042,0.281924,0.310229,-0.176794,58,281,583,5408
1644159345.70956,-0.012329,0.009827,-0.990845,0.144519,0.356031,-0.115725,55,266,580,5376
1644159345.758936,-0.011475,0.008362,-0.991577,0.251389,0.310229,-0.25313,47,270,582,5424
1644159345.809289,-0.009094,0.009521,-0.993164,0.190321,0.371298,0.006412,57,268,572,5456
1644159345.859994,-0.010315,0.010315,-0.992188,0.266656,0.447634,-0.008855,46,279,576,5344
1644159345.951258,-0.010498,0.012329,-0.993408,0.388794,0.310229,-0.069924,52,277,575,5456
1644159345.999637,-0.011292,0.008667,-0.993774,0.175053,0.356031,-0.130992,49,280,582,5376
1644159346.055001,-0.010193,0.008911,-0.990906,0.251389,0.340763,-0.115725,52,282,579,5456
1644159346.096415,-0.009033,0.011108,-0.990479,0.190321,0.325496,0.067481,51,274,580,5408
1644159346.14483,-0.009827,0.006409,-0.991272,0.144519,0.432366,-0.039389,52,280,572,5424
1644159346.193179,-0.010864,0.009705,-0.991394,0.068183,0.356031,-0.100458,42,270,572,5408
1644159346.241565,-0.013184,0.009338,-0.990479,0.495664,0.356031,-0.176794,41,276,576,5408
1644159346.289961,-0.010193,0.007935,-0.994019,0.312458,0.523969,-0.100458,47,282,572,5376
1644159346.338351,-0.011841,0.009033,-0.993408,0.327725,0.356031,-0.085191,57,275,584,5424
1644159346.386734,-0.010071,0.010925,-0.990906,0.205588,0.432366,-0.14626,52,270,575,5360
1644159346.435228,-0.012268,0.008789,-0.992188,0.266656,0.478168,-0.192061,45,282,577,5376
1644159346.483486,-0.009033,0.009094,-0.992188,0.205588,0.356031,-0.069924,48,274,578,5344
1644159346.531903,-0.011536,0.010071,-0.992676,0.113985,0.493435,-0.069924,55,276,573,5344
1644159346.580286,-0.010193,0.011536,-0.991943,0.098718,0.279695,-0.14626,52,277,575,5424
1644159346.62868,-0.011719,0.010376,-0.993591,0.373527,0.432366,-0.130992,46,281,573,5344
1644159346.67703,-0.009888,0.012329,-0.991516,0.175053,0.615573,-0.115725,49,263,577,5456
1644159346.725455,-0.009277,0.00946,-0.990417,0.175053,0.417099,-0.008855,42,277,572,5360
1644159346.773876,-0.011963,0.010986,-0.989197,0.159786,0.447634,-0.024122,61,270,577,5424
1644159346.823232,-0.009155,0.009949,-0.991211,0.388794,0.493435,-0.130992,60,274,576,5408
1644159346.874913,-0.007568,0.007874,-0.991272,0.037649,0.447634,-0.161527,48,271,576,5360
1644159346.924775,-0.012268,0.007812,-0.990295,0.342992,0.340763,-0.207328,54,270,577,5456
1644159347.015817,-0.012634,0.010376,-0.990479,0.312458,0.554504,-0.100458,52,273,577,5424
1644159347.064819,-0.009399,0.010803,-0.992737,0.35826,0.371298,0.082748,54,270,575,5424
1644159347.112555,-0.00946,0.006836,-0.992615,0.281924,0.401832,-0.008855,53,271,566,5408
1644159347.160957,-0.008972,0.008362,-0.992493,0.236122,0.539237,-0.085191,61,280,572,5360
1644159347.209347,-0.007202,0.009033,-0.992004,0.236122,0.493435,-0.130992,53,276,571,5408
1644159347.257723,-0.010315,0.010437,-0.993347,0.113985,0.417099,-0.054656,40,275,570,5424
1644159347.306103,-0.011841,0.008545,-0.995117,0.266656,0.340763,-0.024122,55,266,573,5408
1644159347.354525,-0.010376,0.008606,-0.990723,0.113985,0.279695,-0.161527,49,280,572,5424
1644159347.402914,-0.011536,0.008545,-0.993469,0.205588,0.371298,-0.115725,57,280,572,5408
1644159347.451294,-0.013245,0.009888,-0.993408,0.251389,0.417099,0.006412,43,274,576,5344
1644159347.499635,-0.010559,0.008057,-0.990662,0.098718,0.233893,-0.207328,51,283,580,5424
1644159347.548065,-0.010498,0.00824,-0.990417,0.342992,0.401832,-0.14626,54,275,577,5456
1644159347.59646,-0.008728,0.008118,-0.993591,0.129252,0.325496,0.12855,55,269,564,5376
1644159347.644875,-0.013611,0.010071,-0.991211,0.373527,0.478168,-0.298931,58,271,585,5360
1644159347.693265,-0.012268,0.010742,-0.992249,0.297191,0.371298,-0.192061,53,281,562,5408
1644159347.741608,-0.011047,0.009155,-0.992859,0.159786,0.447634,0.143817,52,280,570,5344
1644159347.790062,-0.009338,0.010742,-0.991516,0.220855,0.356031,-0.039389,53,279,571,5472
1644159347.838451,-0.009155,0.009644,-0.991882,0.098718,0.493435,0.098015,51,269,566,5456
1644159347.886848,-0.010681,0.008789,-0.994202,0.281924,0.401832,-0.024122,46,266,578,5360
1644159347.936164,-0.011292,0.009766,-0.994812,0.190321,0.294962,0.021679,46,269,583,5424
1644159347.986602,-0.010071,0.008484,-0.990356,0.205588,0.401832,-0.192061,54,273,572,5408
1644159348.080387,-0.010437,0.008423,-0.993958,0.312458,0.417099,-0.085191,43,271,578,5344
1644159348.128725,-0.012451,0.009399,-0.991638,0.236122,0.356031,-0.176794,51,274,576,5536
1644159348.177132,-0.010254,0.009583,-0.989685,0.266656,0.371298,-0.115725,43,271,578,5408
1644159348.225525,-0.008484,0.010254,-0.990417,0.35826,0.478168,-0.115725,47,265,572,5360
1644159348.273903,-0.010681,0.007568,-0.990723,0.281924,0.493435,0.006412,49,277,577,5472
1644159348.322295,-0.010742,0.008545,-0.993408,0.297191,0.401832,-0.100458,55,266,569,5312
1644159348.370691,-0.008911,0.009521,-0.991211,0.159786,0.432366,-0.14626,58,279,576,5456
1644159348.419075,-0.010925,0.006104,-0.992554,0.205588,0.478168,-0.024122,47,273,575,5408
1644159348.467475,-0.013062,0.009399,-0.994141,0.098718,0.310229,-0.100458,52,280,575,5424
1644159348.515866,-0.011963,0.008789,-0.99176,0.175053,0.539237,-0.130992,47,277,577,5424
1644159348.564269,-0.008667,0.008972,-0.99176,0.220855,0.340763,-0.069924,55,276,566,5472
1644159348.61266,-0.010437,0.007446,-0.991638,0.281924,0.462901,-0.237863,39,283,580,5408
1644159348.661033,-0.010925,0.007568,-0.992676,0.251389,0.447634,-0.085191,54,277,589,5408
1644159348.70943,-0.012451,0.010986,-0.994751,0.175053,0.539237,-0.130992,51,274,576,5472
1644159348.757787,-0.011292,0.011658,-0.992126,0.175053,0.493435,-0.130992,52,275,572,5376
1644159348.806238,-0.014221,0.010193,-0.991577,0.327725,0.447634,0.006412,59,277,575,5456
1644159348.854662,-0.014282,0.010376,-0.992798,0.312458,0.432366,-0.14626,42,275,582,5456
1644159348.903029,-0.012451,0.009583,-0.992126,0.297191,0.310229,-0.039389,46,271,580,5344
1644159348.951399,-0.012634,0.007996,-0.990234,0.434595,0.325496,-0.100458,40,273,572,5456
1644159349.056009,-0.009277,0.010315,-0.991455,0.052916,0.325496,-0.085191,47,263,582,5376
1644159349.096548,-0.010193,0.007019,-0.990479,0.098718,0.478168,0.021679,51,281,583,5424
1644159349.14491,-0.009094,0.008911,-0.992981,0.220855,0.340763,-0.085191,51,274,562,5408
1644159349.193305,-0.008911,0.010376,-0.993835,0.327725,0.401832,-0.161527,51,274,583,5344
1644159349.241709,-0.008179,0.006348,-0.993042,0.220855,0.401832,-0.054656,59,275,575,5408
1644159349.290106,-0.012085,0.011475,-0.993774,0.251389,0.478168,-0.069924,46,266,583,5408
1644159349.338453,-0.01062,0.006836,-0.987915,0.266656,0.371298,-0.130992,57,277,575,5344
1644159349.386873,-0.012207,0.00769,-0.991455,0.388794,0.371298,-0.039389,43,271,569,5376
1644159349.435302,-0.009827,0.010132,-0.991577,0.068183,0.371298,0.021679,54,275,577,5408
1644159349.483671,-0.008118,0.008667,-0.996033,0.251389,0.569771,-0.222595,51,266,571,5360
1644159349.532038,-0.012268,0.008972,-0.993713,0.190321,0.401832,-0.024122,55,266,578,5408
1644159349.580435,-0.012512,0.006714,-0.995911,0.388794,0.432366,0.021679,43,286,571,5376
1644159349.628835,-0.008362,0.007507,-0.990234,0.404061,0.386565,-0.115725,46,269,573,5424
1644159349.677185,-0.011292,0.008362,-0.989929,0.159786,0.417099,-0.192061,48,264,571,5456
1644159349.726565,-0.011475,0.010559,-0.993225,0.266656,0.508702,-0.14626,55,269,573,5456
1644159349.774363,-0.007874,0.007874,-0.993347,0.281924,0.508702,-0.069924,47,270,565,5360
1644159349.826057,-0.007996,0.010925,-0.992737,0.205588,0.569771,-0.115725,60,271,580,5376
1644159349.92222,-0.009399,0.008362,-0.992737,0.190321,0.447634,-0.268397,55,271,585,5360
1644159349.967575,-0.012329,0.009277,-0.991577,0.098718,0.356031,-0.085191,60,274,576,5424
1644159350.015935,-0.008301,0.011292,-0.992676,0.175053,0.356031,-0.14626,53,274,573,5424
1644159350.065484,-0.011169,0.009033,-0.994629,0.35826,0.462901,-0.100458,54,275,575,5456
1644159350.112735,-0.011658,0.009644,-0.990723,0.434595,0.386565,-0.054656,49,275,570,5408
1644159350.161135,-0.012207,0.012085,-0.992432,0.251389,0.417099,-0.069924,53,269,578,5408
1644159350.209495,-0.010681,0.009766,-0.99231,0.236122,0.462901,-0.207328,42,260,579,5344
1644159350.257879,-0.007507,0.01123,-0.98938,0.251389,0.386565,-0.25313,52,273,577,5424
1644159350.306268,-0.00946,0.008423,-0.99231,0.312458,0.417099,-0.085191,52,268,575,5424
1644159350.354703,-0.012878,0.010376,-0.991943,0.052916,0.539237,-0.176794,48,279,576,5376
1644159350.403061,-0.014709,0.006592,-0.99176,0.297191,0.493435,0.021679,55,274,578,5424
1644159350.451436,-0.011902,0.008301,-0.99292,0.068183,0.478168,-0.14626,53,269,578,5408
1644159350.499829,-0.008423,0.008118,-0.994934,0.35826,0.493435,-0.14626,55,276,578,5312
1644159350.548216,-0.010559,0.009399,-0.992615,0.129252,0.462901,-0.161527,48,271,580,5456
1644159350.596606,-0.00885,0.009521,-0.993164,0.327725,0.447634,-0.115725,40,277,584,5424
1644159350.645036,-0.009705,0.00885,-0.991394,0.113985,0.417099,-0.130992,60,279,576,5424
1644159350.69338,-0.010437,0.006897,-0.993225,0.205588,0.310229,-0.161527,53,279,578,5360
1644159350.741832,-0.011108,0.006592,-0.996033,0.35826,0.554504,-0.039389,49,260,568,5360
1644159350.79172,-0.010986,0.007568,-0.993164,0.35826,0.310229,0.021679,53,264,578,5408
1644159350.842766,-0.008423,0.009583,-0.991699,0.251389,0.478168,-0.130992,48,271,576,5296
1644159350.887298,-0.011841,0.009277,-0.99292,0.175053,0.356031,-0.115725,54,275,572,5408
1644159350.983815,-0.010071,0.009399,-0.993164,0.251389,0.508702,-0.024122,48,286,585,5424
1644159351.032475,-0.01355,0.008362,-0.991211,0.236122,0.447634,-0.14626,45,268,572,5424
1644159351.087934,-0.007385,0.008423,-0.992065,0.220855,0.371298,-0.115725,47,270,579,5360
1644159351.128922,-0.009521,0.008728,-0.993286,0.373527,0.462901,-0.14626,46,274,566,5296
1644159351.17728,-0.010437,0.010925,-0.992737,0.159786,0.310229,0.052214,52,270,572,5424
1644159351.225677,-0.012207,0.010071,-0.99115,0.327725,0.478168,-0.25313,47,277,575,5376
1644159351.274062,-0.007996,0.008728,-0.992188,0.404061,0.340763,-0.161527,53,269,587,5424
1644159351.322456,-0.010925,0.008911,-0.992554,0.220855,0.478168,-0.100458,51,279,569,5424
1644159351.370825,-0.009521,0.008301,-0.992737,0.266656,0.523969,-0.222595,54,273,577,5424
1644159351.419224,-0.010803,0.012207,-0.991638,0.205588,0.462901,-0.100458,51,269,576,5424
1644159351.467612,-0.011841,0.010925,-0.991943,0.281924,0.432366,-0.008855,52,268,565,5456
1644159351.516001,-0.008911,0.007629,-0.992676,0.388794,0.325496,-0.14626,49,277,584,5376
1644159351.564424,-0.014038,0.011902,-0.993469,0.266656,0.371298,-0.054656,58,276,585,5456
1644159351.613274,-0.009216,0.010315,-0.990601,0.205588,0.294962,-0.069924,46,264,573,5456
1644159351.663464,-0.010132,0.014404,-0.993103,0.220855,0.539237,-0.024122,46,279,573,5424
1644159351.713818,-0.009766,0.009033,-0.992798,0.297191,0.462901,-0.008855,54,268,575,5424
1644159351.7589,-0.008911,0.009399,-0.992493,0.159786,0.478168,-0.069924,53,266,578,5424
1644159351.85516,-0.010132,0.006592,-0.993164,0.236122,0.493435,-0.069924,57,270,582,5424
1644159351.903162,-0.011597,0.009827,-0.99231,0.251389,0.447634,-0.069924,49,270,575,5376
1644159351.951535,-0.01001,0.011536,-0.992004,0.129252,0.310229,-0.14626,45,277,577,5360
1644159351.999947,-0.009094,0.009216,-0.989746,0.205588,0.294962,-0.161527,48,269,569,5376
1644159352.054971,-0.009338,0.008789,-0.990112,0.297191,0.508702,0.036947,40,287,577,5456
1644159352.096705,-0.007874,0.010071,-0.99353,0.220855,0.478168,-0.100458,60,262,578,5344
1644159352.145124,-0.009949,0.011963,-0.989136,0.312458,0.462901,-0.130992,53,274,571,5376
1644159352.193505,-0.009705,0.009705,-0.995544,0.129252,0.356031,-0.100458,42,280,572,5408
1644159352.241879,-0.009644,0.009705,-0.989624,0.159786,0.24916,-0.14626,53,271,578,5376
1644159352.290261,-0.008545,0.008667,-0.991394,0.312458,0.325496,-0.085191,40,275,570,5376
1644159352.338647,-0.012024,0.009155,-0.993713,0.205588,0.340763,-0.100458,54,273,572,5360
1644159352.387049,-0.009644,0.010071,-0.992249,0.220855,0.478168,-0.161527,53,279,580,5424
1644159352.43544,-0.010315,0.010376,-0.992798,0.419328,0.417099,-0.36,51,269,573,5360
1644159352.483829,-0.013611,0.010559,-0.992188,0.175053,0.478168,-0.222595,51,274,576,5456
1644159352.53224,-0.011292,0.009705,-0.991577,0.266656,0.294962,0.006412,53,274,585,5344
1644159352.58061,-0.009827,0.011353,-0.990479,0.251389,0.569771,-0.115725,51,274,576,5408
1644159352.628999,-0.010315,0.005676,-0.993103,0.068183,0.478168,-0.008855,46,279,573,5408
1644159352.677716,-0.00885,0.006714,-0.993164,0.327725,0.478168,0.006412,52,260,577,5376
1644159352.726268,-0.011475,0.010498,-0.992859,0.098718,0.447634,0.021679,51,276,583,5456
1644159352.776448,-0.012024,0.009399,-0.991699,0.281924,0.462901,-0.14626,47,273,572,5424
1644159352.826699,-0.009583,0.007446,-0.990601,0.205588,0.462901,-0.069924,47,268,577,5376
1644159352.871182,-0.010864,0.008423,-0.991516,0.251389,0.493435,-0.008855,48,264,573,5424
1644159352.967724,-0.010681,0.005005,-0.992432,0.266656,0.508702,-0.130992,48,276,576,5360
1644159353.016097,-0.009827,0.009399,-0.993042,0.159786,0.356031,-0.100458,40,277,572,5408
1644159353.064539,-0.011414,0.010742,-0.99176,0.251389,0.462901,-0.039389,48,276,573,5424
1644159353.112842,-0.011292,0.008667,-0.991394,0.251389,0.264427,-0.14626,52,277,582,5376
1644159353.161236,-0.012024,0.009888,-0.992432,0.220855,0.447634,-0.161527,49,277,579,5376
1644159353.209639,-0.009827,0.010071,-0.992188,0.144519,0.417099,-0.161527,52,275,575,5424
1644159353.257989,-0.010437,0.010925,-0.991272,0.251389,0.417099,0.006412,46,286,571,5456
1644159353.306387,-0.009949,0.012695,-0.993286,0.251389,0.325496,-0.115725,55,271,569,5472
1644159353.35481,-0.012024,0.009277,-0.992493,0.175053,0.523969,-0.069924,42,280,577,5360
1644159353.403198,-0.008179,0.009155,-0.991638,0.419328,0.386565,0.006412,48,271,578,5408
1644159353.451569,-0.008911,0.012024,-0.989441,0.312458,0.401832,-0.054656,49,268,575,5456
1644159353.499974,-0.010193,0.00885,-0.990662,0.312458,0.310229,-0.100458,49,275,575,5344
1644159353.548351,-0.010071,0.009888,-0.990417,0.236122,0.447634,-0.085191,52,273,582,5424
1644159353.596749,-0.010132,0.01001,-0.994202,0.35826,0.386565,-0.085191,61,280,572,5408
1644159353.645254,-0.010681,0.009094,-0.991028,0.342992,0.447634,-0.054656,48,271,576,5456
1644159353.693527,-0.010193,0.01001,-0.992859,0.129252,0.432366,-0.14626,51,271,585,5424
1644159353.74191,-0.010803,0.01239,-0.990662,-0.008153,0.462901,-0.14626,53,274,583,5456
1644159353.790337,-0.012451,0.009338,-0.993835,0.312458,0.539237,0.006412,53,269,583,5408
1644159353.838799,-0.012146,0.00946,-0.991333,0.35826,0.356031,-0.14626,52,265,577,5360
1644159353.888851,-0.011169,0.010498,-0.991089,0.205588,0.203359,-0.069924,49,275,565,5456
1644159353.938897,-0.013794,0.009827,-0.993835,0.297191,0.371298,-0.069924,52,265,579,5376
1644159353.98912,-0.010559,0.010132,-0.99231,0.327725,0.294962,-0.054656,41,283,580,5376
1644159354.04505,-0.011475,0.01062,-0.991943,0.236122,0.462901,-0.100458,45,268,579,5456
1644159354.129025,-0.010559,0.005798,-0.991394,0.404061,0.508702,-0.14626,49,273,575,5424
1644159354.177395,-0.010498,0.009827,-0.993713,0.251389,0.478168,-0.054656,47,277,584,5424
1644159354.225788,-0.009338,0.010986,-0.99115,0.175053,0.356031,0.006412,53,271,578,5424
1644159354.274179,-0.007141,0.00885,-0.992126,0.159786,0.386565,-0.176794,46,279,576,5424
1644159354.322597,-0.01123,0.00946,-0.990417,0.312458,0.508702,-0.176794,42,277,565,5408
1644159354.370971,-0.013916,0.007812,-0.98999,0.129252,0.417099,-0.069924,40,268,577,5456
1644159354.419363,-0.009338,0.010864,-0.990112,0.236122,0.401832,0.006412,57,270,582,5312
1644159354.467758,-0.005859,0.01001,-0.990295,0.236122,0.310229,-0.130992,53,271,571,5376
1644159354.516158,-0.012207,0.009644,-0.99176,0.144519,0.478168,-0.14626,41,276,571,5344
1644159354.564544,-0.011963,0.008179,-0.991699,0.297191,0.554504,-0.161527,47,275,570,5408
1644159354.612945,-0.011719,0.011475,-0.992554,0.388794,0.462901,-0.039389,42,282,575,5376
1644159354.661282,-0.012085,0.008789,-0.990601,0.144519,0.325496,-0.085191,47,273,568,5424
1644159354.709697,-0.009521,0.010986,-0.992981,0.266656,0.417099,-0.192061,60,281,580,5376
1644159354.758063,-0.008972,0.007629,-0.993774,0.159786,0.386565,-0.069924,43,279,569,5456
1644159354.806527,-0.011963,0.007568,-0.993469,0.175053,0.279695,-0.024122,47,275,577,5456
1644159354.8549,-0.010986,0.012695,-0.992432,0.144519,0.417099,-0.14626,57,270,570,5408
1644159354.903298,-0.007019,0.009094,-0.995056,0.175053,0.356031,-0.069924,45,280,568,5344
1644159354.951651,-0.009277,0.010071,-0.99408,0.175053,0.523969,-0.100458,53,279,576,5376
1644159355.054362,-0.012512,0.008484,-0.989197,0.236122,0.478168,-0.100458,46,271,573,5424
1644159355.096778,-0.010437,0.008118,-0.991699,0.129252,0.325496,-0.192061,54,270,565,5424
1644159355.145204,-0.011658,0.009583,-0.991882,0.159786,0.24916,0.006412,47,277,572,5376
1644159355.193572,-0.009766,0.008057,-0.992554,0.220855,0.218626,0.036947,54,268,570,5456
1644159355.24198,-0.012512,0.00708,-0.992981,0.342992,0.508702,-0.192061,52,280,579,5424
1644159355.290375,-0.012146,0.009338,-0.9953,0.281924,0.340763,0.082748,51,281,569,5376
1644159355.338772,-0.008911,0.007935,-0.993591,0.205588,0.508702,-0.039389,52,270,577,5376
1644159355.38716,-0.010986,0.009277,-0.993347,0.251389,0.447634,-0.130992,60,279,571,5408
1644159355.435545,-0.014038,0.01001,-0.992737,0.251389,0.386565,-0.085191,54,268,575,5408
1644159355.483933,-0.01239,0.007324,-0.992126,0.281924,0.310229,0.021679,53,276,571,5456
1644159355.532344,-0.011353,0.014099,-0.991943,0.281924,0.264427,-0.069924,58,279,576,5456
1644159355.580708,-0.010742,0.006287,-0.992981,0.144519,0.523969,-0.054656,42,273,582,5376
1644159355.62911,-0.008301,0.008545,-0.992249,0.220855,0.539237,-0.085191,57,275,582,5408
1644159355.677494,-0.012878,0.008606,-0.988403,0.220855,0.264427,-0.100458,58,271,578,5376
1644159355.725873,-0.010132,0.009521,-0.99408,0.098718,0.401832,-0.130992,54,290,570,5344
1644159355.774268,-0.010864,0.009094,-0.990784,0.113985,0.417099,0.006412,51,274,576,5456
1644159355.824165,-0.011047,0.009827,-0.991516,0.220855,0.310229,-0.069924,57,277,572,5408
1644159355.873964,-0.010193,0.007141,-0.990662,0.327725,0.356031,-0.14626,55,274,578,5408
1644159355.924697,-0.011353,0.006653,-0.990295,0.175053,0.432366,-0.130992,55,259,576,5456
1644159355.968971,-0.009277,0.005554,-0.989746,0.159786,0.432366,-0.192061,53,279,580,5424
1644159356.064829,-0.010437,0.009827,-0.994263,0.144519,0.478168,-0.039389,47,280,584,5408
1644159356.113055,-0.010132,0.012451,-0.992371,0.037649,0.585038,-0.100458,60,276,573,5408
1644159356.161369,-0.01239,0.01001,-0.98938,0.190321,0.569771,-0.039389,48,269,580,5360
1644159356.209756,-0.012939,0.007568,-0.994629,0.312458,0.340763,-0.069924,53,266,569,5424
1644159356.258146,-0.010376,0.00769,-0.992981,0.022382,0.356031,-0.130992,54,268,582,5408
1644159356.306546,-0.008911,0.009583,-0.994385,0.190321,0.462901,-0.069924,49,277,582,5456
1644159356.354922,-0.011047,0.011719,-0.99054,0.312458,0.478168,-0.100458,48,279,569,5344
1644159356.403338,-0.010925,0.012329,-0.993225,0.312458,0.264427,-0.100458,53,274,576,5408
1644159356.451727,-0.012756,0.006714,-0.990417,0.205588,0.432366,-0.130992,47,277,570,5344
1644159356.500091,-0.010498,0.008118,-0.990784,0.281924,0.417099,-0.069924,54,277,575,5344
1644159356.548491,-0.012207,0.01001,-0.992432,0.129252,0.401832,-0.100458,52,275,565,5408
1644159356.596895,-0.009277,0.007751,-0.992371,0.113985,0.233893,-0.115725,52,275,582,5360
1644159356.645285,-0.010742,0.008484,-0.993469,0.297191,0.447634,0.113282,52,273,572,5360
1644159356.693671,-0.009644,0.009949,-0.990723,0.037649,0.462901,-0.176794,54,277,586,5376
1644159356.742054,-0.009949,0.00946,-0.989441,0.129252,0.386565,-0.085191,46,271,578,5424
1644159356.790452,-0.013428,0.006226,-0.990784,0.175053,0.356031,-0.207328,60,281,587,5344
1644159356.838865,-0.009766,0.009705,-0.991455,0.297191,0.432366,-0.100458,52,277,582,5408
1644159356.887448,-0.010803,0.008362,-0.992615,0.251389,0.340763,-0.085191,47,275,577,5456
1644159356.935666,-0.011475,0.008728,-0.991943,0.068183,0.356031,-0.039389,48,269,573,5424
1644159356.985676,-0.011536,0.007568,-0.995178,0.129252,0.478168,-0.039389,43,271,585,5456
1644159357.049181,-0.009338,0.01355,-0.990417,0.220855,0.447634,-0.054656,46,274,573,5360
1644159357.092675,-0.011414,0.009827,-0.991211,0.404061,0.432366,-0.237863,59,277,582,5424
1644159357.130763,-0.01001,0.009644,-0.988708,0.175053,0.356031,-0.069924,48,269,578,5376
1644159357.225927,-0.009033,0.009277,-0.991699,0.297191,0.417099,-0.25313,54,270,572,5408
1644159357.274331,-0.01062,0.007141,-0.99408,0.434595,0.371298,-0.192061,47,270,575,5344
1644159357.322743,-0.011658,0.01062,-0.989624,0.236122,0.447634,-0.054656,49,270,575,5408
1644159357.371105,-0.01123,0.013062,-0.989075,0.205588,0.386565,-0.100458,49,275,584,5408
1644159357.419487,-0.013,0.009583,-0.992798,0.266656,0.478168,-0.207328,58,274,576,5408
1644159357.467885,-0.008484,0.009949,-0.992981,0.190321,0.386565,-0.161527,45,280,572,5360
1644159357.516279,-0.011658,0.008911,-0.993103,0.266656,0.432366,-0.054656,55,276,571,5488
1644159357.56472,-0.01239,0.009949,-0.990784,0.312458,0.325496,-0.100458,58,269,573,5456
1644159357.613067,-0.012451,0.010437,-0.989868,0.220855,0.340763,-0.115725,48,271,583,5408
1644159357.661446,-0.011536,0.006897,-0.990356,0.281924,0.569771,-0.192061,48,274,573,5456
1644159357.709849,-0.010376,0.008423,-0.994873,0.327725,0.233893,-0.069924,43,264,578,5456
1644159357.758236,-0.011292,0.012695,-0.990601,0.251389,0.523969,-0.161527,54,277,579,5456
1644159357.806626,-0.010559,0.00946,-0.992981,0.281924,0.356031,-0.176794,46,286,580,5424
1644159357.85509,-0.011108,0.009033,-0.990723,0.220855,0.310229,-0.14626,49,270,579,5376
1644159357.903437,-0.011414,0.007874,-0.994873,0.159786,0.432366,-0.085191,54,275,579,5424
1644159357.951828,-0.011169,0.009338,-0.993408,0.251389,0.478168,0.021679,48,283,573,5408
1644159358.000186,-0.014343,0.007507,-0.992981,0.220855,0.279695,-0.130992,51,281,578,5456
1644159358.06496,-0.011902,0.008362,-0.99176,0.220855,0.386565,-0.008855,49,282,570,5376
1644159358.098307,-0.012695,0.006653,-0.992126,0.08345,0.279695,-0.14626,41,274,583,5376
1644159358.193745,-0.006714,0.010559,-0.991821,0.404061,0.585038,0.067481,51,269,571,5456
1644159358.242388,-0.009094,0.008423,-0.991882,0.190321,0.462901,-0.207328,41,264,578,5344
1644159358.290506,-0.010986,0.009949,-0.993591,0.144519,0.432366,0.006412,46,274,576,5408
1644159358.33891,-0.01001,0.009583,-0.992371,0.220855,0.294962,-0.207328,47,273,572,5344
1644159358.387285,-0.006653,0.009033,-0.992493,0.068183,0.386565,-0.100458,53,274,571,5344
1644159358.435651,-0.012024,0.009277,-0.994141,0.205588,0.264427,-0.115725,38,268,575,5456
1644159358.484079,-0.010925,0.008118,-0.995239,0.373527,0.478168,-0.207328,49,287,575,5344
1644159358.532476,-0.010376,0.006958,-0.993103,0.281924,0.432366,-0.115725,54,275,572,5360
1644159358.580849,-0.012878,0.009583,-0.992859,0.251389,0.310229,-0.176794,51,274,569,5424
1644159358.629236,-0.011108,0.00708,-0.995239,0.144519,0.478168,-0.115725,42,277,561,5472
1644159358.677635,-0.01062,0.009094,-0.992249,0.236122,0.508702,-0.024122,59,268,579,5312
1644159358.726024,-0.011841,0.011536,-0.994629,0.297191,0.417099,-0.100458,51,276,571,5456
1644159358.774418,-0.007629,0.008728,-0.992371,0.434595,0.447634,-0.161527,46,281,571,5424
1644159358.822819,-0.012146,0.010864,-0.992798,0.159786,0.432366,-0.192061,46,276,566,5456
1644159358.87123,-0.013062,0.011292,-0.990967,0.205588,0.493435,-0.039389,47,280,582,5408
1644159358.919613,-0.010803,0.010742,-0.993469,0.373527,0.310229,-0.130992,53,274,583,5424
1644159358.968002,-0.011414,0.009094,-0.991272,0.144519,0.432366,-0.054656,55,269,583,5424
1644159359.016467,-0.010742,0.009033,-0.991821,0.175053,0.401832,-0.100458,58,279,576,5424
1644159359.072163,-0.008606,0.008301,-0.990662,0.236122,0.539237,-0.176794,55,274,576,5376
1644159359.115464,-0.009033,0.009216,-0.993591,0.068183,0.493435,-0.161527,51,281,573,5344
1644159359.16605,-0.010803,0.00824,-0.994446,0.35826,0.279695,-0.237863,48,276,576,5344
1644159359.214931,-0.008423,0.006042,-0.991638,0.281924,0.417099,-0.054656,42,273,575,5408
1644159359.306685,-0.010986,0.006592,-0.991638,0.175053,0.417099,-0.054656,43,276,576,5456
1644159359.355335,-0.012573,0.008179,-0.996155,0.220855,0.310229,-0.024122,52,280,568,5344
1644159359.403469,-0.008972,0.007568,-0.996277,0.281924,0.63084,-0.222595,42,275,568,5456
1644159359.451874,-0.010498,0.008911,-0.989014,0.190321,0.356031,-0.176794,49,277,575,5472
1644159359.50025,-0.009033,0.00824,-0.990723,0.190321,0.447634,0.006412,49,273,570,5424
1644159359.548615,-0.015442,0.01001,-0.994812,0.175053,0.539237,-0.192061,58,266,580,5424
1644159359.597014,-0.011902,0.009888,-0.993347,0.297191,0.325496,-0.14626,54,282,572,5376
1644159359.645443,-0.010132,0.010925,-0.992554,0.236122,0.432366,-0.008855,52,275,570,5488
1644159359.693778,-0.011597,0.005554,-0.992188,0.312458,0.432366,-0.008855,51,266,569,5424
1644159359.742223,-0.010254,0.01001,-0.991516,0.312458,0.478168,-0.130992,46,276,573,5424
1644159359.790584,-0.01062,0.008728,-0.995056,0.08345,0.493435,-0.024122,57,280,572,5376
1644159359.838977,-0.010864,0.00647,-0.991272,0.159786,0.447634,-0.14626,51,276,578,5360
1644159359.887399,-0.010498,0.007629,-0.991699,0.175053,0.340763,0.006412,51,271,569,5344
1644159359.935792,-0.011475,0.007263,-0.990906,0.236122,0.523969,-0.085191,48,264,576,5376
1644159359.98423,-0.010925,0.01062,-0.991943,0.297191,0.447634,-0.130992,47,280,582,5376
1644159360.052514,-0.006775,0.007019,-0.990906,0.281924,0.310229,-0.024122,46,276,573,5424
1644159360.083377,-0.01062,0.008362,-0.993958,0.266656,0.569771,-0.024122,51,262,583,5424
1644159360.129299,-0.009949,0.011536,-0.994507,0.312458,0.600305,0.021679,47,277,572,5424
1644159360.177839,-0.012817,0.010498,-0.99176,0.327725,0.447634,-0.176794,48,271,571,5424
1644159360.226263,-0.011047,0.009827,-0.994629,0.342992,0.432366,0.021679,47,268,575,5456
1644159360.276738,-0.008423,0.007507,-0.994629,0.251389,0.447634,-0.100458,64,280,568,5408
1644159360.326969,-0.01239,0.009216,-0.992432,0.236122,0.325496,0.021679,42,263,572,5456
1644159360.371946,-0.011292,0.010864,-0.993713,0.190321,0.432366,0.067481,53,274,576,5408
1644159360.468026,-0.010925,0.010193,-0.991821,0.297191,0.371298,-0.024122,35,273,575,5408
1644159360.516402,-0.011169,0.009216,-0.990906,0.175053,0.325496,-0.069924,60,271,578,5376
1644159360.56495,-0.011719,0.008118,-0.99292,0.373527,0.539237,-0.100458,53,274,573,5360
1644159360.613211,-0.009399,0.012756,-0.992554,0.205588,0.356031,-0.207328,55,271,578,5408
1644159360.66158,-0.007568,0.012695,-0.991333,0.281924,0.294962,-0.283664,52,280,572,5376
1644159360.709978,-0.010742,0.01123,-0.991516,0.175053,0.417099,-0.115725,49,270,579,5424
1644159360.758354,-0.012451,0.010803,-0.991882,0.236122,0.401832,-0.14626,51,271,580,5424
1644159360.806794,-0.012512,0.008362,-0.991455,0.220855,0.508702,-0.039389,55,276,571,5376
1644159360.855296,-0.012268,0.010437,-0.993103,0.342992,0.493435,-0.100458,55,271,580,5424
1644159360.903594,-0.012573,0.009644,-0.992676,0.236122,0.294962,-0.069924,46,274,573,5408
1644159360.951977,-0.010193,0.008118,-0.98877,0.342992,0.279695,-0.069924,51,274,580,5488
1644159361.000349,-0.012146,0.008484,-0.992065,0.175053,0.325496,-0.008855,64,268,570,5424
1644159361.054852,-0.00946,0.010254,-0.993225,0.205588,0.417099,0.021679,48,279,576,5360
1644159361.097111,-0.010254,0.011902,-0.99353,0.281924,0.371298,-0.161527,54,277,572,5344
1644159361.145487,-0.009827,0.010071,-0.992493,0.220855,0.432366,-0.054656,53,274,580,5360
1644159361.193873,-0.00946,0.008972,-0.993347,0.113985,0.371298,-0.237863,57,273,582,5488
1644159361.24228,-0.010193,0.009216,-0.991272,0.159786,0.386565,-0.054656,58,276,578,5376
1644159361.290624,-0.01178,0.006836,-0.991882,0.373527,0.310229,-0.130992,47,270,579,5344
1644159361.339047,-0.011597,0.010437,-0.991577,0.236122,0.310229,-0.130992,49,270,579,5456
1644159361.3879,-0.011841,0.00946,-0.992188,0.113985,0.447634,0.082748,45,275,579,5344
1644159361.438419,-0.010986,0.01001,-0.993958,0.175053,0.386565,-0.100458,55,271,580,5376
1644159361.488476,-0.010742,0.010437,-0.995056,0.251389,0.462901,-0.100458,59,275,575,5296
1644159361.533526,-0.011597,0.007324,-0.993103,0.266656,0.417099,-0.207328,49,280,575,5408
1644159361.629373,-0.010132,0.012512,-0.990173,0.281924,0.447634,-0.069924,42,280,572,5408
1644159361.677758,-0.009705,0.010925,-0.991638,0.159786,0.523969,-0.329466,47,280,572,5456
1644159361.726138,-0.011597,0.009888,-0.993164,0.129252,0.401832,-0.207328,45,270,575,5424
1644159361.774855,-0.01123,0.008118,-0.992615,0.190321,0.478168,-0.161527,55,274,585,5360
1644159361.822988,-0.010132,0.006714,-0.993469,0.220855,0.325496,0.052214,55,269,573,5456
1644159361.871375,-0.012451,0.006714,-0.992249,0.251389,0.386565,-0.268397,55,264,576,5376
1644159361.919757,-0.009277,0.00946,-0.992432,0.266656,0.401832,-0.039389,62,264,578,5456
1644159361.968152,-0.011292,0.007996,-0.991394,0.266656,0.294962,-0.100458,54,273,572,5376
1644159362.016525,-0.012207,0.010681,-0.992188,0.342992,0.401832,-0.069924,46,271,573,5456
1644159362.075384,-0.011169,0.007996,-0.991394,0.281924,0.401832,0.036947,58,266,585,5424
1644159362.113303,-0.009338,0.008484,-0.991028,0.159786,0.523969,-0.054656,43,269,587,5344
1644159362.161645,-0.007507,0.007446,-0.98999,0.266656,0.310229,-0.085191,51,283,576,5344
1644159362.210051,-0.010742,0.008728,-0.991455,0.449863,0.371298,-0.085191,51,281,580,5408
1644159362.258415,-0.010681,0.009155,-0.991638,0.190321,0.417099,-0.085191,55,271,583,5376
1644159362.306808,-0.008484,0.008423,-0.99054,0.190321,0.386565,-0.176794,52,268,572,5424
1644159362.35522,-0.012573,0.008057,-0.992004,0.281924,0.462901,-0.130992,49,265,577,5424
1644159362.403608,-0.011597,0.008606,-0.993835,0.098718,0.401832,0.036947,47,275,575,5360
1644159362.452228,-0.010193,0.010315,-0.990784,0.327725,0.478168,-0.008855,47,270,575,5344
1644159362.502764,-0.009399,0.007935,-0.99115,0.297191,0.539237,-0.039389,45,273,575,5488
1644159362.552847,-0.009094,0.007324,-0.994202,0.144519,0.432366,-0.207328,48,276,578,5376
1644159362.597742,-0.011719,0.011475,-0.991089,0.205588,0.462901,-0.14626,43,274,576,5408
1644159362.693962,-0.009705,0.010803,-0.989868,0.175053,0.523969,-0.14626,46,271,573,5376
1644159362.742391,-0.010742,0.010315,-0.988953,0.251389,0.508702,-0.14626,54,268,570,5360
1644159362.790723,-0.010864,0.011353,-0.988159,0.281924,0.310229,-0.100458,52,275,579,5408
1644159362.839148,-0.008911,0.010925,-0.990906,0.266656,0.462901,-0.054656,42,275,575,5360
1644159362.887546,-0.008484,0.007507,-0.991333,0.281924,0.554504,0.006412,55,276,583,5360
1644159362.935924,-0.009033,0.008972,-0.991516,0.159786,0.264427,-0.085191,57,277,570,5360
1644159362.984319,-0.010071,0.012268,-0.990051,0.373527,0.523969,-0.161527,53,276,571,5344
1644159363.032721,-0.010498,0.007446,-0.992432,0.190321,0.264427,-0.008855,54,265,577,5456
1644159363.084477,-0.01001,0.011414,-0.992432,0.297191,0.432366,-0.130992,53,276,578,5456
1644159363.129451,-0.013184,0.009644,-0.99353,0.312458,0.447634,-0.130992,48,262,576,5376
1644159363.177848,-0.013428,0.009949,-0.991821,0.159786,0.478168,-0.008855,47,275,582,5424
1644159363.226233,-0.01239,0.006104,-0.991882,0.236122,0.24916,-0.069924,45,273,582,5408
1644159363.274741,-0.011047,0.009766,-0.993042,0.297191,0.386565,0.036947,46,274,564,5456
1644159363.323032,-0.010742,0.008301,-0.992493,0.236122,0.432366,0.098015,49,277,575,5408
1644159363.371403,-0.010986,0.006592,-0.992493,0.388794,0.417099,-0.207328,48,271,580,5424
1644159363.419789,-0.012329,0.009888,-0.991333,0.266656,0.401832,-0.25313,49,275,565,5344
1644159363.468146,-0.011963,0.008423,-0.991211,0.312458,0.432366,-0.207328,55,274,576,5456
1644159363.51656,-0.00946,0.010681,-0.992432,0.159786,0.508702,-0.085191,60,279,573,5424
1644159363.56574,-0.008728,0.009094,-0.993835,0.404061,0.325496,-0.069924,48,288,578,5424
1644159363.616342,-0.012329,0.008728,-0.992493,0.236122,0.325496,-0.069924,55,269,577,5376
1644159363.666538,-0.01001,0.01001,-0.992676,0.327725,0.447634,-0.039389,55,269,573,5456
1644159363.711385,-0.009521,0.010132,-0.993774,0.251389,0.401832,0.021679,52,277,572,5376
1644159363.806884,-0.01123,0.011108,-0.992065,0.220855,0.233893,-0.115725,52,273,575,5424
1644159363.855476,-0.009521,0.009888,-0.992554,0.35826,0.523969,-0.024122,52,277,568,5360
1644159363.903701,-0.012878,0.008057,-0.993225,0.35826,0.447634,-0.054656,46,276,571,5360
1644159363.952415,-0.012512,0.008179,-0.99054,0.113985,0.523969,-0.054656,49,270,570,5408
1644159364.00049,-0.010986,0.009338,-0.991516,0.236122,0.432366,-0.069924,53,274,576,5408
1644159364.053124,-0.010681,0.009277,-0.993774,0.266656,0.493435,-0.069924,46,271,576,5360
1644159364.097234,-0.010925,0.006958,-0.98938,0.312458,0.356031,-0.25313,49,275,561,5408
1644159364.145621,-0.008728,0.010071,-0.991699,0.251389,0.478168,-0.100458,53,283,566,5424
1644159364.19402,-0.009644,0.008118,-0.991394,0.175053,0.356031,-0.039389,54,275,565,5376
1644159364.242416,-0.011108,0.008118,-0.994873,0.281924,0.523969,-0.085191,52,277,570,5424
1644159364.290805,-0.009033,0.009583,-0.992859,0.251389,0.401832,-0.192061,52,277,577,5408
1644159364.339197,-0.011108,0.009583,-0.994507,0.251389,0.386565,-0.115725,49,282,579,5376
1644159364.387557,-0.010803,0.008423,-0.988525,0.388794,0.493435,-0.14626,47,270,570,5408
1644159364.435952,-0.009949,0.009766,-0.99176,0.251389,0.356031,-0.054656,41,266,580,5408
1644159364.484354,-0.010498,0.011658,-0.988403,0.297191,0.340763,-0.008855,51,269,576,5456
1644159364.532751,-0.009583,0.009277,-0.990417,0.190321,0.417099,-0.176794,53,283,569,5424
1644159364.581141,-0.01123,0.010071,-0.992004,0.281924,0.569771,-0.176794,52,280,572,5472
1644159364.629522,-0.011963,0.009705,-0.99231,0.327725,0.447634,-0.085191,54,277,579,5376
1644159364.677909,-0.010254,0.011047,-0.992676,0.220855,0.371298,0.006412,51,274,571,5456
1644159364.726345,-0.008423,0.010498,-0.992065,0.342992,0.462901,-0.054656,57,270,582,5344
1644159364.776476,-0.009399,0.010071,-0.992004,0.220855,0.585038,-0.176794,46,276,583,5376
1644159364.827114,-0.009583,0.010498,-0.990845,0.205588,0.478168,-0.222595,47,277,579,5408
1644159364.872311,-0.01001,0.006348,-0.993469,0.251389,0.401832,-0.039389,49,275,575,5344
1644159364.968258,-0.012146,0.007751,-0.994202,0.266656,0.508702,-0.039389,48,276,585,5408
1644159365.016677,-0.011597,0.011719,-0.994446,0.236122,0.523969,0.021679,43,279,576,5424
1644159365.065268,-0.011597,0.008728,-0.991577,0.281924,0.24916,-0.085191,54,275,577,5456
1644159365.113459,-0.01001,0.008301,-0.991577,0.205588,0.432366,-0.039389,64,277,572,5424
1644159365.161777,-0.011841,0.008545,-0.991882,0.220855,0.432366,-0.069924,48,271,576,5344
1644159365.210193,-0.011169,0.008606,-0.996155,0.190321,0.447634,0.021679,51,276,573,5360
1644159365.258568,-0.008911,0.008911,-0.988037,0.205588,0.523969,-0.14626,55,276,576,5456
1644159365.306983,-0.011353,0.008423,-0.991882,0.08345,0.447634,-0.14626,51,288,573,5408
1644159365.355338,-0.01001,0.007812,-0.990784,0.281924,0.356031,-0.130992,54,268,568,5408
1644159365.403749,-0.011658,0.01178,-0.993652,0.190321,0.371298,0.021679,40,270,582,5456
1644159365.452229,-0.007385,0.008728,-0.989075,0.144519,0.615573,-0.130992,46,274,583,5456
1644159365.500535,-0.008911,0.009094,-0.993225,0.373527,0.462901,0.021679,58,288,573,5424
1644159365.548918,-0.011719,0.010681,-0.991455,0.297191,0.401832,-0.115725,47,270,579,5424
1644159365.597311,-0.007996,0.007324,-0.991699,0.236122,0.325496,-0.024122,47,275,584,5424
1644159365.645697,-0.011169,0.010193,-0.992859,0.297191,0.386565,-0.115725,45,277,572,5312
1644159365.694096,-0.009216,0.008362,-0.991028,0.205588,0.554504,-0.085191,58,271,580,5312
1644159365.742488,-0.011353,0.00769,-0.992676,0.388794,0.539237,-0.024122,54,275,582,5344
1644159365.790869,-0.010681,0.009399,-0.990234,0.144519,0.401832,-0.085191,55,279,573,5424
1644159365.839303,-0.009644,0.009644,-0.993103,0.236122,0.493435,-0.069924,53,274,573,5424
1644159365.888964,-0.008728,0.009216,-0.990051,0.281924,0.356031,-0.100458,51,266,571,5408
1644159365.939099,-0.009766,0.006775,-0.993286,0.373527,0.508702,-0.161527,47,263,579,5408
1644159365.98941,-0.009583,0.007629,-0.99176,0.175053,0.447634,-0.176794,57,275,582,5424
1644159366.033978,-0.010132,0.008423,-0.991455,0.266656,0.447634,-0.176794,52,277,584,5456
1644159366.129617,-0.011047,0.007629,-0.990784,0.220855,0.203359,-0.115725,41,279,576,5344
1644159366.177959,-0.009399,0.01123,-0.991516,0.297191,0.386565,-0.176794,55,271,576,5344
1644159366.226337,-0.010437,0.009277,-0.992676,0.175053,0.462901,-0.222595,48,274,580,5312
1644159366.274856,-0.010193,0.010132,-0.993958,0.175053,0.447634,-0.069924,55,274,573,5456
1644159366.323128,-0.012024,0.005005,-0.990173,0.236122,0.340763,-0.192061,60,274,569,5360
1644159366.371538,-0.00946,0.00946,-0.991272,0.113985,0.432366,0.006412,52,280,579,5424
1644159366.419919,-0.007507,0.008789,-0.991882,0.236122,0.401832,-0.14626,59,277,577,5424
1644159366.468318,-0.011658,0.009033,-0.992737,0.205588,0.401832,-0.054656,48,274,573,5344
1644159366.51672,-0.011414,0.008911,-0.991516,0.297191,0.493435,-0.192061,47,282,577,5408
1644159366.565207,-0.01062,0.010559,-0.990173,0.159786,0.340763,-0.14626,42,275,577,5456
1644159366.61349,-0.010437,0.011963,-0.993958,0.220855,0.401832,-0.054656,49,277,584,5344
1644159366.661882,-0.007019,0.006958,-0.994629,0.236122,0.371298,-0.283664,53,264,583,5424
1644159366.710268,-0.012085,0.008484,-0.990662,0.113985,0.371298,-0.237863,51,281,573,5424
1644159366.758629,-0.011597,0.010071,-0.989929,0.159786,0.493435,-0.222595,40,280,575,5344
1644159366.807038,-0.009216,0.01123,-0.993042,0.281924,0.478168,-0.237863,48,279,580,5408
1644159366.855469,-0.013733,0.009399,-0.990356,0.144519,0.523969,0.113282,60,274,583,5344
1644159366.903855,-0.011841,0.008545,-0.992432,0.35826,0.356031,-0.069924,40,273,575,5424
1644159366.952272,-0.012695,0.009583,-0.991699,0.236122,0.478168,-0.039389,51,276,569,5360
1644159367.054234,-0.009399,0.010803,-0.990479,0.312458,0.493435,-0.069924,45,273,577,5360
1644159367.097411,-0.009766,0.009399,-0.992371,0.190321,0.523969,-0.14626,53,279,578,5424
1644159367.145791,-0.010193,0.009521,-0.994263,0.281924,0.569771,-0.100458,39,276,566,5360
1644159367.19414,-0.009705,0.010071,-0.993774,0.327725,0.325496,-0.161527,49,275,582,5424
1644159367.242566,-0.01001,0.010132,-0.991028,0.266656,0.417099,-0.069924,59,268,575,5408
