epoch,acc_x,acc_y,acc_z,rot_x,rot_y,rot_z,mag_x,mag_y,mag_z,temp
1644174900.009746,-0.010376,0.008911,-0.994019,0.220855,0.401832,-0.054656,53,266,592,5808
1644174900.065902,-0.011597,0.007019,-0.990662,0.175053,0.371298,-0.100458,58,276,594,5776
1644174900.10928,-0.010193,0.010437,-0.990845,0.144519,0.401832,0.067481,57,273,579,5728
1644174900.154917,-0.011292,0.011902,-0.991943,0.281924,0.508702,-0.207328,51,266,571,5808
1644174900.203296,-0.011292,0.010193,-0.991028,0.266656,0.340763,-0.298931,43,276,576,5728
1644174900.251671,-0.010925,0.007263,-0.991943,0.175053,0.462901,-0.176794,46,283,580,5760
1644174900.300101,-0.009888,0.009338,-0.991638,0.281924,0.523969,-0.161527,48,276,585,5712
1644174900.348455,-0.008972,0.008606,-0.994141,0.266656,0.462901,-0.176794,52,273,579,5760
1644174900.396798,-0.009277,0.00885,-0.994507,0.113985,0.24916,-0.100458,46,286,578,5728
1644174900.445221,-0.009216,0.00769,-0.994995,0.236122,0.417099,-0.14626,52,273,589,5776
1644174900.493636,-0.009888,0.01239,-0.990417,0.220855,0.462901,-0.085191,49,282,577,5808
1644174900.542008,-0.009033,0.012329,-0.990723,0.08345,0.340763,-0.039389,48,266,580,5808
1644174900.590389,-0.01062,0.008484,-0.993591,0.220855,0.432366,-0.054656,49,277,568,5808
1644174900.639156,-0.010986,0.007812,-0.994141,0.404061,0.340763,-0.14626,49,280,572,5840
1644174900.689668,-0.009216,0.009644,-0.990906,0.419328,0.310229,-0.069924,43,286,580,5776
1644174900.739846,-0.010437,0.01062,-0.992981,0.281924,0.264427,-0.237863,58,262,566,5760
1644174900.784747,-0.01062,0.009277,-0.991394,0.022382,0.386565,-0.100458,42,270,572,5696
1644174900.880766,-0.011169,0.009583,-0.994934,0.175053,0.233893,-0.130992,52,273,582,5808
1644174900.92916,-0.012024,0.009155,-0.995605,0.007115,0.401832,-0.085191,51,279,573,5696
1644174900.977562,-0.014099,0.009521,-0.991272,0.205588,0.447634,-0.161527,40,280,570,5776
1644174901.025929,-0.01123,0.006348,-0.993164,0.312458,0.386565,-0.130992,45,268,570,5808
1644174901.074398,-0.009277,0.010315,-0.991699,0.342992,0.371298,-0.054656,53,271,585,5696
1644174901.122777,-0.010254,0.009399,-0.993408,0.205588,0.447634,-0.008855,51,274,573,5808
1644174901.171093,-0.012695,0.008484,-0.992493,0.266656,0.386565,-0.024122,53,264,578,5776
1644174901.219493,-0.009216,0.008545,-0.99292,0.144519,0.371298,-0.039389,52,275,577,5728
1644174901.268145,-0.00769,0.009583,-0.990845,0.312458,0.386565,-0.054656,52,280,575,5776
1644174901.316265,-0.011719,0.006104,-0.99176,0.266656,0.447634,-0.069924,54,285,572,5760
1644174901.364707,-0.011475,0.010986,-0.992004,0.312458,0.340763,-0.100458,57,268,582,5776
1644174901.41306,-0.009094,0.01001,-0.991577,0.236122,0.386565,-0.176794,51,271,576,5808
1644174901.461425,-0.009094,0.009277,-0.992615,0.266656,0.386565,-0.039389,51,266,583,5824
1644174901.50981,-0.010742,0.008057,-0.992676,0.129252,0.478168,0.036947,59,285,586,5696
1644174901.558216,-0.011536,0.00824,-0.995056,0.281924,0.340763,-0.100458,47,280,577,5824
1644174901.606615,-0.013245,0.009399,-0.989136,0.236122,0.386565,0.006412,57,270,586,5760
1644174901.655333,-0.013184,0.008545,-0.993347,0.190321,0.462901,-0.176794,55,279,585,5696
1644174901.703393,-0.010742,0.008057,-0.991089,0.144519,0.371298,-0.085191,49,282,575,5840
1644174901.751758,-0.011536,0.009888,-0.995056,0.144519,0.401832,-0.008855,43,271,576,5808
1644174901.800737,-0.010742,0.010376,-0.993164,0.251389,0.371298,-0.085191,55,266,587,5760
1644174901.851011,-0.008179,0.008362,-0.992065,0.251389,0.493435,-0.176794,48,274,580,5760
1644174901.902225,-0.011108,0.007629,-0.991028,0.327725,0.508702,0.067481,46,274,580,5760
1644174901.946626,-0.012451,0.008118,-0.991455,0.113985,0.554504,-0.054656,49,270,579,5712
1644174902.042424,-0.010437,0.009521,-0.992676,0.297191,0.539237,-0.14626,57,270,570,5760
1644174902.090628,-0.007996,0.010071,-0.990845,0.251389,0.24916,-0.14626,49,280,575,5776
1644174902.13896,-0.010986,0.009399,-0.991333,0.236122,0.432366,-0.130992,55,279,576,5712
1644174902.18766,-0.009399,0.007751,-0.993713,0.342992,0.340763,-0.085191,54,277,565,5664
1644174902.235689,-0.010376,0.010132,-0.993591,0.266656,0.432366,-0.176794,49,277,570,5760
1644174902.284069,-0.012329,0.011047,-0.992004,0.449863,0.432366,-0.14626,48,276,578,5728
1644174902.332492,-0.01178,0.006836,-0.988892,0.144519,0.417099,-0.008855,57,265,577,5760
1644174902.380863,-0.008362,0.008728,-0.993164,0.190321,0.447634,-0.085191,49,273,577,5776
1644174902.429234,-0.011719,0.008667,-0.99231,0.236122,0.310229,-0.085191,52,270,586,5776
1644174902.477659,-0.012024,0.01001,-0.992676,0.312458,0.478168,-0.14626,48,276,583,5808
1644174902.526042,-0.010376,0.008362,-0.991333,0.205588,0.432366,-0.25313,49,277,577,5872
1644174902.574446,-0.012634,0.010132,-0.990356,0.159786,0.523969,-0.085191,60,274,573,5776
1644174902.622841,-0.01123,0.00946,-0.992493,0.434595,0.554504,-0.14626,57,270,582,5808
1644174902.671214,-0.008118,0.00708,-0.993774,0.312458,0.462901,-0.161527,48,264,585,5712
1644174902.719604,-0.01123,0.007751,-0.99292,0.404061,0.432366,0.006412,49,285,582,5808
1644174902.768003,-0.011169,0.009644,-0.994629,0.327725,0.386565,0.036947,58,276,571,5776
1644174902.816382,-0.01001,0.00946,-0.992493,0.373527,0.447634,0.021679,58,279,585,5808
1644174902.864836,-0.01178,0.013245,-0.990051,0.266656,0.386565,-0.024122,55,279,580,5776
1644174902.914073,-0.008545,0.007263,-0.994141,0.144519,0.508702,-0.176794,53,269,571,5776
1644174902.964918,-0.011902,0.010803,-0.99231,0.297191,0.310229,-0.161527,60,283,587,5760
1644174903.064139,-0.01239,0.008484,-0.992554,0.297191,0.523969,-0.039389,55,269,573,5760
1644174903.106747,-0.011353,0.007324,-0.992737,0.404061,0.386565,0.006412,46,276,583,5712
1644174903.155466,-0.01123,0.009644,-0.993164,0.388794,0.386565,-0.130992,53,276,573,5760
1644174903.203526,-0.010437,0.008728,-0.990845,0.08345,0.447634,0.036947,45,270,591,5808
1644174903.25189,-0.009766,0.009888,-0.991394,0.190321,0.539237,0.021679,51,274,573,5712
1644174903.300287,-0.012085,0.01001,-0.994507,0.159786,0.478168,-0.085191,49,260,572,5760
1644174903.348677,-0.009155,0.011597,-0.990601,0.327725,0.569771,-0.024122,47,268,586,5760
1644174903.397072,-0.009033,0.009949,-0.991943,0.449863,0.401832,-0.237863,57,282,570,5776
1644174903.445441,-0.010803,0.013245,-0.990601,0.052916,0.401832,-0.25313,58,276,576,5776
1644174903.493847,-0.009277,0.00946,-0.992004,0.281924,0.462901,-0.130992,46,276,573,5776
1644174903.542319,-0.010864,0.008484,-0.992859,0.037649,0.462901,-0.161527,54,275,586,5760
1644174903.590642,-0.011047,0.008118,-0.992859,0.342992,0.508702,-0.192061,46,274,571,5808
1644174903.639038,-0.010315,0.010132,-0.992798,0.159786,0.615573,-0.115725,52,263,577,5776
1644174903.687425,-0.010437,0.011475,-0.988708,0.144519,0.279695,-0.069924,49,277,579,5728
1644174903.735824,-0.009888,0.005798,-0.990662,0.297191,0.508702,-0.100458,60,269,580,5808
1644174903.784198,-0.010742,0.010559,-0.992493,0.266656,0.432366,-0.085191,46,264,576,5728
1644174903.832906,-0.011047,0.008179,-0.995911,0.236122,0.508702,-0.039389,51,269,573,5776
1644174903.884655,-0.007996,0.01062,-0.992249,0.236122,0.356031,-0.085191,57,270,579,5760
1644174903.934704,-0.009644,0.007141,-0.990906,0.205588,0.447634,-0.192061,45,265,582,5760
1644174903.979222,-0.009521,0.011353,-0.995117,0.251389,0.356031,-0.069924,52,275,575,5776
1644174904.074992,-0.009705,0.006409,-0.994019,0.251389,0.401832,-0.069924,54,282,584,5776
1644174904.122902,-0.011597,0.011658,-0.991455,0.251389,0.462901,-0.237863,49,282,572,5712
1644174904.171321,-0.010681,0.009094,-0.991882,0.281924,0.401832,-0.085191,51,269,573,5824
1644174904.219725,-0.012573,0.010254,-0.991028,0.281924,0.356031,-0.008855,52,273,586,5760
1644174904.268107,-0.010742,0.010132,-0.992615,0.236122,0.294962,-0.039389,58,276,580,5760
1644174904.316488,-0.009644,0.007629,-0.992065,0.129252,0.371298,-0.054656,46,274,571,5712
1644174904.364875,-0.009033,0.007751,-0.993286,0.113985,0.24916,-0.008855,59,273,568,5712
1644174904.413306,-0.011169,0.007629,-0.991577,0.434595,0.478168,-0.130992,53,283,569,5808
1644174904.461682,-0.012085,0.00885,-0.993591,0.281924,0.493435,-0.069924,51,286,576,5728
1644174904.510071,-0.012085,0.006287,-0.992065,0.388794,0.417099,0.082748,46,274,583,5760
1644174904.558464,-0.010132,0.011414,-0.992981,0.098718,0.462901,-0.14626,49,270,577,5776
1644174904.606852,-0.010193,0.011169,-0.991333,0.35826,0.585038,-0.054656,52,275,579,5696
1644174904.655282,-0.011047,0.007446,-0.992798,0.220855,0.325496,-0.207328,51,283,578,5760
1644174904.703642,-0.011963,0.008179,-0.992249,0.08345,0.478168,-0.130992,51,279,578,5712
1644174904.752024,-0.011963,0.007202,-0.995483,0.159786,0.478168,-0.115725,52,273,575,5776
1644174904.800421,-0.010193,0.008362,-0.991638,0.220855,0.478168,-0.024122,47,273,579,5760
1644174904.848839,-0.011353,0.010803,-0.992371,0.236122,0.508702,-0.115725,62,271,580,5760
1644174904.898036,-0.012024,0.009033,-0.992188,0.205588,0.325496,-0.039389,54,285,575,5824
1644174904.945624,-0.006226,0.008911,-0.989929,0.327725,0.462901,-0.100458,53,283,580,5760
1644174904.995447,-0.011169,0.007324,-0.990906,0.113985,0.386565,-0.237863,53,271,576,5728
1644174905.046018,-0.008118,0.006287,-0.99054,0.159786,0.356031,-0.008855,46,271,580,5760
1644174905.102877,-0.009888,0.009277,-0.991028,0.190321,0.447634,-0.207328,49,275,575,5824
1644174905.140261,-0.010132,0.006531,-0.991821,0.175053,0.432366,-0.085191,51,274,569,5696
1644174905.235916,-0.011353,0.005005,-0.993591,0.266656,0.508702,-0.14626,47,275,570,5760
1644174905.284312,-0.011475,0.007812,-0.992432,0.281924,0.447634,0.006412,58,271,578,5760
1644174905.332716,-0.01062,0.009949,-0.993774,0.281924,0.340763,-0.237863,45,275,579,5760
1644174905.381104,-0.009766,0.010803,-0.994507,0.281924,0.401832,-0.130992,46,274,569,5808
1644174905.429513,-0.009949,0.010864,-0.991882,0.251389,0.447634,0.006412,48,279,585,5760
1644174905.477888,-0.008728,0.008118,-0.994446,0.312458,0.417099,-0.100458,58,269,564,5728
1644174905.526281,-0.009277,0.009888,-0.994141,0.159786,0.447634,-0.283664,48,274,580,5696
1644174905.574682,-0.012512,0.007874,-0.989502,0.297191,0.493435,-0.085191,47,273,572,5776
1644174905.623087,-0.009399,0.009094,-0.993286,0.068183,0.417099,-0.14626,49,275,563,5760
1644174905.671462,-0.013062,0.009155,-0.99231,0.373527,0.462901,-0.192061,48,274,585,5776
1644174905.719854,-0.010742,0.007996,-0.991699,0.327725,0.371298,-0.14626,48,271,580,5808
1644174905.768227,-0.008423,0.010315,-0.995117,0.266656,0.493435,-0.039389,51,276,585,5696
1644174905.816656,-0.012512,0.008118,-0.991882,0.419328,0.432366,-0.176794,55,271,578,5808
1644174905.865091,-0.011841,0.010742,-0.991943,0.068183,0.493435,-0.100458,51,279,585,5696
1644174905.913448,-0.010376,0.009888,-0.990662,0.205588,0.371298,-0.039389,49,268,575,5776
1644174905.961833,-0.014282,0.007141,-0.994873,0.175053,0.493435,-0.069924,53,279,571,5728
1644174906.010229,-0.012939,0.010864,-0.991272,0.266656,0.569771,-0.130992,49,275,577,5760
1644174906.106924,-0.011353,0.00824,-0.99231,0.312458,0.493435,-0.130992,61,268,589,5712
1644174906.155352,-0.010315,0.007263,-0.991699,0.327725,0.462901,-0.130992,58,279,566,5696
1644174906.203761,-0.012146,0.00769,-0.993103,0.312458,0.478168,-0.161527,43,274,576,5760
1644174906.252179,-0.011841,0.011719,-0.990051,0.190321,0.371298,-0.115725,54,285,577,5696
1644174906.30052,-0.013489,0.009094,-0.989197,0.159786,0.462901,-0.222595,54,277,586,5760
1644174906.348922,-0.009583,0.008057,-0.991516,0.342992,0.310229,-0.130992,46,274,569,5664
1644174906.397293,-0.010132,0.011536,-0.992554,0.312458,0.432366,0.052214,43,269,583,5760
1644174906.445714,-0.011047,0.008972,-0.993896,0.266656,0.264427,-0.222595,46,286,571,5808
1644174906.494078,-0.010193,0.008484,-0.991577,0.129252,0.401832,-0.14626,43,281,564,5728
1644174906.542515,-0.01123,0.006409,-0.991394,0.312458,0.356031,-0.039389,48,281,585,5712
1644174906.590881,-0.010925,0.011353,-0.993286,0.129252,0.325496,-0.14626,52,275,582,5776
1644174906.639275,-0.010132,0.008484,-0.994568,0.129252,0.478168,-0.14626,46,266,580,5760
1644174906.687666,-0.011292,0.007385,-0.993042,0.312458,0.432366,-0.115725,52,285,575,5712
1644174906.736056,-0.010803,0.009644,-0.991455,0.297191,0.172824,-0.039389,51,271,571,5696
1644174906.784634,-0.009277,0.008179,-0.992554,0.266656,0.386565,0.021679,54,268,579,5712
1644174906.834993,-0.012268,0.009155,-0.989075,0.205588,0.493435,-0.14626,47,273,582,5760
1644174906.884739,-0.009583,0.009949,-0.991516,0.281924,0.371298,-0.024122,51,279,580,5760
1644174906.935094,-0.008728,0.01001,-0.99115,0.266656,0.233893,-0.176794,52,270,575,5824
1644174906.97958,-0.010925,0.01001,-0.992676,0.266656,0.432366,-0.130992,54,268,577,5808
1644174907.074865,-0.009766,0.010803,-0.99469,0.251389,0.386565,-0.130992,53,279,580,5760
1644174907.123169,-0.011902,0.010254,-0.991089,0.251389,0.401832,-0.176794,58,274,566,5808
1644174907.171558,-0.008606,0.009399,-0.990356,0.312458,0.340763,0.159084,49,277,582,5808
1644174907.219958,-0.012878,0.01062,-0.992126,0.144519,0.447634,0.021679,52,273,572,5824
1644174907.268339,-0.010254,0.009583,-0.992859,0.266656,0.432366,-0.100458,55,276,578,5728
1644174907.316721,-0.008728,0.009827,-0.995056,0.35826,0.462901,-0.268397,47,277,570,5728
1644174907.365158,-0.009827,0.008972,-0.993042,0.236122,0.447634,0.036947,55,274,585,5760
1644174907.413529,-0.011292,0.011658,-0.992981,0.342992,0.401832,-0.207328,47,282,575,5712
1644174907.461922,-0.008911,0.010376,-0.990295,0.266656,0.356031,-0.100458,52,263,584,5760
1644174907.510313,-0.00769,0.007568,-0.990479,0.220855,0.371298,-0.130992,51,279,587,5776
1644174907.558702,-0.010498,0.010925,-0.992065,0.220855,0.432366,0.098015,53,286,576,5808
1644174907.607098,-0.009216,0.00946,-0.993469,0.342992,0.539237,-0.085191,46,266,573,5808
1644174907.655481,-0.011169,0.008423,-0.993347,0.388794,0.386565,0.006412,45,290,582,5696
1644174907.703878,-0.007812,0.009583,-0.991638,0.236122,0.386565,-0.222595,51,266,576,5712
1644174907.752249,-0.009399,0.007751,-0.990662,0.312458,0.386565,-0.039389,54,277,582,5696
1644174907.800656,-0.009216,0.007507,-0.992249,0.327725,0.478168,-0.176794,46,274,583,5776
1644174907.849077,-0.010864,0.010986,-0.992126,0.281924,0.401832,-0.008855,49,273,579,5696
1644174907.89755,-0.012878,0.007324,-0.990967,0.312458,0.371298,-0.085191,43,262,566,5712
1644174907.945864,-0.007263,0.008423,-0.991272,0.35826,0.386565,-0.115725,43,286,578,5776
1644174907.995735,-0.01178,0.01001,-0.992615,0.297191,0.417099,-0.222595,47,277,586,5728
1644174908.046055,-0.013245,0.007385,-0.991272,0.08345,0.356031,-0.008855,53,274,578,5760
1644174908.093203,-0.01062,0.010071,-0.994141,0.297191,0.508702,-0.176794,51,276,590,5776
1644174908.187749,-0.010864,0.010193,-0.99353,0.419328,0.401832,-0.115725,51,269,578,5776
1644174908.236155,-0.008118,0.008789,-0.992859,0.312458,0.356031,-0.176794,51,274,573,5824
1644174908.284551,-0.012024,0.00946,-0.990845,0.205588,0.356031,-0.115725,53,276,573,5760
1644174908.33296,-0.012024,0.004639,-0.994019,0.434595,0.432366,-0.039389,53,279,576,5776
1644174908.38132,-0.009766,0.01178,-0.992554,0.266656,0.478168,-0.161527,48,274,566,5728
1644174908.429739,-0.009094,0.010193,-0.990601,0.236122,0.462901,-0.054656,43,279,569,5728
1644174908.478121,-0.012268,0.009766,-0.99231,0.251389,0.554504,-0.069924,55,274,573,5696
1644174908.526514,-0.008972,0.009216,-0.991394,0.281924,0.340763,-0.039389,47,277,579,5696
1644174908.574907,-0.011719,0.00946,-0.990112,0.297191,0.508702,-0.14626,55,274,571,5760
1644174908.623312,-0.009094,0.009033,-0.993591,0.266656,0.310229,-0.085191,48,279,580,5760
1644174908.671694,-0.012268,0.007385,-0.993103,0.449863,0.554504,-0.130992,55,276,585,5808
1644174908.720072,-0.010132,0.009399,-0.993042,0.404061,0.417099,-0.039389,52,277,572,5824
1644174908.768471,-0.009644,0.00769,-0.993652,0.190321,0.493435,-0.237863,48,271,573,5824
1644174908.816853,-0.01178,0.006653,-0.993652,0.388794,0.508702,-0.054656,42,280,584,5760
1644174908.865297,-0.00946,0.005737,-0.992859,0.312458,0.432366,-0.161527,51,276,576,5776
1644174908.913687,-0.00824,0.010376,-0.990356,0.220855,0.401832,-0.161527,54,277,577,5760
1644174908.962081,-0.01062,0.008484,-0.991577,0.312458,0.417099,-0.130992,55,286,576,5760
1644174909.060936,-0.009705,0.011047,-0.993164,0.190321,0.401832,0.052214,60,274,583,5808
1644174909.10724,-0.007568,0.008484,-0.99353,0.327725,0.493435,0.052214,57,275,579,5760
1644174909.155634,-0.013,0.010254,-0.991455,0.373527,0.493435,-0.008855,47,277,572,5776
1644174909.203996,-0.011108,0.008667,-0.988708,0.205588,0.279695,-0.222595,43,271,578,5776
1644174909.252375,-0.010254,0.01001,-0.99292,0.129252,0.462901,-0.14626,51,274,573,5776
1644174909.300775,-0.011597,0.01062,-0.989441,0.251389,0.493435,-0.085191,51,279,578,5728
1644174909.349153,-0.01001,0.011597,-0.99176,0.35826,0.493435,-0.054656,51,266,569,5776
1644174909.397566,-0.009827,0.007996,-0.990295,0.251389,0.264427,0.052214,43,274,576,5776
1644174909.445955,-0.010254,0.01123,-0.993774,0.251389,0.554504,-0.130992,53,274,576,5776
1644174909.494318,-0.010254,0.009155,-0.99408,0.205588,0.508702,-0.115725,46,274,578,5712
1644174909.542749,-0.012695,0.008606,-0.992493,0.266656,0.417099,-0.14626,52,270,582,5728
1644174909.591121,-0.011292,0.008484,-0.992737,0.312458,0.24916,0.021679,57,277,568,5760
1644174909.639476,-0.010132,0.010559,-0.992065,0.175053,0.371298,-0.130992,51,274,578,5760
1644174909.687909,-0.009705,0.009094,-0.994385,0.251389,0.417099,-0.069924,49,270,575,5808
1644174909.736293,-0.006165,0.012695,-0.991028,0.175053,0.539237,0.006412,51,279,580,5712
1644174909.7847,-0.01178,0.008667,-0.993652,0.251389,0.478168,-0.161527,49,273,579,5760
1644174909.833086,-0.008484,0.00824,-0.992126,0.159786,0.478168,-0.054656,43,271,583,5808
1644174909.88151,-0.012146,0.005981,-0.991333,0.266656,0.386565,-0.039389,58,274,580,5808
1644174909.931576,-0.012695,0.009094,-0.993652,0.205588,0.340763,0.006412,51,276,576,5696
1644174909.981821,-0.011902,0.008911,-0.992859,0.297191,0.371298,-0.283664,53,266,578,5776
1644174910.032188,-0.010803,0.012146,-0.991638,0.373527,0.325496,-0.207328,57,280,586,5824
1644174910.123445,-0.009094,0.009094,-0.993164,0.113985,0.401832,-0.115725,47,273,572,5760
1644174910.171853,-0.010315,0.008057,-0.991028,0.236122,0.554504,-0.008855,46,276,573,5840
1644174910.220244,-0.009338,0.012512,-0.988525,0.205588,0.493435,-0.130992,49,280,577,5664
1644174910.268602,-0.009888,0.007507,-0.992004,0.342992,0.371298,-0.161527,54,277,575,5728
1644174910.317016,-0.011658,0.010925,-0.992981,0.175053,0.432366,0.113282,53,274,580,5776
1644174910.365423,-0.008301,0.010132,-0.991577,0.281924,0.493435,-0.008855,55,271,583,5776
1644174910.413819,-0.008362,0.009033,-0.988281,0.190321,0.539237,-0.008855,54,273,586,5712
1644174910.462223,-0.011658,0.012451,-0.99054,0.35826,0.371298,-0.192061,49,280,577,5760
1644174910.510594,-0.010071,0.010254,-0.993042,0.342992,0.478168,-0.100458,57,275,577,5760
1644174910.558994,-0.008179,0.010132,-0.992065,0.220855,0.386565,-0.085191,57,273,586,5760
1644174910.607364,-0.004761,0.011658,-0.993958,0.297191,0.386565,-0.176794,52,282,584,5728
1644174910.655761,-0.012268,0.012939,-0.99115,0.312458,0.432366,0.098015,57,270,579,5824
1644174910.704161,-0.010071,0.006958,-0.989319,0.419328,0.493435,-0.100458,46,274,571,5760
1644174910.752563,-0.009705,0.007751,-0.988647,0.220855,0.462901,-0.039389,49,275,582,5808
1644174910.800915,-0.010986,0.01123,-0.99176,0.205588,0.401832,-0.207328,47,268,582,5808
1644174910.849328,-0.009644,0.010132,-0.992432,0.312458,0.417099,-0.054656,55,271,583,5664
1644174910.897717,-0.01178,0.00885,-0.991882,0.205588,0.356031,-0.222595,48,269,578,5808
1644174910.946916,-0.010071,0.008667,-0.991272,0.236122,0.340763,-0.024122,57,277,582,5760
1644174910.994497,-0.012451,0.00769,-0.988525,0.281924,0.340763,-0.069924,49,280,584,5776
1644174911.044509,-0.009888,0.009338,-0.991333,0.373527,0.340763,-0.100458,51,276,576,5808
1644174911.10197,-0.007324,0.010559,-0.98999,0.220855,0.310229,-0.130992,53,281,578,5776
1644174911.143856,-0.008606,0.01062,-0.99115,0.129252,0.371298,-0.14626,51,266,583,5760
1644174911.189071,-0.011963,0.009521,-0.990234,0.205588,0.356031,-0.008855,39,269,580,5760
1644174911.284867,-0.011353,0.012146,-0.99176,0.297191,0.447634,0.021679,59,270,572,5776
1644174911.333208,-0.008179,0.010132,-0.991394,0.159786,0.325496,-0.176794,48,266,578,5808
1644174911.38158,-0.012329,0.010925,-0.991577,0.190321,0.523969,-0.115725,45,275,579,5696
1644174911.429974,-0.00946,0.008118,-0.991638,0.312458,0.417099,-0.069924,35,275,572,5712
1644174911.478362,-0.00708,0.010315,-0.993347,0.113985,0.294962,0.021679,42,280,572,5760
1644174911.526734,-0.010681,0.009644,-0.991882,0.129252,0.401832,0.021679,49,280,579,5776
1644174911.57518,-0.01062,0.007874,-0.994873,0.251389,0.325496,-0.069924,43,271,571,5824
1644174911.623533,-0.00885,0.011108,-0.992493,0.327725,0.279695,-0.161527,46,271,571,5712
1644174911.671945,-0.01062,0.006409,-0.990845,0.35826,0.478168,-0.130992,57,268,572,5712
1644174911.72032,-0.010498,0.00946,-0.990662,0.342992,0.493435,-0.054656,47,277,577,5776
1644174911.76872,-0.011963,0.007629,-0.993225,0.190321,0.432366,-0.054656,54,277,572,5728
1644174911.817147,-0.008057,0.009521,-0.992065,0.190321,0.386565,-0.024122,42,287,575,5728
1644174911.865544,-0.008179,0.01178,-0.990356,0.205588,0.462901,-0.14626,57,282,579,5712
1644174911.913908,-0.012512,0.005981,-0.992981,0.297191,0.478168,-0.069924,55,266,571,5824
1644174911.962336,-0.010986,0.008118,-0.990906,0.297191,0.356031,0.067481,52,273,586,5712
1644174912.010686,-0.006348,0.011597,-0.992615,0.205588,0.432366,0.036947,53,271,587,5728
1644174912.074742,-0.009888,0.00885,-0.994202,0.175053,0.523969,-0.115725,52,277,582,5808
1644174912.111206,-0.010803,0.007812,-0.992371,0.327725,0.371298,-0.115725,45,275,579,5712
1644174912.156209,-0.01239,0.007751,-0.99115,0.159786,0.325496,-0.115725,42,270,577,5776
1644174912.206707,-0.012878,0.009521,-0.990234,0.236122,0.401832,-0.176794,54,268,572,5760
1644174912.256748,-0.007874,0.009155,-0.993652,0.129252,0.417099,-0.024122,49,282,572,5760
1644174912.301832,-0.012085,0.01239,-0.995178,0.327725,0.493435,-0.085191,46,271,576,5808
1644174912.397787,-0.008301,0.008484,-0.991089,0.236122,0.493435,-0.069924,48,286,580,5776
1644174912.446172,-0.007996,0.009033,-0.991943,0.144519,0.371298,-0.069924,49,287,570,5696
1644174912.494842,-0.013062,0.011169,-0.992737,0.205588,0.401832,-0.14626,42,268,568,5728
1644174912.542972,-0.010437,0.012329,-0.990845,0.220855,0.340763,0.052214,52,285,570,5776
1644174912.591345,-0.009949,0.011475,-0.990356,0.373527,0.508702,0.036947,52,270,579,5760
1644174912.639724,-0.008606,0.007019,-0.990173,0.113985,0.462901,-0.100458,58,271,573,5840
1644174912.688146,-0.009827,0.013,-0.988708,0.037649,0.340763,-0.024122,58,283,569,5808
1644174912.736528,-0.00824,0.012756,-0.992065,0.281924,0.386565,-0.100458,49,273,575,5760
1644174912.784915,-0.010681,0.006775,-0.991943,0.251389,0.386565,-0.14626,52,280,584,5776
1644174912.833369,-0.008667,0.010559,-0.990356,0.251389,0.493435,-0.130992,57,270,572,5760
1644174912.881768,-0.010254,0.008301,-0.991455,0.205588,0.447634,-0.192061,67,271,576,5712
1644174912.930133,-0.010315,0.009216,-0.993713,0.098718,0.462901,0.021679,57,270,579,5776
1644174912.978526,-0.009827,0.01062,-0.993591,0.266656,0.432366,-0.069924,59,280,575,5760
1644174913.026922,-0.008728,0.012024,-0.992188,0.327725,0.325496,-0.237863,51,271,580,5760
1644174913.085333,-0.010986,0.008057,-0.991028,0.144519,0.508702,-0.115725,52,268,577,5776
1644174913.123672,-0.010803,0.011353,-0.992676,0.220855,0.462901,-0.039389,53,279,587,5776
1644174913.172483,-0.011169,0.009155,-0.990967,0.404061,0.340763,-0.192061,46,276,578,5728
1644174913.223026,-0.011292,0.011658,-0.992554,0.266656,0.432366,-0.024122,47,277,577,5760
1644174913.273263,-0.009216,0.008057,-0.989563,0.190321,0.356031,-0.008855,48,279,580,5776
1644174913.31833,-0.009766,0.012146,-0.991577,0.312458,0.401832,-0.100458,48,271,578,5760
1644174913.414019,-0.00824,0.00946,-0.989563,0.190321,0.401832,-0.14626,51,264,580,5824
1644174913.462422,-0.011353,0.00824,-0.99176,0.35826,0.386565,-0.237863,58,262,576,5728
1644174913.51077,-0.008911,0.011658,-0.991821,0.327725,0.63084,0.098015,49,275,572,5760
1644174913.559169,-0.011169,0.011536,-0.993408,0.220855,0.417099,-0.054656,48,274,571,5728
1644174913.607551,-0.006592,0.008301,-0.992554,0.190321,0.493435,0.067481,53,269,566,5728
1644174913.655945,-0.013489,0.006226,-0.990479,0.297191,0.325496,-0.115725,46,291,573,5696
1644174913.704369,-0.012512,0.006836,-0.992249,0.327725,0.325496,0.006412,54,277,575,5728
1644174913.752728,-0.012146,0.012268,-0.991577,0.205588,0.432366,0.052214,51,279,578,5824
1644174913.80113,-0.008545,0.008667,-0.993896,0.297191,0.493435,-0.314198,47,273,582,5760
1644174913.849573,-0.010559,0.009888,-0.993042,0.175053,0.432366,0.067481,49,263,570,5808
1644174913.897962,-0.006958,0.010864,-0.992188,0.251389,0.493435,0.036947,54,280,579,5776
1644174913.946352,-0.011353,0.007935,-0.989685,0.327725,0.493435,-0.237863,52,275,579,5824
1644174913.994736,-0.010254,0.008423,-0.993225,0.113985,0.417099,0.036947,52,275,579,5760
1644174914.043116,-0.011108,0.012329,-0.992615,0.404061,0.325496,-0.069924,42,285,572,5760
1644174914.09385,-0.007263,0.009888,-0.990295,0.297191,0.340763,-0.100458,55,274,580,5760
1644174914.139894,-0.008728,0.009521,-0.993347,0.159786,0.493435,-0.054656,49,277,575,5776
1644174914.188263,-0.010132,0.006775,-0.990967,0.098718,0.462901,-0.176794,52,265,582,5728
1644174914.236651,-0.009399,0.010193,-0.992188,0.266656,0.294962,-0.100458,54,285,586,5840
1644174914.285077,-0.013062,0.010437,-0.988403,0.205588,0.294962,0.036947,55,276,583,5712
1644174914.333693,-0.011475,0.010376,-0.993896,0.236122,0.371298,-0.085191,57,263,584,5712
1644174914.384097,-0.009521,0.009644,-0.989746,0.266656,0.218626,-0.161527,57,273,570,5776
1644174914.434201,-0.009033,0.013428,-0.992126,0.404061,0.462901,-0.054656,58,274,583,5664
1644174914.47932,-0.010071,0.009216,-0.990845,0.251389,0.356031,-0.039389,51,262,578,5824
1644174914.575379,-0.009094,0.010315,-0.992432,0.205588,0.371298,-0.054656,51,274,578,5808
1644174914.623793,-0.00946,0.009094,-0.992188,0.327725,0.447634,-0.176794,51,271,576,5728
1644174914.672488,-0.010681,0.010254,-0.991394,0.159786,0.432366,-0.024122,53,281,578,5728
1644174914.720553,-0.009827,0.00708,-0.99115,0.113985,0.447634,-0.054656,49,273,579,5808
1644174914.768958,-0.013367,0.010437,-0.994324,0.175053,0.478168,-0.054656,42,282,577,5760
1644174914.817338,-0.010986,0.007202,-0.991638,0.220855,0.600305,-0.054656,55,274,571,5776
1644174914.865778,-0.011292,0.009521,-0.992432,0.297191,0.508702,-0.054656,52,275,563,5728
1644174914.914177,-0.012573,0.00708,-0.99231,0.205588,0.523969,-0.237863,54,275,572,5728
1644174914.962566,-0.009766,0.006531,-0.989441,0.236122,0.417099,-0.237863,42,270,579,5824
1644174915.010918,-0.00885,0.006714,-0.992554,0.327725,0.356031,-0.069924,54,273,579,5824
1644174915.06874,-0.007996,0.008789,-0.990784,0.113985,0.447634,-0.069924,51,269,587,5728
1644174915.108732,-0.009216,0.00708,-0.99115,0.159786,0.447634,-0.054656,48,283,585,5824
1644174915.156082,-0.011597,0.007446,-0.991516,0.449863,0.340763,-0.039389,47,270,577,5728
1644174915.204488,-0.01062,0.010681,-0.990479,0.220855,0.417099,-0.054656,48,276,580,5712
1644174915.252884,-0.008423,0.010193,-0.991394,0.129252,0.478168,0.052214,55,274,583,5760
1644174915.301251,-0.008423,0.008301,-0.991638,0.251389,0.371298,-0.085191,53,281,580,5728
1644174915.349623,-0.009094,0.012329,-0.992615,0.266656,0.432366,-0.115725,51,276,576,5760
1644174915.39804,-0.008362,0.011353,-0.993164,0.190321,0.386565,-0.008855,43,276,573,5696
1644174915.446425,-0.010254,0.010132,-0.994202,0.236122,0.493435,0.021679,47,270,577,5696
1644174915.495595,-0.008362,0.00946,-0.99292,0.08345,0.447634,-0.283664,47,263,577,5808
1644174915.544901,-0.010986,0.008484,-0.990295,0.175053,0.356031,-0.222595,51,274,578,5808
1644174915.595456,-0.011108,0.010925,-0.993591,0.205588,0.432366,0.021679,46,276,573,5760
1644174915.64029,-0.011719,0.00824,-0.993835,0.205588,0.417099,-0.130992,47,275,577,5776
1644174915.736767,-0.01062,0.008301,-0.991882,0.190321,0.508702,-0.008855,54,273,586,5728
1644174915.785353,-0.011719,0.008789,-0.988647,0.220855,0.478168,-0.207328,47,273,579,5776
1644174915.833553,-0.012024,0.009827,-0.991882,0.251389,0.386565,-0.054656,39,276,580,5728
1644174915.881978,-0.011169,0.010925,-0.991516,0.281924,0.462901,-0.085191,42,277,568,5760
1644174915.930378,-0.012024,0.007507,-0.992554,0.312458,0.294962,-0.039389,59,270,577,5824
1644174915.978754,-0.009033,0.008057,-0.995728,0.175053,0.401832,-0.085191,47,277,575,5696
1644174916.027148,-0.010132,0.010742,-0.994446,0.266656,0.417099,-0.054656,54,275,577,5808
1644174916.075677,-0.01062,0.0047,-0.993225,0.068183,0.417099,0.052214,45,273,575,5696
1644174916.123941,-0.012451,0.010803,-0.99231,0.220855,0.401832,0.006412,51,274,578,5824
1644174916.172304,-0.006897,0.00946,-0.992126,0.266656,0.447634,-0.100458,54,282,577,5776
1644174916.220682,-0.011536,0.008667,-0.99231,0.281924,0.508702,0.006412,46,271,578,5760
1644174916.269074,-0.010742,0.010193,-0.993774,0.373527,0.508702,0.082748,48,269,576,5728
1644174916.31746,-0.011108,0.008911,-0.995422,0.190321,0.340763,-0.14626,52,263,582,5760
1644174916.365853,-0.010315,0.009155,-0.992737,0.266656,0.539237,-0.024122,47,277,577,5696
1644174916.414246,-0.00885,0.008728,-0.990112,0.342992,0.401832,-0.008855,58,279,583,5728
1644174916.462652,-0.011047,0.007874,-0.992004,0.342992,0.340763,-0.085191,52,270,591,5760
1644174916.511018,-0.008789,0.010742,-0.992065,0.190321,0.325496,-0.085191,52,282,582,5808
1644174916.559434,-0.007019,0.010681,-0.990906,0.251389,0.401832,-0.024122,51,276,590,5776
1644174916.607862,-0.009033,0.008972,-0.990723,0.205588,0.386565,-0.085191,54,273,586,5664
1644174916.656742,-0.009705,0.008728,-0.989807,0.220855,0.401832,-0.024122,54,270,572,5808
1644174916.707346,-0.009338,0.01001,-0.991577,0.266656,0.539237,0.021679,43,269,585,5824
1644174916.757425,-0.012695,0.011047,-0.993225,0.129252,0.432366,-0.054656,49,275,577,5808
1644174916.802424,-0.007874,0.009155,-0.991089,0.129252,0.508702,-0.069924,49,273,572,5760
1644174916.898202,-0.009583,0.013,-0.991821,0.251389,0.386565,-0.176794,47,285,570,5808
1644174916.946573,-0.010437,0.00769,-0.993042,0.037649,0.371298,-0.054656,58,271,576,5776
1644174916.995013,-0.011475,0.008789,-0.993103,0.159786,0.432366,0.006412,54,280,577,5760
1644174917.04337,-0.010864,0.008179,-0.989624,0.297191,0.417099,-0.085191,43,288,580,5760
1644174917.09182,-0.01001,0.009888,-0.992737,0.190321,0.523969,-0.115725,52,285,572,5728
1644174917.140149,-0.009888,0.009094,-0.99054,0.113985,0.340763,-0.222595,55,286,566,5760
1644174917.188502,-0.011963,0.008728,-0.991028,0.251389,0.447634,-0.085191,43,283,580,5808
1644174917.236894,-0.011841,0.007202,-0.992676,0.266656,0.493435,-0.192061,51,283,576,5760
1644174917.285289,-0.01001,0.012024,-0.992737,0.159786,0.325496,-0.069924,51,283,580,5808
1644174917.333687,-0.008789,0.010742,-0.993164,0.159786,0.615573,-0.054656,54,277,582,5760
1644174917.382064,-0.011719,0.009705,-0.989624,0.297191,0.600305,-0.054656,49,265,572,5776
1644174917.430421,-0.009766,0.009094,-0.99292,0.327725,0.310229,0.021679,53,279,580,5824
1644174917.478832,-0.011108,0.009216,-0.991089,0.190321,0.386565,-0.024122,48,274,585,5776
1644174917.527276,-0.010132,0.008789,-0.992981,0.220855,0.585038,-0.024122,43,274,583,5760
1644174917.577196,-0.010498,0.008972,-0.993164,0.266656,0.401832,-0.192061,48,274,578,5776
1644174917.627951,-0.011169,0.008728,-0.992493,0.159786,0.325496,-0.176794,42,270,575,5728
1644174917.672456,-0.01178,0.008301,-0.990479,0.098718,0.371298,-0.054656,43,276,583,5760
1644174917.769171,-0.010925,0.010742,-0.991882,0.251389,0.539237,-0.161527,51,271,576,5776
1644174917.817573,-0.01062,0.007874,-0.991821,0.297191,0.432366,-0.14626,51,274,576,5840
1644174917.865955,-0.009949,0.008728,-0.992126,0.190321,0.401832,-0.054656,36,281,578,5760
1644174917.914414,-0.01178,0.006775,-0.992981,0.113985,0.340763,-0.008855,57,277,575,5760
1644174917.962831,-0.008057,0.011292,-0.993042,0.297191,0.447634,-0.069924,45,275,577,5760
1644174918.011161,-0.010681,0.007751,-0.993713,0.159786,0.371298,-0.130992,46,276,573,5824
1644174918.067001,-0.012146,0.010498,-0.990723,0.281924,0.417099,-0.115725,51,274,583,5760
1644174918.107925,-0.010681,0.01001,-0.993164,0.129252,0.386565,-0.130992,47,275,570,5760
1644174918.156371,-0.012207,0.013184,-0.992737,0.159786,0.508702,-0.176794,43,274,583,5760
1644174918.204768,-0.012207,0.005737,-0.991455,0.297191,0.462901,-0.115725,54,277,579,5728
1644174918.253123,-0.012146,0.008545,-0.989685,0.312458,0.325496,0.006412,51,264,569,5808
1644174918.301528,-0.010254,0.008301,-0.991089,0.113985,0.371298,-0.054656,45,285,563,5808
1644174918.349941,-0.006165,0.009521,-0.991882,0.281924,0.508702,-0.115725,41,279,578,5808
1644174918.398315,-0.012329,0.011841,-0.993103,0.266656,0.218626,-0.100458,49,273,584,5712
1644174918.447469,-0.011719,0.006287,-0.99353,0.205588,0.508702,-0.100458,46,274,573,5808
1644174918.498402,-0.010193,0.008423,-0.991821,0.220855,0.371298,-0.25313,47,282,577,5776
1644174918.548054,-0.010559,0.009583,-0.98999,0.297191,0.417099,0.006412,51,271,576,5728
1644174918.592603,-0.011475,0.010071,-0.990967,0.113985,0.462901,-0.207328,55,269,578,5808
1644174918.68866,-0.007568,0.008728,-0.990967,0.144519,0.508702,-0.039389,54,273,579,5728
1644174918.737038,-0.009766,0.009521,-0.993469,0.342992,0.401832,-0.008855,55,274,580,5776
1644174918.785439,-0.009705,0.009521,-0.993042,0.236122,0.493435,-0.100458,49,280,575,5664
1644174918.833847,-0.009216,0.010864,-0.990723,0.251389,0.478168,-0.008855,47,277,584,5696
1644174918.882226,-0.01062,0.010559,-0.989746,0.236122,0.310229,0.036947,49,275,577,5808
1644174918.930614,-0.005615,0.009827,-0.991333,0.144519,0.432366,0.067481,49,268,579,5712
1644174918.979006,-0.008179,0.010254,-0.992859,0.281924,0.585038,-0.176794,57,260,575,5760
1644174919.027405,-0.009033,0.009277,-0.989502,0.297191,0.371298,-0.161527,48,271,569,5728
1644174919.084941,-0.012146,0.010559,-0.992859,0.129252,0.508702,0.12855,52,270,577,5664
1644174919.124157,-0.009705,0.009705,-0.990723,0.327725,0.371298,-0.176794,52,285,582,5696
1644174919.172549,-0.011169,0.013733,-0.992249,0.327725,0.325496,-0.115725,51,264,580,5808
1644174919.220942,-0.011536,0.009521,-0.992737,0.312458,0.432366,-0.161527,49,277,582,5760
1644174919.269287,-0.007812,0.010254,-0.990784,0.236122,0.417099,-0.176794,49,280,575,5728
1644174919.317717,-0.011719,0.009399,-0.99115,-0.038687,0.310229,-0.176794,53,276,583,5728
1644174919.366096,-0.011169,0.00946,-0.990906,0.342992,0.508702,-0.085191,48,274,578,5808
1644174919.414493,-0.009033,0.009888,-0.992188,0.175053,0.371298,-0.085191,51,281,585,5760
1644174919.462895,-0.011353,0.009766,-0.991882,0.373527,0.417099,-0.024122,53,276,573,5824
1644174919.511235,-0.011658,0.013184,-0.989746,0.327725,0.386565,-0.176794,52,280,572,5696
1644174919.559656,-0.012573,0.009033,-0.993103,0.266656,0.508702,-0.100458,55,276,578,5760
1644174919.60836,-0.013123,0.010864,-0.993286,0.129252,0.356031,-0.024122,42,275,575,5824
1644174919.658928,-0.01355,0.01001,-0.991089,0.251389,0.325496,-0.069924,61,277,582,5760
1644174919.70994,-0.009766,0.012146,-0.991089,0.251389,0.417099,-0.024122,57,270,584,5760
1644174919.801645,-0.008728,0.008972,-0.992981,0.236122,0.615573,-0.283664,54,280,568,5824
1644174919.850028,-0.011963,0.007446,-0.991455,0.205588,0.401832,-0.14626,49,280,575,5760
1644174919.898425,-0.009888,0.011597,-0.992249,0.159786,0.340763,-0.069924,38,287,582,5808
1644174919.946819,-0.009888,0.011169,-0.990112,0.129252,0.401832,-0.100458,45,282,568,5776
1644174919.99538,-0.008057,0.010376,-0.992676,0.281924,0.462901,-0.085191,45,275,582,5776
1644174920.043623,-0.010986,0.007812,-0.99115,0.144519,0.401832,0.052214,51,269,580,5840
1644174920.093947,-0.009277,0.012085,-0.992126,0.251389,0.356031,0.021679,48,274,587,5760
1644174920.140351,-0.01001,0.00647,-0.991577,0.205588,0.310229,-0.085191,49,277,579,5776
1644174920.18875,-0.008362,0.00885,-0.992554,0.190321,0.356031,0.052214,43,279,578,5872
1644174920.237132,-0.006531,0.010254,-0.991028,0.220855,0.325496,-0.085191,49,273,568,5808
1644174920.285527,-0.010803,0.010193,-0.993286,0.159786,0.585038,0.036947,51,269,580,5760
1644174920.333914,-0.01178,0.008362,-0.990479,0.129252,0.356031,-0.024122,51,281,571,5728
1644174920.382328,-0.011414,0.010803,-0.993042,0.205588,0.417099,0.036947,54,275,570,5712
1644174920.430699,-0.010742,0.009399,-0.992432,0.388794,0.523969,-0.085191,53,279,580,5808
1644174920.47909,-0.009766,0.008545,-0.993225,0.35826,0.462901,-0.008855,58,271,580,5728
1644174920.527458,-0.009521,0.010498,-0.994324,0.220855,0.478168,0.021679,48,279,576,5760
1644174920.575868,-0.007874,0.008423,-0.995361,0.388794,0.493435,-0.130992,47,273,575,5776
1644174920.62451,-0.011475,0.007568,-0.990479,0.266656,0.478168,-0.024122,51,276,583,5760
1644174920.674983,-0.010559,0.010498,-0.991455,0.190321,0.432366,-0.024122,57,277,579,5808
1644174920.72519,-0.01001,0.009949,-0.990417,0.129252,0.417099,-0.14626,49,273,586,5760
1644174920.770265,-0.00885,0.006409,-0.99115,0.35826,0.294962,-0.192061,53,271,583,5776
1644174920.866222,-0.01062,0.008484,-0.99353,0.175053,0.325496,-0.024122,48,274,576,5776
1644174920.914881,-0.011902,0.007324,-0.990845,0.113985,0.325496,-0.115725,54,255,582,5728
1644174920.963055,-0.009766,0.009399,-0.993225,0.251389,0.356031,-0.100458,58,271,576,5824
1644174921.011407,-0.012329,0.009949,-0.994263,0.449863,0.447634,-0.085191,46,274,580,5808
1644174921.066959,-0.010132,0.009155,-0.990906,0.190321,0.417099,-0.130992,55,274,580,5760
1644174921.108167,-0.009888,0.013123,-0.992981,0.281924,0.417099,0.067481,53,271,573,5664
1644174921.156551,-0.010071,0.006653,-0.992859,0.297191,0.386565,-0.14626,47,285,570,5760
1644174921.204992,-0.012085,0.010437,-0.991577,0.266656,0.447634,-0.024122,55,271,580,5808
1644174921.253335,-0.010071,0.007996,-0.990662,0.220855,0.356031,-0.069924,55,276,576,5648
1644174921.301709,-0.00946,0.010071,-0.993225,0.281924,0.417099,0.021679,49,260,575,5824
1644174921.350119,-0.011353,0.007629,-0.99353,0.205588,0.310229,-0.115725,52,282,577,5808
1644174921.398498,-0.012085,0.010437,-0.992004,0.159786,0.371298,-0.008855,55,276,587,5808
1644174921.446903,-0.011353,0.008423,-0.989868,0.205588,0.569771,-0.039389,43,279,580,5696
1644174921.495305,-0.008179,0.007141,-0.994446,0.175053,0.417099,-0.130992,57,280,577,5696
1644174921.543691,-0.013,0.009949,-0.992432,0.281924,0.417099,-0.085191,47,287,575,5728
1644174921.592059,-0.011353,0.009155,-0.991333,0.175053,0.325496,-0.298931,47,282,570,5808
1644174921.640471,-0.008667,0.010986,-0.992004,0.373527,0.447634,-0.024122,51,271,573,5696
1644174921.688859,-0.007812,0.010437,-0.990479,0.159786,0.417099,-0.054656,52,268,579,5776
1644174921.73758,-0.009216,0.010803,-0.990784,0.251389,0.417099,-0.085191,51,271,583,5776
1644174921.786597,-0.007812,0.010193,-0.992188,0.388794,0.508702,-0.085191,58,264,576,5728
1644174921.838069,-0.010986,0.007935,-0.991821,0.388794,0.310229,-0.008855,53,266,576,5728
1644174921.888054,-0.01239,0.008423,-0.990723,0.312458,0.417099,-0.176794,53,279,578,5808
1644174921.979272,-0.009705,0.006287,-0.993591,0.342992,0.401832,-0.268397,52,287,577,5760
1644174922.027609,-0.011536,0.010986,-0.991638,0.037649,0.340763,-0.024122,47,282,570,5808
1644174922.076069,-0.009766,0.011658,-0.992737,0.129252,0.264427,-0.054656,49,263,584,5760
1644174922.124407,-0.009705,0.009155,-0.990417,0.175053,0.462901,-0.024122,62,271,566,5712
1644174922.172773,-0.011719,0.009705,-0.990967,0.281924,0.417099,-0.161527,55,264,580,5712
1644174922.221169,-0.008911,0.009399,-0.991699,0.220855,0.432366,-0.14626,55,281,569,5696
1644174922.269552,-0.009277,0.009399,-0.992065,0.266656,0.371298,-0.176794,53,276,573,5712
1644174922.317926,-0.009216,0.009033,-0.991272,0.312458,0.417099,0.021679,48,274,573,5696
1644174922.366333,-0.010376,0.010071,-0.989685,0.297191,0.432366,-0.207328,57,275,584,5808
1644174922.414746,-0.009277,0.008545,-0.993225,0.297191,0.371298,-0.176794,49,270,577,5696
1644174922.463137,-0.010681,0.008484,-0.988342,0.342992,0.356031,-0.069924,51,276,573,5760
1644174922.511484,-0.01123,0.007751,-0.991272,0.404061,0.447634,-0.085191,65,279,576,5728
1644174922.559905,-0.011719,0.009216,-0.993835,0.266656,0.447634,-0.207328,49,287,589,5712
1644174922.60829,-0.009094,0.009216,-0.992126,0.190321,0.401832,-0.039389,52,273,568,5760
1644174922.656651,-0.011047,0.008972,-0.992371,0.175053,0.325496,0.006412,54,277,575,5760
1644174922.705112,-0.010864,0.010559,-0.994202,0.312458,0.417099,0.052214,39,283,580,5712
1644174922.753434,-0.009705,0.011292,-0.993408,0.159786,0.569771,-0.024122,51,274,578,5728
1644174922.801852,-0.012024,0.010498,-0.992981,0.205588,0.432366,0.067481,46,276,580,5776
1644174922.850286,-0.01178,0.009155,-0.992126,0.220855,0.462901,-0.25313,49,268,582,5776
1644174922.899788,-0.010864,0.008301,-0.992188,0.327725,0.417099,0.006412,53,262,578,5728
1644174922.950381,-0.010254,0.01001,-0.992676,0.35826,0.386565,0.006412,45,273,572,5776
1644174923.000356,-0.012085,0.008606,-0.992737,0.251389,0.447634,-0.115725,52,265,577,5776
1644174923.044936,-0.010193,0.008301,-0.991943,0.236122,0.233893,-0.085191,53,271,576,5776
1644174923.140631,-0.010498,0.010803,-0.990662,0.205588,0.386565,-0.14626,55,279,571,5808
1644174923.188977,-0.008423,0.013855,-0.991577,0.08345,0.417099,-0.054656,47,273,570,5776
1644174923.237362,-0.008972,0.007812,-0.993774,0.236122,0.417099,0.006412,52,273,570,5824
1644174923.285725,-0.007629,0.008789,-0.989929,0.190321,0.478168,-0.115725,43,279,576,5728
1644174923.33415,-0.011108,0.010376,-0.990356,0.297191,0.172824,-0.130992,51,281,573,5776
1644174923.382572,-0.011475,0.009216,-0.992981,0.129252,0.325496,-0.024122,39,269,576,5760
1644174923.430933,-0.010315,0.008972,-0.992981,0.159786,0.340763,-0.130992,51,266,576,5728
1644174923.479333,-0.010376,0.00824,-0.992126,0.327725,0.478168,-0.054656,48,276,571,5760
1644174923.52772,-0.009766,0.009277,-0.993042,0.205588,0.386565,-0.130992,47,277,568,5776
1644174923.576114,-0.013855,0.009766,-0.990479,0.236122,0.462901,-0.115725,53,271,585,5760
1644174923.624514,-0.010864,0.009949,-0.993347,0.327725,0.432366,-0.192061,55,286,578,5776
1644174923.672912,-0.010254,0.01062,-0.992004,0.190321,0.356031,-0.069924,58,269,571,5776
1644174923.721284,-0.007568,0.008545,-0.991821,0.113985,0.340763,-0.192061,53,274,580,5696
1644174923.769663,-0.011658,0.01062,-0.98999,0.236122,0.340763,-0.085191,52,280,575,5840
1644174923.818071,-0.012634,0.009583,-0.991272,0.297191,0.371298,0.067481,54,277,575,5824
1644174923.866496,-0.009644,0.008911,-0.990723,0.220855,0.508702,-0.130992,53,269,580,5712
1644174923.915227,-0.012024,0.00885,-0.993958,0.297191,0.508702,-0.039389,52,277,579,5824
1644174923.9636,-0.01001,0.012756,-0.993164,0.220855,0.401832,-0.207328,57,280,582,5728
1644174924.068887,-0.007812,0.008118,-0.991394,0.220855,0.432366,0.021679,58,269,578,5728
1644174924.108443,-0.00531,0.011047,-0.99231,0.266656,0.447634,-0.115725,49,280,586,5776
1644174924.156815,-0.007141,0.010193,-0.992859,0.266656,0.340763,-0.069924,51,274,566,5728
1644174924.205282,-0.010132,0.008789,-0.99176,0.098718,0.493435,-0.237863,47,268,575,5808
1644174924.253612,-0.012207,0.009094,-0.99469,0.159786,0.264427,0.067481,41,281,573,5760
1644174924.301971,-0.01178,0.008667,-0.98938,0.266656,0.371298,-0.100458,49,282,586,5776
1644174924.350375,-0.007446,0.009155,-0.992065,0.297191,0.447634,-0.192061,48,279,573,5840
1644174924.398763,-0.008911,0.011047,-0.991821,0.449863,0.417099,0.006412,48,266,576,5776
1644174924.447152,-0.010254,0.009216,-0.994324,0.266656,0.386565,-0.054656,49,285,570,5776
1644174924.49555,-0.010071,0.008301,-0.991638,0.342992,0.294962,-0.115725,49,268,568,5728
1644174924.543916,-0.009155,0.008789,-0.995239,0.327725,0.401832,-0.054656,54,268,582,5760
1644174924.59234,-0.010132,0.010254,-0.99292,0.312458,0.447634,-0.207328,51,264,585,5760
1644174924.640708,-0.008789,0.010132,-0.99231,0.190321,0.401832,-0.085191,49,273,579,5776
1644174924.689392,-0.012329,0.009766,-0.992493,0.297191,0.386565,-0.298931,53,279,571,5776
1644174924.739756,-0.010986,0.01062,-0.992126,0.175053,0.386565,-0.176794,39,279,576,5776
1644174924.790126,-0.008667,0.007202,-0.989563,0.129252,0.432366,-0.130992,57,275,579,5712
1644174924.835209,-0.00946,0.008972,-0.992188,0.251389,0.447634,-0.115725,47,277,575,5776
1644174924.931094,-0.009705,0.012024,-0.991516,0.373527,0.478168,-0.115725,57,285,582,5776
1644174924.979455,-0.011414,0.008118,-0.994019,0.113985,0.371298,-0.054656,45,270,575,5728
1644174925.027871,-0.009277,0.010193,-0.99408,0.312458,0.340763,-0.14626,53,271,571,5808
1644174925.076452,-0.014526,0.007935,-0.992065,0.159786,0.432366,-0.069924,53,271,580,5808
1644174925.12468,-0.010864,0.009033,-0.993652,0.113985,0.447634,-0.054656,58,274,564,5760
1644174925.173048,-0.011902,0.010437,-0.991882,0.205588,0.417099,-0.192061,49,275,577,5824
1644174925.221435,-0.012695,0.010071,-0.992615,0.144519,0.478168,-0.237863,54,280,568,5712
1644174925.269815,-0.009155,0.008972,-0.993164,0.281924,0.432366,-0.161527,51,274,578,5760
1644174925.318225,-0.015503,0.008667,-0.993469,0.266656,0.401832,0.021679,54,282,575,5760
1644174925.366621,-0.011414,0.009705,-0.992615,0.098718,0.493435,-0.130992,46,271,578,5808
1644174925.415145,-0.013306,0.010864,-0.992065,0.159786,0.417099,-0.085191,57,288,580,5808
1644174925.463435,-0.01123,0.009583,-0.992554,0.236122,0.432366,0.006412,51,271,573,5808
1644174925.511765,-0.009888,0.011292,-0.990356,0.266656,0.401832,-0.054656,53,279,573,5824
1644174925.560193,-0.011047,0.009766,-0.989563,0.159786,0.417099,-0.14626,48,271,578,5824
1644174925.608575,-0.00946,0.009338,-0.993835,0.236122,0.386565,0.036947,52,277,577,5760
1644174925.656966,-0.012146,0.007446,-0.993286,0.327725,0.233893,-0.161527,52,258,579,5808
1644174925.705353,-0.013977,0.008667,-0.992859,0.297191,0.539237,-0.008855,57,280,570,5760
1644174925.753732,-0.010803,0.008179,-0.995544,0.297191,0.569771,-0.085191,58,266,573,5712
1644174925.802637,-0.007446,0.009705,-0.993652,0.266656,0.386565,-0.161527,52,273,579,5776
1644174925.853146,-0.009521,0.010132,-0.994385,0.297191,0.356031,-0.085191,54,265,575,5712
1644174925.903682,-0.009521,0.008484,-0.994446,0.297191,0.279695,-0.039389,51,271,583,5760
1644174925.948079,-0.010376,0.010559,-0.991211,0.190321,0.508702,-0.14626,47,275,572,5776
1644174926.044129,-0.011658,0.008484,-0.99176,0.098718,0.478168,-0.069924,46,274,590,5808
1644174926.095326,-0.010071,0.006348,-0.991455,0.236122,0.447634,-0.069924,52,268,589,5840
1644174926.1408,-0.012939,0.009766,-0.990723,0.236122,0.401832,-0.100458,59,275,577,5760
1644174926.189217,-0.010742,0.008728,-0.99408,0.327725,0.493435,-0.039389,52,270,582,5760
1644174926.237597,-0.010925,0.009705,-0.992188,0.113985,0.386565,-0.039389,52,285,570,5776
1644174926.286002,-0.011597,0.00708,-0.990601,0.297191,0.493435,-0.161527,52,270,579,5760
1644174926.334397,-0.010071,0.00946,-0.98999,0.220855,0.417099,0.006412,43,276,573,5760
1644174926.382807,-0.011658,0.008057,-0.989929,0.205588,0.493435,0.006412,47,273,572,5776
1644174926.431156,-0.010376,0.007812,-0.992188,0.159786,0.356031,-0.069924,51,279,571,5760
1644174926.47957,-0.008484,0.009827,-0.990662,0.159786,0.508702,0.021679,49,273,586,5712
1644174926.527965,-0.010376,0.011658,-0.99176,0.190321,0.508702,-0.115725,38,275,577,5776
1644174926.576357,-0.010864,0.01062,-0.990479,0.419328,0.371298,-0.192061,58,266,569,5824
1644174926.624761,-0.008362,0.008118,-0.99231,0.098718,0.447634,-0.069924,58,276,578,5712
1644174926.673139,-0.012207,0.010193,-0.992432,0.190321,0.356031,-0.207328,51,274,564,5712
1644174926.721519,-0.01001,0.008728,-0.991211,0.266656,0.569771,-0.085191,54,265,572,5808
1644174926.769924,-0.012512,0.010437,-0.991028,0.098718,0.432366,-0.115725,58,274,587,5712
1644174926.818345,-0.012451,0.007385,-0.992493,0.373527,0.371298,-0.237863,49,270,575,5776
1644174926.867499,-0.009338,0.009888,-0.991699,0.098718,0.340763,-0.069924,54,265,582,5808
1644174926.91558,-0.013977,0.008423,-0.991211,0.266656,0.508702,0.036947,52,263,579,5760
1644174926.965115,-0.009888,0.006287,-0.991943,0.327725,0.386565,-0.024122,62,271,573,5664
1644174927.070561,-0.012146,0.009583,-0.991455,0.144519,0.325496,-0.054656,43,274,573,5728
1644174927.10964,-0.013,0.011658,-0.992737,0.220855,0.356031,0.021679,47,265,584,5808
1644174927.157023,-0.010681,0.011597,-0.991211,0.266656,0.417099,-0.222595,38,268,577,5824
1644174927.205422,-0.012756,0.007996,-0.993164,0.236122,0.325496,-0.024122,57,260,577,5728
1644174927.253834,-0.011658,0.009521,-0.991577,0.251389,0.493435,-0.039389,49,285,582,5776
1644174927.302239,-0.009827,0.013672,-0.992615,0.220855,0.386565,0.006412,52,268,589,5776
1644174927.350611,-0.011108,0.01001,-0.991943,0.297191,0.233893,0.006412,46,266,583,5696
1644174927.398994,-0.007874,0.009338,-0.990479,0.388794,0.417099,-0.054656,48,269,583,5728
1644174927.447391,-0.011475,0.009094,-0.989929,0.190321,0.554504,-0.130992,48,271,585,5696
1644174927.495783,-0.010681,0.01001,-0.991943,0.312458,0.401832,0.113282,61,275,582,5728
1644174927.544169,-0.008484,0.010437,-0.990845,0.251389,0.432366,-0.024122,53,276,583,5760
1644174927.592578,-0.00824,0.008118,-0.989929,0.419328,0.371298,-0.176794,47,275,582,5776
1644174927.64094,-0.007385,0.008179,-0.990906,0.251389,0.432366,-0.054656,46,274,578,5712
1644174927.689391,-0.012817,0.009216,-0.990112,0.281924,0.432366,0.006412,49,273,579,5808
1644174927.738238,-0.010254,0.008179,-0.993164,0.144519,0.264427,-0.298931,42,268,584,5840
1644174927.789101,-0.011047,0.010132,-0.989563,0.266656,0.371298,-0.176794,57,270,582,5760
1644174927.839163,-0.010864,0.011047,-0.992981,0.419328,0.340763,-0.024122,45,275,577,5712
1644174927.884262,-0.010681,0.011292,-0.988647,0.220855,0.417099,0.021679,45,268,582,5712
1644174927.979737,-0.011841,0.007141,-0.992249,0.266656,0.462901,0.052214,48,274,573,5712
1644174928.028122,-0.010559,0.007996,-0.992432,0.327725,0.340763,0.082748,59,287,570,5712
1644174928.076539,-0.011169,0.010986,-0.992859,0.037649,0.447634,-0.039389,42,277,579,5712
1644174928.124898,-0.006958,0.010925,-0.992371,0.159786,0.508702,-0.237863,48,271,569,5760
1644174928.173266,-0.010559,0.010498,-0.990662,0.373527,0.447634,-0.161527,45,277,577,5728
1644174928.221642,-0.010986,0.012573,-0.991699,0.144519,0.523969,-0.207328,53,276,571,5760
1644174928.270012,-0.009277,0.007019,-0.991516,0.327725,0.325496,-0.085191,58,269,571,5808
1644174928.318402,-0.008972,0.013,-0.992065,0.373527,0.432366,-0.039389,51,274,576,5808
1644174928.366816,-0.011841,0.010193,-0.98938,0.327725,0.356031,0.036947,46,274,569,5760
1644174928.415295,-0.008423,0.010315,-0.993469,0.175053,0.432366,-0.130992,57,277,577,5776
1644174928.46365,-0.011902,0.011475,-0.993652,0.205588,0.478168,-0.069924,51,274,576,5808
1644174928.51197,-0.011902,0.009949,-0.993225,0.388794,0.356031,0.067481,61,270,579,5728
1644174928.56038,-0.011963,0.009766,-0.993225,0.113985,0.386565,-0.115725,48,279,585,5760
1644174928.608771,-0.010071,0.01123,-0.993652,0.373527,0.478168,-0.115725,49,270,582,5760
1644174928.657159,-0.006409,0.007324,-0.993103,0.159786,0.600305,-0.039389,48,271,580,5696
1644174928.705542,-0.010803,0.010376,-0.993958,0.312458,0.432366,-0.176794,48,281,587,5712
1644174928.75391,-0.011475,0.007996,-0.993042,0.129252,0.386565,0.143817,57,282,577,5776
1644174928.802931,-0.008118,0.009827,-0.993774,0.205588,0.462901,-0.130992,53,281,587,5712
1644174928.850774,-0.011902,0.013184,-0.990112,0.266656,0.401832,-0.069924,48,276,578,5776
1644174928.900483,-0.009705,0.008301,-0.992737,0.373527,0.310229,-0.192061,61,275,577,5808
1644174928.951311,-0.009949,0.00769,-0.992371,0.113985,0.447634,-0.115725,49,273,575,5808
1644174929.000879,-0.013184,0.011292,-0.991211,0.281924,0.340763,-0.161527,48,276,573,5824
1644174929.045609,-0.011719,0.010132,-0.989502,0.251389,0.371298,-0.024122,59,285,575,5808
1644174929.141094,-0.007446,0.006531,-0.994995,0.236122,0.401832,-0.100458,46,281,569,5808
1644174929.189459,-0.009766,0.007324,-0.993164,0.281924,0.417099,-0.100458,55,276,573,5760
1644174929.237851,-0.011658,0.009705,-0.991455,0.266656,0.401832,-0.054656,53,281,576,5728
1644174929.286231,-0.010742,0.006653,-0.99231,0.113985,0.356031,-0.085191,48,276,571,5760
1644174929.334642,-0.011597,0.007202,-0.992371,0.205588,0.554504,-0.085191,49,273,572,5696
1644174929.383046,-0.01001,0.009827,-0.994446,0.327725,0.554504,-0.268397,45,275,572,5776
1644174929.431418,-0.00769,0.007385,-0.990601,0.297191,0.310229,-0.069924,53,266,583,5808
1644174929.479808,-0.00824,0.010315,-0.989014,0.144519,0.340763,-0.14626,49,280,579,5760
1644174929.528197,-0.008484,0.008484,-0.990112,0.236122,0.447634,-0.085191,54,273,579,5808
1644174929.576567,-0.010437,0.010742,-0.99469,0.327725,0.325496,-0.130992,53,264,578,5808
1644174929.625101,-0.008484,0.007568,-0.991333,0.022382,0.523969,-0.069924,54,273,572,5760
1644174929.673378,-0.029907,0.006226,-0.989563,0.373527,0.417099,-0.054656,52,268,589,5760
1644174929.721767,-0.01593,0.00415,-0.997192,-0.069221,0.264427,0.113282,45,280,589,5760
1644174929.770165,-0.014404,0.017944,-0.993591,0.159786,0.340763,-0.14626,40,277,586,5776
1644174929.818546,-0.016418,0.016418,-0.994202,0.312458,0.508702,0.098015,43,279,580,5712
1644174929.866953,-0.010132,0.006104,-0.99353,0.251389,0.279695,-0.024122,53,276,576,5760
1644174929.915405,-0.012573,0.009338,-0.990051,0.220855,0.432366,-0.14626,42,273,584,5776
1644174929.964113,-0.008972,0.00885,-0.993225,0.266656,0.432366,-0.008855,49,275,586,5760
1644174930.066543,-0.011047,0.005371,-0.993774,0.129252,0.417099,-0.237863,48,271,573,5776
1644174930.10891,-0.009827,0.004944,-0.991882,0.190321,0.523969,-0.008855,46,279,580,5712
1644174930.157273,-0.011047,0.010071,-0.994324,0.35826,0.585038,-0.207328,47,280,570,5760
1644174930.205668,-0.012146,0.011963,-0.989075,0.342992,0.432366,0.021679,47,263,575,5824
1644174930.254056,-0.013367,0.008911,-0.995239,0.404061,0.371298,-0.008855,47,273,577,5728
1644174930.302472,-0.015198,0.008118,-0.994263,0.251389,0.523969,-0.039389,47,280,582,5760
1644174930.350851,-0.009949,0.009827,-0.992859,0.190321,0.478168,-0.024122,51,276,571,5824
1644174930.39925,-0.009644,0.009338,-0.990784,0.251389,0.462901,-0.054656,51,279,576,5824
1644174930.44763,-0.009583,0.011658,-0.99292,0.281924,0.294962,0.036947,54,280,584,5760
1644174930.496006,-0.012268,0.009705,-0.993164,0.144519,0.462901,-0.161527,43,276,573,5808
1644174930.544417,-0.013184,0.00769,-0.991699,0.236122,0.417099,-0.14626,52,280,575,5712
1644174930.592825,-0.011108,0.008667,-0.989197,0.175053,0.432366,0.082748,57,285,579,5760
1644174930.641155,-0.01178,0.00946,-0.993042,0.175053,0.386565,-0.130992,48,269,578,5776
1644174930.689761,-0.010803,0.010681,-0.992249,0.220855,0.432366,-0.192061,46,283,578,5760
1644174930.737972,-0.010315,0.005127,-0.993469,0.251389,0.432366,-0.176794,59,268,584,5824
1644174930.786362,-0.007935,0.009155,-0.99353,0.098718,0.340763,-0.130992,40,275,579,5728
1644174930.835429,-0.009399,0.009644,-0.992798,0.35826,0.401832,-0.115725,54,273,575,5696
1644174930.886762,-0.012695,0.010071,-0.993225,0.098718,0.554504,-0.085191,59,275,582,5712
1644174930.93763,-0.010742,0.010498,-0.993042,0.175053,0.462901,0.021679,55,274,585,5760
1644174931.028357,-0.012207,0.009216,-0.993286,0.297191,0.539237,-0.054656,51,276,580,5840
1644174931.076812,-0.010559,0.008301,-0.992188,0.342992,0.417099,0.036947,55,281,578,5776
1644174931.125154,-0.006653,0.009155,-0.991089,0.327725,0.539237,-0.115725,47,277,570,5760
1644174931.173486,-0.010315,0.008667,-0.991089,0.190321,0.310229,-0.130992,45,285,582,5712
1644174931.221874,-0.010193,0.010376,-0.991028,0.159786,0.432366,-0.192061,47,277,572,5808
1644174931.270241,-0.009827,0.010925,-0.991089,0.068183,0.340763,0.006412,52,280,577,5696
1644174931.318653,-0.009888,0.009766,-0.990295,0.159786,0.417099,0.082748,46,276,571,5760
1644174931.367053,-0.01001,0.007141,-0.991272,0.251389,0.508702,-0.161527,46,269,573,5760
1644174931.41546,-0.00769,0.010254,-0.990662,0.129252,0.417099,-0.115725,61,280,575,5648
1644174931.46384,-0.010132,0.012634,-0.995117,0.236122,0.508702,-0.161527,46,271,585,5760
1644174931.512241,-0.010742,0.009277,-0.99231,0.312458,0.386565,0.006412,46,271,583,5776
1644174931.560616,-0.007874,0.008667,-0.992676,0.297191,0.356031,-0.054656,43,279,571,5696
1644174931.60901,-0.009277,0.01178,-0.992188,0.236122,0.554504,-0.130992,49,275,579,5840
1644174931.657399,-0.009949,0.009094,-0.992249,0.113985,0.432366,-0.008855,54,282,577,5728
1644174931.705806,-0.008362,0.010315,-0.992432,0.327725,0.279695,-0.130992,45,275,589,5776
1644174931.754158,-0.009705,0.010559,-0.991882,0.251389,0.523969,-0.008855,39,283,580,5840
1644174931.802655,-0.011475,0.008118,-0.994019,0.327725,0.386565,-0.176794,51,264,590,5824
1644174931.851072,-0.01062,0.011108,-0.990601,0.190321,0.218626,-0.008855,51,274,576,5760
1644174931.899396,-0.010437,0.012512,-0.990906,0.159786,0.356031,-0.085191,54,270,582,5728
1644174931.949241,-0.009277,0.010559,-0.991394,0.236122,0.417099,-0.222595,47,260,582,5712
1644174931.999563,-0.010437,0.011169,-0.993347,0.266656,0.264427,-0.100458,52,265,568,5808
1644174932.093367,-0.01123,0.008179,-0.992554,0.373527,0.371298,-0.115725,54,280,584,5824
1644174932.141279,-0.008911,0.007996,-0.993713,0.251389,0.569771,-0.14626,57,273,577,5760
1644174932.189691,-0.010742,0.01062,-0.990234,0.190321,0.417099,-0.130992,54,277,584,5696
1644174932.238065,-0.010193,0.00885,-0.993896,0.190321,0.401832,-0.115725,54,273,579,5824
1644174932.28648,-0.011169,0.006958,-0.991089,0.327725,0.447634,-0.024122,39,274,585,5696
1644174932.334879,-0.01001,0.009033,-0.990723,0.08345,0.386565,-0.069924,40,275,584,5760
1644174932.38327,-0.010437,0.011414,-0.987244,0.281924,0.447634,-0.069924,51,279,573,5728
1644174932.431703,-0.009888,0.010559,-0.994019,0.419328,0.417099,-0.115725,48,276,573,5760
1644174932.480046,-0.013245,0.01123,-0.991943,0.373527,0.417099,-0.085191,57,268,577,5712
1644174932.528429,-0.008789,0.009827,-0.989685,0.220855,0.462901,0.006412,45,280,575,5808
1644174932.576825,-0.010132,0.007996,-0.993591,0.251389,0.493435,0.006412,54,285,575,5760
1644174932.62529,-0.011963,0.009949,-0.993774,0.297191,0.493435,-0.130992,51,276,580,5808
1644174932.673625,-0.011047,0.007874,-0.989624,0.205588,0.371298,-0.024122,41,269,576,5760
1644174932.722015,-0.008911,0.00946,-0.993408,0.205588,0.386565,-0.085191,47,287,570,5712
1644174932.770392,-0.010742,0.009338,-0.991577,0.205588,0.539237,-0.176794,43,281,583,5760
1644174932.818828,-0.012329,0.007996,-0.990845,0.190321,0.401832,-0.054656,49,282,570,5776
1644174932.867219,-0.009583,0.013,-0.991943,0.266656,0.447634,-0.130992,53,281,576,5696
1644174932.915629,-0.008728,0.010498,-0.992493,0.190321,0.432366,-0.222595,51,274,578,5776
1644174932.96401,-0.012756,0.008911,-0.993958,0.419328,0.310229,0.036947,47,280,570,5808
1644174933.067835,-0.00946,0.008057,-0.991638,0.327725,0.310229,-0.130992,54,275,570,5808
1644174933.109079,-0.010559,0.006165,-0.994751,0.175053,0.340763,-0.176794,59,258,582,5776
1644174933.157484,-0.006897,0.01416,-0.993774,0.342992,0.478168,-0.237863,47,275,570,5696
1644174933.20591,-0.01062,0.010071,-0.993408,0.159786,0.340763,-0.054656,54,277,579,5776
1644174933.254273,-0.011658,0.008972,-0.993835,0.342992,0.386565,-0.054656,52,270,579,5808
1644174933.302711,-0.009094,0.008484,-0.993408,0.098718,0.264427,-0.054656,47,270,579,5712
1644174933.351088,-0.010864,0.007568,-0.995117,0.541466,0.310229,-0.100458,51,279,576,5664
1644174933.399483,-0.008972,0.009399,-0.992615,0.251389,0.539237,-0.100458,55,266,580,5776
1644174933.447863,-0.009094,0.006531,-0.993042,0.144519,0.508702,-0.130992,49,287,570,5664
1644174933.496228,-0.012146,0.009827,-0.990784,0.327725,0.478168,-0.100458,43,279,578,5776
1644174933.544688,-0.009766,0.008972,-0.991821,0.205588,0.24916,-0.161527,46,274,573,5776
1644174933.593059,-0.007446,0.008484,-0.991455,0.068183,0.340763,-0.176794,52,275,589,5728
1644174933.641426,-0.011475,0.006714,-0.99176,0.129252,0.264427,-0.054656,42,268,575,5712
1644174933.689818,-0.012329,0.010315,-0.996033,0.342992,0.417099,-0.130992,42,290,575,5824
1644174933.738193,-0.009949,0.008484,-0.992188,0.190321,0.417099,-0.222595,55,276,580,5776
1644174933.787042,-0.012634,0.010376,-0.991028,0.251389,0.294962,-0.207328,55,271,580,5760
1644174933.84201,-0.007874,0.009705,-0.990112,0.175053,0.310229,-0.14626,58,269,594,5728
1644174933.888778,-0.009766,0.009399,-0.991577,0.251389,0.294962,-0.100458,52,282,577,5712
1644174933.93329,-0.010559,0.009094,-0.989319,0.175053,0.325496,-0.100458,53,271,578,5728
1644174934.028592,-0.011169,0.009094,-0.991272,0.144519,0.401832,-0.054656,53,271,578,5776
1644174934.076996,-0.009155,0.008484,-0.99408,0.159786,0.356031,-0.207328,62,269,580,5696
1644174934.125384,-0.010132,0.009094,-0.992798,0.068183,0.356031,0.021679,45,275,579,5728
1644174934.173737,-0.009949,0.008484,-0.990356,0.281924,0.325496,-0.085191,51,274,578,5696
1644174934.222398,-0.013733,0.012268,-0.990906,0.281924,0.462901,-0.024122,49,275,572,5728
1644174934.270507,-0.012878,0.008606,-0.99176,0.175053,0.325496,-0.008855,53,266,578,5808
1644174934.318877,-0.009766,0.008484,-0.991821,0.35826,0.371298,-0.039389,41,283,573,5808
1644174934.367295,-0.009888,0.008667,-0.991333,0.205588,0.478168,-0.008855,43,279,569,5824
1644174934.415698,-0.008118,0.007507,-0.990479,0.373527,0.432366,-0.039389,48,283,585,5808
1644174934.464062,-0.00946,0.009705,-0.990417,0.113985,0.371298,-0.115725,48,286,576,5696
1644174934.512453,-0.009766,0.010132,-0.992554,0.220855,0.264427,-0.008855,52,265,565,5760
1644174934.560849,-0.007874,0.008789,-0.990601,0.266656,0.340763,-0.176794,54,280,582,5808
1644174934.609235,-0.009399,0.008728,-0.992188,0.144519,0.462901,-0.069924,55,279,580,5760
1644174934.657641,-0.013,0.009033,-0.993225,0.297191,0.401832,-0.192061,53,276,580,5728
1644174934.706024,-0.011414,0.00824,-0.991638,0.266656,0.646107,-0.130992,48,279,571,5760
1644174934.754393,-0.010254,0.008728,-0.992676,0.35826,0.356031,0.006412,38,285,577,5728
1644174934.802827,-0.01062,0.010132,-0.992981,0.205588,0.294962,-0.008855,43,279,580,5760
1644174934.851242,-0.00824,0.012329,-0.989258,0.068183,0.356031,-0.069924,54,268,579,5840
1644174934.899653,-0.01178,0.011108,-0.988892,0.236122,0.478168,-0.069924,45,275,575,5712
1644174934.948869,-0.009949,0.009949,-0.991089,0.175053,0.386565,-0.176794,46,276,573,5728
1644174934.999436,-0.01178,0.011108,-0.989807,0.190321,0.233893,-0.130992,54,270,582,5776
1644174935.05976,-0.013123,0.008789,-0.993713,0.205588,0.523969,0.006412,46,266,571,5760
1644174935.141591,-0.010742,0.007751,-0.991394,0.312458,0.447634,-0.115725,54,275,575,5776
1644174935.189936,-0.010864,0.007935,-0.990662,0.175053,0.325496,-0.207328,43,276,576,5760
1644174935.23833,-0.010803,0.008057,-0.993835,0.159786,0.279695,-0.115725,51,283,573,5808
1644174935.286705,-0.010681,0.009644,-0.989563,0.205588,0.371298,-0.207328,55,276,571,5760
1644174935.335146,-0.009827,0.009521,-0.993469,-0.008153,0.401832,-0.192061,49,275,570,5696
1644174935.383518,-0.01123,0.010254,-0.990662,0.205588,0.294962,-0.100458,53,279,576,5808
1644174935.431894,-0.010864,0.009094,-0.990784,0.098718,0.386565,-0.024122,45,280,579,5776
1644174935.48028,-0.007019,0.008057,-0.994629,0.251389,0.310229,0.006412,52,280,572,5728
1644174935.528684,-0.01001,0.012146,-0.994202,0.190321,0.447634,-0.222595,49,268,579,5760
1644174935.577047,-0.009277,0.011414,-0.991821,0.159786,0.401832,0.098015,53,271,573,5808
1644174935.625474,-0.013306,0.012756,-0.990723,0.220855,0.340763,-0.161527,48,276,580,5728
1644174935.673866,-0.008057,0.011414,-0.993225,0.144519,0.325496,-0.039389,53,279,580,5712
1644174935.722279,-0.011536,0.010681,-0.99176,0.159786,0.264427,-0.237863,46,276,587,5824
1644174935.770634,-0.011353,0.010193,-0.990662,0.220855,0.432366,-0.008855,48,283,571,5776
1644174935.819037,-0.009888,0.010925,-0.991211,0.068183,0.432366,-0.100458,53,276,571,5760
1644174935.867458,-0.00946,0.00647,-0.993347,0.251389,0.325496,-0.054656,53,271,580,5776
1644174935.915838,-0.007385,0.010071,-0.99176,0.129252,0.356031,0.159084,45,275,577,5776
1644174935.96449,-0.008911,0.010559,-0.992981,0.205588,0.279695,-0.176794,49,270,579,5712
1644174936.069165,-0.012756,0.00769,-0.992676,0.281924,0.340763,-0.283664,59,268,584,5776
1644174936.109367,-0.010437,0.006958,-0.992676,0.08345,0.478168,-0.207328,49,275,586,5808
1644174936.157763,-0.011292,0.011292,-0.991455,0.220855,0.478168,-0.085191,54,275,570,5728
1644174936.206148,-0.010437,0.01062,-0.99292,0.251389,0.264427,0.021679,48,274,587,5776
1644174936.254527,-0.009094,0.008301,-0.991516,0.205588,0.478168,0.021679,49,275,575,5808
1644174936.302922,-0.010864,0.008667,-0.991638,0.297191,0.356031,-0.069924,46,279,578,5776
1644174936.351313,-0.008118,0.00647,-0.992188,0.205588,0.325496,-0.069924,46,279,585,5776
1644174936.399717,-0.010437,0.007629,-0.994873,0.251389,0.371298,0.006412,48,283,580,5712
1644174936.448091,-0.011475,0.007812,-0.993835,0.205588,0.432366,0.021679,48,266,578,5728
1644174936.496474,-0.011902,0.00885,-0.993774,0.144519,0.356031,-0.085191,57,282,584,5712
1644174936.544876,-0.010315,0.012146,-0.994019,0.098718,0.401832,-0.14626,51,269,592,5840
1644174936.593285,-0.010132,0.010315,-0.989929,0.251389,0.340763,-0.100458,51,281,585,5760
1644174936.641664,-0.011475,0.010559,-0.991455,0.175053,0.294962,-0.115725,49,270,589,5760
1644174936.690051,-0.010071,0.009521,-0.99054,0.175053,0.554504,-0.008855,45,282,570,5776
1644174936.738449,-0.009216,0.011475,-0.989258,0.220855,0.356031,-0.192061,57,270,589,5808
1644174936.787157,-0.011902,0.007263,-0.994385,0.068183,0.508702,0.098015,43,279,590,5696
1644174936.837407,-0.008911,0.008606,-0.992615,0.144519,0.462901,-0.176794,47,273,586,5760
1644174936.888477,-0.008362,0.009277,-0.993469,0.281924,0.325496,-0.176794,48,271,580,5760
1644174936.93312,-0.007996,0.010925,-0.994324,0.251389,0.508702,-0.008855,54,268,582,5760
1644174937.028827,-0.009216,0.006775,-0.994263,0.129252,0.478168,-0.008855,51,279,580,5776
1644174937.077286,-0.009399,0.006897,-0.993469,0.297191,0.401832,0.036947,48,269,583,5712
1644174937.125581,-0.009949,0.009094,-0.99408,0.327725,0.386565,-0.161527,51,276,590,5824
1644174937.173975,-0.01123,0.009583,-0.993042,0.312458,0.462901,-0.024122,40,268,575,5760
1644174937.222377,-0.009644,0.007446,-0.989807,0.236122,0.447634,-0.024122,52,275,565,5760
1644174937.270731,-0.012573,0.008728,-0.991028,0.220855,0.478168,-0.115725,53,262,578,5760
1644174937.319146,-0.010925,0.007629,-0.992065,0.144519,0.523969,-0.100458,46,276,571,5776
1644174937.367519,-0.010193,0.009033,-0.991272,0.037649,0.432366,0.006412,43,276,571,5776
1644174937.415919,-0.009399,0.007751,-0.995117,0.205588,0.417099,-0.039389,53,279,573,5728
1644174937.464318,-0.010803,0.006775,-0.990295,0.190321,0.386565,-0.069924,53,286,576,5760
1644174937.512709,-0.009705,0.007141,-0.993347,0.190321,0.401832,-0.130992,59,282,579,5776
1644174937.5611,-0.010315,0.007202,-0.993469,0.022382,0.325496,-0.176794,49,275,577,5776
1644174937.609489,-0.010681,0.011841,-0.992126,0.266656,0.325496,-0.161527,55,281,569,5728
1644174937.657877,-0.008911,0.010681,-0.993347,0.129252,0.508702,0.113282,53,283,580,5776
1644174937.706281,-0.010376,0.010376,-0.991882,0.327725,0.340763,0.067481,53,276,583,5728
1644174937.754705,-0.010986,0.009216,-0.990295,0.342992,0.401832,-0.069924,46,274,583,5776
1644174937.803108,-0.011475,0.012573,-0.991211,0.098718,0.478168,-0.130992,53,276,585,5728
1644174937.851499,-0.011169,0.009155,-0.99115,0.220855,0.646107,-0.192061,52,275,586,5760
1644174937.900663,-0.009888,0.009888,-0.992188,0.205588,0.371298,-0.161527,49,275,575,5760
1644174937.950871,-0.009949,0.008972,-0.991272,0.404061,0.417099,-0.008855,45,282,586,5760
1644174938.001309,-0.010437,0.009216,-0.991943,0.236122,0.356031,-0.161527,57,273,575,5808
1644174938.056952,-0.009949,0.009094,-0.993591,0.220855,0.24916,0.006412,49,270,575,5760
1644174938.141776,-0.008545,0.008301,-0.991272,0.144519,0.417099,-0.130992,53,283,571,5760
1644174938.190214,-0.010742,0.006714,-0.99176,0.327725,0.356031,-0.054656,42,273,572,5808
1644174938.23855,-0.008972,0.008484,-0.993652,0.281924,0.356031,-0.268397,51,262,580,5728
1644174938.286953,-0.010376,0.008423,-0.992859,0.266656,0.325496,-0.192061,52,280,572,5808
1644174938.335347,-0.012085,0.008057,-0.991943,0.144519,0.417099,-0.054656,51,274,576,5712
1644174938.383744,-0.008301,0.007935,-0.994019,0.373527,0.386565,-0.039389,51,286,576,5696
1644174938.432178,-0.010986,0.008789,-0.993591,0.113985,0.401832,-0.039389,48,279,569,5712
1644174938.480524,-0.010742,0.008972,-0.991394,0.159786,0.294962,-0.085191,49,280,572,5824
1644174938.528893,-0.011414,0.007629,-0.992798,0.205588,0.340763,-0.039389,47,273,577,5696
1644174938.577311,-0.009094,0.00824,-0.991821,0.373527,0.340763,-0.054656,51,271,576,5776
1644174938.625706,-0.008118,0.008545,-0.99231,0.022382,0.233893,-0.039389,53,271,573,5728
1644174938.674099,-0.010437,0.007935,-0.989075,0.159786,0.417099,-0.054656,47,282,584,5760
1644174938.722499,-0.009338,0.005737,-0.991455,0.190321,0.371298,-0.161527,42,277,572,5760
1644174938.770869,-0.009521,0.008057,-0.993652,0.159786,0.432366,-0.085191,52,265,593,5760
1644174938.819302,-0.010254,0.013184,-0.991333,0.007115,0.24916,-0.039389,52,282,575,5808
1644174938.867688,-0.010925,0.010498,-0.994507,0.205588,0.325496,-0.054656,46,271,583,5808
1644174938.916071,-0.011414,0.007751,-0.988953,0.236122,0.401832,0.036947,53,276,578,5728
1644174938.964491,-0.010193,0.01001,-0.990906,0.175053,0.401832,-0.130992,53,266,576,5760
1644174939.069556,-0.008057,0.008301,-0.992188,0.205588,0.554504,-0.207328,52,275,586,5776
1644174939.109559,-0.011353,0.01062,-0.993469,0.175053,0.233893,-0.100458,46,283,585,5776
1644174939.157979,-0.008179,0.008057,-0.99115,0.159786,0.310229,-0.100458,53,276,576,5760
1644174939.20639,-0.010803,0.014709,-0.991211,0.312458,0.401832,-0.085191,47,277,568,5712
1644174939.254768,-0.008911,0.011047,-0.992615,0.236122,0.447634,-0.207328,59,285,575,5696
1644174939.303174,-0.01123,0.008728,-0.990784,0.159786,0.417099,-0.192061,52,277,579,5760
1644174939.351569,-0.010681,0.007996,-0.990295,0.159786,0.447634,-0.192061,55,276,569,5824
1644174939.399942,-0.009644,0.010193,-0.989197,0.266656,0.417099,0.021679,51,274,583,5728
1644174939.448355,-0.009705,0.009888,-0.993347,0.266656,0.493435,-0.039389,51,274,583,5712
1644174939.496745,-0.009949,0.007263,-0.992798,0.297191,0.447634,-0.024122,48,279,571,5776
1644174939.545161,-0.010132,0.010437,-0.992371,0.190321,0.340763,-0.024122,58,281,573,5760
1644174939.593523,-0.010925,0.006775,-0.992004,0.266656,0.356031,-0.085191,52,275,579,5776
1644174939.64191,-0.007568,0.008728,-0.993103,0.266656,0.432366,-0.069924,54,277,584,5824
1644174939.690282,-0.009155,0.010681,-0.991516,0.281924,0.493435,0.052214,52,263,575,5712
1644174939.738889,-0.009521,0.007385,-0.991577,0.190321,0.401832,-0.054656,48,266,580,5808
1644174939.788015,-0.010681,0.010437,-0.991394,0.175053,0.386565,-0.176794,47,275,579,5760
1644174939.838887,-0.011597,0.007324,-0.993225,0.129252,0.401832,-0.024122,48,279,569,5776
1644174939.889257,-0.011414,0.007568,-0.992676,0.388794,0.325496,0.021679,39,271,585,5760
1644174939.933793,-0.010193,0.007324,-0.994995,0.251389,0.417099,-0.14626,39,276,576,5808
1644174940.029075,-0.010864,0.011108,-0.991943,0.297191,0.356031,-0.054656,51,271,576,5728
1644174940.077511,-0.015137,0.00824,-0.991882,0.434595,0.356031,-0.161527,48,271,571,5712
1644174940.125864,-0.01062,0.00885,-0.994019,0.251389,0.356031,-0.192061,57,280,579,5760
1644174940.174198,-0.011169,0.009583,-0.991211,0.190321,0.218626,-0.024122,42,265,584,5776
1644174940.222621,-0.009827,0.009888,-0.992004,0.251389,0.417099,-0.14626,53,266,573,5728
1644174940.270971,-0.012085,0.00592,-0.992798,0.236122,0.310229,-0.130992,55,271,578,5824
1644174940.319368,-0.009644,0.01001,-0.994141,0.022382,0.279695,-0.130992,49,273,575,5808
1644174940.367782,-0.008667,0.009216,-0.991577,0.327725,0.493435,0.082748,46,269,573,5760
1644174940.416173,-0.012451,0.011414,-0.991699,0.129252,0.340763,-0.130992,46,281,583,5728
1644174940.464686,-0.010986,0.008362,-0.991516,0.098718,0.462901,-0.085191,59,275,577,5776
1644174940.512929,-0.008911,0.008301,-0.992981,0.281924,0.493435,-0.054656,43,279,573,5728
1644174940.561317,-0.012634,0.009399,-0.991272,0.175053,0.462901,-0.054656,38,280,570,5696
1644174940.609728,-0.008301,0.010315,-0.991821,0.266656,0.371298,0.082748,52,282,582,5760
1644174940.658137,-0.010742,0.009644,-0.991638,0.159786,0.569771,-0.115725,54,275,589,5712
1644174940.706519,-0.008606,0.008423,-0.991516,0.175053,0.478168,-0.100458,42,285,584,5728
1644174940.75488,-0.014404,0.010803,-0.989258,0.373527,0.386565,-0.054656,58,279,585,5776
1644174940.803283,-0.011292,0.010132,-0.993774,0.205588,0.462901,-0.161527,47,285,582,5776
1644174940.851731,-0.009888,0.009705,-0.990906,0.281924,0.386565,-0.207328,43,276,571,5712
1644174940.900454,-0.00946,0.009277,-0.992371,0.159786,0.432366,-0.192061,51,274,578,5808
1644174940.951477,-0.007996,0.011902,-0.991577,0.113985,0.310229,-0.176794,49,277,584,5760
1644174941.001144,-0.009033,0.009155,-0.990295,-0.069221,0.432366,-0.161527,43,269,571,5760
1644174941.045651,-0.010132,0.00946,-0.992493,0.175053,0.356031,-0.085191,51,266,571,5664
1644174941.142046,-0.010986,0.010132,-0.99231,0.251389,0.447634,-0.115725,51,288,580,5808
1644174941.19042,-0.011841,0.007263,-0.990967,0.312458,0.401832,0.036947,40,275,579,5760
1644174941.238808,-0.008484,0.01239,-0.989563,0.144519,0.417099,-0.25313,48,271,576,5760
1644174941.287204,-0.009949,0.007385,-0.99176,0.144519,0.340763,-0.237863,49,270,572,5776
1644174941.335584,-0.012268,0.012024,-0.993347,0.373527,0.432366,-0.039389,53,271,578,5760
1644174941.383994,-0.008728,0.010803,-0.991455,0.113985,0.401832,-0.085191,47,270,572,5808
1644174941.432397,-0.009338,0.01123,-0.992065,0.327725,0.310229,-0.069924,46,269,578,5712
1644174941.480774,-0.010864,0.008606,-0.993164,0.08345,0.493435,-0.085191,53,276,578,5696
1644174941.529161,-0.009216,0.009705,-0.993286,0.281924,0.264427,-0.115725,48,279,580,5808
1644174941.577558,-0.012207,0.009583,-0.991699,0.251389,0.340763,-0.039389,62,271,571,5808
1644174941.625944,-0.01001,0.010315,-0.989685,0.266656,0.386565,-0.069924,36,276,578,5808
1644174941.67435,-0.010681,0.008362,-0.992126,0.159786,0.432366,-0.130992,57,270,575,5760
1644174941.722741,-0.008484,0.009827,-0.989746,0.175053,0.417099,-0.161527,59,280,575,5824
1644174941.77108,-0.008606,0.01062,-0.99292,0.297191,0.401832,-0.085191,54,280,582,5712
1644174941.819502,-0.011536,0.009338,-0.99115,0.220855,0.417099,-0.161527,52,275,572,5808
1644174941.867945,-0.011536,0.008667,-0.991272,0.220855,0.356031,-0.161527,47,277,570,5712
1644174941.91632,-0.007385,0.00824,-0.9953,0.251389,0.325496,-0.039389,35,270,584,5760
1644174941.964988,-0.009949,0.009216,-0.990906,0.144519,0.294962,-0.085191,57,285,584,5760
1644174942.065427,-0.010254,0.00885,-0.990356,0.190321,0.371298,-0.100458,57,285,586,5776
1644174942.109849,-0.01123,0.009155,-0.993164,0.159786,0.371298,-0.14626,57,268,577,5776
1644174942.158281,-0.009583,0.008057,-0.994995,0.220855,0.386565,-0.008855,49,270,570,5712
1644174942.206627,-0.01062,0.007751,-0.994934,0.373527,0.447634,-0.283664,49,273,572,5728
1644174942.255047,-0.009644,0.013489,-0.991394,0.281924,0.417099,-0.14626,41,271,585,5776
1644174942.303413,-0.010559,0.009949,-0.989868,0.144519,0.340763,-0.085191,52,275,582,5760
1644174942.351804,-0.011658,0.011963,-0.994934,0.159786,0.294962,-0.069924,43,274,571,5696
1644174942.400195,-0.010437,0.007263,-0.990356,0.327725,0.356031,-0.085191,45,277,586,5808
1644174942.448591,-0.007935,0.009888,-0.990967,0.251389,0.462901,-0.008855,58,274,576,5712
1644174942.496954,-0.007446,0.009583,-0.990906,0.098718,0.279695,-0.085191,47,273,579,5808
1644174942.545369,-0.010071,0.008911,-0.992615,0.312458,0.63084,-0.14626,58,281,578,5664
1644174942.593766,-0.009338,0.01123,-0.991455,0.236122,0.432366,-0.069924,52,277,579,5776
1644174942.642228,-0.009521,0.007751,-0.993591,0.190321,0.310229,-0.130992,48,281,576,5760
1644174942.690548,-0.011963,0.008667,-0.990601,0.144519,0.432366,-0.237863,47,275,582,5776
1644174942.738924,-0.013245,0.009216,-0.989685,0.205588,0.478168,0.006412,47,275,577,5760
1644174942.787317,-0.008423,0.011963,-0.991455,0.190321,0.325496,-0.115725,51,279,576,5760
1644174942.835708,-0.009033,0.010498,-0.993286,0.175053,0.539237,-0.085191,48,264,576,5840
1644174942.885356,-0.011902,0.01123,-0.99115,0.236122,0.478168,-0.161527,48,274,576,5776
1644174942.935507,-0.009583,0.00946,-0.990234,0.129252,0.386565,-0.222595,51,271,580,5808
1644174942.985816,-0.011047,0.007812,-0.991516,0.327725,0.310229,0.067481,42,268,584,5760
1644174943.03031,-0.010376,0.011841,-0.994568,0.190321,0.356031,-0.069924,41,266,578,5776
1644174943.12605,-0.011719,0.007751,-0.992432,0.113985,0.386565,-0.069924,45,270,577,5760
1644174943.174469,-0.008545,0.007202,-0.992188,0.266656,0.478168,-0.100458,46,271,580,5760
1644174943.222839,-0.013062,0.007812,-0.990173,0.159786,0.371298,-0.14626,42,265,565,5696
1644174943.271214,-0.01178,0.008179,-0.991455,0.129252,0.294962,-0.039389,51,274,569,5776
1644174943.319604,-0.011475,0.008972,-0.99115,0.236122,0.24916,-0.14626,54,270,575,5696
1644174943.368001,-0.010193,0.008423,-0.993835,0.175053,0.401832,-0.207328,40,273,582,5776
1644174943.416403,-0.012207,0.007568,-0.991089,0.266656,0.478168,-0.222595,40,277,572,5760
1644174943.464795,-0.011597,0.008667,-0.992798,0.236122,0.264427,-0.161527,53,276,583,5760
1644174943.513189,-0.010498,0.007568,-0.993286,0.190321,0.371298,-0.25313,43,279,576,5728
1644174943.56158,-0.008667,0.008362,-0.991211,0.312458,0.447634,-0.176794,45,273,579,5808
1644174943.60997,-0.009094,0.008362,-0.993347,0.327725,0.478168,-0.14626,42,280,568,5728
1644174943.65836,-0.009949,0.009033,-0.991455,0.113985,0.325496,-0.14626,57,265,586,5696
1644174943.706754,-0.009705,0.008728,-0.991394,0.190321,0.356031,-0.085191,59,277,579,5776
1644174943.755217,-0.009888,0.008911,-0.992188,0.236122,0.417099,0.021679,60,276,569,5696
1644174943.803562,-0.010071,0.008301,-0.992432,0.266656,0.401832,-0.14626,54,290,584,5776
1644174943.851964,-0.010803,0.008057,-0.991455,0.113985,0.294962,-0.14626,59,275,582,5808
1644174943.900353,-0.009705,0.011047,-0.991638,0.236122,0.462901,-0.054656,45,268,584,5760
1644174943.948762,-0.009949,0.007202,-0.990051,0.175053,0.493435,-0.192061,55,271,571,5776
1644174943.997126,-0.010376,0.006897,-0.991211,0.190321,0.539237,-0.024122,54,268,577,5776
1644174944.093998,-0.00885,0.01062,-0.98999,0.205588,0.401832,-0.069924,47,270,577,5728
1644174944.142265,-0.011292,0.007385,-0.993103,0.175053,0.508702,-0.222595,47,280,572,5728
1644174944.190656,-0.010925,0.00946,-0.990784,0.220855,0.356031,-0.14626,53,269,578,5728
1644174944.239041,-0.013367,0.008728,-0.992859,0.251389,0.493435,-0.024122,47,273,577,5808
1644174944.287415,-0.012146,0.009399,-0.991211,0.205588,0.478168,-0.14626,46,266,580,5808
1644174944.335842,-0.012024,0.006042,-0.993835,0.373527,0.325496,-0.237863,59,277,577,5776
1644174944.384238,-0.012695,0.008179,-0.993225,0.144519,0.432366,-0.100458,40,268,563,5760
1644174944.432631,-0.011597,0.008301,-0.993347,0.159786,0.447634,-0.085191,49,270,575,5760
1644174944.481015,-0.012634,0.009033,-0.992615,0.312458,0.340763,0.052214,47,280,568,5760
1644174944.529396,-0.010132,0.012451,-0.992126,0.312458,0.356031,-0.069924,49,287,591,5760
1644174944.577792,-0.010315,0.010254,-0.991516,0.052916,0.371298,0.021679,46,271,571,5760
1644174944.626188,-0.01123,0.007202,-0.995422,0.159786,0.462901,-0.054656,52,270,572,5808
1644174944.674681,-0.011658,0.008606,-0.99176,0.297191,0.264427,-0.115725,57,275,570,5824
1644174944.722948,-0.012024,0.009583,-0.992065,0.251389,0.493435,-0.14626,54,273,577,5776
1644174944.771323,-0.010315,0.00769,-0.994263,0.236122,0.585038,-0.192061,54,277,579,5728
1644174944.819775,-0.01355,0.007385,-0.990906,0.327725,0.264427,-0.161527,41,274,578,5824
1644174944.86817,-0.007141,0.007141,-0.994507,0.175053,0.447634,0.006412,51,269,576,5776
1644174944.916645,-0.013672,0.009827,-0.991638,0.220855,0.386565,-0.069924,55,279,559,5696
1644174944.965054,-0.013672,0.00885,-0.992737,-0.008153,0.279695,-0.085191,60,283,578,5712
1644174945.014679,-0.013367,0.010254,-0.993347,0.266656,0.371298,-0.054656,55,264,587,5760
1644174945.080125,-0.012085,0.007324,-0.991699,0.312458,0.325496,-0.085191,42,270,584,5760
1644174945.158454,-0.010742,0.008667,-0.99231,0.205588,0.417099,-0.268397,53,274,583,5728
1644174945.206845,-0.010986,0.008362,-0.992554,0.220855,0.340763,-0.069924,47,273,577,5712
1644174945.255386,-0.011169,0.009766,-0.992615,0.373527,0.325496,-0.130992,53,283,576,5776
1644174945.303665,-0.013245,0.01001,-0.991394,0.022382,0.493435,-0.008855,48,279,571,5808
1644174945.352038,-0.01001,0.007751,-0.988831,0.175053,0.417099,-0.054656,55,271,585,5776
1644174945.400442,-0.01178,0.00592,-0.991394,0.129252,0.371298,0.12855,52,277,572,5728
1644174945.448822,-0.011902,0.00885,-0.995728,0.190321,0.478168,-0.115725,59,277,582,5760
1644174945.497225,-0.011169,0.008728,-0.994202,0.281924,0.356031,-0.176794,53,281,576,5728
1644174945.54561,-0.011841,0.009521,-0.991943,0.175053,0.279695,-0.039389,48,276,587,5696
1644174945.594017,-0.011597,0.009827,-0.990662,0.281924,0.371298,0.006412,52,282,582,5776
1644174945.642393,-0.012024,0.008301,-0.994812,0.281924,0.371298,-0.192061,48,286,576,5728
1644174945.690779,-0.012573,0.010864,-0.991516,0.08345,0.371298,0.036947,60,281,573,5776
1644174945.739156,-0.01001,0.00647,-0.990906,0.266656,0.539237,-0.100458,49,277,579,5760
1644174945.787542,-0.011658,0.009644,-0.994141,0.159786,0.432366,-0.008855,51,266,573,5728
1644174945.836005,-0.007874,0.00647,-0.993713,0.190321,0.294962,-0.069924,53,281,583,5728
1644174945.884378,-0.010925,0.00769,-0.993958,0.281924,0.340763,-0.130992,46,276,583,5760
1644174945.932788,-0.011169,0.005249,-0.992188,0.159786,0.386565,-0.25313,58,283,583,5712
1644174945.981316,-0.00769,0.007568,-0.992676,0.236122,0.478168,-0.115725,51,274,580,5760
1644174946.029585,-0.010193,0.009094,-0.991699,0.35826,0.325496,-0.054656,54,275,584,5712
1644174946.085225,-0.00885,0.007385,-0.99115,0.098718,0.417099,-0.054656,57,275,572,5840
1644174946.130937,-0.009216,0.013,-0.994629,0.129252,0.340763,-0.008855,49,273,573,5712
1644174946.179612,-0.010437,0.010193,-0.991699,0.068183,0.432366,0.006412,57,268,575,5808
1644174946.271495,-0.012329,0.011597,-0.990784,0.129252,0.233893,-0.161527,46,276,576,5696
1644174946.319842,-0.010559,0.008972,-0.991638,0.327725,0.310229,-0.25313,53,271,583,5776
1644174946.368248,-0.008484,0.008728,-0.992737,0.144519,0.279695,-0.161527,47,275,570,5696
1644174946.416639,-0.011292,0.012268,-0.990662,0.129252,0.462901,-0.069924,43,274,576,5728
1644174946.465068,-0.011658,0.010986,-0.990662,0.251389,0.279695,-0.130992,51,271,569,5728
1644174946.513448,-0.012268,0.007874,-0.990112,0.190321,0.294962,-0.069924,47,277,575,5760
1644174946.561816,-0.011169,0.007263,-0.991516,0.35826,0.447634,-0.14626,53,269,578,5760
1644174946.610211,-0.010315,0.008667,-0.992981,0.190321,0.371298,-0.115725,49,273,579,5760
1644174946.658603,-0.009094,0.00708,-0.990112,0.373527,0.356031,-0.039389,49,275,572,5696
1644174946.706999,-0.009277,0.00824,-0.991699,0.144519,0.386565,-0.130992,57,275,572,5760
1644174946.755384,-0.010071,0.008362,-0.994202,0.434595,0.218626,-0.130992,51,288,585,5728
1644174946.80377,-0.009949,0.010376,-0.991333,0.08345,0.585038,-0.14626,51,279,576,5760
1644174946.852252,-0.010376,0.006775,-0.994385,0.175053,0.447634,-0.054656,55,274,569,5760
1644174946.900589,-0.010437,0.010559,-0.993225,0.190321,0.340763,-0.085191,45,277,577,5760
1644174946.948986,-0.010132,0.011658,-0.99353,0.419328,0.325496,-0.024122,57,282,579,5760
1644174946.997379,-0.010437,0.009827,-0.99176,0.266656,0.478168,-0.115725,51,274,573,5760
1644174947.054284,-0.009033,0.01001,-0.993225,0.205588,0.523969,-0.039389,51,276,585,5696
1644174947.09692,-0.009583,0.01001,-0.994141,0.068183,0.233893,-0.222595,54,270,584,5808
1644174947.142541,-0.011963,0.010376,-0.992981,0.327725,0.371298,-0.024122,46,264,578,5808
1644174947.191138,-0.010864,0.007019,-0.99231,0.327725,0.386565,-0.314198,48,293,590,5664
1644174947.241687,-0.008606,0.005615,-0.989929,0.113985,0.264427,-0.054656,54,277,579,5808
1644174947.291796,-0.012329,0.009155,-0.992249,0.08345,0.386565,-0.100458,53,283,580,5728
1644174947.336962,-0.010437,0.007751,-0.992676,0.113985,0.554504,-0.054656,59,275,579,5760
1644174947.432878,-0.008728,0.008789,-0.992065,0.327725,0.417099,-0.237863,48,274,571,5760
1644174947.481236,-0.010986,0.008789,-0.989746,0.129252,0.447634,-0.176794,51,276,583,5808
1644174947.529635,-0.009033,0.011292,-0.992981,0.312458,0.340763,-0.039389,58,269,580,5808
1644174947.578023,-0.01239,0.009888,-0.992493,0.175053,0.508702,0.052214,59,285,584,5808
1644174947.626418,-0.010803,0.011047,-0.994019,0.266656,0.462901,-0.115725,49,285,575,5760
1644174947.674811,-0.012512,0.009766,-0.992615,0.190321,0.325496,-0.176794,48,274,569,5696
1644174947.723215,-0.009155,0.009827,-0.995239,0.35826,0.24916,-0.130992,54,275,579,5760
1644174947.771591,-0.010986,0.009399,-0.992615,0.205588,0.417099,-0.161527,51,266,580,5824
1644174947.819968,-0.009888,0.010071,-0.991943,0.220855,0.371298,0.052214,46,283,583,5760
1644174947.868417,-0.009888,0.009399,-0.993164,0.205588,0.432366,-0.069924,48,274,573,5776
1644174947.916829,-0.010132,0.010559,-0.991089,0.144519,0.340763,-0.069924,45,277,582,5824
1644174947.965295,-0.010681,0.01001,-0.992065,0.205588,0.417099,-0.222595,54,273,582,5728
1644174948.013589,-0.012939,0.007812,-0.991028,0.266656,0.432366,-0.054656,53,274,585,5760
1644174948.068746,-0.011169,0.00647,-0.993469,0.068183,0.523969,0.021679,55,266,590,5728
1644174948.110386,-0.011841,0.008667,-0.989807,0.175053,0.447634,-0.024122,51,283,580,5776
1644174948.158717,-0.009766,0.009338,-0.993896,0.159786,0.432366,0.082748,52,277,575,5776
1644174948.207114,-0.008118,0.010803,-0.992676,0.190321,0.340763,-0.115725,49,280,584,5728
1644174948.255472,-0.007812,0.009644,-0.993591,0.220855,0.417099,-0.115725,42,280,591,5728
1644174948.303893,-0.010437,0.009827,-0.99176,0.175053,0.218626,-0.024122,51,274,578,5808
1644174948.352492,-0.010254,0.008484,-0.992554,0.037649,0.417099,-0.069924,47,282,575,5760
1644174948.402908,-0.012085,0.008118,-0.991638,0.175053,0.401832,-0.039389,57,277,579,5760
1644174948.453304,-0.010437,0.009521,-0.992065,0.007115,0.523969,-0.176794,43,276,573,5760
1644174948.498442,-0.010742,0.010437,-0.993713,0.342992,0.325496,-0.176794,60,264,580,5760
1644174948.594249,-0.011108,0.008179,-0.994446,0.144519,0.508702,-0.085191,43,288,578,5776
1644174948.642614,-0.010498,0.011047,-0.991882,0.205588,0.401832,-0.024122,47,268,579,5808
1644174948.691016,-0.00946,0.00824,-0.993835,0.190321,0.371298,0.021679,41,276,580,5760
1644174948.739398,-0.013245,0.008972,-0.991455,0.297191,0.523969,-0.054656,54,280,570,5760
1644174948.787796,-0.009216,0.010254,-0.99176,0.297191,0.279695,-0.100458,47,277,572,5728
1644174948.836195,-0.009216,0.009033,-0.992981,0.281924,0.264427,-0.161527,54,277,572,5760
1644174948.884669,-0.012024,0.010315,-0.991699,0.190321,0.493435,-0.161527,47,277,575,5824
1644174948.933035,-0.009216,0.012024,-0.991516,0.08345,0.218626,0.021679,53,269,583,5760
1644174948.981408,-0.009216,0.008789,-0.990723,0.266656,0.356031,-0.14626,46,274,576,5824
1644174949.029807,-0.008728,0.01062,-0.989807,0.220855,0.371298,-0.207328,40,275,579,5808
1644174949.084172,-0.011597,0.00592,-0.994446,0.388794,0.447634,-0.024122,45,268,582,5728
1644174949.126587,-0.012634,0.010437,-0.991821,0.144519,0.432366,-0.085191,46,279,587,5760
1644174949.17492,-0.010925,0.012939,-0.990295,0.190321,0.554504,-0.192061,49,280,575,5760
1644174949.22332,-0.013733,0.011536,-0.99231,0.175053,0.356031,-0.130992,51,279,580,5824
1644174949.271789,-0.010132,0.009155,-0.995178,0.144519,0.447634,0.021679,52,275,593,5760
1644174949.320333,-0.012451,0.006836,-0.993286,0.297191,0.356031,-0.085191,53,271,576,5776
1644174949.370708,-0.011475,0.012634,-0.990356,0.144519,0.356031,-0.176794,49,270,579,5808
1644174949.420919,-0.005188,0.011963,-0.990051,0.220855,0.386565,-0.115725,48,281,583,5760
1644174949.465976,-0.009644,0.009216,-0.992493,0.205588,0.432366,-0.130992,40,273,579,5760
1644174949.562045,-0.011108,0.009094,-0.992004,0.236122,0.447634,-0.115725,42,275,575,5664
1644174949.610438,-0.007751,0.00946,-0.992798,0.46513,0.401832,0.036947,54,273,582,5808
1644174949.658833,-0.010193,0.009888,-0.991882,0.266656,0.447634,-0.039389,52,270,575,5696
1644174949.707219,-0.01062,0.009216,-0.992004,0.068183,0.371298,-0.039389,40,277,582,5808
1644174949.755596,-0.009949,0.011414,-0.989746,0.419328,0.417099,0.036947,41,283,578,5712
1644174949.805044,-0.009521,0.012085,-0.994385,0.220855,0.447634,-0.283664,45,268,584,5760
1644174949.852416,-0.010986,0.007751,-0.989197,0.205588,0.447634,-0.069924,55,281,580,5728
1644174949.900833,-0.008301,0.009705,-0.991638,0.266656,0.432366,-0.176794,52,280,589,5760
1644174949.949198,-0.011353,0.009705,-0.992493,0.205588,0.356031,-0.085191,57,270,582,5760
1644174949.997594,-0.013733,0.009399,-0.990601,0.220855,0.417099,-0.024122,45,280,577,5760
1644174950.063946,-0.009094,0.009338,-0.99176,0.175053,0.356031,-0.069924,53,266,585,5760
1644174950.094566,-0.009094,0.008972,-0.991028,0.327725,0.447634,-0.024122,49,275,577,5840
1644174950.14282,-0.012085,0.009399,-0.992432,0.266656,0.401832,-0.14626,49,277,582,5728
1644174950.19118,-0.010681,0.008301,-0.992798,0.266656,0.417099,-0.161527,43,286,583,5824
1644174950.239599,-0.012573,0.008789,-0.993774,0.312458,0.401832,-0.039389,43,286,578,5824
1644174950.287959,-0.01123,0.009338,-0.992737,0.205588,0.356031,-0.085191,42,268,572,5728
1644174950.336351,-0.009766,0.007812,-0.992126,0.419328,0.325496,-0.024122,46,271,585,5760
1644174950.384978,-0.011841,0.009583,-0.990356,0.144519,0.172824,-0.100458,48,283,578,5776
1644174950.433166,-0.009827,0.008728,-0.993042,0.205588,0.24916,-0.069924,43,274,583,5760
1644174950.483742,-0.009949,0.010376,-0.99292,0.342992,0.264427,0.036947,42,275,586,5824
1644174950.533805,-0.013245,0.006653,-0.991821,0.236122,0.310229,-0.222595,52,265,579,5776
1644174950.584056,-0.012512,0.009521,-0.991882,0.205588,0.447634,-0.176794,60,271,583,5760
1644174950.675417,-0.009155,0.010315,-0.995178,0.297191,0.417099,-0.085191,52,273,579,5712
1644174950.723477,-0.012817,0.008972,-0.991394,0.144519,0.401832,-0.100458,48,274,583,5808
1644174950.771861,-0.011536,0.011047,-0.991333,0.129252,0.401832,-0.161527,51,266,580,5776
1644174950.820248,-0.008667,0.010986,-0.992676,0.159786,0.386565,-0.207328,55,276,569,5776
1644174950.868652,-0.007507,0.011841,-0.990479,0.220855,0.417099,0.021679,47,275,575,5776
1644174950.917044,-0.010864,0.011353,-0.99292,0.220855,0.417099,-0.237863,47,273,577,5760
1644174950.965427,-0.009644,0.010315,-0.994507,0.297191,0.294962,-0.161527,51,276,583,5760
1644174951.013815,-0.012329,0.010376,-0.992126,0.266656,0.417099,-0.161527,45,277,575,5776
1644174951.070245,-0.009277,0.009277,-0.993469,0.113985,0.401832,-0.192061,58,271,583,5728
1644174951.110559,-0.009827,0.009399,-0.991943,0.098718,0.386565,-0.161527,55,274,587,5808
1644174951.158956,-0.009094,0.011047,-0.992981,0.144519,0.294962,-0.085191,49,270,577,5760
1644174951.207324,-0.011353,0.007874,-0.993774,0.281924,0.325496,-0.008855,58,274,571,5840
1644174951.255738,-0.007507,0.012451,-0.990112,0.113985,0.447634,-0.024122,46,281,590,5728
1644174951.304133,-0.009827,0.006104,-0.993774,0.251389,0.539237,-0.069924,49,273,582,5712
1644174951.352542,-0.009949,0.00708,-0.992493,0.159786,0.386565,-0.054656,45,275,572,5728
1644174951.40089,-0.007568,0.009705,-0.989929,0.312458,0.310229,-0.054656,51,274,583,5776
1644174951.449306,-0.013062,0.01062,-0.994324,0.251389,0.310229,-0.069924,48,274,571,5776
1644174951.497679,-0.009033,0.005188,-0.993835,0.190321,0.417099,-0.237863,58,271,576,5808
1644174951.546074,-0.011597,0.009399,-0.992554,0.205588,0.401832,-0.115725,30,275,582,5728
1644174951.594979,-0.009521,0.008606,-0.991272,0.281924,0.279695,-0.100458,48,266,585,5712
1644174951.645503,-0.006165,0.012512,-0.991699,0.327725,0.401832,-0.130992,49,273,591,5808
1644174951.69556,-0.013184,0.011536,-0.992859,0.220855,0.386565,0.021679,53,274,580,5776
1644174951.740604,-0.010315,0.008118,-0.994446,0.220855,0.523969,-0.024122,45,285,577,5760
1644174951.836458,-0.01178,0.00531,-0.991638,0.281924,0.401832,-0.130992,49,275,572,5696
1644174951.884901,-0.008362,0.009155,-0.991943,0.098718,0.356031,-0.069924,49,275,577,5808
1644174951.93327,-0.00885,0.009277,-0.992798,0.144519,0.432366,-0.130992,52,277,570,5712
1644174951.981623,-0.007751,0.013367,-0.992615,0.190321,0.478168,-0.085191,48,281,573,5728
1644174952.030026,-0.012146,0.008972,-0.993164,0.312458,0.371298,-0.161527,46,274,580,5760
1644174952.07883,-0.010437,0.011047,-0.990845,0.220855,0.417099,0.036947,51,271,583,5760
1644174952.126779,-0.009705,0.011292,-0.993835,0.129252,0.356031,-0.100458,54,273,577,5760
1644174952.175159,-0.011597,0.010071,-0.992798,0.266656,0.386565,-0.161527,39,276,576,5808
1644174952.223569,-0.011475,0.006287,-0.992615,0.419328,0.447634,0.006412,51,257,576,5712
1644174952.271958,-0.008545,0.009888,-0.991394,0.190321,0.310229,-0.039389,47,277,584,5712
1644174952.320323,-0.013611,0.00885,-0.992126,0.175053,0.310229,-0.161527,49,285,570,5696
1644174952.368734,-0.010681,0.009888,-0.990601,0.266656,0.554504,-0.161527,47,275,570,5808
1644174952.417099,-0.009155,0.009155,-0.99231,0.08345,0.478168,-0.176794,51,279,580,5808
1644174952.465505,-0.011475,0.008057,-0.993408,0.220855,0.478168,-0.100458,51,271,585,5664
1644174952.513906,-0.010254,0.01123,-0.990295,0.236122,0.356031,-0.115725,52,270,586,5696
1644174952.562309,-0.010864,0.006775,-0.992432,0.251389,0.340763,-0.25313,47,277,586,5760
1644174952.61068,-0.009888,0.009155,-0.992554,0.281924,0.264427,-0.130992,47,290,586,5776
1644174952.659078,-0.008606,0.011719,-0.992554,0.220855,0.356031,-0.008855,51,274,576,5776
1644174952.7077,-0.011108,0.011536,-0.989014,0.08345,0.417099,-0.085191,43,269,571,5760
1644174952.756616,-0.009399,0.011597,-0.991089,0.022382,0.493435,-0.207328,47,265,582,5712
1644174952.807772,-0.010742,0.008179,-0.989563,0.312458,0.478168,-0.024122,51,269,576,5760
1644174952.858287,-0.009521,0.008545,-0.991455,0.35826,0.447634,-0.054656,47,270,579,5760
1644174952.902751,-0.009827,0.00824,-0.993652,0.205588,0.264427,-0.14626,49,273,579,5728
1644174952.99784,-0.00885,0.009766,-0.992065,0.159786,0.523969,-0.069924,58,283,578,5808
1644174953.046216,-0.011597,0.010437,-0.994324,0.342992,0.447634,-0.069924,58,274,578,5712
1644174953.09481,-0.010498,0.008484,-0.993042,0.236122,0.356031,-0.069924,42,280,586,5808
1644174953.143028,-0.007935,0.006348,-0.992798,0.220855,0.447634,-0.069924,51,281,578,5776
1644174953.19138,-0.008484,0.010498,-0.990906,0.312458,0.401832,-0.115725,47,270,577,5760
1644174953.239781,-0.011902,0.006714,-0.993835,0.404061,0.386565,0.036947,43,274,580,5760
1644174953.288164,-0.01001,0.009827,-0.995178,0.266656,0.432366,0.113282,49,280,584,5776
1644174953.336561,-0.012268,0.00824,-0.994507,0.190321,0.508702,0.006412,48,274,573,5760
1644174953.384997,-0.011414,0.008972,-0.991821,0.388794,0.340763,-0.100458,55,279,578,5824
1644174953.433308,-0.011047,0.008972,-0.991028,0.297191,0.585038,-0.008855,51,281,578,5808
1644174953.481741,-0.010437,0.009338,-0.993958,0.098718,0.417099,-0.115725,54,285,582,5824
1644174953.530528,-0.007935,0.011047,-0.990845,0.205588,0.432366,-0.176794,51,264,576,5712
1644174953.581082,-0.011597,0.009033,-0.991333,0.388794,0.356031,-0.192061,47,277,572,5776
1644174953.631059,-0.009705,0.00946,-0.992737,0.205588,0.386565,-0.069924,52,273,575,5760
1644174953.676211,-0.006653,0.01001,-0.991333,0.251389,0.417099,-0.069924,45,280,568,5760
1644174953.772056,-0.009338,0.011108,-0.991028,0.159786,0.478168,-0.207328,54,280,575,5808
1644174953.820469,-0.010437,0.008606,-0.992004,0.297191,0.310229,-0.024122,48,276,585,5824
1644174953.868885,-0.010437,0.008362,-0.992004,0.281924,0.432366,-0.085191,48,276,578,5760
1644174953.917277,-0.009888,0.007629,-0.992615,0.297191,0.447634,-0.024122,52,265,586,5760
1644174953.965664,-0.011353,0.00946,-0.990479,0.175053,0.371298,-0.008855,40,282,582,5808
1644174954.014064,-0.008911,0.008606,-0.993408,0.297191,0.279695,-0.024122,49,275,586,5776
1644174954.067809,-0.012024,0.007263,-0.990356,0.220855,0.417099,-0.100458,53,279,573,5728
1644174954.110832,-0.010925,0.010071,-0.992249,0.312458,0.447634,-0.039389,51,286,580,5776
1644174954.159196,-0.012634,0.011353,-0.991333,0.251389,0.432366,-0.207328,45,280,579,5760
1644174954.207599,-0.008301,0.010864,-0.995972,0.236122,0.371298,-0.130992,51,281,573,5872
1644174954.255987,-0.011353,0.008606,-0.991089,0.327725,0.340763,-0.054656,43,264,580,5760
1644174954.30438,-0.010071,0.011047,-0.991882,0.220855,0.462901,-0.207328,55,281,571,5776
1644174954.352757,-0.012817,0.012085,-0.991699,0.205588,0.493435,-0.115725,48,276,576,5712
1644174954.401154,-0.009338,0.010559,-0.99231,0.236122,0.386565,-0.130992,55,283,587,5760
1644174954.449538,-0.009766,0.010071,-0.991638,0.175053,0.401832,0.021679,48,271,585,5760
1644174954.497932,-0.011353,0.010498,-0.992676,0.373527,0.386565,-0.069924,47,265,575,5808
1644174954.546324,-0.013977,0.006592,-0.991089,0.220855,0.310229,-0.100458,52,280,577,5760
1644174954.59473,-0.009094,0.009521,-0.994385,0.144519,0.356031,-0.222595,53,269,578,5696
1644174954.643122,-0.010315,0.009949,-0.991211,0.144519,0.371298,-0.069924,59,282,582,5760
1644174954.691547,-0.009583,0.007202,-0.992188,0.312458,0.356031,-0.176794,54,270,586,5728
1644174954.741928,-0.01001,0.006958,-0.99353,0.342992,0.401832,-0.268397,51,269,571,5728
1644174954.792297,-0.00885,0.010193,-0.993042,0.144519,0.386565,-0.024122,46,281,580,5696
1644174954.837265,-0.010132,0.01123,-0.991333,0.251389,0.447634,-0.161527,55,281,573,5728
1644174954.93349,-0.009827,0.009216,-0.992859,0.190321,0.310229,-0.085191,39,276,578,5712
1644174954.981876,-0.009094,0.009521,-0.992065,0.266656,0.371298,-0.085191,51,276,580,5760
1644174955.030269,-0.010193,0.009277,-0.992981,0.205588,0.447634,-0.115725,42,268,584,5760
1644174955.07875,-0.010803,0.009094,-0.990906,0.205588,0.569771,-0.085191,48,279,583,5760
1644174955.127038,-0.010864,0.009583,-0.989197,0.236122,0.386565,-0.039389,48,274,583,5712
1644174955.175406,-0.012817,0.010132,-0.991943,0.220855,0.432366,-0.024122,47,280,570,5728
1644174955.223806,-0.011658,0.007568,-0.993103,0.129252,0.417099,-0.039389,52,275,579,5728
1644174955.272216,-0.009033,0.010559,-0.990662,0.175053,0.310229,-0.115725,55,286,573,5696
1644174955.32058,-0.00769,0.01001,-0.990051,0.175053,0.218626,-0.25313,43,279,573,5776
1644174955.368979,-0.00946,0.008606,-0.991882,0.220855,0.401832,-0.161527,46,276,580,5728
1644174955.417354,-0.011475,0.012451,-0.990662,0.327725,0.401832,-0.14626,46,283,585,5728
1644174955.465731,-0.009155,0.009216,-0.994019,0.129252,0.417099,-0.085191,55,274,576,5760
1644174955.514136,-0.011108,0.008118,-0.992249,0.373527,0.447634,-0.008855,51,279,578,5760
1644174955.562562,-0.011536,0.011902,-0.992554,0.205588,0.417099,-0.222595,48,281,580,5760
1644174955.610928,-0.012329,0.010498,-0.991272,0.297191,0.539237,-0.069924,48,281,578,5776
1644174955.659325,-0.012512,0.008545,-0.991333,0.251389,0.462901,-0.069924,47,277,582,5760
1644174955.708099,-0.011719,0.010132,-0.991577,0.144519,0.478168,-0.115725,45,277,579,5776
1644174955.756087,-0.007568,0.01062,-0.993835,0.190321,0.493435,0.036947,49,268,575,5776
1644174955.804499,-0.012024,0.009888,-0.992676,0.35826,0.24916,-0.100458,48,262,571,5840
1644174955.853427,-0.011841,0.009705,-0.993164,0.052916,0.386565,-0.176794,45,275,577,5760
1644174955.904361,-0.010315,0.00824,-0.992126,0.297191,0.371298,0.082748,55,279,571,5760
1644174955.954788,-0.012878,0.010071,-0.993713,0.205588,0.462901,-0.085191,52,255,582,5760
1644174955.999188,-0.010315,0.007874,-0.99231,0.190321,0.508702,-0.054656,54,275,577,5840
1644174956.097803,-0.010498,0.008301,-0.993347,0.297191,0.417099,-0.008855,53,271,576,5728
1644174956.143267,-0.008179,0.009033,-0.993469,0.236122,0.356031,-0.039389,53,283,576,5760
1644174956.191612,-0.011719,0.007812,-0.989075,0.266656,0.294962,-0.069924,51,271,576,5888
1644174956.240007,-0.011169,0.008789,-0.993896,0.159786,0.325496,-0.130992,43,281,578,5696
1644174956.288394,-0.011841,0.008484,-0.993408,0.281924,0.401832,-0.100458,52,270,579,5760
1644174956.336787,-0.012085,0.008484,-0.990723,0.266656,0.462901,-0.100458,58,271,571,5712
1644174956.385221,-0.009705,0.006653,-0.993164,0.113985,0.462901,-0.039389,47,268,575,5760
1644174956.433574,-0.010742,0.009949,-0.994629,0.266656,0.325496,-0.024122,41,276,578,5728
1644174956.481967,-0.011475,0.008057,-0.98999,0.266656,0.386565,-0.176794,49,268,577,5760
1644174956.530357,-0.011536,0.007874,-0.990051,0.281924,0.310229,-0.161527,48,271,580,5696
1644174956.578746,-0.009705,0.010254,-0.99176,0.205588,0.386565,-0.161527,61,280,582,5776
1644174956.627138,-0.009399,0.007446,-0.992371,0.251389,0.371298,-0.100458,49,275,577,5776
1644174956.675501,-0.013306,0.008362,-0.991211,0.266656,0.447634,-0.008855,55,269,580,5760
1644174956.723925,-0.012878,0.009094,-0.995178,0.129252,0.386565,-0.176794,54,275,572,5808
1644174956.77233,-0.009033,0.010132,-0.990845,0.205588,0.447634,-0.130992,59,277,586,5808
1644174956.82069,-0.01001,0.008484,-0.992432,0.281924,0.554504,-0.115725,51,279,580,5776
1644174956.869115,-0.011169,0.007263,-0.991333,0.373527,0.340763,-0.115725,49,277,584,5760
1644174956.91808,-0.009094,0.008545,-0.992249,0.266656,0.386565,-0.100458,48,274,580,5776
1644174956.968122,-0.007935,0.010803,-0.992493,0.327725,0.417099,-0.054656,39,281,576,5808
1644174957.067214,-0.010864,0.010254,-0.991943,0.281924,0.508702,-0.039389,53,279,580,5760
1644174957.111046,-0.011047,0.008911,-0.992188,0.312458,0.493435,-0.130992,47,280,584,5760
1644174957.159471,-0.008606,0.005615,-0.9953,0.205588,0.340763,-0.008855,41,266,580,5824
1644174957.207827,-0.011536,0.009399,-0.992981,0.175053,0.417099,-0.161527,49,270,577,5776
1644174957.256201,-0.008728,0.008667,-0.991089,0.175053,0.432366,-0.237863,54,280,577,5696
1644174957.304734,-0.008118,0.010437,-0.990295,0.175053,0.279695,0.006412,41,286,576,5760
1644174957.352989,-0.011475,0.007812,-0.992188,0.129252,0.585038,-0.054656,59,275,568,5728
1644174957.40137,-0.009644,0.012085,-0.9953,0.236122,0.340763,-0.100458,48,279,578,5712
1644174957.449781,-0.011963,0.009216,-0.991333,0.251389,0.371298,-0.100458,52,273,568,5872
1644174957.498149,-0.008911,0.008118,-0.992798,0.205588,0.432366,-0.115725,51,269,571,5776
1644174957.546571,-0.00824,0.011597,-0.993164,0.251389,0.432366,-0.069924,49,277,570,5696
1644174957.595076,-0.012634,0.010742,-0.991333,0.388794,0.432366,-0.069924,39,274,569,5712
1644174957.643349,-0.012451,0.009888,-0.992737,0.175053,0.310229,-0.25313,58,259,578,5808
1644174957.69174,-0.010864,0.009644,-0.98999,0.129252,0.371298,-0.024122,55,271,583,5808
1644174957.740126,-0.007935,0.010376,-0.989258,0.220855,0.356031,-0.024122,49,277,586,5776
1644174957.788765,-0.010376,0.007751,-0.994507,0.190321,0.233893,-0.130992,51,276,580,5824
1644174957.836992,-0.013489,0.008728,-0.993896,0.281924,0.401832,-0.100458,51,269,583,5776
1644174957.886434,-0.009521,0.009338,-0.991821,0.281924,0.478168,-0.054656,54,268,579,5696
1644174957.937535,-0.009888,0.008972,-0.99176,0.08345,0.157557,-0.25313,52,275,584,5760
1644174957.987506,-0.008911,0.007324,-0.993958,0.159786,0.356031,0.006412,47,285,577,5808
1644174958.032186,-0.009521,0.011658,-0.99231,0.388794,0.417099,-0.283664,47,277,577,5776
1644174958.127249,-0.010986,0.009888,-0.992126,0.175053,0.340763,-0.176794,49,280,575,5712
1644174958.175637,-0.010925,0.009766,-0.992798,0.297191,0.340763,-0.054656,53,279,590,5776
1644174958.224041,-0.00885,0.009521,-0.992249,0.220855,0.371298,0.052214,55,276,580,5808
1644174958.272444,-0.008545,0.00647,-0.99408,0.327725,0.294962,-0.14626,55,286,578,5696
1644174958.320802,-0.011902,0.006653,-0.993652,0.129252,0.417099,0.052214,64,277,579,5760
1644174958.369195,-0.010071,0.009766,-0.99176,0.220855,0.401832,-0.054656,57,275,572,5760
1644174958.417595,-0.011902,0.008972,-0.993225,0.190321,0.340763,-0.008855,47,273,570,5728
1644174958.465988,-0.008728,0.010437,-0.994507,0.35826,0.417099,-0.176794,54,273,570,5776
1644174958.514393,-0.011475,0.009094,-0.992004,0.312458,0.279695,-0.100458,40,263,577,5760
1644174958.562766,-0.011169,0.009399,-0.992249,0.297191,0.310229,-0.176794,52,282,577,5696
1644174958.611167,-0.009644,0.00885,-0.990234,0.251389,0.417099,0.067481,51,281,578,5760
1644174958.659561,-0.00885,0.010742,-0.991943,0.205588,0.493435,-0.069924,48,276,585,5728
1644174958.70795,-0.010681,0.009094,-0.994141,0.236122,0.294962,-0.069924,46,276,583,5776
1644174958.756327,-0.010132,0.012268,-0.99115,0.35826,0.432366,0.006412,43,262,576,5728
1644174958.804785,-0.013245,0.009827,-0.993408,0.281924,0.478168,-0.039389,48,271,566,5760
1644174958.853173,-0.009521,0.009277,-0.992432,0.373527,0.401832,-0.008855,64,270,582,5776
1644174958.901544,-0.010071,0.00824,-0.99353,0.251389,0.462901,0.006412,55,283,576,5808
1644174958.94994,-0.015442,0.009705,-0.990906,0.251389,0.447634,-0.054656,53,276,573,5808
1644174958.998336,-0.011475,0.010559,-0.992859,0.159786,0.432366,-0.039389,58,271,580,5808
1644174959.073219,-0.011536,0.007812,-0.988953,0.220855,0.401832,-0.176794,46,276,587,5776
1644174959.10738,-0.01178,0.009949,-0.993347,0.281924,0.478168,-0.069924,45,282,579,5776
1644174959.191861,-0.010132,0.01062,-0.991638,0.159786,0.447634,-0.039389,51,274,580,5760
1644174959.240247,-0.009705,0.007507,-0.990051,0.327725,0.279695,-0.222595,52,275,579,5776
1644174959.288635,-0.00824,0.010498,-0.993591,0.327725,0.478168,-0.008855,52,275,579,5776
1644174959.337019,-0.008789,0.010986,-0.991577,0.190321,0.417099,-0.130992,42,263,582,5760
1644174959.385427,-0.011658,0.011169,-0.990784,0.312458,0.325496,-0.130992,59,277,575,5728
1644174959.433814,-0.01001,0.006531,-0.992859,0.251389,0.432366,-0.085191,54,265,582,5776
1644174959.482229,-0.011108,0.010742,-0.993042,0.297191,0.386565,-0.100458,49,275,577,5808
1644174959.530589,-0.009827,0.006775,-0.99176,0.236122,0.478168,-0.14626,59,275,579,5760
1644174959.578994,-0.009766,0.007568,-0.992493,0.159786,0.523969,0.082748,46,274,566,5776
1644174959.627373,-0.010437,0.009827,-0.992615,0.342992,0.478168,-0.024122,47,268,577,5776
1644174959.67577,-0.010315,0.011597,-0.99231,0.342992,0.523969,-0.085191,46,279,590,5696
1644174959.724155,-0.010132,0.009949,-0.993347,0.159786,0.24916,-0.085191,43,264,573,5760
1644174959.772572,-0.01239,0.008118,-0.991943,0.175053,0.310229,-0.25313,53,262,571,5760
1644174959.820986,-0.011292,0.008362,-0.993286,0.129252,0.294962,-0.054656,49,270,570,5808
1644174959.86938,-0.008606,0.010071,-0.991699,0.266656,0.386565,-0.14626,46,279,587,5808
1644174959.917766,-0.009705,0.009644,-0.993286,0.251389,0.417099,-0.054656,57,275,577,5824
1644174959.966158,-0.009399,0.009338,-0.993103,0.113985,0.188092,-0.008855,45,282,577,5696
1644174960.014791,-0.00946,0.009216,-0.995239,-0.02342,0.508702,-0.054656,46,279,580,5760
1644174960.080757,-0.011536,0.008606,-0.992188,0.175053,0.356031,0.006412,42,277,575,5760
1644174960.117348,-0.012817,0.007568,-0.990662,0.190321,0.340763,-0.161527,54,277,577,5696
1644174960.208094,-0.007935,0.010376,-0.989868,0.342992,0.585038,-0.085191,48,279,571,5808
1644174960.256426,-0.011902,0.007629,-0.993286,0.297191,0.478168,-0.069924,57,287,575,5776
1644174960.304855,-0.00885,0.008789,-0.99292,0.266656,0.417099,-0.176794,48,276,569,5712
1644174960.353244,-0.009827,0.009155,-0.992249,0.373527,0.417099,-0.222595,42,268,572,5760
1644174960.401618,-0.009644,0.009338,-0.992065,0.098718,0.462901,-0.115725,46,279,580,5776
1644174960.45002,-0.011169,0.010071,-0.99115,0.144519,0.294962,-0.024122,54,275,568,5760
1644174960.49843,-0.008728,0.008789,-0.990723,0.281924,0.478168,-0.008855,49,268,579,5776
1644174960.546798,-0.00824,0.012268,-0.990295,0.159786,0.356031,-0.054656,46,274,571,5776
1644174960.5952,-0.00885,0.011353,-0.991699,0.144519,0.371298,0.021679,49,275,570,5808
1644174960.643593,-0.006958,0.011169,-0.993835,0.144519,0.417099,-0.100458,48,279,578,5712
1644174960.691984,-0.011475,0.010071,-0.991394,0.266656,0.417099,-0.054656,42,277,584,5760
1644174960.740365,-0.008606,0.011108,-0.991882,0.342992,0.294962,-0.14626,45,277,582,5760
1644174960.788742,-0.011414,0.01123,-0.99176,0.113985,0.264427,-0.161527,59,287,575,5776
1644174960.837186,-0.006714,0.00824,-0.994019,0.327725,0.371298,-0.100458,62,266,576,5776
1644174960.885584,-0.009338,0.008911,-0.991943,0.159786,0.417099,-0.024122,46,286,573,5728
1644174960.933972,-0.010498,0.007751,-0.989258,0.205588,0.386565,0.113282,52,280,575,5760
1644174960.982391,-0.011108,0.012024,-0.99231,0.281924,0.401832,-0.192061,58,279,580,5712
1644174961.031083,-0.010925,0.008301,-0.989685,0.327725,0.554504,-0.207328,48,271,585,5728
1644174961.095702,-0.012268,0.009521,-0.993652,0.312458,0.554504,-0.115725,52,277,575,5728
1644174961.129836,-0.010437,0.009033,-0.990295,0.144519,0.417099,0.067481,51,271,585,5760
1644174961.179041,-0.008606,0.010681,-0.993042,0.373527,0.386565,-0.085191,46,281,576,5776
1644174961.229185,-0.010925,0.010193,-0.993286,0.220855,0.523969,-0.100458,47,273,577,5760
1644174961.321072,-0.011047,0.009277,-0.993347,0.236122,0.294962,-0.069924,59,275,582,5728
1644174961.369451,-0.007874,0.008789,-0.99115,0.266656,0.401832,-0.069924,46,274,569,5760
1644174961.417839,-0.006042,0.010132,-0.992249,0.236122,0.508702,-0.161527,55,276,576,5728
1644174961.466232,-0.011353,0.010742,-0.99353,0.175053,0.356031,-0.008855,55,276,576,5760
1644174961.514634,-0.01178,0.010254,-0.993835,0.266656,0.508702,-0.100458,52,273,575,5824
1644174961.563029,-0.007874,0.010803,-0.991882,0.205588,0.264427,-0.192061,53,276,573,5776
1644174961.611459,-0.009888,0.010437,-0.991333,0.205588,0.478168,-0.085191,54,273,577,5728
1644174961.659798,-0.010742,0.010803,-0.991394,0.205588,0.523969,0.006412,48,269,578,5728
1644174961.708167,-0.009277,0.011292,-0.991577,0.266656,0.401832,-0.100458,48,276,576,5728
1644174961.756591,-0.008362,0.009705,-0.989929,0.266656,0.279695,0.021679,47,275,572,5728
1644174961.805106,-0.008057,0.00946,-0.989441,0.190321,0.432366,-0.14626,51,279,571,5760
1644174961.85342,-0.010193,0.010925,-0.994385,0.129252,0.508702,0.006412,48,269,587,5760
1644174961.901802,-0.01239,0.007812,-0.993103,0.312458,0.417099,-0.039389,58,276,578,5776
1644174961.950186,-0.00885,0.009705,-0.993164,0.159786,0.523969,-0.054656,46,274,583,5728
1644174961.998605,-0.010498,0.010193,-0.993469,0.312458,0.462901,-0.161527,42,282,582,5776
1644174962.060597,-0.008911,0.009338,-0.99115,0.35826,0.340763,-0.192061,57,277,572,5696
1644174962.09742,-0.009277,0.007874,-0.991821,0.327725,0.325496,-0.207328,53,269,576,5728
1644174962.143706,-0.009705,0.010193,-0.99292,0.190321,0.279695,-0.14626,49,275,570,5760
1644174962.192087,-0.011414,0.009338,-0.991943,0.281924,0.462901,-0.008855,54,273,577,5776
1644174962.240686,-0.009644,0.007996,-0.994873,0.205588,0.218626,-0.069924,51,279,580,5760
1644174962.291623,-0.011414,0.01001,-0.991943,0.281924,0.447634,-0.039389,54,282,577,5760
1644174962.341329,-0.008362,0.008179,-0.992065,0.281924,0.478168,-0.054656,51,274,578,5760
1644174962.386597,-0.010803,0.00769,-0.993835,0.129252,0.508702,-0.130992,52,273,579,5808
1644174962.482464,-0.008667,0.012329,-0.99408,0.297191,0.340763,-0.100458,45,275,579,5760
1644174962.530839,-0.01001,0.010986,-0.992188,0.098718,0.325496,-0.024122,47,273,582,5840
1644174962.579214,-0.008728,0.010559,-0.991699,0.220855,0.371298,-0.130992,57,275,579,5728
1644174962.627617,-0.009033,0.010193,-0.99176,0.205588,0.447634,-0.069924,54,275,570,5760
1644174962.675999,-0.011597,0.00647,-0.990723,0.159786,0.432366,-0.14626,55,271,590,5808
1644174962.724411,-0.011902,0.011169,-0.991089,0.159786,0.432366,-0.054656,55,266,576,5728
1644174962.772797,-0.010193,0.007141,-0.991333,0.266656,0.294962,-0.115725,48,266,583,5728
1644174962.821189,-0.011414,0.011047,-0.990356,0.251389,0.417099,-0.14626,45,280,582,5728
1644174962.869613,-0.010559,0.010986,-0.992676,0.297191,0.417099,-0.039389,49,280,575,5760
1644174962.918012,-0.01123,0.011414,-0.992615,0.175053,0.325496,-0.161527,49,273,572,5760
1644174962.96637,-0.011902,0.010925,-0.993408,0.052916,0.310229,-0.161527,53,276,571,5760
1644174963.014808,-0.01062,0.011047,-0.994141,-0.038687,0.340763,-0.161527,55,283,580,5728
1644174963.066992,-0.011108,0.008972,-0.990051,0.175053,0.24916,-0.069924,51,281,590,5712
1644174963.11155,-0.008484,0.01123,-0.991943,0.129252,0.340763,0.036947,58,283,580,5760
1644174963.159927,-0.008789,0.008728,-0.991943,0.266656,0.432366,-0.161527,54,275,579,5776
1644174963.208316,-0.009888,0.007812,-0.990845,0.327725,0.401832,-0.115725,51,279,585,5760
1644174963.256667,-0.010376,0.010376,-0.991943,0.205588,0.417099,-0.115725,53,262,576,5808
1644174963.305124,-0.010925,0.008789,-0.993408,0.220855,0.386565,-0.192061,53,274,580,5760
1644174963.353482,-0.010925,0.010498,-0.989136,0.312458,0.325496,-0.100458,46,276,580,5696
1644174963.402014,-0.013428,0.008301,-0.992188,0.281924,0.356031,-0.115725,49,277,572,5776
1644174963.452401,-0.012756,0.006836,-0.994751,0.46513,0.585038,-0.008855,64,282,579,5760
1644174963.5029,-0.012756,0.009216,-0.990784,0.068183,0.493435,-0.130992,53,271,578,5696
1644174963.547864,-0.012085,0.007996,-0.992493,0.297191,0.203359,-0.085191,54,263,572,5760
1644174963.643826,-0.011169,0.009827,-0.994324,0.190321,0.554504,-0.207328,47,277,586,5760
1644174963.692381,-0.009033,0.010254,-0.990723,0.159786,0.386565,-0.14626,42,282,582,5776
1644174963.740604,-0.013,0.007202,-0.992126,0.297191,0.233893,0.006412,46,279,578,5840
1644174963.788998,-0.009644,0.009277,-0.993042,0.35826,0.386565,-0.14626,51,266,576,5712
1644174963.837383,-0.011597,0.008484,-0.992981,0.205588,0.417099,-0.039389,53,274,576,5760
1644174963.885818,-0.011719,0.011658,-0.993225,0.342992,0.386565,-0.085191,47,275,579,5824
1644174963.934227,-0.012634,0.008545,-0.994568,0.251389,0.386565,-0.115725,53,264,578,5728
1644174963.982625,-0.009033,0.009705,-0.990845,0.175053,0.462901,-0.115725,57,268,582,5728
1644174964.030969,-0.009216,0.009888,-0.991211,0.144519,0.462901,-0.085191,55,274,580,5728
1644174964.095669,-0.010254,0.008911,-0.992737,0.159786,0.294962,0.006412,48,276,580,5760
1644174964.127758,-0.012146,0.009094,-0.99292,0.129252,0.417099,-0.283664,41,276,578,5712
1644174964.176438,-0.009216,0.00824,-0.99231,0.35826,0.24916,-0.069924,46,269,580,5840
1644174964.225363,-0.009399,0.009216,-0.990112,0.190321,0.462901,-0.25313,57,260,568,5760
1644174964.276346,-0.009583,0.010437,-0.991577,0.144519,0.325496,-0.024122,48,276,578,5712
1644174964.326078,-0.008545,0.009277,-0.99231,0.327725,0.401832,-0.115725,57,280,589,5728
1644174964.41808,-0.009216,0.011658,-0.994324,0.251389,0.447634,-0.100458,52,265,575,5840
1644174964.466446,-0.007874,0.008972,-0.990906,0.175053,0.371298,-0.100458,45,265,572,5824
1644174964.514869,-0.010071,0.012329,-0.992126,0.251389,0.401832,-0.039389,49,265,579,5712
1644174964.563257,-0.009766,0.00824,-0.993774,0.281924,0.356031,-0.085191,47,290,575,5712
1644174964.61164,-0.008972,0.009033,-0.992065,0.327725,0.417099,-0.207328,46,279,576,5696
1644174964.659998,-0.009583,0.007874,-0.991638,0.297191,0.417099,-0.008855,43,286,578,5808
1644174964.708423,-0.010986,0.008972,-0.99292,0.205588,0.356031,-0.344733,48,274,578,5776
1644174964.756804,-0.011169,0.009766,-0.99353,0.236122,0.447634,-0.14626,51,274,576,5840
1644174964.805202,-0.009888,0.009521,-0.991699,0.205588,0.508702,-0.100458,58,266,576,5728
1644174964.853606,-0.006897,0.00946,-0.994446,0.312458,0.325496,-0.008855,54,270,584,5760
1644174964.902037,-0.01001,0.012146,-0.992249,0.144519,0.371298,-0.130992,47,263,579,5808
1644174964.950432,-0.010193,0.00946,-0.991394,0.266656,0.432366,-0.14626,54,275,582,5696
1644174964.998813,-0.010437,0.010986,-0.991211,0.312458,0.356031,-0.008855,51,279,573,5696
1644174965.059892,-0.012695,0.012939,-0.989075,0.190321,0.294962,-0.100458,52,277,589,5776
1644174965.098005,-0.008789,0.009766,-0.992126,0.068183,0.478168,-0.024122,59,280,584,5760
1644174965.143939,-0.011963,0.008789,-0.991028,0.312458,0.493435,-0.054656,53,279,580,5808
1644174965.192353,-0.010437,0.009766,-0.991333,0.113985,0.462901,-0.085191,42,268,586,5776
1644174965.240722,-0.010986,0.009155,-0.990723,0.205588,0.294962,-0.100458,53,271,587,5712
1644174965.28912,-0.011719,0.010681,-0.992615,0.175053,0.386565,-0.192061,48,257,585,5776
1644174965.337778,-0.008423,0.006714,-0.992371,0.251389,0.279695,-0.054656,59,265,579,5728
1644174965.388387,-0.009094,0.009827,-0.990845,0.297191,0.386565,-0.115725,54,273,577,5776
1644174965.43841,-0.010376,0.008606,-0.993042,0.129252,0.462901,-0.115725,43,269,578,5872
1644174965.483468,-0.008545,0.009888,-0.991638,0.159786,0.523969,-0.024122,55,274,580,5664
1644174965.579488,-0.010315,0.007385,-0.991882,0.251389,0.310229,-0.25313,46,266,583,5760
1644174965.62784,-0.009766,0.007263,-0.994629,0.327725,0.386565,-0.130992,48,279,576,5712
1644174965.676224,-0.007935,0.007996,-0.991333,0.144519,0.493435,-0.008855,49,273,575,5760
1644174965.724853,-0.007996,0.010986,-0.99176,0.281924,0.447634,-0.25313,48,274,576,5840
1644174965.773036,-0.01239,0.005676,-0.991699,0.297191,0.508702,-0.085191,48,269,576,5776
1644174965.821444,-0.010925,0.006958,-0.992493,0.281924,0.386565,-0.25313,48,276,564,5776
1644174965.869857,-0.009583,0.01001,-0.99231,0.281924,0.340763,-0.161527,48,271,580,5776
1644174965.918242,-0.00946,0.012329,-0.99353,0.266656,0.325496,-0.008855,55,269,571,5776
1644174965.966651,-0.010864,0.008606,-0.991638,0.129252,0.447634,-0.268397,45,275,579,5696
1644174966.015148,-0.011719,0.008057,-0.990234,0.129252,0.386565,-0.130992,49,280,570,5760
1644174966.067348,-0.008423,0.010803,-0.991516,0.068183,0.356031,0.036947,49,280,584,5808
1644174966.111777,-0.013977,0.008179,-0.990234,0.236122,0.417099,-0.222595,57,275,575,5808
1644174966.160154,-0.012085,0.010315,-0.991577,0.175053,0.523969,-0.115725,51,281,578,5760
1644174966.208548,-0.011047,0.006836,-0.991943,0.327725,0.356031,-0.14626,51,269,583,5760
1644174966.256915,-0.010925,0.011414,-0.995422,0.175053,0.401832,-0.100458,58,279,583,5760
1644174966.305324,-0.011475,0.010986,-0.990356,0.35826,0.447634,-0.085191,58,274,590,5776
1644174966.353717,-0.010803,0.008545,-0.993347,0.220855,0.325496,-0.115725,41,274,573,5808
1644174966.402214,-0.010986,0.009094,-0.993713,0.236122,0.462901,-0.115725,35,270,579,5712
1644174966.450639,-0.010071,0.009583,-0.992371,0.068183,0.447634,-0.024122,48,276,576,5728
1644174966.501127,-0.008911,0.010437,-0.992859,0.144519,0.447634,-0.176794,53,276,580,5840
1644174966.551415,-0.009399,0.01123,-0.992615,0.175053,0.493435,0.036947,64,275,572,5760
1644174966.596405,-0.01123,0.009521,-0.992126,0.327725,0.294962,-0.069924,54,277,575,5808
1644174966.69247,-0.011169,0.009277,-0.991882,0.312458,0.462901,-0.115725,60,281,576,5696
1644174966.740856,-0.010803,0.007629,-0.99231,-0.008153,0.310229,-0.069924,39,276,580,5808
1644174966.789237,-0.009766,0.012085,-0.992371,0.159786,0.401832,-0.054656,51,264,590,5760
1644174966.837671,-0.009766,0.009094,-0.991577,0.281924,0.356031,0.052214,52,285,577,5760
1644174966.886059,-0.010925,0.007263,-0.99469,0.281924,0.523969,-0.130992,46,276,571,5776
1644174966.934471,-0.009644,0.010376,-0.992004,0.419328,0.340763,-0.069924,55,276,569,5664
1644174966.982867,-0.010986,0.008728,-0.992676,0.175053,0.417099,-0.008855,59,273,577,5696
1644174967.031237,-0.010193,0.010498,-0.991516,0.236122,0.386565,-0.176794,48,269,583,5664
1644174967.088128,-0.011169,0.008911,-0.993835,0.251389,0.371298,-0.039389,60,276,585,5808
1644174967.127981,-0.012573,0.008362,-0.991089,0.266656,0.340763,0.036947,55,274,571,5728
1644174967.176334,-0.008423,0.011963,-0.98877,0.236122,0.569771,-0.069924,47,273,582,5824
1644174967.224769,-0.012939,0.011292,-0.990417,0.220855,0.569771,-0.130992,48,264,583,5808
1644174967.273163,-0.010559,0.010132,-0.992371,0.46513,0.371298,-0.14626,45,273,575,5712
1644174967.321604,-0.00824,0.008728,-0.991394,0.144519,0.432366,-0.085191,48,274,587,5840
