epoch,acc_x,acc_y,acc_z,rot_x,rot_y,rot_z,mag_x,mag_y,mag_z,temp
1644189000.002432,-0.01178,0.009827,-0.989929,0.220855,0.432366,0.006412,54,280,579,6224
1644189000.062568,-0.006653,0.008362,-0.994873,0.190321,0.371298,-0.14626,53,274,583,6224
1644189000.099312,-0.010803,0.009338,-0.992676,0.175053,0.325496,-0.14626,45,275,591,6256
1644189000.147593,-0.00824,0.006592,-0.990784,0.190321,0.447634,-0.130992,58,276,576,6224
1644189000.195965,-0.011963,0.008545,-0.990479,0.037649,0.24916,-0.192061,38,265,582,6224
1644189000.24436,-0.006042,0.011658,-0.994263,0.190321,0.417099,-0.100458,49,282,577,6240
1644189000.292763,-0.008301,0.010742,-0.994446,0.159786,0.310229,-0.115725,59,268,575,6224
1644189000.341134,-0.009949,0.007935,-0.991821,0.373527,0.340763,-0.008855,46,266,578,6304
1644189000.38952,-0.009888,0.008423,-0.993042,0.266656,0.386565,0.021679,42,277,575,6256
1644189000.437922,-0.007507,0.009338,-0.990784,0.281924,0.371298,-0.024122,45,277,589,6224
1644189000.486315,-0.006592,0.011414,-0.990417,0.236122,0.447634,-0.115725,48,269,580,6224
1644189000.534718,-0.010376,0.00946,-0.991516,0.312458,0.371298,-0.161527,48,279,585,6256
1644189000.583117,-0.008484,0.010986,-0.991333,0.159786,0.279695,-0.222595,52,282,593,6288
1644189000.63151,-0.008301,0.008789,-0.994446,0.35826,0.462901,0.021679,49,277,591,6224
1644189000.680223,-0.008423,0.006592,-0.994263,0.098718,0.325496,-0.085191,55,281,583,6240
1644189000.730137,-0.008179,0.008911,-0.990356,0.205588,0.417099,-0.008855,52,280,572,6240
1644189000.780427,-0.009949,0.01062,-0.989685,0.281924,0.417099,-0.008855,52,275,575,6256
1644189000.825434,-0.007202,0.007507,-0.993469,0.312458,0.371298,0.006412,53,283,585,6240
1644189000.92188,-0.007996,0.010864,-0.992188,0.205588,0.401832,0.067481,47,280,582,6256
1644189000.97028,-0.009644,0.009888,-0.991882,0.236122,0.417099,-0.161527,42,277,579,6224
1644189001.018668,-0.003845,0.009277,-0.99231,0.251389,0.356031,-0.176794,53,274,580,6160
1644189001.069899,-0.008972,0.009644,-0.991333,0.297191,0.462901,-0.008855,51,271,580,6240
1644189001.115446,-0.009888,0.009827,-0.991211,0.205588,0.417099,-0.054656,47,280,577,6192
1644189001.163869,-0.009827,0.009399,-0.993408,0.297191,0.340763,0.067481,46,281,578,6304
1644189001.212265,-0.010559,0.00885,-0.992554,0.220855,0.417099,-0.054656,51,274,578,6128
1644189001.26065,-0.009155,0.010864,-0.993042,0.190321,0.539237,-0.130992,49,270,577,6240
1644189001.30901,-0.007568,0.008606,-0.993591,0.297191,0.462901,0.036947,54,273,579,6224
1644189001.357482,-0.009033,0.010681,-0.991394,0.342992,0.447634,-0.008855,49,282,582,6240
1644189001.405829,-0.007446,0.011536,-0.991699,0.113985,0.478168,-0.100458,55,274,573,6176
1644189001.454203,-0.009033,0.010254,-0.993286,0.297191,0.478168,-0.14626,49,270,577,6128
1644189001.502622,-0.01001,0.008423,-0.989746,0.175053,0.325496,-0.069924,55,271,585,6160
1644189001.550996,-0.007263,0.007935,-0.990295,0.190321,0.294962,-0.14626,41,281,576,6192
1644189001.599397,-0.010925,0.01001,-0.991272,0.190321,0.310229,-0.039389,48,274,587,6240
1644189001.647792,-0.010986,0.005554,-0.993774,0.052916,0.401832,-0.039389,52,277,586,6224
1644189001.696185,-0.007812,0.008301,-0.991943,0.205588,0.401832,-0.085191,42,277,586,6224
1644189001.74468,-0.011047,0.01001,-0.991516,0.037649,0.401832,-0.085191,49,280,582,6224
1644189001.793224,-0.007446,0.008057,-0.99231,0.159786,0.340763,-0.085191,55,274,585,6192
1644189001.84359,-0.008362,0.008606,-0.993835,0.297191,0.356031,-0.192061,58,274,578,6224
1644189001.893868,-0.005615,0.009827,-0.994324,0.205588,0.493435,-0.100458,45,277,586,6240
1644189001.938752,-0.007874,0.009583,-0.993591,0.205588,0.493435,-0.100458,48,279,590,6256
1644189002.034961,-0.011414,0.006592,-0.99115,0.159786,0.569771,-0.161527,48,274,587,6224
1644189002.083394,-0.005737,0.008789,-0.993286,0.388794,0.386565,-0.115725,49,285,593,6224
1644189002.131665,-0.006714,0.006226,-0.99292,0.190321,0.508702,-0.039389,49,277,591,6192
1644189002.180063,-0.009216,0.006897,-0.991577,0.098718,0.447634,-0.085191,52,285,577,6240
1644189002.228455,-0.008667,0.009949,-0.989563,0.144519,0.356031,-0.298931,48,279,580,6240
1644189002.276833,-0.005493,0.005859,-0.992981,0.205588,0.401832,-0.100458,51,259,583,6240
1644189002.325217,-0.00824,0.009705,-0.993103,0.251389,0.386565,-0.024122,47,285,589,6224
1644189002.373636,-0.009094,0.007812,-0.992126,0.144519,0.447634,-0.207328,49,273,579,6240
1644189002.422044,-0.012085,0.007019,-0.993896,0.052916,0.447634,0.052214,43,283,580,6160
1644189002.470434,-0.00946,0.009399,-0.990173,0.205588,0.417099,0.098015,43,283,585,6224
1644189002.51883,-0.009155,0.010803,-0.989685,0.388794,0.340763,-0.14626,47,280,584,6224
1644189002.567217,-0.009827,0.010254,-0.991272,0.175053,0.432366,-0.14626,48,279,585,6240
1644189002.615613,-0.008301,0.00769,-0.99054,0.251389,0.340763,-0.069924,59,277,582,6224
1644189002.664019,-0.010742,0.010193,-0.992126,0.144519,0.264427,-0.115725,47,275,577,6192
1644189002.71241,-0.009033,0.008118,-0.992981,0.190321,0.310229,-0.115725,48,281,585,6240
1644189002.76077,-0.009644,0.007568,-0.993774,0.220855,0.233893,-0.268397,48,276,594,6240
1644189002.809194,-0.007446,0.009399,-0.993042,0.205588,0.340763,-0.054656,49,268,589,6128
1644189002.857605,-0.007507,0.010254,-0.988831,0.175053,0.417099,-0.192061,46,271,585,6160
1644189002.906004,-0.006775,0.012817,-0.994385,0.220855,0.371298,-0.192061,48,276,590,6240
1644189002.956744,-0.01001,0.010925,-0.990723,0.342992,0.356031,-0.100458,42,280,586,6224
1644189003.006126,-0.00647,0.009949,-0.992432,0.220855,0.233893,0.006412,55,274,592,6224
1644189003.076992,-0.009094,0.007812,-0.991943,0.08345,0.493435,-0.085191,45,282,591,6240
1644189003.104944,-0.010376,0.010132,-0.99231,0.35826,0.371298,-0.100458,41,274,590,6176
1644189003.196305,-0.01001,0.011597,-0.992432,0.236122,0.386565,-0.024122,49,268,586,6256
1644189003.244876,-0.007751,0.010193,-0.993408,0.175053,0.340763,0.036947,52,271,580,6256
1644189003.293098,-0.00824,0.010132,-0.992798,0.190321,0.417099,0.052214,46,276,583,6192
1644189003.341493,-0.010864,0.00946,-0.992981,0.297191,0.569771,-0.222595,55,281,580,6128
1644189003.389889,-0.00885,0.009827,-0.992981,0.404061,0.462901,-0.14626,57,263,579,6240
1644189003.438269,-0.007385,0.010559,-0.99176,0.190321,0.462901,-0.039389,47,268,572,6224
1644189003.486656,-0.009216,0.010986,-0.991394,0.144519,0.401832,-0.100458,51,271,578,6224
1644189003.535116,-0.008362,0.011047,-0.992126,0.35826,0.325496,-0.100458,42,275,593,6240
1644189003.583476,-0.008972,0.008606,-0.991638,0.251389,0.447634,-0.069924,47,263,586,6240
1644189003.631861,-0.009338,0.007996,-0.994629,0.205588,0.340763,0.006412,55,279,580,6240
1644189003.680263,-0.005188,0.010986,-0.993469,0.205588,0.417099,-0.085191,42,273,589,6240
1644189003.728655,-0.009644,0.010925,-0.994324,0.068183,0.447634,-0.069924,49,277,584,6224
1644189003.777042,-0.008972,0.009949,-0.991455,0.236122,0.569771,-0.115725,57,280,575,6224
1644189003.825439,-0.008118,0.006409,-0.993347,0.266656,0.310229,0.036947,48,274,590,6256
1644189003.873877,-0.010681,0.010193,-0.992249,0.297191,0.447634,-0.176794,45,277,582,6224
1644189003.922278,-0.011108,0.01062,-0.992859,0.281924,0.523969,-0.039389,51,279,590,6224
1644189003.970653,-0.00824,0.010803,-0.99408,0.220855,0.417099,-0.024122,55,279,594,6256
1644189004.019243,-0.008179,0.009949,-0.993347,0.312458,0.462901,-0.161527,51,281,578,6176
1644189004.084553,-0.011108,0.008789,-0.992798,0.236122,0.508702,-0.024122,46,274,585,6256
1644189004.164205,-0.008179,0.010132,-0.990051,0.190321,0.539237,-0.115725,52,268,591,6256
1644189004.212592,-0.008667,0.009094,-0.993774,0.236122,0.294962,-0.115725,49,275,582,6224
1644189004.260947,-0.008972,0.009338,-0.992554,0.037649,0.294962,-0.100458,51,266,580,6224
1644189004.309353,-0.009155,0.007568,-0.99115,0.35826,0.493435,-0.085191,60,276,583,6224
1644189004.357764,-0.00885,0.01001,-0.993896,0.08345,0.310229,-0.130992,54,265,591,6192
1644189004.406141,-0.009399,0.009827,-0.991577,0.251389,0.417099,0.036947,58,266,583,6256
1644189004.45453,-0.00824,0.012329,-0.991516,0.281924,0.478168,-0.085191,54,282,579,6224
1644189004.502923,-0.009033,0.006775,-0.992065,0.236122,0.371298,-0.237863,43,281,583,6224
1644189004.551336,-0.01178,0.011963,-0.993347,0.129252,0.371298,-0.024122,48,276,578,6224
1644189004.599726,-0.00708,0.009583,-0.989929,0.190321,0.325496,-0.039389,42,273,577,6176
1644189004.648122,-0.008484,0.009949,-0.992676,0.144519,0.386565,-0.100458,46,274,576,6192
1644189004.696507,-0.007751,0.010742,-0.991882,0.190321,0.401832,-0.176794,53,279,585,6304
1644189004.744889,-0.009399,0.009521,-0.992126,0.297191,0.401832,-0.314198,48,279,578,6256
1644189004.793297,-0.009216,0.008484,-0.992554,0.236122,0.371298,-0.130992,48,279,583,6240
1644189004.841722,-0.009521,0.009827,-0.993958,0.205588,0.417099,-0.024122,48,286,580,6224
1644189004.890115,-0.007996,0.010193,-0.991333,0.129252,0.493435,-0.192061,47,270,584,6224
1644189004.938517,-0.009521,0.009583,-0.994263,0.052916,0.447634,-0.100458,64,285,579,6240
1644189004.986918,-0.010071,0.010254,-0.99292,0.205588,0.417099,0.052214,45,282,579,6224
1644189005.035341,-0.006958,0.009277,-0.989441,0.266656,0.356031,-0.161527,53,276,583,6256
1644189005.085965,-0.007935,0.007874,-0.991394,0.266656,0.325496,-0.085191,54,285,584,6192
1644189005.135039,-0.009827,0.01123,-0.99176,0.144519,0.356031,-0.008855,55,276,580,6224
1644189005.184004,-0.008484,0.007935,-0.992615,0.205588,0.432366,-0.100458,51,269,576,6240
1644189005.229069,-0.006042,0.008789,-0.991516,0.251389,0.371298,-0.130992,43,274,580,6224
1644189005.325595,-0.01001,0.007446,-0.990112,0.251389,0.417099,-0.161527,43,283,585,6160
1644189005.374009,-0.010742,0.011963,-0.991516,0.251389,0.508702,-0.054656,46,271,585,6256
1644189005.422432,-0.00885,0.007324,-0.993652,0.251389,0.462901,-0.069924,54,275,579,6224
1644189005.470801,-0.011414,0.00946,-0.993164,0.251389,0.24916,-0.100458,45,270,577,6176
1644189005.519171,-0.008911,0.009399,-0.993774,0.327725,0.371298,0.006412,58,269,578,6240
1644189005.56758,-0.01062,0.009644,-0.990723,0.113985,0.401832,-0.085191,52,270,589,6224
1644189005.615972,-0.007751,0.010437,-0.990967,0.220855,0.356031,-0.024122,53,281,583,6256
1644189005.664386,-0.00946,0.01001,-0.990845,0.175053,0.172824,-0.069924,48,279,583,6240
1644189005.712743,-0.010254,0.007996,-0.99292,0.144519,0.294962,-0.024122,51,279,583,6224
1644189005.76117,-0.010864,0.009766,-0.992676,0.342992,0.462901,-0.085191,55,276,573,6240
1644189005.809548,-0.005371,0.007751,-0.989929,0.175053,0.386565,0.006412,48,279,576,6224
1644189005.857979,-0.009644,0.010376,-0.992859,0.144519,0.493435,-0.268397,60,269,587,6224
1644189005.906379,-0.009705,0.010315,-0.994873,0.373527,0.386565,-0.085191,53,276,583,6224
1644189005.954774,-0.008301,0.012939,-0.994751,0.220855,0.417099,-0.100458,52,277,589,6224
1644189006.003138,-0.007385,0.010925,-0.991333,0.281924,0.432366,-0.115725,42,280,577,6240
1644189006.06654,-0.011841,0.007996,-0.991394,0.190321,0.401832,-0.085191,51,279,585,6160
1644189006.101728,-0.011963,0.010437,-0.991638,0.144519,0.264427,-0.25313,40,282,584,6224
1644189006.148301,-0.008484,0.009583,-0.992676,0.281924,0.539237,-0.054656,58,279,590,6240
1644189006.196688,-0.012146,0.007507,-0.993896,0.175053,0.401832,-0.14626,48,279,580,6256
1644189006.245722,-0.010132,0.008911,-0.992188,0.266656,0.356031,-0.024122,40,282,591,6176
1644189006.296447,-0.009583,0.008423,-0.991211,0.312458,0.356031,-0.130992,42,270,575,6304
1644189006.346834,-0.010437,0.009094,-0.994873,0.312458,0.203359,-0.115725,48,276,594,6256
1644189006.391488,-0.00769,0.011963,-0.991516,0.266656,0.401832,-0.115725,55,271,583,6288
1644189006.487036,-0.009583,0.011414,-0.992859,0.266656,0.447634,-0.130992,48,271,583,6176
1644189006.535429,-0.011108,0.007568,-0.991333,0.35826,0.356031,-0.039389,48,271,580,6304
1644189006.583849,-0.007446,0.009766,-0.990723,0.297191,0.401832,-0.069924,43,276,592,6240
1644189006.632393,-0.012085,0.008057,-0.989868,0.281924,0.417099,-0.161527,45,277,584,6256
1644189006.680619,-0.007507,0.011719,-0.991516,0.068183,0.554504,-0.008855,53,269,585,6304
1644189006.728999,-0.008057,0.007324,-0.989624,0.281924,0.340763,-0.054656,46,281,585,6224
1644189006.777401,-0.003723,0.010559,-0.991211,0.312458,0.356031,-0.054656,53,271,580,6240
1644189006.825798,-0.01123,0.011353,-0.98938,0.266656,0.356031,-0.069924,47,275,577,6240
1644189006.874259,-0.011108,0.00946,-0.991821,0.129252,0.386565,0.006412,45,280,593,6256
1644189006.922639,-0.008423,0.008545,-0.992493,0.190321,0.325496,-0.008855,49,277,586,6160
1644189006.971027,-0.007019,0.007568,-0.993042,0.190321,0.340763,-0.14626,53,279,587,6256
1644189007.019418,-0.010864,0.01001,-0.991577,0.327725,0.310229,-0.069924,53,274,585,6224
1644189007.077191,-0.012634,0.00946,-0.993469,0.281924,0.356031,-0.176794,59,270,586,6160
1644189007.116156,-0.010498,0.008423,-0.99408,0.342992,0.294962,-0.192061,52,273,586,6224
1644189007.164603,-0.01062,0.00769,-0.990479,0.35826,0.493435,-0.130992,46,281,597,6240
1644189007.212953,-0.009521,0.006409,-0.991577,0.327725,0.462901,-0.008855,47,287,586,6224
1644189007.261324,-0.01123,0.012146,-0.99115,0.327725,0.386565,-0.222595,42,273,584,6192
1644189007.309731,-0.005676,0.009155,-0.992554,0.159786,0.279695,-0.115725,47,280,577,6240
1644189007.35812,-0.009094,0.007935,-0.991211,0.175053,0.340763,-0.115725,48,276,583,6240
1644189007.406569,-0.011658,0.006531,-0.994019,0.266656,0.340763,0.006412,53,283,583,6224
1644189007.456775,-0.008728,0.010376,-0.991943,0.113985,0.493435,0.021679,51,281,590,6224
1644189007.507341,-0.009521,0.008057,-0.99054,0.037649,0.386565,-0.100458,54,280,591,6256
1644189007.552186,-0.00885,0.011719,-0.992432,0.205588,0.325496,-0.130992,48,276,571,6240
1644189007.648466,-0.010132,0.009827,-0.991516,0.220855,0.417099,-0.176794,47,277,584,6240
1644189007.696856,-0.010681,0.00946,-0.992126,0.144519,0.478168,-0.14626,60,276,583,6192
1644189007.745375,-0.011047,0.006592,-0.994019,0.236122,0.401832,0.067481,47,273,584,6240
1644189007.793663,-0.010132,0.007812,-0.992126,0.327725,0.432366,0.082748,40,280,582,6192
1644189007.842057,-0.009277,0.008728,-0.992126,0.404061,0.279695,-0.115725,51,274,583,6240
1644189007.890493,-0.008545,0.010559,-0.992981,0.144519,0.218626,-0.085191,39,283,583,6304
1644189007.938891,-0.011047,0.008484,-0.991821,0.068183,0.340763,-0.25313,53,283,585,6192
1644189007.987284,-0.009216,0.010437,-0.991943,0.113985,0.371298,-0.161527,51,269,583,6240
1644189008.03567,-0.008606,0.011719,-0.990051,0.266656,0.386565,-0.039389,55,279,585,6224
1644189008.090136,-0.005554,0.008179,-0.993591,0.205588,0.371298,-0.176794,45,285,582,6192
1644189008.132478,-0.009155,0.009033,-0.995117,0.281924,0.432366,-0.039389,47,280,579,6224
1644189008.18081,-0.010864,0.010803,-0.993042,0.35826,0.493435,-0.192061,45,277,579,6224
1644189008.229168,-0.009949,0.010071,-0.992554,0.297191,0.417099,-0.222595,51,274,587,6240
1644189008.277566,-0.008728,0.007568,-0.994507,0.205588,0.523969,0.006412,49,280,584,6176
1644189008.325999,-0.011658,0.008179,-0.991394,0.144519,0.462901,-0.008855,53,281,590,6192
1644189008.375494,-0.007751,0.009399,-0.991699,0.251389,0.325496,-0.085191,41,286,580,6128
1644189008.426103,-0.009338,0.010498,-0.994629,0.144519,0.356031,-0.085191,42,280,589,6192
1644189008.476092,-0.011108,0.012451,-0.993896,0.312458,0.569771,-0.054656,48,274,585,6224
1644189008.567971,-0.009277,0.006897,-0.991638,0.144519,0.493435,-0.008855,48,279,585,6160
1644189008.616328,-0.009766,0.009155,-0.990601,0.327725,0.432366,-0.115725,39,276,583,6224
1644189008.664866,-0.010803,0.009277,-0.989258,0.281924,0.24916,-0.008855,41,288,571,6240
1644189008.713126,-0.008911,0.008789,-0.99292,0.144519,0.493435,-0.008855,48,266,580,6224
1644189008.761502,-0.010864,0.009033,-0.991882,0.327725,0.417099,-0.222595,54,270,584,6240
1644189008.809906,-0.00708,0.01001,-0.990295,0.220855,0.356031,-0.161527,40,277,582,6224
1644189008.858315,-0.009094,0.011536,-0.992432,0.08345,0.340763,-0.100458,57,263,579,6224
1644189008.90674,-0.007874,0.00824,-0.99231,0.113985,0.371298,-0.14626,59,273,577,6192
1644189008.955249,-0.008057,0.01001,-0.991882,0.175053,0.279695,-0.100458,52,270,586,6224
1644189009.003497,-0.006836,0.008179,-0.991272,0.236122,0.508702,-0.115725,45,280,589,6224
1644189009.066873,-0.007202,0.011047,-0.990601,0.159786,0.24916,-0.085191,46,274,587,6224
1644189009.103784,-0.008911,0.010315,-0.992432,0.144519,0.417099,0.052214,47,268,577,6192
1644189009.148708,-0.009583,0.009277,-0.993042,0.449863,0.401832,-0.115725,53,276,583,6224
1644189009.19706,-0.007874,0.010132,-0.992371,0.190321,0.493435,-0.130992,54,285,575,6256
1644189009.24545,-0.014221,0.008179,-0.992065,0.266656,0.401832,-0.054656,51,276,594,6256
1644189009.29385,-0.008484,0.010437,-0.988892,0.144519,0.310229,-0.069924,57,277,584,6224
1644189009.342263,-0.01062,0.009277,-0.988464,0.220855,0.432366,-0.161527,47,275,582,6224
1644189009.390638,-0.009094,0.010742,-0.992432,0.159786,0.340763,-0.100458,58,269,580,6224
1644189009.439,-0.006775,0.009399,-0.993835,0.175053,0.417099,-0.176794,51,271,580,6224
1644189009.487763,-0.010254,0.008911,-0.992249,0.236122,0.294962,-0.085191,49,275,577,6224
1644189009.538089,-0.008667,0.007568,-0.992249,0.08345,0.417099,-0.100458,53,274,583,6240
1644189009.588172,-0.009094,0.011963,-0.991516,0.35826,0.432366,-0.222595,49,273,575,6240
1644189009.633244,-0.007629,0.010681,-0.99292,0.388794,0.294962,-0.161527,57,273,584,6192
1644189009.729393,-0.007263,0.010559,-0.990784,0.144519,0.493435,-0.085191,53,274,578,6176
1644189009.777755,-0.008484,0.009766,-0.991516,0.190321,0.478168,-0.008855,49,280,575,6224
1644189009.82615,-0.010742,0.009888,-0.992676,0.297191,0.386565,-0.237863,40,273,577,6176
1644189009.874811,-0.010803,0.005615,-0.991577,0.297191,0.340763,-0.039389,43,271,585,6176
1644189009.92301,-0.008179,0.009399,-0.996521,0.312458,0.432366,-0.008855,47,268,575,6240
1644189009.971386,-0.010132,0.008728,-0.98999,0.297191,0.356031,-0.161527,45,265,577,6128
1644189010.019777,-0.00824,0.007385,-0.989868,0.281924,0.386565,0.082748,45,273,586,6304
1644189010.071966,-0.007935,0.011108,-0.990173,0.098718,0.340763,-0.161527,45,270,596,6224
1644189010.116503,-0.009949,0.008972,-0.991577,0.175053,0.401832,-0.100458,52,280,575,6224
1644189010.164926,-0.010498,0.008484,-0.990906,0.297191,0.539237,-0.115725,60,281,587,6256
1644189010.21333,-0.006714,0.009033,-0.992249,0.297191,0.401832,-0.222595,47,282,586,6256
1644189010.261682,-0.005859,0.009277,-0.992798,0.205588,0.508702,-0.100458,47,280,596,6224
1644189010.310101,-0.008118,0.010193,-0.993042,0.266656,0.401832,-0.039389,51,283,576,6240
1644189010.358493,-0.008911,0.009216,-0.991577,0.35826,0.401832,-0.115725,46,279,592,6240
1644189010.406886,-0.009521,0.009155,-0.991516,0.175053,0.401832,-0.054656,47,280,582,6240
1644189010.455279,-0.010254,0.007874,-0.990295,0.159786,0.462901,-0.100458,53,271,576,6192
1644189010.503643,-0.01001,0.009583,-0.991272,0.251389,0.478168,0.082748,51,269,585,6176
1644189010.552058,-0.011658,0.011536,-0.992493,0.159786,0.325496,-0.100458,46,271,573,6240
1644189010.600447,-0.010193,0.006897,-0.993652,0.220855,0.401832,-0.115725,42,270,579,6224
1644189010.648924,-0.008545,0.010803,-0.994934,0.342992,0.523969,-0.130992,48,266,578,6176
1644189010.699729,-0.009277,0.006958,-0.992859,0.129252,0.371298,-0.14626,47,273,586,6224
1644189010.74966,-0.008362,0.006897,-0.990234,0.205588,0.401832,-0.176794,52,282,584,6240
1644189010.794918,-0.009888,0.008606,-0.990051,0.190321,0.279695,-0.008855,53,269,583,6256
1644189010.890857,-0.011536,0.007507,-0.991638,0.08345,0.371298,-0.115725,54,275,584,6224
1644189010.939241,-0.010437,0.005615,-0.990234,0.236122,0.340763,-0.085191,40,270,579,6192
1644189010.987629,-0.010803,0.010986,-0.992981,0.068183,0.386565,-0.283664,52,265,575,6256
1644189011.036037,-0.011414,0.009705,-0.992065,0.312458,0.386565,-0.161527,49,277,577,6240
1644189011.092746,-0.007629,0.009521,-0.98822,0.419328,0.356031,-0.207328,34,276,578,6224
1644189011.132806,-0.009155,0.009216,-0.991455,0.175053,0.310229,-0.314198,43,276,585,6192
1644189011.181141,-0.008301,0.008667,-0.994507,0.205588,0.401832,-0.115725,48,274,590,6256
1644189011.229566,-0.008667,0.011108,-0.988159,0.312458,0.325496,-0.069924,52,280,582,6224
1644189011.277932,-0.007751,0.010681,-0.993408,0.327725,0.356031,-0.054656,60,276,587,6240
1644189011.326358,-0.011047,0.007263,-0.993713,0.220855,0.294962,-0.085191,41,279,587,6288
1644189011.374751,-0.010132,0.007751,-0.992737,0.159786,0.356031,-0.069924,47,285,582,6192
1644189011.423206,-0.006775,0.009644,-0.989685,0.236122,0.508702,0.021679,47,282,577,6240
1644189011.473068,-0.011963,0.011841,-0.99231,0.236122,0.417099,-0.161527,52,273,582,6256
1644189011.523715,-0.007385,0.007935,-0.990234,0.236122,0.340763,-0.039389,57,270,582,6224
1644189011.572864,-0.010498,0.00769,-0.992798,0.129252,0.493435,-0.085191,43,283,587,6192
1644189011.617771,-0.010193,0.008179,-0.992676,0.342992,0.417099,-0.024122,59,273,577,6192
1644189011.713515,-0.007751,0.01062,-0.989136,0.068183,0.569771,-0.039389,53,288,583,6240
1644189011.761867,-0.010742,0.00708,-0.992493,0.236122,0.325496,-0.100458,40,270,577,6176
1644189011.810254,-0.009583,0.006958,-0.988586,0.312458,0.340763,-0.176794,51,274,580,6256
1644189011.858706,-0.008972,0.010498,-0.993835,0.266656,0.493435,-0.14626,53,266,578,6176
1644189011.90711,-0.009583,0.009766,-0.989075,0.190321,0.447634,-0.054656,48,271,583,6224
1644189011.955498,-0.007324,0.009644,-0.991699,0.342992,0.401832,-0.085191,42,282,589,6176
1644189012.003883,-0.00824,0.008728,-0.993408,0.297191,0.417099,-0.085191,41,281,573,6176
1644189012.065112,-0.008057,0.006287,-0.992432,0.113985,0.371298,-0.069924,60,271,583,6240
1644189012.100732,-0.010925,0.009827,-0.991638,0.205588,0.462901,-0.268397,43,281,583,6240
1644189012.149001,-0.009583,0.009399,-0.990112,0.251389,0.462901,-0.054656,48,271,587,6160
1644189012.197427,-0.009094,0.00885,-0.992493,-0.008153,0.447634,-0.008855,61,265,579,6224
1644189012.245803,-0.012207,0.008606,-0.991577,0.251389,0.356031,0.067481,53,266,578,6240
1644189012.294225,-0.00885,0.010315,-0.992493,0.236122,0.432366,-0.024122,48,276,580,6224
1644189012.342617,-0.007751,0.008545,-0.993042,0.266656,0.447634,-0.115725,40,263,584,6224
1644189012.390996,-0.010376,0.009033,-0.991699,0.159786,0.722443,-0.176794,53,279,587,6224
1644189012.439395,-0.008789,0.010864,-0.991699,0.236122,0.554504,-0.054656,58,276,592,6288
1644189012.487777,-0.011658,0.010437,-0.991272,0.220855,0.371298,-0.100458,60,271,583,6240
1644189012.536187,-0.008423,0.009338,-0.993042,0.205588,0.569771,0.021679,48,276,592,6256
1644189012.585917,-0.009888,0.010986,-0.990601,0.144519,0.24916,-0.14626,51,276,585,6224
1644189012.636218,-0.011902,0.005249,-0.993164,0.220855,0.401832,-0.130992,54,268,589,6224
1644189012.686308,-0.011108,0.009155,-0.990784,0.220855,0.386565,-0.100458,40,273,584,6240
1644189012.778133,-0.00885,0.009155,-0.992554,0.129252,0.447634,-0.115725,46,279,578,6256
1644189012.826516,-0.009033,0.010193,-0.990906,0.08345,0.340763,-0.024122,35,265,572,6224
1644189012.875008,-0.008606,0.010986,-0.993225,0.205588,0.386565,-0.130992,46,276,583,6240
1644189012.923373,-0.00824,0.009094,-0.991394,0.220855,0.356031,-0.085191,57,265,579,6224
1644189012.971747,-0.009644,0.008911,-0.992188,0.373527,0.447634,-0.008855,43,276,576,6192
1644189013.020116,-0.008423,0.010803,-0.992798,0.327725,0.447634,-0.085191,42,270,584,6192
1644189013.072898,-0.009094,0.008057,-0.989075,0.159786,0.218626,-0.054656,51,279,585,6240
1644189013.116922,-0.008301,0.010864,-0.993286,0.175053,0.462901,-0.054656,51,276,585,6240
1644189013.16528,-0.008606,0.007996,-0.993347,0.144519,0.356031,-0.039389,57,275,584,6256
1644189013.213696,-0.011047,0.009338,-0.992493,0.327725,0.340763,-0.115725,51,274,585,6224
1644189013.262052,-0.009033,0.008545,-0.993469,0.251389,0.264427,-0.176794,49,280,575,6224
1644189013.310471,-0.010071,0.010193,-0.99176,0.342992,0.554504,-0.054656,42,275,582,6224
1644189013.358854,-0.011536,0.006714,-0.994019,0.327725,0.340763,-0.024122,47,280,579,6192
1644189013.407251,-0.00824,0.010498,-0.992615,0.388794,0.523969,0.006412,42,280,591,6176
1644189013.455642,-0.011414,0.008179,-0.994141,0.144519,0.432366,-0.14626,41,279,587,6240
1644189013.504006,-0.007385,0.009521,-0.99231,0.236122,0.432366,-0.054656,47,273,586,6304
1644189013.552438,-0.009766,0.010254,-0.994507,0.220855,0.340763,-0.25313,48,269,587,6240
1644189013.600816,-0.008789,0.008545,-0.993713,0.281924,0.340763,-0.039389,49,277,584,6192
1644189013.649225,-0.007385,0.008423,-0.991638,0.144519,0.386565,-0.237863,42,277,591,6176
1644189013.698536,-0.00946,0.009277,-0.992371,0.159786,0.356031,-0.115725,48,291,597,6240
1644189013.748499,-0.007935,0.009155,-0.992615,0.236122,0.493435,-0.085191,47,277,586,6224
1644189013.798543,-0.007629,0.007263,-0.989746,0.205588,0.401832,-0.100458,48,271,585,6240
1644189013.84365,-0.008728,0.007935,-0.993713,0.281924,0.478168,-0.069924,53,279,578,6240
1644189013.939614,-0.008911,0.005676,-0.992188,0.281924,0.371298,-0.161527,52,277,577,6256
1644189013.987994,-0.009705,0.007935,-0.991699,0.266656,0.264427,-0.100458,46,266,583,6256
1644189014.036389,-0.009644,0.011169,-0.989807,0.220855,0.401832,-0.069924,54,282,584,6240
1644189014.084862,-0.008667,0.009399,-0.993774,0.220855,0.508702,-0.039389,46,271,594,6224
1644189014.133193,-0.010071,0.007263,-0.99176,0.220855,0.325496,-0.054656,47,277,584,6240
1644189014.181546,-0.008423,0.009766,-0.989258,0.251389,0.493435,-0.069924,51,281,590,6192
1644189014.229943,-0.008911,0.009705,-0.993896,0.266656,0.462901,-0.054656,52,273,586,6288
1644189014.278306,-0.007507,0.010986,-0.992737,0.098718,0.417099,-0.222595,53,276,590,6240
1644189014.326713,-0.005432,0.009521,-0.991821,0.220855,0.356031,-0.161527,57,277,577,6256
1644189014.375219,-0.011963,0.011536,-0.992371,0.327725,0.340763,-0.192061,61,277,584,6224
1644189014.423536,-0.010437,0.009521,-0.992188,0.281924,0.279695,-0.14626,51,281,580,6288
1644189014.47189,-0.009583,0.010132,-0.991455,0.312458,0.478168,-0.192061,47,275,593,6192
1644189014.520295,-0.008179,0.01062,-0.990906,0.205588,0.264427,-0.085191,39,286,576,6240
1644189014.568675,-0.010132,0.009705,-0.992371,0.144519,0.340763,0.036947,36,281,592,6224
1644189014.617081,-0.010742,0.009583,-0.992432,0.297191,0.294962,-0.085191,51,274,585,6256
1644189014.665468,-0.008728,0.008057,-0.98999,0.342992,0.203359,0.021679,45,280,582,6256
1644189014.713861,-0.014832,0.007935,-0.991089,0.373527,0.356031,-0.054656,39,279,587,6240
1644189014.762274,-0.007935,0.006897,-0.992798,0.342992,0.294962,-0.039389,49,282,582,6240
1644189014.810683,-0.00946,0.008545,-0.99231,0.144519,0.279695,-0.14626,52,277,579,6256
1644189014.860259,-0.010254,0.011475,-0.991516,0.281924,0.24916,-0.100458,58,279,592,6192
1644189014.912712,-0.008301,0.009338,-0.992188,0.388794,0.24916,-0.100458,52,280,591,6240
1644189014.961282,-0.010498,0.007568,-0.992065,0.236122,0.356031,0.036947,47,280,582,6256
1644189015.069519,-0.011658,0.010498,-0.995361,0.251389,0.478168,-0.14626,58,279,571,6304
1644189015.10329,-0.007507,0.009583,-0.991516,0.129252,0.325496,-0.207328,48,274,592,6240
1644189015.149437,-0.008972,0.007996,-0.994019,0.312458,0.432366,-0.085191,57,280,591,6288
1644189015.197795,-0.008484,0.010559,-0.991089,0.08345,0.310229,-0.14626,42,275,579,6160
1644189015.246181,-0.011475,0.008484,-0.992371,0.175053,0.508702,-0.176794,51,281,594,6224
1644189015.294624,-0.008972,0.009094,-0.991089,0.205588,0.447634,-0.222595,55,271,585,6240
1644189015.342981,-0.008606,0.006714,-0.994629,0.266656,0.371298,-0.100458,57,280,575,6224
1644189015.391364,-0.006409,0.009094,-0.989441,0.159786,0.264427,-0.069924,55,276,576,6192
1644189015.439751,-0.008118,0.007507,-0.990601,0.205588,0.157557,-0.161527,41,276,587,6224
1644189015.488185,-0.008972,0.010437,-0.992676,0.129252,0.386565,-0.039389,49,270,591,6224
1644189015.536688,-0.009583,0.007874,-0.995056,0.175053,0.478168,-0.192061,53,281,587,6256
1644189015.587108,-0.007935,0.010315,-0.990662,0.266656,0.417099,-0.039389,46,281,583,6288
1644189015.637468,-0.00824,0.005188,-0.991516,0.35826,0.432366,-0.069924,46,279,585,6240
1644189015.682367,-0.010376,0.007935,-0.992493,0.220855,0.585038,-0.069924,47,273,575,6224
1644189015.778493,-0.009827,0.010376,-0.991943,0.312458,0.493435,-0.054656,46,274,585,6160
1644189015.82688,-0.008118,0.008606,-0.991821,0.052916,0.371298,-0.14626,48,283,578,6240
1644189015.875401,-0.010986,0.009583,-0.990906,0.434595,0.340763,-0.207328,60,274,580,6240
1644189015.923728,-0.011169,0.010193,-0.99292,0.236122,0.462901,-0.100458,40,270,577,6240
1644189015.972162,-0.008423,0.010986,-0.993408,0.220855,0.447634,-0.039389,55,281,587,6240
1644189016.020499,-0.008301,0.011719,-0.992554,0.159786,0.386565,-0.130992,47,277,579,6240
1644189016.071213,-0.007874,0.010315,-0.99176,0.236122,0.569771,-0.176794,42,275,593,6240
1644189016.117264,-0.010254,0.008362,-0.99469,0.297191,0.432366,-0.14626,51,274,583,6256
1644189016.165661,-0.008667,0.011292,-0.992859,0.098718,0.294962,-0.024122,58,281,583,6224
1644189016.214052,-0.01062,0.00824,-0.992065,0.068183,0.417099,0.021679,46,279,576,6192
1644189016.26243,-0.009766,0.010254,-0.990601,0.144519,0.478168,-0.25313,43,274,583,6256
1644189016.310827,-0.010925,0.006592,-0.991699,0.159786,0.371298,-0.14626,54,268,582,6224
1644189016.35923,-0.009521,0.008484,-0.993713,0.190321,0.340763,-0.100458,52,273,579,6128
1644189016.407617,-0.008911,0.010254,-0.992004,0.175053,0.340763,-0.130992,49,280,579,6224
1644189016.456008,-0.006897,0.007324,-0.992493,0.281924,0.356031,-0.008855,54,270,579,6224
1644189016.504376,-0.00885,0.010803,-0.989868,0.144519,0.493435,-0.115725,52,280,589,6256
1644189016.552785,-0.007263,0.008179,-0.991699,0.312458,0.386565,-0.085191,55,279,587,6240
1644189016.601179,-0.007263,0.010437,-0.992126,0.312458,0.340763,-0.130992,59,280,582,6128
1644189016.649796,-0.011475,0.011169,-0.991943,0.205588,0.325496,0.021679,54,285,589,6224
1644189016.698017,-0.01001,0.010132,-0.993103,0.113985,0.569771,-0.115725,46,279,578,6240
1644189016.74849,-0.009644,0.009155,-0.993713,0.236122,0.523969,-0.054656,45,290,577,6240
1644189016.79892,-0.007629,0.010925,-0.991028,0.35826,0.447634,-0.054656,47,285,586,6224
1644189016.844017,-0.00946,0.009155,-0.992371,0.129252,0.417099,-0.069924,48,259,583,6224
1644189016.939971,-0.006897,0.00769,-0.991272,0.113985,0.310229,-0.085191,46,269,590,6192
1644189016.988353,-0.006348,0.009277,-0.992126,0.236122,0.447634,-0.14626,57,270,575,6240
1644189017.036772,-0.007751,0.008484,-0.991089,0.312458,0.371298,-0.161527,40,285,575,6224
1644189017.086176,-0.010681,0.011597,-0.992188,0.236122,0.279695,-0.14626,55,283,592,6256
1644189017.133521,-0.00885,0.007629,-0.990601,0.159786,0.203359,-0.100458,57,270,579,6224
1644189017.18191,-0.013428,0.009094,-0.991394,0.129252,0.340763,-0.115725,47,280,584,6256
1644189017.230299,-0.009521,0.009277,-0.990784,0.022382,0.310229,0.021679,52,273,591,6240
1644189017.278669,-0.010254,0.009644,-0.990234,0.251389,0.447634,-0.207328,55,271,587,6224
1644189017.327085,-0.007507,0.011963,-0.992249,0.281924,0.523969,-0.14626,51,283,590,6224
1644189017.37548,-0.008667,0.010803,-0.994263,0.175053,0.356031,-0.069924,46,283,594,6256
1644189017.423884,-0.009399,0.010254,-0.993469,0.175053,0.340763,-0.14626,51,262,585,6240
1644189017.472321,-0.010498,0.010315,-0.99353,0.175053,0.386565,-0.069924,49,280,582,6192
1644189017.520658,-0.008789,0.007812,-0.993042,0.220855,0.447634,-0.039389,51,281,590,6224
1644189017.569047,-0.009766,0.012451,-0.991211,0.297191,0.340763,-0.008855,45,277,586,6240
1644189017.61744,-0.007202,0.010498,-0.990784,0.220855,0.24916,-0.069924,46,271,587,6192
1644189017.665826,-0.008362,0.007141,-0.989502,0.342992,0.462901,-0.054656,49,282,591,6240
1644189017.714245,-0.008423,0.009888,-0.991943,0.113985,0.478168,-0.085191,46,271,573,6256
1644189017.762599,-0.010193,0.010742,-0.989014,0.251389,0.371298,-0.054656,43,269,578,6288
1644189017.811347,-0.007629,0.009583,-0.992188,0.190321,0.386565,0.036947,49,273,586,6256
1644189017.861531,-0.008606,0.012207,-0.991089,0.190321,0.462901,-0.176794,48,276,592,6224
1644189017.912645,-0.008667,0.00708,-0.990356,0.236122,0.447634,-0.069924,53,279,578,6240
1644189017.956919,-0.008911,0.012268,-0.994629,0.220855,0.508702,-0.207328,40,268,572,6224
1644189018.071725,-0.01123,0.009094,-0.993713,0.236122,0.310229,0.021679,54,277,584,6192
1644189018.101511,-0.008728,0.009277,-0.993713,0.297191,0.401832,-0.069924,52,277,582,6240
1644189018.149742,-0.008667,0.009277,-0.993103,0.052916,0.493435,0.067481,54,275,584,6224
1644189018.198158,-0.005249,0.009949,-0.990601,0.220855,0.478168,-0.100458,45,273,579,6192
1644189018.246559,-0.007446,0.008301,-0.992737,0.175053,0.325496,-0.100458,54,273,589,6224
1644189018.294991,-0.006714,0.009827,-0.991943,0.175053,0.386565,-0.161527,43,279,592,6224
1644189018.343342,-0.012085,0.009888,-0.992126,0.08345,0.325496,-0.14626,49,270,584,6304
1644189018.391726,-0.007874,0.00885,-0.990967,0.281924,0.294962,0.159084,52,268,579,6224
1644189018.440424,-0.006226,0.007751,-0.990479,0.144519,0.493435,-0.222595,58,286,583,6224
1644189018.488711,-0.007629,0.008179,-0.991577,0.373527,0.401832,-0.054656,51,276,578,6224
1644189018.538046,-0.006531,0.009155,-0.99408,0.159786,0.478168,-0.069924,47,282,584,6176
1644189018.588373,-0.010254,0.01062,-0.992432,0.312458,0.508702,-0.085191,40,277,579,6240
1644189018.638636,-0.009644,0.011292,-0.992126,0.205588,0.310229,-0.14626,54,280,579,6240
1644189018.73051,-0.013489,0.009705,-0.991577,0.113985,0.417099,-0.039389,49,282,584,6256
1644189018.778877,-0.011047,0.009399,-0.990234,0.052916,0.462901,-0.008855,48,266,583,6192
1644189018.827285,-0.010071,0.009888,-0.991821,0.175053,0.447634,-0.222595,54,277,586,6256
1644189018.875694,-0.008179,0.010132,-0.992554,0.052916,0.325496,0.006412,52,280,582,6256
1644189018.924059,-0.00824,0.011169,-0.990051,0.098718,0.340763,0.098015,57,282,584,6224
1644189018.972505,-0.007996,0.010925,-0.992371,0.327725,0.508702,-0.039389,54,280,584,6224
1644189019.020858,-0.008179,0.008057,-0.98999,0.266656,0.356031,-0.039389,46,279,576,6224
1644189019.071929,-0.009705,0.010925,-0.992126,0.236122,0.371298,-0.115725,43,274,583,6224
1644189019.117632,-0.007324,0.012085,-0.992554,0.236122,0.294962,-0.039389,51,281,580,6240
1644189019.166024,-0.008972,0.007935,-0.990662,0.251389,0.325496,-0.024122,43,269,583,6256
1644189019.21443,-0.008057,0.007935,-0.991821,0.113985,0.386565,-0.130992,49,277,586,6240
1644189019.262797,-0.008728,0.007385,-0.993042,0.098718,0.401832,-0.14626,60,271,585,6224
1644189019.311198,-0.008423,0.010376,-0.991882,0.449863,0.432366,0.036947,47,273,582,6160
1644189019.359594,-0.010437,0.009216,-0.992188,0.190321,0.447634,-0.25313,51,279,594,6256
1644189019.407979,-0.008179,0.010315,-0.990784,0.251389,0.462901,-0.069924,49,275,579,6240
1644189019.456398,-0.008423,0.010803,-0.991882,0.281924,0.493435,-0.039389,52,282,589,6240
1644189019.504744,-0.010254,0.009277,-0.989502,0.251389,0.493435,-0.024122,46,279,592,6304
1644189019.553193,-0.005005,0.008301,-0.990601,0.266656,0.386565,-0.176794,52,265,586,6240
1644189019.601565,-0.009155,0.009766,-0.989929,0.327725,0.447634,0.067481,45,280,591,6224
1644189019.650027,-0.009277,0.010315,-0.992188,0.236122,0.325496,0.006412,62,271,590,6304
1644189019.700219,-0.008057,0.010681,-0.992554,0.220855,0.310229,-0.115725,53,276,580,6240
1644189019.750545,-0.010925,0.00708,-0.990723,0.205588,0.447634,-0.222595,43,271,585,6192
1644189019.795815,-0.006592,0.00824,-0.989685,0.236122,0.401832,-0.024122,54,275,584,6224
1644189019.891945,-0.007141,0.009399,-0.992188,0.297191,0.371298,-0.222595,52,268,579,6256
1644189019.940307,-0.008545,0.008484,-0.98999,0.159786,0.356031,-0.008855,52,268,586,6224
1644189019.988739,-0.008179,0.009033,-0.991577,0.190321,0.432366,0.082748,53,276,587,6224
1644189020.037094,-0.007019,0.009399,-0.992371,0.007115,0.325496,-0.100458,57,275,579,6240
1644189020.085616,-0.008057,0.010071,-0.991699,0.220855,0.401832,-0.085191,48,279,585,6192
1644189020.133965,-0.007446,0.008545,-0.993103,0.373527,0.264427,-0.024122,47,277,568,6224
1644189020.182289,-0.010193,0.008911,-0.992249,0.251389,0.401832,-0.054656,48,271,585,6176
1644189020.230668,-0.00946,0.006592,-0.992676,0.281924,0.493435,0.006412,51,276,578,6240
1644189020.279044,-0.009705,0.008362,-0.991455,0.205588,0.325496,-0.237863,49,275,589,6192
1644189020.327448,-0.011292,0.007263,-0.991821,0.327725,0.447634,-0.192061,52,277,582,6240
1644189020.375843,-0.007935,0.009705,-0.989624,0.312458,0.386565,-0.237863,51,274,573,6224
1644189020.424216,-0.011169,0.009521,-0.990173,0.342992,0.401832,-0.176794,53,274,578,6160
1644189020.472648,-0.011353,0.010925,-0.992554,0.190321,0.417099,-0.130992,42,273,575,6224
1644189020.521019,-0.009094,0.009277,-0.988953,0.297191,0.264427,-0.054656,39,286,585,6224
1644189020.569422,-0.011108,0.011414,-0.991821,0.144519,0.462901,-0.085191,46,281,585,6192
1644189020.617808,-0.009766,0.011475,-0.993408,0.327725,0.462901,-0.100458,51,269,587,6224
1644189020.666187,-0.008301,0.011292,-0.993835,0.190321,0.417099,0.082748,46,271,583,6304
1644189020.714708,-0.009338,0.00885,-0.990051,0.144519,0.371298,-0.008855,48,269,585,6288
1644189020.763314,-0.009399,0.011414,-0.993896,0.220855,0.325496,-0.207328,52,280,584,6256
1644189020.812171,-0.009155,0.00824,-0.992554,0.205588,0.585038,0.098015,46,271,576,6224
1644189020.863865,-0.008667,0.010315,-0.991211,0.113985,0.325496,-0.100458,52,277,582,6256
1644189020.914065,-0.006958,0.010742,-0.989685,0.312458,0.264427,-0.008855,48,262,580,6240
1644189020.958493,-0.007141,0.007324,-0.994446,0.175053,0.386565,-0.039389,53,279,590,6256
1644189021.067492,-0.008728,0.008911,-0.993347,0.068183,0.401832,-0.054656,54,280,586,6240
1644189021.10276,-0.009888,0.009094,-0.994263,0.022382,0.447634,-0.008855,40,290,575,6256
1644189021.150171,-0.007812,0.006836,-0.991882,0.373527,0.356031,0.021679,47,285,582,6240
1644189021.198528,-0.008789,0.007263,-0.994629,0.327725,0.508702,-0.100458,47,275,591,6192
1644189021.246898,-0.010437,0.008728,-0.992432,0.098718,0.493435,-0.039389,60,274,580,6256
1644189021.295316,-0.008667,0.008423,-0.991455,0.236122,0.371298,0.006412,49,277,589,6224
1644189021.34369,-0.007996,0.009766,-0.993591,0.312458,0.432366,-0.085191,43,279,578,6240
1644189021.392203,-0.009644,0.010559,-0.991333,0.205588,0.462901,-0.207328,40,280,586,6256
1644189021.440486,-0.009399,0.009399,-0.993774,-0.02342,0.569771,-0.130992,49,273,579,6240
1644189021.488858,-0.011414,0.007812,-0.992371,0.342992,0.447634,-0.115725,48,274,587,6240
1644189021.537254,-0.009705,0.010376,-0.992432,0.175053,0.493435,-0.161527,43,269,573,6240
1644189021.585668,-0.007446,0.012634,-0.994202,0.251389,0.401832,0.006412,47,285,582,6240
1644189021.63439,-0.00769,0.00769,-0.993835,0.342992,0.371298,-0.100458,47,285,586,6224
1644189021.684726,-0.009155,0.009399,-0.99353,0.251389,0.539237,-0.008855,54,268,584,6224
1644189021.73501,-0.008789,0.009033,-0.990601,0.236122,0.462901,0.052214,43,281,585,6224
1644189021.779999,-0.009399,0.009155,-0.991882,0.098718,0.325496,-0.069924,46,276,583,6224
1644189021.876007,-0.008179,0.008057,-0.990295,0.251389,0.294962,-0.161527,43,274,587,6192
1644189021.924448,-0.009338,0.008362,-0.990723,0.175053,0.417099,-0.008855,53,266,580,6224
1644189021.972868,-0.009949,0.011658,-0.993408,0.251389,0.264427,-0.100458,53,269,578,6240
1644189022.021241,-0.012695,0.007019,-0.994629,0.266656,0.432366,-0.100458,53,279,583,6256
1644189022.0698,-0.010559,0.008667,-0.991882,0.220855,0.310229,-0.069924,41,276,587,6224
1644189022.117997,-0.00769,0.010742,-0.992432,0.220855,0.417099,0.052214,49,275,591,6256
1644189022.166378,-0.011902,0.008301,-0.991699,0.297191,0.462901,0.098015,48,276,578,6240
1644189022.214787,-0.007324,0.009521,-0.991028,0.251389,0.447634,-0.14626,52,273,586,6240
1644189022.263188,-0.010376,0.005676,-0.992676,0.175053,0.310229,-0.100458,42,282,586,6224
1644189022.311528,-0.006958,0.008667,-0.994385,0.297191,0.371298,-0.161527,47,270,582,6224
1644189022.359953,-0.008667,0.007751,-0.992554,0.297191,0.432366,-0.024122,60,274,585,6256
1644189022.408361,-0.007935,0.00769,-0.993042,0.068183,0.478168,-0.237863,49,287,575,6240
1644189022.456741,-0.009155,0.010071,-0.993286,0.205588,0.401832,0.098015,45,277,591,6160
1644189022.50523,-0.008606,0.009216,-0.991943,0.297191,0.493435,-0.237863,42,275,596,6192
1644189022.553535,-0.010681,0.009033,-0.991333,0.190321,0.432366,-0.207328,49,265,586,6224
1644189022.60193,-0.006775,0.007141,-0.990662,0.327725,0.401832,-0.161527,48,269,583,6224
1644189022.650316,-0.00885,0.009094,-0.992432,0.113985,0.401832,-0.161527,46,276,583,6304
1644189022.698685,-0.008606,0.012207,-0.992249,0.342992,0.432366,-0.237863,43,271,592,6256
1644189022.747079,-0.00824,0.009399,-0.991272,0.266656,0.386565,-0.14626,46,283,587,6224
1644189022.796336,-0.008789,0.010498,-0.991638,0.159786,0.279695,-0.024122,57,275,584,6224
1644189022.847494,-0.009216,0.008972,-0.994568,0.190321,0.401832,0.067481,51,276,583,6192
1644189022.89787,-0.008179,0.010315,-0.994019,0.144519,0.523969,-0.008855,49,280,593,6240
1644189022.989137,-0.008118,0.006775,-0.992554,0.190321,0.356031,-0.115725,57,273,582,6288
1644189023.037484,-0.009155,0.009644,-0.99469,0.205588,0.401832,0.082748,49,277,572,6288
1644189023.085943,-0.008667,0.009888,-0.99292,0.35826,0.294962,0.159084,53,269,585,6240
1644189023.134256,-0.006531,0.010193,-0.992737,0.342992,0.447634,-0.085191,57,275,577,6256
1644189023.182663,-0.00824,0.012329,-0.99115,0.342992,0.539237,-0.085191,43,276,585,6224
1644189023.231035,-0.006348,0.008789,-0.99469,0.190321,0.340763,0.021679,51,279,592,6224
1644189023.27941,-0.011841,0.00769,-0.992554,0.220855,0.615573,0.113282,42,277,577,6256
1644189023.32781,-0.009094,0.008911,-0.991028,0.190321,0.569771,0.052214,46,286,587,6240
1644189023.376216,-0.008484,0.012695,-0.993042,0.205588,0.432366,-0.25313,57,270,582,6256
1644189023.424759,-0.008484,0.008301,-0.991394,0.35826,0.447634,0.067481,46,269,580,6192
1644189023.473018,-0.006531,0.010376,-0.990662,0.144519,0.371298,-0.085191,49,273,575,6192
1644189023.521386,-0.009338,0.00769,-0.991333,0.220855,0.340763,-0.085191,53,276,583,6224
1644189023.569753,-0.010925,0.006836,-0.994568,0.327725,0.386565,-0.130992,46,274,580,6224
1644189023.618186,-0.008789,0.009583,-0.990295,0.327725,0.539237,-0.100458,47,280,579,6240
1644189023.666571,-0.00946,0.010193,-0.992798,0.022382,0.493435,-0.054656,46,264,585,6256
1644189023.715008,-0.008667,0.009033,-0.990662,0.052916,0.523969,-0.100458,53,279,583,6224
1644189023.763344,-0.008789,0.009766,-0.993591,0.236122,0.356031,0.006412,52,280,579,6224
1644189023.811961,-0.009338,0.011292,-0.992371,0.190321,0.188092,-0.237863,46,279,585,6288
1644189023.860202,-0.010742,0.010925,-0.991882,0.35826,0.447634,-0.085191,59,268,584,6256
1644189023.910308,-0.009277,0.009644,-0.988892,0.190321,0.523969,-0.069924,58,259,580,6256
1644189023.960243,-0.008789,0.009521,-0.993103,0.236122,0.417099,-0.024122,45,277,593,6160
1644189024.070571,-0.009827,0.009338,-0.995728,0.190321,0.310229,-0.192061,57,279,587,6240
1644189024.103942,-0.007935,0.00885,-0.994141,0.205588,0.401832,-0.130992,48,274,590,6240
1644189024.150502,-0.008057,0.006531,-0.990906,0.129252,0.523969,-0.192061,58,274,573,6224
1644189024.198879,-0.007751,0.008301,-0.994141,0.113985,0.386565,-0.115725,57,270,577,6224
1644189024.247274,-0.009277,0.010864,-0.992493,0.251389,0.447634,-0.222595,46,276,585,6256
1644189024.295684,-0.008789,0.010986,-0.992188,0.342992,0.401832,-0.207328,53,279,587,6224
1644189024.344069,-0.006042,0.007324,-0.99176,0.297191,0.340763,-0.161527,55,286,583,6192
1644189024.392448,-0.007874,0.008362,-0.992859,0.327725,0.386565,-0.054656,49,280,589,6256
1644189024.440852,-0.009949,0.007019,-0.991394,0.236122,0.523969,-0.039389,48,271,580,6224
1644189024.489339,-0.008545,0.008118,-0.993408,0.35826,0.523969,-0.054656,54,268,586,6224
1644189024.537662,-0.010742,0.00946,-0.990784,0.190321,0.432366,0.021679,49,277,584,6176
1644189024.587437,-0.008301,0.012268,-0.990601,0.129252,0.493435,0.036947,52,275,589,6240
1644189024.637793,-0.00769,0.00708,-0.993164,0.251389,0.432366,-0.115725,55,274,580,6256
1644189024.687838,-0.008667,0.007629,-0.989868,0.022382,0.493435,-0.176794,59,270,582,6256
1644189024.779599,-0.010803,0.005554,-0.993713,0.312458,0.401832,0.052214,66,268,582,6240
1644189024.827972,-0.008301,0.009216,-0.993103,0.022382,0.432366,-0.039389,48,276,590,6224
1644189024.876424,-0.011597,0.010376,-0.993591,0.266656,0.417099,-0.100458,48,279,578,6224
1644189024.924836,-0.008789,0.00885,-0.992554,0.373527,0.401832,-0.25313,43,269,576,6160
1644189024.973232,-0.009277,0.006836,-0.992126,0.205588,0.294962,-0.069924,54,260,596,6240
1644189025.021614,-0.009888,0.009216,-0.991882,0.297191,0.340763,-0.176794,55,279,583,6224
1644189025.073482,-0.009644,0.012512,-0.993408,0.175053,0.401832,-0.008855,62,271,576,6224
1644189025.118381,-0.008484,0.00885,-0.992676,0.266656,0.417099,0.006412,43,269,576,6224
1644189025.166759,-0.009888,0.011902,-0.990723,0.175053,0.523969,-0.14626,47,280,577,6240
1644189025.215256,-0.009705,0.008911,-0.989502,-0.038687,0.371298,-0.008855,55,279,585,6176
1644189025.263511,-0.010559,0.008545,-0.990906,0.281924,0.432366,-0.283664,46,269,573,6240
1644189025.311932,-0.011108,0.010376,-0.993347,0.342992,0.523969,-0.176794,60,283,576,6224
1644189025.360328,-0.010132,0.008545,-0.993469,0.236122,0.356031,-0.115725,48,269,583,6224
1644189025.408719,-0.008179,0.008118,-0.99054,0.236122,0.325496,-0.130992,39,279,578,6256
1644189025.457091,-0.006775,0.009827,-0.991821,0.129252,0.569771,-0.069924,46,279,585,6224
1644189025.50548,-0.008057,0.009705,-0.992432,0.281924,0.417099,-0.085191,51,271,594,6176
1644189025.5539,-0.008667,0.008057,-0.992493,0.052916,0.462901,-0.100458,42,282,596,6128
1644189025.60231,-0.010193,0.005615,-0.989807,0.297191,0.523969,-0.237863,45,282,579,6256
1644189025.650684,-0.009216,0.009888,-0.992798,0.236122,0.340763,-0.192061,52,268,582,6240
1644189025.699435,-0.008118,0.00946,-0.990662,0.129252,0.294962,-0.054656,57,268,579,6192
1644189025.749519,-0.009705,0.007141,-0.991455,0.236122,0.462901,-0.14626,46,271,578,6240
1644189025.799881,-0.004211,0.009216,-0.992371,0.236122,0.432366,0.098015,43,271,580,6240
1644189025.845025,-0.003113,0.011292,-0.990234,0.236122,0.493435,0.082748,45,277,586,6224
1644189025.941075,-0.008972,0.010498,-0.994324,0.175053,0.310229,-0.207328,46,264,576,6240
1644189025.98946,-0.010986,0.010986,-0.990417,0.190321,0.417099,-0.039389,55,271,578,6224
1644189026.037859,-0.005615,0.012634,-0.992493,0.08345,0.279695,-0.192061,46,276,578,6224
1644189026.086369,-0.006836,0.008789,-0.99176,0.373527,0.386565,-0.130992,53,271,583,6240
1644189026.134668,-0.008057,0.009766,-0.992615,0.190321,0.371298,-0.054656,49,270,575,6256
1644189026.18302,-0.01062,0.009216,-0.991211,0.113985,0.447634,-0.130992,48,283,578,6240
1644189026.231393,-0.00885,0.013062,-0.99231,0.236122,0.508702,-0.100458,51,279,583,6224
1644189026.27977,-0.005493,0.011047,-0.99353,0.220855,0.356031,-0.100458,53,266,573,6192
1644189026.328179,-0.007446,0.011597,-0.986511,0.373527,0.371298,-0.130992,58,271,583,6224
1644189026.376588,-0.008118,0.011414,-0.992737,0.037649,0.340763,-0.25313,48,274,585,6192
1644189026.425089,-0.007324,0.01355,-0.990173,0.297191,0.523969,0.006412,45,280,591,6240
1644189026.473374,-0.006775,0.009521,-0.991455,0.129252,0.493435,-0.069924,55,276,580,6224
1644189026.521757,-0.007324,0.010986,-0.99054,0.144519,0.279695,-0.222595,52,263,579,6224
1644189026.570136,-0.008057,0.012451,-0.991272,0.236122,0.432366,-0.039389,58,279,585,6192
1644189026.618554,-0.008423,0.013184,-0.993164,0.297191,0.386565,0.021679,51,274,587,6256
1644189026.66693,-0.008362,0.010132,-0.989319,0.251389,0.417099,-0.024122,54,280,586,6224
1644189026.715286,-0.007996,0.009583,-0.990967,-0.008153,0.340763,0.021679,46,279,587,6224
1644189026.76372,-0.005615,0.011169,-0.993164,0.404061,0.417099,-0.024122,52,285,575,6224
1644189026.81252,-0.008179,0.007935,-0.992737,0.190321,0.539237,-0.085191,54,280,584,6192
1644189026.864033,-0.009521,0.010559,-0.992126,0.175053,0.401832,-0.192061,55,266,573,6176
1644189026.914688,-0.01062,0.010132,-0.993652,0.327725,0.401832,-0.085191,53,279,583,6176
1644189026.958771,-0.009155,0.00946,-0.993042,0.159786,0.401832,-0.14626,55,264,583,6192
1644189027.063373,-0.009705,0.008972,-0.991516,0.175053,0.432366,-0.069924,47,273,589,6256
1644189027.103104,-0.010559,0.010925,-0.995117,0.190321,0.478168,-0.130992,62,276,592,6256
1644189027.150891,-0.009399,0.009888,-0.990967,0.327725,0.386565,0.006412,39,283,573,6224
1644189027.199252,-0.006897,0.011108,-0.98877,0.113985,0.432366,-0.100458,47,275,586,6256
1644189027.24763,-0.006958,0.009705,-0.993164,0.08345,0.493435,-0.222595,54,270,596,6224
1644189027.296056,-0.00946,0.008911,-0.990479,0.098718,0.340763,-0.130992,52,273,589,6192
1644189027.344449,-0.007324,0.008301,-0.991577,0.236122,0.24916,0.036947,55,283,580,6160
1644189027.392837,-0.005981,0.011658,-0.993164,0.388794,0.493435,-0.054656,46,281,580,6240
1644189027.441224,-0.007019,0.013306,-0.993225,0.236122,0.417099,-0.130992,55,281,578,6240
1644189027.489644,-0.005981,0.006714,-0.993835,0.236122,0.386565,-0.176794,39,269,583,6240
1644189027.53801,-0.010559,0.00885,-0.990295,0.327725,0.462901,-0.054656,48,269,583,6192
1644189027.586399,-0.011658,0.007202,-0.994141,0.205588,0.356031,-0.115725,54,275,589,6256
1644189027.634801,-0.007446,0.011475,-0.990723,0.281924,0.417099,-0.314198,57,280,582,6256
1644189027.683184,-0.00885,0.010803,-0.993591,0.236122,0.294962,-0.161527,51,269,590,6192
1644189027.731889,-0.009521,0.009644,-0.991516,0.297191,0.325496,-0.008855,48,283,583,6224
1644189027.781699,-0.009155,0.008667,-0.990662,0.205588,0.417099,-0.130992,49,277,579,6224
1644189027.831628,-0.010315,0.012329,-0.990784,0.159786,0.386565,-0.222595,49,275,577,6224
1644189027.877503,-0.008484,0.011292,-0.990662,0.236122,0.417099,-0.069924,42,270,575,6224
1644189027.973583,-0.005554,0.011353,-0.991821,0.281924,0.432366,0.143817,49,282,589,6224
1644189028.021997,-0.007812,0.010071,-0.993347,0.312458,0.401832,-0.100458,43,276,580,6224
1644189028.075612,-0.012329,0.006775,-0.992004,0.220855,0.432366,-0.039389,52,273,589,6192
1644189028.118757,-0.010437,0.010925,-0.991394,0.190321,0.417099,-0.222595,42,280,582,6192
1644189028.167148,-0.007629,0.008606,-0.991211,0.098718,0.325496,-0.085191,48,269,580,6240
1644189028.215504,-0.010864,0.007874,-0.992554,0.159786,0.523969,-0.14626,51,274,576,6256
1644189028.263912,-0.007935,0.01001,-0.990784,0.144519,0.340763,-0.100458,55,276,587,6224
1644189028.312291,-0.008972,0.010315,-0.99115,0.281924,0.371298,-0.054656,54,275,589,6256
1644189028.360693,-0.008057,0.009949,-0.991821,0.052916,0.447634,-0.069924,45,275,591,6192
1644189028.409082,-0.008118,0.008362,-0.993103,0.144519,0.493435,-0.130992,54,268,582,6224
1644189028.45748,-0.00824,0.010132,-0.990356,0.159786,0.401832,-0.115725,59,270,589,6224
1644189028.505874,-0.007874,0.010315,-0.990967,0.098718,0.447634,-0.161527,49,273,593,6240
1644189028.554265,-0.006836,0.008911,-0.991211,0.327725,0.401832,-0.100458,62,269,583,6176
1644189028.602682,-0.009521,0.008667,-0.989441,0.08345,0.447634,-0.039389,49,273,591,6224
1644189028.651045,-0.00946,0.009827,-0.990906,0.251389,0.371298,-0.161527,53,283,585,6256
1644189028.699434,-0.010132,0.009644,-0.995056,0.007115,0.447634,-0.039389,47,275,591,6256
1644189028.747833,-0.008911,0.009644,-0.995422,0.297191,0.386565,-0.054656,53,279,590,6176
1644189028.796223,-0.010559,0.010925,-0.990784,0.251389,0.371298,-0.085191,46,281,590,6256
1644189028.844755,-0.009216,0.011292,-0.992126,0.175053,0.478168,-0.115725,57,280,589,6224
1644189028.894098,-0.010254,0.010315,-0.993713,0.434595,0.386565,-0.161527,47,275,589,6176
1644189028.945554,-0.007568,0.008301,-0.992554,0.052916,0.417099,-0.161527,55,269,578,6224
1644189028.995666,-0.007385,0.010376,-0.989319,0.373527,0.401832,-0.115725,46,283,585,6240
1644189029.087008,-0.008728,0.011108,-0.994324,0.190321,0.401832,-0.008855,49,260,584,6256
1644189029.135241,-0.006287,0.008606,-0.992676,0.098718,0.386565,-0.039389,42,277,579,6192
1644189029.183371,-0.007263,0.010681,-0.992371,0.251389,0.401832,-0.039389,47,268,582,6224
1644189029.231771,-0.008179,0.008423,-0.993591,0.129252,0.356031,-0.039389,53,274,576,6240
1644189029.280154,-0.008972,0.008057,-0.989441,0.205588,0.356031,-0.008855,52,277,572,6128
1644189029.328557,-0.00592,0.00885,-0.990601,0.190321,0.279695,-0.085191,46,279,587,6240
1644189029.37694,-0.01062,0.008606,-0.990601,0.068183,0.493435,-0.100458,54,280,586,6192
1644189029.425343,-0.006165,0.011414,-0.99115,0.144519,0.417099,0.082748,53,279,590,6240
1644189029.473733,-0.008179,0.00769,-0.991516,0.281924,0.447634,-0.14626,48,271,583,6240
1644189029.522184,-0.006287,0.008057,-0.991211,0.144519,0.447634,-0.100458,48,269,580,6176
1644189029.570528,-0.008606,0.012024,-0.989563,0.190321,0.462901,-0.115725,51,276,580,6240
1644189029.61891,-0.006897,0.011414,-0.991638,0.129252,0.401832,-0.100458,54,277,582,6224
1644189029.667294,-0.011658,0.007629,-0.994019,0.236122,0.356031,-0.14626,51,269,587,6224
1644189029.715694,-0.009399,0.008728,-0.994507,0.297191,0.310229,-0.054656,47,268,586,6176
1644189029.764091,-0.010742,0.008118,-0.990601,0.144519,0.310229,-0.039389,43,281,587,6224
1644189029.812541,-0.006409,0.013672,-0.98999,0.236122,0.264427,-0.054656,51,281,587,6176
1644189029.860875,-0.010742,0.007263,-0.992676,0.08345,0.401832,0.006412,57,282,582,6224
1644189029.909599,-0.009827,0.011292,-0.993225,0.205588,0.310229,-0.192061,59,275,582,6240
1644189029.957719,-0.007629,0.011841,-0.991882,0.35826,0.386565,-0.069924,35,270,577,6224
1644189030.007511,-0.005981,0.007324,-0.991333,0.236122,0.371298,-0.115725,43,269,576,6192
1644189030.073535,-0.009766,0.008972,-0.991516,0.068183,0.356031,-0.069924,51,274,578,6224
1644189030.107922,-0.008301,0.010742,-0.993347,0.190321,0.371298,-0.039389,52,273,572,6256
1644189030.199634,-0.009338,0.009827,-0.992737,0.281924,0.432366,-0.085191,43,276,590,6224
1644189030.248015,-0.005493,0.008545,-0.991638,0.175053,0.432366,-0.130992,51,274,587,6176
1644189030.296384,-0.008667,0.009155,-0.991638,0.220855,0.371298,-0.024122,52,265,572,6176
1644189030.344873,-0.006226,0.013062,-0.992249,0.08345,0.432366,-0.054656,41,271,583,6256
1644189030.393208,-0.008606,0.007935,-0.990906,0.266656,0.310229,-0.176794,48,276,580,6224
1644189030.4416,-0.006226,0.00885,-0.994202,0.281924,0.371298,-0.100458,57,270,582,6160
1644189030.489988,-0.008118,0.009644,-0.99231,0.281924,0.356031,-0.283664,53,271,580,6256
1644189030.538379,-0.00946,0.010986,-0.992676,0.266656,0.356031,-0.054656,52,277,582,6256
1644189030.586757,-0.010376,0.010193,-0.989868,0.312458,0.264427,-0.222595,52,287,575,6160
1644189030.635255,-0.010071,0.011597,-0.991943,0.205588,0.401832,-0.054656,51,276,573,6224
1644189030.683569,-0.008667,0.008972,-0.991028,0.159786,0.386565,-0.115725,41,286,583,6192
1644189030.731964,-0.008484,0.011597,-0.991394,0.266656,0.417099,-0.100458,57,277,591,6224
1644189030.78034,-0.009521,0.011414,-0.991089,0.297191,0.340763,-0.115725,64,277,577,6224
1644189030.828786,-0.008057,0.007507,-0.98999,0.312458,0.493435,-0.14626,45,280,577,6256
1644189030.877172,-0.006958,0.008606,-0.989807,0.190321,0.523969,0.021679,49,273,589,6288
1644189030.92556,-0.00708,0.008362,-0.991333,0.144519,0.356031,-0.054656,49,275,591,6192
1644189030.97396,-0.008301,0.010315,-0.991455,0.327725,0.432366,-0.069924,54,285,579,6240
1644189031.022331,-0.008179,0.01062,-0.994934,0.190321,0.478168,-0.161527,53,281,592,6288
1644189031.09108,-0.007996,0.009705,-0.990845,0.205588,0.356031,-0.069924,43,271,585,6240
1644189031.121731,-0.006409,0.009216,-0.994385,0.159786,0.386565,0.036947,48,276,580,6224
1644189031.170858,-0.006958,0.010376,-0.994568,0.129252,0.386565,-0.14626,47,275,584,6240
1644189031.215919,-0.010437,0.00708,-0.991333,0.205588,0.279695,0.067481,54,273,582,6256
1644189031.312708,-0.010437,0.011658,-0.99231,0.190321,0.539237,0.021679,52,273,572,6224
1644189031.361084,-0.010254,0.010864,-0.993164,0.266656,0.340763,-0.115725,45,273,582,6240
1644189031.409446,-0.007629,0.008545,-0.993042,0.098718,0.508702,0.021679,52,273,586,6240
1644189031.457846,-0.007446,0.007751,-0.991943,0.144519,0.294962,-0.100458,49,275,577,6224
1644189031.506212,-0.007507,0.007996,-0.993164,0.236122,0.325496,-0.008855,48,274,580,6256
1644189031.554628,-0.007324,0.007507,-0.992798,0.190321,0.401832,-0.008855,49,265,577,6176
1644189031.603,-0.009033,0.009705,-0.990784,0.236122,0.401832,-0.14626,52,275,577,6240
1644189031.651417,-0.008972,0.008667,-0.99292,0.205588,0.401832,-0.14626,54,265,586,6192
1644189031.699818,-0.00946,0.009705,-0.992188,0.327725,0.569771,-0.161527,48,281,576,6288
1644189031.748187,-0.009399,0.007629,-0.99231,0.205588,0.310229,-0.115725,46,279,576,6192
1644189031.796602,-0.006592,0.008057,-0.991882,0.037649,0.554504,0.052214,49,275,584,6256
1644189031.845184,-0.00946,0.009888,-0.990784,0.35826,0.401832,-0.237863,47,268,575,6256
1644189031.893403,-0.007996,0.009644,-0.990173,0.190321,0.432366,-0.207328,42,285,586,6256
1644189031.941832,-0.01178,0.009888,-0.993591,0.236122,0.340763,0.006412,52,270,591,6240
1644189031.99021,-0.006592,0.011047,-0.992249,0.251389,0.325496,-0.069924,45,290,589,6240
1644189032.038607,-0.009644,0.007812,-0.990662,0.098718,0.417099,-0.176794,52,280,593,6224
1644189032.092476,-0.009705,0.009399,-0.99176,0.113985,0.478168,-0.100458,57,277,577,6256
1644189032.135358,-0.010925,0.008118,-0.991943,0.175053,0.371298,0.036947,55,276,590,6224
1644189032.183809,-0.007446,0.007629,-0.990601,0.220855,0.462901,-0.130992,60,276,576,6192
1644189032.233028,-0.005737,0.008118,-0.990967,0.159786,0.294962,-0.024122,48,274,578,6224
1644189032.283568,-0.00769,0.012329,-0.99292,0.113985,0.447634,-0.069924,55,271,585,6256
1644189032.333796,-0.006958,0.011658,-0.993652,0.113985,0.371298,-0.161527,53,266,573,6240
1644189032.425734,-0.00885,0.007935,-0.991089,0.35826,0.417099,-0.085191,52,275,579,6240
1644189032.474112,-0.009888,0.008667,-0.992676,0.236122,0.325496,-0.115725,40,270,582,6304
1644189032.522501,-0.008179,0.010254,-0.992126,0.312458,0.386565,0.006412,47,273,582,6240
1644189032.570867,-0.006592,0.010864,-0.991211,0.312458,0.401832,0.12855,46,266,578,6224
1644189032.619261,-0.009399,0.010254,-0.991089,0.251389,0.523969,-0.100458,48,266,590,6224
1644189032.667664,-0.007507,0.010071,-0.991394,0.129252,0.279695,-0.14626,54,277,589,6224
1644189032.716053,-0.012146,0.00769,-0.990051,0.175053,0.386565,0.036947,43,279,580,6256
1644189032.764466,-0.00824,0.009155,-0.989319,0.236122,0.340763,-0.024122,47,275,577,6240
1644189032.812861,-0.008057,0.009827,-0.98938,0.388794,0.523969,-0.14626,46,276,578,6224
1644189032.861287,-0.006836,0.006714,-0.993774,0.159786,0.447634,-0.176794,52,268,582,6256
1644189032.909657,-0.007324,0.009155,-0.992249,0.175053,0.310229,-0.008855,51,283,587,6224
1644189032.958071,-0.009338,0.007935,-0.988647,0.236122,0.325496,-0.054656,55,271,592,6224
1644189033.006431,-0.005737,0.010681,-0.990112,0.266656,0.294962,0.052214,62,276,587,6240
1644189033.064252,-0.005859,0.009949,-0.990173,0.144519,0.508702,0.006412,53,283,587,6240
1644189033.105944,-0.00592,0.010315,-0.991272,0.251389,0.417099,-0.008855,53,264,580,6224
1644189033.151669,-0.008606,0.011658,-0.991028,0.175053,0.508702,-0.14626,48,274,571,6224
1644189033.199992,-0.012085,0.011597,-0.992188,0.144519,0.279695,-0.100458,49,275,591,6224
1644189033.248365,-0.008179,0.010193,-0.99408,0.266656,0.462901,-0.100458,41,281,578,6288
1644189033.296775,-0.008667,0.008728,-0.992493,0.297191,0.310229,-0.161527,48,283,583,6224
1644189033.345445,-0.007141,0.01123,-0.990906,0.205588,0.264427,0.021679,54,270,577,6224
1644189033.395946,-0.009888,0.010376,-0.992554,0.205588,0.279695,-0.039389,43,274,583,6128
1644189033.446806,-0.008179,0.00769,-0.991394,0.190321,0.340763,-0.25313,53,274,576,6192
1644189033.491166,-0.004944,0.010071,-0.991638,0.220855,0.340763,-0.100458,58,279,576,6256
1644189033.587121,-0.009521,0.007935,-0.988403,0.327725,0.340763,-0.024122,42,275,584,6240
1644189033.63551,-0.008972,0.007812,-0.989868,0.190321,0.340763,-0.14626,52,270,589,6240
1644189033.683925,-0.010376,0.010681,-0.991943,0.373527,0.417099,-0.283664,52,275,582,6176
1644189033.732386,-0.009827,0.011475,-0.992249,0.236122,0.356031,-0.039389,53,276,580,6240
1644189033.780704,-0.00946,0.010925,-0.993164,0.266656,0.233893,-0.008855,49,268,582,6240
1644189033.829097,-0.007385,0.010071,-0.990723,0.327725,0.386565,-0.100458,55,279,590,6176
1644189033.877538,-0.009399,0.009277,-0.99292,0.159786,0.340763,-0.222595,52,273,589,6224
1644189033.925937,-0.010498,0.010681,-0.993896,0.220855,0.432366,-0.024122,45,285,582,6256
1644189033.974322,-0.009766,0.009094,-0.990479,0.266656,0.371298,-0.100458,58,274,587,6224
1644189034.022715,-0.00824,0.010864,-0.990051,0.312458,0.478168,-0.008855,55,274,583,6256
1644189034.080154,-0.008667,0.01001,-0.992432,0.342992,0.554504,-0.176794,49,282,584,6176
1644189034.119511,-0.009155,0.009888,-0.99176,0.404061,0.401832,-0.100458,51,279,580,6224
1644189034.167857,-0.010742,0.009583,-0.992493,0.266656,0.462901,-0.085191,47,280,572,6192
1644189034.216244,-0.010925,0.01001,-0.991211,0.312458,0.356031,-0.192061,57,280,582,6192
1644189034.264647,-0.009766,0.009094,-0.991089,0.266656,0.371298,-0.14626,48,274,585,6176
1644189034.31301,-0.008118,0.009644,-0.993774,0.175053,0.523969,-0.069924,42,280,586,6192
1644189034.361417,-0.009399,0.009216,-0.993225,0.236122,0.218626,-0.100458,47,290,584,6224
1644189034.410073,-0.00708,0.00885,-0.992676,0.266656,0.356031,-0.161527,49,275,596,6224
1644189034.460523,-0.009216,0.008423,-0.992798,0.220855,0.401832,-0.085191,54,265,579,6224
1644189034.511174,-0.01178,0.009033,-0.992798,0.190321,0.340763,-0.039389,49,275,586,6192
1644189034.555912,-0.009033,0.009766,-0.990295,0.251389,0.325496,-0.14626,43,276,587,6256
1644189034.651774,-0.010254,0.013,-0.992737,0.312458,0.386565,-0.039389,46,271,576,6192
1644189034.700147,-0.007751,0.010437,-0.993835,0.388794,0.447634,-0.100458,52,265,577,6256
1644189034.748561,-0.008118,0.009949,-0.996216,0.175053,0.523969,-0.207328,41,279,585,6224
1644189034.796944,-0.007324,0.007996,-0.990723,0.297191,0.478168,-0.115725,45,275,582,6160
1644189034.84535,-0.009033,0.007996,-0.992554,0.175053,0.340763,-0.176794,48,271,580,6256
1644189034.893794,-0.010071,0.010376,-0.993286,0.175053,0.340763,-0.024122,49,280,572,6224
1644189034.942271,-0.008545,0.011475,-0.990967,0.205588,0.371298,-0.024122,46,283,583,6240
1644189034.990578,-0.007874,0.009155,-0.996704,0.144519,0.356031,-0.192061,42,270,586,6160
1644189035.038961,-0.006653,0.006714,-0.994385,0.312458,0.294962,-0.024122,53,286,592,6256
1644189035.091275,-0.008545,0.008606,-0.990662,0.098718,0.24916,-0.25313,33,270,582,6192
1644189035.135743,-0.007263,0.00946,-0.992554,0.205588,0.432366,0.006412,47,275,575,6192
1644189035.184109,-0.01062,0.01001,-0.994019,0.236122,0.264427,-0.130992,41,274,585,6224
1644189035.232493,-0.006714,0.006775,-0.992371,0.312458,0.432366,-0.100458,53,279,583,6240
1644189035.280867,-0.009521,0.011414,-0.991577,0.266656,0.447634,-0.085191,52,270,584,6224
1644189035.329285,-0.010925,0.007568,-0.992859,0.220855,0.462901,0.006412,54,273,582,6224
1644189035.377678,-0.011047,0.007141,-0.992371,0.098718,0.386565,-0.14626,55,279,590,6304
1644189035.426291,-0.007812,0.008606,-0.990173,0.144519,0.24916,0.036947,43,291,587,6304
1644189035.475129,-0.008606,0.009888,-0.993103,0.175053,0.493435,-0.008855,53,281,576,6176
1644189035.526131,-0.009338,0.009338,-0.992065,0.129252,0.310229,0.082748,60,269,594,6240
1644189035.575813,-0.011047,0.011169,-0.993469,0.068183,0.340763,-0.069924,43,276,587,6224
1644189035.620841,-0.00592,0.007019,-0.993591,0.297191,0.478168,-0.161527,53,283,587,6256
1644189035.71642,-0.009827,0.009949,-0.991882,0.175053,0.340763,-0.14626,43,279,578,6256
1644189035.764871,-0.011841,0.00824,-0.992065,0.220855,0.554504,-0.069924,46,274,580,6256
1644189035.813221,-0.009949,0.007568,-0.99292,0.08345,0.432366,-0.039389,55,276,573,6224
1644189035.861604,-0.01123,0.008667,-0.991272,0.190321,0.294962,-0.069924,54,275,577,6288
1644189035.910033,-0.009583,0.007629,-0.99115,0.281924,0.417099,-0.207328,43,276,585,6240
1644189035.958394,-0.009399,0.009705,-0.991089,0.220855,0.432366,-0.100458,49,270,586,6256
1644189036.006794,-0.011353,0.012024,-0.99353,0.068183,0.310229,-0.008855,53,276,573,6240
1644189036.068952,-0.009705,0.011963,-0.993774,0.220855,0.417099,0.021679,48,283,576,6256
1644189036.106188,-0.007385,0.007263,-0.990112,0.297191,0.462901,-0.207328,55,279,587,6192
1644189036.152006,-0.00647,0.012268,-0.992432,0.144519,0.264427,-0.100458,46,269,583,6224
1644189036.200362,-0.00647,0.009155,-0.991638,0.205588,0.539237,-0.039389,53,279,585,6224
1644189036.24873,-0.004883,0.010193,-0.99408,0.190321,0.356031,0.006412,54,268,596,6224
1644189036.297147,-0.008301,0.009277,-0.994141,0.205588,0.432366,-0.14626,52,275,577,6176
1644189036.345547,-0.009827,0.010864,-0.990112,0.297191,0.600305,-0.085191,42,268,593,6240
1644189036.393936,-0.008972,0.008362,-0.991943,0.190321,0.417099,0.098015,53,281,580,6176
1644189036.442333,-0.00946,0.011902,-0.990173,0.205588,0.356031,-0.176794,51,269,585,6256
1644189036.490724,-0.008301,0.006531,-0.99115,0.327725,0.325496,-0.207328,38,265,579,6256
1644189036.539105,-0.010986,0.010315,-0.992126,0.175053,0.386565,-0.14626,39,276,590,6192
1644189036.587501,-0.009949,0.010315,-0.993713,0.190321,0.356031,-0.039389,53,279,583,6224
1644189036.637646,-0.006592,0.008301,-0.990845,0.297191,0.340763,-0.14626,53,279,578,6240
1644189036.686444,-0.008728,0.008057,-0.993103,0.312458,0.325496,-0.115725,53,271,583,6160
1644189036.736677,-0.007935,0.00946,-0.991516,0.251389,0.386565,-0.069924,49,268,577,6240
1644189036.781619,-0.009888,0.010132,-0.989868,0.297191,0.340763,-0.130992,46,262,583,6288
1644189036.877851,-0.008362,0.008423,-0.991577,0.205588,0.325496,-0.192061,54,273,577,6224
1644189036.926286,-0.008362,0.011169,-0.990967,0.190321,0.356031,-0.130992,52,277,586,6240
1644189036.974889,-0.008423,0.009155,-0.991821,0.190321,0.523969,-0.100458,60,266,576,6256
1644189037.023092,-0.01001,0.008606,-0.991455,0.220855,0.478168,-0.115725,42,275,586,6224
1644189037.071531,-0.00647,0.010376,-0.99054,0.388794,0.401832,-0.054656,49,275,582,6224
1644189037.119842,-0.006165,0.010681,-0.992371,0.144519,0.417099,-0.130992,48,271,580,6192
1644189037.168227,-0.008484,0.008179,-0.995605,0.297191,0.401832,-0.024122,46,281,578,6192
1644189037.216583,-0.006531,0.007324,-0.992004,0.175053,0.447634,-0.192061,46,271,583,6256
1644189037.265044,-0.008972,0.008301,-0.993408,0.159786,0.478168,-0.039389,41,274,585,6240
1644189037.313405,-0.009705,0.007996,-0.99176,0.342992,0.432366,-0.024122,46,271,583,6224
1644189037.361788,-0.007812,0.009338,-0.990967,0.129252,0.294962,-0.054656,43,274,576,6224
1644189037.410169,-0.009766,0.011292,-0.991089,0.342992,0.356031,-0.222595,49,275,589,6256
1644189037.458571,-0.006714,0.007629,-0.991882,0.144519,0.401832,-0.100458,51,274,571,6304
1644189037.506951,-0.010376,0.009033,-0.991211,0.35826,0.294962,0.082748,55,276,585,6256
1644189037.55536,-0.005371,0.01062,-0.991272,0.373527,0.447634,-0.054656,49,273,582,6160
1644189037.603755,-0.010803,0.01178,-0.991943,0.144519,0.340763,-0.024122,45,273,586,6224
1644189037.652197,-0.010559,0.01062,-0.994507,0.312458,0.432366,-0.161527,51,276,583,6192
1644189037.70054,-0.010132,0.011169,-0.990784,0.175053,0.325496,-0.069924,48,274,580,6192
1644189037.748904,-0.008118,0.008789,-0.992249,0.266656,0.371298,-0.176794,54,265,582,6256
1644189037.797907,-0.005615,0.009705,-0.990723,0.297191,0.478168,-0.085191,55,269,580,6256
1644189037.848644,-0.010559,0.010803,-0.992859,0.08345,0.371298,0.006412,49,275,591,6224
1644189037.89884,-0.008972,0.008789,-0.991821,0.205588,0.386565,0.113282,43,264,580,6224
1644189037.943269,-0.006226,0.010193,-0.991516,0.159786,0.310229,-0.069924,45,277,575,6240
1644189038.039325,-0.01123,0.010742,-0.993103,0.236122,0.462901,-0.176794,51,286,585,6224
1644189038.091639,-0.00592,0.007812,-0.994141,0.205588,0.493435,-0.024122,57,273,589,6160
1644189038.136073,-0.011841,0.008911,-0.992249,0.327725,0.432366,-0.024122,42,275,591,6240
1644189038.184486,-0.009888,0.009094,-0.991699,0.266656,0.294962,-0.085191,42,270,589,6304
1644189038.232882,-0.008301,0.006897,-0.991211,0.220855,0.325496,-0.054656,51,288,578,6176
1644189038.281234,-0.011047,0.010376,-0.990784,0.129252,0.432366,-0.14626,42,270,589,6192
1644189038.329645,-0.008362,0.011658,-0.992249,0.098718,0.356031,-0.024122,47,273,582,6192
1644189038.37805,-0.009583,0.00769,-0.991638,0.236122,0.371298,-0.176794,48,274,590,6224
1644189038.426434,-0.00885,0.012451,-0.990662,0.46513,0.462901,-0.176794,59,268,579,6128
1644189038.474856,-0.008545,0.008545,-0.990479,0.098718,0.417099,-0.222595,51,276,592,6176
1644189038.523216,-0.009766,0.009888,-0.991577,0.220855,0.447634,-0.100458,53,283,580,6288
1644189038.571618,-0.008789,0.010437,-0.991943,0.327725,0.371298,-0.14626,38,287,582,6192
1644189038.620008,-0.011841,0.011169,-0.991455,0.113985,0.203359,0.052214,46,279,587,6176
1644189038.668402,-0.008362,0.009094,-0.993408,0.129252,0.386565,0.036947,67,269,583,6256
1644189038.716792,-0.006897,0.007751,-0.992249,0.08345,0.478168,-0.130992,41,274,592,6224
1644189038.765181,-0.005615,0.009644,-0.98877,0.266656,0.447634,-0.008855,48,274,573,6224
1644189038.813626,-0.008057,0.01355,-0.992371,0.190321,0.508702,-0.161527,52,285,582,6288
1644189038.862045,-0.010925,0.008423,-0.992004,0.312458,0.340763,-0.069924,46,276,578,6176
1644189038.911874,-0.012512,0.010498,-0.992493,0.190321,0.294962,-0.100458,57,277,591,6304
1644189038.962625,-0.006104,0.010132,-0.991028,0.159786,0.340763,0.052214,41,276,583,6224
1644189039.066061,-0.008484,0.008667,-0.991638,0.388794,0.447634,-0.069924,55,291,590,6224
1644189039.104007,-0.009216,0.008118,-0.990967,0.404061,0.462901,-0.069924,48,274,583,6224
1644189039.152345,-0.005371,0.00708,-0.992126,0.159786,0.585038,-0.222595,46,279,578,6192
1644189039.20073,-0.008728,0.006836,-0.990173,0.342992,0.340763,-0.085191,53,269,578,6192
1644189039.249097,-0.007751,0.007141,-0.989746,0.266656,0.356031,-0.008855,33,280,586,6224
1644189039.29755,-0.00708,0.009338,-0.995605,0.190321,0.340763,-0.085191,49,273,591,6176
1644189039.345903,-0.01062,0.007874,-0.991699,0.266656,0.447634,-0.039389,51,266,576,6224
1644189039.394314,-0.005554,0.01001,-0.990417,0.159786,0.554504,-0.237863,47,273,579,6176
1644189039.442711,-0.006409,0.009521,-0.990784,0.281924,0.264427,0.021679,59,270,591,6224
1644189039.491106,-0.008545,0.006409,-0.995544,0.007115,0.432366,-0.024122,53,276,585,6240
1644189039.539481,-0.008911,0.010498,-0.991699,0.281924,0.447634,-0.024122,59,273,598,6192
1644189039.587879,-0.009827,0.006653,-0.993835,0.08345,0.447634,-0.100458,43,274,587,6224
1644189039.636261,-0.009399,0.009277,-0.994507,0.251389,0.447634,-0.115725,45,290,589,6160
1644189039.684738,-0.007935,0.008057,-0.992065,0.281924,0.462901,-0.054656,52,277,584,6256
1644189039.735081,-0.007874,0.006775,-0.992798,0.236122,0.478168,0.021679,51,274,578,6224
1644189039.785198,-0.009399,0.01001,-0.991577,0.251389,0.600305,-0.329466,46,266,580,6288
1644189039.830212,-0.011963,0.009399,-0.991333,0.175053,0.523969,-0.130992,39,271,587,6240
1644189039.926638,-0.01001,0.010681,-0.993469,0.175053,0.340763,-0.176794,51,283,585,6160
1644189039.975307,-0.007385,0.009644,-0.993103,0.190321,0.462901,-0.054656,47,280,589,6224
1644189040.023448,-0.01062,0.009644,-0.994202,0.236122,0.356031,-0.069924,51,269,576,6224
1644189040.071887,-0.006531,0.010132,-0.990173,0.251389,0.432366,-0.14626,54,268,584,6224
1644189040.12023,-0.008911,0.007874,-0.990173,0.251389,0.325496,-0.130992,62,271,576,6224
1644189040.168578,-0.010376,0.010742,-0.990723,0.175053,0.478168,-0.130992,48,269,583,6240
1644189040.216982,-0.008789,0.008728,-0.992554,0.113985,0.554504,-0.176794,52,277,577,6224
1644189040.265368,-0.011108,0.00824,-0.99292,0.220855,0.371298,-0.085191,53,274,587,6224
1644189040.313769,-0.006958,0.007996,-0.992981,0.144519,0.340763,-0.115725,54,280,579,6192
1644189040.362262,-0.006165,0.008179,-0.99469,0.251389,0.462901,-0.100458,51,269,587,6224
1644189040.410549,-0.009216,0.009766,-0.994751,0.205588,0.401832,-0.375267,36,276,578,6160
1644189040.458951,-0.010803,0.009277,-0.991028,0.236122,0.508702,-0.008855,53,283,576,6160
1644189040.507323,-0.006348,0.009827,-0.993469,0.175053,0.233893,0.006412,51,269,592,6240
1644189040.555703,-0.010193,0.007202,-0.990234,0.205588,0.478168,0.036947,53,276,580,6192
1644189040.60413,-0.008362,0.008789,-0.992249,0.159786,0.356031,-0.085191,52,277,596,6240
1644189040.652534,-0.008545,0.007874,-0.989929,0.236122,0.462901,-0.130992,51,269,587,6192
1644189040.700911,-0.00824,0.007874,-0.992126,0.236122,0.493435,-0.115725,59,277,586,6256
1644189040.749269,-0.012207,0.010254,-0.991882,0.266656,0.371298,-0.14626,41,262,592,6240
1644189040.797691,-0.009766,0.011414,-0.994934,0.144519,0.462901,-0.085191,61,275,586,6240
1644189040.846599,-0.008057,0.008911,-0.992676,0.220855,0.432366,-0.100458,55,274,583,6160
1644189040.897576,-0.005249,0.009766,-0.990601,0.205588,0.294962,0.036947,46,274,587,6176
1644189040.94806,-0.007812,0.009949,-0.991638,0.175053,0.432366,-0.130992,48,286,580,6240
1644189040.992435,-0.010437,0.010559,-0.993469,0.205588,0.554504,-0.008855,47,275,582,6288
1644189041.088227,-0.010498,0.007019,-0.990479,0.175053,0.356031,-0.008855,47,277,586,6176
1644189041.136482,-0.009399,0.008972,-0.991577,0.190321,0.478168,-0.008855,43,283,594,6256
1644189041.184845,-0.010376,0.007507,-0.993958,0.266656,0.447634,-0.100458,46,274,576,6160
1644189041.233221,-0.008545,0.009216,-0.991028,0.022382,0.386565,-0.130992,62,276,583,6240
1644189041.281613,-0.00824,0.009521,-0.990173,0.236122,0.401832,-0.115725,54,277,591,6240
1644189041.329993,-0.009583,0.008667,-0.989258,0.373527,0.340763,-0.115725,45,277,572,6224
1644189041.378392,-0.006714,0.011475,-0.993042,-0.038687,0.478168,-0.039389,46,279,585,6224
1644189041.426786,-0.007996,0.009583,-0.993103,0.144519,0.371298,-0.14626,54,275,584,6224
1644189041.475267,-0.00885,0.008545,-0.991577,0.205588,0.356031,-0.069924,51,266,578,6240
1644189041.523606,-0.004211,0.010803,-0.99115,0.236122,0.340763,-0.268397,54,280,584,6240
1644189041.571981,-0.005554,0.008728,-0.991699,0.159786,0.417099,-0.115725,48,271,587,6224
1644189041.620369,-0.005615,0.007568,-0.991272,0.129252,0.417099,-0.054656,54,268,577,6224
1644189041.668768,-0.005371,0.008911,-0.990417,0.281924,0.508702,-0.161527,43,274,583,6192
1644189041.717161,-0.006653,0.009521,-0.991333,0.251389,0.386565,-0.100458,48,283,590,6256
1644189041.765548,-0.008545,0.010132,-0.988831,0.312458,0.325496,-0.024122,53,279,585,6224
1644189041.813947,-0.009094,0.010742,-0.990479,0.449863,0.417099,-0.008855,47,280,584,6256
1644189041.862386,-0.009155,0.007446,-0.992798,0.190321,0.417099,-0.085191,47,273,582,6192
1644189041.910928,-0.01001,0.008484,-0.993225,0.281924,0.462901,-0.024122,55,283,585,6176
1644189041.959182,-0.010132,0.00946,-0.991028,0.266656,0.371298,-0.069924,60,271,583,6288
1644189042.008801,-0.009338,0.007874,-0.994568,0.297191,0.401832,-0.100458,47,275,586,6224
1644189042.080968,-0.009094,0.007324,-0.993652,0.220855,0.386565,0.067481,53,281,576,6240
1644189042.152736,-0.007141,0.008545,-0.992004,0.266656,0.432366,-0.161527,53,269,576,6224
1644189042.201083,-0.00708,0.011963,-0.991211,0.220855,0.310229,-0.130992,45,277,589,6240
1644189042.249484,-0.007263,0.009583,-0.99115,0.251389,0.401832,0.052214,53,281,578,6224
1644189042.297872,-0.009399,0.013,-0.989929,0.266656,0.493435,-0.008855,57,270,582,6224
1644189042.346252,-0.008118,0.008545,-0.993591,0.159786,0.294962,0.067481,49,265,575,6160
1644189042.39467,-0.007385,0.006714,-0.993103,0.373527,0.371298,-0.115725,43,276,583,6256
1644189042.443069,-0.00824,0.010986,-0.987549,0.266656,0.340763,-0.069924,42,273,577,6240
1644189042.491807,-0.008179,0.010193,-0.989563,0.251389,0.279695,-0.14626,39,274,578,6256
1644189042.539846,-0.009766,0.007629,-0.993835,0.281924,0.340763,-0.039389,48,271,576,6240
1644189042.588217,-0.009705,0.00708,-0.990417,0.312458,0.462901,-0.14626,51,274,583,6288
1644189042.636627,-0.007141,0.011536,-0.993042,0.08345,0.401832,-0.237863,48,274,578,6256
1644189042.685126,-0.010925,0.008118,-0.990417,0.266656,0.478168,-0.192061,52,275,584,6176
1644189042.733427,-0.009277,0.006287,-0.990784,0.113985,0.340763,-0.039389,49,280,577,6176
1644189042.781804,-0.009399,0.007874,-0.992371,0.175053,0.356031,0.052214,52,270,582,6224
1644189042.830194,-0.008179,0.010986,-0.992676,0.129252,0.600305,-0.130992,49,285,582,6304
1644189042.878637,-0.01123,0.010437,-0.990723,0.236122,0.432366,-0.039389,57,270,586,6240
1644189042.927026,-0.009338,0.009583,-0.990784,0.190321,0.417099,-0.115725,51,271,590,6176
1644189042.975436,-0.00946,0.011597,-0.992859,0.144519,0.188092,-0.192061,47,277,584,6224
1644189043.023836,-0.011597,0.010376,-0.991455,0.297191,0.294962,-0.008855,48,281,583,6224
1644189043.079993,-0.007324,0.01001,-0.99176,0.113985,0.447634,-0.176794,46,279,597,6192
1644189043.123922,-0.010193,0.011963,-0.992432,0.190321,0.417099,-0.237863,40,277,589,6224
1644189043.173916,-0.009338,0.009033,-0.992493,0.175053,0.310229,-0.069924,53,283,576,6240
1644189043.218447,-0.008301,0.008728,-0.992676,0.251389,0.417099,-0.130992,48,269,578,6224
1644189043.31412,-0.008789,0.010132,-0.992432,0.297191,0.447634,-0.054656,48,274,585,6256
1644189043.362534,-0.007935,0.009888,-0.994141,-0.02342,0.325496,0.021679,47,273,589,6192
1644189043.410908,-0.007324,0.012085,-0.98761,0.190321,0.447634,-0.085191,45,275,582,6224
1644189043.459301,-0.010925,0.009521,-0.992249,0.220855,0.508702,-0.100458,53,276,585,6224
1644189043.507685,-0.007629,0.009155,-0.994934,0.144519,0.356031,-0.100458,47,277,575,6256
1644189043.556093,-0.006714,0.009155,-0.992859,0.159786,0.585038,-0.130992,42,273,586,6224
1644189043.604491,-0.010132,0.011597,-0.993652,0.144519,0.325496,-0.100458,45,275,582,6128
1644189043.652908,-0.009155,0.008057,-0.992432,0.08345,0.340763,-0.100458,48,269,580,6224
1644189043.701274,-0.009583,0.008301,-0.992554,0.251389,0.401832,-0.085191,41,266,578,6224
1644189043.749637,-0.008301,0.012817,-0.994507,0.297191,0.493435,-0.069924,51,279,583,6224
1644189043.798054,-0.008301,0.010315,-0.994629,0.236122,0.478168,-0.054656,42,270,582,6240
1644189043.846454,-0.009155,0.011475,-0.992126,0.281924,0.478168,-0.14626,36,274,578,6224
1644189043.894907,-0.009399,0.005859,-0.991882,0.236122,0.462901,-0.069924,53,279,585,6176
1644189043.943263,-0.009521,0.008606,-0.993347,0.266656,0.310229,-0.039389,48,281,580,6160
1644189043.991646,-0.009583,0.009216,-0.990723,0.159786,0.356031,-0.039389,43,276,583,6304
1644189044.040069,-0.006775,0.01123,-0.994507,0.297191,0.356031,-0.008855,51,274,576,6224
1644189044.095415,-0.010071,0.008911,-0.989563,0.312458,0.386565,-0.14626,51,274,587,6256
1644189044.136871,-0.008972,0.009094,-0.990845,0.236122,0.417099,-0.008855,53,259,587,6256
1644189044.185276,-0.007996,0.00824,-0.992188,0.327725,0.417099,-0.024122,48,271,580,6224
1644189044.234789,-0.009033,0.008301,-0.991882,0.236122,0.432366,-0.14626,57,273,582,6240
1644189044.2849,-0.01062,0.012939,-0.992188,0.129252,0.294962,-0.161527,43,274,580,6256
1644189044.335259,-0.00824,0.011108,-0.992615,0.007115,0.325496,-0.008855,45,282,589,6224
1644189044.379893,-0.009888,0.011536,-0.992371,0.251389,0.371298,-0.176794,41,271,571,6176
1644189044.475585,-0.007874,0.009399,-0.991638,0.251389,0.447634,-0.039389,49,273,579,6224
1644189044.524013,-0.010132,0.00708,-0.993591,0.190321,0.386565,0.036947,43,279,583,6176
1644189044.57244,-0.008301,0.010376,-0.990845,0.297191,0.356031,-0.054656,53,276,580,6224
1644189044.620779,-0.009155,0.009094,-0.992981,0.220855,0.447634,-0.14626,46,266,585,6224
1644189044.669176,-0.009521,0.009216,-0.991516,0.236122,0.493435,-0.069924,54,275,579,6224
1644189044.717549,-0.010132,0.012024,-0.992065,0.220855,0.417099,-0.161527,49,273,584,6240
1644189044.76595,-0.010986,0.012451,-0.992615,0.251389,0.447634,-0.085191,45,287,579,6240
1644189044.814358,-0.010376,0.011169,-0.990356,0.205588,0.432366,-0.268397,47,273,586,6160
1644189044.862751,-0.008118,0.009216,-0.990906,0.144519,0.386565,-0.222595,46,279,576,6240
1644189044.911134,-0.008972,0.01001,-0.988647,0.159786,0.401832,-0.039389,51,269,587,6240
1644189044.959534,-0.006836,0.009399,-0.991211,0.220855,0.417099,-0.100458,51,276,583,6240
1644189045.008299,-0.005493,0.010437,-0.99054,0.205588,0.539237,0.036947,47,280,579,6224
1644189045.067737,-0.008911,0.01123,-0.993347,0.205588,0.325496,-0.054656,60,286,585,6176
1644189045.104664,-0.007874,0.009949,-0.99115,0.159786,0.340763,-0.192061,49,280,586,6224
1644189045.153064,-0.007385,0.010498,-0.991028,0.373527,0.386565,-0.176794,67,281,587,6192
1644189045.201453,-0.009399,0.009094,-0.994019,0.175053,0.401832,0.12855,43,288,580,6224
1644189045.249823,-0.008667,0.009583,-0.993225,0.205588,0.462901,-0.115725,49,265,582,6240
1644189045.298213,-0.006104,0.008911,-0.98938,0.281924,0.508702,-0.222595,55,279,583,6256
1644189045.346636,-0.008667,0.012146,-0.989563,0.175053,0.371298,-0.008855,45,265,589,6288
1644189045.395286,-0.008545,0.005859,-0.992737,0.129252,0.417099,-0.069924,59,277,584,6224
1644189045.445775,-0.010132,0.008911,-0.987732,0.236122,0.371298,-0.161527,58,274,590,6336
1644189045.496271,-0.009277,0.008728,-0.994385,0.342992,0.371298,-0.085191,53,279,580,6224
1644189045.540958,-0.009399,0.010864,-0.993774,0.205588,0.401832,-0.268397,53,274,576,6240
1644189045.636979,-0.007568,0.007507,-0.991211,0.297191,0.462901,0.021679,51,274,583,6240
1644189045.685384,-0.009338,0.01123,-0.99176,0.205588,0.447634,0.021679,49,273,589,6160
1644189045.733791,-0.007629,0.011169,-0.992859,0.220855,0.356031,-0.024122,49,277,586,6256
1644189045.782377,-0.010315,0.012451,-0.990601,0.08345,0.371298,0.021679,45,282,582,6192
1644189045.830583,-0.008301,0.008545,-0.995178,0.297191,0.523969,-0.207328,59,277,586,6192
1644189045.878993,-0.006592,0.006897,-0.989807,0.113985,0.401832,-0.085191,46,266,583,6256
1644189045.927392,-0.011475,0.008972,-0.991638,0.312458,0.264427,-0.039389,48,276,592,6240
1644189045.97579,-0.008301,0.010315,-0.993164,0.342992,0.432366,-0.130992,49,265,582,6240
1644189046.024176,-0.008118,0.00824,-0.993835,0.312458,0.203359,-0.008855,49,277,579,6256
1644189046.076624,-0.009888,0.008179,-0.990356,0.266656,0.417099,-0.237863,58,269,590,6224
1644189046.120952,-0.008667,0.010315,-0.990967,0.159786,0.447634,-0.130992,46,269,580,6240
1644189046.169285,-0.006714,0.009094,-0.989014,0.327725,0.386565,-0.176794,54,275,579,6224
1644189046.2177,-0.008606,0.00769,-0.992798,0.175053,0.462901,-0.161527,51,271,587,6224
1644189046.266091,-0.007629,0.012329,-0.993958,0.236122,0.432366,-0.085191,54,287,582,6224
1644189046.314475,-0.010986,0.010803,-0.989258,0.251389,0.523969,0.067481,47,273,582,6240
1644189046.362909,-0.007996,0.010681,-0.991638,0.113985,0.325496,-0.130992,52,277,584,6240
1644189046.411276,-0.006165,0.007568,-0.991516,0.220855,0.401832,-0.085191,46,269,573,6256
1644189046.459677,-0.009521,0.011475,-0.992188,0.297191,0.325496,-0.054656,51,274,583,6256
1644189046.508068,-0.009277,0.009155,-0.991211,0.129252,0.325496,-0.069924,51,269,590,6240
1644189046.556676,-0.008423,0.008606,-0.992188,0.190321,0.462901,-0.024122,41,276,578,6256
1644189046.607158,-0.006042,0.008423,-0.992249,0.205588,0.325496,-0.054656,42,277,579,6160
1644189046.657546,-0.008362,0.008606,-0.990173,0.205588,0.203359,-0.054656,47,270,596,6224
1644189046.702433,-0.007812,0.011292,-0.989136,0.175053,0.310229,-0.192061,47,277,577,6288
1644189046.79841,-0.00769,0.011597,-0.993713,0.175053,0.539237,-0.008855,42,285,589,6224
1644189046.846876,-0.009399,0.006714,-0.992065,0.205588,0.401832,-0.130992,48,286,585,6176
1644189046.895238,-0.007935,0.009277,-0.991272,0.159786,0.432366,-0.054656,45,280,589,6224
1644189046.943655,-0.007446,0.010376,-0.991882,0.281924,0.417099,-0.161527,51,281,580,6240
1644189046.992037,-0.008972,0.007751,-0.990723,0.220855,0.508702,-0.192061,46,283,571,6192
1644189047.040441,-0.006836,0.012451,-0.992004,0.113985,0.478168,-0.115725,48,276,583,6224
1644189047.094819,-0.006409,0.010925,-0.991089,0.175053,0.356031,-0.115725,39,276,583,6304
1644189047.137179,-0.010498,0.006531,-0.993164,0.251389,0.493435,0.036947,49,275,577,6176
1644189047.185565,-0.00885,0.009949,-0.991455,0.281924,0.432366,-0.176794,54,275,586,6224
1644189047.233966,-0.010071,0.011292,-0.989746,0.281924,0.218626,-0.222595,45,277,589,6192
1644189047.282365,-0.007568,0.010986,-0.991821,0.266656,0.371298,0.098015,42,275,584,6224
1644189047.330726,-0.005554,0.010681,-0.99115,0.35826,0.340763,-0.25313,49,275,591,6256
1644189047.379141,-0.009277,0.010437,-0.993225,-0.02342,0.325496,0.067481,49,277,584,6304
1644189047.427532,-0.007324,0.011475,-0.988464,0.129252,0.432366,-0.161527,49,270,579,6176
1644189047.476629,-0.009766,0.008057,-0.992737,0.175053,0.432366,-0.115725,53,279,583,6192
1644189047.525126,-0.009277,0.014038,-0.992737,0.312458,0.432366,-0.25313,49,275,586,6192
1644189047.575687,-0.008911,0.009949,-0.99176,0.266656,0.310229,0.052214,52,285,586,6256
1644189047.625757,-0.007202,0.009827,-0.993347,0.159786,0.401832,-0.085191,47,280,579,6160
1644189047.71787,-0.008057,0.00946,-0.993286,0.388794,0.401832,-0.192061,52,285,586,6192
1644189047.766272,-0.007812,0.009583,-0.993347,0.342992,0.371298,-0.039389,51,288,583,6240
1644189047.815125,-0.00824,0.012634,-0.991516,0.327725,0.462901,-0.024122,58,281,583,6336
1644189047.863132,-0.008667,0.008606,-0.991272,0.175053,0.401832,-0.115725,49,282,584,6160
1644189047.911504,-0.010925,0.010864,-0.991943,0.159786,0.417099,0.052214,51,269,590,6192
1644189047.959909,-0.010132,0.011536,-0.991882,0.144519,0.325496,-0.207328,55,279,585,6192
1644189048.00829,-0.006348,0.009583,-0.990967,0.266656,0.523969,-0.161527,45,277,591,6224
1644189048.070385,-0.008484,0.008301,-0.992554,0.205588,0.294962,-0.176794,47,287,589,6336
1644189048.105589,-0.007324,0.008545,-0.992249,0.266656,0.340763,-0.100458,46,274,585,6240
1644189048.153418,-0.008972,0.010925,-0.991028,0.266656,0.432366,-0.115725,52,270,575,6224
1644189048.201814,-0.009888,0.010925,-0.993469,0.144519,0.310229,-0.085191,58,276,585,6192
1644189048.250221,-0.008728,0.009705,-0.990173,0.281924,0.417099,-0.237863,48,279,580,6160
1644189048.298614,-0.009949,0.012146,-0.993835,0.327725,0.493435,-0.222595,51,264,580,6176
1644189048.346981,-0.007935,0.010864,-0.991882,0.236122,0.569771,-0.222595,52,290,575,6224
1644189048.395399,-0.007996,0.010986,-0.993591,0.266656,0.401832,-0.25313,45,275,591,6240
1644189048.443798,-0.009644,0.009644,-0.993225,0.342992,0.386565,-0.192061,52,275,582,6256
1644189048.492385,-0.007996,0.008484,-0.992554,0.342992,0.386565,-0.100458,57,281,580,6240
1644189048.540574,-0.005188,0.008301,-0.992493,-0.038687,0.340763,0.006412,52,277,575,6240
1644189048.589033,-0.009827,0.01001,-0.992981,0.08345,0.432366,0.021679,52,282,579,6192
1644189048.637791,-0.010132,0.01001,-0.993958,0.113985,0.417099,-0.039389,55,266,590,6224
1644189048.688787,-0.009644,0.011414,-0.988464,0.266656,0.340763,-0.115725,49,275,586,6128
1644189048.738361,-0.008728,0.012451,-0.992493,0.190321,0.233893,-0.161527,52,270,586,6224
1644189048.783517,-0.008606,0.012451,-0.99054,0.251389,0.371298,-0.176794,49,277,582,6192
1644189048.879356,-0.008057,0.007996,-0.989502,0.266656,0.508702,-0.115725,47,268,584,6240
1644189048.927753,-0.009155,0.008545,-0.992371,0.175053,0.447634,0.021679,43,288,578,6176
1644189048.976127,-0.007324,0.009338,-0.996216,0.113985,0.447634,-0.207328,49,277,575,6240
1644189049.024546,-0.007996,0.009399,-0.990173,0.190321,0.432366,-0.14626,51,274,585,6240
1644189049.07491,-0.010376,0.010193,-0.99176,0.251389,0.447634,-0.14626,54,270,582,6240
1644189049.12131,-0.009644,0.007324,-0.992798,0.098718,0.356031,-0.054656,40,273,582,6192
1644189049.169678,-0.007629,0.006592,-0.991089,0.190321,0.462901,-0.176794,46,276,580,6256
1644189049.218062,-0.009399,0.008545,-0.98999,0.251389,0.432366,-0.100458,57,280,586,6240
1644189049.266478,-0.008972,0.00824,-0.992004,0.098718,0.523969,-0.130992,53,276,583,6256
1644189049.31487,-0.00946,0.007751,-0.993896,-0.038687,0.478168,-0.100458,49,275,582,6224
1644189049.363282,-0.010071,0.008179,-0.992737,0.297191,0.417099,-0.085191,41,264,576,6288
1644189049.411644,-0.009033,0.010132,-0.990967,0.175053,0.417099,-0.054656,45,282,584,6240
1644189049.46005,-0.009827,0.011658,-0.994141,0.205588,0.340763,-0.054656,52,282,586,6192
1644189049.508414,-0.010193,0.007812,-0.991882,0.220855,0.340763,-0.100458,57,273,584,6192
1644189049.556841,-0.008606,0.007202,-0.992126,0.159786,0.356031,-0.039389,41,276,585,6256
1644189049.605383,-0.010437,0.008972,-0.993103,0.159786,0.310229,-0.161527,47,263,591,6224
1644189049.653614,-0.010193,0.009399,-0.992981,0.342992,0.493435,0.006412,55,274,583,6224
1644189049.702007,-0.00824,0.007324,-0.990662,0.327725,0.585038,-0.024122,45,277,589,6224
1644189049.750373,-0.009155,0.010498,-0.991516,0.312458,0.356031,0.006412,47,277,584,6128
1644189049.79897,-0.009705,0.007568,-0.991821,0.205588,0.447634,-0.100458,55,283,587,6224
1644189049.849448,-0.008362,0.011414,-0.99353,0.327725,0.401832,-0.085191,46,271,576,6256
1644189049.900526,-0.009277,0.008423,-0.992004,0.251389,0.417099,0.052214,58,279,580,6240
1644189049.945183,-0.010193,0.010864,-0.992859,-0.038687,0.371298,-0.192061,55,274,592,6224
1644189050.040788,-0.007385,0.011292,-0.991638,0.281924,0.493435,0.036947,52,280,577,6288
1644189050.090767,-0.008972,0.009521,-0.989075,0.205588,0.294962,-0.14626,49,280,584,6256
1644189050.13756,-0.00824,0.010376,-0.990845,0.251389,0.493435,0.036947,48,279,576,6224
1644189050.185949,-0.012756,0.007629,-0.992676,0.068183,0.386565,0.052214,38,277,582,6192
1644189050.234323,-0.006226,0.008606,-0.99231,0.266656,0.554504,-0.069924,46,281,578,6224
1644189050.282747,-0.008301,0.011353,-0.99231,0.159786,0.493435,-0.008855,49,277,572,6240
1644189050.331115,-0.009705,0.00885,-0.990845,0.281924,0.279695,-0.069924,49,277,579,6224
1644189050.379519,-0.007446,0.008301,-0.991577,0.220855,0.493435,-0.115725,47,275,579,6176
1644189050.427906,-0.007324,0.009216,-0.992188,0.205588,0.386565,-0.115725,51,281,585,6176
1644189050.476294,-0.00824,0.008484,-0.993469,0.281924,0.386565,-0.069924,53,281,592,6192
1644189050.524713,-0.010376,0.00824,-0.989502,0.113985,0.356031,-0.207328,54,270,586,6176
1644189050.573107,-0.006592,0.007874,-0.989197,0.068183,0.523969,-0.115725,42,280,582,6192
1644189050.62147,-0.009399,0.012024,-0.992126,0.327725,0.447634,-0.161527,66,280,579,6192
1644189050.66988,-0.007812,0.01123,-0.9953,0.190321,0.356031,-0.039389,46,271,585,6224
1644189050.718261,-0.007263,0.00885,-0.990234,0.251389,0.432366,-0.100458,52,280,582,6224
1644189050.766663,-0.010254,0.00708,-0.996094,0.281924,0.493435,-0.176794,47,275,582,6176
1644189050.815089,-0.011169,0.009399,-0.99408,0.251389,0.325496,0.006412,46,279,585,6256
1644189050.863466,-0.009277,0.007446,-0.992004,0.266656,0.279695,0.021679,49,270,577,6160
1644189050.91187,-0.008301,0.007568,-0.989868,0.312458,0.325496,-0.069924,45,280,579,6240
1644189050.961624,-0.009216,0.008606,-0.991577,0.220855,0.325496,-0.283664,53,279,592,6192
1644189051.065194,-0.008728,0.008118,-0.994629,0.236122,0.340763,-0.314198,54,275,579,6224
1644189051.107877,-0.008545,0.010559,-0.992981,0.190321,0.508702,-0.130992,43,276,580,6224
1644189051.153828,-0.008423,0.009094,-0.98999,0.220855,0.325496,-0.039389,55,274,578,6192
1644189051.202204,-0.008118,0.01123,-0.992981,0.281924,0.356031,-0.085191,45,280,577,6176
1644189051.250567,-0.008911,0.009949,-0.992004,0.220855,0.279695,0.006412,48,274,580,6224
1644189051.298972,-0.011475,0.010681,-0.988403,0.190321,0.432366,-0.054656,48,281,576,6240
1644189051.347376,-0.008911,0.011902,-0.989807,0.236122,0.371298,-0.069924,43,279,573,6240
1644189051.395763,-0.012817,0.009705,-0.994873,0.129252,0.523969,-0.100458,36,279,578,6224
1644189051.444173,-0.009277,0.008484,-0.992615,0.113985,0.340763,-0.054656,58,276,580,6224
1644189051.49254,-0.006531,0.009399,-0.994873,0.190321,0.462901,-0.100458,47,275,584,6224
1644189051.540938,-0.011536,0.009888,-0.994812,0.144519,0.493435,-0.054656,55,279,587,6240
1644189051.589334,-0.010742,0.011597,-0.990356,0.144519,0.493435,-0.161527,60,276,587,6240
1644189051.637728,-0.010132,0.009338,-0.992859,0.190321,0.508702,-0.161527,46,274,585,6224
1644189051.686115,-0.007996,0.010376,-0.994019,0.190321,0.356031,-0.237863,46,281,585,6224
1644189051.734514,-0.007935,0.008606,-0.98999,0.190321,0.539237,-0.100458,47,275,582,6224
1644189051.783433,-0.007874,0.01178,-0.99115,0.205588,0.478168,-0.008855,53,276,578,6240
1644189051.833795,-0.011169,0.011292,-0.99115,-0.008153,0.539237,-0.176794,57,273,591,6224
1644189051.883967,-0.007141,0.008484,-0.991211,0.220855,0.356031,-0.25313,58,274,583,6256
1644189051.929464,-0.007263,0.011536,-0.992554,0.098718,0.340763,0.052214,48,269,580,6256
1644189052.02491,-0.009644,0.007385,-0.993225,0.159786,0.478168,-0.115725,58,269,573,6288
1644189052.074839,-0.008789,0.009949,-0.990173,0.35826,0.462901,-0.192061,54,265,586,6224
1644189052.121629,-0.008545,0.009949,-0.989502,0.297191,0.386565,-0.222595,51,279,585,6240
1644189052.170038,-0.008118,0.007263,-0.992249,0.297191,0.264427,-0.054656,53,266,578,6256
1644189052.218442,-0.009338,0.011658,-0.991577,0.007115,0.325496,-0.283664,55,281,590,6224
1644189052.266833,-0.011353,0.009888,-0.991272,0.205588,0.340763,-0.115725,57,280,579,6240
1644189052.315356,-0.007568,0.00885,-0.992737,0.08345,0.294962,-0.085191,54,275,577,6224
1644189052.363626,-0.008789,0.009766,-0.99176,0.251389,0.478168,-0.100458,49,275,586,6176
1644189052.41202,-0.010254,0.008911,-0.991821,0.312458,0.462901,-0.222595,48,274,587,6304
1644189052.460418,-0.007629,0.008118,-0.991577,0.113985,0.356031,-0.192061,48,281,587,6224
1644189052.5088,-0.009583,0.007751,-0.990601,0.266656,0.386565,-0.054656,47,277,579,6224
1644189052.557191,-0.009399,0.007751,-0.992432,0.205588,0.401832,-0.008855,43,274,597,6192
1644189052.605597,-0.009399,0.011414,-0.993958,0.220855,0.554504,-0.069924,52,275,582,6224
1644189052.653994,-0.008057,0.010132,-0.98999,0.281924,0.432366,-0.14626,49,282,586,6192
1644189052.702395,-0.006653,0.008789,-0.991455,0.190321,0.462901,-0.054656,47,280,584,6224
1644189052.750765,-0.010315,0.009033,-0.992065,0.266656,0.386565,-0.161527,59,277,579,6256
1644189052.799201,-0.008423,0.009705,-0.992798,0.068183,0.371298,-0.024122,47,282,584,6176
1644189052.847587,-0.00885,0.010925,-0.995911,0.266656,0.325496,-0.237863,57,277,593,6224
1644189052.896001,-0.009583,0.008484,-0.989929,0.297191,0.233893,-0.085191,39,279,585,6192
1644189052.945626,-0.009399,0.009216,-0.990234,0.404061,0.615573,0.021679,54,273,589,6256
1644189052.996629,-0.009827,0.009705,-0.989868,0.175053,0.356031,-0.100458,51,276,592,6224
1644189053.046164,-0.011414,0.008362,-0.991089,0.113985,0.401832,0.113282,45,273,572,6288
1644189053.092839,-0.009583,0.009766,-0.99115,0.022382,0.523969,-0.130992,59,282,582,6224
1644189053.186293,-0.007263,0.007935,-0.993347,0.159786,0.356031,-0.024122,54,265,584,6224
1644189053.234862,-0.006531,0.009399,-0.99176,0.144519,0.417099,-0.039389,49,277,591,6256
1644189053.283088,-0.009705,0.010315,-0.992065,0.312458,0.371298,-0.054656,46,283,571,6256
1644189053.33148,-0.008362,0.00647,-0.991272,0.297191,0.325496,-0.115725,42,277,582,6192
1644189053.379873,-0.008972,0.012817,-0.993225,0.220855,0.432366,0.036947,46,276,578,6224
1644189053.428259,-0.008118,0.011047,-0.99176,0.190321,0.691908,0.082748,47,273,586,6192
1644189053.476655,-0.009399,0.007202,-0.991943,0.342992,0.386565,-0.130992,51,283,578,6224
1644189053.525075,-0.00824,0.009888,-0.994385,0.205588,0.569771,-0.130992,46,271,578,6224
1644189053.573445,-0.008301,0.01001,-0.99176,0.220855,0.386565,-0.024122,51,264,594,6176
1644189053.621846,-0.010071,0.010742,-0.991089,0.220855,0.539237,-0.192061,49,277,579,6256
1644189053.670242,-0.007812,0.007202,-0.990906,0.281924,0.294962,-0.100458,42,265,575,6288
1644189053.718629,-0.006836,0.009583,-0.991394,0.098718,0.432366,-0.115725,47,280,579,6256
1644189053.767029,-0.011414,0.010559,-0.992249,0.175053,0.417099,0.082748,48,271,594,6224
1644189053.815421,-0.008362,0.012634,-0.99292,0.312458,0.310229,-0.085191,58,274,585,6128
1644189053.863851,-0.007141,0.008545,-0.99469,0.281924,0.340763,-0.130992,46,274,585,6176
1644189053.912833,-0.00769,0.012085,-0.992249,0.236122,0.447634,-0.115725,51,281,583,6240
1644189053.960608,-0.011963,0.01001,-0.993958,0.220855,0.264427,-0.069924,62,274,576,6240
1644189054.009086,-0.009216,0.007935,-0.990601,0.037649,0.478168,-0.024122,51,283,583,6224
1644189054.075376,-0.009094,0.012146,-0.992737,0.190321,0.417099,-0.008855,51,266,583,6240
1644189054.112342,-0.007141,0.007874,-0.992065,0.404061,0.508702,-0.130992,64,273,584,6224
1644189054.156718,-0.008362,0.011536,-0.991577,0.144519,0.493435,-0.115725,51,266,590,6224
1644189054.206816,-0.009583,0.008728,-0.993591,0.220855,0.356031,0.036947,49,265,579,6240
1644189054.251778,-0.007812,0.008911,-0.992981,0.297191,0.417099,-0.100458,57,270,589,6240
1644189054.347722,-0.009949,0.01062,-0.991699,0.205588,0.447634,0.006412,55,279,573,6224
1644189054.396107,-0.008545,0.008301,-0.989563,0.220855,0.401832,-0.161527,47,263,575,6160
1644189054.444494,-0.009033,0.012817,-0.992493,0.159786,0.325496,-0.069924,42,280,584,6192
1644189054.492911,-0.007324,0.010193,-0.994019,0.388794,0.386565,-0.008855,54,270,577,6304
1644189054.5413,-0.007935,0.010132,-0.992676,0.08345,0.432366,0.113282,59,277,589,6240
1644189054.589706,-0.008423,0.012207,-0.990417,0.144519,0.340763,-0.024122,47,268,584,6304
1644189054.638088,-0.008484,0.010986,-0.991089,0.190321,0.310229,-0.192061,48,266,576,6224
1644189054.686485,-0.008179,0.010376,-0.994446,0.327725,0.325496,-0.14626,38,285,579,6192
1644189054.734879,-0.008911,0.00824,-0.991333,0.098718,0.417099,-0.25313,47,273,584,6256
1644189054.783292,-0.007263,0.007263,-0.991211,0.113985,0.432366,0.036947,40,282,579,6224
1644189054.831709,-0.00824,0.009277,-0.992249,0.08345,0.340763,-0.100458,47,275,575,6288
1644189054.8801,-0.008179,0.009888,-0.991333,0.175053,0.356031,-0.085191,58,274,580,6192
1644189054.928488,-0.009827,0.008667,-0.98999,0.129252,0.233893,0.006412,48,274,576,6288
1644189054.976891,-0.009766,0.010376,-0.993408,0.144519,0.508702,-0.085191,49,280,579,6176
1644189055.025269,-0.009766,0.01062,-0.988708,0.159786,0.417099,-0.039389,53,271,580,6240
1644189055.093833,-0.007385,0.007996,-0.991394,0.159786,0.294962,-0.039389,38,282,584,6256
1644189055.123925,-0.010193,0.009277,-0.991455,0.205588,0.386565,-0.039389,48,274,578,6256
1644189055.173541,-0.010193,0.011108,-0.987976,0.281924,0.401832,-0.069924,43,283,585,6256
1644189055.223793,-0.00885,0.007629,-0.992065,0.205588,0.462901,-0.14626,51,269,590,6240
1644189055.315621,-0.009949,0.010681,-0.99115,0.312458,0.356031,-0.14626,51,274,583,6176
1644189055.363994,-0.010193,0.007874,-0.991333,0.266656,0.325496,-0.039389,51,276,580,6256
1644189055.412402,-0.009583,0.009583,-0.99176,0.220855,0.386565,-0.069924,52,282,584,6256
1644189055.460757,-0.00946,0.009644,-0.992615,0.434595,0.478168,-0.085191,54,275,589,6224
1644189055.50915,-0.006042,0.011414,-0.990295,0.129252,0.462901,-0.115725,51,281,590,6256
1644189055.557566,-0.010315,0.012695,-0.990356,0.312458,0.371298,-0.069924,53,274,580,6240
1644189055.605957,-0.007385,0.005371,-0.990479,0.251389,0.462901,0.036947,49,270,577,6224
1644189055.654354,-0.009399,0.00946,-0.992615,0.08345,0.417099,-0.161527,51,264,580,6256
1644189055.702764,-0.007996,0.008484,-0.990417,0.327725,0.417099,-0.054656,48,281,583,6176
1644189055.751108,-0.00946,0.010437,-0.991089,0.327725,0.340763,-0.130992,53,274,578,6176
1644189055.799538,-0.008545,0.009155,-0.99176,0.327725,0.356031,0.098015,52,287,577,6288
1644189055.847956,-0.006836,0.010864,-0.993286,0.052916,0.417099,-0.024122,48,269,585,6192
1644189055.896355,-0.009583,0.00946,-0.989441,0.175053,0.386565,-0.222595,39,279,580,6192
1644189055.944752,-0.009338,0.012146,-0.992554,0.266656,0.554504,-0.176794,53,274,580,6240
1644189055.993147,-0.010742,0.009277,-0.991089,0.190321,0.462901,-0.069924,61,268,586,6224
1644189056.041528,-0.008789,0.009705,-0.992371,0.190321,0.401832,-0.192061,55,271,597,6224
1644189056.093463,-0.008728,0.009949,-0.993958,0.098718,0.356031,-0.192061,55,276,578,6240
1644189056.138247,-0.007324,0.010986,-0.992859,0.144519,0.340763,-0.085191,55,279,590,6256
1644189056.186671,-0.009033,0.01001,-0.99231,0.220855,0.310229,-0.161527,52,277,591,6256
1644189056.235718,-0.007568,0.010254,-0.990417,0.175053,0.508702,-0.161527,52,270,591,6240
1644189056.286446,-0.00647,0.007812,-0.992004,0.236122,0.417099,-0.115725,40,273,579,6192
1644189056.336575,-0.012329,0.010071,-0.99231,0.297191,0.386565,-0.054656,46,279,583,6192
1644189056.381452,-0.009216,0.006958,-0.992798,0.373527,0.493435,-0.161527,43,274,583,6192
1644189056.476998,-0.00885,0.007812,-0.993469,0.175053,0.539237,-0.069924,53,279,583,6224
1644189056.525413,-0.01123,0.006348,-0.992859,0.220855,0.371298,-0.100458,48,269,580,6224
1644189056.573823,-0.009949,0.010681,-0.994446,0.068183,0.294962,0.021679,48,271,590,6240
1644189056.622387,-0.01123,0.006653,-0.992676,0.266656,0.401832,-0.130992,58,281,576,6192
1644189056.670594,-0.008606,0.01062,-0.991333,0.220855,0.417099,-0.207328,45,273,586,6224
1644189056.718993,-0.007935,0.006897,-0.99231,0.327725,0.371298,-0.207328,60,279,578,6224
1644189056.767381,-0.010132,0.010132,-0.992126,0.113985,0.340763,-0.024122,60,271,587,6240
1644189056.815783,-0.011902,0.007812,-0.99176,0.190321,0.325496,-0.176794,47,268,584,6224
1644189056.864223,-0.010132,0.009644,-0.992859,0.327725,0.401832,-0.085191,57,277,579,6224
1644189056.912621,-0.010925,0.00885,-0.992249,0.236122,0.356031,-0.054656,42,280,577,6224
1644189056.960991,-0.008911,0.007324,-0.990112,0.297191,0.401832,-0.130992,40,282,577,6224
1644189057.009374,-0.009521,0.00769,-0.989746,0.144519,0.615573,-0.039389,45,285,584,6224
1644189057.064969,-0.009216,0.008484,-0.990234,0.220855,0.462901,0.021679,52,270,589,6256
1644189057.106684,-0.010071,0.011414,-0.993103,0.266656,0.432366,-0.039389,45,280,582,6304
1644189057.154533,-0.009705,0.009888,-0.991455,0.144519,0.371298,-0.039389,62,274,580,6224
1644189057.202935,-0.006531,0.011108,-0.989807,0.220855,0.417099,-0.039389,46,271,578,6256
1644189057.251298,-0.010254,0.00708,-0.991272,0.297191,0.386565,-0.039389,48,281,590,6240
1644189057.299712,-0.00824,0.00885,-0.99231,0.220855,0.279695,-0.008855,48,281,592,6160
1644189057.348104,-0.007446,0.01062,-0.993652,0.35826,0.523969,-0.008855,47,277,579,6256
1644189057.396515,-0.011353,0.006897,-0.991882,0.052916,0.432366,-0.039389,52,280,584,6240
1644189057.446753,-0.010193,0.00769,-0.991333,0.144519,0.554504,-0.115725,46,266,580,6224
1644189057.497923,-0.008972,0.009644,-0.993225,0.236122,0.493435,0.006412,52,275,589,6240
1644189057.542245,-0.009216,0.010437,-0.992249,0.342992,0.432366,-0.069924,58,281,580,6304
1644189057.638446,-0.007751,0.011536,-0.991272,0.419328,0.478168,-0.192061,53,276,590,6224
1644189057.686839,-0.009644,0.009888,-0.991516,0.35826,0.585038,-0.039389,41,283,583,6304
1644189057.7354,-0.01062,0.009399,-0.992188,0.220855,0.417099,0.006412,42,282,584,6224
1644189057.783646,-0.009094,0.011536,-0.991882,0.220855,0.279695,0.021679,48,288,573,6224
1644189057.832035,-0.009033,0.007446,-0.993103,0.251389,0.462901,-0.039389,47,268,586,6192
1644189057.88046,-0.010132,0.008606,-0.99469,0.404061,0.462901,0.021679,39,279,585,6240
1644189057.928861,-0.006775,0.007202,-0.992249,0.251389,0.294962,-0.039389,40,273,582,6192
1644189057.97726,-0.010071,0.01001,-0.993774,0.220855,0.356031,-0.054656,45,275,586,6256
1644189058.025657,-0.009705,0.007935,-0.990479,0.159786,0.356031,-0.329466,47,280,582,6176
1644189058.078499,-0.009033,0.005493,-0.993286,0.190321,0.310229,-0.008855,57,277,593,6224
1644189058.122401,-0.010742,0.011292,-0.99231,0.129252,0.539237,-0.085191,55,279,576,6256
1644189058.170791,-0.005737,0.009521,-0.989502,0.144519,0.371298,-0.283664,46,281,587,6224
1644189058.219144,-0.010681,0.006897,-0.992554,0.190321,0.493435,0.006412,46,283,587,6192
1644189058.267581,-0.008972,0.008606,-0.991272,0.113985,0.462901,-0.054656,45,280,584,6176
1644189058.315973,-0.010742,0.007935,-0.993286,0.281924,0.401832,0.021679,49,277,582,6224
1644189058.364356,-0.009521,0.00824,-0.994324,0.098718,0.356031,-0.130992,49,285,582,6240
1644189058.412764,-0.006104,0.009888,-0.99408,0.098718,0.462901,-0.024122,41,271,585,6256
1644189058.461136,-0.010132,0.009949,-0.993469,0.281924,0.417099,0.052214,54,282,589,6160
1644189058.509617,-0.007751,0.008484,-0.992065,0.205588,0.432366,-0.283664,46,279,583,6240
1644189058.558598,-0.007751,0.008789,-0.994019,0.175053,0.462901,-0.039389,53,291,583,6304
1644189058.608971,-0.009827,0.005737,-0.990662,0.236122,0.356031,-0.14626,39,279,585,6192
1644189058.65907,-0.007202,0.007568,-0.994019,0.159786,0.340763,0.021679,45,270,593,6224
1644189058.70401,-0.008728,0.008301,-0.995239,0.220855,0.340763,-0.085191,53,269,590,6240
1644189058.799889,-0.007324,0.009033,-0.993225,0.159786,0.340763,-0.085191,45,270,589,6192
1644189058.848255,-0.010803,0.011597,-0.992188,0.068183,0.447634,-0.161527,46,276,583,6304
1644189058.896711,-0.011475,0.007935,-0.991028,0.281924,0.478168,0.021679,46,279,580,6176
1644189058.94521,-0.007935,0.010315,-0.989868,-0.008153,0.493435,-0.176794,45,280,579,6240
1644189058.993492,-0.009094,0.008484,-0.99054,0.236122,0.447634,-0.14626,41,279,587,6224
1644189059.041913,-0.008484,0.01239,-0.991333,0.404061,0.447634,0.006412,47,275,584,6224
1644189059.090609,-0.01001,0.007141,-0.993042,0.190321,0.294962,-0.100458,52,282,584,6256
1644189059.138693,-0.01001,0.009338,-0.992737,0.037649,0.401832,-0.115725,49,277,582,6224
1644189059.187044,-0.010071,0.007751,-0.993835,0.281924,0.478168,-0.069924,47,282,586,6224
1644189059.235436,-0.007446,0.007935,-0.991089,0.388794,0.432366,-0.069924,49,273,589,6288
1644189059.283843,-0.010315,0.008362,-0.992554,0.236122,0.356031,-0.176794,46,276,580,6240
1644189059.332245,-0.008362,0.008179,-0.989075,0.144519,0.371298,0.052214,59,285,586,6192
1644189059.380602,-0.007446,0.007141,-0.992188,0.35826,0.294962,-0.130992,47,287,582,6224
1644189059.428976,-0.009949,0.012146,-0.993652,0.281924,0.325496,-0.115725,52,277,591,6192
1644189059.477363,-0.008118,0.008545,-0.989807,0.037649,0.264427,-0.115725,53,274,592,6224
1644189059.525791,-0.006104,0.008423,-0.991943,0.388794,0.24916,-0.192061,41,271,590,6240
1644189059.574424,-0.00769,0.009094,-0.994019,0.327725,0.340763,-0.161527,43,271,583,6224
1644189059.623854,-0.011841,0.008484,-0.992554,0.037649,0.523969,-0.054656,36,259,585,6192
1644189059.674159,-0.008362,0.009277,-0.990723,0.205588,0.264427,-0.008855,54,273,586,6224
1644189059.724251,-0.007263,0.008484,-0.992859,0.281924,0.294962,-0.024122,45,280,577,6256
1644189059.81612,-0.011292,0.008789,-0.990845,0.098718,0.356031,-0.130992,51,276,583,6256
1644189059.864542,-0.007751,0.010437,-0.990967,0.205588,0.478168,-0.161527,48,281,585,6192
1644189059.912971,-0.00946,0.01239,-0.992188,0.113985,0.310229,-0.207328,48,274,585,6128
1644189059.961362,-0.006775,0.01239,-0.990967,0.312458,0.462901,-0.039389,51,274,585,6240
1644189060.009744,-0.007507,0.011047,-0.993164,0.281924,0.508702,-0.024122,42,277,584,6240
1644189060.063598,-0.006042,0.008972,-0.990906,0.190321,0.432366,-0.222595,46,262,583,6256
1644189060.108654,-0.007202,0.01062,-0.992249,0.327725,0.478168,-0.176794,46,266,592,6224
1644189060.154924,-0.009827,0.011108,-0.992004,0.281924,0.447634,-0.14626,54,275,589,6304
1644189060.203341,-0.00824,0.009583,-0.992798,0.236122,0.325496,-0.069924,54,282,586,6240
1644189060.25172,-0.009155,0.010071,-0.993103,0.190321,0.294962,-0.024122,49,282,575,6240
1644189060.300111,-0.006104,0.011414,-0.992554,0.251389,0.386565,0.052214,45,273,579,6256
1644189060.348503,-0.008606,0.008301,-0.992371,0.129252,0.432366,-0.100458,57,280,575,6240
1644189060.396902,-0.010864,0.008484,-0.987122,0.266656,0.447634,0.098015,51,279,587,6240
1644189060.445323,-0.007263,0.00885,-0.990845,0.373527,0.432366,-0.161527,57,277,584,6256
1644189060.493703,-0.006409,0.010498,-0.991577,0.312458,0.447634,-0.085191,57,292,586,6288
1644189060.542083,-0.008545,0.008484,-0.99115,0.190321,0.24916,-0.069924,48,274,587,6304
1644189060.590672,-0.006348,0.008362,-0.993591,0.129252,0.478168,-0.054656,47,280,589,6256
1644189060.638889,-0.007385,0.009277,-0.990051,0.35826,0.371298,-0.054656,51,276,573,6224
1644189060.689377,-0.009583,0.009399,-0.992676,0.327725,0.371298,-0.222595,51,286,585,6224
1644189060.739011,-0.011475,0.007874,-0.990173,0.098718,0.417099,-0.222595,57,268,582,6240
1644189060.789228,-0.006592,0.010132,-0.991943,0.175053,0.340763,-0.008855,54,282,584,6176
1644189060.833724,-0.006531,0.008362,-0.992676,0.175053,0.401832,-0.115725,48,274,597,6224
1644189060.92922,-0.009338,0.009949,-0.990356,0.175053,0.523969,-0.069924,47,277,593,6160
1644189060.977612,-0.004578,0.010559,-0.99353,0.236122,0.325496,-0.192061,49,268,584,6256
1644189061.025989,-0.010071,0.006592,-0.990784,0.327725,0.447634,-0.085191,40,277,586,6176
1644189061.074448,-0.010254,0.009216,-0.991272,0.175053,0.340763,-0.115725,52,277,586,6224
1644189061.122792,-0.008057,0.010986,-0.990723,0.220855,0.356031,-0.115725,52,270,579,6176
1644189061.171148,-0.008667,0.010315,-0.991028,0.113985,0.386565,0.113282,52,280,579,6256
1644189061.219556,-0.009216,0.010559,-0.992004,0.35826,0.371298,-0.008855,53,276,590,6224
1644189061.267941,-0.010925,0.008118,-0.993164,0.281924,0.417099,-0.115725,53,279,583,6224
1644189061.316327,-0.006409,0.011047,-0.990784,0.068183,0.600305,-0.069924,51,271,587,6224
1644189061.36479,-0.009033,0.010193,-0.98999,0.205588,0.539237,-0.024122,46,286,590,6224
1644189061.413136,-0.008606,0.008911,-0.989136,0.251389,0.462901,0.067481,53,279,590,6240
1644189061.461511,-0.007629,0.011841,-0.992371,0.113985,0.371298,-0.161527,52,265,572,6224
1644189061.509878,-0.010437,0.006531,-0.992065,0.220855,0.432366,0.036947,52,275,584,6224
1644189061.558302,-0.007019,0.009094,-0.992554,0.388794,0.508702,-0.008855,51,274,590,6192
1644189061.606689,-0.00708,0.011353,-0.992004,0.175053,0.447634,-0.100458,51,274,590,6288
1644189061.655124,-0.008789,0.009644,-0.991577,0.159786,0.325496,-0.115725,42,275,584,6240
1644189061.703478,-0.008606,0.010193,-0.991211,0.144519,0.401832,-0.100458,35,282,582,6224
1644189061.751838,-0.008484,0.009583,-0.990723,0.342992,0.478168,-0.069924,60,271,597,6256
1644189061.800305,-0.011292,0.00708,-0.993774,0.220855,0.508702,0.006412,53,274,580,6224
1644189061.852881,-0.008789,0.008667,-0.992126,0.327725,0.462901,-0.024122,43,274,594,6288
1644189061.900558,-0.008484,0.008789,-0.991699,0.068183,0.447634,-0.100458,57,270,582,6256
1644189061.950673,-0.007263,0.00824,-0.993347,0.190321,0.432366,-0.161527,43,279,571,6224
1644189061.995429,-0.007568,0.009888,-0.992126,0.129252,0.401832,-0.100458,39,274,583,6224
1644189062.090724,-0.009033,0.010132,-0.992737,0.297191,0.432366,-0.161527,60,274,590,6240
1644189062.139002,-0.008789,0.006897,-0.990967,0.144519,0.432366,-0.054656,60,269,580,6224
1644189062.187399,-0.011169,0.006409,-0.993896,0.129252,0.554504,-0.054656,52,280,579,6224
1644189062.235794,-0.009155,0.009949,-0.992432,0.327725,0.493435,-0.100458,55,281,583,6224
1644189062.284185,-0.007996,0.010559,-0.99054,0.068183,0.340763,-0.069924,55,279,580,6240
1644189062.332593,-0.010864,0.009766,-0.993591,0.08345,0.462901,-0.024122,54,277,579,6240
1644189062.380977,-0.006042,0.008118,-0.993591,0.159786,0.447634,0.067481,47,273,579,6288
1644189062.429371,-0.008301,0.00708,-0.991516,0.144519,0.386565,-0.115725,48,279,580,6256
1644189062.477743,-0.009827,0.009583,-0.993713,0.35826,0.417099,-0.085191,59,282,584,6240
1644189062.526157,-0.009338,0.00885,-0.989624,0.159786,0.462901,-0.207328,45,275,577,6224
1644189062.574628,-0.005554,0.010803,-0.99408,0.373527,0.417099,0.036947,51,276,578,6224
1644189062.622974,-0.003723,0.009399,-0.991699,0.342992,0.294962,-0.130992,38,268,589,6288
1644189062.671337,-0.010437,0.010193,-0.99292,0.159786,0.417099,-0.069924,49,282,600,6256
1644189062.719748,-0.007324,0.009155,-0.98877,0.297191,0.417099,-0.115725,53,274,585,6288
1644189062.768118,-0.009399,0.010376,-0.989197,0.220855,0.539237,-0.039389,45,282,584,6288
1644189062.816546,-0.008484,0.007629,-0.991394,0.113985,0.493435,-0.039389,54,277,584,6176
1644189062.864931,-0.008667,0.009094,-0.991211,0.251389,0.310229,-0.176794,45,265,589,6224
1644189062.913357,-0.009094,0.009033,-0.99115,0.037649,0.432366,-0.039389,46,276,578,6176
1644189062.962536,-0.010803,0.008484,-0.993713,0.159786,0.356031,-0.008855,58,276,583,6256
1644189063.060273,-0.007202,0.009277,-0.991394,0.113985,0.462901,-0.130992,49,263,584,6256
1644189063.106891,-0.008118,0.009094,-0.992126,0.129252,0.386565,0.082748,47,270,575,6240
1644189063.155433,-0.01001,0.009338,-0.991211,0.159786,0.417099,-0.039389,45,277,579,6240
1644189063.203664,-0.011536,0.007141,-0.99292,0.175053,0.554504,-0.130992,43,274,587,6240
1644189063.252035,-0.006348,0.008728,-0.991577,0.281924,0.478168,-0.039389,52,277,579,6224
1644189063.300435,-0.010498,0.011414,-0.991577,0.113985,0.447634,-0.039389,51,283,585,6192
1644189063.348847,-0.00885,0.011108,-0.99115,0.35826,0.462901,-0.085191,48,269,587,6224
1644189063.397241,-0.009277,0.009399,-0.991577,0.205588,0.401832,-0.069924,57,270,586,6192
1644189063.445634,-0.006958,0.00946,-0.990601,0.35826,0.401832,-0.008855,47,285,577,6256
1644189063.494003,-0.006897,0.008728,-0.992126,0.113985,0.478168,-0.115725,51,269,580,6288
1644189063.542429,-0.007263,0.010925,-0.990173,0.297191,0.294962,-0.237863,47,277,593,6224
1644189063.590803,-0.009216,0.013306,-0.992676,0.159786,0.401832,-0.176794,51,279,576,6176
1644189063.6392,-0.008911,0.008606,-0.991943,0.205588,0.646107,-0.100458,43,266,578,6224
1644189063.687589,-0.007751,0.009766,-0.992493,0.175053,0.432366,-0.054656,47,268,586,6224
1644189063.735978,-0.008362,0.010925,-0.991882,0.159786,0.371298,-0.085191,49,277,582,6304
1644189063.784363,-0.007812,0.009277,-0.991882,0.251389,0.462901,-0.161527,45,273,589,6288
1644189063.832833,-0.009399,0.010071,-0.993347,0.190321,0.493435,-0.100458,43,271,594,6192
1644189063.881187,-0.004211,0.010742,-0.989929,0.220855,0.432366,0.036947,46,279,580,6304
1644189063.930655,-0.006714,0.007751,-0.991455,0.220855,0.462901,-0.054656,39,279,576,6192
1644189063.981094,-0.008972,0.010315,-0.993958,0.266656,0.233893,-0.100458,51,279,583,6304
1644189064.031423,-0.008972,0.008301,-0.99292,0.022382,0.264427,-0.039389,45,270,582,6224
1644189064.091826,-0.008972,0.009033,-0.991394,0.098718,0.386565,0.082748,55,266,583,6192
1644189064.171507,-0.008911,0.009033,-0.990173,0.35826,0.447634,-0.130992,46,283,578,6224
1644189064.219898,-0.008911,0.010742,-0.990662,0.205588,0.371298,-0.069924,49,277,584,6224
1644189064.268294,-0.007385,0.010681,-0.992249,0.144519,0.356031,-0.054656,40,275,584,6240
1644189064.31669,-0.008789,0.010742,-0.99115,0.08345,0.447634,0.098015,34,286,590,6224
1644189064.365123,-0.008423,0.014404,-0.990784,0.312458,0.508702,-0.100458,40,273,579,6224
1644189064.413497,-0.007141,0.010071,-0.992798,0.113985,0.310229,-0.039389,45,273,586,6192
1644189064.461883,-0.01001,0.010864,-0.990784,0.098718,0.432366,-0.054656,54,275,586,6240
1644189064.510261,-0.00769,0.011169,-0.992004,0.281924,0.24916,0.067481,54,280,589,6240
1644189064.558677,-0.006104,0.009766,-0.989624,0.129252,0.462901,-0.085191,40,270,582,6224
1644189064.607057,-0.009338,0.010315,-0.994568,0.175053,0.508702,-0.130992,51,266,594,6240
1644189064.655463,-0.007263,0.010315,-0.99176,0.327725,0.386565,-0.054656,57,280,584,6224
1644189064.703845,-0.007385,0.007629,-0.990417,0.251389,0.462901,-0.069924,54,282,589,6256
1644189064.752259,-0.010376,0.011658,-0.99231,0.220855,0.401832,-0.130992,41,271,578,6240
1644189064.8006,-0.01001,0.00592,-0.989868,0.205588,0.371298,-0.176794,40,270,582,6192
1644189064.84907,-0.009583,0.007385,-0.990356,0.159786,0.478168,0.006412,46,274,592,6176
1644189064.897444,-0.009705,0.007935,-0.992126,0.312458,0.371298,-0.100458,41,276,580,6224
1644189064.945847,-0.007629,0.008301,-0.991699,0.236122,0.432366,-0.024122,54,273,584,6176
1644189064.994251,-0.009583,0.008545,-0.991394,0.220855,0.310229,0.021679,49,280,589,6176
1644189065.042674,-0.009094,0.008423,-0.992554,0.098718,0.523969,-0.024122,54,263,591,6304
1644189065.10312,-0.010437,0.007324,-0.990906,0.190321,0.340763,-0.100458,54,280,589,6224
1644189065.142798,-0.012085,0.00824,-0.991943,0.190321,0.386565,-0.25313,55,271,590,6224
1644189065.19196,-0.009094,0.008972,-0.993164,0.251389,0.447634,-0.054656,54,277,584,6224
1644189065.237098,-0.012634,0.009888,-0.991943,0.190321,0.417099,-0.176794,48,274,590,6240
1644189065.332963,-0.00946,0.010193,-0.991943,0.434595,0.478168,-0.14626,52,268,582,6304
1644189065.381335,-0.010132,0.009949,-0.993347,0.190321,0.447634,-0.130992,51,276,583,6192
1644189065.429735,-0.009277,0.008667,-0.993958,0.281924,0.386565,-0.161527,64,280,582,6304
1644189065.478122,-0.008667,0.01062,-0.98938,0.068183,0.325496,-0.024122,39,283,587,6240
1644189065.526513,-0.006775,0.010986,-0.993835,0.404061,0.569771,-0.054656,53,271,578,6224
1644189065.574904,-0.00946,0.007019,-0.992554,0.159786,0.493435,-0.054656,57,275,586,6224
1644189065.623317,-0.009033,0.010376,-0.990295,0.129252,0.356031,-0.115725,49,285,586,6224
1644189065.671707,-0.009399,0.009888,-0.993225,0.35826,0.417099,-0.069924,47,270,589,6288
1644189065.720091,-0.009094,0.009399,-0.989563,0.129252,0.432366,-0.054656,39,283,585,6224
1644189065.76847,-0.006104,0.009338,-0.992737,0.190321,0.24916,-0.100458,55,269,583,6224
1644189065.816875,-0.010742,0.006958,-0.994446,0.144519,0.356031,-0.14626,46,276,580,6224
1644189065.865366,-0.008545,0.009705,-0.988464,0.175053,0.401832,-0.100458,46,279,583,6160
1644189065.913725,-0.004761,0.008606,-0.994751,0.037649,0.417099,-0.024122,43,281,594,6240
1644189065.962226,-0.009277,0.007202,-0.991028,0.327725,0.478168,-0.024122,46,269,578,6176
1644189066.010469,-0.008423,0.012878,-0.990845,0.220855,0.508702,-0.130992,47,275,596,6160
1644189066.07292,-0.008545,0.010803,-0.990112,0.175053,0.432366,-0.176794,41,274,580,6176
1644189066.111371,-0.008728,0.011108,-0.991943,0.312458,0.569771,-0.14626,54,287,575,6256
1644189066.156606,-0.006104,0.011047,-0.990295,0.144519,0.386565,-0.161527,48,271,585,6256
1644189066.252431,-0.007874,0.011169,-0.989624,0.175053,0.462901,-0.115725,51,274,578,6304
1644189066.300848,-0.00531,0.009766,-0.992004,0.205588,0.615573,-0.207328,52,277,586,6224
1644189066.349201,-0.006897,0.009094,-0.991943,0.236122,0.539237,-0.192061,48,269,583,6256
1644189066.397597,-0.007385,0.009583,-0.991028,0.236122,0.356031,-0.207328,47,280,586,6288
1644189066.445988,-0.008728,0.011963,-0.991821,0.297191,0.462901,-0.161527,52,273,582,6288
1644189066.494395,-0.008423,0.010193,-0.993042,0.129252,0.401832,-0.176794,55,279,587,6224
1644189066.542796,-0.007446,0.007812,-0.993835,0.113985,0.356031,-0.024122,47,280,584,6288
1644189066.591172,-0.01416,0.00885,-0.993347,0.190321,0.279695,-0.192061,38,275,579,6240
1644189066.639559,-0.008484,0.012268,-0.990112,0.068183,0.523969,-0.039389,40,265,584,6224
1644189066.687968,-0.006042,0.010498,-0.99292,0.312458,0.462901,-0.054656,55,274,580,6288
1644189066.736346,-0.007935,0.010681,-0.993225,0.052916,0.432366,-0.054656,51,276,587,6224
1644189066.784755,-0.00885,0.008057,-0.990601,0.327725,0.386565,0.006412,54,270,582,6304
1644189066.833116,-0.009094,0.00824,-0.990967,0.098718,0.447634,-0.085191,52,273,584,6256
1644189066.881542,-0.010803,0.008972,-0.989441,0.113985,0.554504,0.067481,51,276,578,6224
1644189066.929967,-0.009766,0.009094,-0.990662,0.113985,0.356031,-0.222595,58,286,585,6240
1644189066.978363,-0.006714,0.009949,-0.994324,0.220855,0.508702,-0.100458,54,275,584,6224
1644189067.026755,-0.009216,0.010498,-0.992798,0.251389,0.417099,-0.222595,55,274,583,6192
1644189067.086863,-0.00946,0.007812,-0.99231,0.312458,0.386565,-0.115725,61,282,593,6192
1644189067.123905,-0.006897,0.012268,-0.991638,0.220855,0.432366,-0.008855,52,285,589,6256
1644189067.17467,-0.006836,0.007263,-0.992126,0.266656,0.462901,-0.298931,47,277,586,6256
