epoch,acc_x,acc_y,acc_z,rot_x,rot_y,rot_z,mag_x,mag_y,mag_z,temp
1644156600.093539,-0.012024,0.010864,-0.987976,0.159786,0.401832,0.021679,51,274,583,5024
1644156600.139202,-0.011353,0.008545,-0.991699,0.220855,0.554504,-0.298931,49,268,577,5072
1644156600.1876,-0.011658,0.008728,-0.99292,0.266656,0.24916,-0.115725,51,279,564,5072
1644156600.235992,-0.009949,0.009827,-0.994507,0.327725,0.462901,-0.085191,46,264,583,5024
1644156600.284369,-0.009644,0.009277,-0.993225,0.312458,0.401832,-0.130992,48,264,578,5024
1644156600.332791,-0.01001,0.007568,-0.990112,0.266656,0.462901,-0.039389,45,275,568,5008
1644156600.381169,-0.013855,0.01062,-0.993591,0.297191,0.523969,-0.14626,51,274,564,5008
1644156600.429553,-0.011597,0.007385,-0.990845,0.404061,0.569771,-0.161527,43,274,583,4992
1644156600.477937,-0.010498,0.011108,-0.989685,0.297191,0.417099,-0.161527,49,275,582,5072
1644156600.526306,-0.011108,0.010132,-0.989258,0.266656,0.432366,-0.008855,46,269,578,5056
1644156600.574725,-0.013916,0.010864,-0.994568,0.266656,0.63084,-0.039389,54,273,577,5024
1644156600.623113,-0.010986,0.009277,-0.990967,0.159786,0.462901,-0.192061,51,279,573,4960
1644156600.671479,-0.011841,0.007019,-0.990662,0.312458,0.447634,-0.069924,53,274,578,5056
1644156600.719862,-0.011963,0.012146,-0.991211,0.190321,0.493435,-0.268397,57,275,577,5120
1644156600.768273,-0.015015,0.008606,-0.991272,0.159786,0.386565,-0.054656,48,274,573,4960
1644156600.816668,-0.013245,0.007935,-0.99054,0.220855,0.539237,-0.207328,52,282,568,5024
1644156600.865469,-0.013,0.008789,-0.992859,0.08345,0.462901,-0.14626,53,279,576,5008
1644156600.913674,-0.012756,0.007019,-0.992004,0.342992,0.386565,0.067481,47,273,577,4992
1644156600.964082,-0.012146,0.008972,-0.992371,0.297191,0.356031,-0.024122,52,273,572,5024
1644156601.063005,-0.012024,0.006409,-0.992615,0.113985,0.310229,-0.100458,43,276,573,4960
1644156601.106998,-0.008728,0.01001,-0.991272,0.190321,0.447634,-0.115725,45,270,575,5072
1644156601.15541,-0.012451,0.009521,-0.992737,0.236122,0.523969,-0.054656,45,275,577,5024
1644156601.203767,-0.007019,0.008972,-0.991638,0.342992,0.401832,-0.115725,49,277,570,5072
1644156601.252186,-0.009094,0.010681,-0.99054,0.297191,0.294962,-0.161527,47,265,572,5008
1644156601.300509,-0.009766,0.00946,-0.989624,0.327725,0.554504,-0.14626,46,266,580,4992
1644156601.34891,-0.01239,0.006531,-0.992126,0.342992,0.401832,-0.115725,59,280,572,5056
1644156601.397308,-0.009888,0.008545,-0.99231,0.297191,0.432366,0.021679,47,265,575,5072
1644156601.445697,-0.010498,0.007874,-0.990723,0.236122,0.478168,-0.192061,52,275,584,5008
1644156601.494064,-0.011902,0.007019,-0.993591,0.220855,0.539237,-0.100458,54,273,584,5008
1644156601.54248,-0.013062,0.009644,-0.991821,0.266656,0.462901,0.021679,46,271,578,5008
1644156601.590846,-0.009949,0.010071,-0.994141,0.281924,0.478168,0.113282,49,268,577,5056
1644156601.639244,-0.01123,0.007629,-0.989807,0.205588,0.432366,-0.192061,51,276,578,4992
1644156601.687631,-0.01001,0.007385,-0.991272,0.312458,0.478168,-0.115725,51,279,583,5104
1644156601.736015,-0.01123,0.007629,-0.994507,0.281924,0.294962,-0.130992,51,266,573,5056
1644156601.78443,-0.013184,0.009827,-0.990662,0.205588,0.447634,-0.085191,42,268,575,5024
1644156601.832877,-0.011047,0.011597,-0.988281,0.251389,0.340763,-0.237863,41,264,576,5024
1644156601.882373,-0.014648,0.006165,-0.991028,0.281924,0.478168,0.052214,48,266,571,4992
1644156601.932568,-0.012207,0.00885,-0.991394,0.236122,0.493435,-0.008855,43,266,580,5024
1644156601.982981,-0.011536,0.009949,-0.992554,0.312458,0.401832,-0.054656,47,275,570,5056
1644156602.028008,-0.010193,0.00647,-0.993042,0.281924,0.539237,-0.039389,52,268,575,5024
1644156602.123145,-0.009583,0.00946,-0.992737,0.312458,0.417099,-0.161527,53,283,585,5056
1644156602.171482,-0.010986,0.010437,-0.992737,0.404061,0.493435,-0.161527,55,264,571,5056
1644156602.219891,-0.013184,0.009949,-0.991821,0.159786,0.340763,0.006412,49,280,579,4992
1644156602.268282,-0.011902,0.010681,-0.993347,0.297191,0.386565,-0.115725,53,281,578,5008
1644156602.316671,-0.011414,0.007874,-0.991882,0.312458,0.447634,-0.100458,48,281,578,5104
1644156602.365096,-0.013672,0.011108,-0.990967,0.220855,0.432366,-0.25313,46,274,571,5008
1644156602.413463,-0.013611,0.006958,-0.990234,0.175053,0.371298,-0.008855,48,274,573,5024
1644156602.461808,-0.00946,0.008118,-0.99292,0.236122,0.386565,-0.237863,64,273,570,5024
1644156602.510289,-0.011963,0.009766,-0.991943,0.251389,0.401832,0.006412,49,268,575,5056
1644156602.558602,-0.014465,0.009033,-0.991638,0.129252,0.447634,-0.008855,57,285,570,5008
1644156602.606991,-0.012695,0.010986,-0.993042,0.266656,0.218626,-0.024122,57,277,568,5072
1644156602.655384,-0.012329,0.009033,-0.993835,0.251389,0.401832,-0.024122,46,271,571,5024
1644156602.703776,-0.011353,0.009094,-0.993164,0.205588,0.462901,-0.115725,48,279,585,5056
1644156602.75224,-0.01239,0.010315,-0.992432,0.251389,0.417099,-0.115725,48,271,571,5056
1644156602.800549,-0.010864,0.009094,-0.991211,0.388794,0.478168,0.006412,47,268,582,4992
1644156602.848974,-0.013306,0.008606,-0.992493,0.312458,0.401832,-0.192061,40,270,579,5008
1644156602.89735,-0.013245,0.006897,-0.992798,0.205588,0.417099,-0.069924,48,281,571,5056
1644156602.945733,-0.011047,0.008118,-0.991882,0.251389,0.401832,-0.115725,52,268,575,5056
1644156602.994157,-0.011902,0.006287,-0.992249,0.281924,0.417099,-0.085191,46,276,573,5024
1644156603.056336,-0.009644,0.008484,-0.991577,0.205588,0.523969,-0.14626,52,273,570,5104
1644156603.096934,-0.013428,0.009216,-0.991577,0.220855,0.478168,-0.207328,58,276,573,5072
1644156603.140872,-0.012634,0.010254,-0.99469,0.144519,0.462901,-0.176794,57,280,575,5056
1644156603.236026,-0.013306,0.010132,-0.990784,0.159786,0.279695,0.021679,49,268,568,4992
1644156603.284417,-0.013489,0.007263,-0.993469,0.297191,0.508702,-0.054656,53,269,566,5104
1644156603.332826,-0.013123,0.009766,-0.992737,0.35826,0.279695,-0.115725,54,277,575,4960
1644156603.381193,-0.012451,0.012268,-0.993591,0.266656,0.432366,-0.268397,47,273,570,5072
1644156603.429588,-0.010803,0.005676,-0.993103,0.236122,0.417099,-0.085191,53,276,578,5008
1644156603.47796,-0.014893,0.009949,-0.991455,0.175053,0.340763,-0.024122,58,269,580,5024
1644156603.526353,-0.013489,0.006592,-0.992065,0.159786,0.447634,-0.14626,49,270,575,5024
1644156603.574757,-0.011658,0.008301,-0.993347,0.113985,0.417099,-0.008855,51,279,571,5008
1644156603.623165,-0.010803,0.006714,-0.992737,0.312458,0.325496,-0.085191,49,275,575,5056
1644156603.671508,-0.010559,0.007385,-0.990967,0.312458,0.508702,-0.008855,49,277,575,4992
1644156603.719925,-0.012878,0.005005,-0.992432,0.251389,0.432366,-0.085191,53,271,573,5008
1644156603.768307,-0.009949,0.010071,-0.989624,0.251389,0.386565,-0.100458,49,270,572,5072
1644156603.816702,-0.010681,0.008118,-0.991821,0.205588,0.401832,-0.054656,47,270,572,4960
1644156603.865216,-0.010437,0.010803,-0.990723,0.266656,0.340763,-0.024122,54,277,570,4960
1644156603.913507,-0.012085,0.009583,-0.992004,0.388794,0.325496,-0.25313,51,274,576,5056
1644156603.96189,-0.009277,0.009338,-0.991577,0.236122,0.539237,-0.024122,52,277,586,5008
1644156604.063777,-0.009399,0.007812,-0.994446,0.190321,0.356031,-0.329466,54,280,575,5024
1644156604.10706,-0.012451,0.011292,-0.992615,0.236122,0.340763,-0.161527,42,280,575,5024
1644156604.155529,-0.011658,0.009888,-0.993103,0.236122,0.401832,-0.100458,55,269,571,5024
1644156604.203801,-0.011047,0.01001,-0.99176,0.205588,0.554504,0.098015,49,275,575,5056
1644156604.25221,-0.009583,0.008789,-0.994019,0.220855,0.401832,-0.085191,42,273,570,5008
1644156604.300548,-0.011597,0.008789,-0.992188,0.327725,0.523969,-0.222595,59,277,570,5008
1644156604.348959,-0.010559,0.007568,-0.993958,0.205588,0.447634,-0.069924,43,279,571,5024
1644156604.397348,-0.013306,0.008667,-0.990784,0.205588,0.478168,-0.100458,52,277,570,4960
1644156604.445728,-0.012878,0.009033,-0.992432,0.312458,0.478168,0.052214,49,277,584,5008
1644156604.494092,-0.012817,0.01001,-0.991943,0.190321,0.371298,0.067481,52,282,579,4960
1644156604.54251,-0.011414,0.012756,-0.992737,0.205588,0.401832,-0.100458,52,275,570,5008
1644156604.590887,-0.010254,0.009094,-0.993408,0.404061,0.447634,-0.130992,52,273,577,5136
1644156604.639284,-0.012573,0.010071,-0.990601,0.236122,0.401832,-0.176794,54,275,570,5024
1644156604.687668,-0.010193,0.008179,-0.992432,0.297191,0.432366,-0.192061,52,275,577,5024
1644156604.73606,-0.009766,0.010071,-0.993347,0.327725,0.371298,-0.024122,47,275,572,5008
1644156604.784443,-0.009338,0.008301,-0.993225,0.327725,0.462901,-0.222595,47,277,579,5024
1644156604.833177,-0.010376,0.011292,-0.992859,0.388794,0.447634,-0.14626,38,275,579,5024
1644156604.883635,-0.013611,0.010925,-0.993103,0.220855,0.371298,-0.176794,42,273,577,5024
1644156604.933482,-0.015198,0.007446,-0.992493,0.220855,0.401832,-0.14626,60,274,583,5024
1644156604.978481,-0.012756,0.008728,-0.995361,0.159786,0.340763,-0.14626,51,266,571,4960
1644156605.075032,-0.010315,0.011658,-0.993958,0.098718,0.523969,-0.054656,42,282,575,5024
1644156605.123138,-0.009583,0.010742,-0.993713,0.08345,0.432366,-0.115725,54,277,570,5024
1644156605.171536,-0.010132,0.006409,-0.993164,0.144519,0.493435,-0.039389,52,275,572,5104
1644156605.219927,-0.009644,0.006653,-0.992859,0.266656,0.325496,-0.115725,48,279,578,5008
1644156605.268303,-0.014526,0.004333,-0.992065,0.281924,0.386565,-0.085191,45,270,570,5008
1644156605.316697,-0.015564,0.00885,-0.991821,0.175053,0.356031,-0.130992,57,268,572,4992
1644156605.365123,-0.01355,0.01001,-0.994324,0.266656,0.340763,-0.176794,51,274,573,5056
1644156605.41349,-0.011658,0.007019,-0.991943,0.220855,0.310229,-0.192061,49,268,579,5056
1644156605.461877,-0.011841,0.007263,-0.993408,0.236122,0.340763,-0.008855,53,274,569,5120
1644156605.510254,-0.01178,0.007141,-0.991333,0.175053,0.401832,-0.100458,47,280,570,5104
1644156605.558648,-0.013794,0.010803,-0.994202,0.220855,0.356031,-0.130992,43,281,569,5008
1644156605.607043,-0.010986,0.007812,-0.996033,0.251389,0.417099,-0.115725,51,274,569,5072
1644156605.655425,-0.011475,0.009766,-0.992676,0.327725,0.493435,-0.237863,52,268,572,4960
1644156605.703829,-0.010986,0.00946,-0.993469,0.190321,0.554504,-0.039389,53,279,569,5024
1644156605.752406,-0.011597,0.011475,-0.993042,0.159786,0.417099,0.036947,47,275,572,4960
1644156605.800637,-0.008972,0.008118,-0.991333,0.388794,0.447634,-0.008855,51,266,573,5104
1644156605.849015,-0.013306,0.008362,-0.99054,0.205588,0.478168,-0.069924,47,275,568,5072
1644156605.897403,-0.012939,0.007324,-0.994507,0.388794,0.539237,-0.085191,53,274,573,5072
1644156605.946019,-0.011963,0.008057,-0.994019,0.266656,0.508702,-0.130992,47,270,575,5024
1644156605.994782,-0.011841,0.008545,-0.994629,0.220855,0.401832,-0.085191,51,271,580,5008
1644156606.065866,-0.013306,0.008911,-0.993103,0.251389,0.386565,-0.130992,53,271,585,5056
1644156606.098667,-0.011902,0.009949,-0.993225,0.297191,0.325496,-0.268397,45,280,582,5072
1644156606.140247,-0.012939,0.007812,-0.99054,0.251389,0.493435,-0.085191,52,268,572,4960
1644156606.236068,-0.01062,0.00824,-0.99292,0.281924,0.386565,-0.161527,46,281,566,5024
1644156606.284465,-0.013428,0.008606,-0.992188,0.159786,0.356031,-0.176794,47,275,586,5008
1644156606.332852,-0.011841,0.008667,-0.992493,0.297191,0.340763,-0.054656,53,276,573,5024
1644156606.381207,-0.013123,0.009644,-0.992249,0.205588,0.371298,-0.14626,41,276,580,5024
1644156606.429611,-0.011047,0.01178,-0.992554,0.236122,0.371298,-0.176794,48,281,573,5024
1644156606.478059,-0.012024,0.01001,-0.992798,0.220855,0.401832,-0.115725,52,285,575,5072
1644156606.526379,-0.01062,0.006653,-0.994995,0.312458,0.340763,0.021679,49,268,565,4992
1644156606.574788,-0.012329,0.005371,-0.991943,0.251389,0.371298,-0.069924,53,279,573,4992
1644156606.623182,-0.012329,0.006836,-0.991211,0.526198,0.508702,-0.115725,58,266,576,5008
1644156606.671567,-0.01123,0.008179,-0.992065,0.220855,0.447634,-0.207328,55,269,569,5072
1644156606.719951,-0.012207,0.007874,-0.994446,0.236122,0.371298,-0.207328,47,275,582,5024
1644156606.768334,-0.013916,0.011047,-0.991333,0.266656,0.432366,-0.115725,51,262,573,5008
1644156606.816765,-0.009399,0.010315,-0.993225,0.236122,0.356031,0.021679,58,281,571,5056
1644156606.865196,-0.012085,0.009033,-0.991028,0.327725,0.478168,-0.069924,47,273,577,5008
1644156606.913545,-0.01001,0.011719,-0.991394,0.35826,0.447634,-0.054656,47,275,579,5056
1644156606.96193,-0.010498,0.006958,-0.991211,0.175053,0.447634,-0.14626,54,270,575,5072
1644156607.062979,-0.011108,0.008545,-0.990234,0.129252,0.447634,-0.115725,47,273,579,5072
1644156607.107036,-0.010254,0.011414,-0.989685,0.144519,0.417099,-0.024122,46,271,578,5008
1644156607.155438,-0.011169,0.006348,-0.991699,0.419328,0.310229,-0.207328,43,291,559,5008
1644156607.203796,-0.010498,0.008301,-0.990784,0.404061,0.432366,-0.039389,45,275,565,5008
1644156607.252254,-0.012451,0.008301,-0.992493,0.327725,0.371298,-0.100458,49,277,575,5072
1644156607.300606,-0.013977,0.008484,-0.990356,0.266656,0.478168,-0.130992,59,270,572,5008
1644156607.349008,-0.01239,0.008118,-0.99054,0.373527,0.417099,-0.100458,48,271,573,5024
1644156607.397382,-0.011475,0.012939,-0.988953,0.342992,0.401832,-0.100458,52,273,579,5104
1644156607.445772,-0.012817,0.00824,-0.991272,0.251389,0.386565,-0.237863,58,281,585,5056
1644156607.494163,-0.013367,0.00885,-0.994019,0.205588,0.447634,-0.054656,43,274,571,5056
1644156607.542561,-0.012329,0.007812,-0.992126,0.190321,0.432366,-0.161527,55,283,573,5008
1644156607.590924,-0.011841,0.009216,-0.990295,0.297191,0.279695,-0.069924,51,271,576,5008
1644156607.639333,-0.011108,0.008667,-0.993652,0.175053,0.14229,-0.14626,57,263,582,5120
1644156607.687756,-0.013245,0.008911,-0.995544,0.327725,0.493435,-0.176794,54,273,575,5024
1644156607.738187,-0.011719,0.003723,-0.991577,0.251389,0.356031,-0.100458,47,268,565,5072
1644156607.788366,-0.011169,0.008118,-0.993896,0.297191,0.478168,-0.085191,60,269,587,5024
1644156607.834315,-0.009705,0.008789,-0.992188,0.297191,0.432366,-0.100458,55,264,573,5072
1644156607.92965,-0.010437,0.010254,-0.991577,0.190321,0.493435,0.082748,54,275,575,5024
1644156607.97806,-0.015076,0.006592,-0.994263,0.281924,0.340763,-0.222595,55,279,573,4992
1644156608.026429,-0.011841,0.010193,-0.991516,0.144519,0.294962,-0.008855,54,275,579,5008
1644156608.074886,-0.011108,0.009827,-0.991699,0.159786,0.356031,-0.069924,61,275,579,5008
1644156608.123246,-0.012756,0.008423,-0.996155,0.220855,0.371298,-0.192061,55,276,578,5104
1644156608.17158,-0.010559,0.010864,-0.990601,0.236122,0.371298,-0.25313,60,274,576,4992
1644156608.219972,-0.01062,0.010193,-0.989685,0.220855,0.325496,-0.237863,45,268,577,5008
1644156608.268338,-0.012085,0.008118,-0.992981,0.312458,0.279695,-0.069924,55,279,569,5072
1644156608.316751,-0.009888,0.007507,-0.993774,0.35826,0.356031,-0.024122,52,285,579,5056
1644156608.365245,-0.012451,0.008667,-0.991028,0.236122,0.539237,-0.024122,51,274,569,5104
1644156608.413534,-0.010376,0.007385,-0.993347,0.190321,0.554504,-0.130992,43,269,571,5008
1644156608.461911,-0.011902,0.007507,-0.993591,0.556733,0.356031,-0.161527,53,269,585,5008
1644156608.510274,-0.011963,0.007263,-0.992676,0.342992,0.340763,-0.100458,55,269,580,5008
1644156608.558696,-0.009705,0.007996,-0.992554,0.205588,0.417099,-0.085191,46,279,573,4992
1644156608.607076,-0.011292,0.009888,-0.991821,0.236122,0.432366,-0.237863,48,271,583,5056
1644156608.655454,-0.013794,0.006165,-0.993225,0.266656,0.508702,-0.176794,41,276,580,5008
1644156608.70385,-0.011963,0.011292,-0.99408,0.342992,0.478168,-0.069924,52,277,575,5024
1644156608.752234,-0.012695,0.007996,-0.993408,0.205588,0.447634,-0.14626,49,270,572,5056
1644156608.80062,-0.011963,0.008301,-0.990173,0.205588,0.279695,-0.130992,47,268,570,5104
1644156608.849631,-0.010376,0.007507,-0.992737,0.159786,0.569771,-0.207328,51,274,580,5056
1644156608.899823,-0.010132,0.009155,-0.99176,0.297191,0.371298,-0.237863,42,268,572,4960
1644156608.950534,-0.011108,0.011292,-0.991638,0.190321,0.478168,-0.115725,57,263,577,5072
1644156608.995174,-0.009338,0.011597,-0.994446,0.251389,0.371298,-0.085191,45,285,565,5056
1644156609.093441,-0.00885,0.007385,-0.994995,0.175053,0.447634,-0.222595,46,279,569,5104
1644156609.139369,-0.012085,0.007812,-0.990723,0.419328,0.508702,0.036947,62,271,573,4992
1644156609.187722,-0.013489,0.009949,-0.994995,0.342992,0.417099,-0.054656,54,270,577,5008
1644156609.236102,-0.010559,0.01123,-0.991028,0.388794,0.386565,0.021679,53,276,573,4992
1644156609.28451,-0.011536,0.008301,-0.99231,0.297191,0.401832,-0.14626,53,279,566,5024
1644156609.332896,-0.012512,0.008789,-0.993958,0.113985,0.523969,-0.115725,47,273,575,5072
1644156609.381273,-0.013428,0.007568,-0.990906,0.266656,0.417099,-0.222595,51,279,573,5104
1644156609.429659,-0.011658,0.010132,-0.992126,0.236122,0.218626,-0.207328,48,266,576,5008
1644156609.478053,-0.007812,0.008728,-0.992737,0.236122,0.417099,-0.069924,60,271,578,5024
1644156609.526438,-0.012329,0.007812,-0.99176,0.342992,0.462901,-0.115725,57,273,575,5008
1644156609.574847,-0.012756,0.010437,-0.993591,0.251389,0.401832,-0.130992,64,268,575,5024
1644156609.623237,-0.010132,0.009094,-0.992004,0.281924,0.493435,-0.100458,46,274,580,4992
1644156609.671611,-0.013794,0.007751,-0.994202,0.388794,0.447634,-0.130992,52,270,575,5008
1644156609.719977,-0.011841,0.006592,-0.996155,0.404061,0.386565,-0.192061,51,269,585,5008
1644156609.7684,-0.015503,0.00946,-0.992676,0.281924,0.371298,-0.237863,39,279,583,5072
1644156609.816761,-0.009705,0.006897,-0.990417,0.281924,0.432366,-0.069924,54,268,570,5072
1644156609.865455,-0.012451,0.006104,-0.993225,0.281924,0.401832,0.006412,38,270,577,5056
1644156609.913582,-0.008972,0.007874,-0.991394,0.236122,0.340763,-0.069924,53,274,576,4992
1644156609.96329,-0.010742,0.007874,-0.992981,0.205588,0.493435,-0.176794,59,275,579,5008
1644156610.064731,-0.009033,0.009705,-0.991638,0.419328,0.447634,-0.192061,57,277,584,5008
1644156610.107111,-0.014465,0.00946,-0.991699,0.312458,0.523969,-0.039389,46,274,576,5024
1644156610.155482,-0.010986,0.012146,-0.989929,0.342992,0.432366,-0.085191,54,275,572,5056
1644156610.203921,-0.010986,0.009033,-0.992004,0.327725,0.264427,-0.130992,53,271,578,5024
1644156610.252276,-0.010742,0.008545,-0.99292,0.144519,0.462901,-0.130992,48,279,573,5008
1644156610.300652,-0.011658,0.007568,-0.994507,0.220855,0.585038,0.052214,52,273,575,5008
1644156610.349066,-0.015259,0.009399,-0.995361,0.281924,0.462901,-0.130992,41,279,569,5008
1644156610.397451,-0.012329,0.00824,-0.991394,0.251389,0.340763,-0.024122,55,271,566,5008
1644156610.445858,-0.010925,0.008179,-0.992493,0.266656,0.493435,-0.039389,42,277,579,5008
1644156610.494215,-0.010864,0.006592,-0.991089,0.220855,0.478168,-0.039389,43,274,573,5072
1644156610.542641,-0.010986,0.009155,-0.99176,0.236122,0.539237,-0.024122,65,266,566,5056
1644156610.592355,-0.012024,0.00824,-0.992859,0.236122,0.508702,0.021679,51,279,580,5056
1644156610.639396,-0.009766,0.009949,-0.992188,0.129252,0.24916,-0.085191,35,282,586,5056
1644156610.687775,-0.014832,0.00708,-0.993103,0.251389,0.371298,-0.207328,54,277,582,5056
1644156610.736176,-0.012878,0.010559,-0.990845,0.404061,0.371298,-0.237863,49,270,577,5056
1644156610.784569,-0.010132,0.01123,-0.992981,0.159786,0.447634,-0.192061,58,279,573,4992
1644156610.834302,-0.009094,0.006531,-0.994141,0.266656,0.432366,-0.130992,46,269,580,5072
1644156610.884267,-0.014221,0.006592,-0.991699,0.220855,0.432366,-0.115725,47,268,570,5024
1644156610.934488,-0.008057,0.007568,-0.993164,0.297191,0.279695,-0.237863,49,268,568,5008
1644156611.026498,-0.012207,0.012207,-0.99115,0.251389,0.371298,-0.115725,51,269,580,4944
1644156611.074963,-0.011658,0.009216,-0.992981,0.266656,0.462901,-0.192061,59,270,584,4992
1644156611.123229,-0.012573,0.007385,-0.990906,0.236122,0.401832,-0.085191,43,276,576,5008
1644156611.171623,-0.01178,0.010498,-0.99292,0.098718,0.371298,-0.085191,54,273,584,5104
1644156611.220002,-0.013672,0.006165,-0.99231,0.175053,0.447634,-0.024122,47,275,570,4992
1644156611.26838,-0.015015,0.010498,-0.994141,0.236122,0.264427,-0.085191,58,269,576,5104
1644156611.316766,-0.011108,0.009338,-0.991211,0.312458,0.233893,-0.115725,53,279,573,5104
1644156611.365225,-0.010315,0.007935,-0.99585,0.08345,0.340763,-0.130992,46,281,562,5008
1644156611.413568,-0.01178,0.008728,-0.990784,0.297191,0.523969,-0.039389,54,280,575,5008
1644156611.461946,-0.011292,0.00824,-0.991882,0.251389,0.432366,-0.069924,45,265,582,5056
1644156611.510313,-0.011108,0.013245,-0.990662,0.236122,0.508702,-0.130992,49,280,572,5008
1644156611.558723,-0.010864,0.008118,-0.992676,0.327725,0.401832,-0.130992,45,273,577,5008
1644156611.607112,-0.010864,0.009033,-0.991577,0.205588,0.462901,-0.069924,53,271,573,5008
1644156611.655503,-0.012573,0.008911,-0.989807,0.297191,0.386565,-0.14626,57,270,575,5008
1644156611.703886,-0.009766,0.010254,-0.993164,0.129252,0.462901,-0.25313,46,271,571,5056
1644156611.752259,-0.011902,0.008484,-0.99408,0.236122,0.508702,-0.192061,46,281,573,5008
1644156611.800703,-0.012085,0.010925,-0.992371,0.266656,0.294962,-0.14626,39,281,573,5008
1644156611.849095,-0.012329,0.008301,-0.990784,0.312458,0.63084,-0.024122,58,269,578,5024
1644156611.898725,-0.01001,0.008972,-0.990601,0.251389,0.493435,-0.161527,49,275,575,5072
1644156611.948923,-0.009521,0.010376,-0.991089,0.190321,0.493435,-0.207328,52,273,575,5056
1644156611.999534,-0.010925,0.00946,-0.992737,0.266656,0.371298,-0.008855,52,275,584,4960
1644156612.092432,-0.011353,0.008789,-0.991638,0.175053,0.462901,-0.283664,47,270,586,5008
1644156612.139367,-0.012817,0.010681,-0.993469,0.037649,0.417099,-0.039389,54,270,565,5056
1644156612.187763,-0.013977,0.008789,-0.993408,0.327725,0.554504,-0.085191,54,268,570,5008
1644156612.236175,-0.011169,0.008362,-0.993591,0.236122,0.340763,-0.039389,48,281,569,5104
1644156612.284537,-0.008972,0.007629,-0.99469,0.190321,0.462901,0.098015,52,270,572,4992
1644156612.332936,-0.013611,0.008606,-0.993225,0.297191,0.401832,0.006412,53,276,578,5104
1644156612.381323,-0.009338,0.008789,-0.991577,0.175053,0.310229,-0.008855,49,275,572,5056
1644156612.429704,-0.010132,0.009583,-0.991943,0.251389,0.325496,-0.085191,42,275,575,5024
1644156612.478097,-0.011353,0.010254,-0.99292,0.175053,0.340763,-0.161527,47,277,572,5024
1644156612.526475,-0.013977,0.007629,-0.992798,0.281924,0.340763,0.052214,45,265,575,4992
1644156612.574884,-0.011719,0.00769,-0.993469,0.190321,0.447634,-0.115725,51,264,566,5008
1644156612.623258,-0.00885,0.008362,-0.99176,0.113985,0.401832,-0.14626,58,269,573,5008
1644156612.671617,-0.007812,0.009644,-0.992371,0.312458,0.432366,-0.115725,49,280,572,5056
1644156612.720005,-0.011841,0.009827,-0.990967,0.419328,0.325496,-0.039389,61,270,589,5008
1644156612.76841,-0.013794,0.006775,-0.991455,0.175053,0.432366,-0.25313,52,275,575,4944
1644156612.816839,-0.014526,0.010193,-0.98999,0.190321,0.447634,-0.176794,47,275,584,5008
1644156612.865262,-0.009949,0.009094,-0.991577,0.175053,0.401832,-0.176794,53,274,573,5104
1644156612.91385,-0.009766,0.008301,-0.991028,0.175053,0.401832,-0.207328,45,280,582,5072
1644156612.964027,-0.009399,0.007507,-0.991821,0.113985,0.401832,-0.14626,48,269,566,4992
1644156613.063881,-0.011536,0.006836,-0.991272,0.236122,0.356031,-0.130992,60,274,587,5104
1644156613.107111,-0.012207,0.008301,-0.988647,0.113985,0.401832,-0.268397,47,273,572,5024
1644156613.155513,-0.013062,0.00824,-0.98938,0.205588,0.523969,-0.115725,59,268,577,4992
1644156613.203914,-0.013794,0.008911,-0.991577,0.220855,0.615573,-0.054656,54,277,570,4960
1644156613.25227,-0.011719,0.007874,-0.993286,0.205588,0.432366,-0.207328,59,277,572,4992
1644156613.30065,-0.009949,0.007507,-0.99115,0.297191,0.401832,-0.222595,59,270,577,5024
1644156613.349072,-0.011658,0.011108,-0.993286,0.236122,0.386565,-0.192061,47,263,575,5072
1644156613.397466,-0.011414,0.008667,-0.991882,0.159786,0.325496,-0.069924,42,282,575,4992
1644156613.446132,-0.010559,0.007996,-0.993164,0.175053,0.401832,-0.024122,48,271,580,5024
1644156613.49422,-0.011047,0.008179,-0.995483,0.159786,0.417099,-0.100458,52,282,577,5008
1644156613.54263,-0.013794,0.006775,-0.996033,0.144519,0.371298,-0.054656,51,279,573,5072
1644156613.591019,-0.011963,0.007629,-0.99231,0.342992,0.356031,-0.222595,53,276,571,5024
1644156613.639398,-0.011658,0.010193,-0.991882,0.144519,0.371298,-0.192061,55,274,576,4944
1644156613.687765,-0.011475,0.007019,-0.99176,0.342992,0.523969,-0.024122,53,271,573,5056
1644156613.736166,-0.010986,0.011292,-0.9953,0.297191,0.279695,0.052214,55,266,576,5008
1644156613.784604,-0.008179,0.008789,-0.992493,0.175053,0.447634,-0.192061,53,264,576,5072
1644156613.833428,-0.010681,0.010132,-0.993225,0.205588,0.462901,-0.14626,47,275,575,5008
1644156613.883383,-0.013611,0.010803,-0.992798,0.419328,0.508702,-0.039389,48,266,583,5056
1644156613.933692,-0.012146,0.009094,-0.99292,0.35826,0.417099,-0.176794,52,275,568,5072
1644156613.978985,-0.011047,0.010315,-0.991211,0.190321,0.325496,-0.069924,51,264,576,5024
1644156614.075037,-0.01001,0.008179,-0.990234,0.388794,0.493435,-0.054656,53,279,571,5024
1644156614.123325,-0.012207,0.007019,-0.993164,0.297191,0.417099,-0.100458,46,276,573,5024
1644156614.171654,-0.013489,0.007874,-0.992676,0.113985,0.371298,-0.14626,47,268,575,4960
1644156614.220035,-0.01416,0.009888,-0.990967,0.342992,0.493435,-0.100458,46,269,569,5024
1644156614.268408,-0.007996,0.010254,-0.98999,0.373527,0.539237,-0.192061,49,268,575,5008
1644156614.316818,-0.011169,0.006531,-0.994568,0.327725,0.462901,-0.100458,36,266,571,5072
1644156614.36519,-0.011169,0.010803,-0.99176,0.312458,0.417099,-0.008855,48,276,569,5104
1644156614.413656,-0.013306,0.009644,-0.990967,0.35826,0.371298,-0.237863,58,274,573,5024
1644156614.461992,-0.011536,0.007141,-0.993042,0.35826,0.432366,-0.115725,34,276,578,5072
1644156614.510378,-0.011902,0.008972,-0.990845,0.068183,0.24916,-0.14626,42,273,572,4992
1644156614.558743,-0.011475,0.009338,-0.991699,0.266656,0.554504,-0.100458,52,273,577,5056
1644156614.607152,-0.012329,0.009705,-0.992188,0.098718,0.432366,-0.14626,47,285,568,4992
1644156614.655541,-0.013184,0.010132,-0.992493,0.220855,0.432366,-0.069924,43,271,566,5072
1644156614.703948,-0.011169,0.009644,-0.990784,0.113985,0.401832,-0.085191,60,276,576,4992
1644156614.752331,-0.011597,0.008728,-0.992004,0.297191,0.401832,-0.085191,57,280,572,5024
1644156614.800687,-0.010498,0.007507,-0.993164,0.327725,0.523969,0.006412,52,268,584,4992
1644156614.849124,-0.012878,0.008789,-0.992004,0.342992,0.417099,-0.085191,42,275,572,4896
1644156614.897513,-0.012878,0.009155,-0.991028,0.159786,0.432366,-0.115725,54,265,561,4992
1644156614.946388,-0.009949,0.006714,-0.99469,0.266656,0.294962,-0.085191,53,281,576,5024
1644156614.994686,-0.01239,0.009399,-0.992493,0.434595,0.325496,0.021679,46,276,583,4992
1644156615.059521,-0.009705,0.010437,-0.992737,0.312458,0.447634,-0.192061,49,268,575,5008
1644156615.098409,-0.011902,0.007812,-0.991699,0.220855,0.417099,-0.024122,45,265,582,5008
1644156615.187816,-0.011536,0.007996,-0.990784,0.510931,0.417099,-0.100458,52,273,570,5008
1644156615.236163,-0.01062,0.008911,-0.992737,0.205588,0.447634,-0.130992,47,285,570,5056
1644156615.284672,-0.011658,0.005737,-0.993164,0.404061,0.417099,-0.115725,43,286,578,5104
1644156615.332958,-0.009094,0.010376,-0.993408,0.281924,0.432366,-0.008855,49,275,579,5104
1644156615.381343,-0.012817,0.007935,-0.991455,0.129252,0.356031,-0.130992,49,273,579,5008
1644156615.429724,-0.013367,0.005554,-0.993103,0.312458,0.478168,-0.283664,45,275,577,5056
1644156615.478118,-0.01355,0.006653,-0.990906,0.129252,0.356031,-0.054656,52,280,572,4992
1644156615.526508,-0.011597,0.008362,-0.993408,0.266656,0.447634,0.006412,46,274,564,4992
1644156615.574894,-0.013184,0.008789,-0.992676,0.327725,0.539237,0.052214,49,268,577,5008
1644156615.623289,-0.011353,0.008911,-0.994995,0.113985,0.401832,-0.115725,52,280,565,5072
1644156615.671673,-0.011169,0.008972,-0.993286,0.190321,0.371298,0.006412,48,264,569,5072
1644156615.720035,-0.011414,0.006409,-0.990662,0.251389,0.264427,-0.008855,59,280,577,4960
1644156615.768451,-0.008667,0.009338,-0.994507,0.205588,0.432366,-0.039389,52,270,577,4992
1644156615.816838,-0.009766,0.008179,-0.990601,0.190321,0.310229,-0.039389,41,266,580,5008
1644156615.865271,-0.011841,0.011292,-0.993896,0.220855,0.432366,-0.115725,52,277,575,4992
1644156615.913666,-0.013062,0.012268,-0.991333,0.159786,0.386565,-0.115725,51,276,566,4960
1644156615.962059,-0.011658,0.008057,-0.991577,0.373527,0.493435,-0.161527,59,270,577,4992
1644156616.063694,-0.011658,0.01062,-0.992126,0.205588,0.569771,-0.100458,49,270,591,5072
1644156616.107217,-0.013184,0.009827,-0.991943,0.190321,0.294962,-0.024122,51,269,576,5008
1644156616.155705,-0.013855,0.007874,-0.993347,0.251389,0.279695,-0.069924,49,268,577,5024
1644156616.203957,-0.010498,0.007507,-0.992859,0.266656,0.325496,-0.100458,45,273,579,5056
1644156616.252307,-0.008728,0.008118,-0.992065,0.266656,0.493435,-0.14626,45,265,565,5120
1644156616.300704,-0.012573,0.008179,-0.992249,0.251389,0.508702,-0.222595,43,271,580,5072
1644156616.349113,-0.010742,0.007141,-0.991455,0.220855,0.401832,-0.14626,53,274,578,5056
1644156616.397501,-0.014709,0.009094,-0.994263,0.129252,0.356031,-0.176794,41,269,578,5024
1644156616.445862,-0.014343,0.010559,-0.990173,0.327725,0.417099,0.036947,48,276,573,5072
1644156616.494253,-0.012329,0.009583,-0.994446,0.297191,0.340763,-0.039389,53,271,573,5024
1644156616.54267,-0.015381,0.007812,-0.993042,0.342992,0.478168,-0.024122,55,271,571,5024
1644156616.591075,-0.012207,0.008606,-0.991455,0.190321,0.325496,-0.207328,43,271,580,5008
1644156616.639426,-0.010193,0.007629,-0.993225,0.266656,0.417099,-0.25313,46,283,580,5056
1644156616.687819,-0.010254,0.013,-0.992615,0.327725,0.508702,-0.192061,54,270,570,5072
1644156616.736214,-0.012207,0.009766,-0.99292,0.342992,0.24916,-0.069924,41,274,585,5056
1644156616.78464,-0.013306,0.008423,-0.989502,0.312458,0.462901,0.036947,47,273,572,5024
1644156616.833231,-0.012817,0.008362,-0.992798,0.113985,0.386565,-0.085191,49,260,565,5072
1644156616.883489,-0.010986,0.007874,-0.990784,0.236122,0.417099,-0.039389,47,280,568,5056
1644156616.93347,-0.010559,0.009583,-0.992859,0.220855,0.401832,0.021679,54,273,570,5104
1644156616.97876,-0.011963,0.00885,-0.993713,0.281924,0.432366,-0.069924,41,281,569,5024
1644156617.075231,-0.010254,0.009277,-0.991455,0.159786,0.417099,-0.069924,46,276,576,5056
1644156617.123325,-0.010315,0.007874,-0.993347,0.327725,0.462901,-0.008855,43,266,576,5008
1644156617.171693,-0.01178,0.010132,-0.993164,0.175053,0.462901,0.067481,45,273,575,5056
1644156617.220079,-0.011353,0.009033,-0.992432,0.068183,0.462901,-0.176794,53,279,566,4960
1644156617.268452,-0.011108,0.00769,-0.989441,0.190321,0.325496,-0.100458,43,274,585,4992
1644156617.316864,-0.011108,0.010193,-0.991211,0.205588,0.386565,-0.14626,54,277,568,5008
1644156617.365241,-0.008972,0.009888,-0.992249,0.266656,0.386565,-0.085191,45,270,568,5056
1644156617.41365,-0.011108,0.010925,-0.992615,0.175053,0.478168,-0.115725,42,265,572,5008
1644156617.462034,-0.010376,0.007874,-0.992371,0.220855,0.386565,-0.207328,45,275,570,5024
1644156617.510419,-0.012451,0.008728,-0.992737,0.312458,0.493435,-0.14626,53,271,578,5024
1644156617.5588,-0.010803,0.010071,-0.991211,0.388794,0.569771,-0.161527,47,268,579,5072
1644156617.607188,-0.014526,0.010803,-0.994507,0.220855,0.417099,-0.085191,47,263,577,5008
1644156617.655572,-0.012146,0.010681,-0.993164,0.068183,0.508702,-0.176794,51,269,569,5056
1644156617.703966,-0.008301,0.008972,-0.993896,0.08345,0.523969,-0.192061,54,282,575,5056
1644156617.752354,-0.006775,0.009399,-0.99353,0.220855,0.356031,0.021679,48,269,576,5008
1644156617.800776,-0.010559,0.006409,-0.996582,0.342992,0.539237,-0.14626,53,269,580,5056
1644156617.849166,-0.015076,0.007568,-0.991821,0.144519,0.478168,-0.115725,47,270,577,4960
1644156617.897568,-0.012329,0.010437,-0.990845,0.098718,0.447634,0.143817,58,271,573,5056
1644156617.945976,-0.014221,0.010864,-0.992798,0.327725,0.401832,-0.054656,58,274,578,5008
1644156617.994548,-0.011353,0.006836,-0.991943,0.144519,0.539237,-0.130992,62,271,571,5008
1644156618.067377,-0.011841,0.008911,-0.992432,0.144519,0.386565,-0.14626,45,273,582,4896
1644156618.094167,-0.011963,0.009277,-0.99292,0.113985,0.493435,-0.14626,60,271,578,5024
1644156618.18781,-0.012146,0.007202,-0.993103,0.159786,0.523969,-0.130992,55,274,566,5120
1644156618.236202,-0.010315,0.009033,-0.994324,0.159786,0.371298,-0.207328,51,274,569,5008
1644156618.28486,-0.00415,0.014343,-0.992004,0.190321,0.401832,0.052214,42,280,577,5024
1644156618.333021,-0.018188,0.015015,-0.994324,0.480397,0.859847,-0.008855,43,266,578,4992
1644156618.381392,-0.007751,0.02533,-0.985596,-0.420366,0.03542,-0.375267,48,271,571,5072
1644156618.429785,-0.007324,0.023743,-0.991577,0.404061,0.585038,0.067481,55,279,571,5072
1644156618.478357,-0.020325,0.008911,-0.991882,0.266656,0.310229,-0.085191,49,263,572,4992
1644156618.526554,-0.008423,0.002869,-0.995422,0.052916,0.294962,-0.451603,53,276,573,5024
1644156618.574927,-0.012695,0.008484,-0.992371,0.541466,0.462901,-0.161527,46,276,583,5056
1644156618.623339,-0.013611,0.003235,-0.992981,0.327725,0.325496,-0.237863,43,276,580,5072
1644156618.671712,-0.013184,0.008301,-0.993286,0.159786,0.340763,-0.36,54,275,586,5056
1644156618.720113,-0.016602,0.01825,-0.977844,0.159786,0.447634,-0.100458,49,280,577,5136
1644156618.768468,-0.007629,-0.003662,-0.990967,0.510931,0.447634,0.036947,45,270,577,5008
1644156618.816926,-0.011536,0.001831,-0.994263,0.342992,0.493435,-0.069924,51,271,566,5072
1644156618.865303,-0.009155,0.007263,-0.995728,0.251389,0.447634,0.082748,48,271,576,5072
1644156618.9137,-0.009583,0.005188,-0.993408,0.449863,0.646107,-0.115725,46,269,576,4960
1644156618.962494,-0.013184,0.011658,-0.993225,0.037649,0.585038,-0.207328,55,279,583,5008
1644156619.063263,-0.010193,0.010193,-0.990723,0.297191,0.462901,-0.024122,47,280,575,5104
1644156619.107197,-0.012024,0.007202,-0.991821,0.236122,0.462901,-0.054656,49,270,572,5008
1644156619.155565,-0.009644,0.009033,-0.993652,0.144519,0.447634,0.036947,53,266,571,5024
1644156619.203977,-0.010254,0.00885,-0.993652,0.113985,0.340763,-0.100458,54,282,579,5056
1644156619.252358,-0.014709,0.008972,-0.991211,0.297191,0.401832,-0.115725,49,263,570,5104
1644156619.300735,-0.008789,0.007568,-0.993103,0.327725,0.310229,-0.069924,52,270,572,5024
1644156619.349147,-0.013672,0.008423,-0.994568,0.08345,0.417099,-0.25313,51,279,571,4992
1644156619.397503,-0.011719,0.009033,-0.991577,0.190321,0.447634,-0.069924,53,274,576,5104
1644156619.445927,-0.013062,0.009277,-0.992432,0.281924,0.386565,-0.085191,52,275,570,5056
1644156619.494294,-0.010315,0.010376,-0.990173,0.113985,0.432366,-0.161527,54,275,582,4992
1644156619.5427,-0.012085,0.008728,-0.991943,0.190321,0.218626,-0.100458,53,271,573,5072
1644156619.591072,-0.01239,0.009399,-0.992859,0.190321,0.356031,0.021679,49,268,572,4992
1644156619.639464,-0.012024,0.01062,-0.98999,0.190321,0.386565,-0.14626,57,260,579,4960
1644156619.687856,-0.011047,0.008789,-0.992737,0.068183,0.447634,-0.130992,54,275,579,5072
1644156619.736244,-0.009705,0.009338,-0.995117,0.251389,0.478168,-0.130992,57,285,570,5072
1644156619.784648,-0.014709,0.012634,-0.991821,0.281924,0.432366,-0.085191,54,273,579,5008
1644156619.8331,-0.012268,0.008545,-0.992615,0.251389,0.432366,-0.008855,53,279,578,5056
1644156619.882468,-0.008545,0.008667,-0.992004,0.342992,0.340763,-0.14626,52,280,577,5056
1644156619.932816,-0.013306,0.008057,-0.993591,0.297191,0.508702,-0.008855,43,269,583,5072
1644156619.978576,-0.012939,0.008728,-0.990417,0.175053,0.386565,-0.100458,47,275,575,5104
1644156620.077468,-0.013672,0.010864,-0.991577,0.205588,0.401832,-0.024122,57,277,577,5056
1644156620.123321,-0.011169,0.00708,-0.991943,0.251389,0.386565,-0.069924,57,268,570,5008
1644156620.171729,-0.010254,0.010376,-0.991943,0.220855,0.325496,-0.054656,49,270,579,4992
1644156620.220118,-0.01062,0.010193,-0.992859,0.251389,0.478168,-0.085191,51,274,576,5008
1644156620.268491,-0.011841,0.007202,-0.992737,0.098718,0.371298,-0.024122,41,271,573,5024
1644156620.316876,-0.013062,0.007935,-0.98877,0.373527,0.325496,-0.115725,54,270,575,5056
1644156620.365275,-0.011719,0.007568,-0.991211,0.205588,0.417099,-0.115725,49,277,579,5072
1644156620.413671,-0.012573,0.007568,-0.993164,0.35826,0.493435,-0.176794,51,274,576,5008
1644156620.462067,-0.011169,0.008362,-0.990662,0.220855,0.539237,-0.069924,42,258,579,5056
1644156620.510428,-0.012329,0.007385,-0.994446,0.144519,0.371298,0.067481,48,276,573,5104
1644156620.558824,-0.010498,0.009277,-0.992859,0.205588,0.371298,-0.207328,46,271,576,5008
1644156620.607221,-0.012085,0.009216,-0.994263,0.205588,0.401832,-0.115725,58,276,571,5104
1644156620.655581,-0.013245,0.008545,-0.991882,0.022382,0.447634,-0.130992,48,271,578,5008
1644156620.703997,-0.010925,0.005554,-0.992188,0.113985,0.447634,0.082748,43,274,583,5024
1644156620.752364,-0.010376,0.007751,-0.991333,0.281924,0.310229,-0.192061,53,269,580,5104
1644156620.800771,-0.012512,0.010376,-0.990234,0.236122,0.340763,0.067481,51,283,580,5008
1644156620.849214,-0.010132,0.009705,-0.991821,0.251389,0.432366,-0.054656,57,268,563,5008
1644156620.898667,-0.011658,0.009277,-0.993042,0.205588,0.493435,-0.024122,49,273,577,5024
1644156620.949072,-0.010132,0.008728,-0.990479,0.144519,0.325496,0.052214,47,268,579,5024
1644156620.999257,-0.011169,0.009521,-0.991699,0.251389,0.462901,-0.069924,45,280,575,5056
1644156621.093848,-0.011047,0.005981,-0.990173,0.297191,0.462901,0.006412,55,274,585,5024
1644156621.139468,-0.012024,0.009094,-0.991455,0.08345,0.401832,-0.024122,53,274,576,5024
1644156621.187868,-0.012268,0.00885,-0.990845,0.266656,0.417099,-0.192061,53,276,571,5072
1644156621.236266,-0.013855,0.00769,-0.990479,0.281924,0.462901,-0.14626,57,280,572,5072
1644156621.284748,-0.01062,0.005066,-0.993347,0.281924,0.523969,-0.115725,43,276,578,5024
1644156621.333034,-0.01001,0.006775,-0.99408,0.312458,0.432366,-0.176794,57,270,575,5072
1644156621.381421,-0.00946,0.009216,-0.995422,0.281924,0.371298,-0.100458,51,271,585,5072
1644156621.429822,-0.015625,0.007507,-0.99292,0.175053,0.447634,-0.024122,47,277,572,4992
1644156621.478201,-0.012268,0.009033,-0.994019,0.220855,0.417099,-0.054656,49,273,577,5008
1644156621.526586,-0.011902,0.008911,-0.992004,0.129252,0.340763,-0.069924,46,274,569,5056
1644156621.575099,-0.009949,0.010498,-0.993164,0.251389,0.401832,0.036947,42,268,577,4960
1644156621.623377,-0.011597,0.007874,-0.993958,0.098718,0.356031,-0.039389,51,264,583,5008
1644156621.671759,-0.010559,0.004211,-0.99231,0.144519,0.462901,0.052214,49,277,570,5072
1644156621.720144,-0.013184,0.008118,-0.991943,0.159786,0.478168,-0.130992,57,285,584,4992
1644156621.768796,-0.010925,0.010925,-0.993164,0.312458,0.356031,-0.008855,48,274,569,5104
1644156621.816925,-0.01355,0.008362,-0.992859,0.419328,0.508702,-0.207328,51,276,573,5008
1644156621.865488,-0.012756,0.00824,-0.990784,0.327725,0.478168,-0.222595,55,274,578,5056
1644156621.913742,-0.00708,0.008057,-0.990662,0.236122,0.493435,-0.14626,42,277,570,5072
1644156621.963485,-0.011841,0.008423,-0.991089,0.281924,0.493435,-0.069924,45,275,572,4992
1644156622.063704,-0.008301,0.006958,-0.989685,0.220855,0.432366,-0.207328,53,281,580,5024
1644156622.107294,-0.013306,0.005981,-0.991882,0.08345,0.478168,-0.024122,52,277,579,5072
1644156622.155674,-0.011414,0.007507,-0.991699,0.205588,0.310229,-0.085191,49,280,579,5072
1644156622.204028,-0.013245,0.01001,-0.994812,0.373527,0.493435,-0.039389,49,268,572,5008
1644156622.2524,-0.01178,0.005737,-0.994751,0.327725,0.264427,0.006412,54,270,572,5072
1644156622.300774,-0.013,0.01001,-0.994019,0.159786,0.447634,-0.085191,41,276,578,5008
1644156622.349167,-0.013123,0.009277,-0.99176,0.327725,0.478168,-0.085191,60,266,576,5104
1644156622.397563,-0.014038,0.009399,-0.992798,0.297191,0.493435,-0.024122,53,279,557,4992
1644156622.44597,-0.011292,0.010681,-0.991882,0.144519,0.462901,-0.176794,47,277,575,5056
1644156622.494325,-0.011719,0.006714,-0.993103,0.266656,0.386565,-0.054656,47,277,577,5056
1644156622.542751,-0.010681,0.007812,-0.991882,0.480397,0.417099,0.159084,51,279,569,4992
1644156622.591124,-0.011475,0.006714,-0.991882,0.327725,0.340763,-0.176794,53,271,580,5056
1644156622.639509,-0.009705,0.007385,-0.99231,0.373527,0.325496,-0.25313,51,271,571,5056
1644156622.687903,-0.011169,0.011108,-0.992249,0.266656,0.508702,-0.085191,45,270,575,5072
1644156622.736289,-0.013611,0.010254,-0.991821,0.266656,0.340763,-0.024122,46,271,578,5056
1644156622.784679,-0.011292,0.011169,-0.993835,0.159786,0.340763,-0.14626,55,274,585,5072
1644156622.83319,-0.010864,0.007202,-0.994751,0.35826,0.401832,-0.268397,43,269,569,5024
1644156622.88331,-0.011108,0.008728,-0.99408,0.144519,0.523969,-0.024122,45,268,577,5072
1644156622.933343,-0.013977,0.008362,-0.993469,0.327725,0.539237,-0.039389,60,271,580,5056
1644156622.978539,-0.008057,0.007874,-0.992798,0.098718,0.24916,-0.314198,49,277,572,4992
1644156623.075599,-0.013306,0.009583,-0.992126,0.281924,0.493435,-0.130992,55,276,578,5104
1644156623.123394,-0.012817,0.008057,-0.989807,0.342992,0.386565,-0.207328,47,273,577,5008
1644156623.171775,-0.010803,0.01001,-0.991943,0.190321,0.523969,-0.192061,54,273,572,4992
1644156623.220149,-0.009583,0.008667,-0.994507,0.144519,0.478168,-0.14626,55,279,580,5056
1644156623.268543,-0.013245,0.010071,-0.994141,0.220855,0.478168,-0.024122,49,273,579,5104
1644156623.316928,-0.01062,0.010132,-0.994812,0.342992,0.569771,-0.008855,52,268,570,5104
1644156623.365327,-0.01239,0.008423,-0.991516,0.175053,0.417099,-0.008855,57,273,568,5072
1644156623.413718,-0.012878,0.009766,-0.994446,0.190321,0.356031,0.006412,48,276,569,4992
1644156623.462144,-0.014648,0.008789,-0.993103,0.251389,0.401832,-0.207328,53,274,569,5056
1644156623.510464,-0.013489,0.008301,-0.989502,0.35826,0.585038,-0.115725,53,271,569,5056
1644156623.558884,-0.012024,0.010132,-0.99231,0.220855,0.294962,-0.008855,45,270,568,5056
1644156623.607258,-0.011292,0.007751,-0.993713,0.297191,0.401832,-0.008855,46,266,585,5056
1644156623.655658,-0.012573,0.007568,-0.991943,0.220855,0.325496,-0.100458,47,275,579,5024
1644156623.704051,-0.011047,0.008911,-0.99353,0.266656,0.493435,-0.207328,60,274,576,5072
1644156623.752452,-0.011475,0.008606,-0.992615,0.281924,0.493435,-0.14626,48,281,578,5024
1644156623.80133,-0.010193,0.00769,-0.989441,0.281924,0.24916,-0.054656,47,287,572,4992
1644156623.849248,-0.010681,0.01062,-0.99292,0.327725,0.462901,-0.085191,52,277,577,5056
1644156623.89762,-0.010986,0.009521,-0.991394,0.144519,0.417099,-0.024122,43,271,569,5008
1644156623.946042,-0.012634,0.009583,-0.994873,0.052916,0.310229,-0.054656,47,263,579,5008
1644156623.995187,-0.009949,0.009583,-0.993347,0.281924,0.371298,-0.207328,52,270,575,4944
1644156624.065862,-0.011108,0.00824,-0.993225,0.419328,0.203359,-0.100458,48,279,576,5024
1644156624.096586,-0.01123,0.00708,-0.992981,0.312458,0.356031,-0.207328,60,266,571,5056
1644156624.140597,-0.011353,0.007935,-0.991882,0.327725,0.356031,-0.024122,47,273,570,5008
1644156624.236279,-0.010254,0.009094,-0.993286,0.144519,0.447634,-0.024122,49,280,568,5056
1644156624.284873,-0.012756,0.008057,-0.992615,0.35826,0.417099,-0.085191,46,271,573,5008
1644156624.333076,-0.009155,0.009338,-0.990601,0.236122,0.508702,-0.25313,42,285,570,5072
1644156624.381463,-0.009094,0.010742,-0.990417,0.190321,0.417099,-0.14626,58,276,578,5024
1644156624.429841,-0.010437,0.007507,-0.993347,0.251389,0.386565,-0.085191,48,276,578,4992
1644156624.478205,-0.01062,0.009399,-0.99292,0.266656,0.569771,-0.039389,45,275,577,5056
1644156624.526617,-0.009583,0.009827,-0.990417,0.312458,0.432366,-0.130992,49,273,575,5056
1644156624.575056,-0.011719,0.007935,-0.992188,0.281924,0.493435,-0.222595,45,265,565,5008
1644156624.62341,-0.010254,0.006592,-0.992188,0.266656,0.523969,-0.008855,57,275,568,5024
1644156624.671806,-0.012268,0.006653,-0.993958,0.297191,0.478168,-0.222595,51,269,559,5072
1644156624.720189,-0.010864,0.010437,-0.991516,0.251389,0.432366,-0.024122,52,280,577,5072
1644156624.768579,-0.013672,0.011169,-0.99176,0.129252,0.401832,-0.008855,48,269,564,5104
1644156624.816991,-0.010559,0.009644,-0.990906,0.281924,0.386565,-0.237863,46,269,583,5008
1644156624.865388,-0.01355,0.008362,-0.992188,0.220855,0.371298,-0.130992,52,275,582,4960
1644156624.913773,-0.014648,0.008667,-0.992493,0.266656,0.417099,-0.054656,47,280,570,5056
1644156624.962191,-0.012756,0.008911,-0.992126,0.236122,0.356031,0.021679,47,280,570,5008
1644156625.010513,-0.012207,0.008362,-0.993469,0.144519,0.462901,-0.069924,55,276,578,4992
1644156625.107282,-0.012817,0.008301,-0.991516,0.144519,0.447634,-0.115725,55,281,571,5072
1644156625.15565,-0.013062,0.01001,-0.992188,0.35826,0.493435,-0.130992,42,280,565,4944
1644156625.204054,-0.012695,0.010132,-0.990112,0.327725,0.417099,-0.222595,55,274,573,5056
1644156625.252457,-0.010986,0.00708,-0.993103,0.373527,0.417099,-0.100458,53,271,578,4992
1644156625.300829,-0.013062,0.009705,-0.990723,0.251389,0.386565,-0.115725,47,273,579,5024
1644156625.349221,-0.010254,0.010803,-0.990784,0.327725,0.585038,-0.130992,54,277,577,5024
1644156625.397599,-0.013245,0.007568,-0.991516,0.35826,0.432366,0.036947,45,277,570,5072
1644156625.445985,-0.009766,0.010193,-0.991882,0.266656,0.356031,-0.130992,45,273,563,5008
1644156625.494383,-0.013062,0.008057,-0.994141,0.251389,0.462901,0.052214,46,283,578,5056
1644156625.542784,-0.01416,0.010193,-0.991699,0.266656,0.493435,-0.069924,51,271,569,5056
1644156625.591161,-0.011475,0.009705,-0.993103,-0.02342,0.371298,-0.14626,51,281,566,4992
1644156625.639553,-0.014038,0.010498,-0.995056,0.175053,0.462901,-0.130992,49,265,579,4992
1644156625.687923,-0.012146,0.011047,-0.991455,0.175053,0.371298,-0.100458,49,273,579,4992
1644156625.736327,-0.012024,0.010803,-0.990906,0.052916,0.24916,-0.024122,54,268,565,5056
1644156625.784722,-0.014709,0.007446,-0.993225,0.312458,0.371298,-0.130992,49,268,584,5072
1644156625.833157,-0.010071,0.009766,-0.990723,0.297191,0.462901,-0.115725,41,274,576,5056
1644156625.881499,-0.013062,0.008362,-0.993103,0.098718,0.340763,-0.161527,51,274,583,5072
1644156625.929904,-0.013733,0.012207,-0.992126,0.175053,0.447634,-0.176794,49,275,577,5056
1644156625.978312,-0.011902,0.008179,-0.992004,0.190321,0.371298,-0.115725,59,265,582,5104
1644156626.02685,-0.011475,0.006897,-0.991821,0.281924,0.386565,-0.176794,54,274,566,5024
1644156626.089154,-0.009521,0.008118,-0.99176,0.220855,0.218626,0.098015,49,277,577,5024
1644156626.128174,-0.011597,0.008484,-0.991394,0.236122,0.478168,-0.268397,40,277,584,5024
1644156626.172175,-0.011658,0.009094,-0.992004,0.373527,0.417099,-0.176794,47,273,568,5056
1644156626.268573,-0.011292,0.009583,-0.993347,0.266656,0.310229,-0.039389,42,280,579,5008
1644156626.316963,-0.011047,0.010498,-0.991028,0.159786,0.417099,-0.054656,51,274,573,5024
1644156626.365377,-0.010986,0.01001,-0.991455,0.297191,0.340763,-0.161527,47,275,563,5008
1644156626.41375,-0.012268,0.009705,-0.99115,0.297191,0.569771,-0.100458,46,279,576,5008
1644156626.462357,-0.016602,0.009155,-0.993774,0.190321,0.478168,-0.192061,53,269,578,5024
1644156626.510509,-0.010498,0.010132,-0.991821,0.373527,0.401832,-0.100458,49,275,577,5008
1644156626.558891,-0.009033,0.007263,-0.991699,0.297191,0.478168,-0.192061,49,275,577,5008
1644156626.607301,-0.010925,0.009705,-0.991455,0.205588,0.478168,-0.176794,47,268,577,4960
1644156626.655687,-0.009644,0.011658,-0.990906,0.205588,0.493435,-0.085191,57,265,584,5008
1644156626.704081,-0.013855,0.006897,-0.992004,0.236122,0.340763,-0.222595,57,270,563,5104
1644156626.752451,-0.01239,0.007324,-0.99469,0.297191,0.432366,0.006412,46,274,566,5024
1644156626.800847,-0.011658,0.010254,-0.993164,0.266656,0.340763,-0.085191,42,275,575,5008
1644156626.84928,-0.010681,0.005798,-0.990295,0.220855,0.462901,-0.115725,45,275,570,5104
1644156626.897662,-0.011597,0.008423,-0.993896,0.266656,0.233893,-0.130992,47,275,582,5024
1644156626.946028,-0.012085,0.007874,-0.994324,0.35826,0.24916,-0.039389,43,276,576,5024
1644156626.994449,-0.010925,0.007629,-0.992126,0.220855,0.432366,-0.115725,43,271,573,5056
1644156627.057189,-0.012268,0.00824,-0.991089,0.266656,0.371298,-0.100458,47,273,572,4992
1644156627.092515,-0.010803,0.007935,-0.989929,0.205588,0.478168,0.021679,55,274,580,5072
1644156627.140594,-0.011108,0.010803,-0.994812,0.205588,0.417099,-0.130992,45,273,570,5056
1644156627.189577,-0.012024,0.007324,-0.991882,0.251389,0.600305,0.021679,49,273,568,4992
1644156627.239929,-0.011719,0.012878,-0.994385,0.159786,0.478168,-0.161527,53,276,580,5024
1644156627.285515,-0.013855,0.006348,-0.991577,0.144519,0.371298,-0.161527,38,273,565,5104
1644156627.381481,-0.015076,0.007141,-0.993591,0.220855,0.539237,-0.207328,52,270,570,5008
1644156627.429888,-0.010925,0.007751,-0.992859,0.220855,0.325496,-0.115725,51,269,571,5056
1644156627.478279,-0.010803,0.011353,-0.992188,0.266656,0.356031,-0.100458,43,269,580,5056
1644156627.526658,-0.014832,0.009399,-0.992798,0.281924,0.478168,-0.085191,54,265,575,5008
1644156627.57508,-0.014893,0.010193,-0.993896,0.175053,0.294962,-0.115725,55,279,571,5024
1644156627.623452,-0.010803,0.008545,-0.993713,0.281924,0.447634,-0.115725,48,269,571,5072
1644156627.671836,-0.012268,0.007812,-0.993408,0.144519,0.569771,-0.115725,49,268,575,5008
1644156627.720227,-0.011841,0.00946,-0.991699,0.144519,0.478168,-0.25313,59,280,584,5104
1644156627.76861,-0.007996,0.007629,-0.992126,0.205588,0.447634,-0.085191,43,279,569,4928
1644156627.816986,-0.012085,0.011108,-0.989685,0.266656,0.508702,0.006412,57,273,572,5104
1644156627.865428,-0.009888,0.007324,-0.98877,0.236122,0.462901,-0.100458,53,269,576,5104
1644156627.913833,-0.011108,0.005737,-0.99115,0.129252,0.340763,-0.008855,47,285,565,5056
1644156627.962284,-0.008545,0.008423,-0.994446,0.098718,0.432366,-0.268397,54,273,572,5072
1644156628.01056,-0.009338,0.007874,-0.993164,0.175053,0.417099,-0.008855,43,274,573,5008
1644156628.067977,-0.011841,0.008362,-0.994324,0.251389,0.523969,-0.100458,42,273,579,4960
1644156628.107384,-0.013123,0.007202,-0.991455,0.342992,0.401832,-0.14626,49,273,577,5008
1644156628.155706,-0.011597,0.008972,-0.992188,0.175053,0.462901,-0.008855,57,275,572,5008
1644156628.204106,-0.010986,0.007935,-0.992859,0.312458,0.585038,-0.039389,51,279,573,5056
1644156628.252802,-0.01123,0.007385,-0.992554,0.144519,0.447634,-0.069924,47,270,575,5056
1644156628.301769,-0.011719,0.008057,-0.992859,0.113985,0.310229,-0.130992,55,271,576,5008
1644156628.352027,-0.012268,0.010498,-0.991028,0.220855,0.432366,-0.054656,49,273,584,5104
1644156628.40233,-0.010925,0.008728,-0.992981,0.404061,0.569771,-0.14626,45,275,584,5024
1644156628.494462,-0.011902,0.008484,-0.990601,0.251389,0.294962,-0.100458,52,268,568,4960
1644156628.542819,-0.009583,0.006775,-0.993652,0.449863,0.432366,-0.222595,55,266,573,5072
1644156628.591178,-0.011108,0.009338,-0.991394,0.129252,0.356031,-0.176794,55,271,573,5024
1644156628.639562,-0.00946,0.007629,-0.994629,0.266656,0.264427,-0.207328,54,280,575,5024
1644156628.687984,-0.010315,0.007874,-0.98999,0.220855,0.447634,-0.130992,54,275,575,5056
1644156628.736358,-0.011841,0.008423,-0.9953,0.297191,0.478168,-0.130992,49,275,572,5056
1644156628.784754,-0.013184,0.009216,-0.991882,0.159786,0.371298,0.006412,46,286,571,5008
1644156628.833142,-0.009094,0.009033,-0.9953,0.205588,0.508702,-0.115725,55,276,573,5008
1644156628.881572,-0.012329,0.005615,-0.992188,0.312458,0.371298,-0.207328,42,275,572,5056
1644156628.92996,-0.011719,0.008179,-0.991943,0.35826,0.462901,-0.100458,57,275,577,5024
1644156628.97832,-0.009277,0.009216,-0.990662,0.342992,0.478168,-0.192061,61,270,582,5072
1644156629.026705,-0.012756,0.007751,-0.991089,0.159786,0.462901,-0.100458,41,271,576,5072
1644156629.08431,-0.010193,0.011475,-0.991943,0.251389,0.462901,-0.130992,47,282,579,5008
1644156629.12351,-0.013428,0.010437,-0.992126,0.342992,0.554504,-0.176794,57,273,570,5008
1644156629.171916,-0.009399,0.009277,-0.989746,0.159786,0.569771,-0.161527,41,276,569,5024
1644156629.221692,-0.013367,0.008057,-0.992188,0.312458,0.386565,-0.14626,52,275,568,4960
1644156629.272263,-0.015503,0.010925,-0.994873,0.35826,0.554504,-0.039389,45,270,570,5008
1644156629.322377,-0.012878,0.007629,-0.99054,0.220855,0.386565,-0.130992,49,273,577,5072
1644156629.413887,-0.010742,0.006592,-0.992493,0.159786,0.432366,-0.130992,51,269,571,5024
1644156629.462412,-0.006165,0.007507,-0.992615,0.175053,0.371298,-0.085191,53,271,578,5056
1644156629.510593,-0.020813,0.011536,-0.990662,0.46513,0.722443,0.006412,48,271,576,4960
1644156629.558983,-0.007996,0.00946,-0.992432,0.190321,0.310229,-0.222595,55,264,571,5024
1644156629.60737,-0.006714,0.014709,-0.993774,0.419328,0.554504,-0.054656,52,270,575,5072
1644156629.655774,-0.014343,0.00647,-0.99231,0.098718,0.539237,-0.008855,49,273,579,5056
1644156629.704165,-0.010437,0.00708,-0.994629,0.08345,0.325496,-0.375267,53,259,573,5024
1644156629.752522,-0.011963,0.013123,-0.992798,0.388794,0.478168,-0.008855,53,269,573,5056
1644156629.800933,-0.012329,0.008667,-0.995422,0.129252,0.325496,-0.069924,47,270,577,5008
1644156629.849299,-0.010071,0.010986,-0.992188,0.129252,0.417099,-0.222595,49,277,572,5056
1644156629.897711,-0.013733,0.01001,-0.993835,0.35826,0.493435,0.006412,49,275,572,5072
1644156629.946095,-0.008911,0.00769,-0.992371,0.281924,0.264427,-0.039389,45,263,579,5008
1644156629.994504,-0.011292,0.012085,-0.990906,0.312458,0.554504,-0.298931,57,270,565,5104
1644156630.057218,-0.00885,0.010681,-0.990723,0.144519,0.386565,-0.054656,48,271,580,5120
1644156630.092583,-0.010498,0.009949,-0.992676,0.175053,0.401832,-0.314198,60,276,573,5008
1644156630.139647,-0.009338,0.011292,-0.991943,0.205588,0.325496,-0.069924,46,276,571,5008
1644156630.188038,-0.015259,0.009338,-0.991882,0.35826,0.447634,-0.14626,49,265,572,5072
1644156630.23656,-0.008911,0.010254,-0.993103,0.159786,0.554504,-0.176794,52,277,568,5056
1644156630.284842,-0.01355,0.009705,-0.990906,0.434595,0.356031,-0.161527,41,274,571,5072
1644156630.334438,-0.011719,0.009155,-0.993347,0.312458,0.325496,-0.008855,43,264,576,5008
1644156630.384397,-0.011292,0.010193,-0.992432,0.190321,0.401832,-0.237863,49,277,570,5072
1644156630.434669,-0.015198,0.010559,-0.989624,0.327725,0.493435,0.021679,49,270,577,5056
1644156630.479797,-0.008118,0.006653,-0.994568,-0.008153,0.386565,-0.207328,51,269,569,5072
1644156630.575376,-0.014893,0.010132,-0.991638,0.251389,0.493435,-0.039389,42,270,572,5072
1644156630.623539,-0.01178,0.008057,-0.997498,0.251389,0.478168,-0.14626,46,269,583,5072
1644156630.671925,-0.012268,0.012634,-0.991028,0.35826,0.493435,0.067481,53,266,573,5024
1644156630.720269,-0.012329,0.008362,-0.992249,0.220855,0.462901,-0.192061,42,275,572,5056
1644156630.768669,-0.002258,-0.005005,-0.994568,0.266656,0.371298,-0.405802,41,269,573,5056
1644156630.817063,-0.017273,0.005676,-0.992188,0.388794,0.523969,-0.054656,45,268,572,5024
1644156630.865456,-0.008179,0.001282,-0.98938,0.297191,0.371298,-0.25313,54,273,577,5072
1644156630.913863,-0.007874,0.006592,-0.990784,0.327725,0.386565,-0.115725,55,276,578,5024
1644156630.962263,-0.012695,0.005371,-0.991821,0.190321,0.523969,0.098015,47,273,570,4960
1644156631.010634,-0.009521,0.000427,-0.99585,0.159786,0.310229,-0.192061,58,271,578,5056
1644156631.064889,-0.011047,0.015625,-0.993774,0.068183,0.340763,-0.25313,45,277,572,5056
1644156631.107368,-0.013245,0.007751,-0.989258,0.419328,0.325496,0.250687,57,275,563,4960
1644156631.155751,-0.011169,0.009644,-0.993286,0.297191,0.417099,-0.192061,55,269,573,5104
1644156631.204149,-0.008911,0.007812,-0.990967,0.404061,0.356031,0.052214,42,280,582,4992
1644156631.252502,-0.014832,0.00769,-0.994263,0.266656,0.356031,0.174351,46,271,576,5008
1644156631.300904,-0.012085,0.010376,-0.993591,0.068183,0.447634,-0.161527,45,277,575,4960
1644156631.349296,-0.011414,0.013245,-0.990723,0.266656,0.539237,0.098015,48,266,571,4992
1644156631.397684,-0.011719,0.005066,-0.992676,0.327725,0.676641,-0.130992,58,274,564,5008
1644156631.446108,-0.008606,0.010376,-0.991821,0.129252,0.371298,-0.283664,55,274,571,5072
1644156631.496981,-0.009277,0.007507,-0.993347,0.190321,0.478168,0.021679,54,268,570,5008
1644156631.546461,-0.011597,0.008423,-0.99054,0.388794,0.401832,-0.25313,47,273,582,4992
1644156631.592007,-0.012024,0.01001,-0.991089,0.342992,0.417099,-0.237863,47,275,577,4992
1644156631.687997,-0.010376,0.007751,-0.989868,0.190321,0.401832,-0.222595,53,281,569,5056
1644156631.736379,-0.012329,0.011169,-0.990479,0.297191,0.386565,0.036947,55,274,578,4992
1644156631.784923,-0.010803,0.008789,-0.99231,0.205588,0.417099,-0.054656,42,270,572,5056
1644156631.833225,-0.009888,0.008972,-0.993042,0.327725,0.493435,-0.115725,46,279,576,5072
1644156631.881597,-0.013245,0.009216,-0.991455,0.266656,0.539237,-0.024122,54,277,575,5024
1644156631.930002,-0.008911,0.00708,-0.993408,0.175053,0.310229,-0.192061,47,277,572,5072
1644156631.978382,-0.012146,0.011719,-0.991943,0.236122,0.432366,0.036947,54,280,570,5056
1644156632.026784,-0.010864,0.009766,-0.994446,0.342992,0.554504,-0.176794,45,275,575,5024
1644156632.085096,-0.012146,0.00824,-0.992249,0.236122,0.386565,-0.115725,46,269,580,5008
1644156632.123511,-0.01355,0.01062,-0.992737,0.205588,0.371298,0.006412,46,276,576,4992
1644156632.171895,-0.001282,0.006287,-0.989807,0.236122,0.554504,-0.039389,53,283,590,4960
1644156632.220293,0.001587,0.011108,-0.993408,0.724672,0.798779,-0.130992,51,283,566,5056
1644156632.268661,-0.013428,0.008911,-0.987793,0.312458,0.340763,-0.207328,42,273,563,5072
1644156632.31707,-0.004578,0.004883,-0.993896,0.35826,0.401832,-0.039389,48,271,580,5008
1644156632.365442,-0.015747,0.004822,-0.990173,0.190321,0.523969,0.006412,51,274,576,5024
1644156632.413831,-0.011719,0.010315,-0.991943,0.129252,0.279695,-0.192061,51,271,580,4944
1644156632.462242,-0.011169,0.011597,-0.996216,0.220855,0.401832,0.082748,51,281,578,5056
1644156632.510608,-0.013062,0.007507,-0.993469,0.236122,0.356031,-0.36,48,281,578,4992
1644156632.559067,-0.011536,0.009827,-0.992615,0.175053,0.310229,-0.314198,53,276,569,5008
1644156632.608394,-0.010925,0.008301,-0.995972,0.388794,0.539237,-0.039389,41,269,573,5024
1644156632.658679,-0.008484,0.010071,-0.988892,0.312458,0.356031,-0.283664,45,265,577,5072
1644156632.708821,-0.01239,0.006348,-0.990356,0.312458,0.417099,-0.130992,51,269,576,4992
1644156632.800907,-0.01062,0.010925,-0.990723,0.129252,0.371298,-0.054656,54,268,568,5024
1644156632.849351,-0.009094,0.011719,-0.99115,0.404061,0.432366,0.036947,48,269,566,5056
1644156632.897742,-0.012817,0.009216,-0.990479,0.251389,0.569771,-0.14626,49,280,570,4960
1644156632.946133,-0.012634,0.004761,-0.99054,0.144519,0.310229,-0.085191,53,279,569,4992
1644156632.994531,-0.011353,0.00824,-0.989746,0.159786,0.356031,-0.176794,52,260,575,4992
1644156633.056202,-0.014893,0.007263,-0.991638,0.342992,0.386565,-0.222595,49,273,575,5104
1644156633.094896,-0.010742,0.009277,-0.991577,0.266656,0.447634,-0.14626,49,275,575,4960
1644156633.139645,-0.013062,0.009338,-0.990173,0.281924,0.432366,-0.024122,55,264,573,4992
1644156633.188025,-0.012024,0.008972,-0.994873,0.175053,0.493435,-0.054656,47,268,582,5120
1644156633.236415,-0.012085,0.009033,-0.992615,0.159786,0.523969,-0.039389,58,266,566,5056
1644156633.284803,-0.009216,0.008362,-0.989258,0.251389,0.523969,-0.039389,48,266,583,5056
1644156633.333211,-0.011475,0.009399,-0.993225,0.159786,0.447634,-0.25313,47,282,582,4992
1644156633.381582,-0.011658,0.008118,-0.991943,0.205588,0.508702,-0.14626,54,270,570,5008
1644156633.429986,-0.012512,0.008911,-0.994446,0.251389,0.447634,-0.115725,46,283,578,5072
1644156633.478363,-0.010498,0.008362,-0.992249,0.266656,0.493435,-0.130992,59,275,572,5072
1644156633.526746,-0.010376,0.007385,-0.994507,0.236122,0.600305,-0.069924,45,277,568,5056
1644156633.575225,-0.010803,0.010803,-0.992493,0.159786,0.401832,-0.100458,54,270,575,5072
1644156633.62367,-0.008911,0.008423,-0.991699,0.220855,0.401832,0.006412,54,275,577,5008
1644156633.672804,-0.007202,0.007385,-0.992004,0.236122,0.356031,0.052214,47,270,575,5008
1644156633.7231,-0.012024,0.008423,-0.99176,0.281924,0.554504,-0.054656,58,271,573,4992
1644156633.773016,-0.012512,0.008545,-0.993835,0.404061,0.371298,-0.069924,46,276,576,5056
1644156633.865486,-0.013062,0.007202,-0.992432,0.159786,0.600305,-0.100458,47,277,572,5072
1644156633.913888,-0.013977,0.00592,-0.992554,0.220855,0.279695,-0.039389,57,273,584,5008
1644156633.962415,-0.012634,0.008484,-0.989746,0.251389,0.310229,-0.161527,49,263,572,5072
1644156634.010643,-0.009705,0.006897,-0.992615,0.190321,0.478168,-0.115725,52,270,584,5024
1644156634.063043,-0.015442,0.006714,-0.991638,0.129252,0.554504,-0.130992,49,280,582,5056
1644156634.107445,-0.008789,0.005981,-0.994141,0.205588,0.356031,-0.115725,51,264,578,5104
1644156634.155754,-0.012695,0.009521,-0.991882,0.281924,0.432366,0.067481,52,270,572,5056
1644156634.20417,-0.01062,0.008972,-0.992615,0.068183,0.493435,-0.130992,52,275,570,4992
1644156634.252548,-0.012085,0.009583,-0.990601,0.312458,0.462901,-0.176794,43,271,566,5024
1644156634.300926,-0.011047,0.005493,-0.993958,0.281924,0.386565,-0.130992,48,283,580,5024
1644156634.349343,-0.008667,0.010681,-0.99469,0.297191,0.371298,-0.100458,55,271,580,5072
1644156634.397735,-0.012878,0.009827,-0.993347,0.190321,0.478168,-0.161527,46,271,564,5072
1644156634.446115,-0.008606,0.011658,-0.99469,0.220855,0.462901,-0.100458,47,270,572,5056
1644156634.494481,-0.010559,0.010193,-0.993591,0.281924,0.401832,-0.237863,47,268,570,5056
1644156634.542909,-0.008972,0.007812,-0.994995,0.098718,0.478168,-0.039389,46,276,576,5008
1644156634.591254,-0.009949,0.007141,-0.994202,0.297191,0.279695,-0.192061,59,275,572,5056
1644156634.63966,-0.011658,0.008789,-0.991882,0.312458,0.432366,-0.039389,47,268,582,5008
1644156634.688043,-0.011963,0.006592,-0.992798,0.266656,0.539237,-0.008855,43,271,583,5072
1644156634.736435,-0.013489,0.007568,-0.990112,0.35826,0.356031,0.113282,52,260,577,5024
1644156634.784888,-0.007812,0.007751,-0.992676,0.190321,0.371298,-0.100458,46,264,573,4992
1644156634.83525,-0.013855,0.008972,-0.99115,0.312458,0.264427,-0.115725,54,282,568,5024
1644156634.88626,-0.013184,0.009277,-0.990173,0.327725,0.447634,-0.207328,55,264,576,5024
1644156634.931269,-0.009949,0.008362,-0.991638,0.35826,0.493435,-0.115725,45,273,575,5008
1644156635.026794,-0.011047,0.007202,-0.991272,0.205588,0.478168,-0.115725,41,274,571,5008
1644156635.078881,-0.01178,0.008179,-0.992737,0.312458,0.585038,0.067481,51,276,573,5008
1644156635.123574,-0.011108,0.007935,-0.993774,0.327725,0.264427,-0.130992,60,271,569,5072
1644156635.171915,-0.012024,0.009338,-0.994568,0.327725,0.432366,-0.192061,46,266,571,4992
1644156635.220295,-0.012207,0.009705,-0.993469,0.236122,0.417099,-0.100458,47,275,572,5056
1644156635.268681,-0.013367,0.007629,-0.993225,0.236122,0.523969,-0.14626,39,281,569,5008
1644156635.317082,-0.011475,0.008606,-0.992737,0.35826,0.478168,-0.085191,47,273,572,5072
1644156635.365473,-0.00946,0.007202,-0.992859,0.144519,0.401832,-0.192061,43,274,573,5056
1644156635.413875,-0.01355,0.008362,-0.992065,0.098718,0.432366,-0.085191,53,264,583,4992
1644156635.462268,-0.009949,0.010193,-0.992249,0.312458,0.386565,-0.207328,52,270,570,5120
1644156635.510623,-0.01178,0.009216,-0.990662,0.159786,0.523969,-0.207328,47,277,579,5056
1644156635.559026,-0.010742,0.012329,-0.990601,0.236122,0.523969,-0.100458,45,275,575,5024
1644156635.607415,-0.011108,0.00946,-0.992493,0.312458,0.554504,-0.008855,45,270,568,5056
1644156635.655797,-0.011597,0.008484,-0.993835,0.205588,0.523969,-0.054656,55,271,578,5008
1644156635.704196,-0.011536,0.011047,-0.993896,0.144519,0.325496,-0.008855,51,274,566,4944
1644156635.752563,-0.010193,0.008545,-0.992065,0.220855,0.493435,-0.14626,43,271,576,5072
1644156635.800968,-0.010681,0.007812,-0.995178,0.144519,0.356031,-0.085191,42,268,577,5008
1644156635.849401,-0.011353,0.01001,-0.994324,0.281924,0.462901,-0.039389,51,276,573,5056
1644156635.898189,-0.01355,0.010559,-0.989868,0.251389,0.24916,0.021679,49,268,572,5008
1644156635.948408,-0.01001,0.009583,-0.993774,0.373527,0.356031,-0.161527,51,266,573,5104
1644156635.999359,-0.010071,0.008606,-0.990906,0.205588,0.432366,0.021679,54,258,577,5008
1644156636.093878,-0.01355,0.009033,-0.994507,0.068183,0.401832,0.021679,54,263,584,4992
1644156636.139722,-0.013306,0.008179,-0.993896,0.312458,0.371298,-0.069924,48,283,576,5008
1644156636.188072,-0.010071,0.01062,-0.991516,0.236122,0.493435,-0.14626,51,271,569,5056
1644156636.236439,-0.010681,0.007935,-0.992981,0.190321,0.386565,-0.115725,58,266,571,5024
1644156636.284853,-0.01062,0.007202,-0.992249,0.312458,0.279695,-0.161527,58,276,571,5024
1644156636.333233,-0.01123,0.008423,-0.990112,0.190321,0.386565,-0.298931,52,277,570,5008
1644156636.381625,-0.015625,0.00708,-0.989075,0.266656,0.371298,-0.008855,48,274,569,5008
1644156636.430022,-0.009949,0.012085,-0.993591,0.281924,0.356031,-0.130992,49,268,575,5104
1644156636.478398,-0.011658,0.009033,-0.992676,0.251389,0.478168,-0.115725,52,275,575,5072
1644156636.526784,-0.009949,0.007385,-0.991882,0.312458,0.508702,-0.069924,46,274,571,5008
1644156636.575246,-0.011353,0.00769,-0.992676,0.236122,0.310229,-0.130992,57,270,572,5072
1644156636.623526,-0.012512,0.007812,-0.991394,0.159786,0.386565,-0.100458,42,275,572,4992
1644156636.67195,-0.013123,0.011902,-0.991394,0.266656,0.478168,-0.176794,59,270,572,5008
1644156636.720335,-0.009949,0.007141,-0.992126,0.175053,0.371298,-0.008855,49,268,565,5056
1644156636.768728,-0.012268,0.008362,-0.990845,0.190321,0.417099,-0.207328,49,273,572,5056
1644156636.817125,-0.011841,0.010498,-0.992554,0.144519,0.264427,-0.115725,43,279,583,5104
1644156636.865863,-0.011719,0.009766,-0.992676,0.144519,0.417099,-0.085191,51,271,573,5056
1644156636.913961,-0.012512,0.009094,-0.991638,0.129252,0.401832,-0.115725,49,277,582,5056
1644156636.963715,-0.011658,0.008728,-0.994568,0.037649,0.279695,-0.14626,55,266,580,5056
1644156637.06303,-0.010559,0.009399,-0.993042,0.327725,0.462901,-0.115725,49,270,570,5008
1644156637.10748,-0.011841,0.010315,-0.992615,0.205588,0.462901,-0.100458,55,283,583,5072
1644156637.155869,-0.011658,0.007507,-0.99231,0.220855,0.264427,-0.069924,53,276,576,5008
1644156637.204274,-0.012085,0.008545,-0.99176,0.205588,0.432366,-0.161527,54,277,570,5008
1644156637.252629,-0.01123,0.010437,-0.991577,0.297191,0.371298,-0.085191,48,271,573,5072
1644156637.301006,-0.011597,0.009888,-0.990417,0.159786,0.279695,-0.054656,46,281,573,5056
1644156637.349428,-0.011414,0.009399,-0.989441,0.159786,0.478168,-0.115725,51,266,576,4992
1644156637.397806,-0.012756,0.008362,-0.991638,0.113985,0.523969,-0.039389,53,274,564,4992
1644156637.446173,-0.012756,0.011597,-0.992432,0.159786,0.478168,-0.130992,48,274,576,5024
1644156637.494678,-0.011719,0.010376,-0.991699,0.144519,0.417099,-0.069924,47,280,563,4960
1644156637.542977,-0.012451,0.010376,-0.991821,0.312458,0.294962,-0.100458,52,270,572,5056
1644156637.591344,-0.012878,0.010681,-0.990051,0.312458,0.462901,-0.161527,53,274,580,5024
1644156637.639748,-0.010803,0.008911,-0.992004,0.068183,0.417099,-0.161527,46,269,578,5072
1644156637.688133,-0.013611,0.008301,-0.990112,0.251389,0.462901,-0.069924,49,268,579,5056
1644156637.736515,-0.013733,0.010193,-0.990662,0.327725,0.386565,0.021679,49,275,577,5024
1644156637.784982,-0.01178,0.010132,-0.99054,0.144519,0.417099,-0.008855,51,274,578,5056
1644156637.835471,-0.011169,0.009338,-0.991455,0.220855,0.401832,-0.085191,52,275,570,5136
1644156637.884203,-0.011475,0.008179,-0.991089,0.251389,0.493435,-0.039389,66,265,572,5056
1644156637.93434,-0.012329,0.009338,-0.991699,0.159786,0.493435,-0.176794,51,271,571,5024
1644156637.979507,-0.010803,0.007874,-0.993286,0.35826,0.401832,-0.085191,43,266,569,4960
1644156638.076401,-0.012146,0.008301,-0.993591,0.281924,0.493435,-0.069924,49,260,579,5056
1644156638.123584,-0.012268,0.00824,-0.99054,0.220855,0.386565,-0.085191,52,270,568,5072
1644156638.171953,-0.011169,0.009888,-0.992615,0.175053,0.447634,0.12855,52,273,579,5056
1644156638.220372,-0.012268,0.008423,-0.992249,0.190321,0.508702,0.052214,52,273,577,5056
1644156638.268733,-0.013855,0.007446,-0.991699,0.129252,0.294962,0.052214,55,281,578,5056
1644156638.317118,-0.010742,0.009155,-0.991211,0.190321,0.417099,-0.054656,48,271,566,5072
1644156638.365524,-0.014771,0.008362,-0.993896,0.281924,0.447634,-0.039389,47,275,568,5072
1644156638.413922,-0.009033,0.009888,-0.993896,0.251389,0.417099,-0.192061,51,276,578,5024
1644156638.462322,-0.01239,0.006592,-0.991821,0.129252,0.386565,-0.115725,55,266,576,5024
1644156638.510641,-0.010559,0.006287,-0.992676,0.266656,0.310229,-0.115725,48,264,580,5104
1644156638.55907,-0.010437,0.009094,-0.994934,0.251389,0.386565,-0.069924,55,279,566,5056
1644156638.607449,-0.013123,0.007141,-0.990173,0.266656,0.310229,-0.161527,55,269,578,5072
1644156638.655855,-0.009705,0.006592,-0.993835,0.281924,0.493435,-0.192061,47,275,579,5024
1644156638.704232,-0.012756,0.01062,-0.993225,0.281924,0.401832,-0.176794,54,273,572,5024
1644156638.752609,-0.010132,0.006042,-0.99231,0.251389,0.462901,-0.130992,45,275,579,5008
1644156638.80105,-0.013184,0.009094,-0.991821,0.327725,0.508702,-0.115725,45,273,572,5104
1644156638.84946,-0.011169,0.006042,-0.993408,0.312458,0.325496,-0.222595,46,269,576,4992
1644156638.899156,-0.011536,0.007141,-0.990845,0.251389,0.478168,0.098015,48,279,573,5056
1644156638.949417,-0.012817,0.008789,-0.99292,0.159786,0.386565,-0.161527,45,277,582,4992
1644156639.000524,-0.012573,0.006958,-0.993042,0.251389,0.386565,-0.115725,52,268,575,5024
1644156639.094054,-0.011719,0.009521,-0.996338,0.205588,0.432366,-0.207328,52,275,579,5104
1644156639.1397,-0.012207,0.005615,-0.992493,0.419328,0.401832,0.036947,51,283,569,5024
1644156639.18809,-0.011536,0.01001,-0.992676,0.266656,0.386565,-0.192061,46,274,564,5072
1644156639.236489,-0.012329,0.009155,-0.992188,0.251389,0.432366,-0.14626,52,270,568,5024
1644156639.284881,-0.010864,0.010071,-0.994629,0.159786,0.310229,-0.222595,52,275,558,5072
1644156639.333286,-0.01239,0.00769,-0.991638,0.251389,0.356031,-0.14626,45,273,572,5008
1644156639.381674,-0.011841,0.00708,-0.993591,0.266656,0.371298,-0.039389,43,279,571,5008
1644156639.430053,-0.013733,0.007202,-0.991089,0.205588,0.417099,-0.039389,53,279,580,5104
1644156639.478438,-0.014221,0.008179,-0.992859,0.220855,0.386565,-0.161527,48,274,580,5104
1644156639.526823,-0.012207,0.009277,-0.992737,0.175053,0.386565,-0.115725,38,270,579,5104
1644156639.575299,-0.012695,0.006348,-0.991821,0.220855,0.386565,-0.008855,51,279,562,5008
1644156639.623618,-0.01593,0.009094,-0.994507,0.190321,0.462901,-0.039389,46,274,571,5104
1644156639.671996,-0.009338,0.008606,-0.994873,0.373527,0.432366,-0.207328,45,268,572,5056
1644156639.720374,-0.010132,0.007996,-0.990967,0.297191,0.554504,-0.161527,51,274,587,5024
1644156639.768735,-0.011658,0.008362,-0.994202,0.113985,0.401832,-0.115725,40,282,568,5008
1644156639.817196,-0.011292,0.008423,-0.99231,0.297191,0.417099,-0.207328,47,273,575,4992
1644156639.865815,-0.011475,0.009644,-0.991516,0.205588,0.462901,-0.069924,58,266,585,5056
1644156639.913988,-0.012817,0.010193,-0.991943,0.297191,0.386565,-0.130992,53,271,573,5024
1644156639.963327,-0.010681,0.01123,-0.989563,0.175053,0.325496,-0.039389,48,259,569,4960
1644156640.064534,-0.011902,0.004211,-0.99353,0.236122,0.356031,0.036947,47,270,575,4960
1644156640.10751,-0.015015,0.006958,-0.991821,0.205588,0.371298,-0.054656,43,279,573,5056
1644156640.155866,-0.011047,0.009033,-0.991394,0.236122,0.294962,-0.069924,57,270,577,4944
1644156640.20423,-0.008179,0.008789,-0.991638,0.220855,0.493435,-0.176794,45,280,572,5008
1644156640.252629,-0.011108,0.007751,-0.992004,0.205588,0.478168,-0.192061,52,268,575,5024
1644156640.301009,-0.014404,0.008911,-0.993652,0.220855,0.417099,-0.069924,48,274,573,4992
1644156640.349422,-0.013062,0.010803,-0.989868,0.251389,0.432366,-0.176794,51,276,571,4992
1644156640.397852,-0.013428,0.009521,-0.992188,0.342992,0.325496,0.036947,42,280,577,4992
1644156640.446192,-0.012512,0.009705,-0.991577,0.205588,0.554504,-0.207328,46,274,578,5104
1644156640.494672,-0.013428,0.010742,-0.993469,0.175053,0.401832,-0.176794,64,273,572,5056
1644156640.542979,-0.007874,0.008057,-0.991028,0.312458,0.539237,-0.024122,52,270,570,5024
1644156640.591355,-0.010254,0.007263,-0.992676,0.312458,0.417099,0.052214,58,274,573,5024
1644156640.639747,-0.011169,0.009155,-0.991943,0.205588,0.523969,-0.115725,52,280,582,5056
1644156640.688133,-0.011414,0.008423,-0.994202,0.159786,0.386565,-0.039389,51,276,571,5056
1644156640.736518,-0.010193,0.009399,-0.99292,0.205588,0.432366,-0.14626,51,271,578,5072
1644156640.784897,-0.010071,0.009949,-0.993225,0.220855,0.508702,0.052214,52,273,568,4944
1644156640.83376,-0.01355,0.008362,-0.99231,0.236122,0.294962,-0.115725,53,264,578,5104
1644156640.883814,-0.010559,0.008545,-0.993103,0.327725,0.371298,-0.008855,48,276,569,5024
1644156640.934249,-0.013184,0.011719,-0.990234,0.236122,0.539237,-0.085191,49,265,568,5072
1644156640.979113,-0.007935,0.00708,-0.991638,0.342992,0.417099,-0.085191,52,265,582,5024
1644156641.075423,-0.009521,0.009827,-0.990723,0.297191,0.401832,-0.25313,46,264,580,5104
1644156641.123636,-0.011414,0.010315,-0.994568,0.35826,0.447634,-0.100458,48,274,583,4992
1644156641.172013,-0.013672,0.010498,-0.992798,0.312458,0.508702,-0.054656,51,279,569,5056
1644156641.220386,-0.014404,0.007141,-0.990784,0.159786,0.432366,-0.14626,47,275,575,4992
1644156641.268781,-0.012634,0.007996,-0.993164,0.236122,0.356031,-0.130992,45,270,568,5008
1644156641.317167,-0.010498,0.00824,-0.993652,0.098718,0.600305,-0.069924,57,275,575,5072
1644156641.36556,-0.011475,0.010315,-0.992981,0.327725,0.218626,-0.054656,52,280,570,5008
1644156641.41395,-0.014404,0.006714,-0.990845,0.129252,0.432366,-0.085191,58,271,578,5008
1644156641.462341,-0.010864,0.007324,-0.993164,0.312458,0.371298,-0.054656,41,269,569,5072
1644156641.510694,-0.012695,0.011047,-0.992493,0.434595,0.523969,-0.039389,41,279,569,5024
1644156641.559102,-0.010864,0.008911,-0.991699,0.129252,0.462901,-0.039389,55,271,573,4992
1644156641.607487,-0.011658,0.00592,-0.990784,0.144519,0.447634,-0.008855,46,281,576,5056
1644156641.655852,-0.011719,0.008789,-0.989502,0.159786,0.371298,-0.192061,53,271,587,5024
1644156641.704285,-0.010986,0.009399,-0.989868,0.297191,0.371298,-0.069924,48,281,571,5024
1644156641.752645,-0.012024,0.007874,-0.991638,0.175053,0.478168,-0.161527,59,268,570,5008
1644156641.801034,-0.011658,0.007812,-0.992554,0.144519,0.462901,-0.069924,48,279,578,5008
1644156641.849482,-0.012268,0.007385,-0.992615,0.098718,0.493435,-0.024122,48,271,576,4960
1644156641.898297,-0.012817,0.009277,-0.993408,0.327725,0.386565,-0.069924,42,287,568,5056
1644156641.948391,-0.012756,0.010071,-0.99469,0.266656,0.386565,-0.039389,54,275,577,5136
1644156641.999195,-0.009277,0.007324,-0.992371,0.251389,0.417099,-0.161527,46,262,571,5104
1644156642.094163,-0.012634,0.008667,-0.991882,0.159786,0.478168,-0.008855,58,274,573,5072
1644156642.139808,-0.01062,0.006592,-0.995483,0.35826,0.447634,-0.069924,49,268,572,5056
1644156642.188161,-0.012268,0.00946,-0.991455,0.129252,0.569771,-0.161527,55,274,571,5024
1644156642.236532,-0.010193,0.008423,-0.99115,0.220855,0.371298,-0.039389,53,264,583,5008
1644156642.284923,-0.011108,0.009155,-0.993347,0.190321,0.539237,-0.115725,53,271,573,5072
1644156642.33333,-0.01355,0.009705,-0.994263,0.159786,0.508702,-0.130992,53,279,590,4992
1644156642.38171,-0.010925,0.010376,-0.99292,0.205588,0.356031,0.067481,43,271,564,5056
1644156642.430087,-0.00946,0.009583,-0.993042,0.251389,0.508702,-0.024122,47,285,575,4992
1644156642.478478,-0.01416,0.007568,-0.992493,0.220855,0.203359,-0.024122,49,273,577,5072
1644156642.526863,-0.009644,0.00769,-0.990295,0.327725,0.386565,-0.085191,59,277,565,5008
1644156642.575293,-0.014771,0.011292,-0.994019,0.113985,0.325496,-0.069924,43,276,576,5024
1644156642.62366,-0.01355,0.010498,-0.993591,0.113985,0.478168,0.098015,48,271,573,5008
1644156642.672029,-0.011841,0.010925,-0.992737,0.190321,0.356031,-0.192061,57,280,577,5024
1644156642.720416,-0.009888,0.006714,-0.993103,0.266656,0.356031,-0.176794,57,273,584,5008
1644156642.768796,-0.01123,0.006531,-0.993835,0.419328,0.447634,0.082748,57,275,577,5024
1644156642.817194,-0.012512,0.009033,-0.994446,0.251389,0.386565,-0.192061,46,264,576,4992
1644156642.865608,-0.013489,0.007751,-0.991516,0.327725,0.447634,-0.054656,58,271,578,5056
1644156642.913996,-0.012207,0.006897,-0.994568,0.205588,0.417099,-0.222595,55,271,578,5024
1644156642.963893,-0.012634,0.009033,-0.992371,0.251389,0.432366,0.067481,52,275,579,5104
1644156643.063173,-0.012207,0.008728,-0.991333,0.251389,0.478168,-0.085191,57,273,570,5072
1644156643.107587,-0.011963,0.007996,-0.993042,0.159786,0.523969,0.036947,53,281,580,5072
1644156643.15594,-0.008972,0.005981,-0.992615,0.35826,0.340763,-0.069924,48,274,571,5024
1644156643.204298,-0.011963,0.007446,-0.992981,0.144519,0.523969,-0.069924,51,266,576,5056
1644156643.252671,-0.011292,0.009216,-0.992615,0.312458,0.325496,-0.008855,39,279,583,5072
1644156643.301082,-0.01239,0.010132,-0.992554,0.312458,0.340763,-0.115725,48,276,564,5008
1644156643.349453,-0.010681,0.007385,-0.991333,0.205588,0.447634,-0.115725,52,275,577,5056
1644156643.397841,-0.010681,0.010193,-0.991089,0.251389,0.539237,-0.008855,57,275,572,5056
1644156643.44623,-0.010559,0.010498,-0.994751,0.205588,0.340763,-0.161527,54,285,572,5008
1644156643.494709,-0.012939,0.008362,-0.99176,0.190321,0.478168,-0.14626,49,268,568,5072
1644156643.542991,-0.012085,0.010803,-0.99353,0.175053,0.493435,-0.085191,52,273,579,5008
1644156643.591398,-0.011047,0.007751,-0.992065,0.312458,0.539237,-0.161527,46,276,569,5104
1644156643.63979,-0.01062,0.008911,-0.993958,0.220855,0.356031,-0.024122,54,268,579,5056
1644156643.688188,-0.01001,0.010437,-0.990723,0.205588,0.462901,-0.069924,53,271,573,5104
1644156643.736644,-0.011597,0.009338,-0.991943,0.342992,0.310229,-0.100458,57,270,577,5008
1644156643.78613,-0.013916,0.007751,-0.99353,0.175053,0.569771,-0.115725,64,273,575,5008
1644156643.836431,-0.009705,0.009949,-0.993286,0.236122,0.401832,-0.069924,41,276,573,5056
1644156643.882405,-0.01123,0.008911,-0.992737,0.312458,0.554504,-0.115725,49,277,572,5008
1644156643.978534,-0.015137,0.008545,-0.991943,0.144519,0.493435,-0.207328,47,277,572,5024
1644156644.02692,-0.012634,0.008179,-0.991577,0.281924,0.508702,-0.176794,48,274,578,4992
1644156644.075444,-0.01416,0.008545,-0.990234,0.281924,0.615573,-0.283664,48,271,571,5008
1644156644.123675,-0.010803,0.008667,-0.994385,0.220855,0.508702,0.12855,49,277,572,5056
1644156644.172025,-0.010559,0.007874,-0.992981,0.388794,0.432366,-0.008855,48,269,576,5056
1644156644.220443,-0.010193,0.008545,-0.992371,0.266656,0.432366,-0.161527,46,281,566,5104
1644156644.268827,-0.010437,0.006287,-0.995422,0.236122,0.325496,-0.115725,53,274,578,5008
1644156644.317216,-0.011902,0.010071,-0.991394,0.266656,0.447634,-0.039389,47,275,561,5056
1644156644.365648,-0.009399,0.009949,-0.993164,0.129252,0.401832,0.021679,46,266,573,4960
1644156644.413991,-0.011047,0.008118,-0.993652,0.35826,0.447634,0.021679,53,271,571,5104
1644156644.462389,-0.010681,0.010437,-0.994263,0.35826,0.386565,-0.054656,51,266,569,5072
1644156644.510741,-0.011108,0.008545,-0.989502,0.251389,0.432366,-0.054656,46,281,585,5008
1644156644.559153,-0.010681,0.010193,-0.992554,0.266656,0.478168,-0.14626,51,266,578,5072
1644156644.607543,-0.01178,0.007324,-0.993958,0.434595,0.539237,-0.100458,54,280,575,5104
1644156644.655928,-0.011536,0.007751,-0.991638,0.266656,0.585038,-0.069924,54,275,575,5056
1644156644.704317,-0.00946,0.007141,-0.992798,0.251389,0.478168,-0.115725,55,264,578,5072
1644156644.752683,-0.014038,0.006042,-0.993774,0.190321,0.386565,-0.100458,46,266,571,4944
1644156644.801109,-0.013184,0.007812,-0.993958,0.159786,0.325496,-0.100458,55,266,576,5024
1644156644.850875,-0.011963,0.009949,-0.992065,0.281924,0.432366,-0.14626,52,273,572,5008
1644156644.901237,-0.011292,0.008789,-0.99408,0.281924,0.386565,-0.069924,57,270,575,5024
1644156644.951476,-0.011108,0.006714,-0.994507,0.251389,0.569771,0.052214,62,271,578,5072
1644156645.057632,-0.013306,0.008362,-0.993774,0.327725,0.493435,-0.14626,55,259,576,5008
1644156645.093509,-0.008301,0.010437,-0.994446,0.251389,0.340763,-0.069924,52,273,575,5072
1644156645.139804,-0.009888,0.007019,-0.993286,0.175053,0.523969,-0.14626,55,274,578,5024
1644156645.188196,-0.013,0.007996,-0.995483,0.236122,0.432366,-0.085191,52,268,570,5056
1644156645.23658,-0.009338,0.010559,-0.99176,0.068183,0.462901,-0.161527,43,274,571,5104
1644156645.285074,-0.010437,0.010071,-0.992065,0.175053,0.478168,-0.100458,67,271,573,5024
1644156645.333374,-0.008972,0.011047,-0.991882,0.159786,0.325496,-0.054656,49,273,575,5072
1644156645.381739,-0.01178,0.00885,-0.994812,0.404061,0.600305,-0.100458,52,273,572,5072
1644156645.430129,-0.011536,0.007019,-0.992249,0.327725,0.386565,-0.069924,53,262,576,5024
1644156645.478515,-0.012573,0.007751,-0.992493,0.419328,0.386565,-0.130992,51,274,573,5056
1644156645.526904,-0.011292,0.008911,-0.992798,0.281924,0.371298,-0.069924,48,271,573,5104
1644156645.575288,-0.010681,0.006897,-0.993591,0.236122,0.493435,-0.192061,55,269,583,5008
1644156645.62392,-0.011292,0.006165,-0.990601,0.205588,0.462901,-0.024122,62,266,580,4992
1644156645.674406,-0.008728,0.010315,-0.993774,0.236122,0.508702,0.067481,47,277,575,5008
1644156645.72464,-0.011536,0.010132,-0.989319,0.205588,0.462901,0.021679,53,271,583,5072
1644156645.770128,-0.014099,0.007507,-0.990356,0.35826,0.462901,-0.100458,41,274,559,5008
1644156645.865631,-0.012634,0.009766,-0.991089,0.129252,0.554504,-0.192061,52,277,572,5008
1644156645.914056,-0.01178,0.006958,-0.991028,0.159786,0.417099,-0.100458,54,273,565,5008
1644156645.962441,-0.008484,0.009705,-0.994812,0.113985,0.478168,-0.069924,58,274,571,4992
1644156646.010803,-0.011536,0.009521,-0.992004,0.205588,0.447634,0.006412,53,269,569,5056
1644156646.06571,-0.01178,0.009277,-0.991882,0.251389,0.371298,-0.085191,49,282,572,5024
1644156646.107565,-0.01239,0.008606,-0.991638,0.175053,0.493435,-0.14626,47,273,572,5056
1644156646.155952,-0.010803,0.008179,-0.99408,0.342992,0.417099,-0.176794,57,270,579,5008
1644156646.20435,-0.01416,0.009766,-0.990601,0.312458,0.401832,-0.100458,42,268,572,5056
1644156646.252713,-0.015076,0.007874,-0.992249,0.35826,0.325496,-0.161527,52,270,577,4960
1644156646.301077,-0.013733,0.009766,-0.995178,0.220855,0.478168,-0.130992,60,276,571,5072
1644156646.349488,-0.014893,0.007751,-0.993774,0.236122,0.325496,-0.192061,49,273,568,5008
1644156646.397885,-0.009705,0.006348,-0.992004,0.312458,0.523969,-0.176794,51,276,564,5056
1644156646.446277,-0.007385,0.010803,-0.990845,0.159786,0.417099,-0.130992,51,271,566,5072
1644156646.49472,-0.012634,0.008972,-0.98877,0.113985,0.447634,-0.054656,47,273,575,5072
1644156646.54305,-0.009644,0.008423,-0.993835,0.236122,0.554504,0.082748,46,274,576,5024
1644156646.591437,-0.009766,0.007874,-0.993652,0.266656,0.432366,0.067481,43,276,571,5056
1644156646.639819,-0.010864,0.007202,-0.993408,0.327725,0.386565,-0.054656,48,279,571,5072
1644156646.688191,-0.010193,0.010803,-0.992249,0.388794,0.478168,-0.054656,48,269,571,5056
1644156646.736598,-0.012024,0.008972,-0.99231,0.190321,0.264427,-0.25313,43,271,576,4992
1644156646.785333,-0.010315,0.009277,-0.992432,0.190321,0.447634,-0.130992,48,266,576,5072
1644156646.835253,-0.013184,0.00769,-0.992615,0.113985,0.401832,-0.024122,48,271,573,5056
1644156646.887143,-0.011414,0.007507,-0.992615,0.205588,0.432366,-0.130992,58,281,576,5120
1644156646.931164,-0.014404,0.007568,-0.992065,0.220855,0.356031,0.006412,47,280,570,4944
1644156647.026945,-0.010071,0.009338,-0.990356,0.190321,0.569771,-0.161527,58,269,573,5072
1644156647.075456,-0.013184,0.008789,-0.992615,0.266656,0.569771,-0.207328,45,270,575,5056
1644156647.123741,-0.012573,0.006165,-0.993469,0.205588,0.401832,0.006412,47,275,570,5008
1644156647.172082,-0.014343,0.006836,-0.991821,0.220855,0.523969,-0.054656,51,274,576,5104
1644156647.220486,-0.009216,0.009644,-0.991211,0.205588,0.356031,-0.008855,52,273,572,5136
1644156647.268839,-0.011719,0.007324,-0.993164,0.220855,0.310229,0.021679,52,273,572,4992
1644156647.317257,-0.010498,0.010315,-0.991455,0.190321,0.340763,-0.085191,48,264,573,5072
1644156647.365635,-0.012146,0.007996,-0.991943,0.281924,0.401832,-0.054656,52,277,577,5008
1644156647.414038,-0.011902,0.007996,-0.993286,0.266656,0.264427,-0.207328,52,273,565,5008
1644156647.462407,-0.012512,0.007507,-0.993469,0.266656,0.493435,-0.024122,52,277,575,5008
1644156647.510809,-0.008179,0.00946,-0.994141,0.388794,0.386565,-0.085191,47,277,570,5072
1644156647.559198,-0.009949,0.009155,-0.992493,0.08345,0.554504,-0.100458,42,277,584,5056
1644156647.607583,-0.009705,0.010681,-0.993103,0.266656,0.539237,-0.222595,53,274,576,5072
1644156647.65597,-0.013428,0.007996,-0.991516,0.35826,0.371298,-0.008855,54,275,577,5072
1644156647.704353,-0.012695,0.00592,-0.992737,0.373527,0.371298,-0.100458,53,276,569,5008
1644156647.752717,-0.012878,0.010132,-0.993347,0.388794,0.539237,-0.100458,47,273,575,5056
1644156647.801123,-0.012878,0.008179,-0.993042,0.190321,0.432366,-0.130992,55,274,583,5056
1644156647.849528,-0.009827,0.01001,-0.993164,0.251389,0.417099,-0.115725,51,274,578,4960
1644156647.897948,-0.010315,0.00769,-0.990662,0.159786,0.478168,-0.085191,47,275,572,5072
1644156647.947286,-0.012146,0.011292,-0.995422,0.175053,0.508702,-0.039389,52,273,568,4992
1644156647.99828,-0.010498,0.009399,-0.992371,0.205588,0.554504,-0.176794,43,269,571,5104
1644156648.091784,-0.009583,0.009338,-0.99408,0.159786,0.371298,-0.024122,46,276,583,4992
1644156648.139871,-0.010925,0.008484,-0.991882,0.373527,0.386565,-0.100458,52,268,568,5072
1644156648.188221,-0.011353,0.005798,-0.993469,0.251389,0.432366,-0.069924,51,271,566,5056
1644156648.236614,-0.011292,0.007812,-0.991638,0.190321,0.401832,-0.14626,45,277,572,5024
1644156648.285038,-0.012573,0.008667,-0.993042,0.205588,0.478168,-0.054656,49,280,570,5024
1644156648.33342,-0.013,0.012207,-0.991943,0.205588,0.310229,-0.100458,54,280,570,4992
1644156648.381779,-0.010315,0.007263,-0.993225,0.205588,0.356031,-0.100458,43,274,573,4992
1644156648.430181,-0.013184,0.009216,-0.992615,0.327725,0.447634,-0.115725,46,264,571,5072
1644156648.478559,-0.013794,0.008789,-0.991211,0.144519,0.447634,-0.085191,53,269,569,5008
1644156648.526949,-0.009766,0.009949,-0.991455,0.388794,0.508702,-0.008855,48,276,571,5056
1644156648.575313,-0.012207,0.006042,-0.994873,0.144519,0.539237,-0.054656,49,273,570,5056
1644156648.623745,-0.011841,0.008972,-0.992432,0.220855,0.417099,-0.024122,52,263,568,4960
1644156648.672214,-0.01062,0.008606,-0.99231,0.449863,0.417099,-0.130992,47,285,575,5072
1644156648.720494,-0.011292,0.008301,-0.994873,0.297191,0.462901,0.052214,51,269,573,5056
1644156648.768876,-0.009399,0.009705,-0.990173,0.404061,0.417099,-0.054656,51,269,576,5008
1644156648.817267,-0.010742,0.007812,-0.991882,0.175053,0.417099,-0.039389,43,269,569,5024
1644156648.865704,-0.011963,0.006226,-0.991638,0.266656,0.493435,-0.115725,40,273,579,5008
1644156648.91409,-0.01178,0.006958,-0.991638,0.35826,0.310229,0.021679,46,271,580,5056
1644156648.962513,-0.012878,0.010071,-0.994324,0.404061,0.432366,-0.069924,61,263,575,5008
1644156649.061251,-0.011047,0.007324,-0.993835,0.281924,0.462901,-0.054656,46,274,580,5056
1644156649.107613,-0.010498,0.007812,-0.989868,0.35826,0.310229,-0.115725,43,281,580,5072
1644156649.155999,-0.011658,0.008179,-0.992676,0.281924,0.356031,-0.039389,58,269,576,5072
1644156649.204375,-0.010315,0.008972,-0.992004,0.129252,0.585038,-0.054656,45,268,575,5072
1644156649.252744,-0.012451,0.00708,-0.99292,0.08345,0.294962,-0.14626,54,270,577,4992
1644156649.301131,-0.013855,0.009644,-0.990234,0.327725,0.478168,-0.054656,47,275,572,5072
1644156649.349542,-0.012207,0.007385,-0.993225,0.159786,0.569771,-0.039389,55,283,566,5072
1644156649.397926,-0.011963,0.009277,-0.992004,0.251389,0.294962,-0.314198,55,269,578,4960
1644156649.446316,-0.012024,0.008667,-0.993225,0.236122,0.325496,-0.222595,47,268,572,5056
1644156649.494733,-0.011047,0.010071,-0.99353,0.220855,0.462901,-0.192061,51,281,571,5008
1644156649.543109,-0.009644,0.010193,-0.990723,0.251389,0.417099,-0.024122,59,273,579,5024
1644156649.591478,-0.011963,0.006226,-0.993469,0.327725,0.356031,-0.237863,38,273,575,5072
1644156649.639832,-0.01062,0.00885,-0.989014,0.175053,0.371298,-0.176794,55,271,578,5024
1644156649.688245,-0.013367,0.009888,-0.992554,0.281924,0.233893,-0.207328,43,276,573,4992
1644156649.736642,-0.012024,0.010315,-0.991577,0.205588,0.386565,0.036947,48,269,576,5008
1644156649.785067,-0.010254,0.00885,-0.992188,0.098718,0.447634,-0.100458,47,273,575,5024
1644156649.833433,-0.011597,0.010193,-0.992615,0.419328,0.356031,-0.008855,59,275,575,5008
1644156649.881839,-0.01239,0.008179,-0.992249,0.144519,0.462901,-0.222595,51,266,571,5008
1644156649.930768,-0.011963,0.009949,-0.990417,0.144519,0.386565,-0.161527,41,271,566,5024
1644156649.981321,-0.013123,0.011169,-0.991638,0.35826,0.478168,-0.024122,47,270,577,4992
1644156650.031851,-0.009705,0.00946,-0.991211,0.113985,0.356031,-0.069924,39,276,576,5136
1644156650.078487,-0.008972,0.005676,-0.994629,0.098718,0.493435,0.098015,43,266,583,4992
1644156650.172364,-0.011902,0.005005,-0.995911,0.342992,0.325496,-0.069924,43,283,580,5072
1644156650.220503,-0.010498,0.008972,-0.993042,0.220855,0.340763,-0.14626,45,268,572,5056
1644156650.268873,-0.009216,0.0047,-0.993103,0.312458,0.447634,-0.069924,49,277,565,5024
1644156650.317281,-0.01001,0.010254,-0.989929,0.190321,0.462901,-0.085191,43,274,583,5056
1644156650.365672,-0.009583,0.006409,-0.991028,0.190321,0.539237,-0.054656,36,281,566,5104
1644156650.414071,-0.010986,0.007935,-0.991882,0.266656,0.478168,-0.14626,46,274,573,5072
1644156650.462475,-0.010437,0.009094,-0.992615,0.220855,0.233893,-0.115725,38,270,570,5072
1644156650.510826,-0.010864,0.010254,-0.994263,0.327725,0.371298,-0.207328,49,275,570,5008
1644156650.559228,-0.010254,0.009644,-0.991699,0.190321,0.615573,0.082748,39,266,573,5056
1644156650.607629,-0.008972,0.009644,-0.990845,0.297191,0.310229,-0.222595,53,271,580,5072
1644156650.656001,-0.010803,0.009033,-0.993713,0.08345,0.508702,0.052214,55,264,573,5024
1644156650.704402,-0.012207,0.007141,-0.990417,0.190321,0.310229,-0.100458,51,276,573,5008
1644156650.752794,-0.01178,0.008057,-0.991333,0.129252,0.371298,-0.14626,47,280,570,5072
1644156650.801208,-0.011719,0.008423,-0.990967,0.175053,0.432366,-0.054656,52,280,579,5024
1644156650.8496,-0.011963,0.008972,-0.989746,0.205588,0.356031,-0.085191,49,277,568,4960
1644156650.897951,-0.011414,0.008484,-0.99231,0.098718,0.508702,-0.14626,47,270,570,5024
1644156650.946462,-0.012634,0.008667,-0.98999,0.175053,0.279695,-0.039389,47,285,579,5056
1644156650.995131,-0.010437,0.009705,-0.989258,0.281924,0.478168,-0.039389,55,281,578,4992
1644156651.056344,-0.012207,0.009949,-0.992615,0.175053,0.417099,-0.207328,46,283,578,5056
1644156651.091975,-0.012268,0.008423,-0.993896,0.205588,0.325496,-0.100458,49,270,572,5008
1644156651.141668,-0.012085,0.008423,-0.990662,0.220855,0.371298,-0.192061,48,276,573,5072
1644156651.191776,-0.012939,0.010193,-0.992371,0.220855,0.294962,-0.100458,46,266,578,4992
1644156651.237442,-0.010498,0.006653,-0.992188,0.251389,0.508702,-0.115725,57,273,575,5104
1644156651.333433,-0.012329,0.01001,-0.995483,0.236122,0.447634,-0.14626,51,271,571,5008
1644156651.381813,-0.010742,0.008606,-0.992676,0.144519,0.401832,-0.054656,47,275,575,5056
1644156651.430193,-0.016113,0.008057,-0.992065,0.281924,0.417099,0.006412,54,277,575,4992
1644156651.478593,-0.009338,0.010071,-0.993164,0.144519,0.310229,-0.115725,59,268,575,5104
1644156651.52696,-0.013611,0.009583,-0.991394,0.251389,0.417099,0.036947,49,270,565,4992
1644156651.575367,-0.013855,0.008301,-0.994019,0.159786,0.539237,-0.130992,58,274,576,5104
1644156651.62376,-0.014282,0.010132,-0.993164,0.175053,0.279695,-0.100458,53,279,576,5056
1644156651.67216,-0.01062,0.007446,-0.989197,0.236122,0.432366,-0.054656,45,270,568,5136
1644156651.720532,-0.009644,0.005005,-0.993042,0.281924,0.462901,-0.130992,47,265,572,4960
1644156651.76893,-0.011536,0.009399,-0.992249,0.327725,0.539237,-0.085191,51,279,564,5072
1644156651.817363,-0.010376,0.008911,-0.991821,0.144519,0.386565,-0.14626,49,280,568,5072
1644156651.865738,-0.010681,0.00592,-0.992676,0.281924,0.356031,-0.14626,43,269,576,5136
1644156651.914152,-0.010071,0.008423,-0.992676,0.220855,0.386565,-0.268397,62,276,583,5056
1644156651.962543,-0.008545,0.006958,-0.991272,0.129252,0.523969,-0.054656,48,276,569,5008
1644156652.010879,-0.007751,0.010803,-0.991882,0.312458,0.447634,0.006412,54,268,577,5008
1644156652.065179,-0.011841,0.00885,-0.991394,0.236122,0.554504,-0.054656,46,281,580,4992
1644156652.10761,-0.009949,0.009705,-0.990784,0.251389,0.356031,-0.161527,51,283,578,5072
1644156652.155985,-0.011414,0.009521,-0.993164,0.281924,0.478168,-0.115725,52,277,577,5008
1644156652.204412,-0.010254,0.009705,-0.99353,0.220855,0.417099,-0.161527,59,285,577,5104
1644156652.252801,-0.013428,0.009949,-0.99054,0.312458,0.310229,-0.100458,57,277,575,5072
1644156652.302699,-0.013123,0.008118,-0.992432,0.404061,0.447634,-0.130992,49,275,563,5104
1644156652.35294,-0.011841,0.01062,-0.994141,0.236122,0.508702,-0.024122,52,277,570,5056
1644156652.398396,-0.011719,0.007629,-0.990234,0.251389,0.447634,-0.207328,48,269,569,4992
1644156652.494877,-0.01239,0.009949,-0.992188,0.251389,0.432366,0.113282,52,282,572,5008
1644156652.543134,-0.010254,0.006897,-0.992554,0.144519,0.310229,-0.085191,49,277,575,5168
1644156652.591497,-0.007874,0.011414,-0.990906,0.35826,0.554504,-0.069924,49,277,570,5008
1644156652.639886,-0.007568,0.008911,-0.990723,0.281924,0.310229,-0.237863,49,285,577,5120
1644156652.688282,-0.014771,0.01123,-0.993835,0.205588,0.325496,-0.039389,51,271,569,5008
1644156652.736668,-0.012939,0.008667,-0.99054,0.08345,0.432366,-0.039389,55,271,580,5104
1644156652.785183,-0.012817,0.007629,-0.990112,0.144519,0.325496,-0.069924,53,266,583,5024
1644156652.833508,-0.010742,0.008423,-0.990295,0.159786,0.493435,-0.054656,58,279,566,5008
1644156652.881879,-0.010681,0.008606,-0.992126,0.159786,0.508702,0.143817,47,273,579,5072
1644156652.930277,-0.012634,0.006836,-0.991882,0.297191,0.554504,-0.100458,46,266,578,5056
1644156652.97866,-0.012878,0.009705,-0.993958,0.236122,0.294962,-0.130992,42,270,579,5136
1644156653.027053,-0.010864,0.007751,-0.991638,0.449863,0.493435,-0.115725,47,273,565,5008
1644156653.080869,-0.013,0.005371,-0.994263,0.281924,0.585038,-0.024122,60,264,578,4992
1644156653.123781,-0.012146,0.00769,-0.993469,0.159786,0.539237,0.006412,41,274,576,5072
1644156653.172267,-0.011169,0.010803,-0.992065,0.297191,0.401832,-0.222595,45,273,572,5024
1644156653.220586,-0.009521,0.005859,-0.992981,0.35826,0.539237,-0.14626,48,274,569,5024
1644156653.269895,-0.014893,0.006958,-0.991089,0.312458,0.386565,-0.130992,48,274,576,5072
1644156653.320178,-0.011353,0.006958,-0.992493,0.190321,0.493435,-0.14626,47,275,579,4928
1644156653.370258,-0.011841,0.008118,-0.991455,0.236122,0.401832,-0.024122,52,260,572,5024
1644156653.462531,-0.012451,0.006836,-0.992554,0.220855,0.493435,-0.008855,54,275,565,5024
1644156653.510867,-0.014465,0.010559,-0.989807,0.281924,0.401832,-0.14626,51,266,566,5024
1644156653.559264,-0.01178,0.007507,-0.994385,0.419328,0.417099,-0.085191,58,274,562,5056
1644156653.607644,-0.010193,0.007019,-0.993408,0.373527,0.356031,-0.14626,41,271,564,4992
1644156653.656039,-0.012207,0.00824,-0.993774,0.327725,0.417099,-0.008855,51,279,571,5008
1644156653.704434,-0.009705,0.010132,-0.989624,0.297191,0.356031,0.036947,45,280,575,5056
1644156653.753093,-0.012085,0.006714,-0.992859,0.205588,0.386565,0.052214,53,266,573,5024
1644156653.801236,-0.010071,0.007507,-0.991638,0.251389,0.539237,-0.085191,42,275,572,5072
1644156653.849625,-0.008057,0.010132,-0.993774,0.08345,0.478168,-0.085191,52,277,575,5024
1644156653.898028,-0.014709,0.009338,-0.992249,0.129252,0.447634,-0.130992,54,270,579,5008
1644156653.946414,-0.012634,0.010315,-0.992065,0.144519,0.432366,-0.192061,47,277,570,5024
1644156653.994814,-0.013489,0.008118,-0.99353,0.236122,0.554504,-0.176794,45,280,570,4992
1644156654.057427,-0.013245,0.009033,-0.992004,0.388794,0.478168,-0.207328,48,288,576,5056
1644156654.095844,-0.008789,0.00708,-0.990356,0.281924,0.340763,-0.161527,52,270,575,4992
1644156654.139919,-0.01239,0.008789,-0.99115,0.007115,0.569771,-0.054656,49,273,572,5072
1644156654.188314,-0.010254,0.005981,-0.994446,0.327725,0.432366,-0.207328,52,277,582,5024
1644156654.236694,-0.011536,0.010925,-0.990479,0.175053,0.356031,-0.069924,49,282,579,5008
1644156654.285126,-0.010925,0.006653,-0.99115,0.342992,0.386565,-0.25313,57,275,570,5056
1644156654.333481,-0.010803,0.009277,-0.991516,0.175053,0.325496,-0.100458,54,270,579,5072
1644156654.381876,-0.012817,0.009644,-0.992004,0.220855,0.508702,-0.14626,53,279,578,5024
1644156654.431682,-0.01178,0.011292,-0.994873,0.266656,0.264427,-0.268397,51,257,585,5056
1644156654.482255,-0.013123,0.00885,-0.992188,0.297191,0.401832,-0.115725,52,280,572,5008
1644156654.527617,-0.011719,0.007629,-0.993225,0.205588,0.478168,0.113282,55,264,583,5024
1644156654.623804,-0.012207,0.004883,-0.99292,0.281924,0.447634,-0.207328,52,270,577,4992
1644156654.672465,-0.01062,0.009949,-0.991699,0.190321,0.417099,-0.207328,54,282,563,5072
1644156654.720577,-0.011414,0.008667,-0.993958,0.327725,0.417099,-0.069924,48,266,573,5008
1644156654.76897,-0.009705,0.006897,-0.993286,0.266656,0.279695,0.006412,54,275,565,5056
1644156654.817344,-0.009644,0.006165,-0.992493,0.190321,0.600305,-0.115725,43,279,576,5008
1644156654.86579,-0.010315,0.008179,-0.991455,0.159786,0.569771,-0.085191,49,268,575,5072
1644156654.914173,-0.010376,0.007812,-0.993469,0.190321,0.233893,-0.207328,46,274,578,5008
1644156654.962581,-0.013672,0.006226,-0.994446,0.220855,0.340763,-0.085191,49,273,568,5072
1644156655.010942,-0.011658,0.00824,-0.993103,0.113985,0.325496,-0.14626,58,271,571,5104
1644156655.064055,-0.009705,0.00885,-0.992798,0.236122,0.478168,0.006412,55,276,580,5008
1644156655.107691,-0.009155,0.010925,-0.992493,0.068183,0.432366,-0.130992,58,279,564,5072
1644156655.156068,-0.010986,0.009338,-0.991089,0.281924,0.432366,-0.008855,55,274,573,5104
1644156655.204469,-0.012512,0.005432,-0.992737,0.266656,0.600305,-0.069924,49,273,572,5024
1644156655.252848,-0.013,0.011169,-0.993103,0.220855,0.340763,-0.298931,53,269,576,5120
1644156655.301231,-0.012878,0.011047,-0.993591,0.266656,0.523969,-0.069924,55,271,578,5008
1644156655.349619,-0.01123,0.004822,-0.993469,0.205588,0.233893,-0.237863,41,274,573,5072
1644156655.398005,-0.010742,0.009094,-0.992554,0.098718,0.508702,0.12855,48,286,576,5024
1644156655.446392,-0.011292,0.007568,-0.990967,0.236122,0.523969,-0.008855,54,268,575,5072
1644156655.494777,-0.009888,0.01062,-0.992615,0.205588,0.417099,-0.14626,46,264,580,4992
1644156655.543189,-0.010742,0.01355,-0.991882,0.281924,0.325496,-0.14626,48,279,578,5072
1644156655.592854,-0.012939,0.009277,-0.993652,0.342992,0.447634,-0.069924,41,276,573,5056
1644156655.643113,-0.013672,0.007751,-0.996155,0.175053,0.432366,-0.054656,49,277,570,5008
1644156655.688663,-0.012085,0.01178,-0.99469,0.113985,0.478168,-0.085191,62,279,580,5024
1644156655.785367,-0.012207,0.007935,-0.994812,0.205588,0.356031,-0.024122,49,268,570,5008
1644156655.833511,-0.011169,0.008972,-0.994812,0.236122,0.356031,0.021679,46,271,571,5072
1644156655.881928,-0.012146,0.007202,-0.992493,0.281924,0.340763,-0.100458,46,271,569,5008
1644156655.930307,-0.01001,0.008057,-0.993713,0.419328,0.569771,-0.14626,51,269,571,5008
1644156655.978701,-0.011353,0.008911,-0.993347,0.236122,0.478168,-0.222595,46,264,585,5072
1644156656.027078,-0.012329,0.010132,-0.993286,0.129252,0.340763,-0.176794,52,270,579,4992
1644156656.075501,-0.009827,0.005249,-0.993469,0.236122,0.386565,-0.024122,45,270,577,5056
1644156656.123844,-0.013733,0.00946,-0.991272,0.342992,0.401832,-0.100458,48,271,573,4992
1644156656.172242,-0.009705,0.010864,-0.992065,0.404061,0.371298,-0.176794,59,270,572,5072
1644156656.220602,-0.012329,0.008911,-0.994873,0.236122,0.462901,-0.100458,41,274,580,5104
1644156656.268973,-0.01239,0.008972,-0.99408,0.327725,0.447634,-0.14626,53,269,571,5008
1644156656.317377,-0.013855,0.01001,-0.99292,0.297191,0.401832,-0.176794,52,265,570,5024
1644156656.365756,-0.014832,0.008301,-0.994812,0.236122,0.401832,-0.130992,53,279,569,5136
1644156656.414155,-0.012878,0.006775,-0.989258,0.266656,0.523969,-0.100458,51,281,571,5056
1644156656.462552,-0.012878,0.008789,-0.992126,0.373527,0.386565,-0.085191,52,273,568,5008
1644156656.510894,-0.012451,0.00824,-0.993713,0.449863,0.310229,-0.161527,59,275,575,5056
1644156656.559302,-0.013916,0.008545,-0.994385,0.312458,0.340763,-0.069924,55,274,573,5072
1644156656.607694,-0.011353,0.00824,-0.993103,0.144519,0.371298,0.006412,61,275,572,4992
1644156656.656089,-0.010986,0.007141,-0.99054,0.220855,0.462901,-0.069924,48,271,585,5056
1644156656.704652,-0.014404,0.008301,-0.990784,0.266656,0.447634,-0.130992,47,263,577,5072
1644156656.755142,-0.01239,0.010254,-0.992737,0.159786,0.325496,-0.054656,49,273,572,4960
1644156656.805418,-0.009583,0.009521,-0.992554,0.205588,0.294962,-0.161527,55,254,578,5024
1644156656.850821,-0.012268,0.010864,-0.991028,0.220855,0.371298,-0.130992,45,277,575,5056
1644156656.946437,-0.011963,0.008789,-0.994507,0.190321,0.493435,-0.207328,43,276,569,5072
1644156656.994821,-0.011597,0.00824,-0.992493,0.266656,0.432366,-0.268397,45,277,572,5008
1644156657.057618,-0.009094,0.012207,-0.992371,0.175053,0.478168,-0.207328,42,280,570,5056
1644156657.094073,-0.014343,0.006226,-0.991272,0.266656,0.432366,-0.25313,51,279,583,4992
1644156657.139988,-0.011841,0.006897,-0.992737,0.251389,0.478168,-0.085191,55,269,576,5056
1644156657.188334,-0.010742,0.009705,-0.992249,0.098718,0.462901,-0.207328,47,273,572,5104
1644156657.236743,-0.009277,0.008911,-0.993469,0.236122,0.356031,-0.085191,57,275,570,4992
1644156657.285226,-0.011414,0.010986,-0.993286,0.190321,0.432366,-0.100458,46,266,569,5072
1644156657.333534,-0.013733,0.009338,-0.992615,0.205588,0.554504,-0.130992,53,271,578,5072
1644156657.381918,-0.010925,0.010193,-0.991638,0.236122,0.279695,-0.039389,45,270,577,5072
1644156657.430289,-0.013916,0.007141,-0.99292,0.266656,0.356031,-0.14626,51,274,578,5056
1644156657.478678,-0.012451,0.009949,-0.993347,0.190321,0.340763,-0.207328,49,275,565,4992
1644156657.527033,-0.012512,0.009155,-0.994202,0.297191,0.646107,-0.100458,48,276,569,4944
1644156657.575441,-0.013,0.008728,-0.989746,0.251389,0.493435,0.159084,46,271,571,5024
1644156657.62431,-0.011475,0.006226,-0.993774,0.297191,0.462901,-0.176794,52,273,575,5072
1644156657.674687,-0.012085,0.009583,-0.995056,0.236122,0.523969,0.098015,40,280,582,5072
1644156657.72468,-0.011902,0.010681,-0.994446,0.281924,0.478168,-0.161527,57,273,577,5008
1644156657.770158,-0.010071,0.011047,-0.994812,0.297191,0.356031,-0.115725,57,270,565,5008
1644156657.865758,-0.010925,0.007874,-0.99176,0.388794,0.417099,-0.008855,57,270,570,5008
1644156657.914222,-0.010193,0.009644,-0.989746,0.266656,0.462901,-0.069924,48,271,564,5024
1644156657.9626,-0.004578,0.009155,-0.992554,0.144519,0.585038,-0.176794,51,281,566,5024
1644156658.01096,-0.008911,0.012695,-0.989563,0.312458,0.539237,-0.024122,47,270,575,5056
1644156658.063537,-0.013184,0.012207,-0.989075,0.08345,0.325496,-0.25313,58,279,580,5024
1644156658.107726,-0.009277,0.009705,-0.991333,0.449863,0.508702,0.036947,53,276,576,5008
1644156658.156137,-0.012878,0.006714,-0.993164,0.236122,0.600305,-0.039389,47,273,572,5008
1644156658.204538,-0.011414,0.007812,-0.993713,0.175053,0.447634,-0.192061,53,271,573,5104
1644156658.252897,-0.012024,0.008972,-0.991821,0.144519,0.508702,-0.085191,52,270,577,5008
1644156658.301302,-0.01239,0.006409,-0.992554,0.159786,0.340763,-0.115725,45,268,570,5056
1644156658.349693,-0.011169,0.010864,-0.991394,0.175053,0.432366,-0.069924,51,274,573,5056
1644156658.398102,-0.008179,0.009888,-0.99176,0.373527,0.447634,-0.130992,47,273,565,5008
1644156658.446504,-0.012329,0.008667,-0.997131,0.266656,0.478168,0.021679,52,280,572,5104
1644156658.494876,-0.01239,0.009399,-0.993469,0.281924,0.417099,-0.085191,45,275,565,5008
1644156658.543249,-0.011902,0.007874,-0.993652,0.312458,0.493435,-0.085191,43,274,569,4992
1644156658.591644,-0.008728,0.008118,-0.992798,0.159786,0.401832,-0.176794,52,273,575,5024
1644156658.640032,-0.013794,0.010559,-0.991272,0.297191,0.493435,-0.192061,52,282,565,5008
1644156658.688419,-0.013245,0.007202,-0.993103,0.052916,0.462901,-0.192061,54,273,575,5024
1644156658.736815,-0.010132,0.007996,-0.993225,0.312458,0.417099,-0.054656,59,273,575,5008
1644156658.78629,-0.013367,0.007935,-0.993469,0.35826,0.600305,0.006412,46,269,583,5104
1644156658.836617,-0.010925,0.007385,-0.992798,0.190321,0.340763,-0.115725,51,271,576,5072
1644156658.886726,-0.012695,0.007751,-0.992249,0.342992,0.478168,-0.222595,54,265,572,5072
1644156658.931742,-0.010681,0.007935,-0.995117,0.281924,0.401832,0.036947,49,273,572,4960
1644156659.027123,-0.011658,0.010803,-0.991394,0.266656,0.386565,-0.100458,49,275,572,5008
1644156659.075649,-0.013367,0.007385,-0.994019,0.312458,0.523969,-0.100458,48,271,578,5072
1644156659.123859,-0.011353,0.007568,-0.993774,0.190321,0.294962,-0.222595,53,269,573,5008
1644156659.172381,-0.011475,0.010193,-0.994751,0.281924,0.417099,0.006412,53,276,576,5024
1644156659.220642,-0.01001,0.01123,-0.993103,0.35826,0.432366,-0.222595,58,276,585,5072
1644156659.269028,-0.013123,0.008423,-0.993591,0.205588,0.356031,-0.176794,38,277,575,5056
1644156659.317411,-0.011963,0.00885,-0.993164,0.220855,0.432366,-0.176794,54,270,579,5104
1644156659.365806,-0.010376,0.005859,-0.99292,0.068183,0.371298,-0.024122,49,265,572,5072
1644156659.41419,-0.009888,0.010925,-0.992676,0.373527,0.554504,-0.100458,46,279,571,5024
1644156659.462592,-0.014832,0.00769,-0.990845,0.342992,0.523969,-0.069924,48,274,576,5008
1644156659.510976,-0.015259,0.008301,-0.992859,0.281924,0.264427,-0.054656,47,275,577,4992
1644156659.559355,-0.012573,0.009216,-0.992676,0.404061,0.24916,-0.069924,52,260,586,5008
1644156659.607743,-0.012146,0.009827,-0.993042,0.175053,0.325496,-0.069924,47,275,563,5056
1644156659.656124,-0.01178,0.009521,-0.994873,0.220855,0.340763,0.006412,46,274,569,4992
1644156659.70453,-0.010681,0.010742,-0.99353,0.251389,0.279695,-0.085191,51,274,573,5056
1644156659.75289,-0.010803,0.009644,-0.991272,0.404061,0.386565,-0.100458,49,275,572,5072
1644156659.801346,-0.013306,0.007202,-0.990479,0.129252,0.585038,-0.115725,48,274,571,4960
1644156659.849722,-0.012329,0.010376,-0.991028,0.312458,0.493435,-0.130992,53,271,580,5008
1644156659.898123,-0.015259,0.009521,-0.993225,0.251389,0.233893,-0.085191,55,276,583,5024
1644156659.947606,-0.013794,0.00769,-0.991516,0.342992,0.386565,-0.161527,47,270,586,5072
1644156659.998023,-0.011536,0.009583,-0.992676,0.113985,0.417099,-0.008855,52,280,575,4960
1644156660.066935,-0.011475,0.008118,-0.993042,0.251389,0.340763,0.006412,51,281,583,5056
1644156660.139986,-0.008057,0.007874,-0.991333,0.205588,0.478168,-0.054656,54,275,579,5008
1644156660.188377,-0.012207,0.00824,-0.992493,0.266656,0.493435,-0.054656,54,275,575,5072
1644156660.236762,-0.009827,0.008789,-0.990784,0.388794,0.340763,0.082748,49,280,572,4992
1644156660.285336,-0.013,0.01239,-0.992798,0.205588,0.539237,0.098015,41,266,576,4992
1644156660.333563,-0.011963,0.009216,-0.992126,0.281924,0.478168,-0.161527,49,268,575,5120
1644156660.381935,-0.010498,0.006775,-0.991577,0.144519,0.478168,-0.192061,52,270,577,5056
1644156660.430328,-0.010193,0.008423,-0.992065,0.175053,0.432366,-0.100458,46,269,576,4960
1644156660.478723,-0.009766,0.008118,-0.993896,0.251389,0.340763,-0.054656,48,269,566,5056
1644156660.527107,-0.010376,0.009033,-0.98938,0.175053,0.340763,-0.222595,49,273,570,5072
1644156660.575494,-0.011169,0.007568,-0.992554,0.342992,0.310229,-0.14626,45,273,572,5056
1644156660.623887,-0.012878,0.01355,-0.994141,0.205588,0.447634,0.006412,51,274,569,4992
1644156660.672289,-0.013672,0.009888,-0.990784,0.205588,0.310229,-0.115725,52,268,582,5104
1644156660.720644,-0.009094,0.008423,-0.992981,0.190321,0.279695,-0.024122,55,269,578,5072
1644156660.769019,-0.010864,0.011108,-0.991943,0.144519,0.401832,-0.192061,43,271,573,5024
1644156660.817487,-0.013855,0.007751,-0.991516,0.342992,0.539237,-0.268397,52,268,577,5104
1644156660.865855,-0.006409,0.008911,-0.992004,0.144519,0.493435,-0.085191,49,282,579,5008
1644156660.914251,-0.010498,0.006409,-0.992188,0.129252,0.401832,-0.176794,47,280,575,5024
1644156660.962655,-0.013428,0.005249,-0.991455,0.144519,0.508702,-0.283664,52,275,570,5056
1644156661.063353,-0.010193,0.010925,-0.989929,0.373527,0.356031,-0.008855,51,266,583,5024
1644156661.107786,-0.012573,0.010742,-0.993164,0.175053,0.371298,-0.130992,46,269,576,5104
1644156661.156141,-0.015076,0.008789,-0.990662,0.266656,0.356031,-0.024122,55,274,569,5056
1644156661.204533,-0.00946,0.007446,-0.99115,0.236122,0.462901,-0.130992,47,263,570,5024
1644156661.252903,-0.012695,0.008179,-0.992493,0.190321,0.325496,0.021679,43,266,580,4992
1644156661.301291,-0.008728,0.006409,-0.991089,0.251389,0.447634,-0.039389,52,282,568,5056
1644156661.349698,-0.01239,0.011719,-0.991455,0.373527,0.340763,-0.115725,41,269,578,5024
1644156661.398078,-0.009888,0.009094,-0.991028,0.281924,0.585038,-0.054656,48,269,585,5024
1644156661.446479,-0.013428,0.007019,-0.992065,0.281924,0.340763,-0.14626,40,268,577,5008
1644156661.49484,-0.011963,0.008545,-0.992371,0.373527,0.417099,-0.115725,46,266,576,5008
1644156661.543265,-0.008667,0.004944,-0.991577,0.236122,0.432366,-0.222595,54,280,565,5024
1644156661.591642,-0.011902,0.007935,-0.990601,0.281924,0.340763,0.036947,42,277,572,5008
1644156661.640029,-0.011475,0.007629,-0.993408,0.251389,0.325496,-0.008855,47,265,575,5120
1644156661.688418,-0.012329,0.008789,-0.993164,0.159786,0.417099,-0.130992,43,283,576,5024
1644156661.736781,-0.012634,0.007812,-0.994446,0.297191,0.386565,0.082748,49,265,572,4992
1644156661.785192,-0.011658,0.008118,-0.992004,0.419328,0.523969,-0.085191,42,277,572,5024
1644156661.833627,-0.01178,0.008728,-0.992188,0.175053,0.310229,-0.024122,52,268,572,4992
1644156661.88255,-0.011414,0.008057,-0.994873,0.251389,0.432366,-0.222595,57,277,572,4960
1644156661.933216,-0.014771,0.009705,-0.991882,0.266656,0.401832,-0.069924,53,274,580,5120
1644156661.983726,-0.010193,0.00824,-0.993958,0.327725,0.432366,-0.130992,42,280,579,5104
1644156662.075595,-0.011597,0.009766,-0.994751,0.190321,0.432366,-0.024122,48,271,585,5104
1644156662.12395,-0.009094,0.008728,-0.98999,0.373527,0.371298,-0.039389,51,266,576,5024
1644156662.1724,-0.010315,0.008911,-0.991943,0.297191,0.340763,-0.14626,57,277,577,5056
1644156662.220682,-0.012939,0.008301,-0.991943,0.205588,0.432366,-0.069924,48,269,576,5072
1644156662.269044,-0.015686,0.011047,-0.993713,0.312458,0.478168,-0.161527,46,279,566,5008
1644156662.317446,-0.012085,0.009155,-0.993835,0.312458,0.462901,-0.115725,49,265,570,5056
1644156662.365825,-0.009583,0.007324,-0.992004,0.144519,0.478168,0.052214,41,281,576,5008
1644156662.414255,-0.010193,0.009338,-0.991028,0.220855,0.554504,-0.176794,55,274,580,5072
1644156662.46263,-0.009949,0.008667,-0.99054,0.281924,0.462901,-0.222595,54,275,565,5008
1644156662.511012,-0.011353,0.008423,-0.993774,0.205588,0.401832,-0.115725,52,282,570,5104
1644156662.559401,-0.009705,0.008057,-0.993225,0.342992,0.478168,-0.100458,46,266,576,5072
1644156662.607781,-0.013916,0.008667,-0.993347,0.022382,0.478168,-0.115725,59,280,579,5072
1644156662.656174,-0.009521,0.010315,-0.989685,0.297191,0.493435,-0.039389,46,264,569,5056
1644156662.70478,-0.01239,0.007446,-0.992371,0.281924,0.508702,-0.115725,58,283,583,5072
1644156662.752961,-0.010376,0.008606,-0.991638,0.266656,0.417099,0.021679,54,282,579,5072
1644156662.801317,-0.009583,0.006592,-0.990417,0.281924,0.554504,-0.268397,52,273,572,5072
1644156662.849757,-0.010742,0.008728,-0.995972,0.175053,0.371298,-0.14626,47,273,570,5056
1644156662.898149,-0.013794,0.011841,-0.992188,0.236122,0.554504,-0.054656,54,265,577,5056
1644156662.946516,-0.011841,0.010193,-0.993408,0.220855,0.478168,-0.008855,60,269,573,5024
1644156662.99513,-0.008789,0.008118,-0.991333,0.190321,0.417099,-0.054656,45,268,570,5056
1644156663.060753,-0.012695,0.007385,-0.990234,0.327725,0.417099,-0.130992,46,269,573,5072
1644156663.098302,-0.012451,0.011719,-0.992432,0.251389,0.600305,-0.039389,54,273,575,5056
1644156663.141686,-0.009399,0.01001,-0.991028,0.175053,0.401832,-0.054656,40,270,565,5104
1644156663.236807,-0.013367,0.009766,-0.993347,0.281924,0.523969,-0.268397,45,280,582,5056
1644156663.285436,-0.011902,0.011047,-0.992432,0.449863,0.356031,-0.161527,54,270,577,5056
1644156663.333607,-0.012329,0.008057,-0.990845,0.190321,0.508702,-0.039389,49,268,577,5024
1644156663.381981,-0.010681,0.008179,-0.991699,0.175053,0.447634,-0.100458,41,271,576,4944
1644156663.430376,-0.011963,0.007141,-0.99231,0.404061,0.417099,-0.222595,55,274,566,5056
1644156663.478753,-0.01001,0.007324,-0.992859,0.251389,0.432366,-0.054656,54,273,563,5104
1644156663.527144,-0.011841,0.007751,-0.992004,0.159786,0.371298,-0.069924,46,279,580,5104
1644156663.575533,-0.011047,0.011475,-0.993713,0.220855,0.523969,-0.237863,53,276,576,5104
1644156663.623938,-0.011353,0.008301,-0.995056,0.175053,0.432366,-0.085191,48,276,578,5072
1644156663.67233,-0.009399,0.00885,-0.992554,0.144519,0.569771,-0.024122,42,280,584,5056
1644156663.7207,-0.014404,0.00592,-0.992432,0.281924,0.417099,-0.085191,64,277,568,5024
1644156663.769058,-0.011475,0.006348,-0.995056,0.404061,0.462901,-0.14626,49,275,570,5008
1644156663.817466,-0.012634,0.010864,-0.992493,0.266656,0.386565,-0.237863,57,273,572,5008
1644156663.865896,-0.010925,0.008179,-0.992554,0.236122,0.554504,-0.14626,55,276,585,5072
1644156663.914268,-0.009338,0.008301,-0.994019,0.388794,0.539237,-0.069924,48,274,578,5024
1644156663.962703,-0.007568,0.010681,-0.990601,0.281924,0.356031,-0.115725,47,275,575,4992
1644156664.063839,-0.013184,0.007202,-0.994812,0.220855,0.447634,-0.237863,54,273,582,5008
1644156664.10787,-0.014709,0.006836,-0.994202,0.236122,0.615573,-0.069924,43,279,587,5024
1644156664.156379,-0.015198,0.009705,-0.994385,0.251389,0.294962,0.036947,51,274,576,5008
1644156664.204635,-0.010071,0.009033,-0.989258,0.08345,0.417099,-0.024122,46,279,576,5024
1644156664.252949,-0.012268,0.007263,-0.993591,0.236122,0.554504,-0.115725,48,264,571,5072
1644156664.301325,-0.007935,0.007385,-0.990662,0.205588,0.417099,-0.115725,48,266,576,5072
1644156664.349743,-0.011902,0.008484,-0.993347,0.404061,0.417099,-0.039389,46,271,573,5072
1644156664.398129,-0.010559,0.009888,-0.993958,0.175053,0.340763,-0.100458,48,269,578,5008
1644156664.446526,-0.013306,0.007751,-0.99292,0.220855,0.325496,-0.115725,41,269,580,5072
1644156664.494886,-0.014099,0.006287,-0.99292,0.205588,0.478168,-0.14626,58,274,576,5008
1644156664.543315,-0.012451,0.009094,-0.992004,0.205588,0.371298,-0.039389,49,270,570,5008
1644156664.591671,-0.010864,0.008057,-0.994995,0.251389,0.478168,0.067481,46,266,585,5056
1644156664.640073,-0.012207,0.010986,-0.99292,0.190321,0.478168,-0.069924,46,266,569,5008
1644156664.688432,-0.011475,0.011658,-0.989929,0.113985,0.386565,-0.100458,60,271,578,5024
1644156664.736835,-0.012695,0.008118,-0.990356,0.205588,0.340763,-0.207328,46,276,585,5008
1644156664.785223,-0.007751,0.011902,-0.990723,0.205588,0.462901,-0.161527,57,280,579,5072
1644156664.833614,-0.012573,0.008423,-0.99353,0.190321,0.508702,-0.008855,48,271,571,5024
1644156664.883552,-0.010559,0.00946,-0.99115,0.113985,0.493435,-0.115725,48,271,576,5072
1644156664.933541,-0.011475,0.006714,-0.990845,0.388794,0.417099,-0.008855,46,281,569,5008
1644156664.983658,-0.010376,0.008789,-0.991089,0.236122,0.356031,-0.100458,42,280,570,5120
1644156665.028978,-0.011963,0.009277,-0.990784,0.052916,0.294962,-0.100458,53,259,576,5056
1644156665.123963,-0.011658,0.00946,-0.990173,0.35826,0.371298,-0.192061,59,280,572,5104
1644156665.172332,-0.010681,0.01239,-0.994019,0.08345,0.447634,0.021679,52,268,575,5104
1644156665.220711,-0.011658,0.009644,-0.993591,0.205588,0.523969,-0.161527,45,275,570,5024
1644156665.269075,-0.011292,0.010681,-0.991638,0.159786,0.310229,-0.069924,51,276,573,5056
1644156665.317485,-0.010925,0.010376,-0.991882,0.281924,0.310229,-0.069924,49,270,579,5072
1644156665.365881,-0.013123,0.007874,-0.99054,0.113985,0.386565,-0.085191,48,283,573,5008
1644156665.414277,-0.010132,0.008972,-0.991089,0.129252,0.417099,-0.283664,54,275,575,5024
1644156665.462672,-0.011841,0.009766,-0.992798,0.113985,0.294962,-0.100458,46,274,573,5024
1644156665.511027,-0.013489,0.008423,-0.993835,0.35826,0.569771,-0.14626,51,266,573,5072
1644156665.559441,-0.011719,0.012146,-0.990356,0.281924,0.539237,-0.161527,49,275,575,5008
1644156665.607821,-0.014526,0.008179,-0.992737,0.220855,0.447634,-0.069924,43,269,576,5008
1644156665.656213,-0.013855,0.006836,-0.997192,0.144519,0.325496,-0.115725,57,270,579,5056
1644156665.70474,-0.012878,0.008911,-0.993042,0.052916,0.523969,-0.161527,53,274,573,4992
1644156665.753006,-0.013672,0.012024,-0.996033,0.236122,0.356031,-0.100458,52,285,565,5104
1644156665.801415,-0.013123,0.009888,-0.992126,0.297191,0.508702,-0.192061,49,280,579,5056
1644156665.849804,-0.01178,0.009094,-0.993408,0.205588,0.356031,-0.14626,61,275,577,5072
1644156665.898203,-0.010559,0.005737,-0.992065,0.190321,0.493435,-0.192061,41,274,578,5008
1644156665.946609,-0.010193,0.011108,-0.992065,0.220855,0.401832,-0.085191,53,266,578,5024
1644156665.995323,-0.013245,0.01062,-0.991333,0.251389,0.600305,-0.054656,49,270,575,5024
1644156666.059854,-0.013794,0.009949,-0.992798,0.312458,0.340763,-0.100458,55,271,569,5056
1644156666.094138,-0.015259,0.006042,-0.992249,0.388794,0.356031,-0.039389,59,275,572,5024
1644156666.143455,-0.012146,0.007812,-0.990601,0.098718,0.356031,-0.14626,46,276,573,5024
1644156666.188707,-0.011047,0.010681,-0.995056,0.266656,0.462901,-0.14626,49,263,577,4992
1644156666.285395,-0.013489,0.009521,-0.992798,0.342992,0.432366,-0.161527,57,280,577,5056
1644156666.333633,-0.008118,0.007446,-0.99176,0.281924,0.585038,-0.008855,49,275,575,5104
1644156666.382036,-0.01416,0.008484,-0.992126,0.205588,0.523969,-0.115725,59,277,582,5024
1644156666.430404,-0.012085,0.004822,-0.994263,0.113985,0.401832,-0.039389,62,283,576,5056
1644156666.478792,-0.010315,0.009216,-0.992432,0.373527,0.462901,-0.100458,54,273,570,5008
1644156666.527189,-0.01593,0.007385,-0.991394,0.342992,0.417099,-0.100458,46,274,571,5072
1644156666.575569,-0.013977,0.009094,-0.99231,0.388794,0.356031,-0.054656,47,282,570,5072
1644156666.623979,-0.009888,0.007996,-0.994934,0.297191,0.310229,-0.161527,55,279,571,5056
1644156666.672366,-0.01178,0.009949,-0.99408,0.327725,0.462901,0.052214,43,281,571,5024
1644156666.720712,-0.013062,0.007507,-0.993164,0.205588,0.432366,-0.039389,46,276,569,5056
1644156666.769125,-0.008423,0.008789,-0.991577,0.129252,0.447634,-0.085191,48,269,578,5104
1644156666.817554,-0.007751,0.009399,-0.992554,0.266656,0.371298,-0.085191,53,266,578,5008
1644156666.865942,-0.013855,0.009338,-0.992859,0.190321,0.417099,-0.237863,48,271,580,4992
1644156666.914342,-0.009766,0.008728,-0.992371,0.098718,0.478168,-0.14626,48,269,571,5024
1644156666.962745,-0.013733,0.009338,-0.990906,0.113985,0.478168,-0.130992,46,274,578,5024
1644156667.011115,-0.012329,0.006897,-0.991821,0.190321,0.447634,-0.115725,54,270,577,5056
1644156667.107884,-0.013184,0.008118,-0.991516,0.297191,0.401832,-0.14626,45,280,570,5008
1644156667.156214,-0.010803,0.008362,-0.990967,0.342992,0.447634,-0.207328,53,283,569,5120
1644156667.204821,-0.010803,0.007874,-0.991211,0.327725,0.447634,-0.024122,47,265,572,5104
1644156667.253016,-0.012207,0.009949,-0.994507,0.281924,0.386565,-0.069924,48,264,578,5008
1644156667.301389,-0.009155,0.008423,-0.99231,0.312458,0.447634,-0.176794,49,268,577,5024
1644156667.349772,-0.012878,0.008179,-0.991272,0.144519,0.447634,-0.115725,42,260,572,5056
1644156667.398164,-0.013428,0.010803,-0.993958,0.297191,0.478168,-0.008855,53,269,576,5024
