epoch,acc_x,acc_y,acc_z,rot_x,rot_y,rot_z,mag_x,mag_y,mag_z,temp
1644154800.000407,-0.011353,0.00708,-0.992432,0.236122,0.447634,-0.054656,42,270,572,4672
1644154800.062368,-0.013062,0.009705,-0.993652,0.281924,0.356031,-0.085191,42,273,577,4656
1644154800.097143,-0.012268,0.008667,-0.991455,0.251389,0.600305,-0.024122,47,273,570,4640
1644154800.145498,-0.010986,0.010071,-0.993591,0.159786,0.432366,-0.100458,48,276,573,4672
1644154800.193916,-0.013306,0.007507,-0.99176,0.373527,0.401832,-0.100458,49,275,579,4720
1644154800.242301,-0.014099,0.006958,-0.991516,0.236122,0.401832,0.021679,41,276,559,4784
1644154800.290685,-0.013306,0.009338,-0.991089,0.205588,0.523969,-0.054656,57,277,570,4672
1644154800.339091,-0.010925,0.007385,-0.994202,0.281924,0.340763,-0.054656,53,279,564,4720
1644154800.387454,-0.011841,0.007874,-0.989258,0.205588,0.356031,-0.039389,49,273,584,4720
1644154800.435856,-0.010132,0.009644,-0.99292,0.35826,0.401832,-0.100458,53,266,573,4720
1644154800.484226,-0.010071,0.005188,-0.990295,0.236122,0.493435,0.113282,52,273,577,4672
1644154800.532628,-0.011169,0.007996,-0.988647,0.327725,0.508702,-0.176794,47,273,572,4704
1644154800.580985,-0.012451,0.011536,-0.993042,0.281924,0.539237,-0.14626,48,279,585,4656
1644154800.629348,-0.010742,0.006348,-0.993347,0.159786,0.371298,-0.054656,43,264,573,4656
1644154800.677754,-0.011047,0.011169,-0.993774,0.342992,0.386565,-0.222595,47,280,572,4720
1644154800.727436,-0.012451,0.007324,-0.993896,0.144519,0.340763,-0.161527,54,260,568,4608
1644154800.775074,-0.008606,0.008179,-0.991272,0.144519,0.340763,-0.085191,48,271,564,4608
1644154800.8714,-0.012451,0.010925,-0.992126,0.297191,0.462901,-0.069924,52,265,565,4656
1644154800.919752,-0.014954,0.006287,-0.99408,0.342992,0.432366,-0.069924,47,273,575,4672
1644154800.968109,-0.012756,0.008728,-0.993896,0.113985,0.371298,-0.100458,49,275,565,4784
1644154801.016487,-0.010925,0.008179,-0.993408,0.251389,0.493435,-0.008855,46,266,571,4672
1644154801.065569,-0.014465,0.007507,-0.990173,0.144519,0.478168,0.006412,48,271,580,4720
1644154801.11323,-0.010132,0.009888,-0.991333,0.129252,0.478168,-0.14626,48,264,583,4672
1644154801.161631,-0.011292,0.007812,-0.993103,0.342992,0.493435,-0.008855,47,270,570,4672
1644154801.209995,-0.012878,0.009521,-0.991821,0.297191,0.371298,-0.100458,46,276,564,4672
1644154801.258407,-0.011414,0.00885,-0.990845,0.144519,0.371298,-0.130992,48,279,573,4672
1644154801.306786,-0.011963,0.011353,-0.989197,0.297191,0.478168,-0.115725,53,262,571,4672
1644154801.355204,-0.013245,0.007935,-0.991943,0.312458,0.447634,-0.085191,51,271,573,4656
1644154801.403583,-0.011414,0.008606,-0.994019,0.251389,0.493435,-0.100458,38,273,572,4672
1644154801.451967,-0.013245,0.00769,-0.990967,0.266656,0.356031,0.006412,33,277,568,4704
1644154801.500331,-0.01239,0.007263,-0.992493,0.251389,0.417099,-0.192061,45,275,577,4672
1644154801.548742,-0.012085,0.008301,-0.993896,0.281924,0.417099,-0.176794,45,270,579,4592
1644154801.597124,-0.012939,0.00708,-0.990479,0.236122,0.539237,-0.085191,51,262,566,4784
1644154801.645492,-0.01416,0.010681,-0.993774,0.236122,0.386565,-0.283664,39,269,571,4608
1644154801.693881,-0.011841,0.00769,-0.992432,0.266656,0.478168,-0.14626,54,273,577,4672
1644154801.74229,-0.009888,0.009521,-0.991455,0.175053,0.356031,-0.130992,49,275,572,4720
1644154801.790649,-0.012512,0.009216,-0.990234,0.175053,0.386565,-0.176794,47,275,575,4720
1644154801.839401,-0.012329,0.008423,-0.992676,0.342992,0.523969,0.052214,47,270,575,4672
1644154801.890068,-0.012695,0.007812,-0.991455,0.312458,0.401832,-0.130992,59,270,563,4704
1644154801.937555,-0.010864,0.007996,-0.991943,0.205588,0.417099,-0.14626,40,270,565,4672
1644154802.032626,-0.013428,0.006226,-0.992126,0.205588,0.447634,-0.085191,48,281,573,4656
1644154802.082262,-0.010254,0.007568,-0.992493,0.236122,0.401832,-0.207328,53,271,576,4672
1644154802.129389,-0.013062,0.009521,-0.991516,0.068183,0.401832,-0.130992,52,275,579,4720
1644154802.177728,-0.013855,0.008972,-0.990967,0.373527,0.401832,-0.115725,53,264,573,4704
1644154802.226123,-0.012268,0.006958,-0.991638,0.266656,0.478168,0.006412,43,269,571,4608
1644154802.274504,-0.011475,0.009583,-0.994019,0.266656,0.447634,-0.161527,57,265,568,4672
1644154802.322922,-0.01123,0.008118,-0.991577,0.434595,0.432366,-0.115725,48,279,576,4672
1644154802.371314,-0.010925,0.007507,-0.994263,0.35826,0.478168,-0.039389,40,273,572,4672
1644154802.419697,-0.011658,0.007935,-0.994507,0.281924,0.432366,-0.207328,40,260,563,4704
1644154802.468092,-0.010437,0.005798,-0.994446,0.35826,0.493435,0.067481,52,277,577,4656
1644154802.516462,-0.010925,0.007507,-0.993835,0.373527,0.233893,-0.085191,47,275,568,4672
1644154802.564855,-0.011108,0.008118,-0.991272,0.205588,0.523969,-0.085191,59,263,568,4672
1644154802.613215,-0.00824,0.008362,-0.992371,0.220855,0.432366,-0.14626,38,270,575,4672
1644154802.661621,-0.009277,0.010132,-0.993103,0.113985,0.432366,-0.054656,48,266,573,4704
1644154802.710011,-0.011963,0.008545,-0.993896,0.297191,0.371298,-0.130992,47,268,577,4656
1644154802.758371,-0.011414,0.007874,-0.991455,0.175053,0.386565,-0.176794,47,282,570,4704
1644154802.806789,-0.011414,0.007324,-0.992249,0.190321,0.508702,-0.222595,52,277,572,4672
1644154802.855491,-0.012878,0.009033,-0.989929,0.281924,0.493435,-0.054656,46,271,578,4608
1644154802.90361,-0.010132,0.008301,-0.992249,0.342992,0.264427,0.12855,51,281,576,4656
1644154802.951965,-0.013428,0.007568,-0.991333,0.35826,0.447634,-0.161527,43,269,573,4576
1644154803.000356,-0.010925,0.00824,-0.992798,0.266656,0.523969,-0.100458,51,274,580,4704
1644154803.068368,-0.012878,0.008911,-0.99054,0.46513,0.432366,-0.192061,55,269,578,4784
1644154803.09833,-0.011963,0.009644,-0.991455,0.205588,0.417099,-0.054656,52,263,577,4720
1644154803.193842,-0.010986,0.010254,-0.991394,0.281924,0.417099,-0.115725,53,269,573,4672
1644154803.242239,-0.013,0.008972,-0.991882,0.46513,0.523969,-0.069924,42,277,572,4704
1644154803.290624,-0.011902,0.007568,-0.992249,0.113985,0.371298,-0.115725,51,276,562,4672
1644154803.339004,-0.011719,0.007202,-0.992004,0.297191,0.462901,-0.069924,57,268,570,4672
1644154803.387416,-0.010742,0.006531,-0.992065,0.190321,0.432366,-0.115725,47,275,568,4720
1644154803.435789,-0.012329,0.008911,-0.990051,0.251389,0.417099,-0.192061,43,264,569,4608
1644154803.484211,-0.012268,0.00885,-0.992676,0.266656,0.462901,-0.085191,45,277,570,4672
1644154803.532552,-0.009705,0.006592,-0.99176,0.175053,0.264427,-0.161527,42,273,572,4656
1644154803.580976,-0.01062,0.009949,-0.988953,0.266656,0.294962,-0.100458,51,274,569,4672
1644154803.629327,-0.009949,0.008911,-0.991333,0.388794,0.340763,0.021679,55,276,576,4672
1644154803.677724,-0.011292,0.009216,-0.989075,0.236122,0.462901,-0.25313,45,273,577,4672
1644154803.726094,-0.009949,0.012024,-0.990601,0.205588,0.554504,-0.008855,46,266,571,4576
1644154803.774524,-0.007812,0.008972,-0.988281,0.327725,0.539237,0.021679,45,285,577,4720
1644154803.822917,-0.011841,0.009399,-0.994019,0.251389,0.386565,0.006412,41,274,576,4576
1644154803.871357,-0.013733,0.008911,-0.992126,0.236122,0.432366,-0.130992,41,271,580,4672
1644154803.919736,-0.011353,0.007812,-0.992493,0.251389,0.462901,-0.176794,52,270,582,4672
1644154803.968103,-0.010925,0.007568,-0.991943,0.312458,0.447634,-0.161527,45,273,582,4768
1644154804.016483,-0.014282,0.009033,-0.993469,0.129252,0.340763,-0.237863,51,271,573,4704
1644154804.113306,-0.011719,0.009155,-0.992371,0.312458,0.493435,0.021679,47,273,570,4672
1644154804.161596,-0.011658,0.008728,-0.990723,0.327725,0.539237,-0.14626,41,271,578,4656
1644154804.209985,-0.01062,0.009766,-0.991638,0.342992,0.462901,-0.115725,51,274,580,4672
1644154804.258385,-0.01178,0.008911,-0.993164,0.129252,0.539237,-0.069924,42,268,561,4672
1644154804.306775,-0.011169,0.009644,-0.993835,0.266656,0.371298,-0.130992,43,276,564,4672
1644154804.355297,-0.010925,0.009216,-0.991394,0.205588,0.508702,-0.085191,57,268,572,4656
1644154804.403551,-0.011475,0.00824,-0.991882,0.098718,0.478168,-0.100458,49,273,568,4656
1644154804.451974,-0.010193,0.01123,-0.993469,0.220855,0.417099,-0.14626,43,266,585,4592
1644154804.500311,-0.012512,0.007751,-0.992859,0.297191,0.493435,-0.176794,47,273,572,4672
1644154804.548733,-0.012329,0.009644,-0.992798,0.404061,0.401832,-0.176794,52,273,572,4720
1644154804.59713,-0.011169,0.008362,-0.99292,0.281924,0.447634,-0.100458,58,264,569,4704
1644154804.645638,-0.011414,0.007019,-0.992615,0.220855,0.508702,-0.069924,36,264,573,4720
1644154804.693878,-0.010193,0.011353,-0.990112,0.327725,0.203359,-0.100458,43,274,566,4656
1644154804.742291,-0.011963,0.007751,-0.992065,0.266656,0.432366,-0.192061,47,263,577,4720
1644154804.790674,-0.011475,0.008545,-0.992004,0.236122,0.264427,-0.176794,48,271,569,4672
1644154804.839054,-0.01001,0.008667,-0.991089,0.251389,0.294962,-0.024122,48,279,566,4672
1644154804.887446,-0.01355,0.004578,-0.989136,0.175053,0.401832,0.067481,40,270,584,4672
1644154804.935824,-0.012634,0.006653,-0.98938,0.251389,0.356031,-0.192061,46,262,566,4816
1644154804.984185,-0.013855,0.007996,-0.99231,0.129252,0.462901,-0.039389,53,276,566,4592
1644154805.032604,-0.010742,0.00946,-0.992493,0.404061,0.401832,-0.024122,42,268,579,4592
1644154805.090963,-0.013794,0.009216,-0.992004,0.35826,0.523969,-0.161527,47,273,586,4784
1644154805.131714,-0.01239,0.006836,-0.992432,0.236122,0.432366,-0.085191,47,265,570,4672
1644154805.179031,-0.011902,0.007996,-0.993286,0.281924,0.401832,-0.115725,52,277,565,4784
1644154805.274509,-0.011536,0.009827,-0.993286,0.373527,0.310229,-0.069924,52,275,572,4720
1644154805.322896,-0.010986,0.010193,-0.991882,0.297191,0.600305,-0.054656,51,281,571,4672
1644154805.371292,-0.010498,0.007568,-0.992615,0.251389,0.523969,-0.207328,46,271,573,4720
1644154805.41965,-0.011658,0.009521,-0.991211,0.236122,0.386565,0.036947,52,273,570,4656
1644154805.468071,-0.014832,0.006775,-0.991882,0.266656,0.417099,-0.054656,57,268,570,4720
1644154805.516456,-0.012085,0.006958,-0.992676,0.327725,0.356031,-0.176794,58,266,559,4752
1644154805.564862,-0.010254,0.010498,-0.990295,0.342992,0.371298,-0.008855,45,268,568,4720
1644154805.613232,-0.009766,0.007507,-0.995544,0.251389,0.279695,-0.176794,54,270,572,4704
1644154805.661626,-0.012634,0.00885,-0.992493,0.266656,0.325496,-0.222595,47,277,565,4704
1644154805.710023,-0.012085,0.009155,-0.991089,0.327725,0.432366,-0.085191,52,273,577,4656
1644154805.758377,-0.013367,0.009399,-0.993958,0.297191,0.310229,-0.085191,48,269,566,4720
1644154805.806773,-0.009583,0.010376,-0.99231,0.220855,0.325496,-0.069924,46,276,576,4672
1644154805.855185,-0.009399,0.008484,-0.99054,0.175053,0.493435,-0.115725,49,273,572,4720
1644154805.903565,-0.010254,0.007446,-0.994446,0.205588,0.24916,-0.14626,48,279,571,4720
1644154805.951942,-0.010925,0.006775,-0.992249,0.236122,0.432366,-0.115725,42,277,577,4720
1644154806.000305,-0.011108,0.005188,-0.992188,0.236122,0.523969,-0.024122,46,274,573,4768
1644154806.064599,-0.009888,0.007324,-0.99176,0.266656,0.447634,-0.069924,51,271,578,4640
1644154806.097058,-0.012024,0.007446,-0.993042,0.129252,0.432366,-0.222595,41,281,576,4672
1644154806.145432,-0.01239,0.011292,-0.991699,0.388794,0.294962,-0.222595,58,274,571,4656
1644154806.193818,-0.011047,0.008606,-0.992676,0.159786,0.462901,-0.176794,49,275,568,4784
1644154806.242467,-0.013672,0.008057,-0.991455,0.113985,0.294962,-0.130992,51,281,566,4656
1644154806.292775,-0.012207,0.007935,-0.992004,0.342992,0.493435,-0.069924,51,266,566,4592
1644154806.387376,-0.009338,0.006348,-0.991333,0.205588,0.310229,-0.161527,49,273,563,4592
1644154806.43574,-0.012695,0.007935,-0.99292,0.113985,0.523969,-0.024122,35,268,570,4704
1644154806.48411,-0.012756,0.009155,-0.992798,0.098718,0.340763,-0.054656,49,273,568,4704
1644154806.532521,-0.00946,0.005737,-0.991211,0.297191,0.462901,-0.085191,47,265,568,4672
1644154806.580909,-0.013611,0.009888,-0.991882,0.236122,0.386565,-0.085191,55,279,576,4704
1644154806.629317,-0.010071,0.007812,-0.990845,0.297191,0.340763,0.052214,55,266,576,4672
1644154806.67766,-0.013733,0.009705,-0.99292,0.373527,0.432366,-0.161527,55,266,573,4720
1644154806.726049,-0.010742,0.008362,-0.990601,0.236122,0.356031,-0.085191,58,266,571,4720
1644154806.774442,-0.01178,0.008545,-0.992004,0.419328,0.340763,-0.054656,49,268,572,4704
1644154806.822889,-0.012207,0.009033,-0.993469,0.236122,0.432366,-0.14626,48,274,562,4720
1644154806.871247,-0.013,0.008179,-0.993103,0.373527,0.432366,-0.192061,55,266,576,4656
1644154806.919631,-0.014465,0.006226,-0.990051,0.236122,0.310229,-0.069924,51,271,571,4672
1644154806.96806,-0.009888,0.00946,-0.99469,0.205588,0.462901,-0.207328,51,264,573,4784
1644154807.016393,-0.010559,0.008545,-0.994812,0.159786,0.523969,-0.085191,51,276,573,4656
1644154807.077979,-0.011719,0.006897,-0.994202,0.236122,0.417099,-0.054656,29,274,576,4720
1644154807.113153,-0.011963,0.00824,-0.993225,0.251389,0.371298,-0.161527,45,273,575,4704
1644154807.161559,-0.013,0.011108,-0.992371,0.35826,0.462901,-0.039389,54,268,572,4672
1644154807.209939,-0.012573,0.006531,-0.992065,0.190321,0.386565,-0.130992,39,269,566,4640
1644154807.25828,-0.012695,0.007751,-0.99176,0.236122,0.462901,-0.024122,49,280,568,4704
1644154807.306696,-0.012634,0.008545,-0.991882,0.129252,0.310229,-0.161527,41,274,573,4656
1644154807.35516,-0.012329,0.009399,-0.993652,0.220855,0.356031,-0.008855,42,270,575,4656
1644154807.405081,-0.013489,0.008118,-0.993896,0.159786,0.493435,-0.14626,45,263,579,4720
1644154807.452638,-0.012146,0.007385,-0.99054,0.35826,0.447634,-0.039389,51,269,569,4720
1644154807.548641,-0.009521,0.008484,-0.993774,0.373527,0.493435,-0.161527,53,264,569,4608
1644154807.597007,-0.011719,0.00415,-0.991638,0.144519,0.447634,-0.130992,45,280,577,4672
1644154807.645403,-0.013428,0.00769,-0.993225,0.113985,0.417099,-0.008855,43,274,562,4672
1644154807.693819,-0.012756,0.009766,-0.994263,0.175053,0.462901,-0.207328,43,266,569,4720
1644154807.742174,-0.012634,0.009338,-0.992615,0.297191,0.432366,-0.100458,40,268,577,4656
1644154807.790552,-0.012024,0.006775,-0.991333,0.236122,0.508702,0.006412,51,274,573,4752
1644154807.839051,-0.010315,0.007263,-0.990051,0.129252,0.417099,-0.176794,52,270,570,4640
1644154807.887409,-0.01001,0.009277,-0.991699,0.251389,0.371298,-0.085191,43,274,569,4656
1644154807.935753,-0.016052,0.007874,-0.991882,0.251389,0.554504,-0.268397,51,276,578,4768
1644154807.984153,-0.01062,0.011169,-0.993164,0.266656,0.356031,-0.054656,51,259,571,4672
1644154808.032523,-0.011292,0.007446,-0.995483,0.205588,0.401832,-0.085191,49,277,558,4672
1644154808.085671,-0.012451,0.009094,-0.994019,0.342992,0.462901,-0.25313,48,274,569,4784
1644154808.129256,-0.012939,0.00824,-0.995178,0.266656,0.294962,-0.25313,54,273,565,4704
1644154808.177667,-0.012329,0.009094,-0.990906,0.35826,0.401832,0.052214,47,275,570,4672
1644154808.226055,-0.013672,0.00531,-0.993835,0.373527,0.508702,-0.054656,52,273,572,4672
1644154808.274406,-0.012512,0.009216,-0.992371,0.190321,0.462901,-0.130992,55,281,578,4720
1644154808.322837,-0.012756,0.01123,-0.992676,0.220855,0.508702,-0.176794,47,268,572,4672
1644154808.371199,-0.011108,0.009338,-0.993286,0.266656,0.417099,-0.25313,42,273,570,4672
1644154808.419575,-0.013794,0.008423,-0.993286,0.205588,0.356031,-0.100458,55,276,571,4656
1644154808.4695,-0.011353,0.007996,-0.991089,0.190321,0.264427,-0.161527,43,269,562,4608
1644154808.517301,-0.012695,0.010864,-0.992798,0.236122,0.325496,-0.100458,46,266,580,4656
1644154808.613139,-0.011475,0.009094,-0.993896,0.342992,0.401832,-0.100458,52,280,568,4672
1644154808.661494,-0.013,0.009766,-0.989868,0.297191,0.462901,-0.024122,39,281,578,4656
1644154808.709908,-0.01123,0.008667,-0.993347,0.175053,0.386565,-0.100458,48,276,559,4720
1644154808.758282,-0.013794,0.009277,-0.990845,0.342992,0.371298,-0.390534,46,276,562,4608
1644154808.806656,-0.013611,0.00708,-0.992126,0.190321,0.569771,-0.161527,45,268,563,4704
1644154808.855137,-0.012695,0.011353,-0.990051,0.159786,0.401832,-0.115725,46,269,571,4720
1644154808.903502,-0.011841,0.010559,-0.994141,0.175053,0.493435,-0.14626,33,263,568,4608
1644154808.951903,-0.009338,0.008545,-0.990906,0.373527,0.340763,-0.130992,55,266,576,4672
1644154809.000242,-0.012146,0.008789,-0.994934,0.251389,0.325496,0.021679,49,263,563,4672
1644154809.064287,-0.012878,0.005981,-0.991943,0.144519,0.462901,-0.192061,48,271,569,4672
1644154809.097026,-0.013977,0.008911,-0.993103,0.205588,0.569771,-0.024122,51,276,573,4656
1644154809.145446,-0.012878,0.01001,-0.990906,0.251389,0.615573,-0.130992,43,271,573,4656
1644154809.19379,-0.009827,0.007996,-0.989624,0.175053,0.340763,-0.069924,45,258,565,4768
1644154809.242226,-0.015015,0.009705,-0.99292,0.098718,0.600305,-0.115725,46,269,564,4656
1644154809.290604,-0.010925,0.010193,-0.992065,0.312458,0.417099,-0.085191,43,274,562,4672
1644154809.338989,-0.013916,0.004211,-0.99176,0.144519,0.462901,-0.176794,54,277,575,4672
1644154809.387344,-0.01239,0.00885,-0.993286,0.220855,0.188092,-0.283664,49,270,570,4704
1644154809.435754,-0.010681,0.008545,-0.988159,0.236122,0.340763,-0.130992,57,270,582,4672
1644154809.484131,-0.010803,0.010559,-0.993835,0.297191,0.218626,-0.085191,46,269,576,4656
1644154809.532537,-0.012329,0.007324,-0.996704,0.220855,0.340763,-0.130992,48,276,564,4816
1644154809.581527,-0.013306,0.010376,-0.990356,0.342992,0.401832,-0.100458,40,273,565,4720
1644154809.631836,-0.010498,0.010925,-0.991882,0.236122,0.523969,-0.100458,49,275,577,4640
1644154809.679118,-0.010254,0.006958,-0.993408,0.342992,0.478168,-0.14626,48,274,562,4656
1644154809.774451,-0.011108,0.005798,-0.992554,0.205588,0.371298,0.036947,49,268,572,4672
1644154809.82281,-0.014526,0.006165,-0.992798,0.205588,0.356031,-0.100458,54,273,572,4672
1644154809.871214,-0.01123,0.008179,-0.992737,0.35826,0.554504,-0.054656,48,264,571,4640
1644154809.919585,-0.016174,0.007324,-0.992554,0.251389,0.340763,-0.115725,45,275,575,4784
1644154809.967998,-0.010559,0.007568,-0.994568,0.327725,0.356031,-0.054656,48,266,566,4672
1644154810.016382,-0.013794,0.008118,-0.993835,0.327725,0.432366,-0.207328,53,274,569,4656
1644154810.064938,-0.012573,0.009766,-0.993591,0.190321,0.432366,0.052214,48,271,569,4672
1644154810.113191,-0.010132,0.008179,-0.992493,0.281924,0.386565,-0.069924,46,274,566,4656
1644154810.161502,-0.013184,0.008484,-0.99292,0.312458,0.539237,-0.085191,46,281,569,4704
1644154810.209906,-0.013733,0.009155,-0.99353,0.175053,0.340763,-0.222595,55,271,569,4720
1644154810.258265,-0.01416,0.007935,-0.993103,0.220855,0.401832,-0.14626,36,274,578,4608
1644154810.306641,-0.011658,0.006714,-0.992554,0.35826,0.325496,-0.176794,51,276,571,4656
1644154810.3551,-0.018005,0.008118,-0.992737,0.251389,0.294962,-0.100458,48,269,583,4672
1644154810.40342,-0.01239,0.009583,-0.994263,0.327725,0.325496,-0.237863,40,268,561,4608
1644154810.451783,-0.013733,0.007568,-0.991211,0.388794,0.585038,-0.329466,46,271,569,4672
1644154810.500201,-0.009949,0.010986,-0.992188,0.266656,0.401832,-0.161527,51,274,569,4672
1644154810.548605,-0.013855,0.009338,-0.992004,0.144519,0.356031,-0.024122,48,266,564,4704
1644154810.59698,-0.011658,0.005737,-0.993958,0.35826,0.432366,-0.100458,48,271,557,4608
1644154810.645358,-0.012146,0.009644,-0.995361,0.327725,0.585038,-0.130992,48,281,571,4720
1644154810.693741,-0.011536,0.005554,-0.99292,0.144519,0.233893,-0.085191,46,266,571,4672
1644154810.742185,-0.011841,0.00946,-0.99231,0.205588,0.462901,-0.207328,54,275,568,4672
1644154810.792033,-0.010742,0.007874,-0.994385,0.129252,0.325496,-0.161527,49,265,577,4672
1644154810.839548,-0.009827,0.009583,-0.99115,0.098718,0.24916,-0.100458,47,275,565,4672
1644154810.93573,-0.011414,0.010437,-0.991821,0.205588,0.447634,-0.176794,41,269,566,4672
1644154810.98412,-0.01239,0.006775,-0.99408,0.144519,0.432366,-0.024122,39,274,571,4672
1644154811.032497,-0.011353,0.009338,-0.993042,0.251389,0.569771,-0.085191,48,276,566,4784
1644154811.082702,-0.013306,0.007996,-0.992981,0.480397,0.539237,-0.054656,48,274,569,4672
1644154811.12927,-0.01123,0.007812,-0.994202,0.205588,0.401832,-0.14626,45,273,565,4656
1644154811.177615,-0.012085,0.008667,-0.992554,0.175053,0.462901,-0.085191,47,277,565,4704
1644154811.226036,-0.012939,0.009644,-0.992249,0.190321,0.386565,-0.008855,48,276,566,4720
1644154811.274373,-0.013794,0.010681,-0.990295,0.220855,0.386565,-0.176794,55,283,569,4720
1644154811.322797,-0.012451,0.006653,-0.98999,0.297191,0.523969,-0.268397,46,266,580,4672
1644154811.371137,-0.012329,0.010681,-0.992004,0.190321,0.493435,-0.192061,54,270,565,4704
1644154811.41957,-0.013916,0.006958,-0.991821,0.342992,0.554504,0.143817,53,271,562,4768
1644154811.467925,-0.010559,0.006897,-0.991394,0.266656,0.401832,0.021679,49,275,575,4608
1644154811.516318,-0.013794,0.01123,-0.993469,0.312458,0.539237,-0.085191,41,281,576,4672
1644154811.564701,-0.012146,0.008911,-0.991333,0.342992,0.432366,-0.192061,51,283,571,4720
1644154811.613122,-0.009399,0.011719,-0.990295,0.007115,0.340763,0.021679,59,277,565,4784
1644154811.661499,-0.013,0.007507,-0.992554,0.281924,0.340763,-0.192061,51,269,569,4704
1644154811.709843,-0.010559,0.009766,-0.992493,0.251389,0.294962,-0.268397,40,275,572,4704
1644154811.758243,-0.013,0.008728,-0.992676,0.35826,0.294962,-0.115725,40,275,570,4672
1644154811.806645,-0.012268,0.011414,-0.993164,0.266656,0.417099,-0.14626,57,268,563,4608
1644154811.855415,-0.012939,0.008545,-0.991211,0.35826,0.325496,-0.14626,48,264,569,4672
1644154811.904045,-0.010498,0.006653,-0.995117,0.236122,0.356031,-0.130992,48,274,566,4720
1644154811.953911,-0.010193,0.008362,-0.992981,0.205588,0.447634,-0.130992,52,263,570,4640
1644154812.001345,-0.01123,0.006653,-0.992188,0.175053,0.478168,-0.054656,53,264,571,4816
1644154812.097024,-0.009399,0.01001,-0.992676,0.281924,0.371298,-0.130992,47,273,575,4704
1644154812.145363,-0.010498,0.009033,-0.993774,0.205588,0.462901,-0.069924,53,259,571,4672
1644154812.193738,-0.012573,0.007996,-0.990967,0.388794,0.279695,-0.115725,47,277,570,4704
1644154812.242141,-0.009888,0.00885,-0.99176,0.251389,0.356031,-0.207328,48,276,566,4720
1644154812.290487,-0.009277,0.008484,-0.991577,0.144519,0.585038,-0.14626,38,268,570,4672
1644154812.338863,-0.014954,0.009705,-0.994141,0.098718,0.325496,-0.039389,49,273,558,4720
1644154812.387266,-0.009399,0.007446,-0.993164,0.35826,0.447634,-0.054656,52,265,575,4656
1644154812.435679,-0.012939,0.009705,-0.992249,0.312458,0.264427,-0.192061,52,277,572,4784
1644154812.484039,-0.009399,0.010254,-0.990356,0.175053,0.401832,0.006412,48,271,569,4656
1644154812.53247,-0.009766,0.009399,-0.989319,0.08345,0.386565,-0.130992,55,269,576,4768
1644154812.58084,-0.010864,0.007141,-0.992188,0.281924,0.386565,-0.14626,48,281,576,4656
1644154812.62923,-0.012939,0.008423,-0.994324,0.236122,0.371298,-0.100458,58,271,569,4672
1644154812.677577,-0.013062,0.006653,-0.993164,0.251389,0.447634,-0.054656,54,268,572,4720
1644154812.726002,-0.011353,0.009888,-0.990356,0.220855,0.417099,-0.14626,49,273,572,4672
1644154812.774379,-0.010864,0.009949,-0.988281,0.236122,0.539237,-0.085191,41,274,566,4672
1644154812.822778,-0.011902,0.010681,-0.991577,0.190321,0.371298,-0.008855,60,271,569,4672
1644154812.871126,-0.012817,0.006042,-0.992432,0.251389,0.462901,-0.207328,52,268,577,4640
1644154812.919575,-0.010376,0.005981,-0.991638,0.236122,0.447634,-0.14626,48,266,576,4656
1644154812.967931,-0.014343,0.010193,-0.994324,0.342992,0.356031,-0.100458,55,269,573,4704
1644154813.016358,-0.010498,0.009216,-0.992065,0.113985,0.386565,-0.100458,48,269,573,4608
1644154813.077393,-0.009949,0.007874,-0.993652,0.052916,0.462901,-0.130992,62,279,578,4720
1644154813.161509,-0.013123,0.007568,-0.994629,0.190321,0.493435,-0.085191,54,277,577,4704
1644154813.209842,-0.011963,0.007019,-0.991882,0.129252,0.356031,-0.100458,58,276,571,4720
1644154813.258251,-0.012939,0.00708,-0.991455,0.220855,0.508702,-0.130992,51,279,569,4672
1644154813.306627,-0.010437,0.007202,-0.993042,0.129252,0.417099,-0.14626,40,275,568,4720
1644154813.355086,-0.010498,0.006531,-0.991638,0.159786,0.386565,0.036947,46,269,564,4720
1644154813.403424,-0.01123,0.006836,-0.994507,0.449863,0.401832,-0.268397,45,273,577,4720
1644154813.451815,-0.01416,0.008789,-0.993896,0.220855,0.356031,-0.069924,54,285,570,4672
1644154813.500154,-0.011841,0.007935,-0.98999,0.251389,0.417099,0.052214,48,269,573,4672
1644154813.54862,-0.010864,0.008606,-0.992126,0.098718,0.386565,0.021679,52,277,568,4656
1644154813.59695,-0.011658,0.009155,-0.992859,0.159786,0.386565,-0.039389,42,275,577,4672
1644154813.645393,-0.013977,0.006531,-0.989807,0.205588,0.356031,-0.024122,64,270,577,4784
1644154813.693775,-0.011108,0.009583,-0.992737,0.175053,0.432366,-0.130992,47,275,584,4672
1644154813.74219,-0.012695,0.010315,-0.992432,0.205588,0.432366,-0.14626,40,273,572,4672
1644154813.790524,-0.012329,0.009949,-0.990234,0.388794,0.417099,-0.207328,41,276,573,4672
1644154813.838929,-0.012512,0.009888,-0.992859,0.129252,0.417099,-0.14626,41,274,571,4608
1644154813.887304,-0.011169,0.010315,-0.993408,0.510931,0.386565,-0.161527,60,276,569,4768
1644154813.935735,-0.013,0.007568,-0.991394,0.297191,0.646107,-0.161527,45,265,575,4672
1644154813.984076,-0.012207,0.008545,-0.991516,0.098718,0.325496,-0.054656,45,263,582,4608
1644154814.03247,-0.011292,0.008667,-0.99176,0.220855,0.432366,-0.069924,42,270,568,4704
1644154814.087651,-0.010681,0.007812,-0.996704,0.312458,0.386565,-0.054656,47,273,575,4704
1644154814.129744,-0.009705,0.009277,-0.990967,0.220855,0.417099,-0.161527,53,266,573,4672
1644154814.18021,-0.014099,0.010498,-0.993408,0.251389,0.371298,-0.008855,53,266,564,4656
1644154814.227807,-0.013855,0.008606,-0.996216,0.144519,0.478168,-0.283664,46,279,569,4656
1644154814.322767,-0.009033,0.007629,-0.991699,0.190321,0.340763,-0.085191,51,271,578,4656
1644154814.37116,-0.011475,0.008545,-0.993225,0.236122,0.508702,-0.069924,52,265,575,4720
1644154814.419511,-0.012207,0.01239,-0.991211,0.266656,0.371298,-0.25313,45,275,565,4672
1644154814.467911,-0.011902,0.007141,-0.991333,0.236122,0.478168,-0.283664,47,277,579,4720
1644154814.516289,-0.011047,0.00946,-0.991516,0.449863,0.447634,-0.130992,51,274,566,4656
1644154814.564737,-0.010559,0.008545,-0.992432,0.236122,0.417099,-0.085191,49,273,565,4704
1644154814.613124,-0.011475,0.011536,-0.991211,0.236122,0.447634,0.006412,54,273,575,4672
1644154814.661479,-0.010681,0.008179,-0.990356,0.297191,0.371298,-0.069924,45,275,561,4672
1644154814.709839,-0.008118,0.013,-0.991211,0.266656,0.432366,-0.207328,58,269,569,4672
1644154814.758246,-0.012695,0.008179,-0.991028,0.236122,0.417099,-0.14626,53,271,573,4656
1644154814.806652,-0.010376,0.008301,-0.991821,0.297191,0.417099,-0.069924,54,273,570,4704
1644154814.855208,-0.01001,0.008606,-0.99176,0.037649,0.371298,-0.069924,47,277,572,4720
1644154814.903444,-0.011841,0.008728,-0.991943,0.281924,0.294962,-0.100458,54,265,570,4672
1644154814.951819,-0.01239,0.009399,-0.99231,0.113985,0.447634,-0.100458,46,274,573,4656
1644154815.000184,-0.011719,0.009338,-0.99353,0.236122,0.493435,-0.161527,52,280,575,4656
1644154815.065953,-0.010681,0.009155,-0.993042,0.236122,0.539237,-0.161527,51,271,573,4672
1644154815.096969,-0.011169,0.00769,-0.994019,0.236122,0.523969,-0.115725,51,276,573,4672
1644154815.145344,-0.010925,0.009888,-0.990295,0.266656,0.386565,0.098015,42,285,577,4656
1644154815.193716,-0.012756,0.009705,-0.991882,0.205588,0.478168,0.006412,51,271,580,4768
1644154815.24216,-0.008667,0.010315,-0.992126,0.297191,0.478168,-0.176794,58,274,562,4704
1644154815.291695,-0.010071,0.009888,-0.993042,0.312458,0.417099,-0.115725,48,264,573,4720
1644154815.341608,-0.011841,0.010864,-0.991821,0.129252,0.478168,-0.024122,47,273,570,4672
1644154815.435617,-0.01416,0.008728,-0.993652,0.266656,0.401832,-0.054656,45,275,570,4672
1644154815.48408,-0.012939,0.008118,-0.992676,0.175053,0.462901,-0.085191,48,271,566,4720
1644154815.532423,-0.011597,0.007324,-0.99176,0.419328,0.493435,-0.024122,53,276,569,4672
1644154815.580836,-0.013245,0.008362,-0.991089,0.327725,0.432366,-0.161527,52,275,572,4720
1644154815.629213,-0.00885,0.00946,-0.992065,0.175053,0.478168,-0.14626,47,277,572,4720
1644154815.677605,-0.010071,0.008728,-0.992798,0.129252,0.523969,-0.054656,42,268,572,4704
1644154815.72603,-0.013428,0.011414,-0.994202,0.190321,0.340763,-0.222595,43,269,571,4672
1644154815.774397,-0.008118,0.007996,-0.992554,0.175053,0.539237,-0.14626,46,266,571,4672
1644154815.822792,-0.011597,0.009583,-0.992493,0.281924,0.462901,0.052214,43,279,569,4704
1644154815.871169,-0.011963,0.009399,-0.992615,0.236122,0.432366,-0.085191,52,268,570,4608
1644154815.919508,-0.010681,0.009583,-0.992371,0.297191,0.432366,-0.192061,46,276,578,4768
1644154815.967935,-0.012573,0.009277,-0.990601,0.373527,0.493435,-0.130992,48,257,578,4768
1644154816.016294,-0.012085,0.009399,-0.988953,0.205588,0.401832,-0.192061,41,266,576,4720
1644154816.067362,-0.011475,0.007935,-0.993896,0.190321,0.371298,-0.222595,52,273,582,4656
1644154816.113054,-0.014709,0.006897,-0.993469,0.08345,0.294962,-0.130992,52,277,570,4720
1644154816.161443,-0.013,0.005676,-0.992371,0.266656,0.294962,-0.130992,47,268,570,4672
1644154816.209817,-0.011719,0.008545,-0.98999,0.388794,0.569771,-0.176794,53,271,576,4720
1644154816.25818,-0.011169,0.007996,-0.99115,0.220855,0.432366,-0.192061,51,269,576,4704
1644154816.30653,-0.013,0.007507,-0.992493,0.327725,0.508702,-0.222595,51,269,580,4608
1644154816.355018,-0.010681,0.008667,-0.992493,0.251389,0.386565,-0.054656,51,269,576,4672
1644154816.403342,-0.012817,0.005859,-0.993774,0.35826,0.432366,-0.115725,57,270,577,4720
1644154816.453286,-0.012085,0.008484,-0.991028,0.220855,0.508702,-0.039389,49,263,563,4592
1644154816.500994,-0.012268,0.008911,-0.992981,0.297191,0.417099,-0.115725,45,275,572,4784
1644154816.596902,-0.012085,0.006653,-0.994934,0.220855,0.417099,-0.25313,42,280,572,4672
1644154816.64527,-0.011047,0.00824,-0.992432,0.266656,0.340763,-0.069924,45,270,575,4720
1644154816.693659,-0.011536,0.010742,-0.992126,0.404061,0.401832,-0.024122,43,264,566,4704
1644154816.742055,-0.010803,0.008728,-0.99054,0.297191,0.432366,-0.176794,53,271,564,4672
1644154816.790464,-0.014282,0.006836,-0.993042,0.205588,0.478168,-0.100458,57,268,565,4672
1644154816.838888,-0.013794,0.009521,-0.991028,0.281924,0.371298,0.006412,52,270,565,4720
1644154816.887286,-0.009949,0.007629,-0.990112,0.068183,0.462901,0.021679,46,269,571,4656
1644154816.935636,-0.012146,0.011292,-0.994629,0.236122,0.523969,-0.192061,54,268,556,4720
1644154816.984058,-0.013367,0.00946,-0.994568,0.541466,0.356031,-0.161527,47,277,572,4704
1644154817.032443,-0.009888,0.01001,-0.995056,0.144519,0.417099,0.006412,55,269,571,4720
1644154817.083963,-0.011475,0.009583,-0.992126,0.404061,0.508702,-0.085191,59,273,568,4656
1644154817.129184,-0.010376,0.011169,-0.992004,0.205588,0.401832,0.036947,42,270,575,4720
1644154817.177567,-0.012695,0.008179,-0.992249,0.342992,0.386565,-0.130992,46,269,571,4640
1644154817.22597,-0.011108,0.007141,-0.993103,0.266656,0.523969,-0.069924,55,276,571,4768
1644154817.274338,-0.011536,0.010376,-0.992371,0.251389,0.508702,-0.283664,52,268,575,4768
1644154817.322744,-0.013,0.003967,-0.993652,0.342992,0.585038,-0.085191,45,275,565,4656
1644154817.371114,-0.01123,0.008362,-0.992004,0.297191,0.432366,-0.176794,45,277,577,4672
1644154817.421559,-0.013245,0.009216,-0.993042,0.297191,0.493435,-0.069924,51,276,578,4656
1644154817.468976,-0.01062,0.00592,-0.989868,0.190321,0.325496,-0.14626,48,271,571,4720
1644154817.564714,-0.012634,0.00824,-0.992004,0.281924,0.386565,-0.130992,48,281,569,4704
1644154817.61303,-0.012939,0.007141,-0.991821,0.159786,0.462901,-0.085191,42,277,572,4672
1644154817.661422,-0.011353,0.008362,-0.992065,0.220855,0.478168,-0.069924,52,277,568,4672
1644154817.709805,-0.01239,0.007629,-0.991089,0.251389,0.417099,-0.130992,42,282,572,4672
1644154817.75819,-0.01062,0.007568,-0.992737,0.08345,0.478168,-0.161527,53,259,569,4672
1644154817.806553,-0.012573,0.01001,-0.990417,0.297191,0.432366,-0.161527,48,274,569,4672
1644154817.855027,-0.009155,0.010498,-0.99231,0.434595,0.478168,0.021679,47,268,572,4672
1644154817.903389,-0.010925,0.01123,-0.992249,0.373527,0.417099,-0.161527,55,274,580,4816
1644154817.951765,-0.01239,0.007446,-0.992554,0.297191,0.325496,-0.100458,52,280,582,4592
1644154818.000146,-0.009094,0.008118,-0.992493,0.251389,0.462901,-0.115725,46,281,569,4784
1644154818.064179,-0.011169,0.007629,-0.989563,0.251389,0.523969,-0.054656,47,270,572,4672
1644154818.09687,-0.012695,0.011902,-0.989502,0.373527,0.356031,0.006412,48,286,578,4704
1644154818.145266,-0.010437,0.011597,-0.989868,0.220855,0.356031,-0.085191,55,271,576,4784
1644154818.193657,-0.013306,0.008667,-0.990967,0.46513,0.371298,-0.176794,59,275,579,4672
1644154818.242012,-0.010132,0.008972,-0.991577,0.266656,0.447634,-0.161527,48,276,576,4704
1644154818.290436,-0.012329,0.008728,-0.991455,0.220855,0.386565,-0.069924,47,275,570,4656
1644154818.33887,-0.011963,0.00769,-0.990784,0.281924,0.294962,-0.130992,53,269,573,4672
1644154818.387187,-0.010376,0.008911,-0.989563,0.281924,0.447634,-0.176794,47,270,575,4592
1644154818.435587,-0.013367,0.009766,-0.993713,0.205588,0.462901,-0.192061,54,270,582,4768
1644154818.483941,-0.010742,0.007507,-0.991211,0.266656,0.371298,-0.115725,45,263,575,4720
1644154818.532369,-0.013916,0.007874,-0.992981,0.144519,0.478168,-0.130992,43,271,566,4672
1644154818.582338,-0.011353,0.010742,-0.993958,0.327725,0.432366,-0.039389,51,271,573,4704
1644154818.63002,-0.012817,0.008728,-0.99176,0.266656,0.462901,0.021679,43,269,571,4704
1644154818.725872,-0.012451,0.011108,-0.993408,0.098718,0.24916,-0.039389,45,285,570,4608
1644154818.774288,-0.00885,0.008606,-0.99115,0.297191,0.386565,-0.054656,51,266,564,4672
1644154818.822679,-0.010559,0.00769,-0.991943,0.419328,0.462901,-0.115725,40,280,575,4640
1644154818.871079,-0.011475,0.009216,-0.99054,0.266656,0.447634,-0.069924,58,281,569,4720
1644154818.919497,-0.012939,0.007141,-0.992432,0.236122,0.646107,-0.14626,51,274,578,4720
1644154818.967886,-0.015442,0.008362,-0.991394,0.205588,0.325496,-0.115725,53,274,576,4704
1644154819.01625,-0.011353,0.008362,-0.994019,0.266656,0.417099,-0.069924,49,273,575,4672
1644154819.066373,-0.010681,0.007874,-0.990234,0.220855,0.294962,-0.008855,47,273,577,4672
1644154819.113029,-0.010681,0.008118,-0.993652,0.297191,0.478168,-0.14626,47,273,575,4656
1644154819.161421,-0.011597,0.005554,-0.989685,0.220855,0.432366,-0.115725,53,269,573,4720
1644154819.209817,-0.012024,0.01001,-0.992493,0.144519,0.340763,-0.14626,48,269,573,4784
1644154819.258157,-0.010437,0.00769,-0.991943,0.281924,0.417099,-0.130992,43,269,583,4592
1644154819.306579,-0.013672,0.008667,-0.992188,0.236122,0.417099,-0.176794,43,274,576,4720
1644154819.354936,-0.011841,0.012817,-0.990051,0.220855,0.462901,-0.14626,41,288,566,4768
1644154819.403368,-0.01178,0.010254,-0.991516,0.220855,0.371298,-0.268397,49,277,572,4704
1644154819.451699,-0.010986,0.010071,-0.993225,0.190321,0.462901,-0.008855,43,279,573,4672
1644154819.500115,-0.009705,0.011597,-0.99353,0.098718,0.386565,-0.344733,52,273,582,4672
1644154819.548461,-0.012512,0.007996,-0.994263,0.404061,0.340763,-0.298931,53,279,580,4784
1644154819.596899,-0.011902,0.009888,-0.99408,0.342992,0.325496,-0.115725,38,277,570,4784
1644154819.645321,-0.011597,0.00946,-0.993958,0.297191,0.401832,-0.161527,57,273,561,4608
1644154819.694919,-0.010376,0.008362,-0.991699,0.175053,0.462901,-0.207328,48,266,573,4752
1644154819.742502,-0.01239,0.009338,-0.994263,0.266656,0.447634,-0.14626,47,277,577,4656
1644154819.838864,-0.009766,0.009094,-0.994202,0.098718,0.569771,-0.192061,47,280,561,4576
1644154819.887198,-0.012085,0.008972,-0.992188,0.236122,0.386565,-0.115725,51,271,562,4720
1644154819.935576,-0.010193,0.007507,-0.99115,0.205588,0.356031,-0.024122,54,275,572,4672
1644154819.984009,-0.011841,0.009277,-0.991394,0.098718,0.462901,0.006412,40,280,565,4656
1644154820.032363,-0.013489,0.01123,-0.991333,0.281924,0.356031,-0.024122,42,277,575,4720
1644154820.080783,-0.01062,0.006409,-0.989197,0.373527,0.24916,-0.130992,59,275,582,4672
1644154820.129119,-0.008789,0.008606,-0.991089,0.205588,0.447634,-0.14626,42,270,563,4720
1644154820.177482,-0.012756,0.008301,-0.991882,0.266656,0.478168,-0.054656,61,275,570,4704
1644154820.225899,-0.009705,0.007935,-0.990479,0.220855,0.554504,-0.085191,47,273,565,4768
1644154820.274256,-0.012573,0.007812,-0.991211,0.297191,0.417099,-0.100458,53,274,564,4608
1644154820.322634,-0.00824,0.009888,-0.991211,0.205588,0.401832,-0.085191,42,275,568,4704
1644154820.371053,-0.010986,0.008728,-0.99115,0.251389,0.371298,-0.176794,42,268,570,4704
1644154820.419434,-0.013062,0.00647,-0.992004,0.098718,0.508702,-0.130992,48,276,569,4656
1644154820.467814,-0.008484,0.010132,-0.991638,0.220855,0.325496,-0.100458,52,265,579,4672
1644154820.516171,-0.012817,0.006775,-0.992676,0.327725,0.417099,-0.008855,54,275,572,4720
1644154820.564626,-0.009399,0.009277,-0.994568,0.297191,0.493435,-0.176794,51,266,566,4672
1644154820.61298,-0.011292,0.008179,-0.99176,0.35826,0.508702,-0.176794,42,277,568,4704
1644154820.661335,-0.014038,0.007568,-0.99115,0.159786,0.554504,-0.176794,47,268,572,4768
1644154820.709705,-0.009216,0.009766,-0.992371,0.404061,0.264427,-0.100458,48,271,564,4656
1644154820.758112,-0.013245,0.010803,-0.992859,0.205588,0.432366,-0.14626,42,273,582,4672
1644154820.806862,-0.009888,0.009216,-0.993469,0.35826,0.294962,-0.024122,39,264,573,4704
1644154820.857836,-0.014343,0.010071,-0.993225,0.037649,0.401832,-0.069924,57,270,575,4704
1644154820.905397,-0.011841,0.007935,-0.992615,0.159786,0.462901,-0.039389,39,269,573,4704
1644154821.000112,-0.012329,0.007935,-0.992126,0.388794,0.417099,-0.130992,43,274,569,4656
1644154821.06343,-0.013,0.010193,-0.991455,0.251389,0.417099,-0.085191,55,266,571,4656
1644154821.096848,-0.013977,0.009399,-0.990845,0.236122,0.294962,-0.14626,53,281,578,4656
1644154821.145307,-0.011414,0.007446,-0.990906,0.220855,0.478168,-0.054656,54,273,565,4672
1644154821.193665,-0.011658,0.00946,-0.993164,0.281924,0.371298,-0.100458,43,276,569,4672
1644154821.24204,-0.011292,0.007935,-0.995117,0.190321,0.539237,-0.069924,53,279,576,4672
1644154821.290427,-0.011719,0.009827,-0.992798,0.388794,0.493435,-0.222595,46,271,571,4672
1644154821.338823,-0.011536,0.009155,-0.992615,0.129252,0.340763,-0.222595,52,265,572,4784
1644154821.387213,-0.013245,0.007629,-0.992371,0.220855,0.478168,-0.115725,45,275,568,4704
1644154821.435591,-0.01239,0.007263,-0.99231,0.404061,0.310229,-0.100458,46,266,573,4768
1644154821.483957,-0.010437,0.013733,-0.990234,0.236122,0.401832,-0.207328,52,268,570,4672
1644154821.532351,-0.013,0.007202,-0.992432,0.129252,0.371298,-0.008855,49,268,568,4720
1644154821.580715,-0.010315,0.00824,-0.989258,0.312458,0.401832,-0.039389,53,266,569,4720
1644154821.629271,-0.008545,0.008545,-0.992737,0.236122,0.340763,0.036947,52,268,565,4704
1644154821.679809,-0.013367,0.010376,-0.992188,0.251389,0.432366,-0.207328,48,276,566,4672
1644154821.727146,-0.013733,0.010315,-0.990906,0.113985,0.569771,-0.054656,47,265,563,4784
1644154821.822668,-0.010193,0.007812,-0.992126,0.190321,0.401832,-0.268397,48,276,569,4672
1644154821.871054,-0.010193,0.007629,-0.990723,0.342992,0.356031,-0.14626,52,268,572,4656
1644154821.919446,-0.011902,0.007385,-0.993896,0.327725,0.508702,-0.085191,54,280,563,4672
1644154821.967822,-0.00946,0.006104,-0.992493,0.281924,0.356031,-0.054656,57,280,570,4672
1644154822.016179,-0.00885,0.009949,-0.992004,0.205588,0.325496,-0.161527,52,277,572,4672
1644154822.066567,-0.011597,0.011536,-0.99353,0.129252,0.462901,0.021679,48,269,573,4672
1644154822.113034,-0.01178,0.006775,-0.991943,0.312458,0.386565,-0.085191,52,277,556,4640
1644154822.16138,-0.011353,0.00824,-0.99231,0.312458,0.417099,-0.268397,52,273,563,4784
1644154822.209731,-0.013428,0.007935,-0.992126,0.159786,0.401832,0.021679,43,271,564,4656
1644154822.258135,-0.013489,0.00769,-0.99231,0.251389,0.371298,-0.008855,49,273,575,4656
1644154822.306544,-0.011597,0.010437,-0.99408,0.373527,0.493435,-0.207328,53,269,569,4704
1644154822.354939,-0.009521,0.007568,-0.994812,0.327725,0.386565,-0.100458,49,277,565,4672
1644154822.403337,-0.008911,0.008484,-0.989746,0.220855,0.386565,-0.130992,47,275,572,4656
1644154822.451708,-0.013306,0.004883,-0.995056,0.281924,0.462901,-0.069924,41,269,569,4672
1644154822.500067,-0.012878,0.007874,-0.989319,0.281924,0.585038,-0.222595,47,277,568,4672
1644154822.548445,-0.009766,0.008057,-0.992126,0.266656,0.554504,-0.115725,43,274,564,4672
1644154822.596855,-0.01178,0.008606,-0.988892,0.266656,0.447634,-0.008855,51,262,569,4720
1644154822.645247,-0.013611,0.00769,-0.992737,0.113985,0.386565,-0.054656,57,277,572,4720
1644154822.69361,-0.012817,0.006592,-0.991455,0.312458,0.447634,-0.085191,35,280,568,4672
1644154822.742002,-0.010864,0.011108,-0.990723,0.251389,0.310229,-0.14626,49,275,570,4704
1644154822.7909,-0.012573,0.010071,-0.99176,0.08345,0.63084,-0.176794,48,276,571,4784
1644154822.841203,-0.009827,0.007324,-0.991333,0.35826,0.417099,-0.115725,52,273,565,4704
1644154822.935539,-0.012146,0.010315,-0.994324,0.175053,0.569771,-0.176794,49,268,568,4704
1644154822.983919,-0.012695,0.00708,-0.992249,0.266656,0.508702,-0.085191,51,269,562,4656
1644154823.032323,-0.012878,0.009766,-0.992615,0.434595,0.371298,-0.085191,51,269,566,4704
1644154823.080728,-0.010925,0.007202,-0.990295,0.281924,0.386565,-0.008855,49,268,575,4704
1644154823.129064,-0.012146,0.010864,-0.994812,0.159786,0.340763,-0.222595,49,275,568,4672
1644154823.177448,-0.012817,0.01062,-0.993286,0.190321,0.325496,-0.085191,52,263,568,4608
1644154823.225829,-0.011353,0.006165,-0.991455,0.312458,0.325496,-0.130992,47,275,570,4720
1644154823.27422,-0.009277,0.011475,-0.989075,0.129252,0.340763,-0.14626,43,271,571,4672
1644154823.32262,-0.014221,0.006775,-0.992676,0.312458,0.371298,-0.085191,38,275,572,4672
1644154823.371011,-0.009827,0.009521,-0.990967,0.312458,0.340763,0.067481,48,276,566,4672
1644154823.419396,-0.010254,0.008911,-0.994263,0.205588,0.462901,0.067481,46,269,569,4672
1644154823.467729,-0.012695,0.007141,-0.992981,0.266656,0.401832,0.006412,40,273,572,4672
1644154823.516141,-0.011353,0.010864,-0.990112,0.327725,0.447634,-0.054656,48,274,573,4784
1644154823.564551,-0.014771,0.011292,-0.990112,0.144519,0.386565,-0.008855,43,269,573,4656
1644154823.61295,-0.014465,0.006104,-0.991272,0.190321,0.356031,-0.054656,46,266,573,4672
1644154823.661326,-0.014282,0.008057,-0.994019,0.236122,0.447634,-0.161527,43,262,569,4656
1644154823.709721,-0.012512,0.008423,-0.992554,0.266656,0.310229,-0.069924,47,277,565,4672
1644154823.758066,-0.012695,0.009827,-0.993408,0.220855,0.340763,0.006412,58,262,569,4704
1644154823.80655,-0.01123,0.007935,-0.991638,0.205588,0.310229,0.067481,48,264,580,4704
1644154823.854916,-0.014404,0.008179,-0.993896,0.281924,0.356031,0.006412,45,270,575,4592
1644154823.903307,-0.00946,0.011169,-0.994507,0.175053,0.371298,-0.130992,41,274,571,4640
1644154823.953673,-0.013367,0.008911,-0.993835,0.495664,0.264427,-0.069924,49,268,572,4672
1644154824.001136,-0.011658,0.011536,-0.993591,0.266656,0.569771,-0.008855,58,271,564,4720
1644154824.096809,-0.014709,0.010132,-0.99231,0.297191,0.432366,-0.207328,38,275,570,4656
1644154824.145167,-0.012146,0.006775,-0.993774,0.068183,0.432366,-0.054656,49,273,570,4608
1644154824.193576,-0.014465,0.011292,-0.99292,0.220855,0.340763,-0.222595,46,276,559,4672
1644154824.241952,-0.010681,0.006226,-0.991943,0.266656,0.478168,-0.130992,49,270,561,4816
1644154824.290331,-0.01178,0.010803,-0.99176,0.205588,0.325496,-0.176794,46,276,573,4672
1644154824.338749,-0.012268,0.009277,-0.993774,0.312458,0.417099,0.021679,53,269,566,4704
1644154824.387123,-0.010193,0.009338,-0.992249,0.434595,0.401832,-0.207328,54,275,561,4704
1644154824.435512,-0.011047,0.010071,-0.992615,0.281924,0.417099,-0.100458,48,269,564,4656
1644154824.483899,-0.011841,0.008606,-0.993896,0.404061,0.508702,-0.100458,47,270,565,4704
1644154824.532248,-0.012329,0.008423,-0.992493,0.236122,0.356031,-0.115725,47,263,572,4720
1644154824.580664,-0.014404,0.008789,-0.993835,0.098718,0.508702,0.098015,43,274,564,4656
1644154824.629017,-0.012451,0.008423,-0.992004,0.297191,0.462901,-0.008855,41,274,573,4656
1644154824.677448,-0.010925,0.009888,-0.989075,0.312458,0.432366,-0.130992,46,264,566,4720
1644154824.725784,-0.011841,0.00708,-0.992676,0.159786,0.462901,-0.268397,42,270,561,4816
1644154824.774212,-0.012695,0.009705,-0.992737,0.266656,0.417099,-0.100458,49,270,565,4720
1644154824.822621,-0.009399,0.010193,-0.994385,0.129252,0.432366,-0.100458,46,274,564,4720
1644154824.870984,-0.009949,0.008789,-0.995361,0.190321,0.523969,-0.054656,42,273,570,4656
1644154824.919367,-0.010254,0.009888,-0.992126,0.113985,0.325496,-0.115725,38,277,570,4720
1644154824.967791,-0.010437,0.008606,-0.99176,0.220855,0.554504,-0.192061,60,264,573,4656
1644154825.016149,-0.009094,0.009583,-0.990967,0.175053,0.462901,0.006412,43,269,571,4752
1644154825.081903,-0.010864,0.008484,-0.992126,0.159786,0.294962,-0.176794,54,273,577,4608
1644154825.120764,-0.012085,0.006897,-0.991699,0.175053,0.447634,-0.039389,53,271,573,4720
1644154825.16234,-0.009827,0.006714,-0.994019,0.220855,0.554504,-0.085191,54,268,568,4720
1644154825.258039,-0.012634,0.009583,-0.992676,0.129252,0.462901,-0.069924,49,277,575,4704
1644154825.306421,-0.011963,0.010742,-0.990723,0.220855,0.371298,-0.222595,53,279,569,4672
1644154825.35485,-0.010803,0.006775,-0.993164,0.342992,0.356031,-0.039389,54,270,563,4672
1644154825.403208,-0.009827,0.007324,-0.994141,0.327725,0.600305,-0.054656,52,265,572,4672
1644154825.451619,-0.012512,0.00824,-0.990051,0.144519,0.523969,0.036947,53,274,578,4608
1644154825.499975,-0.01123,0.007935,-0.989319,0.251389,0.356031,-0.024122,49,270,572,4768
1644154825.548399,-0.013611,0.00647,-0.992004,0.327725,0.447634,-0.100458,52,268,577,4592
1644154825.596786,-0.01239,0.011841,-0.992737,0.35826,0.447634,-0.054656,53,271,562,4720
1644154825.645177,-0.012024,0.009949,-0.994507,0.251389,0.310229,-0.069924,57,268,568,4656
1644154825.693562,-0.012634,0.006409,-0.990173,0.327725,0.539237,-0.283664,51,274,562,4720
1644154825.741923,-0.009888,0.007385,-0.993286,0.144519,0.539237,0.006412,49,273,570,4672
1644154825.790291,-0.009094,0.009216,-0.990356,0.312458,0.371298,-0.069924,51,276,569,4720
1644154825.838736,-0.012024,0.008545,-0.99176,0.175053,0.615573,-0.039389,51,279,571,4704
1644154825.887136,-0.012878,0.007629,-0.993835,0.266656,0.401832,-0.115725,53,271,571,4672
1644154825.935473,-0.014771,0.008301,-0.992004,0.266656,0.508702,-0.100458,47,265,575,4656
1644154825.983912,-0.010925,0.006348,-0.992004,0.327725,0.371298,-0.008855,46,269,576,4672
1644154826.032261,-0.009094,0.009277,-0.992371,0.297191,0.386565,-0.054656,45,265,575,4768
1644154826.080705,-0.011169,0.010864,-0.99231,0.342992,0.356031,-0.039389,52,277,568,4672
1644154826.128961,-0.012695,0.009399,-0.990295,0.388794,0.264427,-0.207328,46,271,580,4720
1644154826.177387,-0.011902,0.011963,-0.990479,0.404061,0.386565,-0.100458,57,265,572,4656
1644154826.226023,-0.009644,0.009644,-0.993286,0.251389,0.539237,-0.069924,54,270,575,4656
1644154826.276429,-0.011719,0.008789,-0.992493,0.236122,0.478168,-0.130992,54,268,565,4672
1644154826.370956,-0.010498,0.009705,-0.99176,0.190321,0.325496,-0.283664,55,283,571,4656
1644154826.419295,-0.014221,0.009155,-0.992859,0.251389,0.356031,-0.085191,46,271,569,4672
1644154826.467722,-0.013977,0.011047,-0.993042,0.327725,0.386565,-0.192061,52,265,565,4672
1644154826.516086,-0.011108,0.009277,-0.992981,0.342992,0.478168,-0.237863,40,265,572,4704
1644154826.564512,-0.011353,0.011536,-0.992004,0.251389,0.310229,0.036947,52,265,565,4704
1644154826.612908,-0.01178,0.009033,-0.990967,0.449863,0.539237,-0.115725,55,266,564,4784
1644154826.661261,-0.014282,0.010498,-0.993469,0.266656,0.417099,-0.054656,46,281,566,4720
1644154826.70961,-0.01123,0.009888,-0.991089,0.297191,0.539237,-0.008855,41,266,578,4768
1644154826.758038,-0.011475,0.006165,-0.990173,0.35826,0.432366,0.006412,43,264,569,4720
1644154826.806426,-0.012756,0.009094,-0.99408,0.220855,0.554504,-0.115725,52,277,568,4656
1644154826.854844,-0.013062,0.007629,-0.992615,0.266656,0.356031,-0.130992,45,277,568,4656
1644154826.90324,-0.011475,0.008789,-0.993591,0.327725,0.462901,-0.115725,55,283,569,4608
1644154826.951609,-0.011963,0.009766,-0.991089,0.373527,0.356031,-0.085191,53,276,564,4720
1644154827.000005,-0.011414,0.010925,-0.993469,0.251389,0.523969,-0.100458,52,275,565,4816
1644154827.061557,-0.011597,0.010193,-0.992798,0.205588,0.462901,-0.192061,46,279,571,4640
1644154827.096798,-0.011475,0.009094,-0.991028,0.129252,0.462901,-0.069924,58,274,578,4704
1644154827.145143,-0.012939,0.007019,-0.991455,0.297191,0.401832,-0.115725,47,263,572,4656
1644154827.193514,-0.014648,0.007874,-0.992859,0.266656,0.432366,-0.115725,43,274,571,4592
1644154827.241872,-0.012573,0.009399,-0.992371,0.388794,0.478168,-0.14626,52,265,572,4672
1644154827.290278,-0.008118,0.012756,-0.990601,0.159786,0.401832,-0.039389,49,275,565,4720
1644154827.338661,-0.011292,0.009766,-0.990479,0.297191,0.356031,-0.222595,43,274,571,4608
1644154827.388187,-0.009094,0.010193,-0.99115,0.190321,0.417099,-0.008855,48,266,573,4656
1644154827.435975,-0.010925,0.008301,-0.99176,0.312458,0.386565,0.098015,51,269,566,4720
1644154827.532213,-0.011353,0.008423,-0.989319,0.373527,0.508702,-0.176794,52,273,572,4672
1644154827.58059,-0.012085,0.011902,-0.99353,0.312458,0.294962,-0.039389,49,270,570,4720
1644154827.628997,-0.009583,0.00769,-0.994141,0.266656,0.523969,-0.100458,48,271,576,4672
1644154827.677342,-0.013855,0.006775,-0.991028,0.312458,0.478168,0.052214,53,269,559,4720
1644154827.725774,-0.012146,0.008118,-0.991455,0.266656,0.233893,0.006412,48,276,576,4768
1644154827.774136,-0.013245,0.010498,-0.991638,0.159786,0.386565,0.036947,47,277,565,4704
1644154827.822543,-0.010254,0.011597,-0.99176,0.113985,0.356031,-0.161527,45,270,572,4656
1644154827.870934,-0.009583,0.009827,-0.991882,0.236122,0.233893,-0.192061,49,270,561,4768
1644154827.919372,-0.010376,0.009644,-0.992493,0.327725,0.493435,-0.192061,47,265,575,4768
1644154827.967755,-0.010376,0.008423,-0.991943,0.129252,0.569771,0.052214,53,271,569,4720
1644154828.016121,-0.010986,0.00647,-0.990417,0.190321,0.294962,-0.100458,48,276,562,4720
1644154828.06706,-0.011353,0.006897,-0.991821,0.434595,0.233893,-0.192061,45,268,579,4704
1644154828.112926,-0.012085,0.011108,-0.990723,0.08345,0.386565,0.006412,53,276,580,4672
1644154828.161245,-0.011292,0.011841,-0.991699,0.159786,0.447634,-0.25313,47,265,575,4592
1644154828.209645,-0.013123,0.00885,-0.992493,0.388794,0.371298,-0.115725,41,271,569,4720
1644154828.258004,-0.010803,0.010803,-0.991882,0.312458,0.508702,-0.085191,48,271,569,4704
1644154828.306352,-0.010193,0.008362,-0.992737,0.312458,0.554504,-0.100458,46,274,566,4704
1644154828.354797,-0.012878,0.007202,-0.991577,0.251389,0.386565,0.052214,53,274,571,4672
1644154828.403184,-0.010742,0.00531,-0.992981,0.220855,0.310229,0.021679,51,276,576,4672
1644154828.45155,-0.01123,0.010437,-0.99292,0.297191,0.447634,-0.100458,40,270,572,4704
1644154828.499917,-0.01001,0.011536,-0.99176,0.236122,0.325496,-0.100458,41,271,569,4704
1644154828.549614,-0.011902,0.009949,-0.993774,0.251389,0.401832,-0.085191,48,269,569,4656
1644154828.597297,-0.008972,0.008301,-0.994019,0.236122,0.417099,-0.039389,55,274,564,4672
1644154828.693466,-0.01178,0.011169,-0.989563,0.159786,0.294962,-0.054656,47,277,575,4672
1644154828.741864,-0.011047,0.009155,-0.99292,0.251389,0.279695,-0.054656,46,269,564,4672
1644154828.790241,-0.011719,0.009338,-0.989929,0.373527,0.417099,-0.024122,45,280,575,4784
1644154828.838625,-0.012634,0.009766,-0.992859,0.312458,0.294962,-0.024122,52,268,563,4720
1644154828.887058,-0.009766,0.007385,-0.991089,0.327725,0.371298,-0.039389,45,265,568,4768
1644154828.935426,-0.010254,0.009705,-0.993958,0.266656,0.462901,-0.069924,49,265,577,4656
1644154828.983869,-0.012695,0.010193,-0.991211,0.236122,0.325496,-0.14626,47,273,570,4672
1644154829.032401,-0.010559,0.009399,-0.989258,0.052916,0.432366,-0.130992,52,277,570,4816
1644154829.080694,-0.010071,0.010437,-0.992065,0.312458,0.478168,-0.054656,52,273,565,4656
1644154829.129015,-0.012634,0.00824,-0.99054,0.251389,0.401832,-0.024122,51,271,571,4720
1644154829.177418,-0.012817,0.009766,-0.996826,0.236122,0.462901,0.12855,53,274,578,4784
1644154829.225797,-0.010681,0.011353,-0.991638,0.281924,0.417099,-0.207328,43,274,566,4720
1644154829.274145,-0.009277,0.010071,-0.99292,0.297191,0.417099,-0.161527,43,274,578,4784
1644154829.322566,-0.006897,0.009705,-0.994141,0.297191,0.401832,-0.100458,52,270,561,4592
1644154829.371132,-0.013794,0.006531,-0.992126,0.373527,0.386565,-0.054656,54,275,575,4816
1644154829.421265,-0.010193,0.011597,-0.990967,0.068183,0.325496,-0.054656,40,273,577,4608
1644154829.468832,-0.013245,0.009399,-0.991516,0.342992,0.478168,-0.100458,54,275,561,4672
1644154829.564456,-0.010315,0.00769,-0.991272,0.175053,0.447634,0.021679,53,274,562,4816
1644154829.612876,-0.009827,0.009338,-0.990845,0.022382,0.432366,-0.054656,48,276,562,4672
1644154829.661282,-0.013916,0.008667,-0.994995,0.297191,0.432366,-0.085191,45,277,563,4720
1644154829.709607,-0.013123,0.004272,-0.992615,0.281924,0.508702,-0.176794,54,270,570,4720
1644154829.758011,-0.012573,0.00824,-0.991089,0.281924,0.447634,-0.100458,57,268,561,4704
1644154829.80641,-0.009949,0.005005,-0.989868,0.373527,0.585038,0.006412,51,264,566,4672
1644154829.854839,-0.013184,0.009338,-0.992126,0.281924,0.432366,-0.314198,52,265,570,4656
1644154829.903221,-0.011047,0.00885,-0.992676,0.434595,0.508702,-0.024122,47,268,563,4720
1644154829.951585,-0.010193,0.009338,-0.989746,0.266656,0.523969,-0.008855,48,271,576,4704
1644154829.999917,-0.010254,0.009766,-0.988647,0.404061,0.401832,-0.085191,48,266,564,4768
1644154830.065485,-0.014038,0.008179,-0.993164,0.175053,0.24916,-0.100458,48,274,569,4656
1644154830.096721,-0.013245,0.010132,-0.992432,0.342992,0.432366,-0.115725,46,286,576,4768
1644154830.145185,-0.011841,0.01001,-0.991333,0.327725,0.447634,-0.176794,47,273,572,4672
1644154830.193485,-0.013977,0.01062,-0.991821,0.297191,0.371298,-0.024122,46,286,571,4672
1644154830.241915,-0.008118,0.009277,-0.99231,0.327725,0.661374,-0.069924,49,273,570,4672
1644154830.290295,-0.010803,0.007996,-0.994385,0.220855,0.417099,-0.039389,53,266,564,4720
1644154830.338688,-0.008118,0.007263,-0.994751,0.281924,0.417099,0.006412,40,282,572,4608
1644154830.387055,-0.011841,0.007507,-0.993591,0.251389,0.417099,-0.100458,39,274,566,4720
1644154830.435461,-0.012512,0.007324,-0.994507,0.281924,0.478168,-0.085191,49,268,561,4656
1644154830.483807,-0.009766,0.008911,-0.988892,0.388794,0.478168,-0.176794,55,266,569,4704
1644154830.532637,-0.013306,0.007263,-0.995728,0.327725,0.523969,-0.085191,48,264,566,4768
1644154830.582916,-0.01062,0.007751,-0.992065,0.175053,0.386565,-0.100458,55,271,562,4576
1644154830.630532,-0.011108,0.011719,-0.99115,0.388794,0.462901,-0.329466,41,271,569,4720
1644154830.725719,-0.012939,0.009277,-0.989868,0.068183,0.401832,-0.039389,49,268,563,4720
1644154830.77415,-0.012024,0.01062,-0.993652,0.297191,0.417099,-0.115725,41,269,569,4672
1644154830.822489,-0.013611,0.00708,-0.992126,0.220855,0.371298,-0.024122,47,270,558,4656
1644154830.870932,-0.011108,0.008972,-0.991638,0.327725,0.478168,0.067481,46,269,569,4672
1644154830.919332,-0.013367,0.009277,-0.993103,0.342992,0.432366,-0.085191,47,268,563,4720
1644154830.967719,-0.01355,0.010315,-0.992493,0.281924,0.279695,-0.069924,51,271,566,4640
1644154831.016071,-0.011108,0.010376,-0.990051,0.297191,0.462901,-0.039389,51,271,564,4672
1644154831.065761,-0.01062,0.008423,-0.994385,0.236122,0.539237,-0.176794,48,274,569,4720
1644154831.112845,-0.011841,0.009949,-0.992065,0.236122,0.508702,-0.192061,49,265,570,4672
1644154831.161222,-0.007751,0.01062,-0.98999,0.190321,0.508702,-0.054656,55,269,569,4720
1644154831.209601,-0.012756,0.008118,-0.990662,0.098718,0.539237,-0.130992,49,277,575,4656
1644154831.257967,-0.013367,0.010803,-0.993713,0.297191,0.462901,-0.008855,55,276,564,4656
1644154831.306354,-0.014465,0.009888,-0.992004,0.251389,0.401832,-0.024122,59,270,570,4672
1644154831.354749,-0.010986,0.008667,-0.990906,0.205588,0.447634,-0.085191,39,281,571,4672
1644154831.403142,-0.012878,0.008728,-0.992371,0.342992,0.371298,-0.115725,60,279,580,4672
1644154831.451487,-0.015991,0.009644,-0.991455,0.312458,0.356031,-0.100458,55,274,571,4672
1644154831.499896,-0.014282,0.00946,-0.988647,0.388794,0.417099,-0.115725,42,273,570,4816
1644154831.5483,-0.011963,0.006104,-0.996094,0.220855,0.340763,-0.008855,53,276,555,4672
1644154831.596691,-0.012146,0.009949,-0.992676,0.144519,0.447634,-0.115725,39,271,576,4672
1644154831.645099,-0.009644,0.011658,-0.991272,0.312458,0.310229,-0.130992,53,271,573,4704
1644154831.693444,-0.011658,0.009094,-0.991699,0.251389,0.371298,-0.222595,48,274,562,4672
1644154831.743211,-0.012939,0.009277,-0.993103,0.266656,0.386565,-0.207328,48,274,566,4768
1644154831.790952,-0.012329,0.007324,-0.992798,0.342992,0.539237,-0.192061,54,260,575,4784
1644154831.887009,-0.009277,0.009399,-0.992859,0.312458,0.462901,-0.024122,49,273,572,4720
1644154831.935407,-0.013733,0.007202,-0.991638,0.098718,0.401832,-0.130992,40,270,570,4720
1644154831.983843,-0.011169,0.009521,-0.991516,0.297191,0.294962,-0.024122,48,262,573,4704
1644154832.032208,-0.010803,0.00885,-0.991821,0.342992,0.356031,-0.100458,47,270,565,4704
1644154832.080935,-0.012207,0.009766,-0.992615,0.236122,0.310229,-0.222595,55,276,573,4704
1644154832.128947,-0.013184,0.010254,-0.992981,0.205588,0.493435,-0.085191,47,280,570,4672
1644154832.177315,-0.013428,0.010071,-0.991943,0.236122,0.432366,-0.222595,48,276,569,4704
1644154832.225717,-0.011902,0.005371,-0.990479,0.220855,0.325496,-0.024122,49,277,572,4640
1644154832.274069,-0.010803,0.010132,-0.994751,0.251389,0.539237,-0.100458,52,280,570,4672
1644154832.322479,-0.011597,0.008179,-0.989929,0.159786,0.432366,-0.008855,45,273,561,4720
1644154832.370855,-0.01123,0.007385,-0.991821,0.281924,0.371298,-0.130992,59,268,584,4784
1644154832.419284,-0.012085,0.009399,-0.992859,0.175053,0.432366,-0.192061,51,269,571,4672
1644154832.467662,-0.012146,0.010681,-0.992493,0.159786,0.447634,-0.207328,47,273,570,4656
1644154832.516018,-0.010071,0.008484,-0.991272,0.281924,0.432366,0.036947,48,271,566,4768
1644154832.564428,-0.00885,0.006897,-0.990845,0.342992,0.325496,-0.085191,51,269,573,4672
1644154832.612825,-0.014771,0.007996,-0.992065,0.205588,0.401832,-0.176794,52,277,570,4672
1644154832.661186,-0.013916,0.007935,-0.991516,0.205588,0.386565,-0.14626,49,277,570,4672
1644154832.709542,-0.010498,0.00769,-0.993347,0.327725,0.310229,-0.161527,49,275,570,4656
1644154832.757911,-0.014587,0.01123,-0.991516,0.205588,0.325496,-0.115725,48,274,571,4672
1644154832.806504,-0.011902,0.009155,-0.99054,0.297191,0.478168,-0.161527,46,276,573,4768
1644154832.855157,-0.01123,0.008606,-0.991333,0.281924,0.417099,-0.008855,46,276,562,4672
1644154832.906034,-0.01062,0.009827,-0.995605,0.175053,0.401832,-0.054656,48,276,576,4720
1644154832.953016,-0.011841,0.007324,-0.992432,0.434595,0.325496,0.082748,49,275,572,4784
1644154833.062277,-0.014282,0.010376,-0.99353,0.266656,0.478168,-0.100458,47,277,572,4608
1644154833.096682,-0.012512,0.008789,-0.993225,0.236122,0.508702,-0.085191,53,283,573,4704
1644154833.145103,-0.014832,0.007263,-0.991516,0.266656,0.447634,0.036947,41,281,573,4672
1644154833.193457,-0.010376,0.008606,-0.991211,0.129252,0.356031,-0.054656,52,268,575,4672
1644154833.24184,-0.010986,0.006653,-0.991455,0.297191,0.539237,-0.161527,52,268,561,4672
1644154833.290251,-0.009705,0.011658,-0.991638,0.236122,0.600305,-0.054656,53,269,573,4672
1644154833.338602,-0.011658,0.007935,-0.991577,0.281924,0.386565,-0.100458,53,271,569,4768
1644154833.387015,-0.012695,0.008118,-0.991882,0.113985,0.447634,0.006412,47,277,568,4768
1644154833.435414,-0.01532,0.00708,-0.990479,0.205588,0.600305,-0.237863,51,262,576,4608
1644154833.483785,-0.010376,0.008911,-0.994995,0.220855,0.371298,-0.14626,46,281,573,4672
1644154833.532184,-0.012573,0.01178,-0.990906,0.312458,0.432366,0.006412,52,275,575,4656
1644154833.580557,-0.011658,0.007263,-0.99054,0.08345,0.493435,-0.130992,52,268,565,4768
1644154833.628949,-0.011108,0.009888,-0.99054,0.373527,0.401832,-0.14626,46,279,569,4784
1644154833.678086,-0.013,0.005798,-0.989319,0.297191,0.340763,-0.176794,55,271,562,4720
1644154833.728234,-0.010132,0.00885,-0.992249,0.159786,0.493435,-0.085191,51,274,571,4720
1644154833.822495,-0.013367,0.009155,-0.990906,0.297191,0.294962,-0.008855,49,277,568,4720
1644154833.87091,-0.013,0.006714,-0.99292,0.281924,0.401832,-0.069924,62,271,566,4656
1644154833.919277,-0.011536,0.007812,-0.99115,0.190321,0.447634,-0.283664,52,268,563,4784
1644154833.967604,-0.012451,0.008423,-0.991638,0.236122,0.325496,-0.130992,48,269,564,4720
1644154834.016024,-0.008423,0.01123,-0.990295,0.220855,0.493435,-0.100458,53,269,571,4656
1644154834.0649,-0.014587,0.009338,-0.993225,0.342992,0.447634,-0.069924,49,270,575,4720
1644154834.112849,-0.011292,0.008606,-0.990784,0.266656,0.340763,-0.100458,48,262,571,4672
1644154834.161161,-0.011841,0.008789,-0.99408,0.190321,0.432366,-0.268397,51,271,564,4720
1644154834.209568,-0.011597,0.009521,-0.992371,0.159786,0.401832,-0.192061,51,259,559,4656
1644154834.25792,-0.011536,0.011108,-0.994324,0.159786,0.493435,-0.115725,45,270,565,4672
1644154834.306303,-0.011841,0.008972,-0.990601,0.236122,0.401832,-0.024122,46,266,576,4656
1644154834.354719,-0.01001,0.006348,-0.993225,0.08345,0.447634,-0.054656,48,276,569,4704
1644154834.403106,-0.010132,0.010864,-0.994568,0.08345,0.432366,-0.161527,52,268,577,4656
1644154834.451492,-0.008911,0.007507,-0.993103,0.190321,0.432366,-0.039389,47,287,572,4720
1644154834.499855,-0.013062,0.004517,-0.995178,0.220855,0.508702,-0.14626,40,273,570,4656
1644154834.548257,-0.012451,0.009399,-0.99292,0.327725,0.371298,-0.25313,46,271,576,4720
1644154834.596601,-0.011597,0.011047,-0.991943,0.129252,0.401832,-0.085191,51,279,571,4656
1644154834.645075,-0.010376,0.007629,-0.99176,0.159786,0.386565,-0.100458,47,280,570,4768
1644154834.6934,-0.011902,0.008911,-0.990479,0.159786,0.462901,-0.024122,42,268,579,4784
1644154834.741791,-0.015564,0.00708,-0.992615,0.312458,0.478168,-0.085191,51,269,569,4720
1644154834.790434,-0.013428,0.011414,-0.994751,0.205588,0.371298,-0.054656,45,282,570,4784
1644154834.840637,-0.012329,0.009216,-0.993286,0.251389,0.371298,-0.069924,52,285,579,4672
1644154834.935358,-0.009583,0.01001,-0.991638,0.266656,0.447634,-0.130992,51,276,564,4720
1644154834.983772,-0.014465,0.008911,-0.991638,0.159786,0.493435,-0.039389,46,266,580,4784
1644154835.032345,-0.01416,0.00885,-0.990723,0.220855,0.493435,-0.054656,40,277,575,4672
1644154835.082028,-0.009705,0.005615,-0.993896,0.297191,0.401832,-0.14626,49,277,565,4672
1644154835.128885,-0.010925,0.007874,-0.990601,0.129252,0.508702,-0.115725,46,271,571,4656
1644154835.177266,-0.012756,0.008179,-0.991089,0.266656,0.264427,-0.207328,48,274,564,4656
1644154835.225628,-0.013611,0.008667,-0.993408,0.297191,0.417099,-0.039389,36,274,576,4672
1644154835.274043,-0.00946,0.006592,-0.994202,0.327725,0.417099,-0.237863,55,269,573,4656
1644154835.322427,-0.010925,0.011292,-0.993835,0.236122,0.356031,0.036947,36,271,576,4720
1644154835.370816,-0.010437,0.011169,-0.992493,0.419328,0.508702,-0.14626,47,265,568,4672
1644154835.419208,-0.010132,0.009277,-0.993408,0.35826,0.417099,-0.176794,46,276,583,4672
1644154835.467609,-0.01239,0.009216,-0.992615,0.312458,0.447634,-0.085191,54,263,570,4768
1644154835.515972,-0.01062,0.009827,-0.992004,0.297191,0.401832,-0.039389,43,262,562,4768
1644154835.56438,-0.014404,0.006104,-0.990479,0.236122,0.356031,-0.130992,51,279,566,4784
1644154835.612766,-0.013428,0.005554,-0.99292,0.434595,0.493435,-0.207328,62,274,566,4608
1644154835.661146,-0.011658,0.008118,-0.994263,0.220855,0.447634,-0.25313,48,274,571,4672
1644154835.709537,-0.010254,0.00946,-0.989197,0.373527,0.356031,-0.100458,42,273,572,4704
1644154835.757903,-0.012939,0.009705,-0.992554,0.251389,0.24916,-0.115725,47,275,568,4672
1644154835.806304,-0.011963,0.00946,-0.989319,0.113985,0.417099,-0.14626,38,268,565,4656
1644154835.855048,-0.013977,0.004089,-0.994202,0.251389,0.340763,-0.176794,51,274,566,4672
1644154835.903215,-0.013489,0.008972,-0.994141,0.022382,0.294962,0.006412,45,275,570,4784
1644154835.953876,-0.013184,0.008545,-0.993408,0.327725,0.462901,-0.100458,52,275,575,4672
1644154836.001016,-0.010437,0.008057,-0.991333,0.342992,0.447634,-0.375267,42,275,563,4656
1644154836.096631,-0.014099,0.005554,-0.991699,0.068183,0.432366,-0.008855,51,274,564,4720
1644154836.14508,-0.014343,0.006042,-0.99231,0.098718,0.356031,-0.039389,46,264,571,4720
1644154836.193412,-0.01239,0.010193,-0.992126,0.434595,0.508702,-0.25313,47,275,561,4704
1644154836.241796,-0.013916,0.010925,-0.99176,0.190321,0.447634,-0.085191,43,271,576,4768
1644154836.29015,-0.013245,0.011658,-0.993896,0.480397,0.447634,-0.14626,48,269,578,4672
1644154836.338525,-0.015259,0.008606,-0.992004,0.281924,0.386565,-0.14626,52,270,575,4656
1644154836.386931,-0.014221,0.007629,-0.992798,0.342992,0.386565,-0.054656,51,266,571,4784
1644154836.435323,-0.009827,0.005798,-0.991089,0.236122,0.508702,-0.130992,49,270,563,4640
1644154836.483726,-0.009888,0.010071,-0.99054,0.251389,0.401832,-0.176794,43,274,564,4768
1644154836.532083,-0.012939,0.007935,-0.992249,0.144519,0.371298,-0.008855,45,270,568,4720
1644154836.580487,-0.013062,0.010315,-0.993103,0.190321,0.539237,-0.130992,48,274,562,4784
1644154836.628841,-0.012878,0.00769,-0.991943,0.35826,0.401832,-0.130992,46,279,566,4640
1644154836.677267,-0.010986,0.009827,-0.990784,0.190321,0.432366,-0.100458,52,275,570,4656
1644154836.72561,-0.01062,0.010803,-0.994019,0.205588,0.371298,-0.130992,42,277,575,4656
1644154836.774024,-0.014038,0.010864,-0.991699,0.342992,0.417099,-0.130992,54,277,570,4672
1644154836.822437,-0.012878,0.008789,-0.993835,0.190321,0.478168,-0.054656,49,263,563,4720
1644154836.870815,-0.010986,0.007385,-0.992859,0.144519,0.478168,0.12855,42,273,579,4720
1644154836.919239,-0.012146,0.00769,-0.993713,0.251389,0.462901,-0.192061,52,280,568,4672
1644154836.967575,-0.012512,0.010193,-0.992432,0.327725,0.294962,0.006412,48,281,576,4672
1644154837.016007,-0.009766,0.008728,-0.993591,0.251389,0.493435,-0.222595,58,281,569,4672
1644154837.080788,-0.011169,0.009705,-0.992493,0.236122,0.417099,-0.008855,52,270,570,4672
1644154837.16114,-0.012573,0.007996,-0.992065,0.312458,0.462901,-0.222595,45,270,563,4672
1644154837.209563,-0.012085,0.009766,-0.993164,0.190321,0.294962,-0.222595,49,268,572,4704
1644154837.257903,-0.012085,0.007446,-0.991821,0.190321,0.508702,0.006412,48,269,569,4608
1644154837.306302,-0.012268,0.007935,-0.993408,0.419328,0.432366,-0.130992,48,266,564,4672
1644154837.354916,-0.010071,0.011658,-0.989685,0.327725,0.478168,-0.085191,34,276,571,4704
1644154837.403089,-0.010925,0.00592,-0.994019,0.205588,0.432366,-0.176794,49,282,570,4720
1644154837.451492,-0.012268,0.006165,-0.994324,0.327725,0.386565,-0.115725,54,268,554,4672
1644154837.499846,-0.01178,0.009827,-0.990845,0.175053,0.508702,-0.085191,47,275,563,4672
1644154837.548229,-0.01355,0.007263,-0.989441,0.312458,0.478168,-0.008855,46,279,562,4672
1644154837.596639,-0.014038,0.009399,-0.989807,0.419328,0.325496,-0.100458,54,275,563,4672
1644154837.645081,-0.012512,0.008667,-0.992126,0.190321,0.432366,0.021679,53,279,559,4720
1644154837.693417,-0.012512,0.00769,-0.990845,0.281924,0.478168,-0.115725,46,279,564,4656
1644154837.741787,-0.013977,0.010193,-0.992004,0.266656,0.356031,-0.100458,46,274,564,4768
1644154837.7902,-0.01062,0.008423,-0.993164,0.266656,0.508702,0.006412,52,270,568,4608
1644154837.838584,-0.013123,0.009216,-0.990234,0.175053,0.401832,-0.207328,47,277,561,4672
1644154837.886966,-0.015137,0.009216,-0.990662,0.281924,0.340763,-0.115725,46,279,564,4656
1644154837.935353,-0.012146,0.008179,-0.991699,0.175053,0.493435,-0.192061,48,269,571,4704
1644154837.983723,-0.013611,0.005066,-0.990601,0.404061,0.417099,-0.115725,46,269,569,4704
1644154838.032147,-0.013672,0.006714,-0.99469,0.434595,0.417099,-0.25313,43,271,559,4672
1644154838.080571,-0.010864,0.01001,-0.99054,0.281924,0.417099,-0.268397,53,274,569,4752
1644154838.129576,-0.010132,0.011414,-0.99292,0.327725,0.478168,-0.024122,53,269,566,4672
1644154838.17994,-0.012939,0.007202,-0.99054,0.236122,0.447634,-0.085191,47,268,570,4704
1644154838.227462,-0.010925,0.007751,-0.992004,0.113985,0.356031,0.006412,48,283,569,4672
1644154838.322401,-0.010803,0.009277,-0.992554,0.312458,0.478168,-0.115725,47,273,565,4656
1644154838.370819,-0.014771,0.006287,-1.000427,0.251389,0.386565,-0.054656,45,268,572,4816
1644154838.419188,-0.013977,0.009766,-0.990906,0.175053,0.417099,0.006412,38,273,575,4720
1644154838.467578,-0.013794,0.009583,-0.994507,0.144519,0.478168,-0.207328,51,264,569,4672
1644154838.515955,-0.014587,0.009766,-0.995667,0.205588,0.508702,-0.039389,49,270,561,4720
1644154838.564352,-0.009521,0.009155,-0.990295,0.266656,0.386565,0.036947,55,269,566,4704
1644154838.612768,-0.012817,0.01062,-0.993164,0.236122,0.356031,-0.130992,53,271,573,4672
1644154838.661106,-0.010437,0.008362,-0.99469,0.236122,0.615573,-0.25313,51,271,573,4672
1644154838.709541,-0.009705,0.008789,-0.992126,0.220855,0.386565,-0.039389,43,262,571,4704
1644154838.757905,-0.007507,0.005249,-0.9953,0.342992,0.462901,-0.14626,49,268,563,4784
1644154838.806279,-0.012695,0.008423,-0.992859,0.190321,0.294962,-0.024122,42,270,563,4672
1644154838.854713,-0.012146,0.008606,-0.991699,0.266656,0.386565,-0.100458,52,280,572,4704
1644154838.903095,-0.013489,0.006531,-0.992432,0.098718,0.386565,-0.222595,46,274,562,4704
1644154838.951434,-0.009216,0.006592,-0.992188,0.297191,0.371298,-0.069924,45,268,572,4656
1644154838.999817,-0.01178,0.00824,-0.991882,0.312458,0.523969,-0.14626,49,280,565,4784
1644154839.06673,-0.011963,0.006897,-0.993408,0.220855,0.386565,-0.069924,47,273,577,4720
1644154839.096586,-0.013123,0.00769,-0.992676,0.342992,0.432366,-0.100458,47,265,572,4656
1644154839.145012,-0.013062,0.006348,-0.997864,0.190321,0.569771,-0.161527,53,274,571,4608
1644154839.193331,-0.00946,0.010742,-0.991211,0.175053,0.325496,-0.14626,43,274,576,4720
1644154839.241723,-0.01239,0.010132,-0.992554,0.236122,0.462901,-0.024122,45,273,570,4704
1644154839.290391,-0.011902,0.008423,-0.993652,0.129252,0.432366,-0.237863,45,265,565,4672
1644154839.340707,-0.014526,0.008789,-0.992676,0.129252,0.478168,-0.192061,48,276,566,4704
1644154839.435407,-0.010498,0.010864,-0.995178,0.236122,0.462901,-0.25313,55,264,562,4672
1644154839.483659,-0.01001,0.00946,-0.992798,0.205588,0.539237,-0.039389,49,277,570,4672
1644154839.532034,-0.011658,0.006958,-0.98877,0.342992,0.264427,-0.161527,47,265,565,4768
1644154839.580431,-0.009644,0.008545,-0.991333,0.190321,0.386565,-0.100458,46,274,573,4672
1644154839.628829,-0.010376,0.005981,-0.992371,0.342992,0.569771,0.036947,34,264,566,4720
1644154839.677221,-0.010986,0.009033,-0.994446,0.312458,0.279695,-0.085191,51,276,576,4704
1644154839.725588,-0.012512,0.009766,-0.994568,0.266656,0.386565,-0.192061,53,274,562,4704
1644154839.773975,-0.012878,0.008728,-0.993591,0.251389,0.432366,-0.14626,53,276,564,4704
1644154839.822452,-0.013062,0.00769,-0.992188,0.35826,0.310229,-0.14626,35,275,561,4720
1644154839.87081,-0.015564,0.007874,-0.993164,0.251389,0.371298,-0.069924,49,270,568,4672
1644154839.919186,-0.013977,0.008789,-0.992371,0.281924,0.417099,-0.039389,35,275,572,4784
1644154839.96758,-0.013428,0.008911,-0.992065,0.35826,0.432366,-0.115725,49,270,570,4656
1644154840.01594,-0.01123,0.009338,-0.992126,0.327725,0.401832,-0.283664,51,266,564,4672
1644154840.07202,-0.012878,0.010559,-0.993774,0.007115,0.539237,-0.085191,40,263,568,4672
1644154840.11271,-0.012634,0.008179,-0.992859,0.35826,0.462901,-0.085191,52,268,563,4640
1644154840.161074,-0.01062,0.008545,-0.992798,0.312458,0.386565,-0.192061,45,268,572,4784
1644154840.209474,-0.015259,0.007568,-0.991638,0.281924,0.432366,-0.192061,52,275,572,4784
1644154840.257805,-0.012085,0.009888,-0.990967,0.342992,0.447634,-0.100458,53,266,571,4784
1644154840.306222,-0.011353,0.009949,-0.994446,0.388794,0.294962,-0.069924,47,263,572,4672
1644154840.354681,-0.010071,0.006775,-0.993042,0.098718,0.356031,-0.069924,52,268,570,4672
1644154840.403018,-0.008728,0.008423,-0.991028,0.312458,0.279695,-0.054656,49,268,563,4720
1644154840.452744,-0.011719,0.007568,-0.993774,0.312458,0.340763,-0.192061,54,273,572,4656
1644154840.500484,-0.010315,0.004333,-0.991394,0.312458,0.264427,-0.130992,49,273,568,4672
1644154840.596552,-0.010986,0.009827,-0.990479,0.251389,0.432366,-0.039389,54,273,563,4656
1644154840.64501,-0.010742,0.007935,-0.994385,0.297191,0.493435,0.036947,49,273,570,4672
1644154840.693294,-0.009033,0.009766,-0.98999,0.327725,0.417099,-0.207328,54,268,570,4720
1644154840.74169,-0.010681,0.009277,-0.992004,0.144519,0.325496,-0.25313,52,268,579,4720
1644154840.790116,-0.010498,0.007629,-0.991882,0.327725,0.493435,-0.115725,48,269,557,4704
1644154840.838553,-0.01001,0.009338,-0.991821,0.342992,0.523969,0.036947,46,276,573,4720
1644154840.886899,-0.013794,0.008545,-0.991882,0.068183,0.340763,-0.130992,40,265,568,4672
1644154840.935285,-0.013184,0.008911,-0.992371,0.205588,0.371298,-0.024122,46,266,566,4704
1644154840.983692,-0.011292,0.011108,-0.991333,0.266656,0.310229,-0.115725,53,266,569,4720
1644154841.032077,-0.010681,0.008606,-0.990601,0.175053,0.294962,-0.237863,51,269,569,4672
1644154841.084938,-0.009644,0.007202,-0.991821,0.220855,0.447634,-0.192061,43,269,580,4704
1644154841.128852,-0.013184,0.006104,-0.994263,0.342992,0.462901,-0.100458,42,280,565,4672
1644154841.177244,-0.010315,0.007446,-0.994751,0.281924,0.432366,-0.130992,52,270,561,4608
1644154841.225646,-0.01001,0.009644,-0.992615,0.342992,0.508702,-0.054656,47,275,570,4672
1644154841.273986,-0.011047,0.009094,-0.991333,0.297191,0.386565,-0.207328,39,271,569,4640
1644154841.322401,-0.010498,0.00946,-0.991516,0.312458,0.432366,-0.115725,49,270,575,4640
1644154841.371162,-0.008545,0.008789,-0.990479,0.159786,0.539237,-0.192061,43,269,571,4720
1644154841.421353,-0.011047,0.009521,-0.992188,0.220855,0.554504,-0.14626,48,274,566,4704
1644154841.468745,-0.01001,0.00769,-0.992188,0.297191,0.371298,-0.054656,49,273,570,4640
1644154841.564323,-0.01123,0.009216,-0.991272,0.190321,0.539237,-0.115725,59,275,572,4672
1644154841.612725,-0.011841,0.007446,-0.989929,0.175053,0.340763,-0.069924,54,275,575,4704
1644154841.661085,-0.008057,0.008362,-0.99292,0.190321,0.401832,0.052214,45,277,563,4672
1644154841.709479,-0.014221,0.006775,-0.991272,0.297191,0.310229,-0.237863,58,276,566,4672
1644154841.757826,-0.01239,0.007874,-0.991821,0.220855,0.356031,0.036947,51,276,562,4672
1644154841.80626,-0.013062,0.006226,-0.994019,0.297191,0.401832,-0.130992,47,273,563,4720
1644154841.854679,-0.012329,0.009399,-0.993347,0.251389,0.447634,-0.039389,43,281,573,4656
1644154841.903034,-0.011292,0.006531,-0.992126,0.220855,0.417099,-0.085191,52,270,561,4656
1644154841.95138,-0.011353,0.008972,-0.991272,0.266656,0.294962,-0.161527,47,282,565,4672
1644154841.999796,-0.012695,0.009155,-0.991211,0.159786,0.523969,-0.100458,53,269,566,4672
1644154842.065676,-0.01532,0.008911,-0.996887,0.205588,0.447634,-0.024122,53,269,564,4784
1644154842.096559,-0.01239,0.009033,-0.992981,0.312458,0.539237,-0.192061,45,263,572,4672
1644154842.144992,-0.01123,0.009644,-0.992493,0.266656,0.539237,-0.054656,46,271,562,4656
1644154842.193319,-0.012817,0.010132,-0.993591,0.220855,0.523969,-0.054656,46,266,578,4608
1644154842.241714,-0.012207,0.010376,-0.992188,0.327725,0.386565,-0.314198,47,273,568,4672
1644154842.29009,-0.010193,0.009583,-0.992432,0.236122,0.600305,-0.130992,51,276,571,4768
1644154842.338445,-0.012634,0.010498,-0.992554,0.251389,0.340763,-0.192061,55,266,562,4656
1644154842.386851,-0.013245,0.006592,-0.991577,0.281924,0.401832,-0.161527,45,265,572,4704
1644154842.435243,-0.01416,0.00708,-0.992432,0.175053,0.508702,0.021679,42,280,572,4672
1644154842.483613,-0.010071,0.006348,-0.990051,0.35826,0.478168,-0.207328,48,269,576,4672
1644154842.532015,-0.011719,0.008972,-0.991821,0.35826,0.371298,0.052214,49,285,565,4720
1644154842.581909,-0.012146,0.008423,-0.992371,0.388794,0.386565,-0.283664,47,275,570,4704
1644154842.629575,-0.011414,0.010315,-0.989746,0.220855,0.432366,-0.237863,48,269,580,4672
1644154842.725534,-0.012817,0.006104,-0.993042,0.175053,0.310229,-0.237863,42,270,570,4656
1644154842.773926,-0.010437,0.008911,-0.993164,0.205588,0.356031,0.036947,45,275,568,4656
1644154842.822326,-0.011963,0.010254,-0.991394,0.266656,0.371298,-0.14626,52,275,570,4720
1644154842.87073,-0.01178,0.008423,-0.991882,0.220855,0.432366,-0.130992,45,275,568,4704
1644154842.919113,-0.009583,0.01001,-0.99054,0.236122,0.447634,-0.14626,46,281,578,4672
1644154842.967535,-0.011292,0.012024,-0.990967,0.190321,0.172824,-0.054656,49,277,577,4704
1644154843.015914,-0.015076,0.010803,-0.993103,0.220855,0.462901,-0.192061,49,280,568,4672
1644154843.064747,-0.014099,0.009949,-0.991394,0.35826,0.462901,0.036947,48,276,576,4672
1644154843.11271,-0.01062,0.007935,-0.992493,0.266656,0.294962,-0.069924,55,274,566,4656
1644154843.161052,-0.007202,0.009216,-0.992004,0.190321,0.356031,0.052214,53,276,566,4656
1644154843.209385,-0.008118,0.009216,-0.993042,0.251389,0.340763,0.006412,45,277,558,4672
1644154843.257795,-0.009399,0.007324,-0.992432,0.297191,0.615573,-0.14626,39,269,571,4704
1644154843.306186,-0.006531,0.007812,-0.99176,0.236122,0.417099,0.067481,49,282,575,4672
1644154843.354803,-0.00885,0.009949,-0.991211,0.098718,0.325496,-0.054656,51,276,566,4608
1644154843.402986,-0.013306,0.010071,-0.990479,0.205588,0.417099,-0.161527,41,271,580,4704
1644154843.451359,-0.014526,0.009644,-0.993652,0.129252,0.523969,-0.222595,46,281,576,4656
1644154843.499727,-0.01239,0.011353,-0.98999,0.052916,0.432366,-0.115725,54,282,577,4672
1644154843.548135,-0.011169,0.006287,-0.993347,0.220855,0.569771,-0.100458,47,265,570,4656
1644154843.59648,-0.012878,0.011292,-0.989136,0.144519,0.539237,-0.069924,51,274,573,4672
1644154843.64488,-0.010315,0.010681,-0.992004,0.113985,0.401832,-0.130992,49,280,568,4768
1644154843.693283,-0.012451,0.01062,-0.991821,0.129252,0.371298,-0.14626,46,271,571,4672
1644154843.743213,-0.010742,0.007751,-0.992981,0.190321,0.386565,-0.085191,55,276,564,4672
1644154843.790869,-0.012146,0.00885,-0.991638,0.266656,0.386565,-0.085191,58,274,566,4608
1644154843.886857,-0.011536,0.007507,-0.99231,0.129252,0.401832,0.052214,49,275,577,4656
1644154843.935249,-0.011414,0.013062,-0.992798,0.251389,0.523969,-0.100458,45,273,575,4784
1644154843.983634,-0.010132,0.010071,-0.992554,0.266656,0.401832,-0.161527,52,263,577,4672
1644154844.032022,-0.012512,0.008728,-0.992676,0.236122,0.539237,-0.008855,42,270,575,4720
1644154844.080458,-0.011169,0.008606,-0.992554,0.190321,0.432366,-0.115725,49,280,568,4704
1644154844.128816,-0.010071,0.010132,-0.991394,0.098718,0.340763,-0.130992,48,274,578,4704
1644154844.177164,-0.012268,0.009399,-0.99408,0.266656,0.508702,-0.100458,46,271,569,4672
1644154844.225535,-0.012268,0.010559,-0.99231,0.251389,0.432366,-0.115725,53,271,571,4720
1644154844.273891,-0.011719,0.008606,-0.992676,0.236122,0.600305,-0.024122,58,266,576,4704
1644154844.322306,-0.010376,0.010254,-0.99176,0.373527,0.493435,-0.054656,45,270,568,4656
1644154844.370703,-0.013489,0.007629,-0.993652,0.236122,0.478168,-0.25313,59,277,563,4720
1644154844.419097,-0.012329,0.005493,-0.993469,0.388794,0.386565,-0.069924,42,282,572,4592
1644154844.467435,-0.013062,0.007874,-0.994446,0.175053,0.386565,-0.085191,48,271,569,4672
1644154844.515841,-0.013184,0.009644,-0.992004,0.205588,0.340763,-0.100458,51,276,564,4672
1644154844.564259,-0.010681,0.009338,-0.99292,0.236122,0.401832,-0.222595,54,268,575,4672
1644154844.612629,-0.011169,0.00769,-0.993652,0.297191,0.523969,-0.14626,45,273,575,4768
1644154844.661023,-0.013062,0.007996,-0.992004,0.251389,0.386565,-0.222595,51,276,576,4704
1644154844.709382,-0.012451,0.008606,-0.99054,0.220855,0.401832,-0.100458,47,270,565,4672
1644154844.757771,-0.012085,0.009155,-0.990784,0.35826,0.478168,-0.085191,42,273,579,4784
1644154844.806173,-0.012756,0.012146,-0.994385,0.266656,0.432366,-0.130992,49,280,568,4672
1644154844.854552,-0.014038,0.007263,-0.994019,0.327725,0.508702,0.021679,47,265,577,4656
1644154844.905077,-0.009338,0.00885,-0.991028,0.08345,0.432366,0.052214,48,266,562,4672
1644154844.9525,-0.012451,0.009338,-0.993347,0.251389,0.310229,-0.100458,49,270,565,4672
1644154845.06589,-0.011475,0.009766,-0.994568,0.220855,0.523969,-0.039389,46,274,576,4720
1644154845.09648,-0.014465,0.01001,-0.992371,0.434595,0.462901,-0.008855,40,263,577,4640
1644154845.144932,-0.012146,0.007324,-0.993286,0.342992,0.356031,-0.085191,54,282,568,4768
1644154845.193318,-0.013,0.009399,-0.990845,0.35826,0.386565,-0.054656,47,273,575,4672
1644154845.241704,-0.012329,0.010315,-0.992432,0.236122,0.432366,-0.237863,43,262,559,4816
1644154845.290084,-0.014404,0.009583,-0.991333,0.266656,0.523969,-0.115725,45,280,565,4672
1644154845.338469,-0.010925,0.007629,-0.990417,0.190321,0.493435,-0.192061,57,273,570,4720
1644154845.386861,-0.010193,0.006348,-0.992371,0.175053,0.523969,-0.207328,47,277,582,4672
1644154845.435405,-0.010559,0.009949,-0.990479,0.175053,0.447634,0.006412,46,271,573,4672
1644154845.483612,-0.012329,0.006836,-0.98938,0.205588,0.493435,-0.115725,45,275,582,4720
1644154845.53199,-0.01062,0.010437,-0.991699,0.266656,0.401832,-0.161527,48,269,571,4768
1644154845.580944,-0.010864,0.009338,-0.991272,0.251389,0.462901,-0.115725,48,274,569,4720
1644154845.631253,-0.013,0.010742,-0.991394,0.404061,0.447634,-0.069924,43,274,566,4704
1644154845.679064,-0.009705,0.008911,-0.992737,0.037649,0.264427,-0.222595,43,274,566,4768
1644154845.773922,-0.010254,0.010559,-0.993042,0.220855,0.401832,0.082748,51,276,571,4704
1644154845.822305,-0.012756,0.008728,-0.990967,0.205588,0.432366,-0.222595,46,269,569,4816
1644154845.870694,-0.010925,0.008972,-0.990295,0.205588,0.310229,-0.069924,39,281,566,4704
1644154845.919094,-0.01239,0.009644,-0.991882,0.312458,0.478168,-0.161527,52,270,565,4656
1644154845.96747,-0.011353,0.008423,-0.992737,0.266656,0.340763,0.036947,49,268,565,4704
1644154846.015852,-0.012329,0.007263,-0.991943,0.220855,0.264427,-0.024122,47,270,575,4816
1644154846.065903,-0.011353,0.010437,-0.993103,0.35826,0.371298,-0.192061,49,277,572,4656
1644154846.112681,-0.011414,0.007751,-0.992615,0.266656,0.462901,-0.039389,51,269,559,4672
1644154846.161012,-0.008057,0.008484,-0.993958,0.159786,0.294962,-0.069924,47,285,568,4656
1644154846.20943,-0.012207,0.010376,-0.992859,0.220855,0.417099,-0.161527,49,270,570,4656
1644154846.257794,-0.010254,0.005432,-0.992737,0.281924,0.417099,-0.14626,46,266,576,4672
1644154846.306168,-0.011841,0.008728,-0.993347,0.373527,0.478168,-0.237863,51,269,576,4720
1644154846.354749,-0.01062,0.009949,-0.990112,0.236122,0.539237,-0.222595,41,266,573,4656
1644154846.402986,-0.010376,0.010559,-0.991272,0.266656,0.401832,0.006412,38,270,568,4768
1644154846.451357,-0.012024,0.007019,-0.993347,0.205588,0.356031,-0.100458,53,264,569,4672
1644154846.499719,-0.011536,0.009094,-0.99176,0.220855,0.63084,-0.161527,52,277,563,4608
1644154846.548135,-0.011047,0.007751,-0.993286,0.251389,0.386565,-0.054656,49,273,575,4672
1644154846.596525,-0.013306,0.009216,-0.993103,0.190321,0.310229,-0.14626,52,270,577,4672
1644154846.644877,-0.012207,0.006165,-0.991699,0.281924,0.432366,-0.100458,49,275,575,4672
1644154846.693279,-0.011841,0.007202,-0.993164,0.281924,0.493435,-0.14626,38,265,570,4672
1644154846.742247,-0.008789,0.007507,-0.993286,0.236122,0.417099,-0.054656,48,269,566,4768
1644154846.792455,-0.010437,0.010925,-0.991455,0.190321,0.386565,-0.192061,51,276,573,4672
1644154846.840019,-0.009094,0.007202,-0.990173,0.220855,0.310229,-0.100458,48,269,573,4720
1644154846.935219,-0.010559,0.009216,-0.988464,0.236122,0.417099,0.006412,51,274,562,4768
1644154846.983614,-0.012817,0.008362,-0.994629,0.281924,0.188092,-0.283664,58,286,562,4768
1644154847.031971,-0.012085,0.008362,-0.990601,0.327725,0.478168,-0.100458,47,270,565,4672
1644154847.081351,-0.014343,0.009399,-0.992065,0.35826,0.386565,-0.085191,53,266,571,4592
1644154847.128706,-0.010803,0.010071,-0.992126,0.190321,0.462901,-0.192061,48,281,569,4672
1644154847.177101,-0.00946,0.009338,-0.990906,0.236122,0.417099,-0.039389,33,275,568,4720
1644154847.225481,-0.014648,0.008179,-0.990967,0.251389,0.462901,0.036947,52,270,572,4704
1644154847.273866,-0.013,0.010986,-0.992249,0.08345,0.478168,0.143817,48,271,559,4784
1644154847.322284,-0.012207,0.01239,-0.994385,0.220855,0.386565,-0.222595,48,279,564,4672
1644154847.370645,-0.011658,0.009827,-0.990906,0.190321,0.508702,0.006412,54,280,577,4784
1644154847.419015,-0.008179,0.010681,-0.995605,0.342992,0.386565,-0.008855,57,270,586,4784
1644154847.467448,-0.01062,0.010498,-0.993286,0.281924,0.539237,-0.176794,45,277,570,4768
1644154847.515775,-0.009827,0.010071,-0.994019,0.266656,0.356031,-0.039389,54,273,577,4720
1644154847.564178,-0.010132,0.007629,-0.994263,0.236122,0.462901,0.052214,54,270,568,4672
1644154847.612605,-0.011963,0.009277,-0.992371,0.373527,0.493435,-0.039389,54,275,584,4672
1644154847.660956,-0.011108,0.007507,-0.994873,0.266656,0.478168,-0.024122,51,269,583,4656
1644154847.709357,-0.011475,0.007935,-0.989563,0.266656,0.356031,-0.069924,51,271,580,4672
1644154847.757705,-0.014465,0.010132,-0.994995,0.342992,0.646107,-0.008855,58,276,569,4720
1644154847.806375,-0.014832,0.007629,-0.99408,0.220855,0.432366,-0.024122,47,270,584,4672
1644154847.854555,-0.01355,0.00708,-0.992798,0.098718,0.432366,-0.039389,51,269,573,4768
1644154847.902948,-0.012817,0.008667,-0.994263,0.35826,0.478168,-0.008855,39,281,576,4768
1644154847.953271,-0.011841,0.009949,-0.99176,0.342992,0.325496,-0.069924,46,276,566,4720
1644154848.000829,-0.011597,0.008362,-0.991272,0.266656,0.462901,-0.039389,55,271,569,4720
1644154848.09645,-0.013367,0.008789,-0.992126,0.068183,0.478168,-0.024122,49,265,575,4672
1644154848.144826,-0.012451,0.005737,-0.993408,0.312458,0.386565,-0.207328,47,280,572,4768
1644154848.19321,-0.011658,0.005066,-0.993713,0.266656,0.447634,-0.008855,53,269,569,4720
1644154848.241558,-0.011597,0.006531,-0.992859,0.266656,0.462901,-0.130992,47,275,570,4704
1644154848.290046,-0.011108,0.01123,-0.991028,0.297191,0.447634,-0.100458,36,271,573,4784
1644154848.338398,-0.010559,0.009094,-0.991516,0.327725,0.386565,-0.100458,52,270,572,4672
1644154848.386786,-0.011169,0.009338,-0.993774,0.236122,0.478168,-0.207328,54,268,570,4656
1644154848.435193,-0.011353,0.008789,-0.992615,0.251389,0.356031,-0.054656,51,274,566,4672
1644154848.483518,-0.011597,0.008606,-0.99292,0.373527,0.417099,-0.039389,47,273,577,4720
1644154848.531935,-0.011353,0.008606,-0.992493,0.129252,0.508702,0.006412,43,266,566,4768
1644154848.580294,-0.012695,0.009155,-0.993469,0.129252,0.478168,-0.176794,58,271,569,4672
1644154848.628715,-0.010376,0.010132,-0.991638,0.327725,0.371298,-0.085191,49,277,572,4784
1644154848.677058,-0.008667,0.00885,-0.992798,0.251389,0.294962,-0.130992,46,266,578,4656
1644154848.725458,-0.010132,0.009155,-0.991089,0.281924,0.371298,-0.176794,48,276,576,4704
1644154848.773871,-0.010132,0.009338,-0.993103,0.35826,0.508702,0.021679,51,279,573,4656
1644154848.822277,-0.01123,0.009949,-0.991821,0.312458,0.462901,0.036947,53,276,571,4720
1644154848.87066,-0.013794,0.005737,-0.993103,0.388794,0.523969,-0.024122,57,285,582,4704
1644154848.919022,-0.013062,0.00885,-0.992798,0.281924,0.523969,-0.161527,46,266,583,4720
1644154848.967428,-0.013428,0.009888,-0.990723,0.129252,0.508702,0.052214,55,283,576,4672
1644154849.015789,-0.011108,0.007263,-0.991577,0.35826,0.371298,-0.14626,45,268,565,4608
1644154849.112652,-0.010681,0.007751,-0.993347,0.419328,0.386565,-0.024122,45,273,582,4656
1644154849.160982,-0.014771,0.009888,-0.992554,0.236122,0.401832,-0.069924,54,268,568,4672
1644154849.209359,-0.013184,0.009094,-0.991272,0.312458,0.493435,-0.14626,45,277,575,4656
1644154849.257728,-0.013,0.009094,-0.991638,0.373527,0.356031,-0.085191,49,282,577,4784
1644154849.306103,-0.012634,0.007202,-0.993103,0.144519,0.585038,-0.024122,52,273,577,4656
1644154849.354545,-0.007568,0.008301,-0.994934,0.266656,0.417099,-0.14626,49,270,572,4672
1644154849.402962,-0.01416,0.007324,-0.99231,0.159786,0.279695,-0.039389,53,291,566,4672
1644154849.451298,-0.009949,0.009766,-0.989563,0.297191,0.523969,-0.192061,47,275,563,4704
1644154849.499672,-0.011475,0.008362,-0.991333,0.266656,0.340763,-0.14626,51,281,571,4704
1644154849.548101,-0.009766,0.010681,-0.99054,0.266656,0.371298,-0.069924,46,274,571,4672
1644154849.596444,-0.010498,0.011902,-0.994202,0.297191,0.447634,-0.176794,46,271,564,4608
1644154849.644875,-0.011658,0.008728,-0.992554,0.190321,0.523969,-0.069924,51,266,569,4672
1644154849.693262,-0.012695,0.010193,-0.992859,0.220855,0.508702,-0.085191,49,268,561,4672
1644154849.741638,-0.012756,0.01001,-0.992676,0.342992,0.478168,-0.069924,47,265,575,4784
1644154849.79003,-0.012695,0.007812,-0.992798,0.129252,0.447634,-0.161527,47,273,570,4720
1644154849.838366,-0.010925,0.008484,-0.990051,0.129252,0.508702,0.052214,54,268,584,4704
1644154849.88681,-0.012695,0.009216,-0.994385,0.205588,0.447634,-0.054656,55,269,580,4704
1644154849.935229,-0.013245,0.00885,-0.996155,0.312458,0.493435,-0.14626,57,280,565,4672
1644154849.98357,-0.012695,0.006287,-0.992676,0.35826,0.493435,0.006412,41,274,562,4656
1644154850.031932,-0.00592,0.009399,-0.993042,0.144519,0.447634,-0.115725,49,268,558,4656
1644154850.082219,-0.013855,0.01062,-0.990417,0.281924,0.508702,-0.039389,41,281,573,4768
1644154850.131493,-0.015198,0.009949,-0.989807,0.266656,0.447634,-0.069924,52,270,563,4672
1644154850.178168,-0.013245,0.007202,-0.993713,0.236122,0.417099,-0.14626,47,270,570,4784
1644154850.273827,-0.011719,0.008362,-0.991516,0.220855,0.386565,-0.008855,48,281,571,4672
1644154850.322215,-0.009277,0.007996,-0.995178,0.266656,0.432366,-0.161527,43,264,564,4656
1644154850.370581,-0.012146,0.005737,-0.99408,0.144519,0.447634,-0.085191,41,269,569,4608
1644154850.418992,-0.008789,0.008362,-0.992065,0.373527,0.310229,-0.25313,46,274,566,4656
1644154850.467396,-0.01178,0.010071,-0.990234,0.35826,0.386565,-0.130992,40,280,570,4672
1644154850.515746,-0.014038,0.008972,-0.992188,0.068183,0.478168,-0.069924,49,277,568,4720
1644154850.564118,-0.014648,0.009216,-0.992676,0.190321,0.203359,-0.100458,46,269,564,4656
1644154850.612533,-0.01239,0.010132,-0.99231,0.205588,0.310229,-0.130992,48,274,573,4672
1644154850.660889,-0.010559,0.007996,-0.993408,0.175053,0.371298,-0.024122,43,264,571,4656
1644154850.709326,-0.012024,0.008484,-0.99115,0.35826,0.401832,-0.085191,51,271,562,4784
1644154850.757673,-0.012268,0.010925,-0.993286,0.312458,0.539237,-0.100458,43,271,573,4640
1644154850.806108,-0.012268,0.010071,-0.991089,0.190321,0.447634,-0.115725,48,276,571,4704
1644154850.854507,-0.011658,0.007874,-0.992493,0.175053,0.386565,-0.069924,53,271,576,4720
1644154850.902929,-0.011536,0.01062,-0.993896,0.236122,0.447634,-0.237863,51,269,569,4720
1644154850.951298,-0.011719,0.00708,-0.990479,0.129252,0.401832,-0.069924,47,273,565,4784
1644154850.999683,-0.013123,0.01001,-0.990234,0.342992,0.569771,0.052214,51,274,576,4608
1644154851.059672,-0.012878,0.009155,-0.991272,0.220855,0.356031,-0.176794,51,281,571,4656
1644154851.09646,-0.010986,0.010071,-0.990295,0.220855,0.508702,-0.024122,53,274,573,4656
1644154851.144792,-0.01123,0.009705,-0.992371,0.312458,0.401832,-0.222595,58,271,569,4672
1644154851.193187,-0.013123,0.010864,-0.992065,0.251389,0.432366,-0.024122,48,279,573,4576
1644154851.241553,-0.012878,0.009216,-0.99115,0.236122,0.493435,-0.024122,48,271,566,4672
1644154851.291054,-0.009766,0.008423,-0.991089,0.251389,0.432366,0.036947,48,274,578,4720
1644154851.338571,-0.010681,0.009155,-0.991638,0.373527,0.508702,0.006412,48,269,566,4768
1644154851.435183,-0.01123,0.008606,-0.991882,0.205588,0.386565,-0.115725,47,268,575,4720
1644154851.483507,-0.012817,0.00769,-0.992188,0.098718,0.478168,-0.130992,53,269,562,4784
1644154851.531864,-0.012695,0.009521,-0.993408,0.342992,0.417099,0.082748,46,271,566,4656
1644154851.580266,-0.008301,0.010376,-0.98822,0.281924,0.401832,0.036947,49,275,570,4672
1644154851.628616,-0.012146,0.008423,-0.993103,0.190321,0.539237,-0.130992,48,262,571,4672
1644154851.676975,-0.013428,0.009338,-0.994019,0.327725,0.615573,-0.100458,47,273,565,4640
1644154851.725424,-0.013428,0.010193,-0.994263,0.144519,0.294962,-0.085191,46,271,564,4704
1644154851.7738,-0.011902,0.007568,-0.991882,0.526198,0.478168,-0.237863,53,266,569,4656
1644154851.822181,-0.012878,0.007263,-0.990356,0.236122,0.371298,-0.024122,51,266,576,4720
1644154851.870648,-0.011963,0.005798,-0.993103,0.113985,0.401832,-0.085191,48,269,566,4720
1644154851.918982,-0.010986,0.007507,-0.990479,0.297191,0.462901,-0.054656,53,281,566,4720
1644154851.967425,-0.011658,0.008484,-0.989136,0.236122,0.401832,-0.115725,51,259,569,4672
1644154852.015766,-0.01001,0.007324,-0.994324,0.35826,0.462901,-0.130992,54,270,579,4672
1644154852.068308,-0.013,0.009766,-0.993774,0.205588,0.508702,0.098015,49,273,575,4672
1644154852.112573,-0.011292,0.009644,-0.992676,0.129252,0.371298,-0.100458,47,265,570,4784
1644154852.160907,-0.012573,0.006958,-0.991516,0.236122,0.24916,-0.054656,40,273,577,4672
1644154852.209305,-0.011047,0.010071,-0.993042,0.434595,0.417099,-0.085191,43,271,559,4672
1644154852.257669,-0.014221,0.008301,-0.991577,0.342992,0.264427,-0.161527,45,277,572,4592
1644154852.306049,-0.008911,0.009766,-0.991943,0.251389,0.310229,0.036947,42,273,570,4672
1644154852.35445,-0.013367,0.008484,-0.991577,0.159786,0.447634,0.036947,43,279,569,4720
1644154852.402849,-0.011902,0.005005,-0.995178,0.266656,0.264427,0.067481,61,268,577,4720
1644154852.452669,-0.011841,0.00946,-0.992065,0.205588,0.493435,-0.054656,47,270,568,4720
1644154852.500358,-0.012329,0.010803,-0.991577,0.098718,0.493435,-0.039389,40,275,563,4672
1644154852.596381,-0.013,0.007568,-0.991943,0.08345,0.371298,-0.085191,47,277,570,4672
1644154852.644747,-0.013794,0.008057,-0.992615,0.266656,0.356031,-0.069924,46,276,573,4672
1644154852.693139,-0.011414,0.00531,-0.994507,0.404061,0.371298,-0.237863,51,269,562,4784
1644154852.741523,-0.012878,0.012024,-0.989807,0.297191,0.386565,-0.207328,46,264,566,4720
1644154852.789922,-0.012207,0.011047,-0.989136,0.266656,0.401832,-0.222595,45,270,561,4672
1644154852.838331,-0.013184,0.007812,-0.992493,0.205588,0.523969,-0.008855,43,259,573,4656
1644154852.886721,-0.011292,0.007935,-0.991211,0.266656,0.417099,-0.039389,41,271,573,4656
1644154852.935202,-0.009705,0.007385,-0.992004,0.236122,0.325496,-0.039389,42,280,563,4576
1644154852.983514,-0.011169,0.009766,-0.98938,0.205588,0.462901,-0.161527,48,279,564,4672
1644154853.03189,-0.010376,0.010681,-0.992798,0.327725,0.569771,-0.192061,41,271,566,4672
1644154853.082837,-0.013306,0.008667,-0.993408,0.281924,0.325496,-0.283664,47,273,577,4768
1644154853.12867,-0.012329,0.006836,-0.993713,0.266656,0.63084,-0.176794,42,273,570,4672
1644154853.177078,-0.009338,0.010132,-0.993469,0.205588,0.356031,-0.115725,42,275,572,4672
1644154853.225459,-0.011841,0.006226,-0.991638,0.342992,0.386565,-0.115725,49,268,582,4720
1644154853.273803,-0.012573,0.007141,-0.992615,0.434595,0.447634,-0.069924,52,282,563,4720
1644154853.322229,-0.013,0.008362,-0.992676,0.220855,0.508702,-0.069924,39,264,573,4672
1644154853.370596,-0.013489,0.009766,-0.992371,0.297191,0.340763,-0.192061,45,268,558,4784
1644154853.420331,-0.013428,0.009949,-0.992249,0.281924,0.447634,-0.115725,45,277,579,4672
1644154853.467993,-0.011963,0.007324,-0.990967,0.342992,0.615573,0.021679,38,268,575,4704
1644154853.564178,-0.009033,0.012024,-0.992249,0.205588,0.554504,-0.100458,52,275,572,4672
1644154853.612541,-0.011414,0.009949,-0.99292,0.327725,0.386565,-0.085191,48,271,571,4816
1644154853.660924,-0.012451,0.007263,-0.991028,0.190321,0.417099,0.006412,45,273,565,4656
1644154853.709257,-0.011414,0.011597,-0.990051,0.404061,0.493435,-0.192061,47,277,565,4720
1644154853.757642,-0.010742,0.008606,-0.993591,0.312458,0.462901,-0.024122,61,275,572,4720
1644154853.806064,-0.010925,0.005676,-0.99408,0.342992,0.432366,-0.115725,45,270,577,4656
1644154853.854495,-0.011475,0.008362,-0.990173,0.251389,0.462901,-0.008855,42,280,556,4704
1644154853.902893,-0.014771,0.009094,-0.991638,0.281924,0.386565,-0.100458,49,270,568,4720
1644154853.951257,-0.012085,0.010254,-0.990234,0.342992,0.325496,-0.207328,48,274,573,4672
1644154853.999572,-0.012512,0.008118,-0.993469,0.159786,0.371298,0.021679,49,265,563,4672
1644154854.065185,-0.014587,0.008789,-0.995422,0.266656,0.294962,-0.207328,48,279,566,4720
1644154854.096371,-0.01123,0.010498,-0.993652,0.342992,0.462901,-0.085191,49,280,565,4720
1644154854.144812,-0.01001,0.011108,-0.994324,0.159786,0.417099,-0.100458,43,283,566,4768
1644154854.193169,-0.010559,0.006714,-0.992859,0.129252,0.386565,-0.054656,48,274,573,4656
1644154854.241578,-0.013245,0.007996,-0.989563,0.144519,0.218626,-0.039389,41,274,569,4608
1644154854.289946,-0.009155,0.008118,-0.993591,0.251389,0.432366,-0.054656,43,271,573,4704
1644154854.338301,-0.01001,0.008423,-0.993652,0.129252,0.371298,-0.039389,38,273,572,4672
1644154854.386729,-0.011292,0.008179,-0.993591,0.251389,0.386565,-0.039389,49,277,570,4768
1644154854.435161,-0.011047,0.009277,-0.990479,0.297191,0.417099,-0.222595,60,269,566,4672
1644154854.483472,-0.011169,0.005676,-0.992798,0.342992,0.478168,-0.130992,43,274,573,4704
1644154854.532551,-0.013672,0.010681,-0.991272,0.35826,0.371298,-0.222595,52,265,570,4672
1644154854.58281,-0.010376,0.01062,-0.992188,0.190321,0.462901,-0.161527,45,270,575,4672
1644154854.677074,-0.014587,0.006836,-0.991211,0.281924,0.386565,-0.100458,42,273,565,4656
1644154854.725404,-0.010559,0.00946,-0.991516,0.266656,0.218626,-0.115725,53,276,569,4656
1644154854.773795,-0.010742,0.00946,-0.99176,0.236122,0.478168,0.067481,49,273,563,4672
1644154854.822216,-0.013794,0.009399,-0.991028,0.175053,0.493435,-0.222595,41,264,562,4608
1644154854.870607,-0.013672,0.011047,-0.991272,0.113985,0.401832,-0.130992,43,271,573,4768
1644154854.919002,-0.013428,0.009583,-0.993469,0.08345,0.386565,-0.161527,55,264,559,4656
1644154854.967324,-0.010864,0.008423,-0.993103,0.190321,0.493435,-0.298931,45,268,568,4768
1644154855.015735,-0.014343,0.009216,-0.993652,0.159786,0.417099,-0.069924,59,275,579,4720
1644154855.065809,-0.012207,0.004578,-0.992249,0.175053,0.356031,-0.100458,47,265,572,4672
1644154855.112508,-0.011353,0.00946,-0.993713,0.175053,0.569771,-0.085191,53,269,569,4608
1644154855.160879,-0.010925,0.01123,-0.992371,0.220855,0.401832,0.021679,55,274,562,4704
1644154855.209229,-0.009155,0.009827,-0.991211,0.297191,0.447634,0.052214,42,280,568,4672
1644154855.257625,-0.014954,0.007141,-0.995972,0.35826,0.386565,-0.192061,51,271,571,4784
1644154855.305998,-0.01178,0.009338,-0.989685,0.190321,0.340763,-0.192061,53,266,576,4704
1644154855.354422,-0.011475,0.006042,-0.990356,0.251389,0.356031,-0.130992,59,277,565,4672
1644154855.402821,-0.01355,0.010559,-0.990662,0.281924,0.386565,-0.130992,43,274,573,4656
1644154855.451198,-0.00885,0.008118,-0.994385,0.205588,0.585038,-0.192061,47,265,572,4672
1644154855.499558,-0.010986,0.007019,-0.991455,0.297191,0.432366,-0.130992,49,275,570,4672
1644154855.547959,-0.008362,0.008301,-0.993042,0.266656,0.523969,0.006412,53,269,576,4656
1644154855.596308,-0.013489,0.006836,-0.994202,0.220855,0.447634,-0.039389,45,275,572,4720
1644154855.644739,-0.013062,0.01062,-0.99054,0.297191,0.310229,0.006412,45,263,570,4784
1644154855.694511,-0.011292,0.009155,-0.989807,0.251389,0.462901,-0.115725,47,270,570,4768
1644154855.742235,-0.011353,0.011719,-0.992554,0.113985,0.585038,-0.024122,46,269,578,4768
1644154855.838288,-0.012695,0.007507,-0.992371,0.281924,0.493435,0.082748,45,275,568,4720
1644154855.886731,-0.014587,0.009216,-0.994385,0.113985,0.401832,-0.130992,40,265,563,4672
1644154855.935143,-0.012817,0.009644,-0.993408,0.205588,0.24916,0.021679,59,263,556,4720
1644154855.983464,-0.011597,0.007996,-0.992432,0.205588,0.432366,-0.100458,51,271,569,4656
1644154856.031842,-0.012085,0.010437,-0.993591,0.404061,0.432366,-0.14626,55,281,573,4720
1644154856.080319,-0.013367,0.007507,-0.993774,0.205588,0.279695,-0.14626,42,275,565,4576
1644154856.128618,-0.010071,0.010132,-0.992065,0.144519,0.493435,0.036947,46,276,569,4768
1644154856.176998,-0.010132,0.007629,-0.992004,0.327725,0.401832,0.021679,45,270,575,4704
1644154856.225403,-0.010559,0.00647,-0.991699,0.251389,0.325496,-0.039389,51,276,569,4672
1644154856.273743,-0.012268,0.008667,-0.992065,0.251389,0.478168,-0.100458,46,269,552,4672
1644154856.322172,-0.011292,0.007568,-0.991211,0.281924,0.386565,-0.085191,49,282,561,4720
1644154856.370524,-0.011902,0.007507,-0.992249,0.159786,0.462901,-0.222595,45,280,570,4672
1644154856.418928,-0.010315,0.007812,-0.992432,0.281924,0.523969,0.006412,48,269,566,4672
1644154856.467302,-0.014282,0.00708,-0.989319,0.281924,0.279695,-0.100458,49,275,565,4656
1644154856.515667,-0.009583,0.010864,-0.990967,0.327725,0.493435,-0.192061,48,264,569,4704
1644154856.564089,-0.009155,0.00946,-0.991943,0.373527,0.325496,-0.192061,43,266,566,4672
1644154856.612459,-0.013855,0.00946,-0.990662,0.144519,0.371298,-0.100458,43,264,569,4768
1644154856.660855,-0.01355,0.011169,-0.993713,0.251389,0.294962,0.006412,45,277,577,4704
1644154856.709216,-0.011719,0.008362,-0.993469,0.236122,0.401832,-0.100458,52,273,570,4672
1644154856.757595,-0.009888,0.01001,-0.991028,0.037649,0.447634,-0.039389,53,264,571,4704
1644154856.806668,-0.012207,0.006775,-0.991577,0.266656,0.462901,-0.054656,57,273,563,4656
1644154856.857194,-0.012939,0.007629,-0.99292,0.266656,0.539237,-0.192061,40,263,575,4704
1644154856.95119,-0.010498,0.009949,-0.992249,0.190321,0.447634,-0.237863,48,271,564,4656
1644154856.999553,-0.013428,0.007324,-0.991272,0.281924,0.417099,0.021679,47,273,577,4784
1644154857.061898,-0.011475,0.009888,-0.99115,0.312458,0.493435,-0.176794,54,273,570,4720
1644154857.097262,-0.011658,0.009644,-0.99353,0.190321,0.325496,-0.192061,48,266,578,4608
1644154857.144716,-0.01123,0.007385,-0.991089,0.08345,0.478168,-0.100458,51,269,564,4672
1644154857.193127,-0.013,0.013245,-0.993103,0.144519,0.432366,-0.298931,48,276,557,4768
1644154857.241492,-0.011169,0.007507,-0.993286,0.08345,0.371298,-0.161527,54,277,575,4768
1644154857.289847,-0.014587,0.006714,-0.991516,0.312458,0.310229,-0.130992,47,270,565,4720
1644154857.338278,-0.012573,0.009277,-0.992493,0.175053,0.340763,0.006412,47,280,577,4720
1644154857.386639,-0.012756,0.009155,-0.991821,0.236122,0.417099,-0.054656,47,270,570,4752
1644154857.435071,-0.011902,0.007568,-0.99408,0.35826,0.508702,-0.207328,52,280,568,4768
1644154857.483382,-0.012451,0.00769,-0.992798,0.113985,0.264427,-0.054656,46,262,571,4608
1644154857.531792,-0.011047,0.012024,-0.994446,0.129252,0.508702,-0.207328,46,276,569,4672
1644154857.580173,-0.010681,0.008728,-0.994995,0.342992,0.478168,-0.024122,52,273,565,4720
1644154857.628564,-0.008362,0.010193,-0.991699,0.419328,0.218626,-0.054656,51,274,571,4720
1644154857.677387,-0.011475,0.007812,-0.99176,0.08345,0.371298,-0.283664,47,268,568,4672
1644154857.727401,-0.012695,0.008606,-0.991638,0.312458,0.432366,-0.039389,47,275,568,4720
1644154857.775091,-0.009521,0.009399,-0.992676,0.113985,0.523969,-0.176794,46,271,566,4704
1644154857.870555,-0.012329,0.009338,-0.993469,0.312458,0.356031,-0.024122,42,265,565,4784
1644154857.918894,-0.014709,0.008362,-0.992004,0.205588,0.478168,-0.115725,41,271,566,4704
1644154857.967323,-0.010071,0.011108,-0.99231,0.266656,0.386565,0.067481,52,268,570,4720
1644154858.015688,-0.011658,0.006958,-0.993713,0.205588,0.325496,-0.207328,47,270,572,4704
1644154858.066744,-0.013611,0.009644,-0.989868,0.251389,0.462901,-0.161527,53,276,573,4704
1644154858.112515,-0.012451,0.008972,-0.991638,0.342992,0.508702,-0.024122,49,277,565,4832
1644154858.160803,-0.013977,0.006409,-0.992432,0.327725,0.401832,-0.130992,47,277,579,4608
1644154858.209227,-0.011108,0.008179,-0.993896,0.08345,0.417099,-0.115725,48,279,578,4656
1644154858.257563,-0.012146,0.00824,-0.993347,0.175053,0.371298,-0.176794,46,279,566,4656
1644154858.305971,-0.011047,0.011475,-0.992737,0.342992,0.371298,-0.054656,38,270,575,4656
1644154858.354397,-0.010864,0.008301,-0.992188,0.144519,0.478168,-0.115725,52,275,579,4704
1644154858.402756,-0.013489,0.009277,-0.991516,0.342992,0.478168,-0.024122,51,269,569,4704
1644154858.451144,-0.01178,0.011597,-0.990173,0.113985,0.462901,0.036947,57,277,577,4656
1644154858.499517,-0.012939,0.009399,-0.992126,0.144519,0.371298,-0.069924,53,271,566,4720
1644154858.547914,-0.010742,0.006958,-0.989197,0.251389,0.325496,-0.161527,47,273,572,4720
1644154858.596318,-0.011414,0.007629,-0.99054,0.266656,0.615573,-0.039389,45,277,579,4656
1644154858.644708,-0.01001,0.008057,-0.992615,0.205588,0.432366,-0.237863,54,268,568,4704
1644154858.693083,-0.012573,0.011108,-0.990295,0.312458,0.417099,-0.176794,45,275,568,4608
1644154858.741431,-0.012024,0.008484,-0.992432,0.175053,0.279695,0.006412,51,266,566,4656
1644154858.78981,-0.01062,0.004944,-0.993164,0.068183,0.478168,-0.161527,45,275,575,4672
1644154858.838944,-0.012756,0.006958,-0.992065,0.08345,0.554504,-0.192061,35,275,572,4768
1644154858.889746,-0.011475,0.008667,-0.994812,0.281924,0.310229,-0.192061,53,276,573,4672
1644154858.983426,-0.009766,0.007874,-0.992615,0.342992,0.371298,-0.161527,51,271,573,4720
1644154859.031799,-0.012695,0.00885,-0.99292,0.129252,0.340763,-0.024122,43,271,571,4672
1644154859.080285,-0.010803,0.009705,-0.991028,0.281924,0.279695,-0.069924,38,270,561,4720
1644154859.128593,-0.012512,0.009033,-0.988037,0.251389,0.340763,-0.039389,51,276,566,4672
1644154859.176918,-0.011597,0.007385,-0.990417,0.205588,0.432366,-0.207328,59,273,570,4768
1644154859.225317,-0.009827,0.010925,-0.990662,0.312458,0.294962,-0.130992,43,279,569,4672
1644154859.273702,-0.01062,0.007446,-0.992188,0.312458,0.386565,-0.054656,48,276,571,4656
1644154859.322136,-0.008301,0.009521,-0.991821,0.190321,0.493435,-0.054656,52,270,570,4672
1644154859.370473,-0.01239,0.00708,-0.99054,0.236122,0.340763,-0.207328,46,274,576,4656
1644154859.41888,-0.015625,0.007446,-0.995483,0.190321,0.432366,-0.176794,51,269,571,4720
1644154859.467272,-0.011475,0.008118,-0.991821,0.159786,0.462901,-0.008855,47,268,568,4608
1644154859.515629,-0.008667,0.010193,-0.993164,0.281924,0.447634,-0.130992,46,259,566,4720
1644154859.564027,-0.013184,0.008728,-0.99176,0.129252,0.417099,-0.314198,49,280,575,4656
1644154859.612438,-0.01001,0.00824,-0.992615,0.404061,0.585038,-0.192061,49,273,561,4784
1644154859.660817,-0.013367,0.005859,-0.991577,0.266656,0.615573,-0.115725,43,279,573,4784
1644154859.709197,-0.012146,0.009644,-0.994019,0.312458,0.478168,-0.176794,46,279,569,4672
1644154859.757559,-0.008972,0.00769,-0.992554,0.388794,0.310229,0.082748,53,276,569,4672
1644154859.805974,-0.010315,0.008789,-0.992065,0.342992,0.356031,-0.085191,45,268,568,4720
1644154859.854354,-0.012146,0.006653,-0.992004,0.251389,0.386565,-0.085191,46,271,571,4768
1644154859.902743,-0.010315,0.007812,-0.992981,0.281924,0.478168,-0.100458,54,277,570,4672
1644154859.952452,-0.013672,0.011108,-0.992432,0.312458,0.340763,-0.085191,52,273,572,4768
1644154859.999874,-0.013489,0.002869,-0.987488,0.190321,0.600305,-0.115725,43,264,569,4704
1644154860.096374,-0.010254,0.007812,-0.991699,0.419328,0.554504,0.067481,45,270,577,4768
1644154860.144716,-0.013123,0.010132,-0.990051,0.342992,0.539237,-0.100458,47,273,572,4720
1644154860.193058,-0.010803,0.015625,-0.988525,0.129252,0.325496,-0.130992,45,282,568,4608
1644154860.241385,-0.009155,0.010376,-0.991394,0.281924,0.462901,-0.100458,51,279,571,4784
1644154860.289819,-0.011597,0.008362,-0.993835,0.144519,0.340763,-0.14626,49,275,575,4784
1644154860.338199,-0.012512,0.012817,-0.992554,0.236122,0.310229,-0.192061,43,264,573,4768
1644154860.386605,-0.014099,0.011169,-0.992981,0.388794,0.340763,0.021679,46,276,569,4720
1644154860.435003,-0.013184,0.008362,-0.990051,0.373527,0.340763,-0.024122,61,275,575,4704
1644154860.483381,-0.011841,0.011902,-0.993347,0.190321,0.340763,-0.069924,51,269,559,4704
1644154860.531771,-0.016846,0.007019,-0.992432,0.297191,0.539237,-0.130992,48,271,573,4672
1644154860.580137,-0.011047,0.008118,-0.991577,0.342992,0.294962,-0.130992,54,282,561,4704
1644154860.628536,-0.009827,0.012207,-0.990906,0.281924,0.340763,-0.176794,51,266,564,4672
1644154860.676897,-0.011963,0.00531,-0.994995,0.510931,0.707176,-0.161527,46,271,571,4720
1644154860.725319,-0.013367,0.006836,-0.991028,0.113985,0.340763,0.067481,47,277,570,4608
1644154860.773701,-0.010925,0.009277,-0.991943,0.297191,0.386565,-0.054656,51,264,566,4656
1644154860.822049,-0.013,0.009094,-0.989441,0.388794,0.462901,-0.100458,48,269,578,4720
1644154860.870473,-0.01062,0.009766,-0.989868,0.113985,0.523969,-0.039389,51,271,573,4672
1644154860.918877,-0.012329,0.009399,-0.990723,0.236122,0.401832,-0.161527,35,270,582,4720
1644154860.967234,-0.011597,0.007568,-0.991577,0.205588,0.493435,0.006412,55,266,580,4672
1644154861.065734,-0.010071,0.00885,-0.992004,0.205588,0.356031,-0.207328,55,266,573,4768
1644154861.112434,-0.01178,0.011108,-0.991394,0.251389,0.417099,0.006412,45,275,568,4768
1644154861.160835,-0.011108,0.011353,-0.990845,0.373527,0.432366,-0.222595,42,275,572,4720
1644154861.209207,-0.012817,0.008606,-0.993713,0.129252,0.417099,-0.039389,53,271,571,4672
1644154861.25757,-0.013367,0.00824,-0.993225,0.281924,0.462901,-0.085191,52,277,568,4768
1644154861.30596,-0.009705,0.011475,-0.993164,0.068183,0.279695,-0.054656,48,279,569,4720
1644154861.354353,-0.011536,0.006958,-0.99176,0.297191,0.508702,-0.283664,52,270,572,4608
1644154861.402778,-0.012573,0.008728,-0.991211,0.236122,0.462901,0.006412,47,268,568,4672
1644154861.45113,-0.011475,0.008118,-0.993103,0.236122,0.356031,-0.192061,45,270,568,4672
1644154861.499508,-0.011536,0.010437,-0.98999,0.113985,0.401832,-0.298931,52,270,575,4672
1644154861.547927,-0.012573,0.003479,-0.992065,0.495664,0.462901,-0.024122,45,275,568,4656
1644154861.596313,-0.014648,0.00415,-0.991028,0.190321,0.401832,-0.130992,47,268,586,4608
1644154861.644712,-0.011047,0.014709,-0.989624,0.190321,0.386565,-0.085191,54,265,570,4720
1644154861.693053,-0.010559,0.012207,-0.990784,0.281924,0.294962,-0.039389,42,263,568,4704
1644154861.741464,-0.014038,0.006348,-0.994446,0.312458,0.523969,-0.161527,41,271,569,4720
1644154861.789803,-0.012573,0.010925,-0.992249,0.205588,0.340763,-0.069924,53,266,576,4720
1644154861.838197,-0.013062,0.008423,-0.992126,0.220855,0.585038,-0.130992,40,265,570,4672
1644154861.886542,-0.011292,0.007996,-0.995605,0.236122,0.294962,-0.298931,47,265,563,4656
1644154861.93504,-0.009888,0.010498,-0.992493,0.35826,0.386565,0.006412,51,264,576,4672
1644154861.984047,-0.013611,0.007263,-0.994568,0.220855,0.539237,-0.008855,52,273,575,4720
1644154862.033977,-0.013916,0.009521,-0.993225,0.220855,0.24916,-0.207328,47,268,572,4672
1644154862.083067,-0.01123,0.010254,-0.990234,0.342992,0.401832,-0.14626,46,276,573,4656
1644154862.176949,-0.010925,0.008423,-0.992065,0.098718,0.340763,-0.192061,46,269,573,4768
1644154862.225318,-0.009644,0.01001,-0.988586,0.312458,0.585038,-0.054656,49,273,572,4704
1644154862.273692,-0.013,0.007568,-0.992371,0.281924,0.371298,-0.283664,46,266,576,4720
1644154862.32206,-0.010315,0.0047,-0.98822,0.144519,0.371298,-0.100458,48,271,571,4720
1644154862.37053,-0.012756,0.009094,-0.992371,0.159786,0.401832,-0.039389,53,271,562,4704
1644154862.41889,-0.013977,0.012756,-0.991638,0.35826,0.401832,0.067481,52,268,570,4672
1644154862.467252,-0.013794,0.010742,-0.992737,0.266656,0.386565,-0.298931,47,265,568,4704
1644154862.515615,-0.014038,0.01123,-0.991394,0.251389,0.585038,0.021679,48,281,571,4704
1644154862.564041,-0.010742,0.008179,-0.993591,0.205588,0.371298,-0.192061,38,268,565,4720
1644154862.612451,-0.009827,0.011841,-0.99292,0.144519,0.523969,-0.283664,42,282,575,4672
1644154862.660816,-0.012939,0.010254,-0.991455,0.266656,0.554504,-0.100458,58,264,559,4784
1644154862.709171,-0.011841,0.003296,-0.992981,0.236122,0.401832,-0.207328,53,269,573,4672
1644154862.757552,-0.011108,0.012085,-0.990601,0.266656,0.371298,-0.14626,62,276,569,4672
1644154862.805927,-0.012268,0.007507,-0.990967,0.373527,0.478168,0.067481,48,274,573,4608
1644154862.854346,-0.011353,0.008789,-0.993225,0.220855,0.310229,-0.222595,53,279,569,4784
1644154862.902705,-0.013916,0.012146,-0.99292,0.190321,0.401832,-0.161527,46,271,571,4752
1644154862.951084,-0.00946,0.00647,-0.992126,0.327725,0.432366,-0.054656,47,273,570,4656
1644154862.999436,-0.011963,0.00647,-0.994568,0.281924,0.294962,-0.192061,49,273,575,4672
1644154863.061914,-0.010376,0.007812,-0.993042,0.312458,0.386565,-0.008855,47,268,579,4704
1644154863.096425,-0.024353,0.006531,-0.993103,0.220855,0.600305,0.021679,42,273,568,4704
1644154863.14466,-0.010498,0.00177,-0.994324,0.007115,0.310229,-0.283664,51,271,576,4672
1644154863.194757,-0.012024,0.006836,-0.990784,0.495664,0.508702,-0.054656,40,275,572,4608
1644154863.242456,-0.016602,0.011597,-0.989197,0.113985,0.554504,0.021679,39,270,572,4704
1644154863.338167,-0.014343,0.010254,-0.989197,0.312458,0.401832,0.067481,43,281,571,4656
1644154863.386534,-0.013489,0.006531,-0.993408,0.220855,0.462901,-0.161527,58,276,571,4656
1644154863.434991,-0.008667,0.008972,-0.991638,0.404061,0.417099,-0.100458,53,269,569,4672
1644154863.483325,-0.015381,0.010132,-0.991333,0.281924,0.386565,-0.100458,52,273,579,4656
1644154863.531707,-0.006042,0.007019,-0.991028,0.266656,0.24916,-0.115725,57,263,568,4672
1644154863.580071,-0.010132,0.010193,-0.991516,0.342992,0.417099,-0.192061,45,280,577,4672
1644154863.628785,-0.014038,0.010254,-0.992493,0.175053,0.356031,-0.008855,49,275,563,4704
1644154863.67688,-0.009094,0.008972,-0.994751,0.113985,0.356031,0.006412,51,269,566,4672
1644154863.72527,-0.014587,0.011963,-0.991882,0.190321,0.371298,-0.069924,47,280,568,4704
1644154863.773639,-0.007812,0.008118,-0.995667,0.236122,0.386565,-0.085191,49,275,572,4656
1644154863.822066,-0.011292,0.009766,-0.993896,0.220855,0.417099,-0.100458,47,277,572,4672
1644154863.870461,-0.013855,0.009888,-0.993347,0.342992,0.508702,0.006412,55,276,573,4784
1644154863.918838,-0.008789,0.006165,-0.993408,0.129252,0.447634,-0.115725,47,280,568,4672
1644154863.967253,-0.011047,0.009094,-0.990112,0.388794,0.569771,-0.25313,41,271,583,4656
1644154864.015591,-0.011169,0.006042,-0.991516,0.220855,0.279695,-0.008855,48,271,571,4720
1644154864.078377,-0.00946,0.007446,-0.994202,0.266656,0.157557,-0.085191,42,277,572,4592
1644154864.112347,-0.011536,0.008362,-0.98999,0.220855,0.523969,-0.054656,45,275,572,4752
1644154864.16073,-0.011353,0.009399,-0.991577,0.266656,0.539237,-0.130992,54,273,577,4720
1644154864.209107,-0.011292,0.008606,-0.991882,0.281924,0.340763,-0.100458,55,279,566,4656
1644154864.257493,-0.013672,0.008972,-0.991028,0.297191,0.478168,-0.054656,42,263,568,4672
1644154864.306288,-0.012878,0.01001,-0.991211,0.281924,0.462901,0.036947,47,280,568,4672
1644154864.356509,-0.013062,0.01178,-0.991882,0.236122,0.493435,-0.130992,43,283,578,4656
1644154864.451061,-0.013,0.009521,-0.991821,0.190321,0.447634,-0.192061,53,269,569,4672
1644154864.499408,-0.008484,0.010071,-0.98999,0.266656,0.432366,-0.161527,55,271,569,4672
1644154864.547837,-0.009949,0.008972,-0.993958,0.236122,0.462901,-0.207328,43,276,569,4656
1644154864.596222,-0.010864,0.00769,-0.991333,0.46513,0.539237,-0.130992,46,274,571,4768
1644154864.644643,-0.012268,0.007507,-0.991943,0.312458,0.417099,-0.024122,52,268,575,4672
1644154864.692979,-0.012207,0.008606,-0.993591,0.129252,0.401832,-0.268397,49,268,575,4672
1644154864.741383,-0.009705,0.012268,-0.98938,0.098718,0.447634,-0.14626,51,283,580,4720
1644154864.789779,-0.012634,0.007751,-0.991272,0.373527,0.310229,-0.237863,45,282,563,4672
1644154864.838178,-0.009644,0.00946,-0.993042,0.220855,0.294962,-0.222595,45,268,577,4672
1644154864.886584,-0.00946,0.01123,-0.990417,0.205588,0.539237,-0.207328,48,271,564,4784
1644154864.934939,-0.012634,0.009338,-0.989929,-0.008153,0.401832,-0.130992,46,271,580,4656
1644154864.983626,-0.011353,0.006836,-0.992493,0.098718,0.386565,-0.100458,48,276,569,4656
1644154865.031744,-0.009583,0.009644,-0.995544,0.327725,0.478168,0.052214,49,277,575,4672
1644154865.08491,-0.013184,0.008545,-0.993591,0.312458,0.340763,-0.14626,54,270,579,4704
1644154865.128472,-0.012268,0.007812,-0.99292,0.190321,0.417099,0.067481,55,274,564,4672
1644154865.176857,-0.010498,0.007935,-0.991394,0.419328,0.523969,-0.085191,43,262,569,4672
1644154865.225236,-0.010376,0.010315,-0.991394,0.281924,0.493435,-0.176794,51,266,571,4656
1644154865.273594,-0.010498,0.012085,-0.991455,0.281924,0.401832,0.12855,49,270,568,4816
1644154865.322003,-0.012512,0.008057,-0.992859,0.35826,0.325496,-0.100458,42,275,565,4784
1644154865.371536,-0.011536,0.010193,-0.991455,0.266656,0.340763,-0.008855,59,265,579,4672
1644154865.419161,-0.012756,0.009216,-0.993286,0.266656,0.386565,-0.207328,49,270,568,4784
1644154865.519376,-0.013245,0.007568,-0.993774,0.175053,0.417099,-0.192061,46,274,590,4704
1644154865.563961,-0.010559,0.009216,-0.99292,0.266656,0.340763,-0.039389,52,265,572,4672
1644154865.612367,-0.011108,0.008484,-0.993958,0.327725,0.493435,-0.085191,35,277,563,4672
1644154865.660728,-0.01178,0.011902,-0.99054,0.220855,0.417099,-0.115725,43,269,569,4656
1644154865.709101,-0.013916,0.008789,-0.992554,0.312458,0.478168,-0.161527,46,276,573,4672
1644154865.757473,-0.012573,0.008728,-0.996704,0.327725,0.325496,-0.069924,52,270,575,4720
1644154865.805901,-0.013245,0.008118,-0.992493,0.312458,0.356031,-0.176794,47,268,577,4704
1644154865.854303,-0.012207,0.009033,-0.992737,0.159786,0.523969,-0.25313,51,264,564,4704
1644154865.902691,-0.012146,0.008423,-0.993225,0.190321,0.493435,-0.054656,40,277,570,4640
1644154865.951048,-0.010498,0.006592,-0.992371,0.342992,0.401832,-0.100458,45,270,565,4720
1644154865.999452,-0.012939,0.009827,-0.992615,0.190321,0.447634,-0.176794,52,258,570,4752
1644154866.063339,-0.013489,0.008118,-0.993103,0.190321,0.462901,-0.085191,62,279,569,4704
1644154866.09619,-0.010803,0.008362,-0.992065,0.297191,0.462901,-0.237863,48,271,569,4704
1644154866.144616,-0.009216,0.006531,-0.99353,0.220855,0.432366,-0.085191,48,276,580,4784
1644154866.192992,-0.009827,0.005371,-0.991089,0.312458,0.401832,-0.100458,48,271,573,4816
1644154866.241316,-0.010437,0.007629,-0.992065,0.175053,0.417099,-0.069924,53,274,569,4720
1644154866.289731,-0.014099,0.006592,-0.991028,0.281924,0.386565,-0.130992,53,274,573,4656
1644154866.338126,-0.010803,0.010315,-0.991211,0.220855,0.356031,-0.130992,54,273,563,4720
1644154866.386507,-0.010925,0.010681,-0.990662,0.205588,0.325496,-0.069924,54,277,577,4672
1644154866.436113,-0.014343,0.00531,-0.992371,0.251389,0.325496,-0.130992,48,274,576,4704
1644154866.48366,-0.011108,0.007385,-0.993164,0.236122,0.401832,-0.115725,45,275,565,4816
1644154866.580058,-0.010437,0.007751,-0.992126,0.236122,0.264427,-0.14626,54,263,565,4672
1644154866.628436,-0.009766,0.009827,-0.992615,0.098718,0.493435,-0.100458,52,275,570,4768
1644154866.6768,-0.013062,0.009216,-0.992249,0.205588,0.401832,0.036947,45,270,575,4704
1644154866.725246,-0.012817,0.010071,-0.991455,0.175053,0.310229,0.036947,48,274,576,4720
1644154866.773599,-0.013733,0.009338,-0.99353,0.129252,0.340763,-0.069924,48,269,580,4720
1644154866.822017,-0.009827,0.006592,-0.992126,0.281924,0.279695,-0.024122,49,265,570,4656
1644154866.870426,-0.011841,0.009216,-0.992615,0.205588,0.478168,-0.115725,43,276,559,4704
1644154866.918841,-0.010315,0.00946,-0.991089,0.007115,0.371298,-0.25313,59,270,570,4704
1644154866.967173,-0.011597,0.006714,-0.993225,0.327725,0.493435,0.113282,51,269,566,4672
1644154867.015585,-0.010193,0.00769,-0.992798,0.205588,0.294962,-0.268397,48,269,564,4720
1644154867.066638,-0.011169,0.010925,-0.990356,0.205588,0.615573,-0.100458,53,274,566,4672
1644154867.112356,-0.014404,0.007629,-0.991882,0.434595,0.508702,-0.085191,51,274,564,4656
1644154867.160684,-0.012573,0.009766,-0.994568,0.327725,0.462901,-0.268397,48,274,583,4672
