epoch,acc_x,acc_y,acc_z,rot_x,rot_y,rot_z,mag_x,mag_y,mag_z,temp
1644163200.006852,-0.009949,0.01062,-0.99115,0.373527,0.401832,-0.054656,43,281,576,5584
1644163200.062337,-0.010925,0.011841,-0.990723,0.297191,0.325496,0.006412,58,276,566,5584
1644163200.103636,-0.012695,0.007141,-0.99585,0.205588,0.432366,-0.192061,53,276,578,5536
1644163200.151997,-0.011841,0.008118,-0.99353,0.404061,0.371298,-0.115725,64,275,577,5552
1644163200.20058,-0.008057,0.009338,-0.990723,0.281924,0.325496,0.067481,51,286,576,5584
1644163200.248767,-0.009094,0.010315,-0.989807,0.236122,0.508702,-0.008855,48,283,576,5584
1644163200.297163,-0.009033,0.007507,-0.990967,0.236122,0.432366,-0.039389,52,277,575,5552
1644163200.345566,-0.009399,0.007446,-0.992126,0.388794,0.371298,-0.192061,46,269,573,5584
1644163200.393929,-0.011108,0.010071,-0.991394,0.190321,0.539237,-0.222595,49,282,572,5536
1644163200.442657,-0.01355,0.00946,-0.993774,0.312458,0.447634,-0.024122,51,274,571,5552
1644163200.492148,-0.014282,0.009583,-0.991394,0.251389,0.386565,-0.222595,52,285,565,5648
1644163200.542221,-0.009644,0.008179,-0.992798,0.297191,0.523969,-0.161527,52,270,575,5552
1644163200.592383,-0.01062,0.010254,-0.992432,0.297191,0.371298,-0.085191,51,276,578,5584
1644163200.63765,-0.008667,0.008667,-0.990601,0.342992,0.401832,-0.069924,52,273,579,5552
1644163200.732709,-0.009583,0.010559,-0.990417,0.404061,0.356031,-0.100458,52,275,570,5552
1644163200.781059,-0.008484,0.006409,-0.995789,0.449863,0.371298,-0.039389,49,268,579,5520
1644163200.829413,-0.013367,0.010254,-0.990601,0.236122,0.417099,-0.085191,42,265,572,5600
1644163200.877859,-0.008972,0.010376,-0.993774,0.251389,0.401832,-0.069924,43,274,573,5552
1644163200.926255,-0.01123,0.009094,-0.990723,0.159786,0.478168,-0.14626,52,273,570,5488
1644163200.974672,-0.010681,0.009155,-0.98999,0.052916,0.386565,-0.161527,48,271,583,5584
1644163201.02306,-0.010925,0.011658,-0.99292,0.205588,0.233893,0.036947,55,262,580,5552
1644163201.072481,-0.007874,0.010925,-0.990051,0.113985,0.233893,-0.069924,53,271,580,5536
1644163201.119849,-0.011597,0.010376,-0.989807,0.205588,0.447634,-0.130992,39,266,573,5600
1644163201.168187,-0.00708,0.011597,-0.993652,0.35826,0.462901,-0.161527,57,277,584,5584
1644163201.216571,-0.012939,0.009216,-0.991882,0.419328,0.462901,-0.14626,49,275,584,5520
1644163201.265012,-0.012085,0.009155,-0.992188,0.312458,0.432366,-0.161527,43,266,583,5584
1644163201.313356,-0.009216,0.007996,-0.992615,0.342992,0.294962,-0.115725,47,270,575,5520
1644163201.361731,-0.010376,0.010254,-0.991516,0.144519,0.356031,-0.085191,49,290,582,5584
1644163201.410441,-0.012268,0.008606,-0.991211,0.098718,0.569771,-0.14626,41,276,564,5536
1644163201.459574,-0.009949,0.010559,-0.990845,0.281924,0.493435,-0.069924,39,269,571,5536
1644163201.509912,-0.010864,0.009216,-0.991821,0.220855,0.294962,-0.161527,53,281,571,5648
1644163201.559983,-0.008606,0.010193,-0.990051,0.251389,0.447634,-0.039389,47,280,577,5552
1644163201.652365,-0.009399,0.007507,-0.991516,0.297191,0.447634,-0.039389,52,280,570,5552
1644163201.700467,-0.007812,0.008179,-0.993958,0.159786,0.401832,-0.085191,48,283,578,5536
1644163201.748857,-0.013733,0.010376,-0.992188,0.220855,0.386565,-0.100458,45,277,584,5552
1644163201.797243,-0.010498,0.008484,-0.992249,0.281924,0.371298,-0.207328,51,281,569,5648
1644163201.845626,-0.008667,0.006714,-0.992493,0.327725,0.447634,-0.14626,49,273,577,5584
1644163201.894037,-0.008179,0.006775,-0.993958,0.220855,0.432366,-0.039389,48,271,576,5600
1644163201.942473,-0.012085,0.006531,-0.993774,-0.053954,0.462901,-0.039389,47,270,584,5584
1644163201.990872,-0.010925,0.008728,-0.991638,0.159786,0.478168,-0.024122,57,263,570,5584
1644163202.053726,-0.011108,0.009766,-0.992737,0.220855,0.310229,-0.115725,49,282,575,5472
1644163202.087651,-0.012451,0.008789,-0.992554,0.327725,0.386565,-0.130992,49,277,575,5584
1644163202.136019,-0.012756,0.00647,-0.98822,0.190321,0.447634,-0.192061,57,277,575,5488
1644163202.18445,-0.011963,0.00946,-0.993286,0.175053,0.356031,-0.115725,51,269,576,5472
1644163202.232813,-0.007568,0.009644,-0.993042,0.312458,0.386565,-0.161527,51,274,576,5584
1644163202.281184,-0.011902,0.007812,-0.990234,0.373527,0.432366,-0.054656,49,282,575,5536
1644163202.329578,-0.010803,0.007751,-0.99292,0.159786,0.462901,-0.222595,47,260,572,5600
1644163202.377975,-0.008118,0.007568,-0.992737,0.220855,0.310229,-0.008855,59,277,572,5552
1644163202.427253,-0.012512,0.012451,-0.991211,0.236122,0.325496,-0.130992,46,279,569,5552
1644163202.476852,-0.008728,0.008362,-0.992981,0.220855,0.432366,-0.085191,42,270,582,5536
1644163202.527169,-0.009705,0.007812,-0.989075,0.159786,0.508702,-0.069924,47,275,568,5552
1644163202.577156,-0.011414,0.013184,-0.990234,0.281924,0.432366,0.052214,52,277,579,5584
1644163202.668307,-0.014221,0.011963,-0.99292,0.404061,0.508702,0.159084,47,265,572,5648
1644163202.716682,-0.010254,0.007812,-0.992004,0.388794,0.493435,-0.130992,53,274,564,5536
1644163202.765137,-0.013672,0.010559,-0.991089,0.159786,0.523969,-0.039389,57,273,572,5600
1644163202.813488,-0.012268,0.00769,-0.994324,0.113985,0.478168,-0.069924,48,271,573,5584
1644163202.861865,-0.010803,0.008423,-0.991394,0.205588,0.478168,-0.14626,49,273,577,5488
1644163202.910238,-0.01062,0.010681,-0.988892,0.205588,0.401832,-0.176794,51,269,571,5584
1644163202.958651,-0.012146,0.010803,-0.995728,0.297191,0.569771,-0.024122,46,274,571,5584
1644163203.007051,-0.008972,0.010437,-0.990906,0.159786,0.600305,-0.069924,53,269,576,5600
1644163203.061325,-0.011841,0.008545,-0.99176,0.113985,0.478168,-0.100458,60,276,571,5648
1644163203.103796,-0.01178,0.008545,-0.993225,0.236122,0.417099,-0.176794,48,276,569,5600
1644163203.152233,-0.009888,0.009216,-0.991089,0.281924,0.310229,-0.085191,57,275,577,5552
1644163203.200582,-0.00946,0.008545,-0.991638,0.251389,0.371298,-0.115725,52,275,570,5536
1644163203.248956,-0.013794,0.008911,-0.991394,0.220855,0.386565,-0.039389,58,262,573,5584
1644163203.297353,-0.010803,0.011414,-0.993408,0.281924,0.493435,-0.054656,54,270,579,5552
1644163203.345701,-0.007019,0.007263,-0.990173,0.373527,0.356031,-0.069924,57,280,584,5536
1644163203.39414,-0.009338,0.009094,-0.993591,0.159786,0.386565,-0.085191,48,279,573,5600
1644163203.44253,-0.010132,0.010437,-0.990906,0.190321,0.523969,-0.130992,51,281,573,5632
1644163203.490917,-0.009155,0.009521,-0.990662,0.404061,0.493435,-0.222595,45,282,579,5488
1644163203.539556,-0.008667,0.010803,-0.992065,0.327725,0.462901,-0.085191,64,273,570,5632
1644163203.588403,-0.009033,0.007202,-0.990417,0.251389,0.356031,-0.085191,59,273,575,5552
1644163203.638949,-0.010925,0.010376,-0.989624,0.175053,0.356031,-0.207328,48,271,571,5584
1644163203.689068,-0.009216,0.010925,-0.992676,0.35826,0.462901,-0.14626,47,275,577,5584
1644163203.734023,-0.011108,0.01123,-0.989563,0.281924,0.340763,-0.100458,46,279,569,5552
1644163203.82966,-0.01062,0.00885,-0.994019,0.113985,0.478168,-0.130992,64,270,572,5600
1644163203.878051,-0.009949,0.008789,-0.991638,0.251389,0.432366,-0.100458,52,273,577,5552
1644163203.926453,-0.011414,0.008118,-0.992798,0.236122,0.508702,-0.054656,47,263,570,5600
1644163203.974833,-0.011108,0.010376,-0.990112,0.098718,0.432366,-0.054656,42,268,565,5632
1644163204.023227,-0.011963,0.010559,-0.990723,0.281924,0.386565,-0.008855,48,271,571,5536
1644163204.074827,-0.009644,0.009766,-0.989807,0.312458,0.371298,-0.085191,52,265,582,5584
1644163204.119974,-0.009094,0.011292,-0.989868,0.08345,0.386565,-0.14626,57,285,575,5584
1644163204.168375,-0.010437,0.008545,-0.992432,0.266656,0.493435,0.021679,45,275,577,5552
1644163204.216768,-0.009583,0.008484,-0.99353,0.129252,0.203359,-0.161527,52,268,575,5536
1644163204.265203,-0.010498,0.008301,-0.989685,0.281924,0.310229,-0.024122,57,275,582,5552
1644163204.313551,-0.011963,0.008728,-0.991821,0.281924,0.539237,-0.14626,55,271,569,5552
1644163204.361919,-0.011292,0.009094,-0.991089,0.281924,0.417099,0.067481,46,274,569,5584
1644163204.410326,-0.009827,0.007751,-0.990723,0.35826,0.432366,-0.14626,53,279,578,5552
1644163204.458705,-0.012268,0.010315,-0.992859,0.220855,0.432366,-0.192061,60,276,578,5536
1644163204.507081,-0.01001,0.006653,-0.99176,0.205588,0.233893,-0.008855,52,270,577,5584
1644163204.555495,-0.010437,0.009338,-0.990967,0.159786,0.401832,-0.024122,48,279,578,5648
1644163204.603862,-0.01239,0.009155,-0.992493,0.159786,0.462901,0.006412,51,257,576,5648
1644163204.652294,-0.006897,0.010681,-0.992798,0.312458,0.478168,0.006412,54,287,577,5648
1644163204.700739,-0.010559,0.009705,-0.989136,0.266656,0.447634,-0.024122,48,271,573,5536
1644163204.749528,-0.009521,0.01062,-0.992493,0.327725,0.371298,-0.085191,57,282,561,5536
1644163204.800404,-0.009277,0.010315,-0.992554,0.098718,0.264427,-0.222595,47,268,570,5584
1644163204.851168,-0.011292,0.011353,-0.99353,0.205588,0.432366,-0.207328,51,274,569,5456
1644163204.895986,-0.011353,0.010254,-0.991577,0.220855,0.462901,-0.115725,51,276,569,5552
1644163204.991028,-0.011597,0.008972,-0.990906,0.205588,0.325496,-0.161527,49,273,568,5584
1644163205.054423,-0.011963,0.009949,-0.991699,0.220855,0.417099,0.021679,49,282,572,5552
1644163205.087806,-0.008911,0.01001,-0.993042,0.113985,0.24916,-0.054656,49,270,570,5536
1644163205.136222,-0.011536,0.009277,-0.990723,0.159786,0.294962,-0.069924,52,282,563,5552
1644163205.184723,-0.008728,0.007263,-0.992798,0.266656,0.478168,-0.039389,46,266,573,5600
1644163205.233016,-0.010925,0.011169,-0.993164,0.35826,0.478168,-0.207328,48,271,576,5552
1644163205.281379,-0.010437,0.01062,-0.990906,0.113985,0.340763,-0.085191,51,281,578,5584
1644163205.329757,-0.011475,0.008484,-0.990295,0.205588,0.401832,-0.130992,57,280,575,5584
1644163205.378165,-0.008484,0.009155,-0.991699,0.220855,0.462901,-0.14626,58,283,566,5584
1644163205.426549,-0.01239,0.011353,-0.991028,0.419328,0.432366,-0.14626,51,276,576,5584
1644163205.47492,-0.010315,0.009827,-0.991638,0.236122,0.432366,-0.100458,38,270,575,5520
1644163205.523351,-0.007324,0.009033,-0.991455,0.327725,0.493435,-0.039389,60,266,569,5536
1644163205.572188,-0.01062,0.008423,-0.993652,0.312458,0.462901,-0.085191,46,271,576,5552
1644163205.622567,-0.011475,0.009338,-0.990234,0.205588,0.493435,-0.130992,45,273,575,5552
1644163205.672996,-0.00824,0.006653,-0.991882,0.281924,0.523969,-0.207328,39,281,580,5600
1644163205.717805,-0.010559,0.010437,-0.993591,0.266656,0.24916,-0.161527,57,270,568,5552
1644163205.813687,-0.010193,0.010925,-0.990784,0.297191,0.386565,-0.039389,45,263,572,5584
1644163205.862063,-0.009155,0.008545,-0.993042,0.190321,0.340763,-0.069924,51,276,569,5584
1644163205.910457,-0.009094,0.009888,-0.990051,0.297191,0.356031,-0.069924,55,264,576,5552
1644163205.958836,-0.009521,0.008423,-0.990479,0.190321,0.417099,-0.115725,47,277,572,5536
1644163206.007208,-0.008789,0.008789,-0.994202,0.159786,0.340763,-0.054656,55,271,580,5584
1644163206.055708,-0.010925,0.01355,-0.99292,0.236122,0.478168,-0.069924,45,273,584,5584
1644163206.104015,-0.009705,0.007935,-0.993713,0.236122,0.447634,0.067481,47,275,568,5600
1644163206.152371,-0.006165,0.009521,-0.990784,0.144519,0.447634,-0.115725,55,266,580,5584
1644163206.200755,-0.009094,0.011597,-0.990967,0.220855,0.478168,-0.130992,57,270,575,5536
1644163206.24912,-0.009338,0.009949,-0.991638,0.236122,0.356031,-0.222595,55,286,573,5584
1644163206.297525,-0.010315,0.00946,-0.991272,0.236122,0.432366,-0.085191,53,274,578,5600
1644163206.345925,-0.01123,0.011475,-0.990723,0.327725,0.356031,-0.069924,43,266,587,5584
1644163206.394323,-0.008545,0.011719,-0.989441,0.129252,0.462901,-0.268397,43,276,587,5584
1644163206.442722,-0.008301,0.008484,-0.992554,0.281924,0.539237,-0.024122,41,274,571,5584
1644163206.491084,-0.006714,0.009949,-0.993713,0.281924,0.417099,-0.115725,59,275,582,5632
1644163206.53946,-0.009766,0.008972,-0.992249,0.327725,0.325496,-0.039389,45,275,577,5536
1644163206.587869,-0.008545,0.007202,-0.990051,0.159786,0.539237,-0.14626,53,279,578,5472
1644163206.636262,-0.00885,0.010315,-0.992554,0.35826,0.340763,0.067481,52,280,575,5536
1644163206.68473,-0.008667,0.009155,-0.991333,0.159786,0.493435,-0.192061,49,268,570,5584
1644163206.735183,-0.012085,0.008789,-0.99292,0.220855,0.417099,-0.115725,49,275,575,5584
1644163206.78541,-0.013062,0.009766,-0.991089,0.342992,0.615573,-0.237863,49,275,570,5552
1644163206.830532,-0.013184,0.010193,-0.991394,0.159786,0.233893,-0.130992,46,279,569,5584
1644163206.926629,-0.010071,0.011292,-0.991211,0.236122,0.432366,-0.207328,55,274,571,5584
1644163206.975295,-0.008667,0.010071,-0.991638,0.266656,0.432366,-0.176794,52,275,565,5552
1644163207.023443,-0.00946,0.009949,-0.989502,0.327725,0.493435,-0.069924,53,271,571,5584
1644163207.071894,-0.010559,0.010803,-0.992554,0.190321,0.523969,-0.085191,54,277,577,5584
1644163207.120212,-0.011475,0.010132,-0.992554,0.404061,0.493435,-0.192061,39,276,557,5584
1644163207.168552,-0.012634,0.008911,-0.993286,0.159786,0.417099,0.12855,61,273,575,5536
1644163207.216945,-0.009827,0.010315,-0.994141,0.205588,0.401832,-0.161527,46,269,576,5552
1644163207.265324,-0.009216,0.006653,-0.992188,0.266656,0.447634,-0.14626,49,270,577,5584
1644163207.313732,-0.009338,0.00946,-0.991821,0.266656,0.371298,0.036947,51,274,578,5552
1644163207.362156,-0.009949,0.010803,-0.992676,0.312458,0.508702,-0.085191,49,273,575,5552
1644163207.410511,-0.011292,0.010315,-0.993225,0.144519,0.371298,-0.100458,46,276,578,5536
1644163207.458898,-0.012756,0.009338,-0.992554,0.220855,0.447634,-0.024122,47,280,565,5584
1644163207.507287,-0.011841,0.008423,-0.990479,0.113985,0.371298,-0.192061,54,273,568,5536
1644163207.555674,-0.010437,0.007812,-0.992188,0.297191,0.279695,-0.115725,53,279,578,5584
1644163207.60407,-0.008789,0.00946,-0.99231,0.190321,0.325496,-0.130992,48,279,576,5536
1644163207.652478,-0.015686,0.009521,-0.991577,0.144519,0.401832,-0.192061,52,275,577,5552
1644163207.700835,-0.010376,0.010071,-0.993103,0.205588,0.508702,-0.130992,58,279,576,5600
1644163207.749209,-0.013062,0.006836,-0.992676,0.205588,0.340763,0.021679,54,265,575,5584
1644163207.797632,-0.012512,0.008362,-0.994629,0.190321,0.371298,-0.054656,55,274,580,5552
1644163207.84663,-0.010254,0.008606,-0.992798,0.251389,0.478168,-0.054656,49,275,579,5584
1644163207.897662,-0.010803,0.011658,-0.993347,0.220855,0.371298,-0.161527,45,263,577,5584
1644163207.947865,-0.007019,0.009888,-0.99115,0.434595,0.188092,-0.039389,49,277,582,5488
1644163207.992397,-0.011108,0.008972,-0.991882,0.236122,0.493435,-0.237863,49,277,577,5632
1644163208.090006,-0.009705,0.010803,-0.989197,0.312458,0.417099,-0.14626,59,270,575,5536
1644163208.136391,-0.011963,0.008484,-0.990906,0.220855,0.325496,-0.069924,51,264,566,5584
1644163208.184742,-0.010193,0.006958,-0.992004,0.129252,0.432366,-0.176794,49,265,577,5664
1644163208.233162,-0.008362,0.01001,-0.990723,0.175053,0.523969,-0.100458,49,268,575,5584
1644163208.281509,-0.009705,0.009277,-0.993469,0.236122,0.417099,-0.008855,55,266,583,5536
1644163208.32992,-0.010132,0.01001,-0.989502,0.220855,0.401832,0.036947,55,271,566,5584
1644163208.378289,-0.009705,0.00769,-0.991882,0.205588,0.417099,-0.085191,51,279,578,5536
1644163208.42671,-0.008484,0.010315,-0.992126,0.068183,0.417099,-0.237863,51,279,573,5584
1644163208.475205,-0.008179,0.012146,-0.99176,0.281924,0.447634,-0.069924,53,276,571,5552
1644163208.523487,-0.009583,0.008972,-0.991089,0.159786,0.386565,-0.024122,47,273,572,5536
1644163208.571872,-0.011292,0.014465,-0.993225,0.220855,0.294962,-0.14626,47,275,570,5600
1644163208.620235,-0.010925,0.010071,-0.993225,0.297191,0.478168,-0.222595,47,268,577,5600
1644163208.668644,-0.011292,0.008911,-0.99176,0.175053,0.279695,-0.192061,53,276,576,5536
1644163208.717031,-0.012573,0.008728,-0.992371,0.281924,0.325496,-0.039389,46,264,573,5552
1644163208.765431,-0.012329,0.011475,-0.991211,0.007115,0.417099,-0.192061,62,271,566,5536
1644163208.813813,-0.007263,0.010986,-0.993286,0.190321,0.462901,0.067481,53,274,576,5584
1644163208.862274,-0.01123,0.013,-0.990173,0.190321,0.523969,-0.161527,42,277,577,5536
1644163208.910662,-0.010925,0.007935,-0.99176,0.113985,0.432366,-0.039389,55,276,590,5648
1644163208.960328,-0.010071,0.00946,-0.991455,0.236122,0.325496,0.021679,55,279,578,5520
1644163209.010545,-0.00769,0.008667,-0.991089,0.159786,0.386565,-0.176794,45,265,568,5536
1644163209.069036,-0.008545,0.008972,-0.990356,0.281924,0.447634,-0.115725,49,265,584,5552
1644163209.152643,-0.007812,0.010071,-0.989563,0.297191,0.432366,0.052214,49,275,565,5600
1644163209.200963,-0.008545,0.009705,-0.990601,0.327725,0.478168,-0.115725,53,281,569,5600
1644163209.24937,-0.011047,0.010986,-0.990967,0.373527,0.386565,0.006412,52,277,570,5648
1644163209.297746,-0.00885,0.009338,-0.992371,0.190321,0.417099,-0.14626,52,273,577,5552
1644163209.346155,-0.008606,0.007751,-0.993286,0.373527,0.371298,-0.130992,51,276,566,5584
1644163209.394539,-0.01355,0.011047,-0.990417,0.266656,0.478168,-0.130992,59,275,575,5552
1644163209.442955,-0.010681,0.01178,-0.99176,0.266656,0.340763,-0.237863,46,276,573,5536
1644163209.491338,-0.008118,0.007935,-0.993958,0.281924,0.539237,-0.25313,49,265,575,5552
1644163209.53971,-0.010254,0.007874,-0.991516,0.327725,0.386565,-0.024122,59,282,586,5552
1644163209.588109,-0.010498,0.007568,-0.989624,0.236122,0.432366,-0.024122,52,282,572,5552
1644163209.636465,-0.00946,0.009766,-0.990784,0.052916,0.508702,-0.039389,38,277,575,5520
1644163209.684891,-0.01123,0.012146,-0.992126,0.342992,0.417099,-0.039389,54,275,577,5552
1644163209.733285,-0.008118,0.009216,-0.992004,0.205588,0.478168,0.006412,42,273,577,5600
1644163209.781657,-0.010071,0.011475,-0.99115,0.220855,0.417099,-0.069924,54,270,577,5552
1644163209.830032,-0.009033,0.011597,-0.99176,0.175053,0.401832,-0.115725,49,273,577,5552
1644163209.878449,-0.010315,0.010071,-0.990234,0.312458,0.462901,-0.14626,51,269,576,5632
1644163209.926834,-0.012085,0.01062,-0.992432,0.175053,0.447634,-0.085191,45,275,577,5584
1644163209.975414,-0.012268,0.007996,-0.99115,0.281924,0.325496,-0.268397,60,283,571,5472
1644163210.023884,-0.012085,0.009277,-0.991028,0.297191,0.294962,-0.130992,54,277,575,5552
1644163210.075486,-0.011292,0.010498,-0.990234,0.297191,0.478168,-0.008855,58,271,578,5632
1644163210.124203,-0.009827,0.008667,-0.992371,0.281924,0.615573,-0.085191,55,274,569,5600
1644163210.169075,-0.011047,0.008972,-0.989685,0.236122,0.294962,-0.14626,46,274,573,5536
1644163210.265594,-0.010132,0.010986,-0.992859,0.159786,0.386565,-0.100458,38,277,579,5536
1644163210.313966,-0.011902,0.006042,-0.992737,0.190321,0.447634,0.006412,51,276,569,5584
1644163210.362415,-0.013672,0.008362,-0.993103,0.281924,0.386565,-0.176794,52,273,575,5584
1644163210.410721,-0.008301,0.012512,-0.989563,0.266656,0.432366,-0.14626,41,274,576,5536
1644163210.459128,-0.010559,0.011963,-0.988953,0.281924,0.478168,-0.069924,54,273,565,5584
1644163210.507495,-0.009644,0.011169,-0.993713,0.175053,0.401832,-0.054656,48,274,576,5648
1644163210.555904,-0.009583,0.00824,-0.989624,0.281924,0.478168,-0.176794,42,275,577,5536
1644163210.604297,-0.009888,0.008606,-0.991821,0.281924,0.310229,-0.222595,57,275,575,5536
1644163210.652667,-0.00885,0.009338,-0.991699,0.236122,0.478168,-0.344733,47,273,572,5584
1644163210.70104,-0.008545,0.009644,-0.986816,0.08345,0.447634,-0.161527,51,271,580,5584
1644163210.749472,-0.01062,0.010986,-0.99115,0.175053,0.371298,-0.008855,54,270,575,5600
1644163210.797849,-0.009399,0.010498,-0.987915,0.266656,0.386565,-0.161527,53,271,583,5536
1644163210.846251,-0.012207,0.008484,-0.991455,0.236122,0.478168,-0.176794,41,274,566,5536
1644163210.894645,-0.009033,0.009338,-0.994202,0.175053,0.294962,-0.14626,52,277,572,5584
1644163210.943052,-0.009521,0.008057,-0.991028,0.205588,0.432366,0.082748,54,273,572,5552
1644163210.991417,-0.011353,0.009033,-0.989319,0.068183,0.478168,-0.115725,58,276,580,5600
1644163211.052294,-0.011169,0.006897,-0.992432,0.236122,0.264427,0.067481,65,271,578,5584
1644163211.088126,-0.012268,0.00946,-0.991516,0.327725,0.462901,0.113282,51,274,569,5584
1644163211.136784,-0.010254,0.005554,-0.991516,0.35826,0.539237,-0.069924,52,280,572,5584
1644163211.185679,-0.009644,0.009521,-0.99231,0.190321,0.371298,0.067481,62,271,571,5584
1644163211.236311,-0.010376,0.010437,-0.992432,0.251389,0.447634,-0.054656,57,273,580,5584
1644163211.286431,-0.010681,0.012207,-0.989807,0.312458,0.493435,-0.085191,51,279,583,5536
1644163211.331319,-0.010132,0.010254,-0.990173,0.266656,0.462901,-0.054656,55,283,573,5584
1644163211.426871,-0.00647,0.007202,-0.994568,0.190321,0.508702,-0.069924,49,273,579,5648
1644163211.47542,-0.011169,0.011414,-0.990723,0.327725,0.386565,-0.161527,54,273,575,5536
1644163211.52367,-0.010498,0.01123,-0.992493,0.052916,0.447634,0.006412,48,281,576,5552
1644163211.572052,-0.009827,0.012268,-0.995117,0.35826,0.585038,0.006412,45,275,572,5584
1644163211.620437,-0.008423,0.010315,-0.992676,0.388794,0.447634,-0.069924,57,273,575,5552
1644163211.668826,-0.010559,0.009766,-0.990417,0.205588,0.523969,-0.054656,46,276,573,5584
1644163211.717223,-0.010742,0.010193,-0.991699,0.251389,0.493435,-0.207328,40,277,582,5584
1644163211.765615,-0.013367,0.010193,-0.992859,0.281924,0.539237,-0.161527,55,279,562,5600
1644163211.814057,-0.007751,0.008911,-0.993591,0.266656,0.310229,-0.222595,43,276,580,5584
1644163211.862469,-0.008545,0.011047,-0.991882,0.266656,0.386565,-0.100458,52,277,570,5600
1644163211.91082,-0.008728,0.00946,-0.991455,0.251389,0.447634,-0.008855,53,279,578,5584
1644163211.959191,-0.008423,0.009583,-0.99292,0.266656,0.478168,-0.161527,45,275,575,5536
1644163212.00759,-0.008118,0.007141,-0.991882,0.144519,0.386565,-0.100458,51,271,578,5600
1644163212.080042,-0.012268,0.011841,-0.991882,0.175053,0.417099,-0.100458,53,271,580,5584
1644163212.104351,-0.009155,0.007141,-0.992737,0.297191,0.432366,0.082748,51,276,573,5552
1644163212.15276,-0.013123,0.01062,-0.991394,0.281924,0.447634,-0.237863,55,274,580,5584
1644163212.201121,-0.009827,0.011047,-0.991638,0.098718,0.462901,-0.100458,48,262,580,5536
1644163212.249499,-0.010986,0.009827,-0.993408,0.327725,0.523969,-0.207328,48,276,578,5536
1644163212.298198,-0.012512,0.008057,-0.992859,0.159786,0.401832,-0.130992,55,266,578,5584
1644163212.347084,-0.012024,0.011108,-0.992126,0.327725,0.462901,-0.054656,60,266,576,5600
1644163212.397705,-0.010437,0.008423,-0.992249,0.526198,0.432366,0.098015,55,281,578,5552
1644163212.44778,-0.010559,0.012268,-0.993103,0.220855,0.417099,-0.100458,59,275,579,5584
1644163212.49324,-0.010132,0.00885,-0.99231,0.404061,0.356031,-0.039389,53,269,571,5552
1644163212.588223,-0.013428,0.00946,-0.991821,0.205588,0.478168,-0.039389,49,268,579,5536
1644163212.636621,-0.008545,0.009521,-0.994812,0.251389,0.340763,0.006412,53,266,580,5536
1644163212.685266,-0.009216,0.007019,-0.99054,0.266656,0.371298,-0.130992,55,269,578,5536
1644163212.733429,-0.011169,0.008484,-0.993164,0.144519,0.310229,-0.054656,61,270,577,5584
1644163212.78181,-0.008789,0.005737,-0.992432,0.251389,0.401832,-0.100458,49,280,572,5632
1644163212.830245,-0.009949,0.009644,-0.991516,0.113985,0.508702,-0.115725,48,276,569,5600
1644163212.878634,-0.008118,0.009338,-0.992432,0.190321,0.478168,-0.024122,53,274,576,5536
1644163212.927033,-0.009583,0.011475,-0.991821,0.373527,0.539237,-0.039389,62,279,576,5584
1644163212.975416,-0.011169,0.009338,-0.993347,0.449863,0.340763,0.082748,45,277,575,5584
1644163213.023805,-0.011658,0.01123,-0.99176,0.175053,0.478168,-0.192061,52,280,572,5552
1644163213.072304,-0.011841,0.011108,-0.992981,0.159786,0.401832,-0.039389,47,287,577,5536
1644163213.120542,-0.012756,0.010132,-0.993347,0.281924,0.401832,-0.008855,52,275,575,5584
1644163213.168938,-0.010681,0.011536,-0.990051,0.297191,0.462901,-0.115725,51,281,576,5584
1644163213.217286,-0.012207,0.007751,-0.992065,0.190321,0.401832,-0.008855,51,276,571,5552
1644163213.265725,-0.010986,0.011169,-0.994873,0.251389,0.493435,0.098015,52,285,575,5600
1644163213.314104,-0.009888,0.008789,-0.991638,0.220855,0.401832,-0.161527,59,268,584,5584
1644163213.362522,-0.010498,0.008301,-0.989441,0.251389,0.478168,-0.069924,49,268,579,5600
1644163213.410883,-0.009216,0.009033,-0.991638,0.205588,0.432366,-0.039389,49,273,579,5536
1644163213.459285,-0.009949,0.008545,-0.991943,0.281924,0.24916,-0.039389,47,273,579,5584
1644163213.507887,-0.012329,0.008057,-0.992615,0.113985,0.523969,-0.222595,52,282,572,5632
1644163213.558307,-0.011841,0.012878,-0.993042,0.205588,0.401832,-0.069924,58,276,578,5632
1644163213.608458,-0.008911,0.009399,-0.994202,0.175053,0.401832,-0.36,41,274,580,5552
1644163213.653537,-0.00946,0.010986,-0.991333,0.404061,0.447634,-0.008855,54,273,582,5536
1644163213.749599,-0.008606,0.008118,-0.993286,0.220855,0.432366,-0.069924,47,268,572,5552
1644163213.797989,-0.010864,0.010315,-0.989563,0.113985,0.386565,-0.024122,52,258,575,5552
1644163213.846413,-0.01123,0.009583,-0.98938,0.342992,0.478168,0.082748,53,274,576,5584
1644163213.894835,-0.009216,0.008972,-0.992859,0.297191,0.523969,-0.115725,39,279,578,5536
1644163213.943224,-0.00946,0.010193,-0.990112,0.220855,0.478168,-0.100458,51,266,580,5552
1644163213.991605,-0.011536,0.008301,-0.991882,0.098718,0.432366,-0.100458,53,274,571,5648
1644163214.053099,-0.014221,0.008606,-0.994568,0.159786,0.508702,-0.069924,46,276,578,5584
1644163214.088363,-0.009766,0.009888,-0.99176,0.281924,0.493435,-0.115725,54,277,575,5584
1644163214.136715,-0.010925,0.007751,-0.992004,0.175053,0.462901,-0.237863,43,274,571,5584
1644163214.185146,-0.006897,0.008667,-0.991333,0.236122,0.569771,0.036947,52,273,582,5536
1644163214.233518,-0.012268,0.010681,-0.991272,0.098718,0.401832,-0.085191,55,266,566,5552
1644163214.281899,-0.011475,0.006958,-0.991333,0.281924,0.371298,0.12855,59,275,572,5488
1644163214.330296,-0.010925,0.008606,-0.989563,0.220855,0.417099,-0.130992,48,281,576,5584
1644163214.37869,-0.010681,0.01001,-0.992432,0.266656,0.386565,-0.039389,42,275,572,5600
1644163214.427073,-0.010193,0.01062,-0.992249,0.175053,0.462901,-0.039389,59,270,572,5536
1644163214.475432,-0.009521,0.010132,-0.991638,0.388794,0.523969,-0.100458,58,283,576,5552
1644163214.523853,-0.010803,0.00769,-0.99054,0.327725,0.447634,-0.024122,51,274,576,5536
1644163214.572581,-0.009583,0.010254,-0.990356,0.175053,0.493435,-0.039389,45,280,568,5536
1644163214.620654,-0.006775,0.009827,-0.993896,0.236122,0.493435,-0.054656,52,275,568,5552
1644163214.670439,-0.008362,0.010254,-0.991699,0.342992,0.325496,-0.237863,52,263,575,5536
1644163214.720654,-0.011414,0.007568,-0.991272,0.251389,0.432366,-0.008855,47,270,577,5536
1644163214.770838,-0.011292,0.00769,-0.992432,0.281924,0.371298,-0.329466,43,276,564,5536
1644163214.862643,-0.011719,0.009583,-0.993774,0.236122,0.294962,-0.207328,49,275,582,5584
1644163214.910998,-0.010498,0.009766,-0.994751,0.342992,0.539237,-0.130992,49,275,575,5536
1644163214.959399,-0.009949,0.009399,-0.989746,0.129252,0.478168,-0.085191,52,263,579,5584
1644163215.007767,-0.009888,0.009216,-0.99408,0.281924,0.432366,-0.14626,59,282,575,5552
1644163215.056836,-0.010071,0.009277,-0.990662,0.205588,0.493435,-0.100458,58,269,583,5584
1644163215.104719,-0.010315,0.009644,-0.989624,0.205588,0.493435,-0.024122,57,270,575,5536
1644163215.15291,-0.012634,0.011414,-0.991821,0.266656,0.356031,-0.039389,51,274,569,5536
1644163215.201316,-0.011414,0.008606,-0.992859,0.312458,0.447634,-0.268397,62,264,580,5536
1644163215.249687,-0.01123,0.009888,-0.990845,0.113985,0.218626,-0.115725,45,277,575,5632
1644163215.298097,-0.009583,0.009583,-0.992432,0.236122,0.356031,-0.237863,54,277,572,5536
1644163215.346456,-0.008301,0.009033,-0.994507,0.236122,0.539237,-0.283664,36,269,578,5552
1644163215.394891,-0.012268,0.010132,-0.991516,0.205588,0.523969,-0.085191,57,273,570,5600
1644163215.443281,-0.012573,0.00647,-0.992859,0.205588,0.432366,-0.207328,43,274,573,5600
1644163215.491798,-0.009216,0.011353,-0.991699,0.175053,0.371298,0.006412,52,273,568,5536
1644163215.540047,-0.010254,0.010315,-0.987671,0.236122,0.310229,-0.008855,42,280,572,5536
1644163215.588436,-0.01239,0.008606,-0.992249,0.281924,0.432366,0.159084,48,274,576,5536
1644163215.636826,-0.008606,0.012512,-0.990784,0.190321,0.447634,0.098015,39,266,576,5552
1644163215.685238,-0.007996,0.00769,-0.991638,0.190321,0.432366,-0.085191,58,281,578,5552
1644163215.733592,-0.013611,0.012085,-0.993042,0.251389,0.417099,-0.054656,48,279,576,5584
1644163215.782211,-0.011963,0.009338,-0.990601,0.342992,0.447634,-0.207328,53,281,587,5520
1644163215.833974,-0.009949,0.007446,-0.991211,0.190321,0.478168,-0.008855,35,265,575,5520
1644163215.883998,-0.010986,0.007385,-0.993225,0.281924,0.523969,-0.100458,43,274,573,5520
1644163215.928616,-0.009766,0.011658,-0.992188,0.35826,0.432366,-0.008855,53,271,573,5552
1644163216.024003,-0.010986,0.008972,-0.989563,0.281924,0.432366,-0.176794,52,265,570,5584
1644163216.075722,-0.007446,0.009033,-0.994202,0.342992,0.417099,-0.054656,49,273,586,5536
1644163216.120761,-0.010742,0.01239,-0.99353,0.190321,0.417099,-0.008855,52,273,572,5584
1644163216.169117,-0.01123,0.009949,-0.992798,0.236122,0.585038,0.006412,58,269,578,5520
1644163216.217508,-0.011536,0.007935,-0.994812,0.327725,0.417099,-0.069924,35,270,577,5584
1644163216.265877,-0.010132,0.00946,-0.992676,0.327725,0.386565,-0.008855,57,270,584,5552
1644163216.314297,-0.009155,0.010254,-0.992126,0.144519,0.508702,-0.283664,46,279,580,5584
1644163216.362665,-0.009705,0.009216,-0.990845,0.327725,0.356031,-0.024122,48,266,573,5664
1644163216.41107,-0.009705,0.007507,-0.993225,0.190321,0.310229,-0.008855,43,274,566,5584
1644163216.45946,-0.011169,0.007996,-0.992065,0.190321,0.325496,-0.100458,62,271,576,5552
1644163216.507852,-0.010681,0.009644,-0.992615,0.236122,0.493435,-0.207328,52,277,577,5584
1644163216.556239,-0.010803,0.009155,-0.992126,0.342992,0.340763,-0.115725,46,266,566,5536
1644163216.606597,-0.009644,0.008423,-0.992188,0.312458,0.371298,-0.069924,52,282,575,5520
1644163216.653053,-0.012451,0.00824,-0.989807,0.342992,0.462901,-0.176794,58,271,585,5536
1644163216.701413,-0.008545,0.007812,-0.990356,0.129252,0.294962,-0.130992,57,273,572,5552
1644163216.749801,-0.008545,0.010376,-0.988647,0.251389,0.432366,-0.161527,51,271,578,5552
1644163216.798163,-0.011475,0.007568,-0.993347,0.144519,0.386565,-0.024122,43,271,576,5584
1644163216.846783,-0.012573,0.011414,-0.992432,0.052916,0.386565,-0.14626,48,274,580,5536
1644163216.895489,-0.01239,0.008911,-0.995178,0.297191,0.478168,0.052214,46,274,576,5600
1644163216.945582,-0.00885,0.011719,-0.992493,0.175053,0.386565,0.036947,51,271,571,5536
1644163217.053789,-0.010071,0.005981,-0.993591,0.251389,0.462901,0.067481,45,280,565,5584
1644163217.088529,-0.012024,0.00824,-0.991943,0.251389,0.294962,-0.069924,49,285,582,5648
1644163217.136932,-0.012024,0.009155,-0.994507,0.236122,0.478168,-0.192061,48,257,576,5632
1644163217.185293,-0.009277,0.011169,-0.993347,0.129252,0.417099,-0.054656,51,279,585,5584
1644163217.233698,-0.012573,0.00946,-0.990173,0.190321,0.401832,-0.14626,49,282,577,5552
1644163217.282217,-0.010437,0.011169,-0.99292,0.266656,0.508702,0.067481,48,269,576,5584
1644163217.330482,-0.010803,0.008423,-0.992188,0.144519,0.401832,-0.222595,58,274,578,5584
1644163217.378872,-0.00769,0.010742,-0.991882,0.342992,0.539237,-0.130992,54,280,575,5600
1644163217.427253,-0.01062,0.008423,-0.991577,0.251389,0.356031,-0.237863,59,268,586,5584
1644163217.476416,-0.011353,0.009216,-0.991577,0.175053,0.310229,0.021679,52,273,584,5600
1644163217.524059,-0.010986,0.009155,-0.993286,0.388794,0.600305,-0.100458,48,279,590,5536
1644163217.572452,-0.01178,0.009583,-0.991943,0.205588,0.432366,-0.237863,49,268,577,5584
1644163217.620827,-0.007202,0.007507,-0.992188,0.373527,0.432366,-0.085191,45,273,579,5600
1644163217.671262,-0.011414,0.009949,-0.993835,0.159786,0.401832,-0.130992,55,275,575,5536
1644163217.721453,-0.010132,0.010071,-0.990356,0.08345,0.356031,-0.024122,49,275,577,5536
1644163217.766541,-0.010437,0.01062,-0.992676,0.373527,0.371298,-0.176794,53,269,576,5600
1644163217.862816,-0.010986,0.008606,-0.988464,0.281924,0.478168,0.006412,51,281,571,5584
1644163217.911191,-0.011841,0.009644,-0.99292,0.159786,0.417099,0.006412,53,276,571,5648
1644163217.959549,-0.010559,0.009338,-0.99231,0.251389,0.432366,-0.192061,43,274,576,5488
1644163218.007972,-0.009094,0.011414,-0.994019,0.159786,0.523969,-0.085191,52,270,575,5552
1644163218.059651,-0.013184,0.009827,-0.991211,0.266656,0.340763,-0.176794,51,281,573,5584
1644163218.104806,-0.013123,0.009399,-0.992554,0.251389,0.432366,-0.069924,47,260,572,5584
1644163218.153134,-0.010193,0.010559,-0.991211,0.312458,0.356031,0.006412,47,277,570,5552
1644163218.201557,-0.009949,0.011536,-0.992249,0.251389,0.325496,-0.130992,46,274,573,5584
1644163218.249905,-0.011414,0.010864,-0.991882,0.144519,0.371298,-0.192061,46,286,562,5600
1644163218.298313,-0.011292,0.01062,-0.991882,0.266656,0.478168,-0.207328,57,290,572,5584
1644163218.346693,-0.012207,0.011475,-0.990845,0.190321,0.310229,-0.069924,58,271,585,5584
1644163218.395234,-0.008057,0.010742,-0.992737,0.35826,0.600305,-0.100458,47,275,572,5552
1644163218.443506,-0.010193,0.009644,-0.993042,0.175053,0.279695,-0.161527,45,275,589,5552
1644163218.492307,-0.010803,0.012268,-0.99176,-0.038687,0.462901,-0.14626,51,271,571,5552
1644163218.540267,-0.009949,0.013489,-0.992554,0.144519,0.417099,0.143817,46,281,571,5536
1644163218.58866,-0.011536,0.008728,-0.99231,0.175053,0.371298,-0.130992,46,276,580,5536
1644163218.637064,-0.007996,0.010376,-0.994446,0.205588,0.478168,-0.024122,49,282,575,5600
1644163218.685489,-0.009094,0.009277,-0.991211,0.236122,0.508702,-0.14626,58,271,578,5536
1644163218.734365,-0.01062,0.008667,-0.994812,0.297191,0.401832,-0.115725,48,276,576,5584
1644163218.784343,-0.011841,0.010315,-0.993835,0.327725,0.417099,-0.130992,36,281,576,5600
1644163218.834557,-0.009399,0.008789,-0.990417,0.312458,0.508702,-0.268397,53,279,583,5536
1644163218.884538,-0.008545,0.010376,-0.991882,0.35826,0.417099,-0.14626,57,251,584,5552
1644163218.975764,-0.012024,0.008484,-0.992249,0.35826,0.340763,-0.039389,57,273,579,5536
1644163219.024185,-0.008911,0.010071,-0.993286,0.175053,0.417099,-0.054656,51,276,573,5584
1644163219.075067,-0.009644,0.010315,-0.993835,0.373527,0.356031,0.021679,53,271,585,5536
1644163219.120917,-0.007935,0.008789,-0.991333,0.220855,0.340763,0.036947,49,270,572,5632
1644163219.169302,-0.009277,0.010986,-0.991333,0.144519,0.264427,-0.207328,58,269,569,5536
1644163219.217698,-0.011536,0.009705,-0.98999,0.312458,0.371298,-0.054656,52,275,570,5600
1644163219.266084,-0.00824,0.010193,-0.98999,0.388794,0.493435,-0.085191,46,269,580,5584
1644163219.314486,-0.010315,0.010315,-0.992981,0.312458,0.478168,-0.14626,48,274,583,5536
1644163219.362877,-0.01123,0.010132,-0.991028,0.297191,0.478168,-0.161527,45,273,572,5584
1644163219.411259,-0.011169,0.012512,-0.991455,0.205588,0.417099,-0.115725,51,283,573,5584
1644163219.459642,-0.009888,0.010437,-0.992737,0.144519,0.432366,0.052214,54,273,575,5552
1644163219.508023,-0.01001,0.008911,-0.993469,0.144519,0.401832,-0.192061,51,274,569,5600
1644163219.556445,-0.011047,0.01062,-0.992004,0.220855,0.523969,0.036947,46,269,569,5552
1644163219.604844,-0.012512,0.009949,-0.993835,0.281924,0.493435,-0.069924,51,276,569,5600
1644163219.653232,-0.011536,0.008118,-0.990967,0.312458,0.356031,-0.069924,52,273,584,5584
1644163219.701585,-0.009705,0.006714,-0.99054,0.327725,0.401832,-0.039389,58,269,576,5488
1644163219.749971,-0.009155,0.010681,-0.989807,0.113985,0.279695,-0.085191,58,271,571,5584
1644163219.798419,-0.010193,0.008911,-0.993225,0.236122,0.508702,0.006412,52,275,572,5552
1644163219.846812,-0.010986,0.008728,-0.991211,0.159786,0.417099,-0.024122,52,270,577,5488
1644163219.895841,-0.011597,0.006409,-0.992737,0.220855,0.493435,-0.161527,47,273,572,5552
1644163219.946856,-0.010681,0.010559,-0.99115,0.297191,0.447634,-0.14626,53,279,573,5584
1644163219.996765,-0.009827,0.010559,-0.992004,0.373527,0.432366,-0.085191,42,287,579,5536
1644163220.050209,-0.009033,0.007019,-0.98999,0.190321,0.325496,-0.115725,55,274,578,5520
1644163220.137096,-0.009033,0.008057,-0.991821,0.144519,0.371298,-0.039389,55,276,571,5600
1644163220.185479,-0.010071,0.009705,-0.993225,0.388794,0.371298,-0.176794,57,275,579,5552
1644163220.233878,-0.01123,0.007568,-0.991943,0.159786,0.401832,-0.115725,65,279,578,5648
1644163220.282384,-0.009705,0.012878,-0.992798,0.220855,0.493435,-0.176794,48,274,573,5600
1644163220.330657,-0.011169,0.006775,-0.994202,0.236122,0.447634,-0.008855,47,277,582,5600
1644163220.379044,-0.010254,0.008972,-0.989929,0.113985,0.508702,-0.054656,43,276,571,5536
1644163220.42745,-0.006348,0.009888,-0.992432,0.388794,0.508702,-0.039389,47,273,570,5536
1644163220.475833,-0.010315,0.00647,-0.994324,0.281924,0.325496,-0.100458,48,274,569,5584
1644163220.524243,-0.01239,0.010132,-0.993713,0.312458,0.371298,-0.085191,46,276,576,5552
1644163220.572636,-0.009216,0.009399,-0.992126,0.281924,0.325496,-0.161527,42,273,575,5584
1644163220.621021,-0.012024,0.009644,-0.991272,0.175053,0.386565,-0.085191,60,276,573,5552
1644163220.669419,-0.00824,0.009277,-0.99115,0.068183,0.356031,-0.176794,61,275,572,5536
1644163220.717799,-0.011536,0.010132,-0.992188,0.236122,0.386565,-0.100458,41,274,576,5536
1644163220.766161,-0.009583,0.009094,-0.990723,0.342992,0.508702,0.067481,58,279,564,5600
1644163220.814659,-0.009277,0.007996,-0.992798,0.220855,0.585038,-0.054656,52,275,570,5600
1644163220.863002,-0.010803,0.009644,-0.993774,0.098718,0.401832,-0.14626,58,276,576,5584
1644163220.911395,-0.010132,0.011108,-0.99115,0.35826,0.386565,-0.176794,49,275,572,5584
1644163220.959778,-0.01123,0.007812,-0.993225,0.266656,0.554504,-0.100458,46,279,571,5552
1644163221.008192,-0.012451,0.014404,-0.993958,0.175053,0.371298,-0.130992,55,271,580,5536
1644163221.073506,-0.009766,0.008667,-0.989807,0.113985,0.539237,0.021679,57,280,568,5536
1644163221.110601,-0.010681,0.008362,-0.994568,0.251389,0.447634,-0.085191,48,269,578,5520
1644163221.15421,-0.010742,0.008118,-0.993042,0.190321,0.386565,-0.039389,42,275,572,5584
1644163221.250086,-0.01001,0.007385,-0.98999,0.327725,0.569771,-0.008855,58,276,566,5536
1644163221.298453,-0.011169,0.007019,-0.990051,0.022382,0.493435,0.036947,53,271,580,5600
1644163221.34684,-0.013245,0.008362,-0.990601,0.281924,0.508702,-0.176794,55,274,580,5552
1644163221.395235,-0.007568,0.008301,-0.990784,0.388794,0.493435,-0.054656,49,282,565,5600
1644163221.44365,-0.012817,0.009094,-0.990784,0.449863,0.401832,-0.130992,51,274,576,5584
1644163221.492376,-0.008057,0.00885,-0.991089,0.220855,0.386565,-0.176794,55,276,569,5648
1644163221.540432,-0.010254,0.008484,-0.992981,0.220855,0.371298,-0.25313,46,279,571,5600
1644163221.588797,-0.013367,0.009583,-0.992615,0.190321,0.386565,-0.176794,59,263,575,5584
1644163221.637208,-0.008301,0.008484,-0.988647,0.129252,0.386565,-0.161527,57,270,565,5584
1644163221.685597,-0.009338,0.009949,-0.990723,0.129252,0.264427,0.006412,51,279,578,5632
1644163221.734006,-0.009399,0.009644,-0.992737,0.35826,0.371298,-0.130992,41,286,573,5552
1644163221.782394,-0.008728,0.009766,-0.991699,0.098718,0.554504,-0.14626,58,269,578,5584
1644163221.830771,-0.009827,0.008789,-0.994019,0.159786,0.493435,-0.069924,47,270,568,5552
1644163221.879164,-0.010742,0.005981,-0.991272,0.327725,0.325496,-0.268397,47,277,575,5552
1644163221.927588,-0.011169,0.007996,-0.993408,0.297191,0.340763,-0.100458,47,270,575,5600
1644163221.975977,-0.009277,0.010315,-0.993347,0.327725,0.493435,0.067481,52,280,565,5552
1644163222.024364,-0.010742,0.007996,-0.992615,0.480397,0.462901,-0.161527,54,280,579,5552
1644163222.081009,-0.01178,0.009033,-0.98822,0.281924,0.371298,-0.085191,42,270,584,5552
1644163222.124312,-0.01062,0.009216,-0.992798,0.266656,0.294962,-0.100458,47,270,575,5648
1644163222.172583,-0.009521,0.008911,-0.992737,0.236122,0.279695,-0.054656,55,281,566,5536
1644163222.223,-0.012146,0.009644,-0.990417,0.190321,0.386565,0.006412,58,281,580,5600
1644163222.314863,-0.011658,0.011414,-0.992432,0.068183,0.447634,0.082748,57,273,579,5584
1644163222.363062,-0.010559,0.01001,-0.994141,0.236122,0.294962,-0.14626,49,270,575,5600
1644163222.411437,-0.011902,0.007446,-0.991211,0.129252,0.462901,-0.130992,53,276,569,5584
1644163222.459809,-0.011292,0.00824,-0.992615,0.175053,0.447634,-0.085191,39,269,571,5552
1644163222.50821,-0.012451,0.009338,-0.995056,0.159786,0.523969,-0.024122,47,268,570,5552
1644163222.556605,-0.008118,0.008667,-0.991211,0.098718,0.371298,-0.008855,53,274,573,5600
1644163222.605052,-0.009705,0.007568,-0.99176,0.251389,0.493435,-0.115725,45,273,579,5584
1644163222.653406,-0.009583,0.008301,-0.990662,0.266656,0.447634,-0.329466,55,283,583,5584
1644163222.701793,-0.013611,0.010071,-0.991394,0.297191,0.554504,-0.039389,55,276,578,5552
1644163222.750149,-0.011169,0.009705,-0.99292,0.190321,0.493435,-0.085191,47,273,568,5600
1644163222.798537,-0.01178,0.009399,-0.992859,0.281924,0.417099,0.12855,46,276,566,5536
1644163222.84699,-0.013855,0.008545,-0.993896,0.113985,0.386565,0.052214,60,271,569,5584
1644163222.895367,-0.009216,0.010864,-0.991089,0.480397,0.447634,-0.237863,58,271,580,5552
1644163222.943772,-0.008606,0.008179,-0.993042,0.281924,0.417099,-0.130992,53,276,573,5488
1644163222.992183,-0.008362,0.008667,-0.993713,0.373527,0.417099,-0.085191,52,265,579,5552
1644163223.052353,-0.012878,0.007263,-0.991333,0.205588,0.401832,-0.115725,47,270,577,5552
1644163223.08892,-0.011597,0.008362,-0.990051,0.281924,0.371298,-0.085191,46,276,576,5584
1644163223.137299,-0.009094,0.007629,-0.991455,0.251389,0.340763,-0.115725,43,271,580,5600
1644163223.185934,-0.009949,0.011475,-0.990112,0.327725,0.371298,-0.207328,47,268,572,5600
1644163223.235037,-0.012207,0.007446,-0.99054,0.342992,0.523969,-0.100458,46,266,576,5536
1644163223.285673,-0.010376,0.005798,-0.992554,0.266656,0.356031,-0.161527,52,273,577,5584
1644163223.335485,-0.00946,0.00769,-0.992676,0.312458,0.462901,-0.054656,46,274,571,5584
1644163223.380472,-0.009827,0.008667,-0.991089,0.113985,0.417099,-0.115725,41,271,576,5584
1644163223.476014,-0.013245,0.01062,-0.993286,0.342992,0.340763,-0.085191,53,281,569,5584
1644163223.524414,-0.011841,0.009338,-0.99176,0.266656,0.478168,-0.14626,46,283,571,5472
1644163223.572807,-0.009583,0.009155,-0.990417,0.281924,0.386565,-0.039389,51,279,578,5648
1644163223.62119,-0.010986,0.011475,-0.991394,0.281924,0.554504,-0.039389,65,271,566,5584
1644163223.669582,-0.01001,0.009094,-0.991943,0.205588,0.310229,-0.069924,53,269,578,5648
1644163223.717953,-0.01001,0.009155,-0.992981,0.205588,0.417099,0.052214,53,286,573,5584
1644163223.766365,-0.011658,0.008423,-0.991699,0.159786,0.63084,-0.100458,40,268,570,5584
1644163223.81476,-0.011108,0.008911,-0.993713,0.342992,0.508702,-0.024122,43,276,571,5552
1644163223.863202,-0.008911,0.009399,-0.992065,0.327725,0.340763,-0.25313,53,264,573,5584
1644163223.911571,-0.009155,0.010498,-0.991638,0.08345,0.401832,-0.069924,46,276,573,5600
1644163223.95997,-0.009827,0.009155,-0.991577,0.205588,0.401832,-0.039389,54,275,579,5600
1644163224.008341,-0.010986,0.009827,-0.992737,0.236122,0.447634,-0.176794,45,273,577,5584
1644163224.073114,-0.011841,0.008423,-0.99176,0.129252,0.462901,-0.161527,42,275,570,5520
1644163224.105283,-0.008545,0.009277,-0.99353,0.266656,0.432366,0.006412,52,275,582,5600
1644163224.153499,-0.00824,0.011047,-0.991638,0.190321,0.24916,0.006412,48,286,585,5584
1644163224.201903,-0.01123,0.007935,-0.992981,0.159786,0.432366,-0.314198,53,286,578,5536
1644163224.250243,-0.009827,0.010193,-0.991577,0.312458,0.432366,-0.130992,45,268,570,5584
1644163224.298657,-0.01239,0.010254,-0.992126,0.236122,0.462901,0.036947,61,273,561,5536
1644163224.347046,-0.009033,0.01178,-0.994263,0.281924,0.432366,-0.069924,51,271,583,5536
1644163224.395656,-0.01123,0.010315,-0.991699,0.266656,0.569771,-0.039389,52,275,568,5536
1644163224.445797,-0.010742,0.00885,-0.992798,0.251389,0.478168,-0.161527,55,274,573,5552
1644163224.496838,-0.008606,0.009338,-0.992188,0.419328,0.371298,-0.283664,54,270,570,5520
1644163224.541203,-0.011108,0.008667,-0.991455,0.190321,0.493435,-0.024122,55,274,583,5584
1644163224.637384,-0.012878,0.00885,-0.992249,0.297191,0.279695,-0.207328,47,273,572,5584
1644163224.685764,-0.011719,0.008423,-0.991516,0.159786,0.493435,-0.14626,41,269,571,5552
1644163224.734168,-0.008911,0.012817,-0.992615,0.190321,0.264427,-0.268397,52,275,572,5584
1644163224.782564,-0.011292,0.009155,-0.990601,0.129252,0.432366,-0.115725,60,269,569,5536
1644163224.830952,-0.010742,0.007385,-0.99353,0.220855,0.523969,-0.161527,53,276,578,5552
1644163224.879384,-0.009277,0.008728,-0.99115,0.098718,0.371298,-0.161527,47,275,577,5536
1644163224.92775,-0.011108,0.011353,-0.993652,0.251389,0.447634,-0.192061,60,283,578,5584
1644163224.976155,-0.00946,0.009155,-0.994812,0.251389,0.508702,-0.039389,53,266,569,5600
1644163225.024561,-0.00885,0.012024,-0.992737,0.297191,0.325496,-0.054656,48,276,576,5648
1644163225.073315,-0.008972,0.009521,-0.990356,0.113985,0.310229,-0.130992,42,270,582,5600
1644163225.121336,-0.011047,0.008362,-0.989502,0.113985,0.340763,-0.14626,46,276,578,5536
1644163225.169689,-0.010437,0.009399,-0.990845,0.342992,0.356031,-0.192061,53,281,571,5584
1644163225.218063,-0.008789,0.00946,-0.990967,0.312458,0.356031,-0.115725,47,280,570,5536
1644163225.266467,-0.012146,0.009949,-0.99176,0.251389,0.447634,-0.069924,57,275,579,5600
1644163225.314859,-0.00885,0.010071,-0.991211,0.251389,0.432366,-0.115725,64,273,572,5600
1644163225.363265,-0.012024,0.01178,-0.992004,0.236122,0.417099,0.098015,58,274,571,5536
1644163225.411644,-0.009583,0.00946,-0.994141,0.236122,0.432366,-0.161527,51,281,578,5536
1644163225.460021,-0.008301,0.010315,-0.993652,0.205588,0.386565,-0.130992,49,273,575,5584
1644163225.508703,-0.012024,0.007812,-0.993713,0.236122,0.432366,-0.054656,46,271,573,5584
1644163225.559208,-0.011414,0.00238,-0.994019,0.388794,0.294962,-0.008855,48,271,566,5536
1644163225.609383,-0.010132,0.00946,-0.993774,0.327725,0.447634,-0.176794,58,279,573,5584
1644163225.654337,-0.010742,0.011292,-0.990051,0.052916,0.569771,-0.25313,47,270,572,5536
1644163225.750374,-0.007263,0.009277,-0.992432,0.327725,0.508702,-0.069924,51,279,580,5584
1644163225.798749,-0.011047,0.008057,-0.990845,0.205588,0.233893,-0.085191,49,275,570,5536
1644163225.847146,-0.013184,0.009399,-0.990906,0.220855,0.508702,-0.14626,52,275,582,5600
1644163225.895584,-0.010742,0.008301,-0.994141,0.434595,0.462901,-0.069924,43,274,578,5536
1644163225.943991,-0.012451,0.008484,-0.99176,0.281924,0.386565,-0.054656,54,275,572,5584
1644163225.992372,-0.008667,0.007019,-0.991577,0.266656,0.340763,0.006412,43,279,573,5600
1644163226.05302,-0.009338,0.009399,-0.993225,0.342992,0.462901,-0.161527,58,262,578,5584
1644163226.089088,-0.008911,0.009644,-0.991821,0.205588,0.371298,-0.161527,61,265,579,5552
1644163226.137519,-0.009705,0.006836,-0.991028,0.342992,0.539237,-0.069924,46,271,573,5584
1644163226.18591,-0.010193,0.008545,-0.992371,0.190321,0.508702,-0.008855,54,275,570,5648
1644163226.234287,-0.011902,0.007874,-0.991455,0.373527,0.523969,-0.069924,53,271,571,5584
1644163226.282678,-0.011719,0.006897,-0.994202,0.236122,0.371298,-0.039389,55,274,583,5648
1644163226.331086,-0.009033,0.009521,-0.993103,0.113985,0.294962,-0.207328,47,277,582,5584
1644163226.379485,-0.009766,0.011047,-0.992188,0.159786,0.478168,-0.115725,61,280,582,5600
1644163226.427864,-0.00946,0.008362,-0.990295,0.098718,0.447634,0.006412,47,275,589,5584
1644163226.476299,-0.010315,0.00885,-0.991394,0.236122,0.432366,0.052214,43,274,576,5536
1644163226.524791,-0.012146,0.009644,-0.99408,0.312458,0.432366,-0.100458,46,266,580,5584
1644163226.575423,-0.009521,0.010376,-0.992798,0.190321,0.417099,-0.008855,51,271,580,5584
1644163226.625607,-0.012573,0.009216,-0.992432,0.205588,0.417099,-0.039389,64,280,572,5584
1644163226.670108,-0.011353,0.007141,-0.989624,0.251389,0.294962,-0.115725,49,277,575,5600
1644163226.766616,-0.009766,0.008972,-0.99176,0.220855,0.432366,-0.130992,52,277,582,5584
1644163226.815262,-0.009216,0.009521,-0.990112,0.113985,0.447634,-0.268397,41,266,564,5536
1644163226.863398,-0.010193,0.008545,-0.990356,0.190321,0.417099,-0.192061,53,276,569,5552
1644163226.91176,-0.011841,0.006836,-0.991516,0.342992,0.325496,-0.115725,52,280,579,5584
1644163226.960176,-0.010437,0.010315,-0.990601,0.144519,0.523969,-0.192061,48,269,576,5648
1644163227.008554,-0.010437,0.009949,-0.991028,0.190321,0.233893,-0.100458,60,279,585,5600
1644163227.058277,-0.011963,0.010132,-0.990662,0.342992,0.539237,-0.085191,48,266,573,5600
1644163227.105285,-0.009094,0.007996,-0.993652,0.052916,0.356031,-0.069924,53,271,578,5584
1644163227.153684,-0.010193,0.007629,-0.994995,0.312458,0.432366,-0.115725,47,277,577,5520
1644163227.202067,-0.01123,0.006775,-0.991089,0.190321,0.508702,-0.085191,42,275,577,5584
1644163227.250448,-0.011292,0.009827,-0.99115,0.190321,0.493435,-0.039389,55,274,578,5552
1644163227.298842,-0.009583,0.007141,-0.993286,0.373527,0.401832,0.036947,51,274,571,5600
1644163227.347239,-0.01062,0.009766,-0.990417,0.404061,0.356031,-0.100458,47,270,586,5600
1644163227.39561,-0.011353,0.008606,-0.991699,0.129252,0.508702,-0.298931,59,268,575,5584
1644163227.443993,-0.011841,0.008179,-0.991699,0.373527,0.569771,0.021679,55,274,578,5600
1644163227.492408,-0.010193,0.008789,-0.992554,0.35826,0.417099,-0.237863,51,276,587,5536
1644163227.5408,-0.012451,0.005798,-0.995239,0.144519,0.569771,-0.161527,54,275,575,5552
1644163227.589165,-0.010376,0.010925,-0.991394,0.251389,0.447634,-0.115725,60,274,578,5584
1644163227.637579,-0.009583,0.011169,-0.993408,0.220855,0.340763,-0.115725,53,274,571,5584
1644163227.686467,-0.008606,0.009766,-0.993958,0.373527,0.447634,-0.008855,55,274,576,5584
1644163227.73701,-0.009705,0.008789,-0.992188,0.190321,0.523969,-0.024122,59,273,570,5584
1644163227.787298,-0.01178,0.012451,-0.993958,0.113985,0.401832,-0.039389,53,274,569,5552
1644163227.832455,-0.00769,0.009338,-0.991638,0.190321,0.356031,-0.024122,53,271,576,5536
1644163227.927959,-0.011719,0.009521,-0.992188,0.236122,0.447634,-0.100458,55,266,571,5584
1644163227.976344,-0.006531,0.010437,-0.991333,0.236122,0.432366,-0.069924,58,271,566,5584
1644163228.024756,-0.00946,0.00885,-0.98999,0.190321,0.432366,-0.085191,38,275,568,5600
1644163228.073199,-0.008423,0.009888,-0.991516,0.236122,0.371298,-0.039389,46,276,576,5536
1644163228.121466,-0.012207,0.00885,-0.99115,0.205588,0.340763,-0.100458,48,274,569,5632
1644163228.169871,-0.00946,0.011108,-0.991333,0.007115,0.569771,-0.039389,51,274,569,5600
1644163228.218253,-0.01001,0.008545,-0.990295,0.373527,0.508702,-0.130992,48,281,585,5600
1644163228.266654,-0.009705,0.011169,-0.993103,0.205588,0.600305,0.021679,49,270,572,5536
1644163228.319371,-0.010803,0.007874,-0.992615,0.526198,0.432366,0.006412,48,274,573,5600
1644163228.363441,-0.012146,0.008728,-0.990417,0.205588,0.386565,-0.039389,58,276,578,5584
1644163228.411818,-0.00885,0.008057,-0.994202,0.312458,0.233893,0.006412,48,279,583,5552
1644163228.460218,-0.012024,0.009094,-0.989807,0.190321,0.447634,0.082748,43,279,585,5584
1644163228.508584,-0.012939,0.010376,-0.993713,0.159786,0.386565,-0.192061,52,280,584,5584
1644163228.557,-0.007751,0.007874,-0.992493,0.388794,0.493435,0.036947,60,269,580,5488
1644163228.605374,-0.010925,0.009705,-0.992737,0.205588,0.493435,-0.176794,45,273,575,5600
1644163228.653767,-0.010254,0.008972,-0.992126,0.205588,0.386565,-0.115725,54,273,575,5536
1644163228.702178,-0.010742,0.010376,-0.99054,0.327725,0.325496,-0.268397,45,273,572,5584
1644163228.750523,-0.009094,0.011047,-0.990112,0.236122,0.417099,-0.039389,52,273,582,5584
1644163228.798985,-0.007812,0.008057,-0.991089,0.205588,0.432366,-0.115725,49,268,593,5632
1644163228.849168,-0.010742,0.00946,-0.99176,0.434595,0.401832,-0.14626,51,266,590,5600
1644163228.899322,-0.012451,0.009277,-0.98938,0.144519,0.386565,-0.054656,48,271,580,5600
1644163228.949635,-0.010498,0.008606,-0.992859,0.220855,0.340763,-0.085191,47,282,582,5584
1644163229.050065,-0.008728,0.011047,-0.992676,0.205588,0.401832,-0.024122,51,274,578,5536
1644163229.089311,-0.011292,0.009766,-0.995728,0.144519,0.371298,-0.039389,58,274,576,5536
1644163229.137665,-0.010254,0.008606,-0.992798,0.205588,0.478168,-0.207328,55,279,578,5552
1644163229.186067,-0.01062,0.008057,-0.990662,0.312458,0.310229,-0.069924,58,276,580,5536
1644163229.234462,-0.007935,0.006714,-0.990662,0.251389,0.417099,0.021679,48,269,571,5536
1644163229.282835,-0.01239,0.009827,-0.990723,0.342992,0.310229,-0.069924,61,273,582,5584
1644163229.331241,-0.007446,0.008728,-0.992188,0.312458,0.478168,-0.100458,52,273,568,5552
1644163229.379639,-0.009338,0.005737,-0.99054,0.098718,0.371298,-0.069924,51,281,564,5552
1644163229.428023,-0.011414,0.010254,-0.994202,0.113985,0.447634,-0.024122,51,274,571,5600
1644163229.476416,-0.011169,0.010315,-0.993225,0.129252,0.462901,-0.161527,51,271,580,5584
1644163229.524772,-0.010071,0.012939,-0.991699,0.205588,0.417099,-0.008855,54,268,582,5552
1644163229.573184,-0.012634,0.011475,-0.991516,0.236122,0.585038,-0.039389,54,282,570,5552
1644163229.621567,-0.006165,0.009644,-0.993286,0.175053,0.340763,-0.161527,49,270,589,5584
1644163229.670077,-0.012695,0.012146,-0.993958,0.434595,0.554504,-0.115725,64,270,575,5552
1644163229.718916,-0.013306,0.009155,-0.993713,0.251389,0.432366,-0.008855,46,269,578,5584
1644163229.769564,-0.007996,0.010925,-0.99115,0.129252,0.432366,0.052214,51,274,576,5520
1644163229.820084,-0.011047,0.009033,-0.991089,0.281924,0.523969,0.113282,61,273,577,5584
1644163229.864903,-0.01123,0.008972,-0.996887,0.08345,0.523969,-0.130992,43,274,576,5584
1644163229.960339,-0.011841,0.011108,-0.991089,0.266656,0.478168,-0.069924,49,273,579,5600
1644163230.008719,-0.009644,0.008606,-0.994446,0.144519,0.493435,-0.268397,48,279,569,5600
1644163230.057246,-0.010132,0.009338,-0.990295,0.220855,0.417099,0.082748,55,271,580,5552
1644163230.105517,-0.007996,0.008667,-0.991089,0.419328,0.478168,-0.14626,41,264,578,5552
1644163230.153878,-0.009827,0.009583,-0.992126,0.205588,0.493435,-0.25313,54,265,572,5536
1644163230.202278,-0.010681,0.011169,-0.992981,0.251389,0.493435,0.021679,51,269,573,5472
1644163230.250633,-0.009827,0.010193,-0.991089,0.251389,0.356031,-0.268397,48,266,571,5552
1644163230.29904,-0.012085,0.007385,-0.990784,0.220855,0.447634,-0.069924,43,276,578,5648
1644163230.347437,-0.009338,0.009216,-0.993774,0.297191,0.447634,-0.054656,45,273,570,5552
1644163230.395855,-0.009277,0.006775,-0.993591,0.388794,0.310229,-0.176794,61,277,577,5584
1644163230.444203,-0.010315,0.012329,-0.992004,0.236122,0.325496,-0.176794,49,275,572,5552
1644163230.492589,-0.009033,0.008606,-0.99231,0.190321,0.478168,-0.298931,47,280,572,5552
1644163230.540982,-0.008911,0.009338,-0.994141,0.205588,0.569771,0.036947,49,275,582,5600
1644163230.589378,-0.00885,0.009888,-0.98999,0.159786,0.218626,-0.069924,51,269,590,5584
1644163230.637764,-0.012146,0.00824,-0.992188,0.205588,0.386565,-0.024122,45,290,579,5584
1644163230.686165,-0.010071,0.010986,-0.992432,0.251389,0.615573,-0.054656,47,280,579,5552
1644163230.734539,-0.008118,0.009155,-0.990417,0.037649,0.401832,-0.115725,53,281,571,5600
1644163230.78295,-0.009888,0.010376,-0.991821,0.312458,0.508702,-0.161527,58,274,585,5536
1644163230.831366,-0.009705,0.008789,-0.992188,0.251389,0.371298,-0.207328,49,280,575,5648
1644163230.880801,-0.013062,0.012329,-0.992981,0.190321,0.401832,0.052214,49,275,572,5584
1644163230.931343,-0.010071,0.011414,-0.990173,0.159786,0.447634,0.021679,39,274,576,5552
1644163230.981645,-0.011902,0.009338,-0.993225,0.388794,0.447634,-0.222595,62,276,576,5536
1644163231.026294,-0.012085,0.008789,-0.994751,0.190321,0.340763,-0.039389,45,263,568,5552
1644163231.121687,-0.011414,0.014038,-0.993225,0.312458,0.432366,0.036947,51,269,578,5520
1644163231.170059,-0.011353,0.011169,-0.992798,0.281924,0.432366,-0.14626,46,276,576,5520
1644163231.218448,-0.011475,0.010376,-0.991333,0.175053,0.478168,-0.069924,45,273,579,5536
1644163231.266839,-0.011658,0.009094,-0.991028,0.388794,0.264427,-0.176794,47,268,570,5552
1644163231.315227,-0.00946,0.011597,-0.991394,0.342992,0.371298,0.052214,51,266,571,5552
1644163231.363626,-0.009766,0.009949,-0.990479,0.281924,0.417099,-0.14626,51,283,578,5536
1644163231.412016,-0.01239,0.011841,-0.99115,0.236122,0.462901,0.021679,43,274,573,5536
1644163231.460405,-0.008789,0.009338,-0.989197,0.327725,0.325496,0.021679,53,271,569,5536
1644163231.50879,-0.01001,0.009277,-0.990784,0.205588,0.279695,-0.222595,52,273,577,5536
1644163231.557158,-0.009216,0.009888,-0.990479,0.297191,0.523969,-0.130992,53,274,578,5552
1644163231.605564,-0.010498,0.007874,-0.989197,0.266656,0.478168,-0.192061,52,277,572,5536
1644163231.653977,-0.012146,0.011719,-0.991943,0.129252,0.478168,-0.024122,47,273,582,5536
1644163231.702337,-0.011414,0.009094,-0.992188,0.297191,0.478168,-0.115725,48,266,576,5552
1644163231.750743,-0.010071,0.011047,-0.98999,0.220855,0.478168,-0.192061,49,282,589,5584
1644163231.799133,-0.011658,0.010864,-0.990112,0.251389,0.508702,-0.176794,53,276,571,5600
1644163231.847562,-0.005798,0.00946,-0.992432,0.297191,0.432366,-0.039389,45,280,584,5648
1644163231.895953,-0.008484,0.010315,-0.992065,0.205588,0.294962,0.006412,47,277,577,5632
1644163231.944627,-0.010681,0.007751,-0.993347,0.297191,0.432366,-0.085191,35,270,577,5696
1644163232.046238,-0.00885,0.01239,-0.990662,0.159786,0.432366,-0.024122,62,266,578,5552
1644163232.089499,-0.012085,0.009399,-0.993591,0.266656,0.478168,-0.054656,59,277,572,5520
1644163232.137897,-0.011597,0.008362,-0.990723,0.236122,0.417099,-0.14626,53,266,571,5552
1644163232.186267,-0.012756,0.012878,-0.991882,0.373527,0.432366,-0.207328,45,263,577,5536
1644163232.234646,-0.012573,0.008301,-0.990234,0.342992,0.462901,-0.085191,45,273,561,5536
1644163232.283048,-0.01178,0.006714,-0.992676,0.144519,0.417099,-0.024122,58,264,580,5552
1644163232.331427,-0.008423,0.010559,-0.988953,0.35826,0.569771,-0.268397,47,268,575,5584
1644163232.379817,-0.011719,0.007874,-0.990479,0.175053,0.325496,0.067481,53,276,585,5552
1644163232.428207,-0.014404,0.011414,-0.991272,0.281924,0.340763,-0.008855,66,275,579,5584
1644163232.476593,-0.01062,0.009827,-0.990479,0.297191,0.478168,0.006412,57,282,579,5488
1644163232.525089,-0.010437,0.011475,-0.992737,0.281924,0.478168,-0.14626,42,265,575,5600
1644163232.573372,-0.010986,0.011414,-0.991821,0.297191,0.386565,-0.14626,48,269,583,5600
1644163232.621739,-0.01123,0.009338,-0.991394,0.098718,0.218626,-0.069924,46,274,566,5600
1644163232.670152,-0.011414,0.008301,-0.99231,0.297191,0.462901,-0.085191,51,269,580,5600
1644163232.718539,-0.00824,0.006897,-0.99231,0.190321,0.462901,0.021679,47,275,577,5584
1644163232.766934,-0.012024,0.009644,-0.993896,0.312458,0.356031,-0.115725,58,274,583,5584
1644163232.815711,-0.011292,0.010071,-0.989807,0.129252,0.539237,0.006412,57,273,579,5584
1644163232.866903,-0.010315,0.010254,-0.991821,0.022382,0.356031,-0.054656,57,275,582,5584
1644163232.917427,-0.010132,0.009521,-0.992615,0.342992,0.340763,-0.008855,55,266,576,5552
1644163232.961849,-0.009644,0.007751,-0.992676,0.220855,0.386565,-0.039389,57,275,584,5584
1644163233.057403,-0.010559,0.009888,-0.992126,0.129252,0.493435,-0.085191,48,276,580,5552
1644163233.105666,-0.009949,0.00885,-0.990662,0.35826,0.478168,-0.054656,54,277,582,5536
1644163233.154062,-0.010559,0.009155,-0.99408,0.312458,0.401832,-0.192061,43,274,576,5584
1644163233.202461,-0.00769,0.008972,-0.992004,0.251389,0.386565,-0.054656,58,276,571,5584
1644163233.250823,-0.009155,0.007202,-0.993225,0.312458,0.386565,-0.100458,55,269,576,5536
1644163233.299218,-0.010925,0.011292,-0.99115,0.281924,0.539237,-0.039389,57,265,572,5584
1644163233.347612,-0.00946,0.01001,-0.990234,0.388794,0.493435,0.006412,70,264,573,5536
1644163233.39601,-0.007629,0.009094,-0.992126,0.251389,0.523969,-0.069924,54,280,577,5600
1644163233.444404,-0.011047,0.009033,-0.990417,0.129252,0.462901,-0.085191,48,266,571,5600
1644163233.49281,-0.007629,0.009949,-0.990417,0.266656,0.432366,0.036947,51,274,566,5552
1644163233.541169,-0.012085,0.009705,-0.991394,0.022382,0.508702,0.098015,48,269,576,5536
1644163233.589563,-0.012451,0.006836,-0.98999,0.266656,0.417099,-0.085191,47,275,575,5600
1644163233.637946,-0.010193,0.010498,-0.994324,0.068183,0.432366,0.052214,52,280,570,5552
1644163233.686342,-0.010132,0.009399,-0.992432,0.190321,0.691908,-0.314198,46,269,587,5584
1644163233.734752,-0.014099,0.010193,-0.989136,0.373527,0.325496,-0.130992,54,282,582,5536
1644163233.78319,-0.008118,0.009155,-0.991638,0.419328,0.401832,-0.039389,64,285,570,5584
1644163233.831534,-0.010498,0.009155,-0.993042,0.113985,0.478168,-0.14626,48,276,571,5552
1644163233.880222,-0.010559,0.00946,-0.994324,0.419328,0.478168,-0.039389,42,277,579,5584
1644163233.928366,-0.011414,0.008972,-0.991455,0.312458,0.401832,-0.14626,53,274,578,5600
1644163233.978353,-0.009216,0.008972,-0.992554,0.190321,0.386565,-0.008855,54,280,577,5584
1644163234.028307,-0.010986,0.010986,-0.990784,0.220855,0.478168,-0.100458,54,270,579,5632
1644163234.121885,-0.009216,0.009644,-0.99054,0.159786,0.478168,-0.222595,51,276,583,5648
1644163234.17024,-0.008667,0.011292,-0.993103,0.205588,0.279695,-0.14626,41,276,569,5536
1644163234.218611,-0.009827,0.010559,-0.996643,0.159786,0.371298,-0.085191,49,277,572,5600
1644163234.267027,-0.011292,0.006958,-0.992493,0.251389,0.462901,-0.069924,47,277,575,5632
1644163234.315416,-0.013,0.010254,-0.992004,0.129252,0.493435,-0.207328,53,279,576,5600
1644163234.363813,-0.010498,0.007385,-0.99231,0.266656,0.417099,-0.039389,47,268,577,5536
1644163234.412227,-0.00946,0.007324,-0.992432,0.175053,0.508702,-0.069924,58,281,571,5600
1644163234.460577,-0.011475,0.010742,-0.992065,0.35826,0.447634,-0.024122,53,271,573,5600
1644163234.508986,-0.006592,0.009583,-0.99176,0.113985,0.264427,-0.024122,48,281,573,5584
1644163234.557374,-0.008728,0.009827,-0.992188,0.236122,0.356031,-0.237863,43,276,580,5600
1644163234.605764,-0.01123,0.010132,-0.989197,0.251389,0.294962,-0.283664,46,269,573,5520
1644163234.654166,-0.01001,0.01239,-0.99176,0.266656,0.340763,-0.14626,51,271,578,5552
1644163234.702563,-0.008972,0.008667,-0.994019,0.312458,0.417099,-0.161527,48,266,571,5552
1644163234.750936,-0.008667,0.006897,-0.991516,0.297191,0.462901,-0.192061,52,273,582,5584
1644163234.799378,-0.010925,0.010315,-0.991272,0.190321,0.371298,-0.115725,57,277,575,5536
1644163234.847716,-0.010071,0.012512,-0.99231,0.129252,0.462901,-0.115725,59,277,572,5584
1644163234.896136,-0.010803,0.008057,-0.99231,0.052916,0.340763,0.067481,52,273,584,5584
1644163234.944517,-0.011841,0.011597,-0.99054,0.312458,0.478168,-0.054656,51,274,573,5584
1644163234.992951,-0.010498,0.013306,-0.993713,0.068183,0.401832,-0.008855,46,274,576,5600
1644163235.056031,-0.01001,0.007874,-0.991516,0.388794,0.233893,-0.100458,51,274,571,5632
1644163235.092924,-0.012024,0.008423,-0.992126,0.251389,0.508702,-0.069924,48,281,583,5584
1644163235.14228,-0.010925,0.007751,-0.992676,0.236122,0.325496,0.021679,47,265,586,5552
1644163235.187269,-0.010925,0.008118,-0.991943,0.266656,0.386565,-0.085191,49,273,575,5584
1644163235.283243,-0.008484,0.010315,-0.991272,0.281924,0.401832,-0.039389,55,279,569,5520
1644163235.331609,-0.010803,0.011475,-0.993408,0.327725,0.371298,-0.130992,52,280,561,5584
1644163235.38,-0.013,0.011841,-0.992981,0.205588,0.478168,-0.008855,51,269,578,5552
1644163235.428389,-0.011536,0.01001,-0.991943,0.312458,0.447634,-0.069924,51,274,564,5488
1644163235.476749,-0.00824,0.007446,-0.993713,0.251389,0.447634,-0.069924,52,275,579,5584
1644163235.525232,-0.007507,0.013184,-0.992065,0.297191,0.417099,-0.100458,49,263,561,5600
1644163235.573573,-0.007324,0.010681,-0.990906,0.312458,0.432366,0.052214,46,281,578,5552
1644163235.621963,-0.010315,0.009399,-0.992065,0.327725,0.447634,-0.115725,53,276,576,5648
1644163235.670351,-0.011841,0.007263,-0.989563,0.404061,0.493435,-0.161527,54,275,582,5552
1644163235.718741,-0.007751,0.008423,-0.993164,0.281924,0.218626,0.006412,47,277,584,5584
1644163235.76713,-0.009399,0.007019,-0.992249,0.113985,0.371298,-0.130992,47,270,575,5632
1644163235.815567,-0.009338,0.008484,-0.993591,0.159786,0.233893,-0.222595,48,269,580,5536
1644163235.863959,-0.010681,0.01178,-0.992981,0.205588,0.462901,0.021679,51,271,576,5584
1644163235.912443,-0.008545,0.010986,-0.991516,0.373527,0.356031,-0.14626,43,281,576,5584
1644163235.960718,-0.010803,0.00946,-0.989929,0.159786,0.264427,-0.069924,41,274,576,5584
1644163236.009196,-0.009644,0.011841,-0.989868,0.342992,0.401832,-0.207328,52,273,575,5600
1644163236.074809,-0.007446,0.010986,-0.990356,0.190321,0.417099,-0.008855,55,276,590,5600
1644163236.106742,-0.013,0.010071,-0.990295,0.205588,0.371298,-0.024122,47,275,572,5520
1644163236.15604,-0.007996,0.010681,-0.992676,0.281924,0.340763,-0.176794,52,263,575,5584
1644163236.206042,-0.011292,0.00647,-0.991699,0.220855,0.417099,-0.069924,59,273,584,5584
1644163236.251399,-0.00769,0.009033,-0.991943,0.190321,0.233893,-0.008855,52,280,577,5536
1644163236.347812,-0.009888,0.010254,-0.993469,0.266656,0.508702,-0.069924,59,273,577,5536
1644163236.396171,-0.009277,0.009705,-0.991577,0.312458,0.401832,-0.176794,61,265,575,5600
1644163236.444824,-0.009521,0.013489,-0.99054,0.342992,0.493435,-0.085191,59,270,577,5488
1644163236.492971,-0.00946,0.010315,-0.993408,0.281924,0.340763,-0.14626,58,269,578,5584
1644163236.541358,-0.009827,0.010681,-0.992554,0.144519,0.325496,0.021679,46,274,569,5600
1644163236.589748,-0.012085,0.008179,-0.992981,0.190321,0.432366,-0.039389,48,279,576,5584
1644163236.638148,-0.012451,0.008911,-0.994263,0.266656,0.478168,-0.085191,60,279,578,5584
1644163236.686538,-0.009094,0.010742,-0.991699,0.236122,0.417099,-0.085191,48,274,578,5584
1644163236.734915,-0.013062,0.008118,-0.993164,0.297191,0.401832,-0.130992,46,279,578,5600
1644163236.783324,-0.011963,0.012939,-0.991882,0.205588,0.493435,-0.298931,57,273,572,5536
1644163236.831754,-0.00946,0.009277,-0.99115,0.342992,0.478168,-0.039389,43,281,573,5600
1644163236.88013,-0.012207,0.005981,-0.993774,0.205588,0.493435,0.021679,45,270,570,5552
1644163236.928527,-0.009033,0.009583,-0.992981,0.190321,0.447634,0.036947,47,268,570,5600
1644163236.976918,-0.009338,0.009583,-0.989258,0.159786,0.401832,-0.268397,52,265,575,5536
1644163237.025317,-0.00946,0.00769,-0.991577,0.312458,0.325496,-0.207328,46,276,573,5536
1644163237.073791,-0.00708,0.01123,-0.991882,0.251389,0.371298,-0.176794,53,271,576,5536
1644163237.122064,-0.009644,0.008423,-0.993835,0.251389,0.539237,-0.14626,59,270,575,5472
1644163237.170408,-0.010925,0.008301,-0.99176,0.159786,0.386565,-0.14626,58,279,580,5552
1644163237.218843,-0.01001,0.009949,-0.991516,0.220855,0.401832,-0.069924,54,265,568,5600
1644163237.267697,-0.00946,0.010864,-0.989197,0.251389,0.493435,-0.085191,51,269,573,5536
1644163237.318727,-0.011536,0.010742,-0.99231,0.098718,0.401832,-0.130992,52,275,570,5584
1644163237.368389,-0.013245,0.009155,-0.991943,0.297191,0.523969,-0.207328,55,274,573,5520
1644163237.413334,-0.011047,0.010376,-0.990356,0.404061,0.371298,0.052214,43,269,576,5520
1644163237.509162,-0.012146,0.007507,-0.992615,0.144519,0.493435,-0.054656,54,282,577,5600
1644163237.557538,-0.011536,0.008789,-0.992188,0.297191,0.462901,-0.115725,51,266,583,5584
1644163237.605928,-0.009338,0.007935,-0.99231,0.297191,0.417099,0.021679,51,269,571,5552
1644163237.65434,-0.010071,0.009216,-0.991272,0.266656,0.447634,-0.283664,49,277,568,5536
1644163237.702732,-0.011169,0.006592,-0.992065,0.297191,0.356031,-0.008855,49,270,575,5600
1644163237.751114,-0.012573,0.008789,-0.99353,0.190321,0.462901,-0.14626,46,274,573,5648
1644163237.799495,-0.011353,0.010498,-0.993103,0.190321,0.325496,0.082748,52,265,579,5584
1644163237.847949,-0.011658,0.009949,-0.990845,0.190321,0.539237,-0.008855,41,269,587,5552
1644163237.896331,-0.010498,0.008606,-0.989624,0.281924,0.478168,-0.222595,55,279,569,5648
1644163237.944743,-0.006897,0.010376,-0.98938,0.266656,0.432366,-0.176794,48,271,576,5600
1644163237.993138,-0.011475,0.008484,-0.993774,0.327725,0.432366,-0.054656,49,275,575,5536
1644163238.050429,-0.010681,0.008728,-0.992676,0.419328,0.462901,-0.069924,52,270,577,5552
1644163238.089876,-0.009583,0.006226,-0.994629,0.312458,0.462901,-0.115725,55,271,571,5584
1644163238.138253,-0.013367,0.009521,-0.992554,0.113985,0.447634,0.082748,49,273,579,5536
1644163238.186626,-0.009277,0.007996,-0.993958,0.205588,0.447634,-0.039389,54,268,575,5552
1644163238.235216,-0.013733,0.010986,-0.993713,0.449863,0.386565,-0.039389,61,277,575,5552
1644163238.283386,-0.012512,0.008789,-0.991882,0.342992,0.340763,-0.069924,61,277,577,5552
1644163238.33181,-0.008789,0.010132,-0.991577,0.266656,0.554504,-0.100458,48,279,580,5584
1644163238.380485,-0.012024,0.010071,-0.992126,0.190321,0.447634,-0.375267,43,274,578,5584
1644163238.431095,-0.012573,0.010376,-0.994324,0.251389,0.325496,-0.085191,47,290,577,5552
1644163238.481086,-0.008911,0.00708,-0.992859,0.266656,0.356031,-0.161527,47,275,572,5584
1644163238.5263,-0.008911,0.010437,-0.991089,0.205588,0.24916,-0.115725,46,271,578,5552
1644163238.622476,-0.009705,0.009399,-0.992615,0.220855,0.569771,-0.024122,55,283,569,5552
1644163238.670533,-0.009827,0.006958,-0.992798,0.312458,0.447634,-0.207328,52,270,568,5584
1644163238.718923,-0.010864,0.009033,-0.992676,0.297191,0.523969,-0.14626,54,275,577,5584
1644163238.767304,-0.009766,0.01062,-0.991699,0.236122,0.233893,-0.024122,43,262,585,5600
1644163238.815696,-0.013916,0.007874,-0.993225,0.251389,0.417099,-0.054656,60,269,569,5648
1644163238.864133,-0.013062,0.008728,-0.991943,0.190321,0.401832,-0.115725,51,271,571,5584
1644163238.912531,-0.008728,0.00824,-0.98999,0.404061,0.218626,-0.192061,48,266,569,5584
1644163238.960903,-0.009094,0.010864,-0.988037,0.312458,0.493435,-0.130992,49,265,582,5584
1644163239.009305,-0.01123,0.009888,-0.991943,0.098718,0.462901,-0.085191,55,271,576,5520
1644163239.060832,-0.012207,0.008118,-0.990417,0.129252,0.478168,-0.25313,51,271,578,5536
1644163239.106086,-0.01178,0.010559,-0.990601,0.281924,0.294962,-0.039389,54,277,579,5552
1644163239.154449,-0.011108,0.008118,-0.990356,0.175053,0.386565,-0.039389,45,280,582,5600
1644163239.202833,-0.008301,0.012939,-0.990845,0.205588,0.478168,-0.268397,46,264,573,5648
1644163239.251225,-0.009949,0.01062,-0.990173,0.312458,0.539237,-0.115725,55,286,576,5584
1644163239.299593,-0.008606,0.009155,-0.991455,0.312458,0.462901,-0.14626,47,275,575,5536
1644163239.347984,-0.008545,0.00885,-0.990967,0.251389,0.447634,-0.039389,59,280,582,5552
1644163239.396373,-0.010315,0.01062,-0.99231,0.144519,0.569771,-0.222595,59,273,589,5600
1644163239.444784,-0.009155,0.011292,-0.990601,0.205588,0.371298,-0.024122,52,265,575,5536
1644163239.493222,-0.010925,0.009399,-0.991699,0.251389,0.340763,-0.100458,45,275,579,5488
1644163239.541781,-0.009888,0.011108,-0.992676,0.144519,0.371298,0.006412,59,277,586,5536
1644163239.592281,-0.010742,0.011169,-0.992126,0.266656,0.554504,-0.085191,54,282,575,5552
1644163239.642522,-0.008362,0.008728,-0.991882,0.312458,0.401832,-0.039389,46,266,573,5536
1644163239.687503,-0.010193,0.01001,-0.991333,0.297191,0.462901,-0.069924,51,269,569,5600
1644163239.783509,-0.010193,0.009705,-0.99353,0.144519,0.401832,-0.130992,64,270,575,5632
1644163239.831881,-0.010864,0.007996,-0.991455,0.35826,0.294962,-0.192061,59,270,577,5584
1644163239.880305,-0.008301,0.012878,-0.992004,0.312458,0.539237,0.036947,46,276,578,5600
1644163239.928704,-0.011658,0.008545,-0.994934,0.220855,0.447634,-0.100458,55,266,566,5552
1644163239.977094,-0.009888,0.00824,-0.993347,0.251389,0.462901,-0.161527,52,260,575,5584
1644163240.025498,-0.010681,0.006958,-0.989929,0.266656,0.371298,0.036947,38,275,582,5536
1644163240.078518,-0.010925,0.009338,-0.992126,0.175053,0.417099,-0.222595,53,269,578,5584
1644163240.122308,-0.011597,0.01239,-0.990479,0.175053,0.447634,-0.14626,53,276,585,5552
1644163240.170628,-0.009644,0.009521,-0.990845,0.297191,0.462901,-0.268397,49,275,568,5584
1644163240.219012,-0.010132,0.009766,-0.99054,0.113985,0.447634,0.021679,64,277,565,5584
1644163240.267411,-0.00885,0.006531,-0.991394,0.327725,0.447634,-0.14626,58,269,573,5584
1644163240.315759,-0.009155,0.010376,-0.993164,0.236122,0.356031,-0.100458,54,280,575,5552
1644163240.364173,-0.011658,0.010681,-0.993408,0.388794,0.478168,-0.207328,59,275,584,5536
1644163240.412588,-0.01062,0.008301,-0.994141,0.388794,0.508702,-0.192061,57,277,579,5584
1644163240.46096,-0.009521,0.010437,-0.992188,0.236122,0.447634,-0.115725,43,274,573,5552
1644163240.509402,-0.008972,0.009399,-0.991577,0.251389,0.447634,-0.100458,53,271,573,5600
1644163240.558251,-0.010742,0.013,-0.98999,0.098718,0.478168,-0.115725,51,269,573,5584
1644163240.608784,-0.01123,0.009827,-0.990906,0.266656,0.447634,-0.100458,51,274,578,5520
1644163240.659298,-0.009277,0.011719,-0.990356,0.190321,0.386565,-0.039389,55,269,564,5600
1644163240.703858,-0.011169,0.007568,-0.989685,0.373527,0.493435,-0.222595,51,274,564,5600
1644163240.79969,-0.010986,0.007446,-0.990967,0.205588,0.523969,-0.024122,43,274,576,5584
1644163240.848067,-0.009277,0.009399,-0.991638,0.159786,0.493435,0.067481,47,268,568,5600
1644163240.896518,-0.009888,0.009827,-0.992615,0.35826,0.310229,-0.024122,66,273,577,5536
1644163240.944899,-0.012756,0.011963,-0.992126,0.251389,0.569771,-0.130992,64,270,582,5584
1644163240.993304,-0.010071,0.011292,-0.99054,0.190321,0.401832,-0.069924,57,275,582,5600
1644163241.050438,-0.010071,0.007996,-0.993469,0.205588,0.417099,-0.115725,57,273,575,5536
1644163241.090074,-0.010132,0.011841,-0.990112,0.236122,0.432366,-0.069924,42,273,584,5584
1644163241.13844,-0.010193,0.010193,-0.988647,0.175053,0.432366,-0.039389,54,268,582,5552
1644163241.186865,-0.006897,0.008545,-0.99292,0.159786,0.417099,-0.024122,41,264,569,5600
1644163241.235345,-0.010498,0.008667,-0.989075,0.297191,0.417099,-0.161527,54,275,570,5584
1644163241.283616,-0.007629,0.010681,-0.989197,0.175053,0.325496,-0.085191,59,285,570,5520
1644163241.332034,-0.011841,0.009583,-0.992981,0.266656,0.386565,-0.130992,48,276,580,5488
1644163241.380422,-0.008606,0.008545,-0.989075,0.327725,0.569771,-0.161527,46,274,578,5552
1644163241.428813,-0.007446,0.009888,-0.99353,0.297191,0.401832,-0.085191,51,266,580,5552
1644163241.477212,-0.009094,0.010986,-0.992737,0.297191,0.325496,-0.115725,54,268,575,5552
1644163241.525595,-0.011475,0.010681,-0.99054,0.144519,0.432366,-0.192061,42,265,579,5600
1644163241.574326,-0.011414,0.009827,-0.992859,0.297191,0.523969,0.006412,51,276,571,5600
1644163241.622411,-0.010742,0.00769,-0.992432,0.266656,0.386565,0.021679,53,271,564,5552
1644163241.672568,-0.008545,0.00946,-0.991882,0.312458,0.539237,-0.115725,57,273,579,5600
1644163241.722744,-0.010742,0.010803,-0.993347,0.190321,0.371298,-0.192061,47,280,579,5536
1644163241.772983,-0.009705,0.014587,-0.99292,0.342992,0.417099,-0.176794,47,273,582,5600
1644163241.817752,-0.01001,0.00946,-0.992065,0.266656,0.401832,-0.008855,55,269,578,5600
1644163241.91272,-0.01123,0.009216,-0.990051,0.220855,0.462901,-0.130992,51,274,562,5552
1644163241.961102,-0.009827,0.011353,-0.994385,0.266656,0.462901,-0.085191,51,274,576,5584
1644163242.009465,-0.008545,0.007751,-0.990112,0.281924,0.493435,-0.039389,43,269,585,5632
1644163242.057969,-0.008423,0.007874,-0.992554,0.08345,0.523969,-0.008855,45,268,575,5536
1644163242.106236,-0.010071,0.005615,-0.993652,0.144519,0.294962,-0.25313,46,276,580,5552
1644163242.154829,-0.009888,0.012573,-0.991333,0.220855,0.523969,-0.069924,42,273,577,5584
1644163242.203035,-0.007141,0.009033,-0.991699,0.220855,0.356031,-0.161527,45,280,579,5520
1644163242.251379,-0.012573,0.010132,-0.991577,0.373527,0.432366,-0.115725,48,274,573,5584
1644163242.299782,-0.008118,0.009644,-0.992798,0.388794,0.462901,-0.115725,48,271,578,5648
1644163242.348185,-0.01178,0.009338,-0.992004,0.251389,0.371298,-0.192061,46,276,566,5536
1644163242.39654,-0.010742,0.010315,-0.991821,0.007115,0.447634,-0.14626,34,276,576,5584
1644163242.445094,-0.00824,0.007935,-0.990234,0.205588,0.493435,-0.329466,61,270,575,5584
1644163242.49334,-0.012573,0.011169,-0.990112,0.327725,0.432366,-0.237863,53,279,571,5536
1644163242.541749,-0.010254,0.012329,-0.993286,0.175053,0.432366,-0.298931,47,280,582,5536
1644163242.590138,-0.012756,0.010986,-0.989136,0.266656,0.325496,-0.314198,55,271,571,5600
1644163242.63852,-0.008179,0.009155,-0.993408,0.190321,0.447634,-0.115725,51,283,576,5536
1644163242.686913,-0.010071,0.012024,-0.990173,0.175053,0.493435,-0.237863,43,264,571,5584
1644163242.735295,-0.010986,0.010864,-0.995483,0.129252,0.508702,-0.008855,58,271,573,5520
1644163242.78373,-0.008972,0.007812,-0.994019,0.266656,0.554504,-0.161527,48,271,578,5536
1644163242.833655,-0.009827,0.008301,-0.992065,0.205588,0.493435,-0.024122,52,268,568,5648
1644163242.883742,-0.010437,0.011719,-0.989014,0.297191,0.386565,-0.115725,46,264,569,5600
1644163242.933823,-0.008667,0.006775,-0.990784,0.190321,0.493435,-0.222595,43,279,569,5584
1644163242.978637,-0.009399,0.008179,-0.992188,0.159786,0.462901,-0.176794,54,275,577,5552
1644163243.07682,-0.012146,0.007812,-0.991882,0.281924,0.493435,-0.100458,52,277,582,5520
1644163243.122425,-0.008362,0.010437,-0.991211,0.266656,0.401832,-0.14626,52,277,586,5536
1644163243.170817,-0.010132,0.009155,-0.992554,0.404061,0.371298,-0.024122,47,268,568,5584
1644163243.219193,-0.009888,0.010132,-0.992188,0.190321,0.493435,-0.069924,48,271,573,5552
1644163243.267602,-0.011047,0.007141,-0.992981,0.220855,0.264427,-0.161527,52,275,577,5552
1644163243.315981,-0.010437,0.008057,-0.992615,0.312458,0.386565,-0.192061,59,270,575,5552
1644163243.364384,-0.011414,0.008667,-0.99176,0.236122,0.264427,-0.008855,57,273,572,5584
1644163243.412784,-0.013428,0.007812,-0.990784,0.007115,0.386565,-0.161527,49,273,568,5632
1644163243.461219,-0.01001,0.007629,-0.991089,0.327725,0.401832,-0.100458,45,282,591,5600
1644163243.509546,-0.011597,0.010681,-0.990662,0.205588,0.386565,-0.283664,53,271,576,5696
1644163243.557941,-0.010376,0.007446,-0.988586,0.190321,0.401832,-0.069924,53,271,571,5648
1644163243.606329,-0.012268,0.00647,-0.990662,0.220855,0.447634,-0.130992,47,275,582,5584
1644163243.654725,-0.010193,0.009705,-0.991943,0.373527,0.585038,-0.100458,53,274,590,5552
1644163243.703092,-0.012329,0.010681,-0.990906,0.281924,0.371298,-0.207328,46,274,578,5552
1644163243.75146,-0.010803,0.008423,-0.992249,0.190321,0.447634,-0.054656,53,271,583,5552
1644163243.7999,-0.008667,0.009399,-0.991028,0.373527,0.417099,-0.024122,52,268,582,5584
1644163243.848657,-0.009338,0.012024,-0.992126,0.236122,0.539237,-0.14626,48,283,571,5536
1644163243.896732,-0.008484,0.00885,-0.991638,0.312458,0.447634,-0.192061,58,271,564,5520
1644163243.946636,-0.012756,0.009521,-0.992188,0.327725,0.539237,-0.222595,49,268,575,5584
1644163243.997273,-0.011414,0.011047,-0.991577,0.35826,0.554504,-0.024122,48,276,583,5664
1644163244.090217,-0.010376,0.010925,-0.99176,0.281924,0.340763,-0.100458,46,283,571,5552
1644163244.138616,-0.010315,0.008911,-0.989929,0.342992,0.539237,-0.085191,55,271,578,5552
1644163244.18699,-0.012268,0.006653,-0.988647,0.327725,0.417099,0.036947,49,275,575,5552
1644163244.235419,-0.011047,0.008362,-0.989197,0.205588,0.432366,0.036947,45,280,582,5536
1644163244.283798,-0.009277,0.009338,-0.991943,0.159786,0.386565,-0.069924,42,273,563,5488
1644163244.332231,-0.010193,0.010742,-0.994934,0.312458,0.478168,-0.100458,60,269,569,5552
1644163244.380572,-0.008789,0.010925,-0.991394,0.236122,0.356031,-0.25313,45,270,572,5552
1644163244.428957,-0.00824,0.009705,-0.993347,0.373527,0.508702,-0.176794,52,273,572,5552
1644163244.477324,-0.00885,0.009338,-0.992615,0.068183,0.386565,0.021679,51,269,573,5536
1644163244.525743,-0.011414,0.008789,-0.992676,0.190321,0.325496,-0.039389,48,283,576,5648
1644163244.574138,-0.009583,0.006775,-0.991699,0.175053,0.356031,0.036947,46,283,573,5600
1644163244.622533,-0.010498,0.009766,-0.98999,0.175053,0.294962,0.052214,42,275,565,5552
1644163244.670903,-0.010071,0.007996,-0.995239,0.175053,0.386565,-0.054656,43,266,573,5600
1644163244.719339,-0.009033,0.011597,-0.99292,0.266656,0.127023,-0.024122,58,276,576,5536
1644163244.769423,-0.008362,0.010071,-0.989746,0.434595,0.371298,-0.085191,48,276,580,5536
1644163244.820727,-0.007446,0.012878,-0.992859,0.236122,0.371298,-0.176794,49,273,577,5648
1644163244.865292,-0.010803,0.010864,-0.990723,0.159786,0.340763,-0.222595,59,277,565,5488
1644163244.961287,-0.010193,0.009338,-0.989319,0.144519,0.386565,-0.054656,51,262,571,5552
1644163245.00966,-0.010742,0.010437,-0.990967,0.129252,0.340763,-0.085191,41,264,576,5584
1644163245.058101,-0.010315,0.010254,-0.992126,0.236122,0.493435,-0.054656,51,279,566,5584
1644163245.106409,-0.012634,0.007751,-0.992126,0.08345,0.508702,-0.207328,52,268,572,5584
1644163245.154809,-0.009949,0.008118,-0.991272,0.251389,0.462901,-0.161527,51,276,569,5552
1644163245.203191,-0.012512,0.007202,-0.990417,0.159786,0.340763,-0.008855,53,276,578,5584
1644163245.251576,-0.010498,0.009644,-0.98999,0.342992,0.325496,-0.024122,53,271,576,5584
1644163245.299979,-0.010803,0.008484,-0.990173,0.205588,0.432366,-0.130992,45,277,575,5584
1644163245.348354,-0.009277,0.00824,-0.991272,0.404061,0.340763,-0.14626,55,274,578,5584
1644163245.396768,-0.009033,0.009033,-0.991821,0.312458,0.310229,-0.192061,55,276,571,5584
1644163245.445251,-0.008606,0.009521,-0.991028,0.113985,0.493435,-0.115725,59,275,570,5584
1644163245.493529,-0.009521,0.009949,-0.99176,0.175053,0.356031,-0.25313,57,275,582,5536
1644163245.541934,-0.01178,0.010071,-0.993225,0.220855,0.432366,-0.176794,55,274,576,5632
1644163245.590327,-0.008789,0.010437,-0.991882,0.205588,0.508702,-0.14626,51,271,576,5552
1644163245.638696,-0.008484,0.010742,-0.991882,0.205588,0.325496,-0.115725,47,275,579,5552
1644163245.687113,-0.009155,0.010925,-0.991577,0.144519,0.600305,0.098015,58,283,564,5584
1644163245.735485,-0.009033,0.012268,-0.991394,0.266656,0.371298,-0.115725,47,282,582,5584
1644163245.783886,-0.009644,0.009399,-0.992798,0.327725,0.340763,0.021679,58,274,571,5584
1644163245.832463,-0.011658,0.009705,-0.989197,0.144519,0.493435,-0.192061,47,270,577,5520
1644163245.882604,-0.011536,0.010071,-0.991699,0.373527,0.294962,-0.024122,62,281,569,5600
1644163245.932798,-0.009033,0.008911,-0.991821,0.312458,0.386565,-0.054656,52,280,575,5632
1644163245.982985,-0.010132,0.012085,-0.992676,0.35826,0.432366,-0.008855,48,274,569,5520
1644163246.027768,-0.009216,0.007812,-0.991821,0.266656,0.340763,-0.069924,43,271,580,5600
1644163246.122647,-0.011658,0.006653,-0.993469,0.236122,0.508702,-0.069924,53,269,573,5552
1644163246.170989,-0.010193,0.008972,-0.991943,0.236122,0.386565,-0.115725,51,279,583,5600
1644163246.219378,-0.011108,0.007568,-0.99231,0.129252,0.432366,-0.176794,45,275,565,5536
1644163246.267763,-0.010132,0.011841,-0.992126,0.190321,0.508702,-0.176794,51,276,573,5584
1644163246.316143,-0.011292,0.006775,-0.990662,0.205588,0.508702,-0.054656,52,270,570,5536
1644163246.364604,-0.006531,0.009033,-0.993958,0.266656,0.508702,-0.008855,48,269,576,5600
1644163246.412971,-0.011475,0.01062,-0.993103,0.236122,0.401832,-0.207328,45,265,572,5584
1644163246.461345,-0.011292,0.008179,-0.990295,0.144519,0.417099,-0.008855,51,269,578,5536
1644163246.509749,-0.011475,0.013916,-0.991211,0.342992,0.386565,-0.161527,48,283,578,5584
1644163246.558122,-0.008972,0.010315,-0.991211,0.251389,0.371298,-0.024122,53,264,569,5488
1644163246.606503,-0.00885,0.010803,-0.989868,0.312458,0.340763,-0.039389,42,277,570,5536
1644163246.654906,-0.007874,0.010193,-0.995239,0.327725,0.508702,0.006412,53,271,580,5552
1644163246.703313,-0.011292,0.008179,-0.990295,0.342992,0.310229,0.052214,48,274,578,5536
1644163246.751691,-0.011047,0.009827,-0.992126,0.220855,0.371298,-0.085191,59,273,570,5584
1644163246.800063,-0.009338,0.008057,-0.991028,0.159786,0.310229,0.067481,53,274,573,5536
1644163246.848511,-0.013062,0.007874,-0.991211,0.205588,0.417099,-0.100458,60,274,587,5584
1644163246.896895,-0.01062,0.00885,-0.992981,0.312458,0.417099,-0.100458,53,276,576,5600
1644163246.945313,-0.008484,0.010437,-0.990967,0.251389,0.401832,-0.161527,51,269,569,5648
1644163246.993681,-0.010803,0.009644,-0.990784,0.220855,0.340763,-0.25313,48,279,566,5536
1644163247.065709,-0.007629,0.00885,-0.989929,0.236122,0.356031,-0.14626,58,274,580,5536
1644163247.093365,-0.009705,0.008423,-0.991272,0.327725,0.432366,-0.054656,49,268,575,5552
1644163247.1435,-0.011353,0.00885,-0.990051,0.175053,0.417099,-0.008855,55,271,564,5552
1644163247.187842,-0.012024,0.007507,-0.993408,0.281924,0.478168,-0.192061,58,266,569,5584
1644163247.283978,-0.010559,0.010742,-0.991211,0.144519,0.401832,0.006412,53,264,585,5536
1644163247.332396,-0.00769,0.010193,-0.991699,0.236122,0.371298,-0.039389,49,268,575,5600
1644163247.380731,-0.011292,0.008606,-0.99176,0.251389,0.478168,0.006412,62,269,566,5552
1644163247.429188,-0.010986,0.011475,-0.989502,0.297191,0.417099,-0.100458,48,274,578,5584
1644163247.47753,-0.009521,0.007324,-0.99176,0.297191,0.401832,-0.069924,48,271,573,5584
1644163247.525924,-0.010437,0.008423,-0.993347,0.175053,0.554504,-0.176794,47,275,575,5520
1644163247.574316,-0.009705,0.01239,-0.990662,0.220855,0.432366,0.052214,46,276,576,5552
1644163247.622716,-0.008667,0.009277,-0.990234,0.220855,0.401832,0.036947,43,269,571,5536
1644163247.671094,-0.008728,0.014099,-0.992798,0.129252,0.371298,-0.237863,58,276,571,5552
1644163247.719483,-0.010071,0.008911,-0.989014,0.251389,0.554504,-0.283664,46,283,578,5600
1644163247.767884,-0.009644,0.011475,-0.988892,0.266656,0.340763,-0.207328,51,266,571,5584
1644163247.816275,-0.008301,0.010864,-0.990845,0.113985,0.493435,-0.161527,53,269,571,5584
1644163247.864826,-0.009888,0.008423,-0.989136,0.297191,0.493435,0.036947,39,274,576,5552
1644163247.913064,-0.01355,0.011414,-0.992432,0.312458,0.432366,-0.039389,42,275,572,5632
1644163247.961472,-0.009705,0.010986,-0.993774,0.190321,0.447634,-0.161527,48,281,566,5648
1644163248.009875,-0.008118,0.009216,-0.992737,0.175053,0.493435,-0.115725,45,270,579,5600
1644163248.079422,-0.01001,0.008972,-0.995972,0.159786,0.386565,-0.085191,55,271,583,5584
1644163248.106624,-0.010803,0.01123,-0.993103,0.220855,0.325496,-0.222595,49,277,577,5520
1644163248.156697,-0.009277,0.008667,-0.993591,0.281924,0.340763,-0.054656,52,280,577,5584
1644163248.205636,-0.008789,0.008423,-0.990845,0.281924,0.417099,0.021679,49,275,563,5648
1644163248.25561,-0.009827,0.01062,-0.991821,0.434595,0.356031,-0.130992,52,273,584,5648
1644163248.300609,-0.011719,0.009033,-0.99176,0.022382,0.386565,-0.024122,47,270,586,5552
1644163248.396927,-0.007446,0.010315,-0.990173,0.205588,0.325496,-0.115725,57,273,570,5520
1644163248.4454,-0.010864,0.010803,-0.992554,0.175053,0.508702,-0.176794,46,279,578,5456
1644163248.493736,-0.012024,0.011169,-0.99115,0.297191,0.310229,-0.085191,42,275,572,5536
1644163248.542353,-0.009521,0.009033,-0.994202,0.205588,0.294962,-0.176794,47,270,577,5600
1644163248.590502,-0.011902,0.008301,-0.99231,0.373527,0.386565,-0.039389,41,271,578,5584
1644163248.638861,-0.008423,0.011963,-0.991882,0.281924,0.462901,-0.085191,36,279,571,5584
1644163248.687279,-0.009766,0.007629,-0.99353,0.205588,0.233893,-0.069924,47,270,582,5600
1644163248.735673,-0.011475,0.01062,-0.988281,0.190321,0.493435,-0.130992,53,279,583,5584
1644163248.784074,-0.008301,0.006409,-0.993042,0.297191,0.462901,-0.100458,47,285,570,5552
1644163248.832479,-0.008606,0.009705,-0.992126,0.220855,0.325496,0.036947,54,275,586,5552
1644163248.880884,-0.006226,0.008606,-0.993103,0.373527,0.493435,-0.069924,52,275,579,5552
1644163248.929273,-0.009399,0.010315,-0.990784,0.35826,0.478168,0.067481,49,268,575,5584
1644163248.977676,-0.009399,0.011169,-0.990845,0.388794,0.493435,-0.039389,52,282,575,5632
1644163249.026059,-0.011963,0.008179,-0.993225,0.236122,0.432366,-0.039389,52,275,570,5552
1644163249.077584,-0.009644,0.013306,-0.990845,0.266656,0.447634,-0.024122,48,271,590,5584
1644163249.122816,-0.011719,0.009644,-0.991699,0.281924,0.417099,-0.039389,46,269,578,5584
1644163249.171238,-0.008118,0.009338,-0.99176,0.236122,0.386565,-0.130992,52,270,572,5584
1644163249.220587,-0.010315,0.009888,-0.991943,0.129252,0.356031,-0.085191,49,273,577,5552
1644163249.271269,-0.010376,0.010681,-0.992188,0.205588,0.371298,-0.054656,55,274,576,5552
1644163249.321494,-0.010681,0.008057,-0.994202,0.236122,0.478168,-0.161527,59,273,570,5584
1644163249.365787,-0.009827,0.006653,-0.991516,0.205588,0.356031,-0.14626,61,273,572,5536
1644163249.461563,-0.010986,0.009888,-0.992126,0.404061,0.493435,-0.039389,47,285,575,5472
1644163249.509945,-0.00769,0.008057,-0.992249,0.281924,0.386565,-0.024122,43,266,571,5584
1644163249.558341,-0.011047,0.010498,-0.992188,0.190321,0.585038,-0.14626,51,274,573,5536
1644163249.606763,-0.011047,0.009521,-0.989929,0.251389,0.478168,-0.008855,45,277,575,5552
1644163249.655164,-0.011292,0.008911,-0.99231,0.35826,0.508702,-0.176794,54,275,584,5584
1644163249.703537,-0.009033,0.010193,-0.992981,0.297191,0.432366,-0.008855,52,277,575,5664
1644163249.751892,-0.011108,0.009521,-0.992249,0.251389,0.356031,-0.085191,49,280,577,5536
1644163249.800305,-0.012024,0.009583,-0.991211,0.266656,0.279695,-0.085191,48,283,573,5536
1644163249.848703,-0.011902,0.007812,-0.994385,0.205588,0.447634,-0.115725,49,277,568,5664
1644163249.897092,-0.008545,0.009949,-0.989929,0.236122,0.447634,-0.024122,65,266,573,5648
1644163249.945482,-0.009155,0.011841,-0.989502,0.266656,0.325496,-0.039389,52,270,577,5536
1644163249.993861,-0.010986,0.008484,-0.994446,0.159786,0.310229,-0.069924,51,274,566,5600
1644163250.050948,-0.00885,0.011292,-0.993225,0.449863,0.417099,-0.207328,51,271,578,5584
1644163250.090611,-0.006653,0.010437,-0.992981,0.312458,0.493435,-0.115725,48,281,580,5584
1644163250.138987,-0.011536,0.007202,-0.99408,0.312458,0.462901,-0.14626,52,270,582,5584
1644163250.187402,-0.009338,0.007874,-0.991394,0.205588,0.600305,-0.054656,51,266,576,5536
1644163250.235784,-0.010071,0.008362,-0.994141,0.281924,0.508702,-0.008855,54,273,577,5536
1644163250.284145,-0.009583,0.011169,-0.990967,0.297191,0.310229,-0.237863,46,283,573,5600
1644163250.332868,-0.010925,0.007935,-0.992615,0.129252,0.371298,-0.115725,51,276,580,5536
1644163250.381733,-0.011597,0.009216,-0.992493,0.220855,0.432366,-0.176794,51,266,580,5552
1644163250.432266,-0.009216,0.007507,-0.993347,0.159786,0.523969,-0.115725,52,273,575,5600
1644163250.482671,-0.009644,0.010986,-0.988831,0.175053,0.371298,-0.192061,40,280,582,5552
1644163250.527386,-0.009338,0.00885,-0.992371,0.327725,0.417099,-0.008855,47,270,570,5536
1644163250.622912,-0.008667,0.009827,-0.992371,0.220855,0.447634,0.113282,52,265,577,5488
1644163250.67128,-0.008362,0.008667,-0.992065,0.220855,0.294962,-0.024122,54,275,577,5584
1644163250.719646,-0.011047,0.011475,-0.993408,0.205588,0.325496,0.052214,57,275,570,5536
1644163250.76807,-0.010132,0.009888,-0.994568,0.297191,0.432366,-0.192061,43,279,578,5584
1644163250.816495,-0.010254,0.010498,-0.992065,0.251389,0.478168,-0.008855,45,273,575,5584
1644163250.864898,-0.010437,0.011047,-0.992554,0.144519,0.417099,-0.024122,46,274,571,5584
1644163250.913301,-0.01178,0.00647,-0.991821,0.190321,0.371298,-0.161527,49,273,568,5472
1644163250.961673,-0.01178,0.013123,-0.991577,0.220855,0.340763,-0.085191,53,274,571,5536
1644163251.010036,-0.00885,0.008179,-0.992432,0.281924,0.325496,-0.192061,48,269,576,5536
1644163251.05993,-0.010193,0.009766,-0.988586,0.312458,0.462901,-0.115725,49,273,584,5584
1644163251.106779,-0.00946,0.010864,-0.993164,0.342992,0.508702,-0.085191,39,262,569,5536
1644163251.155268,-0.011597,0.008423,-0.990723,0.236122,0.294962,-0.054656,53,281,571,5552
1644163251.203589,-0.006653,0.011414,-0.99054,0.190321,0.478168,-0.100458,49,273,584,5600
1644163251.251974,-0.008728,0.008057,-0.990295,0.327725,0.310229,-0.039389,52,280,572,5600
1644163251.30036,-0.010925,0.008362,-0.990784,0.281924,0.447634,-0.14626,48,274,576,5488
1644163251.348747,-0.010132,0.010315,-0.989624,0.266656,0.508702,-0.024122,55,271,578,5584
1644163251.397203,-0.009644,0.008118,-0.995178,0.312458,0.523969,-0.115725,59,277,577,5536
1644163251.445532,-0.010864,0.011414,-0.991516,0.404061,0.462901,-0.207328,57,273,582,5648
1644163251.493914,-0.009155,0.009094,-0.992554,0.175053,0.478168,-0.008855,54,275,577,5584
1644163251.542725,-0.010193,0.012329,-0.990295,0.404061,0.462901,-0.222595,52,282,575,5584
1644163251.59293,-0.007874,0.011475,-0.992615,0.312458,0.432366,-0.054656,43,274,564,5536
1644163251.643282,-0.010498,0.008606,-0.991089,0.281924,0.356031,-0.130992,59,270,572,5488
1644163251.688453,-0.012451,0.011597,-0.992432,0.159786,0.279695,-0.085191,55,283,569,5552
1644163251.784294,-0.00769,0.008362,-0.989807,0.159786,0.493435,-0.176794,48,274,569,5488
1644163251.832709,-0.006836,0.010254,-0.989136,0.297191,0.432366,-0.008855,46,279,573,5584
1644163251.881061,-0.010376,0.009705,-0.992249,0.297191,0.401832,0.021679,58,276,573,5520
1644163251.929474,-0.013245,0.01001,-0.991028,0.129252,0.356031,-0.085191,46,269,578,5584
1644163251.977848,-0.009155,0.010193,-0.994019,0.205588,0.417099,-0.024122,48,266,578,5648
1644163252.026246,-0.007751,0.012634,-0.992126,0.251389,0.447634,-0.115725,49,282,579,5584
1644163252.074794,-0.007324,0.011292,-0.993347,0.281924,0.478168,-0.115725,55,279,571,5536
1644163252.123009,-0.011292,0.010437,-0.995361,0.266656,0.462901,-0.130992,61,273,570,5584
1644163252.171381,-0.008911,0.008728,-0.992615,0.236122,0.447634,-0.207328,54,280,584,5600
1644163252.219783,-0.007996,0.008789,-0.99176,0.220855,0.523969,-0.069924,53,279,576,5488
1644163252.268224,-0.01062,0.008728,-0.99115,0.190321,0.233893,0.036947,57,277,577,5536
1644163252.316556,-0.01062,0.008545,-0.993896,0.449863,0.432366,-0.024122,46,283,576,5552
1644163252.364995,-0.010315,0.010742,-0.990417,0.220855,0.340763,0.021679,45,275,575,5552
1644163252.413331,-0.009277,0.01178,-0.992859,0.220855,0.356031,-0.115725,51,274,578,5600
1644163252.461707,-0.011902,0.010254,-0.990173,0.113985,0.371298,-0.100458,42,263,572,5552
1644163252.510105,-0.009338,0.009888,-0.993225,0.251389,0.462901,0.113282,53,279,576,5584
1644163252.558534,-0.008789,0.009399,-0.989258,0.342992,0.279695,-0.100458,53,276,573,5584
1644163252.608458,-0.010742,0.008545,-0.991089,0.175053,0.386565,0.021679,53,266,576,5584
1644163252.658758,-0.009644,0.010132,-0.99231,0.220855,0.310229,-0.008855,61,273,577,5520
1644163252.703714,-0.01178,0.012085,-0.992249,0.266656,0.478168,-0.024122,39,274,569,5600
1644163252.800425,-0.009888,0.009705,-0.989502,0.190321,0.478168,-0.130992,48,276,576,5552
1644163252.848876,-0.00592,0.011047,-0.992188,0.220855,0.417099,-0.130992,55,266,578,5552
1644163252.897247,-0.010864,0.008301,-0.992432,0.113985,0.417099,-0.100458,54,263,579,5520
1644163252.945656,-0.012329,0.007751,-0.989746,0.251389,0.386565,-0.039389,51,271,573,5520
1644163252.994051,-0.01178,0.010986,-0.988892,0.144519,0.325496,-0.039389,46,276,566,5584
1644163253.047463,-0.008423,0.009033,-0.992432,0.342992,0.417099,-0.161527,53,269,580,5600
1644163253.090821,-0.010742,0.009949,-0.990723,0.190321,0.401832,-0.14626,53,283,578,5584
1644163253.139192,-0.010803,0.009033,-0.993286,0.190321,0.325496,0.159084,58,276,571,5584
1644163253.187581,-0.010315,0.009399,-0.990601,0.190321,0.325496,-0.115725,58,271,576,5552
1644163253.235974,-0.008911,0.009399,-0.990967,0.113985,0.325496,-0.130992,46,279,576,5584
1644163253.284339,-0.009521,0.012024,-0.990051,0.220855,0.508702,-0.222595,49,282,572,5552
1644163253.332737,-0.011658,0.009766,-0.990173,0.236122,0.447634,-0.298931,48,271,587,5552
1644163253.381135,-0.009399,0.012146,-0.99176,0.251389,0.615573,-0.024122,53,266,578,5584
1644163253.429529,-0.00824,0.010315,-0.99231,0.159786,0.325496,-0.207328,51,271,571,5552
1644163253.477907,-0.009766,0.007568,-0.992859,0.251389,0.523969,-0.054656,49,270,582,5536
1644163253.526307,-0.011292,0.010437,-0.991028,0.205588,0.462901,-0.192061,49,273,575,5536
1644163253.574732,-0.012329,0.009155,-0.993774,0.220855,0.447634,-0.069924,58,274,578,5552
1644163253.623096,-0.009644,0.011902,-0.989929,0.205588,0.279695,-0.024122,51,271,571,5664
1644163253.671483,-0.008911,0.01062,-0.992981,0.190321,0.447634,-0.176794,43,276,566,5552
1644163253.720033,-0.00946,0.007568,-0.992432,0.266656,0.417099,-0.130992,38,273,586,5536
1644163253.770477,-0.012024,0.009033,-0.991638,0.297191,0.417099,-0.069924,53,279,576,5536
1644163253.820749,-0.010498,0.00708,-0.98877,0.113985,0.462901,-0.039389,46,279,571,5584
1644163253.866243,-0.009338,0.009705,-0.994751,0.327725,0.310229,-0.039389,53,271,569,5600
1644163253.961827,-0.010864,0.009644,-0.990723,0.419328,0.417099,-0.237863,46,262,564,5536
1644163254.01022,-0.010376,0.010071,-0.990417,0.205588,0.447634,0.021679,49,270,568,5600
1644163254.058745,-0.010071,0.007446,-0.992554,0.297191,0.539237,0.067481,53,271,569,5552
1644163254.107019,-0.009949,0.010132,-0.992798,0.205588,0.401832,-0.115725,51,279,569,5552
1644163254.155382,-0.009766,0.009521,-0.991272,0.480397,0.447634,0.006412,58,271,578,5536
1644163254.203764,-0.00885,0.011353,-0.992188,0.205588,0.310229,0.006412,48,283,571,5536
1644163254.252198,-0.008179,0.007568,-0.992371,0.281924,0.493435,-0.176794,46,279,566,5584
1644163254.300548,-0.009216,0.010986,-0.990295,0.342992,0.386565,-0.115725,51,274,569,5552
1644163254.348948,-0.011902,0.009399,-0.989502,0.190321,0.432366,-0.14626,64,268,579,5600
1644163254.397322,-0.012756,0.008301,-0.99292,0.281924,0.478168,0.067481,46,266,580,5584
1644163254.44572,-0.009155,0.01123,-0.992859,0.281924,0.24916,-0.192061,53,266,578,5520
1644163254.494094,-0.009888,0.008972,-0.993835,0.08345,0.371298,-0.100458,49,273,575,5552
1644163254.542522,-0.00885,0.00946,-0.991394,0.236122,0.356031,-0.283664,52,273,572,5600
1644163254.590857,-0.009766,0.009094,-0.99292,0.190321,0.24916,-0.054656,58,266,583,5584
1644163254.639256,-0.011536,0.00824,-0.993286,0.266656,0.447634,-0.100458,54,277,582,5648
1644163254.687669,-0.009277,0.010437,-0.992188,0.190321,0.462901,-0.192061,54,273,575,5584
1644163254.736058,-0.009155,0.010376,-0.99353,0.220855,0.294962,0.021679,47,277,582,5584
1644163254.784444,-0.010742,0.010132,-0.99231,0.266656,0.233893,-0.130992,58,279,573,5536
1644163254.832826,-0.011353,0.010559,-0.989624,0.251389,0.661374,-0.25313,46,274,578,5536
1644163254.882883,-0.008118,0.008484,-0.991516,0.297191,0.493435,-0.283664,47,268,565,5600
1644163254.93299,-0.00885,0.008728,-0.992065,0.419328,0.432366,-0.192061,51,274,564,5552
1644163254.983265,-0.010559,0.011475,-0.993835,0.236122,0.340763,-0.222595,55,276,585,5488
1644163255.075747,-0.008728,0.00946,-0.992371,0.266656,0.539237,0.006412,49,273,579,5600
1644163255.12323,-0.01239,0.00946,-0.990906,0.236122,0.417099,-0.039389,52,282,565,5520
1644163255.171559,-0.011597,0.010437,-0.990845,0.480397,0.432366,0.006412,40,270,579,5584
1644163255.219931,-0.008911,0.012085,-0.990479,0.419328,0.417099,-0.14626,47,277,577,5536
1644163255.268357,-0.008728,0.007874,-0.988037,0.419328,0.386565,-0.130992,64,270,563,5536
1644163255.316737,-0.010132,0.006958,-0.993103,0.327725,0.417099,-0.130992,42,268,572,5600
1644163255.365188,-0.011414,0.011353,-0.990417,0.205588,0.371298,-0.024122,53,269,580,5600
1644163255.413546,-0.01123,0.009949,-0.992249,0.251389,0.447634,-0.25313,51,269,580,5600
1644163255.461918,-0.008484,0.010376,-0.991516,0.190321,0.432366,-0.039389,53,279,569,5552
1644163255.510299,-0.007263,0.009949,-0.991516,0.129252,0.325496,-0.085191,46,266,569,5552
1644163255.558693,-0.009583,0.009888,-0.990112,0.159786,0.462901,-0.222595,48,269,573,5536
1644163255.607086,-0.010193,0.009094,-0.993347,0.35826,0.493435,0.098015,53,269,578,5584
1644163255.655474,-0.013245,0.008911,-0.991089,0.190321,0.417099,-0.100458,46,274,576,5536
1644163255.703877,-0.010925,0.009766,-0.991882,0.129252,0.401832,-0.100458,51,283,573,5536
1644163255.752258,-0.00946,0.010925,-0.993652,0.312458,0.539237,-0.130992,59,275,579,5552
1644163255.800619,-0.010681,0.009705,-0.992676,0.297191,0.325496,-0.054656,53,279,573,5536
1644163255.849071,-0.011658,0.010803,-0.991943,0.159786,0.356031,-0.069924,46,266,573,5584
1644163255.897783,-0.012268,0.011353,-0.992126,0.144519,0.462901,-0.130992,49,268,565,5648
1644163255.945907,-0.011475,0.009338,-0.994446,0.35826,0.340763,-0.130992,53,266,578,5584
1644163255.996897,-0.010071,0.009277,-0.989929,0.190321,0.493435,-0.161527,51,276,576,5536
1644163256.090974,-0.006836,0.00946,-0.993591,0.205588,0.340763,-0.100458,46,274,571,5552
1644163256.139411,-0.012207,0.007812,-0.990723,0.129252,0.340763,-0.100458,49,270,563,5584
1644163256.187775,-0.008545,0.00946,-0.992065,0.220855,0.447634,-0.115725,48,269,585,5584
1644163256.236155,-0.010681,0.007019,-0.994019,0.266656,0.417099,-0.054656,46,274,566,5584
1644163256.284528,-0.008484,0.010071,-0.993774,0.297191,0.447634,-0.069924,51,274,569,5536
1644163256.332945,-0.010071,0.008667,-0.993286,0.205588,0.386565,0.021679,59,277,572,5536
1644163256.381315,-0.01001,0.010864,-0.990723,0.113985,0.294962,-0.039389,53,281,583,5584
1644163256.429709,-0.01123,0.00708,-0.990662,0.205588,0.447634,-0.161527,52,270,584,5600
1644163256.478073,-0.011292,0.01001,-0.989319,0.297191,0.478168,-0.024122,55,266,573,5552
1644163256.526495,-0.010803,0.012329,-0.993469,0.159786,0.325496,-0.130992,42,270,570,5584
1644163256.574883,-0.013733,0.010986,-0.99176,0.281924,0.356031,-0.130992,53,279,578,5584
1644163256.623272,-0.011719,0.008911,-0.994019,0.129252,0.356031,-0.054656,47,285,575,5632
1644163256.671659,-0.011047,0.008118,-0.993713,0.236122,0.462901,-0.069924,55,274,583,5584
1644163256.720072,-0.008606,0.008179,-0.993286,0.342992,0.371298,-0.283664,51,266,576,5536
1644163256.768482,-0.01001,0.012451,-0.993408,0.342992,0.447634,-0.008855,49,265,572,5648
1644163256.818888,-0.010864,0.008423,-0.989685,0.281924,0.523969,-0.024122,47,277,579,5584
1644163256.869424,-0.008423,0.01001,-0.990112,0.205588,0.417099,-0.207328,43,271,569,5536
1644163256.914662,-0.008911,0.013306,-0.991272,0.281924,0.462901,-0.115725,47,265,568,5584
1644163257.010424,-0.011719,0.008179,-0.991272,0.175053,0.401832,-0.25313,46,271,578,5600
1644163257.058868,-0.010071,0.008301,-0.991699,0.281924,0.401832,0.021679,66,270,582,5552
1644163257.10715,-0.013123,0.010071,-0.990601,0.113985,0.493435,-0.054656,45,263,570,5600
1644163257.155576,-0.011353,0.009766,-0.990723,0.220855,0.432366,-0.069924,43,269,569,5584
1644163257.20396,-0.00885,0.009155,-0.994141,0.388794,0.386565,-0.100458,47,273,565,5584
1644163257.252337,-0.008911,0.01239,-0.992065,0.190321,0.462901,-0.100458,49,270,570,5520
1644163257.300731,-0.011169,0.010498,-0.991882,0.281924,0.356031,-0.176794,51,281,566,5552
1644163257.349125,-0.010864,0.010376,-0.991089,0.251389,0.356031,-0.161527,46,281,566,5584
1644163257.397513,-0.011902,0.011292,-0.991211,0.297191,0.523969,-0.14626,51,271,573,5584
1644163257.445906,-0.011963,0.009583,-0.993652,0.297191,0.447634,-0.069924,43,274,576,5552
1644163257.494278,-0.009216,0.009216,-0.991028,0.190321,0.554504,0.006412,55,269,578,5536
1644163257.542697,-0.009521,0.007996,-0.993347,0.144519,0.447634,-0.008855,46,279,569,5648
1644163257.591076,-0.011597,0.009155,-0.990784,0.205588,0.447634,-0.14626,52,270,579,5584
1644163257.63947,-0.009705,0.008118,-0.992065,0.236122,0.447634,-0.207328,57,277,579,5632
1644163257.687858,-0.010132,0.010742,-0.992615,0.175053,0.478168,0.006412,52,277,570,5600
1644163257.736212,-0.010803,0.008789,-0.99353,0.327725,0.478168,-0.115725,45,270,570,5536
1644163257.784685,-0.011169,0.00824,-0.993896,0.266656,0.401832,-0.192061,57,275,568,5552
1644163257.833169,-0.010498,0.008362,-0.991638,0.281924,0.493435,-0.207328,55,271,578,5552
1644163257.881706,-0.007263,0.007812,-0.995422,0.205588,0.279695,-0.115725,55,274,578,5552
1644163257.930864,-0.010986,0.010864,-0.991028,0.236122,0.310229,-0.14626,51,276,573,5664
1644163257.981286,-0.009094,0.008789,-0.991577,0.342992,0.386565,0.067481,42,268,570,5584
1644163258.042747,-0.011414,0.009888,-0.990845,0.068183,0.356031,-0.085191,53,276,578,5472
1644163258.076755,-0.010376,0.008362,-0.992371,0.190321,0.508702,0.067481,46,276,576,5584
1644163258.17175,-0.00885,0.008057,-0.994019,0.266656,0.447634,-0.085191,49,277,582,5536
1644163258.220131,-0.009338,0.01001,-0.991333,0.251389,0.401832,-0.192061,53,279,569,5584
1644163258.268523,-0.011108,0.008789,-0.990601,0.312458,0.401832,-0.100458,49,275,570,5552
1644163258.316915,-0.011658,0.010254,-0.989075,0.159786,0.264427,-0.008855,51,276,578,5552
1644163258.365281,-0.010986,0.006592,-0.991394,0.388794,0.356031,0.036947,53,271,576,5648
1644163258.41372,-0.010681,0.010925,-0.99231,0.144519,0.462901,-0.054656,57,268,579,5600
1644163258.462163,-0.010742,0.009949,-0.992188,0.236122,0.371298,-0.054656,48,271,578,5552
1644163258.510497,-0.009155,0.011475,-0.991455,0.190321,0.523969,-0.130992,59,270,577,5552
1644163258.558878,-0.008545,0.010315,-0.990417,0.098718,0.447634,0.021679,40,270,582,5584
1644163258.607269,-0.009399,0.011963,-0.989624,0.373527,0.294962,-0.069924,47,275,572,5536
1644163258.655663,-0.010559,0.008728,-0.991089,0.251389,0.356031,-0.115725,40,270,579,5600
1644163258.704067,-0.011475,0.009521,-0.991333,0.297191,0.371298,0.036947,51,281,578,5584
1644163258.752458,-0.008911,0.010803,-0.991638,0.404061,0.447634,-0.024122,51,271,576,5584
1644163258.800833,-0.010132,0.012329,-0.990234,0.281924,0.462901,-0.024122,48,281,576,5584
1644163258.849249,-0.012512,0.010071,-0.990601,0.266656,0.340763,0.006412,46,266,583,5632
1644163258.897652,-0.010498,0.009521,-0.993652,0.297191,0.401832,-0.130992,58,276,571,5584
1644163258.946038,-0.011963,0.007874,-0.991821,0.266656,0.447634,-0.283664,52,270,575,5584
1644163258.994409,-0.011841,0.012329,-0.989258,0.205588,0.386565,-0.161527,57,275,572,5584
1644163259.059848,-0.015381,0.006409,-0.993164,0.327725,0.325496,-0.14626,61,268,575,5552
1644163259.092655,-0.008606,0.010559,-0.992798,0.419328,0.294962,-0.192061,42,268,572,5600
1644163259.141618,-0.009216,0.006653,-0.99353,0.297191,0.539237,-0.100458,47,275,584,5552
1644163259.191815,-0.009644,0.009277,-0.993164,0.251389,0.432366,-0.161527,40,273,572,5520
1644163259.236968,-0.013489,0.009644,-0.990967,0.220855,0.417099,-0.069924,49,280,568,5552
1644163259.333167,-0.013611,0.010254,-0.992188,0.281924,0.294962,-0.298931,47,277,568,5600
1644163259.381508,-0.010803,0.010803,-0.993164,0.052916,0.478168,-0.130992,52,275,563,5632
1644163259.429891,-0.009705,0.007935,-0.989502,0.251389,0.432366,0.052214,57,270,568,5600
1644163259.478294,-0.007935,0.011475,-0.989929,0.312458,0.478168,-0.130992,60,269,578,5600
1644163259.526655,-0.011536,0.009338,-0.993835,0.251389,0.294962,-0.039389,57,270,570,5632
1644163259.575112,-0.011475,0.008362,-0.989563,0.037649,0.325496,-0.039389,54,273,572,5600
1644163259.623448,-0.011353,0.01001,-0.991882,0.251389,0.432366,-0.14626,48,276,573,5600
1644163259.671864,-0.010437,0.009338,-0.990356,0.190321,0.478168,-0.024122,47,273,575,5632
1644163259.72025,-0.011902,0.010071,-0.993652,0.251389,0.478168,-0.069924,51,271,571,5600
1644163259.768638,-0.007935,0.008911,-0.99292,0.281924,0.600305,0.067481,51,276,580,5552
1644163259.81706,-0.009705,0.009338,-0.991333,0.236122,0.462901,-0.161527,47,280,568,5600
1644163259.865453,-0.009521,0.011597,-0.990112,0.266656,0.493435,-0.054656,60,274,576,5648
1644163259.913859,-0.010986,0.009949,-0.992371,0.35826,0.401832,-0.054656,60,271,571,5536
1644163259.962256,-0.008484,0.010132,-0.992126,0.312458,0.417099,-0.039389,41,274,576,5584
1644163260.010598,-0.010864,0.011963,-0.988953,0.35826,0.447634,-0.085191,45,280,575,5584
1644163260.077035,-0.007568,0.010071,-0.990356,0.175053,0.417099,-0.222595,48,271,576,5584
1644163260.107876,-0.00824,0.010742,-0.98877,0.266656,0.386565,-0.130992,54,275,586,5552
1644163260.155905,-0.009399,0.011963,-0.989014,0.297191,0.447634,0.021679,47,273,577,5552
1644163260.206426,-0.01062,0.010132,-0.991882,0.419328,0.325496,-0.130992,47,275,568,5536
1644163260.2566,-0.012512,0.010803,-0.991638,0.419328,0.417099,-0.222595,45,275,572,5584
1644163260.301656,-0.010986,0.009521,-0.991455,0.388794,0.356031,-0.115725,51,274,562,5536
1644163260.397682,-0.013184,0.011414,-0.993164,0.297191,0.447634,0.006412,47,280,568,5584
1644163260.446075,-0.008545,0.010498,-0.994507,0.205588,0.432366,-0.039389,52,282,579,5552
1644163260.49448,-0.009277,0.00946,-0.989929,0.281924,0.432366,-0.268397,43,266,578,5648
1644163260.542879,-0.009888,0.008423,-0.992065,0.327725,0.478168,-0.024122,48,271,573,5584
1644163260.591267,-0.011047,0.007019,-0.992981,0.159786,0.279695,-0.085191,57,275,579,5584
1644163260.639632,-0.007935,0.011902,-0.992432,0.373527,0.432366,0.052214,47,260,577,5584
1644163260.688046,-0.00824,0.010437,-0.993042,0.266656,0.462901,-0.069924,58,271,578,5584
1644163260.736413,-0.012146,0.007935,-0.992432,0.159786,0.447634,-0.054656,48,274,566,5552
1644163260.784834,-0.008911,0.009705,-0.990479,0.342992,0.356031,0.052214,47,280,577,5584
1644163260.83327,-0.010498,0.010681,-0.989685,0.297191,0.462901,-0.085191,46,269,576,5552
1644163260.881623,-0.00946,0.01001,-0.989868,0.312458,0.462901,-0.192061,57,275,568,5600
1644163260.930043,-0.00885,0.009888,-0.991089,0.220855,0.325496,-0.024122,51,276,569,5552
1644163260.978433,-0.011719,0.008789,-0.990417,0.327725,0.310229,-0.115725,42,280,579,5552
1644163261.026814,-0.011292,0.009155,-0.991577,0.373527,0.417099,-0.130992,47,285,570,5600
1644163261.079465,-0.007629,0.009033,-0.990173,0.190321,0.310229,-0.115725,41,276,576,5536
1644163261.123568,-0.007812,0.011169,-0.991577,0.312458,0.371298,-0.024122,57,277,577,5600
1644163261.171947,-0.011841,0.011353,-0.990417,0.281924,0.310229,-0.100458,72,271,585,5600
1644163261.220327,-0.009399,0.011292,-0.990417,0.190321,0.462901,-0.14626,53,276,576,5600
1644163261.269255,-0.008362,0.009766,-0.995239,0.327725,0.478168,-0.130992,51,276,573,5600
1644163261.317384,-0.008484,0.01178,-0.991943,0.297191,0.417099,-0.039389,40,270,582,5552
1644163261.367989,-0.008728,0.012024,-0.990417,0.236122,0.401832,-0.008855,45,277,575,5520
1644163261.418195,-0.011963,0.011719,-0.99231,0.281924,0.264427,-0.161527,61,275,572,5584
1644163261.463055,-0.010254,0.007996,-0.991272,0.342992,0.554504,-0.115725,48,274,573,5584
1644163261.559052,-0.009399,0.011536,-0.989746,0.159786,0.310229,-0.207328,48,271,569,5600
1644163261.607438,-0.009766,0.009155,-0.990173,0.266656,0.386565,-0.100458,45,270,572,5536
1644163261.655827,-0.008179,0.010864,-0.993469,0.327725,0.554504,-0.085191,47,270,575,5600
1644163261.704233,-0.011658,0.012573,-0.989014,0.35826,0.386565,-0.207328,43,266,576,5584
1644163261.75262,-0.010437,0.011719,-0.988892,0.190321,0.401832,-0.14626,54,273,577,5536
1644163261.801015,-0.008728,0.007507,-0.992493,0.236122,0.325496,-0.130992,43,269,566,5584
1644163261.849448,-0.008728,0.011353,-0.991028,0.281924,0.585038,-0.130992,48,281,580,5600
1644163261.897845,-0.00824,0.014587,-0.990112,0.434595,0.310229,-0.024122,47,268,570,5648
1644163261.946231,-0.010376,0.009949,-0.993713,0.281924,0.432366,-0.14626,53,274,571,5600
1644163261.99498,-0.010925,0.008118,-0.992615,0.144519,0.356031,-0.25313,53,266,576,5648
1644163262.050376,-0.011353,0.010498,-0.991211,0.342992,0.401832,-0.14626,62,271,576,5584
1644163262.091402,-0.00769,0.01123,-0.991394,0.327725,0.447634,-0.008855,46,276,578,5584
1644163262.139755,-0.008179,0.007141,-0.992188,0.373527,0.554504,-0.039389,52,265,570,5552
1644163262.188141,-0.01001,0.009094,-0.990112,0.068183,0.462901,-0.130992,51,274,576,5600
1644163262.236524,-0.011963,0.00946,-0.990356,0.236122,0.386565,-0.100458,55,271,580,5536
1644163262.28492,-0.010681,0.010742,-0.992004,0.281924,0.447634,-0.039389,47,270,577,5536
1644163262.333306,-0.011475,0.01001,-0.990295,0.281924,0.432366,-0.039389,57,275,572,5520
1644163262.381707,-0.007385,0.010559,-0.992737,0.175053,0.569771,-0.069924,58,269,576,5536
1644163262.430089,-0.01178,0.007812,-0.991455,0.236122,0.447634,-0.085191,51,286,583,5584
1644163262.478647,-0.009827,0.011353,-0.991821,0.144519,0.462901,-0.14626,55,274,594,5584
1644163262.529199,-0.01062,0.012573,-0.992004,0.236122,0.401832,-0.130992,48,279,571,5552
1644163262.579311,-0.009521,0.008789,-0.991577,0.388794,0.279695,0.021679,53,281,578,5552
1644163262.624333,-0.010864,0.009888,-0.993286,0.266656,0.340763,-0.130992,47,273,570,5600
1644163262.720427,-0.007507,0.010986,-0.991638,0.205588,0.447634,0.006412,54,270,568,5552
1644163262.7688,-0.01001,0.006165,-0.992188,0.327725,0.279695,-0.130992,48,264,571,5600
1644163262.817207,-0.009583,0.007202,-0.990295,0.312458,0.371298,-0.176794,47,275,568,5536
1644163262.865633,-0.008728,0.008179,-0.990417,0.342992,0.310229,-0.130992,43,276,573,5584
1644163262.914049,-0.009583,0.009888,-0.992798,0.190321,0.325496,-0.14626,52,275,575,5552
1644163262.962435,-0.009216,0.00946,-0.990723,0.297191,0.371298,-0.115725,48,276,571,5552
1644163263.010814,-0.007874,0.01001,-0.992554,0.190321,0.462901,-0.085191,46,264,583,5536
1644163263.06077,-0.013489,0.008972,-0.99231,0.236122,0.569771,-0.207328,43,274,576,5584
1644163263.107592,-0.009399,0.007507,-0.993286,0.236122,0.478168,-0.222595,57,268,563,5536
1644163263.155942,-0.010254,0.013306,-0.99176,0.144519,0.447634,-0.115725,54,270,563,5600
1644163263.204315,-0.006958,0.010925,-0.990723,0.251389,0.462901,-0.054656,58,279,580,5648
1644163263.252739,-0.009094,0.008911,-0.995728,0.266656,0.447634,-0.192061,49,268,577,5648
1644163263.301177,-0.009521,0.009094,-0.993652,0.159786,0.386565,-0.039389,48,276,578,5536
1644163263.349505,-0.009644,0.011047,-0.99231,0.236122,0.539237,-0.069924,49,268,572,5552
1644163263.397903,-0.011475,0.011841,-0.992004,0.266656,0.401832,0.006412,49,270,575,5536
1644163263.446281,-0.008911,0.010681,-0.990967,0.144519,0.462901,-0.054656,54,263,570,5552
1644163263.494689,-0.010864,0.009705,-0.988708,0.144519,0.401832,-0.14626,45,275,589,5552
1644163263.543075,-0.011169,0.011353,-0.990601,0.220855,0.432366,-0.161527,52,275,572,5584
1644163263.591465,-0.01001,0.007141,-0.991943,0.129252,0.386565,-0.192061,43,276,578,5584
1644163263.640113,-0.01001,0.010681,-0.989441,0.205588,0.325496,0.036947,47,275,577,5584
1644163263.690457,-0.009827,0.008362,-0.993286,0.327725,0.417099,-0.222595,42,275,575,5584
1644163263.740754,-0.010254,0.007019,-0.993225,0.251389,0.523969,-0.008855,48,271,576,5552
1644163263.785956,-0.010437,0.007996,-0.992554,0.266656,0.325496,-0.100458,53,274,566,5648
1644163263.881828,-0.010681,0.008301,-0.99292,0.159786,0.279695,-0.25313,43,276,578,5632
1644163263.930223,-0.009766,0.006653,-0.989502,0.220855,0.310229,-0.115725,60,266,573,5584
1644163263.978607,-0.010437,0.01001,-0.993652,0.159786,0.371298,-0.176794,51,271,564,5552
1644163264.027007,-0.00708,0.009583,-0.992554,0.205588,0.386565,-0.100458,51,262,576,5648
1644163264.075449,-0.008911,0.010193,-0.993042,0.312458,0.539237,-0.054656,53,274,587,5584
1644163264.123764,-0.013855,0.009949,-0.992493,0.159786,0.340763,-0.14626,47,258,572,5536
1644163264.17223,-0.009399,0.010498,-0.991089,0.190321,0.432366,-0.054656,70,269,578,5552
1644163264.220535,-0.009949,0.010376,-0.989685,0.327725,0.417099,-0.054656,51,276,571,5584
1644163264.268909,-0.009583,0.011963,-0.992493,0.220855,0.432366,-0.130992,52,282,575,5584
1644163264.31731,-0.011597,0.009094,-0.992493,0.098718,0.356031,-0.100458,49,275,570,5584
1644163264.36569,-0.0047,0.010315,-0.991089,0.220855,0.508702,-0.176794,52,285,575,5552
1644163264.414089,-0.010071,0.008972,-0.989929,0.297191,0.294962,-0.161527,43,274,580,5536
1644163264.462495,-0.009277,0.008789,-0.993835,0.144519,0.447634,-0.130992,47,273,577,5584
1644163264.510864,-0.008911,0.007751,-0.993042,0.327725,0.539237,-0.130992,52,275,577,5552
1644163264.559342,-0.012451,0.008728,-0.990051,0.312458,0.386565,-0.161527,54,280,589,5584
1644163264.608666,-0.008301,0.009949,-0.996277,0.236122,0.325496,-0.054656,52,273,577,5584
1644163264.659137,-0.012573,0.009155,-0.994263,0.266656,0.310229,0.006412,53,276,564,5600
1644163264.70521,-0.009766,0.010986,-0.991943,0.388794,0.508702,-0.237863,57,275,577,5600
1644163264.801201,-0.009766,0.010559,-0.994385,0.251389,0.356031,-0.14626,43,276,576,5536
1644163264.849601,-0.012939,0.008301,-0.99115,0.220855,0.508702,-0.130992,47,275,570,5536
1644163264.898011,-0.009094,0.009949,-0.992798,0.129252,0.432366,-0.069924,52,270,575,5584
1644163264.946413,-0.010986,0.012817,-0.989075,0.266656,0.447634,-0.25313,41,274,573,5552
1644163264.994817,-0.01062,0.008667,-0.991943,0.236122,0.462901,-0.024122,54,275,565,5600
1644163265.051658,-0.011047,0.010193,-0.994202,0.190321,0.417099,-0.115725,53,276,576,5552
1644163265.091533,-0.01062,0.009521,-0.992676,0.327725,0.493435,-0.069924,46,271,576,5584
1644163265.139941,-0.009888,0.011902,-0.991821,0.175053,0.447634,0.006412,57,280,568,5552
1644163265.188362,-0.011475,0.01062,-0.990295,0.205588,0.478168,-0.069924,40,275,575,5632
1644163265.236752,-0.009583,0.01001,-0.98999,0.175053,0.356031,-0.039389,41,279,571,5584
1644163265.285199,-0.00824,0.011841,-0.990784,0.236122,0.432366,-0.176794,64,263,577,5536
1644163265.333544,-0.00708,0.010925,-0.990601,0.373527,0.432366,-0.176794,51,266,583,5600
1644163265.381925,-0.010986,0.01178,-0.987305,0.327725,0.325496,-0.192061,48,276,583,5536
1644163265.430466,-0.012146,0.010986,-0.989746,0.266656,0.386565,-0.207328,42,280,575,5584
1644163265.478714,-0.010193,0.012329,-0.991821,0.220855,0.340763,-0.161527,64,268,572,5520
1644163265.528476,-0.011963,0.008789,-0.990845,0.266656,0.539237,-0.14626,55,269,580,5584
1644163265.57872,-0.007446,0.010864,-0.99054,0.175053,0.508702,-0.054656,46,269,585,5520
1644163265.628962,-0.01239,0.009949,-0.990356,0.236122,0.447634,0.036947,45,268,572,5536
1644163265.67349,-0.013062,0.01062,-0.990723,0.205588,0.493435,0.036947,51,271,564,5584
1644163265.769055,-0.009766,0.008362,-0.992737,0.251389,0.432366,0.067481,48,281,569,5584
1644163265.817436,-0.010864,0.011047,-0.995117,0.236122,0.447634,-0.192061,52,277,572,5552
1644163265.865821,-0.009949,0.008362,-0.993896,0.129252,0.569771,-0.069924,57,280,565,5600
1644163265.914235,-0.010376,0.011597,-0.992004,0.113985,0.417099,-0.100458,53,274,573,5552
1644163265.962623,-0.006714,0.009338,-0.992432,0.419328,0.356031,-0.069924,54,273,565,5552
1644163266.011017,-0.007996,0.010498,-0.989807,0.190321,0.401832,0.006412,42,273,589,5536
1644163266.059676,-0.009583,0.011658,-0.993164,0.08345,0.493435,-0.039389,55,279,571,5584
1644163266.107723,-0.010864,0.009827,-0.991943,0.327725,0.386565,0.052214,40,275,561,5552
1644163266.156094,-0.010925,0.010681,-0.989502,0.297191,0.447634,-0.069924,47,273,570,5536
1644163266.204525,-0.010498,0.012939,-0.992676,0.327725,0.523969,-0.085191,45,277,572,5488
1644163266.252918,-0.011658,0.011597,-0.990845,0.251389,0.539237,-0.069924,54,275,582,5584
1644163266.301301,-0.009888,0.010559,-0.99176,0.327725,0.554504,-0.115725,48,279,576,5584
1644163266.349656,-0.007812,0.007996,-0.99115,0.159786,0.432366,-0.207328,48,276,578,5600
1644163266.39808,-0.008667,0.007629,-0.992493,0.266656,0.478168,-0.237863,49,268,577,5552
1644163266.446477,-0.009888,0.009521,-0.992432,0.068183,0.554504,-0.100458,53,276,571,5600
1644163266.49488,-0.008789,0.011169,-0.991821,0.159786,0.417099,-0.298931,43,286,576,5536
1644163266.543245,-0.01001,0.009277,-0.991394,0.312458,0.325496,0.006412,59,280,577,5552
1644163266.591632,-0.009338,0.009338,-0.990845,0.297191,0.325496,-0.008855,45,273,570,5584
1644163266.640332,-0.010498,0.011841,-0.989624,0.266656,0.356031,-0.192061,49,277,577,5536
1644163266.689192,-0.010986,0.009827,-0.994446,0.251389,0.371298,-0.069924,57,282,586,5536
1644163266.739585,-0.009338,0.010681,-0.991943,0.266656,0.356031,-0.085191,52,275,570,5600
1644163266.790508,-0.010559,0.010681,-0.99408,0.342992,0.340763,-0.069924,48,269,578,5584
1644163266.881999,-0.009888,0.009705,-0.991699,0.297191,0.386565,-0.14626,41,271,569,5600
1644163266.930414,-0.008667,0.011597,-0.990906,0.251389,0.417099,-0.069924,47,265,568,5552
1644163266.978774,-0.007507,0.01178,-0.992493,0.113985,0.356031,-0.100458,48,281,571,5488
1644163267.027198,-0.00946,0.012695,-0.991943,0.113985,0.432366,-0.130992,60,264,569,5552
1644163267.075623,-0.010498,0.008545,-0.990051,0.266656,0.447634,-0.085191,48,262,562,5584
1644163267.123931,-0.006104,0.010681,-0.988647,0.251389,0.432366,-0.115725,53,274,578,5584
1644163267.172338,-0.009399,0.00885,-0.991577,0.205588,0.386565,0.052214,57,268,568,5536
