epoch,acc_x,acc_y,acc_z,rot_x,rot_y,rot_z,mag_x,mag_y,mag_z,temp
1644178500.032731,-0.012329,0.009827,-0.992737,0.144519,0.386565,0.006412,54,277,584,6016
1644178500.094609,-0.00885,0.011597,-0.991882,0.281924,0.462901,-0.176794,48,283,587,6000
1644178500.133381,-0.009521,0.009644,-0.989685,0.297191,0.432366,-0.069924,45,277,584,5952
1644178500.177465,-0.009033,0.009399,-0.992737,0.266656,0.462901,-0.069924,40,275,589,6000
1644178500.273704,-0.008423,0.013062,-0.992493,0.175053,0.325496,-0.222595,42,280,589,5952
1644178500.322067,-0.009644,0.006226,-0.992065,0.175053,0.356031,0.067481,49,275,586,6016
1644178500.370483,-0.009033,0.010254,-0.992737,0.266656,0.432366,-0.039389,45,277,582,5984
1644178500.418879,-0.008606,0.00946,-0.989746,0.281924,0.356031,-0.085191,43,274,585,5936
1644178500.467263,-0.007568,0.009399,-0.992065,0.205588,0.386565,-0.069924,54,277,584,5984
1644178500.515658,-0.010681,0.006531,-0.992493,0.113985,0.264427,-0.085191,55,266,580,5984
1644178500.564054,-0.009583,0.011536,-0.992737,0.144519,0.646107,-0.115725,40,265,582,5936
1644178500.612466,-0.011047,0.008545,-0.992981,0.312458,0.356031,-0.192061,36,276,585,6016
1644178500.660833,-0.010864,0.011047,-0.993103,0.205588,0.447634,-0.314198,46,271,580,5984
1644178500.709232,-0.011902,0.006409,-0.992493,0.144519,0.356031,-0.054656,59,268,584,5984
1644178500.757616,-0.008362,0.009033,-0.990356,0.35826,0.585038,-0.130992,48,281,583,5952
1644178500.806007,-0.008545,0.009094,-0.992371,0.220855,0.356031,0.052214,54,270,577,5984
1644178500.854467,-0.008301,0.008179,-0.988525,0.144519,0.386565,-0.069924,36,279,583,6048
1644178500.902858,-0.00885,0.007629,-0.991272,0.251389,0.417099,-0.207328,58,283,583,6016
1644178500.951219,-0.007019,0.008728,-0.991821,0.144519,0.539237,-0.100458,48,279,590,6000
1644178500.999593,-0.012024,0.009949,-0.991455,0.419328,0.478168,-0.100458,52,285,582,6000
1644178501.064934,-0.012329,0.009277,-0.991333,0.129252,0.585038,-0.069924,49,282,589,6016
1644178501.096451,-0.009155,0.012451,-0.990967,0.113985,0.493435,-0.085191,45,277,577,5984
1644178501.145161,-0.01178,0.010193,-0.993713,0.159786,0.279695,-0.207328,52,277,582,6000
1644178501.193737,-0.009766,0.009033,-0.991943,0.388794,0.279695,-0.069924,53,264,585,6000
1644178501.244297,-0.009033,0.009399,-0.992798,0.144519,0.340763,-0.054656,48,271,580,6016
1644178501.294536,-0.007629,0.009033,-0.993713,0.190321,0.386565,-0.207328,53,266,580,5984
1644178501.339516,-0.008301,0.00824,-0.992554,0.312458,0.432366,-0.054656,40,265,582,6016
1644178501.435342,-0.010376,0.006775,-0.994446,0.236122,0.401832,-0.024122,46,276,583,5936
1644178501.483519,-0.008545,0.010559,-0.991699,0.129252,0.325496,-0.039389,48,279,585,6080
1644178501.531878,-0.009399,0.008728,-0.991821,0.190321,0.417099,-0.115725,52,280,589,5984
1644178501.580273,-0.006958,0.009094,-0.992493,0.327725,0.310229,-0.176794,51,271,583,5984
1644178501.628669,-0.007263,0.007935,-0.995239,0.190321,0.371298,-0.069924,47,282,584,6048
1644178501.677055,-0.008789,0.008301,-0.99115,0.327725,0.508702,-0.100458,52,275,589,6000
1644178501.725451,-0.009094,0.00885,-0.992249,0.327725,0.462901,-0.207328,46,274,585,5984
1644178501.773847,-0.009216,0.007507,-0.989075,0.220855,0.462901,0.052214,48,271,585,6080
1644178501.822265,-0.00885,0.009888,-0.991577,0.35826,0.417099,-0.069924,46,281,578,5936
1644178501.870685,-0.009827,0.010986,-0.992432,0.266656,0.432366,-0.039389,48,279,580,5984
1644178501.919067,-0.008118,0.010193,-0.993042,0.404061,0.493435,-0.161527,42,280,584,6000
1644178501.967456,-0.007507,0.01178,-0.990784,0.297191,0.447634,-0.176794,52,270,582,6000
1644178502.015857,-0.007812,0.008484,-0.989746,0.190321,0.356031,-0.161527,53,276,585,5984
1644178502.075415,-0.008728,0.011658,-0.992554,0.251389,0.447634,-0.14626,54,282,586,5984
1644178502.11319,-0.007568,0.011108,-0.99115,0.175053,0.24916,-0.14626,58,279,578,5984
1644178502.160992,-0.007874,0.007385,-0.988525,0.297191,0.432366,-0.100458,53,276,583,6016
1644178502.209381,-0.011169,0.006653,-0.991394,0.281924,0.462901,-0.222595,51,286,571,5984
1644178502.257769,-0.009705,0.009277,-0.990601,0.312458,0.386565,-0.008855,42,285,586,5952
1644178502.306166,-0.00946,0.011536,-0.990356,0.220855,0.508702,-0.069924,53,291,585,6016
1644178502.354658,-0.007751,0.01062,-0.994324,0.281924,0.310229,-0.176794,52,290,586,6016
1644178502.405047,-0.010254,0.009888,-0.992493,0.175053,0.386565,-0.069924,43,274,583,5952
1644178502.455394,-0.011841,0.00885,-0.994629,0.052916,0.523969,-0.069924,48,271,583,5984
1644178502.50041,-0.005798,0.011169,-0.988892,0.068183,0.432366,-0.069924,49,273,596,5952
1644178502.5965,-0.009521,0.010498,-0.990784,0.281924,0.356031,-0.14626,46,279,585,5984
1644178502.644916,-0.006897,0.007446,-0.99231,0.236122,0.447634,-0.024122,49,287,582,6048
1644178502.693295,-0.008728,0.01123,-0.992249,0.159786,0.340763,-0.100458,47,268,579,6000
1644178502.741682,-0.009155,0.009949,-0.989258,0.129252,0.371298,-0.054656,48,281,585,5984
1644178502.790068,-0.007751,0.006836,-0.991943,0.175053,0.371298,-0.115725,48,271,580,6048
1644178502.83848,-0.00592,0.008728,-0.991333,0.297191,0.371298,-0.039389,48,286,578,6016
1644178502.886897,-0.007935,0.009338,-0.989685,0.312458,0.478168,0.082748,48,281,576,6000
1644178502.93532,-0.009827,0.007141,-0.992859,0.190321,0.417099,0.006412,49,277,582,6000
1644178502.983695,-0.009338,0.009888,-0.992004,0.266656,0.447634,-0.054656,51,271,580,6016
1644178503.032079,-0.007629,0.010315,-0.990784,0.266656,0.493435,-0.085191,54,277,582,5984
1644178503.092827,-0.009033,0.013428,-0.989014,0.159786,0.523969,-0.130992,46,281,590,6016
1644178503.128848,-0.010742,0.010437,-0.990112,0.281924,0.539237,0.006412,51,279,576,5936
1644178503.177216,-0.010193,0.00885,-0.990112,0.404061,0.462901,-0.161527,57,282,589,6000
1644178503.225608,-0.008728,0.008118,-0.994202,0.236122,0.371298,0.052214,47,277,582,5952
1644178503.275256,-0.010437,0.010376,-0.991699,0.251389,0.462901,-0.207328,46,274,587,5984
1644178503.325688,-0.006958,0.011292,-0.991943,0.205588,0.432366,-0.222595,51,279,583,6000
1644178503.375817,-0.012451,0.009277,-0.989441,0.175053,0.478168,-0.069924,47,290,591,6048
1644178503.467573,-0.007996,0.008728,-0.994019,0.312458,0.493435,-0.054656,47,287,579,5984
1644178503.51595,-0.006897,0.012024,-0.992371,0.266656,0.447634,-0.14626,48,274,587,5984
1644178503.564357,-0.01062,0.012573,-0.992798,0.327725,0.447634,0.082748,33,282,582,5952
1644178503.612753,-0.007629,0.00946,-0.990173,0.144519,0.447634,-0.283664,57,273,589,5984
1644178503.661127,-0.01062,0.011841,-0.99292,0.297191,0.401832,-0.161527,49,265,582,6016
1644178503.709514,-0.01178,0.008484,-0.992676,0.175053,0.264427,-0.176794,45,275,586,6000
1644178503.757893,-0.007141,0.008545,-0.989319,0.342992,0.417099,-0.024122,52,273,582,6016
1644178503.806318,-0.009338,0.007996,-0.98999,0.236122,0.478168,-0.176794,51,279,583,5984
1644178503.854722,-0.00708,0.008972,-0.990601,0.220855,0.478168,-0.314198,51,276,587,5952
1644178503.903149,-0.007202,0.00885,-0.992188,0.175053,0.539237,-0.176794,52,285,579,5984
1644178503.951512,-0.009277,0.009644,-0.991089,0.220855,0.447634,-0.039389,49,277,589,6000
1644178503.999925,-0.009094,0.007019,-0.991028,0.220855,0.401832,-0.008855,46,281,583,6000
1644178504.060529,-0.009399,0.009766,-0.992249,0.129252,0.325496,-0.176794,43,269,585,6000
1644178504.100271,-0.010437,0.010803,-0.991211,0.190321,0.401832,-0.100458,57,270,586,5984
1644178504.145157,-0.008667,0.009827,-0.994568,0.144519,0.294962,-0.069924,52,277,582,5984
1644178504.193439,-0.009155,0.010132,-0.989624,0.281924,0.508702,-0.176794,55,281,592,6016
1644178504.241838,-0.008057,0.010559,-0.993042,0.098718,0.447634,0.021679,58,281,590,5952
1644178504.290237,-0.011902,0.008789,-0.99292,0.312458,0.462901,-0.115725,53,271,587,5952
1644178504.338634,-0.010071,0.010803,-0.992493,0.190321,0.493435,-0.039389,62,274,585,6048
1644178504.387393,-0.010132,0.008728,-0.994568,0.281924,0.462901,-0.039389,41,281,566,5984
1644178504.437747,-0.010681,0.006226,-0.993469,0.159786,0.233893,-0.054656,53,274,590,6000
1644178504.487859,-0.00885,0.008789,-0.990906,0.144519,0.401832,0.021679,54,282,582,6080
1644178504.532951,-0.009583,0.008667,-0.991638,0.236122,0.447634,-0.008855,46,274,587,6016
1644178504.628967,-0.008423,0.01123,-0.989807,0.312458,0.478168,0.021679,55,283,583,6000
1644178504.67735,-0.009216,0.010681,-0.991943,0.251389,0.386565,-0.161527,41,269,580,5952
1644178504.725743,-0.012634,0.009216,-0.989929,0.327725,0.462901,-0.085191,46,279,585,6000
1644178504.774157,-0.00824,0.012512,-0.989624,0.312458,0.493435,-0.176794,59,270,589,6000
1644178504.822593,-0.006531,0.009521,-0.990051,0.327725,0.417099,-0.039389,47,282,577,6016
1644178504.870975,-0.012268,0.011902,-0.991516,0.144519,0.386565,-0.100458,52,285,589,5984
1644178504.919375,-0.010803,0.011475,-0.990356,0.236122,0.325496,-0.085191,41,288,578,6016
1644178504.967778,-0.008057,0.008301,-0.994019,0.190321,0.493435,-0.024122,43,286,578,6000
1644178505.01616,-0.008972,0.010071,-0.99353,0.144519,0.417099,-0.130992,48,269,578,5984
1644178505.069139,-0.008362,0.009705,-0.98877,0.251389,0.508702,0.098015,41,274,590,5936
1644178505.112944,-0.009155,0.009949,-0.991089,0.404061,0.386565,-0.054656,45,282,589,5936
1644178505.161285,-0.008667,0.009888,-0.994446,0.434595,0.432366,-0.268397,47,287,586,6048
1644178505.209671,-0.00592,0.008667,-0.992798,0.297191,0.371298,-0.024122,48,283,585,6048
1644178505.258057,-0.010132,0.00946,-0.992004,0.159786,0.401832,-0.008855,54,282,584,5984
1644178505.306473,-0.010315,0.007812,-0.992676,0.236122,0.462901,-0.176794,47,280,593,6016
1644178505.35487,-0.009033,0.01123,-0.991272,0.495664,0.478168,-0.024122,59,270,591,6016
1644178505.403254,-0.009338,0.011292,-0.990784,0.388794,0.432366,-0.069924,53,281,585,5952
1644178505.451648,-0.008789,0.00824,-0.992371,0.022382,0.386565,-0.008855,52,282,589,6000
1644178505.500312,-0.009155,0.009094,-0.990295,0.190321,0.432366,-0.268397,53,274,585,6000
1644178505.548631,-0.010193,0.01062,-0.991089,0.236122,0.386565,-0.100458,51,281,587,6016
1644178505.599106,-0.008789,0.010132,-0.987183,0.190321,0.371298,-0.054656,49,273,591,6000
1644178505.649493,-0.007446,0.009399,-0.990723,0.251389,0.233893,-0.161527,46,281,583,6016
1644178505.694338,-0.010681,0.012085,-0.994812,0.35826,0.523969,-0.176794,54,277,582,6000
1644178505.790386,-0.008423,0.009583,-0.990906,0.144519,0.371298,-0.054656,43,279,583,5984
1644178505.838828,-0.008667,0.01062,-0.993042,0.419328,0.462901,0.082748,49,273,589,5984
1644178505.887202,-0.007935,0.009705,-0.99115,0.327725,0.401832,0.036947,52,280,577,6016
1644178505.935607,-0.011108,0.012451,-0.989502,0.404061,0.508702,-0.161527,49,277,589,6080
1644178505.983982,-0.00824,0.007996,-0.992981,0.251389,0.371298,-0.085191,51,276,576,5984
1644178506.032408,-0.009033,0.010498,-0.993469,0.08345,0.371298,-0.039389,46,279,585,5952
1644178506.083831,-0.010498,0.010681,-0.992798,0.46513,0.447634,-0.039389,53,279,592,6000
1644178506.129135,-0.009888,0.008789,-0.992554,0.220855,0.432366,-0.207328,55,281,594,5984
1644178506.177524,-0.007446,0.009644,-0.992981,0.251389,0.462901,-0.069924,61,273,582,6016
1644178506.225923,-0.007629,0.009888,-0.992371,0.388794,0.371298,-0.176794,51,288,583,6000
1644178506.27432,-0.007446,0.012634,-0.988464,0.220855,0.24916,-0.100458,49,282,582,6000
1644178506.322687,-0.00592,0.007935,-0.990417,0.190321,0.462901,-0.085191,52,277,582,5904
1644178506.371093,-0.008789,0.007263,-0.992065,0.236122,0.493435,-0.069924,42,280,582,6080
1644178506.41949,-0.010315,0.01178,-0.99231,0.312458,0.386565,-0.192061,47,277,586,5952
1644178506.467884,-0.009155,0.010193,-0.990295,0.297191,0.478168,-0.008855,40,280,582,5936
1644178506.516265,-0.008789,0.011536,-0.992798,0.373527,0.325496,-0.314198,47,275,598,6016
1644178506.564667,-0.008972,0.00592,-0.991455,0.281924,0.554504,-0.069924,46,262,583,5984
1644178506.613059,-0.008911,0.009705,-0.989807,0.205588,0.371298,0.006412,58,274,583,5936
1644178506.661452,-0.010193,0.010742,-0.993958,0.129252,0.279695,0.006412,43,288,585,6016
1644178506.710249,-0.00824,0.009827,-0.991455,0.266656,0.386565,-0.100458,49,268,605,5952
1644178506.760884,-0.008789,0.01001,-0.993347,0.190321,0.356031,-0.054656,52,275,584,6048
1644178506.811976,-0.006104,0.010498,-0.992554,0.297191,0.401832,-0.115725,35,275,586,6048
1644178506.856364,-0.006958,0.008484,-0.994751,0.175053,0.386565,-0.039389,45,285,586,5984
1644178506.951819,-0.006287,0.010986,-0.989075,0.068183,0.386565,-0.069924,48,271,587,6016
1644178507.000235,-0.008972,0.009094,-0.991394,0.35826,0.432366,-0.100458,51,281,583,5952
1644178507.06283,-0.009216,0.00824,-0.994873,0.236122,0.218626,-0.14626,43,269,585,5984
1644178507.097565,-0.007568,0.011292,-0.991821,0.220855,0.432366,-0.115725,38,280,586,6000
1644178507.145358,-0.010254,0.011169,-0.99292,0.281924,0.569771,-0.100458,57,275,579,6000
1644178507.193782,-0.008667,0.009583,-0.992615,0.113985,0.478168,0.036947,48,276,590,6064
1644178507.24224,-0.007446,0.007935,-0.99231,0.312458,0.356031,0.036947,47,273,582,6064
1644178507.290542,-0.01123,0.011475,-0.992798,0.113985,0.462901,-0.115725,43,276,585,6048
1644178507.338939,-0.008667,0.009583,-0.98999,0.205588,0.447634,-0.054656,49,270,593,6000
1644178507.387327,-0.011475,0.009033,-0.992798,0.205588,0.493435,-0.14626,46,271,580,6016
1644178507.435723,-0.01178,0.010498,-0.992554,0.236122,0.462901,-0.085191,53,281,578,5984
1644178507.484105,-0.00824,0.009705,-0.991943,0.205588,0.401832,-0.115725,59,275,591,5952
1644178507.53253,-0.01001,0.007385,-0.992676,0.220855,0.417099,-0.176794,48,274,590,6016
1644178507.580901,-0.00708,0.009277,-0.989502,0.190321,0.401832,-0.14626,51,279,587,6000
1644178507.630391,-0.007812,0.008362,-0.990417,0.281924,0.462901,-0.115725,51,281,580,6000
1644178507.680676,-0.010193,0.011536,-0.994568,0.251389,0.371298,-0.100458,47,277,579,6000
1644178507.730731,-0.009705,0.008972,-0.991272,0.205588,0.371298,-0.161527,41,279,585,5984
1644178507.775902,-0.010254,0.009766,-0.989929,0.281924,0.401832,-0.115725,39,274,578,5984
1644178507.871287,-0.009277,0.01001,-0.992126,0.327725,0.279695,-0.115725,52,275,586,5984
1644178507.919673,-0.009155,0.011841,-0.99292,0.251389,0.386565,0.082748,40,273,575,5984
1644178507.96807,-0.010559,0.010071,-0.991699,0.266656,0.417099,-0.161527,57,270,586,6016
1644178508.016457,-0.009155,0.007874,-0.994507,0.220855,0.417099,-0.024122,46,283,585,5984
1644178508.067089,-0.007935,0.009583,-0.992798,0.236122,0.462901,-0.161527,54,285,584,6000
1644178508.113269,-0.007507,0.010071,-0.992188,0.434595,0.371298,-0.25313,53,274,583,6016
1644178508.161597,-0.008057,0.010376,-0.99353,0.35826,0.356031,0.021679,48,281,583,5984
1644178508.209991,-0.008606,0.011719,-0.993469,0.220855,0.447634,-0.100458,48,276,576,6080
1644178508.2584,-0.008789,0.007324,-0.989746,0.190321,0.493435,-0.14626,46,269,590,5952
1644178508.306756,-0.005981,0.009399,-0.990906,0.35826,0.401832,-0.130992,52,273,579,5984
1644178508.355262,-0.007385,0.009094,-0.994995,0.113985,0.401832,0.006412,42,273,586,6064
1644178508.403566,-0.008118,0.008667,-0.99231,0.236122,0.325496,-0.024122,41,283,583,5952
1644178508.451968,-0.008728,0.007629,-0.991943,0.35826,0.508702,-0.008855,43,274,583,5936
1644178508.50035,-0.007996,0.012207,-0.994263,0.144519,0.356031,-0.039389,42,273,570,5984
1644178508.548725,-0.006714,0.008789,-0.989441,0.175053,0.264427,-0.008855,41,291,592,5904
1644178508.597115,-0.008606,0.009888,-0.991699,0.175053,0.417099,-0.008855,57,277,579,6048
1644178508.64552,-0.007629,0.010193,-0.991638,0.251389,0.554504,-0.069924,57,280,582,5984
1644178508.693911,-0.009766,0.010681,-0.994629,0.190321,0.417099,-0.039389,48,276,578,5952
1644178508.742319,-0.007935,0.009766,-0.992676,0.159786,0.539237,-0.039389,53,281,578,6064
1644178508.791064,-0.008606,0.009644,-0.989258,0.190321,0.356031,0.082748,48,274,576,5952
1644178508.841817,-0.010681,0.010803,-0.989807,0.266656,0.417099,-0.069924,51,266,599,6016
1644178508.892636,-0.007019,0.009827,-0.990112,0.175053,0.356031,0.036947,43,283,587,6016
1644178508.937546,-0.006104,0.013123,-0.987671,0.236122,0.508702,-0.069924,47,280,575,5984
1644178509.032694,-0.008667,0.010925,-0.992737,0.129252,0.447634,-0.130992,42,275,582,6016
1644178509.082708,-0.010925,0.007507,-0.987732,0.266656,0.279695,-0.176794,45,280,584,6016
1644178509.129458,-0.008606,0.009216,-0.990112,0.175053,0.462901,-0.069924,55,281,580,5952
1644178509.177812,-0.010193,0.011292,-0.992188,0.220855,0.478168,-0.100458,58,276,590,6000
1644178509.226224,-0.00946,0.009094,-0.992249,0.251389,0.371298,0.006412,55,279,580,6000
1644178509.274834,-0.008179,0.009155,-0.994141,0.175053,0.294962,0.082748,53,281,583,6000
1644178509.323024,-0.009033,0.012329,-0.990051,0.175053,0.432366,-0.039389,48,276,578,5952
1644178509.371412,-0.01001,0.008057,-0.991333,0.327725,0.508702,-0.207328,57,282,584,6048
1644178509.419796,-0.007751,0.009949,-0.991028,0.251389,0.371298,0.021679,45,270,586,5952
1644178509.46818,-0.010742,0.011047,-0.992676,0.144519,0.478168,-0.130992,52,270,589,6080
1644178509.516571,-0.007446,0.007996,-0.993469,0.098718,0.356031,-0.25313,55,276,580,5952
1644178509.565086,-0.00824,0.008362,-0.990173,0.159786,0.554504,0.036947,53,269,580,5984
1644178509.613358,-0.010803,0.010132,-0.992249,0.236122,0.478168,-0.14626,51,283,583,6048
1644178509.661767,-0.009705,0.006165,-0.990051,0.342992,0.462901,-0.130992,51,283,580,5952
1644178509.710127,-0.006958,0.009705,-0.99292,0.113985,0.325496,-0.024122,52,270,589,5984
1644178509.758537,-0.011108,0.009094,-0.989868,0.266656,0.386565,-0.008855,46,286,590,5984
1644178509.806927,-0.010193,0.010071,-0.991455,0.159786,0.401832,-0.176794,43,266,578,5904
1644178509.85584,-0.008606,0.007751,-0.993286,0.312458,0.447634,-0.008855,49,268,577,6016
1644178509.906332,-0.010315,0.009399,-0.992432,0.205588,0.279695,-0.192061,43,274,587,6016
1644178509.956743,-0.00708,0.010193,-0.990845,0.297191,0.401832,-0.024122,48,279,573,6016
1644178510.000897,-0.007263,0.010803,-0.993408,0.205588,0.401832,-0.115725,51,262,594,5984
1644178510.099208,-0.008118,0.010803,-0.990295,0.236122,0.447634,-0.054656,49,277,593,5984
1644178510.145698,-0.007446,0.007812,-0.993164,0.404061,0.554504,-0.207328,41,286,578,6000
1644178510.194079,-0.010986,0.009521,-0.991455,0.281924,0.371298,-0.054656,53,276,585,6000
1644178510.242464,-0.008301,0.012512,-0.993042,0.190321,0.340763,-0.039389,43,274,587,5904
1644178510.290849,-0.007385,0.010315,-0.991455,0.205588,0.523969,-0.176794,48,271,578,5952
1644178510.339232,-0.00824,0.010254,-0.992859,0.129252,0.356031,-0.039389,51,274,578,5952
1644178510.387631,-0.009033,0.010864,-0.99115,0.312458,0.539237,-0.100458,36,276,592,5984
1644178510.436018,-0.009338,0.007874,-0.991211,0.052916,0.371298,0.036947,51,271,590,5984
1644178510.484412,-0.00946,0.010071,-0.991577,0.251389,0.432366,-0.130992,59,277,584,6000
1644178510.532817,-0.005981,0.008667,-0.99176,0.190321,0.340763,-0.085191,40,275,582,5984
1644178510.581214,-0.008118,0.00946,-0.993896,0.312458,0.417099,-0.14626,47,277,582,6000
1644178510.630919,-0.008423,0.008789,-0.990356,0.098718,0.539237,0.036947,49,268,572,6000
1644178510.681297,-0.008179,0.009033,-0.98938,0.251389,0.279695,-0.237863,51,276,576,6000
1644178510.73164,-0.005066,0.010925,-0.992004,0.175053,0.279695,-0.069924,55,274,599,6016
1644178510.823176,-0.010254,0.009216,-0.994263,0.35826,0.279695,-0.222595,45,290,593,6000
1644178510.871568,-0.005859,0.010376,-0.991882,0.205588,0.279695,-0.161527,46,281,580,6016
1644178510.91999,-0.007507,0.011047,-0.993103,0.175053,0.386565,-0.008855,53,269,590,6016
1644178510.968336,-0.010132,0.010376,-0.99115,0.266656,0.417099,-0.100458,46,264,578,6064
1644178511.016764,-0.007568,0.008606,-0.987366,0.236122,0.417099,-0.115725,48,271,585,6016
1644178511.068005,-0.008423,0.009583,-0.991699,0.236122,0.371298,-0.14626,51,283,585,6000
1644178511.113582,-0.008606,0.009155,-0.992981,0.144519,0.508702,-0.192061,58,281,580,5952
1644178511.161929,-0.009827,0.010315,-0.991821,0.098718,0.401832,-0.130992,49,275,584,6000
1644178511.210275,-0.010193,0.010193,-0.991394,0.144519,0.523969,-0.25313,49,273,579,5984
1644178511.258691,-0.008484,0.009949,-0.992981,0.220855,0.615573,0.082748,42,277,584,6016
1644178511.307058,-0.009949,0.008179,-0.987244,0.236122,0.493435,-0.115725,47,268,589,6048
1644178511.355505,-0.008911,0.010254,-0.993164,0.220855,0.478168,-0.207328,49,282,579,5984
1644178511.403905,-0.008606,0.009827,-0.989441,0.236122,0.432366,-0.100458,55,276,587,5984
1644178511.452271,-0.008667,0.009216,-0.99231,0.220855,0.432366,-0.069924,54,275,586,5984
1644178511.50065,-0.00946,0.010193,-0.989075,0.220855,0.478168,-0.176794,47,277,582,6000
1644178511.549032,-0.010376,0.010376,-0.991699,0.281924,0.493435,-0.161527,54,287,584,6016
1644178511.597405,-0.006653,0.011047,-0.991333,0.220855,0.493435,-0.115725,51,266,592,5952
1644178511.645828,-0.007751,0.009705,-0.992798,0.373527,0.508702,-0.237863,43,274,587,6016
1644178511.694218,-0.008545,0.01062,-0.99231,0.312458,0.447634,-0.069924,52,287,582,5984
1644178511.742999,-0.012756,0.008057,-0.990417,0.190321,0.508702,-0.161527,49,277,584,6080
1644178511.79346,-0.007385,0.010315,-0.991028,0.159786,0.340763,-0.25313,53,288,590,6080
1644178511.843988,-0.009338,0.008118,-0.989685,0.175053,0.569771,0.036947,52,280,577,5984
1644178511.889567,-0.009583,0.009705,-0.992676,0.297191,0.386565,-0.207328,54,275,577,5984
1644178511.985002,-0.012207,0.009521,-0.993958,0.205588,0.294962,-0.085191,45,265,577,5952
1644178512.032976,-0.008911,0.010376,-0.989075,0.251389,0.386565,-0.14626,57,277,577,6000
1644178512.082932,-0.010986,0.005615,-0.992371,0.205588,0.310229,-0.008855,42,270,584,6048
1644178512.129745,-0.007629,0.011597,-0.990234,0.388794,0.539237,-0.024122,40,290,584,6016
1644178512.178148,-0.009155,0.011414,-0.991516,0.220855,0.447634,-0.054656,41,283,590,5952
1644178512.226527,-0.007996,0.012573,-0.993713,0.251389,0.447634,0.006412,54,275,586,6016
1644178512.274917,-0.007935,0.00946,-0.99054,0.205588,0.493435,-0.130992,46,279,587,6000
1644178512.323314,-0.006897,0.010132,-0.994141,0.266656,0.294962,-0.237863,45,270,577,5984
1644178512.371706,-0.008606,0.009521,-0.989685,0.220855,0.401832,-0.192061,42,273,582,5984
1644178512.420089,-0.006531,0.008362,-0.991943,0.236122,0.432366,-0.176794,51,279,585,5952
1644178512.468485,-0.00885,0.010376,-0.993469,0.312458,0.417099,-0.085191,41,266,585,5952
1644178512.516876,-0.005493,0.010315,-0.991028,0.236122,0.478168,-0.14626,41,279,592,6000
1644178512.565294,-0.00824,0.007263,-0.993042,0.251389,0.310229,-0.054656,45,277,586,5936
1644178512.613648,-0.012573,0.008728,-0.990295,0.159786,0.462901,-0.054656,55,269,585,5952
1644178512.662063,-0.008362,0.010193,-0.991882,0.266656,0.325496,-0.100458,49,290,598,6016
1644178512.710451,-0.011841,0.010071,-0.993347,0.297191,0.447634,-0.176794,47,277,589,6016
1644178512.758839,-0.009216,0.010315,-0.989258,0.037649,0.569771,-0.130992,48,276,592,6000
1644178512.807277,-0.009033,0.01062,-0.99353,0.205588,0.554504,-0.100458,54,285,584,5984
1644178512.857038,-0.007263,0.007629,-0.991577,0.175053,0.325496,-0.25313,51,279,583,5952
1644178512.907336,-0.009705,0.008057,-0.991028,0.266656,0.554504,-0.008855,52,273,584,5952
1644178512.957401,-0.00824,0.01123,-0.992004,0.297191,0.279695,-0.14626,45,277,591,5984
1644178513.059837,-0.008118,0.008057,-0.98938,0.175053,0.523969,-0.024122,59,277,591,6016
1644178513.098615,-0.009949,0.009338,-0.991333,0.113985,0.493435,-0.176794,43,271,592,5984
1644178513.145972,-0.008911,0.010071,-0.990479,0.312458,0.417099,-0.14626,47,285,586,5936
1644178513.194443,-0.008789,0.009277,-0.991211,0.068183,0.585038,-0.054656,49,280,591,5936
1644178513.242775,-0.008118,0.008789,-0.991821,0.220855,0.432366,-0.161527,48,283,594,6000
1644178513.29116,-0.007263,0.007202,-0.993774,0.236122,0.325496,-0.085191,46,283,583,5952
1644178513.339539,-0.010193,0.010986,-0.992188,0.251389,0.371298,-0.161527,38,277,582,5984
1644178513.387947,-0.011169,0.010071,-0.993408,0.297191,0.386565,-0.192061,51,271,580,5984
1644178513.436292,-0.010498,0.011841,-0.99054,0.113985,0.340763,-0.130992,59,273,591,5984
1644178513.484718,-0.011353,0.011597,-0.991394,0.236122,0.417099,-0.115725,55,271,585,5984
1644178513.533129,-0.010132,0.009399,-0.990784,0.35826,0.371298,-0.085191,51,279,585,6016
1644178513.581505,-0.009216,0.01123,-0.992065,0.220855,0.356031,-0.008855,53,286,583,5952
1644178513.629873,-0.008057,0.008789,-0.991638,0.434595,0.432366,-0.130992,46,271,578,6016
1644178513.678379,-0.010315,0.010864,-0.989624,0.205588,0.340763,0.021679,48,283,580,6016
1644178513.727787,-0.009583,0.007751,-0.991455,0.175053,0.401832,-0.115725,57,270,589,5952
1644178513.778298,-0.005493,0.01123,-0.991699,0.35826,0.340763,-0.115725,53,264,580,5984
1644178513.828781,-0.010864,0.008789,-0.991455,0.236122,0.417099,-0.069924,54,280,584,6048
1644178513.920332,-0.008484,0.010193,-0.993347,0.342992,0.371298,-0.100458,48,279,580,6048
1644178513.968677,-0.006104,0.013855,-0.993103,0.113985,0.478168,-0.14626,42,280,586,6048
1644178514.017073,-0.009094,0.009766,-0.993652,0.266656,0.569771,-0.085191,51,269,578,5904
1644178514.069536,-0.009888,0.010925,-0.99292,0.159786,0.340763,-0.176794,55,271,583,6048
1644178514.113858,-0.008545,0.00824,-0.99469,0.266656,0.462901,-0.085191,52,280,582,5984
1644178514.162239,-0.006775,0.010437,-0.990295,0.342992,0.493435,-0.100458,53,269,585,6000
1644178514.210614,-0.007812,0.012268,-0.991394,0.129252,0.401832,-0.100458,55,279,576,5984
1644178514.258997,-0.010437,0.008118,-0.992126,0.297191,0.371298,-0.207328,46,279,585,6016
1644178514.307364,-0.010193,0.010376,-0.991272,0.236122,0.447634,-0.039389,47,273,584,5984
1644178514.355787,-0.009399,0.007812,-0.991211,0.052916,0.401832,-0.176794,53,286,578,5984
1644178514.404187,-0.01062,0.008484,-0.989685,0.236122,0.310229,-0.100458,43,274,587,6048
1644178514.452572,-0.00885,0.010376,-0.99353,0.220855,0.356031,-0.100458,40,280,582,6000
1644178514.500972,-0.010498,0.01001,-0.992126,0.419328,0.310229,-0.069924,41,279,576,6000
1644178514.549349,-0.007019,0.010437,-0.990845,0.327725,0.340763,-0.161527,43,281,583,5952
1644178514.597755,-0.010803,0.009094,-0.989807,0.266656,0.279695,-0.100458,45,277,589,5984
1644178514.646128,-0.008484,0.011841,-0.99115,0.266656,0.417099,-0.14626,51,276,578,6016
1644178514.694525,-0.00592,0.011475,-0.992249,0.159786,0.325496,-0.130992,52,282,593,6112
1644178514.742927,-0.007385,0.010864,-0.988953,0.266656,0.386565,-0.115725,55,279,583,6016
1644178514.791317,-0.00531,0.010925,-0.992737,0.251389,0.386565,-0.024122,57,285,586,6016
1644178514.84051,-0.009521,0.010071,-0.992737,0.251389,0.447634,0.036947,53,271,587,6048
1644178514.89129,-0.007874,0.009155,-0.990417,0.251389,0.462901,-0.14626,41,279,587,6048
1644178514.941499,-0.007141,0.007629,-0.991882,0.297191,0.401832,-0.024122,43,271,571,5952
1644178514.986149,-0.010376,0.009644,-0.991943,0.205588,0.188092,-0.008855,42,273,584,5952
1644178515.083454,-0.010254,0.009705,-0.988586,0.281924,0.371298,-0.039389,49,277,584,5984
1644178515.130084,-0.006653,0.009033,-0.992981,0.236122,0.478168,-0.115725,43,279,583,6016
1644178515.178439,-0.01123,0.009949,-0.992615,0.113985,0.386565,-0.069924,57,277,584,5904
1644178515.22683,-0.009155,0.008667,-0.990784,0.159786,0.264427,-0.130992,48,276,585,6048
1644178515.275223,-0.010315,0.00708,-0.993896,0.373527,0.432366,-0.130992,47,275,582,6048
1644178515.323628,-0.013123,0.007446,-0.993286,0.098718,0.508702,-0.130992,49,270,582,6016
1644178515.372011,-0.009521,0.009949,-0.994324,0.159786,0.432366,-0.085191,39,276,585,6016
1644178515.420393,-0.007202,0.008057,-0.989807,0.251389,0.294962,-0.115725,53,281,580,5904
1644178515.468796,-0.008057,0.010071,-0.990051,0.159786,0.508702,-0.161527,43,281,585,5984
1644178515.517161,-0.009277,0.008911,-0.991394,0.236122,0.264427,-0.039389,49,273,586,6064
1644178515.565575,-0.008911,0.009399,-0.991272,0.373527,0.325496,-0.207328,55,271,590,6048
1644178515.613971,-0.010498,0.010803,-0.993225,0.236122,0.356031,-0.054656,43,274,585,6000
1644178515.662381,-0.009155,0.008301,-0.989929,0.129252,0.386565,-0.024122,53,279,585,5984
1644178515.710756,-0.009949,0.01416,-0.990295,0.159786,0.478168,-0.192061,54,270,579,6016
1644178515.75912,-0.010254,0.008728,-0.989807,0.266656,0.340763,-0.115725,55,271,583,5984
1644178515.807533,-0.007507,0.008362,-0.98999,0.251389,0.279695,-0.115725,45,265,589,5904
1644178515.85737,-0.008606,0.009827,-0.989685,0.281924,0.401832,-0.069924,49,282,591,5952
1644178515.907282,-0.008789,0.009827,-0.992737,0.449863,0.508702,-0.085191,45,275,584,5984
1644178515.957649,-0.009644,0.007935,-0.992615,0.266656,0.432366,-0.161527,47,277,584,6000
1644178516.066364,-0.01355,0.007996,-0.99292,0.312458,0.447634,-0.14626,53,271,585,6048
1644178516.101398,-0.00769,0.010681,-0.995422,0.236122,0.432366,-0.069924,51,274,587,6048
1644178516.146316,-0.009644,0.008545,-0.993103,0.159786,0.310229,-0.161527,46,281,590,6048
1644178516.194716,-0.012695,0.008606,-0.994263,0.236122,0.432366,-0.161527,46,271,578,5952
1644178516.243086,-0.007202,0.005859,-0.992798,0.404061,0.462901,-0.100458,49,277,586,5984
1644178516.29146,-0.010193,0.010498,-0.996033,0.144519,0.462901,-0.207328,54,275,586,6000
1644178516.339853,-0.009521,0.009399,-0.993042,0.220855,0.340763,-0.161527,49,285,582,5952
1644178516.388233,-0.010559,0.007568,-0.992493,0.205588,0.432366,-0.130992,40,280,582,5952
1644178516.43663,-0.009583,0.010864,-0.991577,0.266656,0.447634,-0.085191,36,274,583,6016
1644178516.485057,-0.011047,0.007751,-0.993713,0.266656,0.432366,-0.14626,52,273,586,6000
1644178516.533732,-0.009949,0.009033,-0.991516,0.175053,0.493435,-0.069924,46,269,590,6016
1644178516.583098,-0.011841,0.009644,-0.992737,0.220855,0.478168,-0.14626,58,269,571,6016
1644178516.633417,-0.009094,0.009216,-0.992798,0.113985,0.371298,-0.207328,48,276,590,6000
1644178516.683607,-0.012329,0.009521,-0.990784,0.266656,0.417099,-0.039389,45,277,586,6112
1644178516.775421,-0.008789,0.006592,-0.99176,0.373527,0.310229,0.12855,47,275,579,5952
1644178516.823756,-0.009399,0.010986,-0.993042,0.312458,0.356031,-0.054656,42,282,584,5904
1644178516.872435,-0.010437,0.011169,-0.993835,0.220855,0.356031,-0.039389,57,275,584,5936
1644178516.920603,-0.009521,0.007568,-0.990234,0.113985,0.386565,0.006412,53,281,592,6048
1644178516.968944,-0.007812,0.008667,-0.990784,0.281924,0.340763,-0.192061,45,277,584,6016
1644178517.017384,-0.010071,0.008362,-0.993408,0.175053,0.356031,-0.054656,49,268,586,6000
1644178517.069741,-0.010254,0.010315,-0.993286,0.159786,0.600305,-0.100458,52,275,586,5952
1644178517.11416,-0.01001,0.009033,-0.991394,0.205588,0.508702,-0.192061,45,275,579,6000
1644178517.162585,-0.009827,0.009949,-0.989746,0.327725,0.585038,-0.161527,49,282,602,6016
1644178517.210919,-0.013,0.006897,-0.990051,0.190321,0.523969,0.036947,47,277,579,6016
1644178517.25931,-0.008057,0.010193,-0.992554,0.297191,0.493435,-0.130992,49,273,575,6000
1644178517.307683,-0.00946,0.008301,-0.990479,0.144519,0.523969,-0.069924,45,280,589,5984
1644178517.356076,-0.011108,0.007751,-0.992798,0.068183,0.432366,0.021679,57,270,596,5984
1644178517.40449,-0.011108,0.010193,-0.993408,0.175053,0.371298,-0.192061,58,276,585,6000
1644178517.452854,-0.006165,0.009827,-0.990906,0.205588,0.508702,-0.008855,45,273,584,6000
1644178517.501261,-0.010742,0.007446,-0.990417,0.236122,0.462901,0.021679,53,283,587,6000
1644178517.549655,-0.011047,0.008484,-0.990723,0.281924,0.447634,-0.130992,43,283,583,6016
1644178517.598045,-0.010376,0.007568,-0.992188,0.220855,0.493435,-0.130992,49,275,579,6000
1644178517.646408,-0.01178,0.01001,-0.991516,0.220855,0.417099,-0.100458,49,275,589,6048
1644178517.694974,-0.009888,0.008545,-0.992493,0.312458,0.478168,-0.039389,58,283,597,6016
1644178517.745153,-0.009216,0.009644,-0.99176,0.281924,0.478168,-0.085191,51,281,585,6048
1644178517.795535,-0.006287,0.009521,-0.993042,0.251389,0.447634,-0.14626,52,273,582,5984
1644178517.840602,-0.010559,0.00885,-0.994385,0.129252,0.508702,-0.130992,51,276,585,6016
1644178517.936822,-0.007507,0.00824,-0.992249,0.297191,0.371298,-0.100458,47,275,579,5936
1644178517.985302,-0.010559,0.008972,-0.992126,0.281924,0.386565,-0.100458,43,283,578,6048
1644178518.033625,-0.006958,0.013306,-0.990723,0.266656,0.340763,-0.268397,46,274,587,6000
1644178518.082085,-0.010498,0.008972,-0.992798,0.190321,0.371298,-0.176794,53,279,585,5984
1644178518.130361,-0.009583,0.012085,-0.989502,0.205588,0.417099,-0.085191,41,276,576,6016
1644178518.178742,-0.009399,0.012695,-0.992188,0.220855,0.386565,-0.130992,52,275,596,6016
1644178518.227128,-0.006897,0.010498,-0.987976,0.434595,0.294962,-0.14626,47,277,593,5984
1644178518.275518,-0.007446,0.011108,-0.989258,0.312458,0.325496,-0.115725,36,279,580,5984
1644178518.323905,-0.008545,0.008972,-0.990967,0.190321,0.447634,-0.283664,46,283,587,6000
1644178518.372329,-0.009644,0.007202,-0.9953,0.159786,0.371298,-0.130992,42,275,584,5952
1644178518.420714,-0.008545,0.011292,-0.99054,0.251389,0.493435,-0.176794,48,288,590,6016
1644178518.469104,-0.010315,0.011475,-0.989258,0.297191,0.447634,-0.085191,45,287,584,5952
1644178518.517496,-0.009216,0.010071,-0.991272,0.342992,0.447634,-0.100458,47,265,582,5984
1644178518.565877,-0.009399,0.010803,-0.99292,0.281924,0.478168,-0.14626,51,283,578,5984
1644178518.614281,-0.010864,0.010742,-0.990479,0.281924,0.432366,-0.298931,53,274,583,6016
1644178518.662694,-0.006958,0.010742,-0.992249,0.190321,0.371298,-0.069924,49,275,586,5984
1644178518.711056,-0.010376,0.007629,-0.992676,0.327725,0.508702,-0.14626,52,280,579,6048
1644178518.759447,-0.007446,0.010803,-0.98938,0.190321,0.386565,-0.115725,58,274,585,6000
1644178518.807891,-0.006165,0.009766,-0.992737,0.312458,0.508702,-0.130992,52,277,584,6000
1644178518.857856,-0.01123,0.00885,-0.992859,0.266656,0.462901,-0.192061,41,269,583,5984
1644178518.908055,-0.009644,0.010132,-0.991272,0.251389,0.523969,-0.039389,46,274,594,5952
1644178518.958488,-0.004944,0.009033,-0.991638,0.220855,0.310229,-0.085191,49,282,593,5904
1644178519.059233,-0.008911,0.00769,-0.995056,0.251389,0.493435,-0.176794,49,280,589,5952
1644178519.098194,-0.008484,0.011292,-0.994934,0.129252,0.310229,-0.14626,52,275,589,5936
1644178519.146576,-0.010803,0.010132,-0.992126,0.266656,0.447634,0.052214,48,269,576,5952
1644178519.195105,-0.009094,0.010681,-0.990723,0.281924,0.554504,-0.085191,53,269,590,6048
1644178519.243378,-0.007874,0.010193,-0.991211,0.281924,0.417099,-0.14626,46,274,587,5984
1644178519.291741,-0.008484,0.009033,-0.990112,0.327725,0.401832,-0.115725,46,276,590,5984
1644178519.340123,-0.012207,0.010193,-0.992126,0.129252,0.447634,-0.100458,53,279,583,6016
1644178519.388549,-0.010742,0.008728,-0.991272,0.297191,0.462901,-0.054656,42,273,579,5872
1644178519.436944,-0.007019,0.00946,-0.990173,0.251389,0.294962,-0.054656,60,286,585,6000
1644178519.485331,-0.008789,0.008972,-0.990845,0.205588,0.356031,-0.222595,51,276,585,5984
1644178519.533729,-0.007324,0.008789,-0.992065,0.236122,0.508702,0.006412,46,281,576,5984
1644178519.582172,-0.005432,0.00769,-0.991089,0.236122,0.462901,-0.100458,43,279,583,5952
1644178519.630507,-0.009338,0.013184,-0.994141,0.480397,0.432366,0.052214,49,282,584,5952
1644178519.679447,-0.010254,0.010803,-0.989502,0.266656,0.478168,-0.207328,58,262,583,5936
1644178519.729509,-0.010986,0.010742,-0.99176,0.342992,0.478168,-0.192061,49,280,579,6016
1644178519.779608,-0.007446,0.010986,-0.991211,0.236122,0.523969,0.098015,45,270,589,5984
1644178519.825107,-0.008484,0.009338,-0.988953,0.404061,0.478168,-0.024122,53,274,576,5984
1644178519.920871,-0.007324,0.009033,-0.991333,0.388794,0.371298,-0.039389,49,280,584,6000
1644178519.969261,-0.009155,0.010254,-0.992493,0.251389,0.340763,-0.085191,54,282,577,6016
1644178520.017674,-0.010559,0.011414,-0.991089,0.35826,0.371298,-0.207328,51,276,590,5984
1644178520.066224,-0.008362,0.00885,-0.991943,0.327725,0.310229,-0.054656,46,279,583,5984
1644178520.114434,-0.009888,0.009521,-0.993652,0.312458,0.386565,-0.008855,53,283,573,6016
1644178520.162825,-0.010803,0.00946,-0.99292,0.175053,0.432366,0.006412,42,277,577,5984
1644178520.211213,-0.010803,0.008362,-0.993225,0.297191,0.340763,-0.054656,48,279,578,6048
1644178520.25958,-0.009216,0.008423,-0.990479,0.236122,0.447634,0.006412,48,274,576,5952
1644178520.307973,-0.00647,0.011353,-0.990723,0.129252,0.371298,0.067481,41,276,576,6000
1644178520.356387,-0.010132,0.009827,-0.991089,0.297191,0.447634,-0.14626,48,281,573,5952
1644178520.404779,-0.010315,0.010132,-0.992737,0.327725,0.432366,-0.039389,58,279,592,5952
1644178520.453193,-0.010437,0.010864,-0.992981,0.327725,0.462901,0.082748,51,283,583,5984
1644178520.501573,-0.008667,0.010925,-0.990784,0.022382,0.478168,-0.192061,52,275,586,6048
1644178520.549954,-0.00415,0.010193,-0.994141,0.190321,0.523969,-0.054656,43,286,580,5984
1644178520.59832,-0.008118,0.009521,-0.989319,0.281924,0.356031,-0.130992,58,274,580,5952
1644178520.646747,-0.007507,0.010681,-0.991089,0.144519,0.294962,-0.192061,57,273,591,6080
1644178520.695173,-0.010193,0.011047,-0.992859,0.159786,0.401832,-0.008855,54,277,600,5952
1644178520.743524,-0.008606,0.011414,-0.991028,0.312458,0.371298,0.021679,42,287,586,6016
1644178520.791908,-0.008667,0.009216,-0.991699,0.144519,0.493435,-0.192061,48,266,590,6048
1644178520.841733,-0.008667,0.01123,-0.993408,0.251389,0.371298,-0.222595,49,270,602,5952
1644178520.891995,-0.008728,0.011475,-0.990417,0.281924,0.432366,-0.039389,41,276,583,5952
1644178520.942438,-0.008545,0.011169,-0.993103,0.312458,0.508702,0.052214,49,282,591,5984
1644178520.986975,-0.007812,0.005493,-0.992493,0.205588,0.401832,-0.024122,46,274,580,5984
1644178521.08237,-0.009277,0.007629,-0.991943,0.342992,0.340763,-0.176794,59,277,579,5952
1644178521.130748,-0.010254,0.009949,-0.992859,0.220855,0.417099,0.036947,49,280,586,6048
1644178521.179049,-0.010803,0.009949,-0.991028,0.190321,0.401832,-0.085191,47,273,582,6000
1644178521.227407,-0.007568,0.010681,-0.990417,0.129252,0.310229,-0.14626,59,273,589,6016
1644178521.275815,-0.009766,0.007507,-0.992493,0.449863,0.340763,-0.054656,52,273,586,6000
1644178521.324239,-0.00946,0.009338,-0.990479,0.205588,0.294962,-0.130992,43,269,587,6016
1644178521.372636,-0.009583,0.01001,-0.992249,0.266656,0.279695,-0.008855,41,276,585,6000
1644178521.421011,-0.010986,0.012268,-0.993225,0.342992,0.417099,-0.085191,47,270,586,6000
1644178521.469411,-0.008179,0.007446,-0.99054,0.175053,0.447634,0.098015,48,274,576,6016
1644178521.517803,-0.013367,0.010864,-0.991943,0.205588,0.264427,-0.069924,47,270,586,6016
1644178521.566195,-0.009338,0.010559,-0.989136,0.220855,0.447634,-0.008855,46,283,585,5984
1644178521.614696,-0.007629,0.009033,-0.992004,0.236122,0.554504,-0.192061,62,269,580,5984
1644178521.662982,-0.006409,0.007874,-0.991577,0.236122,0.233893,-0.130992,45,273,582,6000
1644178521.711357,-0.010559,0.008545,-0.994446,0.342992,0.600305,-0.25313,49,260,586,5952
1644178521.759728,-0.00946,0.010132,-0.990601,0.220855,0.340763,-0.054656,52,273,586,5952
1644178521.808146,-0.010559,0.012085,-0.990723,0.190321,0.417099,-0.024122,46,279,594,6000
1644178521.856547,-0.008301,0.008911,-0.990723,0.35826,0.478168,0.12855,57,282,586,6000
1644178521.90509,-0.009399,0.010315,-0.991821,0.327725,0.447634,-0.008855,53,271,571,5984
1644178521.95338,-0.00885,0.010925,-0.992615,0.220855,0.417099,-0.176794,42,282,602,5952
1644178522.002733,-0.008423,0.008545,-0.99176,0.266656,0.340763,-0.024122,54,273,584,6000
1644178522.076503,-0.011414,0.006531,-0.991882,0.236122,0.432366,-0.130992,48,274,578,5984
1644178522.10268,-0.00592,0.009033,-0.989014,0.113985,0.417099,-0.161527,51,276,590,6000
1644178522.195407,-0.010559,0.008972,-0.993286,0.251389,0.294962,0.036947,43,271,576,6000
1644178522.243682,-0.008911,0.006958,-0.993042,0.449863,0.356031,-0.130992,42,265,584,6080
1644178522.29205,-0.009338,0.009949,-0.992004,0.281924,0.371298,-0.14626,45,268,577,6000
1644178522.34045,-0.00769,0.006592,-0.993286,0.220855,0.386565,-0.100458,49,275,582,6048
1644178522.388849,-0.00824,0.010254,-0.990295,0.281924,0.340763,0.006412,53,271,583,6000
1644178522.437232,-0.008301,0.00946,-0.993774,0.297191,0.386565,-0.039389,48,279,580,5984
1644178522.485614,-0.008362,0.013428,-0.991394,0.159786,0.371298,-0.069924,45,282,586,5984
1644178522.534037,-0.007996,0.010254,-0.992493,0.190321,0.371298,-0.100458,54,282,577,5952
1644178522.582442,-0.007507,0.010742,-0.993958,0.190321,0.24916,-0.176794,41,279,590,6048
1644178522.630816,-0.011597,0.010315,-0.99292,0.205588,0.310229,-0.237863,48,271,585,5984
1644178522.67921,-0.009338,0.011841,-0.99054,0.266656,0.371298,-0.115725,43,276,583,6016
1644178522.7276,-0.008362,0.011658,-0.98938,0.342992,0.447634,-0.115725,58,281,585,6000
1644178522.775994,-0.009644,0.007935,-0.990479,0.159786,0.493435,-0.100458,42,275,591,6000
1644178522.824376,-0.009338,0.008179,-0.990601,0.342992,0.356031,-0.14626,53,274,587,6000
1644178522.872845,-0.009766,0.007324,-0.992676,0.205588,0.371298,-0.100458,47,280,591,6048
1644178522.921216,-0.00824,0.007446,-0.990784,0.144519,0.417099,-0.085191,54,273,577,5952
1644178522.969596,-0.012634,0.007874,-0.992798,0.236122,0.386565,-0.085191,48,274,585,6048
1644178523.017995,-0.008423,0.01001,-0.990112,0.312458,0.310229,-0.222595,51,274,592,5904
1644178523.084861,-0.007629,0.007935,-0.991455,0.190321,0.356031,-0.069924,60,286,573,5984
1644178523.117891,-0.010376,0.010315,-0.990784,0.434595,0.340763,-0.054656,40,287,577,6016
1644178523.168055,-0.00885,0.007935,-0.991089,0.205588,0.447634,-0.192061,52,273,582,5984
1644178523.211831,-0.009827,0.010864,-0.992676,0.281924,0.340763,-0.222595,41,269,580,5952
1644178523.30831,-0.00769,0.011169,-0.994019,0.113985,0.417099,-0.161527,55,279,580,6000
1644178523.356679,-0.009216,0.011536,-0.991882,0.297191,0.386565,-0.069924,54,275,596,5952
1644178523.405302,-0.010498,0.010803,-0.992188,0.129252,0.462901,-0.100458,53,276,585,6080
1644178523.454061,-0.007874,0.010315,-0.990479,0.236122,0.371298,-0.069924,53,274,587,5888
1644178523.501874,-0.009338,0.008362,-0.990784,0.236122,0.294962,0.021679,52,275,586,6016
1644178523.550251,-0.009094,0.008545,-0.992737,0.08345,0.585038,-0.176794,57,268,586,5984
1644178523.598651,-0.009583,0.010559,-0.990784,0.236122,0.462901,-0.085191,48,276,580,6064
1644178523.647033,-0.008179,0.008789,-0.991394,0.159786,0.401832,-0.161527,52,275,586,6000
1644178523.695433,-0.008911,0.009521,-0.993408,0.190321,0.432366,-0.176794,53,276,578,5984
1644178523.743841,-0.007996,0.009094,-0.990723,0.251389,0.417099,-0.115725,46,281,592,5952
1644178523.792239,-0.006531,0.010071,-0.993225,0.236122,0.356031,-0.024122,47,285,586,6016
1644178523.840589,-0.007568,0.00769,-0.99115,0.251389,0.478168,-0.222595,54,275,591,6000
1644178523.889046,-0.011108,0.011169,-0.991882,0.08345,0.310229,-0.130992,49,273,577,5952
1644178523.937443,-0.00592,0.009277,-0.990234,0.175053,0.340763,0.036947,45,268,591,5984
1644178523.985831,-0.010315,0.013611,-0.995239,0.144519,0.401832,-0.14626,40,268,596,5984
1644178524.03425,-0.010803,0.009949,-0.990234,0.144519,0.371298,-0.161527,49,277,593,5984
1644178524.083456,-0.007019,0.010254,-0.993713,0.342992,0.523969,-0.100458,55,269,585,6048
1644178524.131011,-0.007324,0.011414,-0.991394,0.327725,0.356031,-0.14626,60,269,590,5952
1644178524.17941,-0.006653,0.009216,-0.991333,0.205588,0.401832,0.036947,59,280,582,5984
1644178524.229431,-0.00824,0.008667,-0.990845,0.220855,0.462901,-0.192061,46,279,587,6016
1644178524.279572,-0.006042,0.008911,-0.991028,0.312458,0.172824,-0.14626,51,274,590,6112
1644178524.329807,-0.00824,0.00885,-0.992065,0.205588,0.447634,-0.283664,51,281,583,6048
1644178524.374332,-0.00885,0.011597,-0.993042,0.312458,0.401832,0.189618,53,281,590,6016
1644178524.469773,-0.010315,0.006653,-0.989441,0.175053,0.432366,0.036947,43,269,592,5952
1644178524.518137,-0.01178,0.008423,-0.990479,0.175053,0.294962,-0.100458,51,269,587,5984
1644178524.566536,-0.008179,0.011292,-0.990845,0.159786,0.386565,-0.024122,45,265,575,5984
1644178524.614909,-0.009338,0.011597,-0.991394,0.342992,0.432366,-0.085191,52,280,589,6016
1644178524.663326,-0.008911,0.007446,-0.989136,0.175053,0.432366,-0.115725,52,275,593,6016
1644178524.711682,-0.011536,0.008667,-0.991699,0.236122,0.493435,-0.085191,57,282,584,5984
1644178524.760115,-0.006226,0.009399,-0.993835,0.388794,0.569771,-0.14626,54,280,582,6000
1644178524.808501,-0.009705,0.011169,-0.993042,0.342992,0.401832,-0.161527,46,274,585,5888
1644178524.856894,-0.007141,0.008545,-0.992126,0.327725,0.539237,-0.069924,54,280,584,6000
1644178524.905344,-0.010925,0.00885,-0.990112,0.236122,0.554504,-0.222595,47,273,591,6000
1644178524.953692,-0.012878,0.010193,-0.992493,0.220855,0.432366,-0.100458,55,274,583,6048
1644178525.002065,-0.01001,0.006165,-0.99292,0.190321,0.432366,-0.054656,57,275,584,5952
1644178525.066872,-0.008057,0.009094,-0.991394,0.35826,0.523969,0.006412,54,265,589,6000
1644178525.099735,-0.010132,0.009033,-0.993286,0.327725,0.325496,-0.085191,57,277,586,6016
1644178525.147195,-0.008301,0.008362,-0.989746,0.175053,0.371298,-0.115725,47,290,575,6016
1644178525.195591,-0.007629,0.009399,-0.99176,0.205588,0.340763,-0.008855,51,276,587,6016
1644178525.243983,-0.009521,0.006836,-0.992126,0.312458,0.432366,-0.14626,48,279,592,5952
1644178525.29239,-0.009399,0.009399,-0.99115,0.220855,0.432366,0.021679,46,276,580,6016
1644178525.340786,-0.009888,0.009705,-0.992188,0.35826,0.63084,-0.024122,49,292,586,5952
1644178525.389952,-0.006836,0.009705,-0.994385,0.159786,0.417099,-0.176794,47,287,584,5984
1644178525.440098,-0.007507,0.007996,-0.991333,0.236122,0.432366,0.021679,54,270,589,6000
1644178525.490587,-0.008423,0.010559,-0.991882,0.159786,0.447634,-0.161527,61,268,577,6000
1644178525.535593,-0.008545,0.008545,-0.992371,0.175053,0.462901,-0.085191,45,282,577,5888
1644178525.631113,-0.009888,0.01123,-0.994385,0.175053,0.478168,-0.115725,53,269,592,5984
1644178525.679514,-0.009644,0.008118,-0.992004,0.373527,0.417099,-0.192061,45,282,582,6016
1644178525.727902,-0.008179,0.011108,-0.992859,0.251389,0.264427,-0.054656,52,285,593,5984
1644178525.776291,-0.008667,0.01123,-0.992859,0.419328,0.478168,-0.069924,46,291,585,6016
1644178525.824739,-0.00769,0.008118,-0.992615,0.220855,0.310229,-0.115725,47,285,584,6016
1644178525.873113,-0.006653,0.00946,-0.990112,0.251389,0.386565,-0.054656,48,274,576,6000
1644178525.921512,-0.008179,0.011841,-0.990479,0.327725,0.417099,-0.024122,57,270,582,6016
1644178525.969925,-0.009888,0.009583,-0.993713,0.220855,0.356031,-0.054656,61,282,577,5984
1644178526.018307,-0.007019,0.005981,-0.993896,0.129252,0.523969,-0.085191,45,275,586,6016
1644178526.073938,-0.009644,0.009888,-0.990845,0.327725,0.432366,-0.207328,47,275,586,5952
1644178526.115129,-0.011658,0.009705,-0.994568,0.281924,0.325496,-0.25313,47,275,589,6016
1644178526.163438,-0.010559,0.01001,-0.99353,0.251389,0.447634,-0.054656,48,269,580,6000
1644178526.211831,-0.011658,0.010559,-0.991699,0.373527,0.371298,-0.039389,54,280,575,6016
1644178526.260201,-0.008606,0.011353,-0.990967,0.388794,0.523969,-0.039389,46,279,592,5936
1644178526.308611,-0.010559,0.011536,-0.992004,0.35826,0.310229,-0.14626,47,280,586,6016
1644178526.356996,-0.012024,0.007629,-0.991699,0.159786,0.340763,-0.054656,58,281,599,6000
1644178526.405394,-0.009521,0.012939,-0.991943,0.220855,0.371298,-0.039389,45,282,589,6080
1644178526.453799,-0.007385,0.009705,-0.992737,0.251389,0.478168,-0.008855,48,286,583,6000
1644178526.502478,-0.010925,0.006592,-0.990723,0.159786,0.508702,-0.054656,55,276,583,5952
1644178526.551339,-0.007935,0.011169,-0.99231,0.327725,0.493435,-0.176794,43,279,578,6000
1644178526.601892,-0.011963,0.008667,-0.990234,0.220855,0.432366,-0.176794,51,269,590,6000
1644178526.65196,-0.009399,0.007568,-0.991516,0.052916,0.447634,-0.039389,49,270,586,6000
1644178526.697164,-0.010193,0.007996,-0.994812,0.35826,0.493435,-0.115725,55,279,583,6000
1644178526.792647,-0.006042,0.011047,-0.990417,0.052916,0.585038,-0.069924,47,273,589,5984
1644178526.840957,-0.006897,0.012085,-0.991699,0.205588,0.371298,-0.100458,39,274,578,6048
1644178526.889368,-0.009888,0.010071,-0.990784,0.175053,0.508702,-0.085191,48,264,587,6000
1644178526.937742,-0.009705,0.009338,-0.994446,0.08345,0.356031,0.021679,48,276,594,6000
1644178526.986145,-0.007996,0.011292,-0.991272,0.144519,0.432366,-0.069924,48,281,573,5984
1644178527.034532,-0.009705,0.01001,-0.99115,0.129252,0.478168,-0.069924,61,285,586,6048
1644178527.083025,-0.010498,0.008972,-0.990784,0.190321,0.447634,-0.176794,53,276,592,5952
1644178527.131278,-0.007141,0.011841,-0.990662,0.281924,0.462901,-0.207328,47,285,586,6016
1644178527.179685,-0.006531,0.011169,-0.988953,0.159786,0.386565,-0.237863,52,282,591,5904
1644178527.228055,-0.010498,0.007751,-0.99054,0.175053,0.401832,-0.115725,47,273,596,5984
1644178527.276448,-0.010559,0.007568,-0.99176,0.35826,0.493435,-0.039389,49,280,596,6016
1644178527.324853,-0.009155,0.007324,-0.993835,0.251389,0.523969,-0.237863,52,277,591,5952
1644178527.37324,-0.01001,0.009399,-0.991516,0.251389,0.447634,-0.14626,48,283,578,5952
1644178527.421643,-0.00708,0.009094,-0.990845,0.342992,0.340763,-0.069924,46,276,576,5984
1644178527.470158,-0.006531,0.010498,-0.987549,0.251389,0.447634,-0.024122,60,274,583,6016
1644178527.520621,-0.009399,0.008667,-0.992004,0.297191,0.508702,-0.054656,43,271,580,6016
1644178527.570976,-0.007385,0.009216,-0.991028,0.190321,0.462901,-0.176794,49,280,582,6016
1644178527.616138,-0.012024,0.008484,-0.992065,0.312458,0.462901,-0.176794,57,277,582,6000
1644178527.711981,-0.013977,0.010315,-0.992493,0.190321,0.523969,-0.039389,46,279,583,5984
1644178527.760353,-0.009827,0.009705,-0.994202,0.190321,0.310229,-0.14626,48,271,587,6080
1644178527.808761,-0.010681,0.009888,-0.99353,0.129252,0.356031,-0.100458,57,277,584,6000
1644178527.857191,-0.007263,0.009277,-0.993713,0.190321,0.371298,0.006412,46,264,585,5984
1644178527.905586,-0.008118,0.008911,-0.992249,0.266656,0.233893,0.006412,42,277,579,5936
1644178527.953983,-0.007324,0.009338,-0.992737,0.388794,0.310229,-0.130992,46,274,578,6000
1644178528.002353,-0.009277,0.010681,-0.993103,0.251389,0.279695,-0.039389,47,282,568,6048
1644178528.066482,-0.007446,0.009766,-0.990601,0.236122,0.417099,-0.222595,55,274,580,6000
1644178528.101331,-0.011292,0.009033,-0.994202,0.159786,0.340763,-0.100458,43,281,592,6048
1644178528.14748,-0.008179,0.009827,-0.992065,0.373527,0.417099,-0.14626,49,275,584,6048
1644178528.19591,-0.008118,0.011169,-0.992065,0.266656,0.478168,-0.161527,42,275,584,5984
1644178528.244298,-0.011719,0.01001,-0.991028,0.312458,0.310229,-0.069924,43,283,583,6064
1644178528.292716,-0.013184,0.009338,-0.993835,0.098718,0.340763,-0.069924,55,286,597,6000
1644178528.341079,-0.009155,0.009216,-0.994019,0.220855,0.417099,-0.008855,46,276,592,5936
1644178528.389475,-0.009644,0.008423,-0.992065,0.205588,0.279695,-0.054656,41,269,580,5984
1644178528.437835,-0.008423,0.009705,-0.991333,0.266656,0.417099,-0.039389,39,274,594,5984
1644178528.486264,-0.006653,0.008911,-0.990356,0.190321,0.493435,-0.130992,62,288,580,6064
1644178528.534646,-0.010254,0.01062,-0.991821,0.35826,0.493435,-0.085191,51,291,580,6016
1644178528.583131,-0.008667,0.009216,-0.990784,0.281924,0.462901,0.021679,52,273,596,5952
1644178528.633271,-0.010437,0.010315,-0.992432,0.144519,0.432366,0.021679,53,276,587,5984
1644178528.683688,-0.009338,0.010315,-0.991211,0.251389,0.523969,-0.268397,49,280,586,5952
1644178528.728549,-0.007446,0.012207,-0.991821,0.312458,0.340763,-0.25313,45,280,577,6016
1644178528.825549,-0.009949,0.008789,-0.993835,0.220855,0.539237,-0.039389,47,282,577,6000
1644178528.873441,-0.009399,0.011475,-0.992493,0.342992,0.340763,-0.130992,46,281,587,6016
1644178528.921816,-0.009521,0.008301,-0.991516,0.068183,0.279695,-0.176794,51,274,590,6016
1644178528.970213,-0.011414,0.010071,-0.990356,0.205588,0.447634,-0.161527,61,273,579,6080
1644178529.018598,-0.008545,0.009277,-0.99115,0.190321,0.371298,-0.039389,45,275,579,5952
1644178529.070608,-0.011475,0.007935,-0.993225,0.327725,0.508702,-0.207328,48,286,590,6016
1644178529.115344,-0.008057,0.007751,-0.993408,0.312458,0.386565,-0.130992,60,276,583,6016
1644178529.163744,-0.006714,0.010376,-0.99054,0.327725,0.233893,-0.054656,47,290,593,5984
1644178529.21218,-0.008118,0.01001,-0.991455,0.327725,0.493435,-0.008855,47,273,586,6016
1644178529.260529,-0.010376,0.010559,-0.993896,0.297191,0.417099,-0.054656,57,268,584,6016
1644178529.308901,-0.008728,0.00946,-0.993164,0.236122,0.340763,-0.039389,51,274,580,5984
1644178529.357311,-0.010254,0.008484,-0.991272,0.266656,0.462901,-0.161527,52,268,582,6000
1644178529.405679,-0.009888,0.008911,-0.989136,0.129252,0.24916,0.021679,43,286,576,5952
1644178529.454083,-0.009399,0.010498,-0.993713,0.251389,0.24916,-0.085191,45,277,584,6048
1644178529.502502,-0.007202,0.008118,-0.99176,0.281924,0.508702,-0.069924,48,271,576,6016
1644178529.550848,-0.010437,0.010803,-0.993164,0.373527,0.386565,-0.115725,46,271,597,5984
1644178529.599277,-0.009399,0.01062,-0.991455,0.251389,0.447634,0.021679,55,283,587,6064
1644178529.647657,-0.011292,0.009338,-0.994568,0.236122,0.417099,-0.115725,41,269,590,5936
1644178529.696116,-0.010254,0.009216,-0.99408,0.266656,0.356031,-0.054656,54,275,584,5984
1644178529.745013,-0.011414,0.010803,-0.992371,0.159786,0.417099,-0.176794,53,269,590,5984
1644178529.795594,-0.007812,0.010925,-0.992126,0.190321,0.417099,0.006412,45,280,591,5952
1644178529.846164,-0.010925,0.006226,-0.993164,0.129252,0.432366,-0.130992,58,283,592,6048
1644178529.891079,-0.009827,0.009583,-0.991455,0.190321,0.310229,-0.237863,47,275,582,6016
1644178529.986438,-0.009644,0.010132,-0.992554,0.175053,0.310229,-0.085191,38,270,584,5952
1644178530.0349,-0.009705,0.008179,-0.992371,0.312458,0.417099,-0.176794,54,273,586,6000
1644178530.083591,-0.010559,0.011658,-0.992004,0.068183,0.447634,-0.039389,53,269,583,5984
1644178530.131635,-0.010681,0.00531,-0.992126,0.404061,0.417099,-0.161527,55,281,587,6000
1644178530.17997,-0.007996,0.011108,-0.993042,0.159786,0.386565,-0.207328,45,273,591,5984
1644178530.228362,-0.008362,0.010071,-0.994446,0.08345,0.340763,-0.176794,46,279,585,6016
1644178530.276731,-0.010315,0.01123,-0.991577,0.251389,0.462901,0.113282,41,274,583,5952
1644178530.325178,-0.009399,0.007385,-0.991821,0.281924,0.371298,-0.176794,52,277,579,5984
1644178530.373548,-0.010071,0.007507,-0.994446,0.129252,0.432366,0.082748,48,283,585,5904
1644178530.421941,-0.00824,0.009644,-0.994568,0.35826,0.386565,-0.100458,48,276,578,6000
1644178530.470318,-0.008606,0.010498,-0.992371,0.144519,0.340763,0.082748,41,279,583,6016
1644178530.518715,-0.012573,0.009949,-0.990417,0.281924,0.386565,-0.222595,54,275,586,6000
1644178530.567112,-0.00647,0.011963,-0.993408,0.388794,0.417099,-0.069924,49,265,586,5984
1644178530.615507,-0.00769,0.00885,-0.993774,0.220855,0.493435,-0.100458,40,280,579,6016
1644178530.663903,-0.011658,0.008972,-0.991394,0.251389,0.401832,-0.176794,54,273,582,5984
1644178530.712301,-0.009338,0.010925,-0.988708,0.175053,0.340763,-0.039389,39,271,587,5984
1644178530.760681,-0.008484,0.008972,-0.993225,0.220855,0.233893,0.006412,60,276,590,6048
1644178530.809069,-0.009094,0.00946,-0.991028,0.327725,0.401832,-0.039389,52,273,589,5984
1644178530.857515,-0.008362,0.010864,-0.993713,0.190321,0.462901,-0.161527,45,287,572,5984
1644178530.906975,-0.006958,0.012695,-0.991943,0.281924,0.432366,-0.192061,46,271,576,5952
1644178530.957114,-0.010376,0.010437,-0.993713,0.251389,0.371298,-0.14626,49,277,591,6016
1644178531.00756,-0.007935,0.012634,-0.992554,0.175053,0.279695,-0.100458,45,280,570,6000
1644178531.102724,-0.009155,0.008911,-0.992126,0.08345,0.493435,0.052214,46,274,578,6000
1644178531.147844,-0.010376,0.009094,-0.98999,0.373527,0.432366,-0.14626,45,280,575,5952
1644178531.196216,-0.008911,0.011414,-0.99115,0.281924,0.356031,-0.100458,45,277,579,6000
1644178531.244648,-0.008972,0.009094,-0.990845,0.266656,0.432366,-0.222595,47,275,586,5952
1644178531.293005,-0.008911,0.00769,-0.990967,0.190321,0.447634,-0.115725,52,270,589,5984
1644178531.341388,-0.010132,0.013245,-0.991821,0.327725,0.24916,0.113282,52,275,589,5984
1644178531.389785,-0.006042,0.013306,-0.990295,0.08345,0.356031,-0.069924,45,265,577,6048
1644178531.438163,-0.008179,0.010986,-0.991333,0.205588,0.462901,-0.054656,46,283,585,6000
1644178531.486551,-0.007874,0.008789,-0.990906,0.281924,0.371298,-0.069924,52,275,584,6000
1644178531.535077,-0.005127,0.008545,-0.991028,0.175053,0.417099,-0.039389,54,270,586,6112
1644178531.583356,-0.009277,0.006836,-0.990051,0.159786,0.386565,-0.237863,42,282,582,6016
1644178531.631728,-0.006592,0.009949,-0.991516,0.175053,0.417099,-0.039389,51,279,576,6048
1644178531.680122,-0.008728,0.013672,-0.991028,0.175053,0.294962,-0.069924,57,273,582,5984
1644178531.728486,-0.010498,0.01178,-0.990601,0.236122,0.523969,-0.14626,57,282,589,6016
1644178531.776912,-0.010193,0.010498,-0.993408,0.175053,0.356031,-0.192061,52,268,593,6016
1644178531.825304,-0.009705,0.009216,-0.990112,0.190321,0.310229,-0.008855,49,280,596,6016
1644178531.873753,-0.006592,0.009827,-0.993591,0.236122,0.386565,0.006412,53,286,583,6016
1644178531.922307,-0.008667,0.007812,-0.991699,0.281924,0.432366,-0.14626,53,281,585,5952
1644178531.97277,-0.010986,0.007141,-0.99231,0.266656,0.310229,-0.130992,46,281,583,6000
1644178532.023231,-0.013123,0.008667,-0.991333,0.068183,0.417099,-0.222595,52,270,584,5984
1644178532.082766,-0.011047,0.008972,-0.994141,0.220855,0.340763,-0.115725,53,276,592,6048
1644178532.164103,-0.008118,0.009399,-0.991516,0.159786,0.508702,0.036947,47,270,584,5984
1644178532.212457,-0.010559,0.010803,-0.992493,0.297191,0.325496,-0.176794,38,270,584,6000
1644178532.260814,-0.009827,0.008728,-0.992371,0.236122,0.417099,-0.161527,52,282,586,5984
1644178532.30921,-0.010803,0.009094,-0.990906,0.404061,0.493435,0.021679,49,270,591,6016
1644178532.357587,-0.01001,0.007751,-0.994507,0.175053,0.554504,-0.237863,39,274,580,6080
1644178532.405997,-0.009766,0.010315,-0.986816,0.175053,0.447634,-0.054656,61,282,582,6000
1644178532.454393,-0.006531,0.008484,-0.991882,0.190321,0.340763,-0.176794,48,274,587,6016
1644178532.502775,-0.010803,0.012451,-0.994263,0.236122,0.447634,-0.115725,52,275,591,5984
1644178532.551185,-0.012329,0.007874,-0.992126,0.236122,0.356031,-0.207328,46,276,580,5984
1644178532.599585,-0.00946,0.010254,-0.990417,0.129252,0.279695,-0.069924,48,279,590,5952
1644178532.647975,-0.013123,0.01178,-0.993774,0.175053,0.432366,-0.069924,57,270,579,5952
1644178532.696358,-0.008789,0.010193,-0.992554,0.052916,0.447634,-0.237863,42,280,579,5984
1644178532.74475,-0.009583,0.007385,-0.994507,0.373527,0.401832,-0.039389,55,286,585,6016
1644178532.793161,-0.010925,0.009216,-0.994812,0.236122,0.371298,-0.054656,48,264,594,5904
1644178532.841539,-0.006592,0.008057,-0.992554,0.342992,0.646107,-0.115725,47,275,575,6064
1644178532.88996,-0.005981,0.00885,-0.990173,0.113985,0.401832,-0.115725,51,281,594,5952
1644178532.938353,-0.010376,0.006714,-0.994141,0.175053,0.294962,-0.024122,53,286,580,5984
1644178532.986823,-0.010132,0.007812,-0.994873,0.312458,0.417099,-0.14626,49,273,579,6000
1644178533.035254,-0.007507,0.007812,-0.992188,0.327725,0.478168,-0.130992,54,268,582,6016
1644178533.08987,-0.01239,0.009338,-0.994812,0.205588,0.447634,0.021679,45,282,593,5984
1644178533.13429,-0.010498,0.009705,-0.992859,0.220855,0.447634,0.036947,46,281,583,5984
1644178533.183931,-0.010559,0.008301,-0.993286,0.113985,0.24916,-0.192061,48,274,587,6000
1644178533.229049,-0.010193,0.006287,-0.99231,0.251389,0.371298,-0.176794,51,281,573,5984
1644178533.325441,-0.011841,0.009155,-0.992065,0.190321,0.478168,-0.008855,53,286,578,5952
1644178533.373848,-0.00885,0.013672,-0.990967,0.220855,0.294962,-0.115725,49,277,582,6048
1644178533.422393,-0.009644,0.007812,-0.994629,0.266656,0.294962,-0.14626,49,282,591,5984
1644178533.470623,-0.01062,0.00885,-0.99231,0.236122,0.233893,-0.130992,47,280,591,6000
1644178533.519024,-0.009705,0.008789,-0.993164,0.281924,0.432366,-0.115725,35,275,582,5984
1644178533.56741,-0.010559,0.009338,-0.991028,0.159786,0.356031,-0.054656,48,281,576,5984
1644178533.615781,-0.010254,0.010437,-0.994446,0.236122,0.478168,-0.192061,52,282,586,5984
1644178533.664205,-0.01001,0.01001,-0.99115,0.266656,0.432366,-0.039389,53,281,580,6000
1644178533.712606,-0.009888,0.007812,-0.993896,0.190321,0.386565,-0.130992,52,265,582,6000
1644178533.76099,-0.009583,0.010559,-0.992615,0.342992,0.447634,-0.039389,52,277,586,5984
1644178533.809419,-0.010803,0.009094,-0.990601,0.342992,0.462901,0.098015,46,269,585,5984
1644178533.8578,-0.00647,0.007202,-0.991943,0.266656,0.462901,-0.115725,60,271,590,6000
1644178533.906193,-0.011719,0.009583,-0.993469,0.35826,0.294962,-0.039389,47,277,586,5984
1644178533.954634,-0.011292,0.007385,-0.990417,0.236122,0.386565,0.006412,52,282,593,5984
1644178534.002965,-0.008484,0.013733,-0.99176,0.251389,0.401832,-0.237863,49,270,584,6080
1644178534.063036,-0.008972,0.010925,-0.990723,0.144519,0.325496,-0.069924,48,281,578,6016
1644178534.102272,-0.007019,0.011108,-0.990601,0.098718,0.417099,-0.054656,51,283,590,6080
1644178534.148118,-0.008057,0.012024,-0.99408,0.190321,0.371298,-0.161527,49,275,579,6016
1644178534.196513,-0.009033,0.00885,-0.991028,0.251389,0.508702,-0.100458,41,279,576,6048
1644178534.245653,-0.009155,0.011292,-0.990479,0.35826,0.340763,0.052214,51,281,590,5984
1644178534.296371,-0.010437,0.011047,-0.993958,0.327725,0.447634,-0.115725,43,276,590,6064
1644178534.346387,-0.010986,0.006104,-0.993042,0.205588,0.523969,-0.130992,51,276,578,6016
1644178534.438473,-0.008057,0.008362,-0.992676,0.373527,0.356031,-0.115725,51,274,578,6080
1644178534.486838,-0.010742,0.008789,-0.992065,0.175053,0.371298,-0.100458,43,271,585,5984
1644178534.535394,-0.009033,0.008484,-0.993164,0.266656,0.417099,-0.130992,49,280,584,6016
1644178534.583652,-0.009521,0.010071,-0.99292,0.159786,0.539237,-0.130992,34,276,587,6016
1644178534.632045,-0.008728,0.010315,-0.990906,0.068183,0.386565,-0.100458,47,277,586,6048
1644178534.680409,-0.010498,0.00885,-0.992371,0.098718,0.386565,-0.039389,58,274,585,5984
1644178534.728836,-0.008423,0.007446,-0.99231,0.266656,0.447634,0.006412,48,288,583,6000
1644178534.777222,-0.009583,0.010681,-0.990662,0.220855,0.447634,-0.14626,47,280,579,5952
1644178534.82569,-0.006897,0.008179,-0.993103,0.312458,0.371298,-0.039389,45,282,577,5952
1644178534.874049,-0.00885,0.008972,-0.990784,0.08345,0.432366,-0.085191,55,281,576,5984
1644178534.922436,-0.008667,0.009583,-0.991821,0.312458,0.371298,-0.130992,45,270,586,6048
1644178534.970821,-0.009277,0.007629,-0.992249,0.159786,0.447634,-0.008855,42,280,591,5984
1644178535.019223,-0.009399,0.009827,-0.992493,0.251389,0.417099,-0.176794,49,270,593,5952
1644178535.080374,-0.010071,0.010925,-0.994141,0.144519,0.417099,-0.024122,42,273,591,5904
1644178535.116261,-0.011169,0.00769,-0.99353,0.159786,0.462901,0.006412,48,279,587,6080
1644178535.164357,-0.008789,0.010437,-0.990173,0.236122,0.478168,-0.054656,53,279,583,5952
1644178535.212778,-0.009827,0.009644,-0.992676,0.236122,0.569771,-0.192061,46,254,594,5984
1644178535.261135,-0.010681,0.010132,-0.990906,0.098718,0.417099,-0.161527,47,285,596,5984
1644178535.309839,-0.007996,0.010315,-0.991821,0.220855,0.478168,-0.130992,51,279,587,6080
1644178535.358851,-0.009277,0.007935,-0.990234,0.220855,0.432366,-0.069924,54,280,589,6016
1644178535.40937,-0.008789,0.008789,-0.992981,0.068183,0.325496,-0.192061,49,277,586,5984
1644178535.459494,-0.011414,0.007935,-0.993103,0.266656,0.310229,-0.039389,59,285,589,5984
1644178535.551515,-0.010498,0.009521,-0.992493,0.251389,0.523969,-0.130992,46,286,594,5952
1644178535.599877,-0.009521,0.009827,-0.993286,0.281924,0.432366,-0.039389,52,268,598,6016
1644178535.648275,-0.008179,0.007263,-0.994141,0.113985,0.310229,-0.054656,49,275,589,6016
1644178535.696656,-0.01123,0.00885,-0.99054,0.35826,0.417099,-0.100458,53,274,585,5984
1644178535.745096,-0.005981,0.008728,-0.992981,0.236122,0.325496,-0.115725,48,269,590,6000
1644178535.793451,-0.009827,0.010315,-0.992981,0.144519,0.508702,-0.130992,46,276,585,5984
1644178535.841889,-0.011169,0.011597,-0.991333,0.205588,0.432366,-0.207328,53,281,585,6064
1644178535.890268,-0.00769,0.009827,-0.989868,0.144519,0.264427,-0.008855,45,277,589,6048
1644178535.938672,-0.009949,0.012695,-0.99231,0.159786,0.585038,-0.100458,48,271,587,6048
1644178535.987065,-0.009277,0.009766,-0.992126,0.297191,0.447634,-0.100458,49,277,586,6000
1644178536.035455,-0.008606,0.01123,-0.990723,0.266656,0.447634,-0.008855,54,282,582,5984
1644178536.094042,-0.009644,0.009338,-0.992676,0.312458,0.493435,-0.100458,57,275,591,5984
1644178536.132319,-0.009827,0.009338,-0.990967,0.236122,0.432366,-0.085191,47,285,586,6000
1644178536.180587,-0.01062,0.010132,-0.990051,0.190321,0.340763,-0.024122,57,277,598,6000
1644178536.228979,-0.010254,0.010925,-0.991638,0.159786,0.417099,-0.054656,54,275,577,5984
1644178536.277374,-0.009644,0.010315,-0.992371,0.297191,0.401832,-0.085191,45,280,584,6016
1644178536.325752,-0.00769,0.007263,-0.992126,0.175053,0.371298,-0.207328,51,286,592,6016
1644178536.374147,-0.010315,0.014038,-0.991333,0.190321,0.585038,-0.207328,48,274,587,6064
1644178536.422668,-0.010437,0.010559,-0.992676,0.281924,0.371298,-0.100458,51,269,580,5984
1644178536.473078,-0.009155,0.011597,-0.99115,0.251389,0.356031,-0.069924,58,269,583,6000
1644178536.52354,-0.010742,0.0047,-0.992737,0.175053,0.356031,-0.054656,55,269,583,5984
1644178536.568604,-0.011719,0.009155,-0.993713,0.236122,0.447634,-0.115725,45,282,589,6016
1644178536.664513,-0.00946,0.00946,-0.995789,0.236122,0.340763,-0.054656,47,277,584,6016
1644178536.712919,-0.006531,0.010986,-0.992798,0.312458,0.203359,-0.161527,47,277,579,5952
1644178536.761278,-0.008667,0.011047,-0.993469,0.327725,0.356031,-0.100458,51,279,585,6080
1644178536.809675,-0.01001,0.010498,-0.99353,0.052916,0.340763,-0.069924,47,273,589,6016
1644178536.858112,-0.012207,0.007996,-0.993591,0.205588,0.462901,0.036947,47,273,584,5984
1644178536.906497,-0.012634,0.010376,-0.993469,0.388794,0.24916,-0.039389,57,273,582,5984
1644178536.954895,-0.010376,0.010315,-0.992065,0.404061,0.401832,0.006412,47,268,582,5984
1644178537.003281,-0.009277,0.006897,-0.993103,0.297191,0.523969,-0.115725,54,280,589,5888
1644178537.062748,-0.007507,0.011597,-0.991577,0.281924,0.401832,-0.14626,51,271,592,6016
1644178537.102332,-0.004456,0.008484,-0.990784,0.35826,0.462901,0.006412,47,285,584,6000
1644178537.148435,-0.008667,0.007141,-0.993103,0.220855,0.386565,-0.039389,55,276,587,5984
1644178537.196811,-0.01001,0.010193,-0.993286,0.220855,0.325496,-0.069924,52,275,577,6016
1644178537.245288,-0.010864,0.009094,-0.993835,0.236122,0.447634,-0.039389,51,276,583,5984
1644178537.293615,-0.008911,0.008545,-0.990356,0.220855,0.478168,-0.085191,48,269,590,5952
1644178537.341986,-0.011353,0.008545,-0.995361,0.236122,0.508702,-0.054656,54,280,586,5952
1644178537.390376,-0.009521,0.008789,-0.992432,0.098718,0.386565,-0.115725,45,277,584,6000
1644178537.439557,-0.008728,0.009705,-0.992126,0.281924,0.294962,-0.115725,46,276,597,5984
1644178537.487145,-0.008667,0.012024,-0.991028,0.281924,0.508702,0.036947,53,279,594,6080
1644178537.535543,-0.011475,0.008667,-0.99292,0.251389,0.447634,-0.100458,47,275,589,5936
1644178537.583999,-0.009888,0.011353,-0.991699,0.205588,0.386565,-0.024122,49,275,591,6016
1644178537.634449,-0.008667,0.00946,-0.992371,0.144519,0.478168,-0.054656,52,270,586,6016
1644178537.684735,-0.011047,0.010254,-0.990173,0.205588,0.371298,-0.054656,51,271,583,6016
1644178537.729814,-0.007629,0.009277,-0.991333,0.312458,0.462901,-0.039389,52,285,575,5984
1644178537.825883,-0.011353,0.01001,-0.990234,0.373527,0.401832,-0.085191,48,279,583,5984
1644178537.87436,-0.010803,0.008606,-0.990295,0.205588,0.447634,-0.176794,36,274,587,5984
1644178537.922743,-0.004333,0.011414,-0.99176,0.236122,0.493435,-0.14626,39,274,597,5984
1644178537.971132,-0.012024,0.011047,-0.994263,0.129252,0.264427,-0.039389,45,277,584,6000
1644178538.019523,-0.011292,0.009644,-0.993408,0.159786,0.386565,-0.176794,46,271,576,6064
1644178538.067966,-0.007629,0.008789,-0.99176,0.35826,0.432366,-0.085191,48,274,594,6016
1644178538.116318,-0.009216,0.012268,-0.992615,0.266656,0.539237,0.021679,48,271,583,6016
1644178538.164681,-0.009094,0.008545,-0.994141,0.236122,0.447634,-0.115725,46,271,583,6000
1644178538.213062,-0.011108,0.010559,-0.994507,0.236122,0.523969,-0.100458,48,276,583,6080
1644178538.261442,-0.009277,0.00946,-0.991272,0.236122,0.432366,-0.237863,57,285,586,5952
1644178538.309808,-0.008484,0.009888,-0.994995,0.144519,0.279695,-0.130992,52,277,582,6080
1644178538.358232,-0.01001,0.012024,-0.993713,0.251389,0.371298,-0.100458,48,279,585,6000
1644178538.40661,-0.00824,0.008606,-0.990723,0.266656,0.325496,-0.008855,59,268,579,5984
1644178538.455133,-0.009399,0.007629,-0.990479,0.327725,0.386565,-0.024122,43,276,587,6000
1644178538.503417,-0.009094,0.010498,-0.992859,0.297191,0.432366,-0.085191,47,270,598,6016
1644178538.551795,-0.009949,0.009338,-0.993286,0.175053,0.447634,-0.085191,52,277,586,6016
1644178538.600189,-0.008728,0.006531,-0.99292,0.251389,0.539237,-0.100458,45,275,589,6016
1644178538.648557,-0.009155,0.00708,-0.989624,0.144519,0.432366,-0.024122,53,283,585,6000
1644178538.696966,-0.007446,0.009277,-0.990601,0.297191,0.310229,-0.14626,45,285,591,6000
1644178538.745566,-0.011047,0.009155,-0.990845,0.159786,0.432366,-0.085191,53,271,576,6000
1644178538.796345,-0.00885,0.010742,-0.992004,0.205588,0.432366,-0.192061,51,283,592,6080
1644178538.846648,-0.008545,0.010071,-0.99353,0.297191,0.264427,-0.14626,47,277,586,6016
1644178538.891832,-0.009521,0.009705,-0.992615,0.251389,0.447634,-0.069924,41,271,580,5984
1644178538.987366,-0.007263,0.010071,-0.989502,0.236122,0.386565,-0.192061,53,279,585,6000
1644178539.035736,-0.010925,0.007446,-0.991394,0.266656,0.371298,-0.039389,46,286,580,6112
1644178539.088556,-0.010376,0.009827,-0.993408,0.342992,0.371298,-0.039389,54,282,593,6000
1644178539.132529,-0.010559,0.009888,-0.991638,0.373527,0.356031,-0.054656,47,282,584,6016
1644178539.180889,-0.007629,0.010498,-0.991577,0.281924,0.386565,0.006412,46,276,580,6016
1644178539.229274,-0.010193,0.007019,-0.990479,0.113985,0.279695,-0.176794,53,276,583,6000
1644178539.27767,-0.011169,0.011597,-0.992065,0.098718,0.310229,-0.008855,45,275,591,6016
1644178539.326068,-0.009216,0.007812,-0.992188,0.327725,0.371298,0.082748,47,273,575,6048
1644178539.374478,-0.01062,0.007629,-0.995361,0.205588,0.401832,-0.054656,52,268,586,6000
1644178539.422866,-0.009827,0.011108,-0.991272,0.266656,0.493435,-0.024122,61,277,586,5984
1644178539.471254,-0.009521,0.010193,-0.99292,0.266656,0.340763,-0.25313,52,275,586,6048
1644178539.519642,-0.008362,0.010864,-0.989685,0.281924,0.325496,-0.14626,38,280,577,6048
1644178539.568042,-0.008484,0.009827,-0.993591,0.205588,0.24916,-0.039389,60,271,580,6016
1644178539.616423,-0.007996,0.009338,-0.991272,0.220855,0.401832,-0.085191,49,280,579,6000
1644178539.664824,-0.011414,0.00824,-0.991943,0.419328,0.493435,-0.008855,55,276,594,6048
1644178539.713205,-0.009277,0.010071,-0.992126,0.251389,0.478168,-0.024122,49,275,593,5984
1644178539.761595,-0.010254,0.007385,-0.992188,0.190321,0.462901,-0.085191,43,281,585,6048
1644178539.809985,-0.010254,0.010132,-0.993835,0.266656,0.310229,-0.100458,49,275,570,6000
1644178539.858499,-0.010071,0.007996,-0.988525,0.236122,0.310229,-0.237863,47,270,596,5984
1644178539.908494,-0.012146,0.010376,-0.992737,0.266656,0.371298,-0.085191,51,286,587,5952
1644178539.95879,-0.00647,0.009827,-0.989563,0.220855,0.340763,0.052214,33,277,582,6048
1644178540.062311,-0.01062,0.009766,-0.992188,0.281924,0.401832,0.036947,45,280,577,6000
1644178540.100448,-0.005371,0.010315,-0.993103,0.08345,0.417099,-0.008855,48,274,594,6000
1644178540.148745,-0.009827,0.007935,-0.993103,0.175053,0.325496,-0.222595,52,273,586,5984
1644178540.197126,-0.009644,0.010437,-0.992493,0.220855,0.447634,-0.085191,51,271,587,6016
1644178540.245489,-0.009155,0.010986,-0.990051,0.251389,0.386565,-0.069924,43,283,585,5984
1644178540.293902,-0.007385,0.009583,-0.990173,0.342992,0.478168,-0.161527,42,280,589,5984
1644178540.342291,-0.010925,0.005066,-0.990295,0.251389,0.539237,-0.100458,48,281,580,5984
1644178540.390696,-0.011597,0.009583,-0.99292,0.190321,0.493435,-0.298931,49,270,589,6000
1644178540.439087,-0.00885,0.009705,-0.992188,0.190321,0.325496,-0.176794,45,290,584,6016
1644178540.487475,-0.008789,0.011902,-0.990356,0.022382,0.447634,-0.14626,48,283,590,6000
1644178540.535868,-0.008545,0.008057,-0.990295,0.297191,0.600305,-0.100458,54,273,591,6048
1644178540.584268,-0.007629,0.009827,-0.987061,0.129252,0.478168,-0.161527,47,287,586,5952
1644178540.632761,-0.007202,0.011292,-0.991455,0.327725,0.462901,-0.115725,45,263,596,5904
1644178540.681053,-0.007507,0.012756,-0.992432,0.281924,0.279695,0.021679,53,279,585,6080
1644178540.730162,-0.009338,0.008728,-0.994019,0.068183,0.310229,-0.222595,42,275,584,5984
1644178540.780572,-0.009094,0.010071,-0.992432,0.159786,0.462901,-0.115725,51,283,576,6000
1644178540.830752,-0.006165,0.007996,-0.98938,0.190321,0.294962,-0.008855,52,275,577,5952
1644178540.876533,-0.008301,0.009033,-0.993958,0.190321,0.386565,0.006412,52,273,582,6048
1644178540.971426,-0.009888,0.011353,-0.992554,0.190321,0.356031,-0.069924,42,275,584,6016
1644178541.019822,-0.01001,0.007751,-0.991394,0.266656,0.447634,-0.207328,52,282,577,5984
1644178541.068949,-0.009644,0.008301,-0.992981,0.113985,0.432366,-0.237863,42,275,589,5952
1644178541.116525,-0.008057,0.009766,-0.991272,0.434595,0.371298,-0.069924,54,275,582,6080
1644178541.165214,-0.00531,0.01178,-0.994019,0.190321,0.264427,0.021679,57,270,582,5952
1644178541.213356,-0.005066,0.009399,-0.994385,0.312458,0.386565,-0.085191,59,273,586,6016
1644178541.261745,-0.010254,0.010681,-0.991028,0.190321,0.386565,0.006412,49,287,572,6048
1644178541.310122,-0.009338,0.007019,-0.995117,0.312458,0.447634,-0.14626,52,280,579,6000
1644178541.358541,-0.009094,0.009277,-0.992371,0.052916,0.371298,-0.130992,39,264,583,6000
1644178541.406927,-0.010803,0.01001,-0.992859,0.373527,0.432366,-0.100458,57,280,579,5984
1644178541.455325,-0.010132,0.00592,-0.992981,0.373527,0.371298,-0.069924,53,283,590,5952
1644178541.503724,-0.009338,0.008301,-0.991089,0.312458,0.432366,-0.115725,48,283,576,6048
1644178541.552209,-0.007751,0.009766,-0.992676,0.159786,0.203359,-0.14626,49,287,586,6016
1644178541.600467,-0.007019,0.010681,-0.989746,0.266656,0.371298,0.052214,46,274,599,5952
1644178541.648879,-0.011047,0.010376,-0.991333,0.205588,0.447634,0.036947,42,282,584,6016
1644178541.697276,-0.010437,0.011292,-0.992859,0.373527,0.432366,-0.100458,45,282,593,5984
1644178541.745666,-0.009033,0.008484,-0.993835,0.342992,0.401832,-0.176794,54,292,586,5936
1644178541.794468,-0.008545,0.010559,-0.990479,0.312458,0.569771,-0.100458,47,282,579,6016
1644178541.842523,-0.010132,0.010864,-0.991394,0.08345,0.417099,-0.161527,53,266,592,6016
1644178541.892914,-0.008911,0.01001,-0.990784,0.342992,0.356031,-0.14626,46,274,585,6048
1644178541.942733,-0.006104,0.009827,-0.990356,0.281924,0.478168,-0.039389,59,282,582,6016
1644178541.992986,-0.006104,0.009583,-0.992676,0.037649,0.417099,-0.069924,52,270,582,5984
1644178542.084765,-0.006165,0.010071,-0.991882,0.266656,0.493435,-0.008855,53,279,583,6000
1644178542.132815,-0.008362,0.007874,-0.989746,0.297191,0.462901,-0.25313,43,281,583,5936
1644178542.181196,-0.008728,0.009155,-0.993713,0.190321,0.386565,0.021679,52,285,589,6080
1644178542.229557,-0.008301,0.010742,-0.99054,0.266656,0.325496,-0.14626,58,274,587,6048
1644178542.277966,-0.008606,0.012085,-0.989868,0.129252,0.356031,-0.024122,48,279,578,5984
1644178542.326353,-0.010681,0.009338,-0.989685,0.08345,0.615573,-0.024122,45,282,577,5984
1644178542.374774,-0.006531,0.009338,-0.989624,0.205588,0.432366,-0.069924,48,281,576,5952
1644178542.423177,-0.00885,0.009155,-0.993042,0.052916,0.432366,-0.14626,45,275,582,6016
1644178542.471531,-0.008301,0.009521,-0.989563,0.251389,0.356031,-0.069924,48,286,587,5936
1644178542.519945,-0.010376,0.009033,-0.994141,0.251389,0.371298,-0.192061,64,282,589,6000
1644178542.568332,-0.008911,0.008301,-0.989746,0.236122,0.432366,-0.054656,45,282,575,5936
1644178542.616732,-0.008972,0.008118,-0.991211,0.190321,0.432366,-0.14626,58,279,585,5984
1644178542.665208,-0.009827,0.010681,-0.992981,-0.008153,0.493435,-0.207328,53,281,578,5952
1644178542.713498,-0.010925,0.009399,-0.992615,0.205588,0.386565,-0.237863,39,271,592,6064
1644178542.761888,-0.009888,0.00824,-0.992065,0.327725,0.478168,0.006412,48,279,592,5984
1644178542.810333,-0.007996,0.007019,-0.994141,0.052916,0.478168,-0.039389,46,279,592,5984
1644178542.858725,-0.010193,0.007812,-0.990295,0.190321,0.417099,-0.100458,45,285,586,6000
1644178542.907472,-0.009338,0.013,-0.994263,0.113985,0.478168,-0.039389,47,268,596,6048
1644178542.955553,-0.01062,0.012024,-0.990906,0.113985,0.478168,-0.115725,51,279,578,6016
1644178543.005181,-0.013611,0.009888,-0.989624,0.205588,0.462901,-0.069924,46,279,583,6000
1644178543.102015,-0.009521,0.009888,-0.991516,0.297191,0.432366,-0.069924,57,285,591,6048
1644178543.149047,-0.00885,0.009888,-0.993713,0.388794,0.401832,-0.237863,52,273,579,6000
1644178543.197436,-0.008118,0.010803,-0.99408,0.342992,0.356031,-0.222595,48,281,580,5984
1644178543.245798,-0.009705,0.008667,-0.993103,0.052916,0.417099,-0.085191,47,270,586,5984
1644178543.294236,-0.007751,0.011536,-0.992371,0.175053,0.24916,-0.283664,35,277,582,5952
1644178543.342627,-0.01123,0.013123,-0.992065,0.35826,0.340763,-0.14626,53,266,587,6048
1644178543.39101,-0.010254,0.010376,-0.992126,0.236122,0.478168,0.006412,52,282,582,5984
1644178543.43939,-0.01123,0.009705,-0.994995,0.205588,0.340763,0.021679,59,282,572,6000
1644178543.48776,-0.008301,0.008423,-0.990662,0.236122,0.340763,0.036947,53,266,590,6000
1644178543.536174,-0.010376,0.008301,-0.989746,0.281924,0.233893,-0.069924,51,281,580,6000
1644178543.584613,-0.00647,0.008606,-0.993286,0.281924,0.462901,-0.14626,51,281,585,5984
1644178543.632997,-0.00885,0.007996,-0.991333,0.266656,0.432366,-0.207328,47,273,584,6048
1644178543.682886,-0.010071,0.00946,-0.991394,0.129252,0.432366,-0.161527,43,269,601,6016
1644178543.73326,-0.009583,0.009583,-0.992065,0.175053,0.371298,-0.176794,53,276,587,6064
1644178543.783368,-0.005005,0.010437,-0.988892,0.113985,0.432366,-0.14626,52,277,589,6000
1644178543.875263,-0.011169,0.01062,-0.993774,0.297191,0.386565,-0.237863,41,281,590,6080
1644178543.923347,-0.008423,0.009094,-0.989502,0.281924,0.539237,-0.100458,51,286,585,6016
1644178543.971733,-0.009583,0.008606,-0.992371,0.175053,0.478168,-0.054656,57,270,584,6016
1644178544.020103,-0.010193,0.009338,-0.993286,0.297191,0.310229,-0.115725,55,274,580,6048
1644178544.069071,-0.008057,0.011353,-0.992676,0.190321,0.462901,-0.237863,54,282,586,5984
1644178544.116826,-0.008362,0.008789,-0.993347,0.08345,0.24916,-0.100458,46,276,585,6000
1644178544.165264,-0.007385,0.009949,-0.991821,0.190321,0.585038,-0.054656,48,281,585,5952
1644178544.213674,-0.00885,0.008423,-0.993591,0.220855,0.264427,-0.14626,48,281,580,5984
1644178544.262061,-0.010742,0.009888,-0.993958,0.266656,0.401832,-0.237863,51,279,580,6016
1644178544.310463,-0.011536,0.010315,-0.994812,0.236122,0.310229,-0.115725,48,264,592,6048
1644178544.35882,-0.008728,0.010071,-0.993652,0.251389,0.401832,-0.176794,54,277,586,5952
1644178544.407237,-0.009338,0.01123,-0.991638,0.159786,0.478168,0.006412,46,281,585,6000
1644178544.455626,-0.007507,0.009827,-0.993225,0.190321,0.508702,-0.069924,52,282,584,6048
1644178544.504045,-0.011536,0.009949,-0.994324,0.144519,0.401832,-0.085191,42,280,589,6016
1644178544.552435,-0.008789,0.009949,-0.990784,0.236122,0.356031,-0.100458,40,282,586,6000
1644178544.600804,-0.00824,0.006104,-0.991394,0.266656,0.340763,-0.176794,49,273,584,6000
1644178544.649183,-0.008667,0.00946,-0.988586,0.098718,0.310229,-0.207328,58,264,587,5984
1644178544.697596,-0.010559,0.010132,-0.991394,0.159786,0.417099,0.006412,46,286,587,6016
1644178544.745944,-0.008301,0.01001,-0.991699,0.190321,0.417099,0.082748,43,279,585,5952
1644178544.794751,-0.011841,0.00946,-0.993958,0.220855,0.417099,-0.25313,58,281,592,5952
1644178544.846081,-0.00824,0.00769,-0.992859,0.266656,0.432366,-0.069924,54,287,582,6000
1644178544.896874,-0.009216,0.009338,-0.989685,0.205588,0.478168,-0.161527,43,274,583,6000
1644178544.94103,-0.009277,0.010742,-0.99054,0.190321,0.356031,-0.14626,49,270,593,6048
1644178545.036347,-0.011902,0.00769,-0.991699,0.190321,0.340763,-0.130992,51,279,585,6016
1644178545.084878,-0.010498,0.011292,-0.991577,0.281924,0.218626,-0.054656,47,273,584,6016
1644178545.133147,-0.010925,0.012268,-0.992065,0.281924,0.218626,-0.14626,49,277,582,6112
1644178545.181491,-0.007629,0.007935,-0.994629,0.205588,0.203359,-0.14626,47,273,577,6016
1644178545.229887,-0.008606,0.008911,-0.993835,0.312458,0.432366,-0.161527,46,271,583,6000
1644178545.278283,-0.00946,0.011597,-0.991516,0.251389,0.585038,-0.14626,47,282,577,6016
1644178545.326686,-0.009338,0.00946,-0.991333,0.266656,0.478168,-0.024122,54,273,582,5984
1644178545.375197,-0.008606,0.008484,-0.992188,0.251389,0.356031,0.021679,42,282,579,5984
1644178545.423475,-0.010986,0.012451,-0.993591,0.190321,0.386565,-0.222595,43,274,576,6016
1644178545.47186,-0.008545,0.008789,-0.993164,0.098718,0.340763,-0.100458,47,275,577,5984
1644178545.520252,-0.009155,0.011108,-0.992737,0.159786,0.508702,-0.192061,53,269,583,5984
1644178545.568634,-0.010498,0.008728,-0.994263,0.205588,0.401832,-0.207328,59,273,593,6016
1644178545.617039,-0.009521,0.008972,-0.989807,0.129252,0.417099,-0.161527,54,273,575,5952
1644178545.66541,-0.009521,0.010376,-0.992615,0.251389,0.356031,-0.207328,52,290,584,6000
1644178545.713827,-0.008484,0.00946,-0.990601,0.190321,0.371298,-0.039389,58,271,583,5984
1644178545.762249,-0.007935,0.010803,-0.991699,0.236122,0.386565,-0.085191,51,276,580,6048
1644178545.810602,-0.006042,0.009888,-0.988708,0.281924,0.417099,-0.100458,48,286,594,5952
1644178545.859037,-0.006592,0.011658,-0.991638,0.220855,0.447634,-0.207328,59,280,586,5984
1644178545.907443,-0.009705,0.010864,-0.992554,0.098718,0.432366,-0.069924,58,274,580,6016
1644178545.956852,-0.007019,0.011902,-0.993042,0.08345,0.462901,-0.344733,40,277,584,5984
1644178546.055202,-0.010437,0.008423,-0.992676,0.251389,0.462901,-0.268397,55,274,590,5984
1644178546.100968,-0.010559,0.008423,-0.992249,0.373527,0.325496,-0.222595,45,280,586,6016
1644178546.149362,-0.007629,0.00885,-0.993591,0.281924,0.340763,-0.024122,48,279,585,6000
1644178546.197738,-0.011536,0.008606,-0.991333,0.312458,0.310229,-0.130992,52,277,589,6016
1644178546.24611,-0.008362,0.01178,-0.991699,0.373527,0.478168,0.067481,45,273,582,6016
1644178546.294525,-0.011536,0.010925,-0.993042,0.251389,0.356031,-0.161527,49,275,586,6016
1644178546.342931,-0.007874,0.011597,-0.990723,0.144519,0.478168,-0.207328,47,282,593,5984
1644178546.391309,-0.010132,0.009583,-0.991821,0.175053,0.294962,-0.069924,48,283,580,5952
1644178546.439702,-0.010864,0.007996,-0.993896,0.205588,0.447634,-0.237863,47,277,582,5952
1644178546.488088,-0.010864,0.007324,-0.988831,0.08345,0.417099,-0.039389,47,280,593,6016
1644178546.536474,-0.01001,0.012085,-0.990784,0.098718,0.294962,-0.161527,53,283,580,5984
1644178546.584878,-0.007874,0.010864,-0.990479,0.266656,0.310229,-0.054656,41,288,597,6016
1644178546.633243,-0.011047,0.008667,-0.991577,0.236122,0.371298,-0.039389,49,299,584,5984
1644178546.68183,-0.010315,0.008667,-0.99231,0.297191,0.554504,-0.268397,47,287,593,5984
1644178546.731253,-0.010376,0.007935,-0.993347,0.205588,0.585038,-0.130992,48,279,587,6048
1644178546.781483,-0.008972,0.009888,-0.991272,0.205588,0.325496,-0.100458,47,282,598,6064
1644178546.831751,-0.009705,0.011902,-0.98877,0.205588,0.386565,-0.115725,53,274,576,6048
1644178546.923699,-0.007202,0.010742,-0.993774,0.297191,0.417099,-0.054656,48,283,580,6048
1644178546.972051,-0.013123,0.006409,-0.993958,0.281924,0.493435,0.052214,53,276,585,5984
1644178547.020443,-0.007935,0.008911,-0.990967,0.251389,0.386565,-0.176794,49,277,582,6016
1644178547.069822,-0.009521,0.008362,-0.991577,0.113985,0.233893,-0.085191,48,266,590,6016
1644178547.117166,-0.00592,0.00946,-0.99176,0.297191,0.386565,-0.069924,53,281,585,6080
1644178547.165614,-0.009338,0.007202,-0.992188,0.220855,0.279695,-0.222595,39,274,583,5984
1644178547.214026,-0.009033,0.007751,-0.99231,0.281924,0.356031,-0.024122,41,274,573,6016
1644178547.262388,-0.00769,0.007629,-0.992065,0.312458,0.417099,-0.100458,45,282,586,5984
1644178547.310778,-0.01001,0.008972,-0.991882,0.144519,0.371298,0.021679,47,280,584,5984
1644178547.359194,-0.010071,0.008789,-0.993591,0.281924,0.539237,0.021679,49,277,589,5984
1644178547.407586,-0.006165,0.009827,-0.991028,0.266656,0.172824,-0.024122,54,273,582,5952
1644178547.455972,-0.009033,0.009949,-0.98761,0.220855,0.401832,-0.069924,52,273,586,6016
1644178547.504347,-0.007751,0.008484,-0.99176,0.419328,0.539237,-0.25313,53,279,592,6016
1644178547.552761,-0.008545,0.00824,-0.993835,0.312458,0.417099,-0.130992,49,270,584,5984
1644178547.601145,-0.008728,0.011475,-0.989624,0.312458,0.233893,-0.176794,54,275,582,5952
1644178547.649543,-0.008179,0.011597,-0.988586,0.35826,0.447634,-0.207328,55,276,578,6016
1644178547.697931,-0.010742,0.010437,-0.993042,0.190321,0.325496,-0.024122,61,270,579,5952
1644178547.746392,-0.008484,0.009705,-0.992371,0.175053,0.386565,-0.176794,54,280,593,5984
1644178547.794783,-0.009949,0.009277,-0.992554,0.205588,0.218626,-0.054656,52,285,591,5984
1644178547.844817,-0.010315,0.009277,-0.991272,0.068183,0.401832,0.052214,49,282,591,6048
1644178547.895674,-0.008789,0.00769,-0.990723,0.205588,0.493435,0.052214,43,276,590,6048
1644178547.94531,-0.007019,0.007812,-0.992065,0.113985,0.386565,-0.100458,43,286,585,6048
1644178547.989766,-0.009583,0.009705,-0.992676,0.159786,0.417099,-0.130992,51,281,580,6000
1644178548.08522,-0.008423,0.009705,-0.993469,0.297191,0.371298,-0.039389,51,281,578,5984
1644178548.133438,-0.009338,0.011536,-0.992859,0.190321,0.401832,-0.115725,41,276,578,5984
1644178548.181807,-0.008301,0.009155,-0.993347,0.098718,0.401832,-0.130992,53,274,583,5952
1644178548.23021,-0.009033,0.010315,-0.993713,0.312458,0.478168,-0.222595,48,276,583,5888
1644178548.278595,-0.00885,0.010193,-0.991028,0.220855,0.356031,-0.130992,52,277,584,6016
1644178548.326999,-0.012268,0.009521,-0.99408,0.175053,0.432366,-0.085191,54,268,586,6000
1644178548.375377,-0.010132,0.011536,-0.993286,0.098718,0.371298,-0.115725,46,274,590,6016
1644178548.423782,-0.010498,0.009583,-0.989868,0.266656,0.401832,-0.161527,46,283,585,6000
1644178548.472174,-0.007507,0.008606,-0.991089,0.113985,0.478168,-0.100458,47,277,586,6000
1644178548.520566,-0.008362,0.009338,-0.991089,0.266656,0.401832,-0.085191,47,282,593,5936
1644178548.568957,-0.007996,0.009277,-0.994263,0.220855,0.432366,-0.222595,46,281,587,5984
1644178548.617342,-0.009399,0.010315,-0.991821,0.205588,0.447634,-0.100458,54,268,579,5952
1644178548.66573,-0.012146,0.009399,-0.99408,0.205588,0.432366,-0.039389,47,282,586,5936
1644178548.714145,-0.00647,0.008179,-0.994263,0.342992,0.478168,-0.054656,65,274,580,5936
1644178548.762513,-0.008484,0.008667,-0.989197,0.220855,0.432366,-0.222595,54,273,589,6000
1644178548.810942,-0.010925,0.01001,-0.991699,0.052916,0.523969,-0.069924,48,281,590,6000
1644178548.859334,-0.009399,0.008728,-0.991272,0.281924,0.478168,-0.039389,48,274,578,6000
1644178548.907875,-0.007385,0.010193,-0.991211,0.175053,0.371298,-0.115725,43,276,578,6016
1644178548.956135,-0.008362,0.00946,-0.993958,0.113985,0.554504,-0.008855,57,277,591,5984
1644178549.006088,-0.006348,0.006958,-0.991699,0.236122,0.539237,-0.130992,53,276,585,5904
1644178549.080995,-0.009399,0.008179,-0.992676,0.220855,0.294962,0.006412,52,282,579,6016
1644178549.115904,-0.011658,0.009949,-0.99176,0.251389,0.478168,-0.069924,46,283,592,5952
1644178549.19803,-0.00824,0.011169,-0.993591,0.068183,0.386565,-0.085191,49,265,575,5984
1644178549.246423,-0.00824,0.010193,-0.993774,0.205588,0.294962,-0.161527,52,273,577,5952
1644178549.294857,-0.009827,0.009094,-0.993469,0.281924,0.508702,-0.039389,46,283,578,5984
1644178549.343217,-0.010315,0.009338,-0.99292,0.052916,0.356031,-0.039389,48,271,576,6048
1644178549.391608,-0.010498,0.012695,-0.992615,0.297191,0.401832,-0.115725,51,276,578,6016
1644178549.440009,-0.011658,0.007446,-0.993042,0.251389,0.417099,-0.176794,47,275,582,5984
1644178549.488387,-0.013306,0.008789,-0.994263,0.327725,0.432366,-0.100458,48,269,587,6000
1644178549.536787,-0.010498,0.010803,-0.990723,0.35826,0.24916,-0.192061,46,271,578,5936
1644178549.585168,-0.009277,0.007446,-0.993652,0.144519,0.462901,-0.115725,51,271,583,5904
1644178549.633589,-0.009094,0.010071,-0.989685,0.113985,0.371298,0.052214,48,279,578,6016
1644178549.681957,-0.007446,0.008789,-0.992859,0.281924,0.386565,-0.069924,48,269,583,6048
1644178549.730367,-0.007935,0.009705,-0.994019,0.220855,0.447634,-0.085191,49,268,589,6016
1644178549.778742,-0.010986,0.010559,-0.994995,0.266656,0.401832,-0.115725,49,275,589,5984
1644178549.827189,-0.007629,0.007324,-0.994019,0.08345,0.493435,-0.130992,53,266,580,6016
1644178549.875572,-0.009155,0.008545,-0.994263,0.266656,0.462901,-0.085191,49,275,586,5952
1644178549.923967,-0.01001,0.008728,-0.994141,0.190321,0.447634,-0.161527,55,279,580,5984
1644178549.972328,-0.011169,0.00824,-0.993896,0.175053,0.310229,-0.130992,40,277,575,6016
1644178550.021099,-0.010071,0.013062,-0.993286,0.159786,0.523969,-0.161527,45,280,582,5984
1644178550.087297,-0.007446,0.009888,-0.990662,0.419328,0.478168,-0.085191,52,280,572,6000
1644178550.118526,-0.011902,0.010254,-0.992126,0.129252,0.24916,0.082748,55,276,590,5984
1644178550.21427,-0.010437,0.009766,-0.991943,0.251389,0.432366,-0.192061,43,276,573,6000
1644178550.262666,-0.008606,0.01062,-0.99115,0.144519,0.386565,-0.024122,47,282,591,6048
1644178550.311055,-0.008667,0.011536,-0.990906,0.175053,0.478168,-0.207328,47,275,589,5952
1644178550.359442,-0.009583,0.013,-0.991516,0.35826,0.478168,-0.085191,46,281,573,6016
1644178550.40784,-0.011902,0.008423,-0.98999,0.205588,0.417099,-0.100458,49,277,582,6016
1644178550.45623,-0.007141,0.007996,-0.994629,0.281924,0.661374,0.006412,55,276,580,5936
1644178550.504665,-0.008301,0.007874,-0.990723,0.388794,0.401832,-0.237863,46,269,587,6016
1644178550.553046,-0.009888,0.007751,-0.994934,0.281924,0.432366,0.006412,48,281,580,6064
1644178550.601421,-0.006958,0.008667,-0.993347,0.175053,0.401832,-0.237863,53,281,580,6016
1644178550.649813,-0.007996,0.008484,-0.990601,0.35826,0.386565,-0.008855,47,275,582,6048
1644178550.698209,-0.012268,0.009521,-0.993164,0.251389,0.539237,0.036947,47,280,584,5984
1644178550.746578,-0.011475,0.008179,-0.989929,0.113985,0.447634,-0.130992,43,286,587,6016
1644178550.795112,-0.009583,0.011658,-0.991211,0.251389,0.340763,-0.237863,55,271,583,6000
1644178550.84344,-0.010803,0.009827,-0.990356,0.35826,0.401832,-0.176794,51,274,583,6000
1644178550.891807,-0.010559,0.007141,-0.993103,0.266656,0.386565,0.021679,59,280,584,5984
1644178550.940204,-0.010193,0.008606,-0.991943,0.342992,0.310229,-0.085191,48,271,580,5904
1644178550.988561,-0.008484,0.00885,-0.991516,0.190321,0.478168,-0.14626,45,268,600,5984
1644178551.036954,-0.010132,0.010559,-0.990845,0.175053,0.310229,-0.268397,46,283,587,6080
1644178551.092941,-0.007629,0.009399,-0.992615,-0.008153,0.24916,-0.100458,57,265,589,5984
1644178551.137074,-0.010193,0.009155,-0.991943,0.175053,0.279695,-0.161527,40,275,589,5952
1644178551.185426,-0.008057,0.008972,-0.992371,0.175053,0.447634,-0.192061,52,275,579,5888
1644178551.235527,-0.00946,0.00946,-0.991211,0.266656,0.340763,-0.14626,36,276,583,6016
1644178551.327278,-0.008484,0.007751,-0.991516,0.266656,0.279695,-0.237863,42,275,577,6016
1644178551.375673,-0.007629,0.008667,-0.991943,0.205588,0.478168,-0.161527,51,274,583,6016
1644178551.424075,-0.00885,0.008545,-0.993896,0.312458,0.417099,-0.115725,47,273,586,5984
1644178551.472457,-0.00708,0.008484,-0.99353,0.404061,0.340763,-0.069924,49,277,586,5952
1644178551.520856,-0.009583,0.007751,-0.99231,0.007115,0.539237,-0.222595,46,279,580,5984
1644178551.569255,-0.01062,0.008728,-0.991455,0.266656,0.447634,-0.039389,43,274,585,6048
1644178551.617645,-0.009888,0.00824,-0.988281,0.129252,0.417099,-0.207328,46,274,583,5984
1644178551.666045,-0.009094,0.009399,-0.993347,0.190321,0.417099,-0.054656,45,277,577,5984
1644178551.714441,-0.010864,0.010925,-0.995117,0.281924,0.356031,0.052214,55,269,578,5984
1644178551.762839,-0.010071,0.00946,-0.994751,0.129252,0.401832,-0.054656,42,280,589,5984
1644178551.811233,-0.011414,0.009644,-0.994568,0.236122,0.432366,-0.008855,46,266,590,6016
1644178551.859656,-0.005493,0.012329,-0.991272,0.129252,0.371298,0.082748,42,280,584,6016
1644178551.908031,-0.009888,0.009583,-0.989502,0.342992,0.188092,-0.14626,53,279,587,6016
1644178551.956433,-0.007629,0.009216,-0.990417,0.297191,0.294962,0.036947,40,280,584,5984
1644178552.004798,-0.009094,0.010254,-0.991699,0.236122,0.554504,-0.192061,53,274,573,6048
1644178552.065228,-0.008057,0.011169,-0.992676,0.190321,0.294962,-0.039389,58,266,587,5984
1644178552.103117,-0.006165,0.012695,-0.992676,0.144519,0.401832,-0.161527,61,270,584,6016
1644178552.150262,-0.009949,0.008423,-0.991821,0.068183,0.371298,-0.024122,57,280,584,5952
1644178552.198341,-0.009766,0.006714,-0.99231,0.190321,0.325496,-0.161527,46,283,576,6016
1644178552.247244,-0.007568,0.010193,-0.992126,0.266656,0.432366,-0.130992,46,274,580,6016
1644178552.29778,-0.005432,0.008423,-0.990051,0.388794,0.523969,-0.130992,46,283,578,5904
1644178552.347904,-0.011047,0.009033,-0.992188,0.220855,0.417099,-0.192061,43,279,585,5952
1644178552.392859,-0.008118,0.011292,-0.989563,0.144519,0.325496,-0.25313,51,276,583,6048
1644178552.488694,-0.008423,0.008667,-0.991516,0.297191,0.493435,-0.069924,49,280,586,5952
1644178552.53707,-0.009521,0.007629,-0.993408,0.190321,0.325496,-0.024122,68,280,584,6000
1644178552.585471,-0.01062,0.01062,-0.994019,0.159786,0.371298,-0.069924,48,279,573,5936
1644178552.633888,-0.008057,0.009521,-0.995178,0.373527,0.432366,-0.130992,53,281,583,5984
1644178552.682382,-0.01001,0.008972,-0.990906,0.266656,0.478168,-0.069924,45,270,584,5952
1644178552.730632,-0.011169,0.008179,-0.989563,0.297191,0.508702,-0.100458,39,276,585,5952
1644178552.779058,-0.010925,0.009583,-0.994141,0.281924,0.493435,-0.192061,49,260,582,5952
1644178552.827448,-0.010559,0.00824,-0.991028,0.098718,0.340763,-0.192061,51,281,587,5984
1644178552.875876,-0.007996,0.010803,-0.991699,0.144519,0.447634,0.021679,48,279,576,6000
1644178552.924267,-0.008789,0.007446,-0.99176,0.297191,0.371298,-0.054656,48,279,583,5936
1644178552.972677,-0.010498,0.008179,-0.993103,0.08345,0.325496,0.113282,47,277,591,6048
1644178553.021057,-0.008179,0.007996,-0.992737,0.159786,0.340763,-0.161527,47,280,586,5984
1644178553.077766,-0.006836,0.009766,-0.992798,0.266656,0.371298,-0.054656,47,277,589,6016
1644178553.117834,-0.007629,0.008179,-0.989014,0.205588,0.386565,-0.115725,48,271,585,5936
1644178553.166201,-0.008484,0.009094,-0.993042,0.190321,0.432366,-0.130992,53,276,587,5984
1644178553.214631,-0.009827,0.010559,-0.99353,0.037649,0.417099,-0.100458,57,280,584,5984
1644178553.262995,-0.012268,0.012695,-0.990845,0.220855,0.432366,-0.130992,46,281,580,6080
1644178553.311372,-0.00885,0.008301,-0.990417,0.297191,0.264427,-0.039389,39,276,587,6016
1644178553.359762,-0.008667,0.007874,-0.992859,0.205588,0.432366,-0.176794,45,285,579,6016
1644178553.408327,-0.008179,0.009094,-0.991638,0.342992,0.310229,-0.130992,51,271,587,6048
1644178553.459461,-0.008423,0.011047,-0.991699,0.113985,0.386565,-0.054656,60,276,578,6048
1644178553.509166,-0.009705,0.010193,-0.990295,0.297191,0.447634,-0.192061,43,269,585,5952
1644178553.554046,-0.008667,0.009338,-0.990906,0.297191,0.24916,-0.222595,49,277,579,5952
1644178553.650118,-0.008667,0.00885,-0.989685,0.159786,0.386565,-0.039389,42,280,584,5952
1644178553.69849,-0.006287,0.010193,-0.99115,0.220855,0.493435,-0.130992,55,279,580,6016
1644178553.746876,-0.010437,0.01178,-0.993408,0.251389,0.462901,-0.085191,51,264,597,6016
1644178553.795408,-0.008667,0.007202,-0.993774,0.205588,0.478168,-0.130992,52,270,589,5984
1644178553.843683,-0.008362,0.012024,-0.99176,0.297191,0.539237,-0.085191,49,282,582,6016
1644178553.892153,-0.008667,0.007385,-0.990662,0.266656,0.340763,-0.192061,48,286,580,5984
1644178553.94051,-0.009216,0.009766,-0.990906,0.388794,0.462901,-0.176794,43,281,583,6016
1644178553.988871,-0.010559,0.007324,-0.993469,0.312458,0.462901,-0.085191,54,268,577,6048
1644178554.037293,-0.008179,0.012451,-0.990784,0.129252,0.294962,-0.25313,41,276,583,5984
1644178554.092353,-0.008789,0.011047,-0.990601,0.327725,0.386565,-0.115725,57,277,582,6016
1644178554.134102,-0.008911,0.009644,-0.993225,0.236122,0.386565,-0.130992,48,279,580,5936
1644178554.182435,-0.008972,0.008972,-0.993652,0.297191,0.478168,-0.192061,47,270,589,5984
1644178554.230819,-0.009338,0.011047,-0.992554,0.342992,0.478168,-0.115725,54,285,589,5952
1644178554.279205,-0.011047,0.010071,-0.992371,0.220855,0.356031,-0.008855,51,279,585,6016
1644178554.327591,-0.007629,0.012146,-0.993164,0.35826,0.417099,-0.069924,47,287,584,5936
1644178554.375997,-0.009583,0.00946,-0.991394,0.129252,0.386565,-0.192061,46,276,587,5952
1644178554.424382,-0.008728,0.010559,-0.993042,0.388794,0.462901,-0.130992,51,276,587,6000
1644178554.472817,-0.00885,0.009033,-0.991699,0.266656,0.493435,-0.14626,49,263,572,5984
1644178554.523019,-0.013245,0.009827,-0.99231,0.266656,0.371298,-0.100458,49,285,577,5984
1644178554.57333,-0.007568,0.011475,-0.992676,0.175053,0.371298,-0.130992,49,268,572,6016
1644178554.618488,-0.01123,0.00769,-0.992126,0.129252,0.371298,0.098015,52,277,579,6016
1644178554.714873,-0.008728,0.009033,-0.99469,0.220855,0.493435,-0.008855,49,280,591,6016
1644178554.76314,-0.00769,0.009949,-0.992371,0.205588,0.401832,-0.268397,38,280,577,6048
1644178554.811517,-0.00885,0.009521,-0.992432,0.144519,0.401832,-0.192061,40,265,582,6000
1644178554.859903,-0.010925,0.011047,-0.992859,0.159786,0.386565,-0.14626,43,274,571,5984
1644178554.908342,-0.007874,0.009033,-0.991516,0.144519,0.401832,0.006412,49,282,586,5952
1644178554.956728,-0.007629,0.008545,-0.993652,0.113985,0.325496,-0.176794,53,276,580,5984
1644178555.005174,-0.007874,0.008545,-0.991943,0.236122,0.447634,-0.161527,57,277,582,5984
1644178555.067846,-0.009155,0.009521,-0.993347,0.312458,0.417099,-0.268397,54,285,582,5904
1644178555.103754,-0.011536,0.010132,-0.990234,0.251389,0.417099,-0.237863,52,285,584,6000
1644178555.150296,-0.008728,0.008972,-0.991211,0.312458,0.432366,-0.008855,52,277,586,5984
1644178555.19869,-0.00946,0.009338,-0.992249,0.129252,0.462901,-0.039389,47,285,582,6016
1644178555.247059,-0.005676,0.009888,-0.990112,0.129252,0.432366,-0.054656,55,274,592,6000
1644178555.295466,-0.005188,0.008728,-0.993469,0.327725,0.340763,-0.085191,53,271,587,6016
1644178555.34387,-0.005249,0.010193,-0.991699,0.068183,0.294962,-0.237863,41,283,587,5984
1644178555.392281,-0.009644,0.006409,-0.994751,0.190321,0.401832,-0.024122,47,275,591,6016
1644178555.440653,-0.008606,0.009827,-0.991089,0.159786,0.371298,-0.176794,47,287,593,6000
1644178555.489377,-0.008911,0.009583,-0.991272,0.220855,0.356031,-0.207328,51,269,585,6000
1644178555.537457,-0.009705,0.01001,-0.990784,0.159786,0.417099,-0.054656,47,282,586,6016
1644178555.586425,-0.00946,0.00946,-0.996094,0.312458,0.401832,-0.069924,59,287,593,5984
1644178555.636711,-0.008911,0.009644,-0.990784,0.297191,0.386565,-0.069924,41,279,585,6016
1644178555.686947,-0.008972,0.011597,-0.993164,0.220855,0.447634,-0.176794,45,282,586,6000
1644178555.731352,-0.006714,0.009705,-0.993896,0.342992,0.356031,-0.161527,49,273,584,5984
1644178555.827783,-0.011414,0.008972,-0.991211,0.251389,0.539237,0.006412,48,276,583,6016
1644178555.876153,-0.008728,0.01178,-0.994019,0.312458,0.294962,-0.054656,57,275,591,5984
1644178555.924844,-0.009644,0.009705,-0.990845,0.159786,0.356031,-0.008855,57,287,586,5984
1644178555.973002,-0.008667,0.010986,-0.993652,0.327725,0.371298,-0.14626,40,282,579,5984
1644178556.021375,-0.010193,0.008057,-0.991943,0.236122,0.401832,-0.039389,51,274,580,6048
1644178556.072529,-0.008423,0.008362,-0.98877,0.266656,0.462901,-0.008855,54,282,584,6000
1644178556.118106,-0.010498,0.007629,-0.993652,0.129252,0.417099,-0.054656,54,268,586,5984
1644178556.166507,-0.011963,0.010376,-0.989868,0.251389,0.356031,-0.176794,47,282,591,6016
1644178556.214888,-0.009216,0.009888,-0.99176,0.236122,0.218626,0.036947,53,276,580,5952
1644178556.263263,-0.009827,0.009583,-0.992554,0.297191,0.432366,-0.008855,52,273,589,5952
1644178556.311665,-0.006592,0.004395,-0.990112,0.297191,0.24916,0.006412,54,270,582,6016
1644178556.36005,-0.010254,0.010681,-0.99292,0.190321,0.264427,-0.069924,54,268,591,6016
1644178556.408459,-0.009277,0.009155,-0.99176,0.297191,0.340763,-0.085191,58,279,594,5984
1644178556.456856,-0.009033,0.010925,-0.993896,0.312458,0.417099,-0.024122,46,283,585,6080
1644178556.505292,-0.010986,0.010315,-0.99115,0.144519,0.386565,-0.054656,52,268,577,6000
1644178556.553637,-0.008789,0.008972,-0.993774,0.373527,0.417099,-0.115725,54,275,584,5952
1644178556.601999,-0.011536,0.009766,-0.989868,0.236122,0.386565,-0.100458,51,279,592,5952
1644178556.650424,-0.009888,0.008606,-0.994263,0.144519,0.432366,0.021679,41,279,585,6048
1644178556.698809,-0.01123,0.008423,-0.994202,0.236122,0.386565,-0.14626,47,282,589,5984
1644178556.747594,-0.008911,0.009094,-0.992493,0.190321,0.432366,-0.100458,52,263,586,6048
1644178556.798503,-0.009033,0.011169,-0.990662,0.098718,0.539237,0.006412,52,280,579,6016
1644178556.849755,-0.00946,0.011414,-0.996094,0.342992,0.264427,-0.14626,52,275,598,6000
1644178556.893597,-0.009033,0.008789,-0.992065,0.281924,0.401832,-0.115725,55,271,590,5984
1644178556.989195,-0.008301,0.009521,-0.991455,0.297191,0.325496,-0.085191,54,277,579,6000
1644178557.037585,-0.011047,0.009155,-0.992737,0.159786,0.462901,-0.100458,57,270,577,5984
1644178557.086067,-0.007507,0.00824,-0.993164,0.190321,0.508702,-0.069924,52,280,589,6016
1644178557.134323,-0.012146,0.010437,-0.994263,0.159786,0.294962,-0.130992,47,263,584,6000
1644178557.182764,-0.00946,0.009155,-0.990234,0.297191,0.417099,-0.039389,53,279,585,6048
1644178557.231133,-0.010498,0.009521,-0.992737,0.113985,0.462901,-0.115725,47,280,589,5952
1644178557.279522,-0.008423,0.01001,-0.991882,0.144519,0.401832,-0.024122,45,270,593,6000
1644178557.327905,-0.010437,0.009277,-0.991028,0.175053,0.371298,-0.069924,55,283,585,5984
1644178557.376301,-0.009155,0.010681,-0.991089,0.373527,0.417099,0.021679,47,282,584,6016
1644178557.424712,-0.00946,0.011292,-0.990295,0.281924,0.24916,-0.069924,54,273,591,5952
1644178557.4731,-0.006897,0.010742,-0.993225,0.205588,0.554504,-0.161527,49,280,586,6000
1644178557.521479,-0.009583,0.010925,-0.989624,0.35826,0.493435,-0.039389,51,281,576,6000
1644178557.569866,-0.012512,0.011536,-0.992676,0.113985,0.462901,-0.024122,53,274,587,6000
1644178557.618263,-0.009216,0.006653,-0.99054,0.342992,0.447634,-0.25313,52,273,591,6000
1644178557.666654,-0.010315,0.013367,-0.99231,0.251389,0.233893,-0.024122,51,274,583,6048
1644178557.71508,-0.008667,0.007812,-0.99408,0.205588,0.569771,0.036947,48,281,594,6016
1644178557.763415,-0.007812,0.009033,-0.992126,0.205588,0.539237,-0.14626,58,271,587,6048
1644178557.811869,-0.008789,0.009888,-0.990356,0.281924,0.462901,-0.14626,51,276,587,6016
1644178557.860295,-0.008301,0.011902,-0.991943,0.373527,0.554504,-0.130992,46,279,590,6000
1644178557.910407,-0.010681,0.010742,-0.991943,0.373527,0.508702,-0.085191,49,268,572,6000
1644178557.960592,-0.008911,0.008423,-0.995911,0.190321,0.432366,0.006412,49,270,579,5984
1644178558.067371,-0.008545,0.00708,-0.988892,0.388794,0.432366,-0.008855,49,270,591,6064
1644178558.102402,-0.008484,0.009705,-0.992249,0.205588,0.508702,0.036947,59,275,582,6000
1644178558.150545,-0.010254,0.011108,-0.993408,0.159786,0.294962,-0.237863,53,281,590,5984
1644178558.198967,-0.00531,0.006104,-0.993286,0.342992,0.401832,-0.008855,47,277,582,6048
1644178558.247335,-0.009094,0.007385,-0.989746,0.312458,0.386565,-0.054656,53,266,578,6064
1644178558.295752,-0.008423,0.008484,-0.992371,0.251389,0.493435,0.082748,45,273,584,5952
1644178558.344156,-0.008606,0.006592,-0.990601,-0.008153,0.554504,-0.130992,54,270,596,6000
1644178558.392528,-0.007874,0.012573,-0.992493,0.266656,0.340763,-0.100458,54,277,586,5984
1644178558.440929,-0.01062,0.009888,-0.991577,0.113985,0.432366,-0.100458,49,280,579,6000
1644178558.48936,-0.010315,0.006775,-0.993103,0.144519,0.417099,-0.100458,47,277,586,6064
1644178558.537707,-0.009644,0.007629,-0.993225,0.312458,0.401832,-0.14626,43,279,578,6016
1644178558.586079,-0.007324,0.01123,-0.99292,0.190321,0.508702,0.006412,52,270,582,5984
1644178558.634642,-0.007385,0.008789,-0.992188,0.236122,0.493435,-0.176794,47,273,575,6016
1644178558.684347,-0.009766,0.007935,-0.993713,0.190321,0.371298,-0.161527,43,269,576,5952
1644178558.734683,-0.009521,0.009338,-0.993286,0.144519,0.386565,-0.161527,52,277,584,6000
1644178558.784992,-0.013245,0.009827,-0.989807,0.190321,0.523969,-0.008855,45,290,589,5952
1644178558.876476,-0.011902,0.010376,-0.993042,0.175053,0.432366,-0.161527,53,274,587,6048
1644178558.924938,-0.008606,0.01178,-0.99054,0.312458,0.386565,-0.024122,51,274,578,6048
1644178558.97328,-0.009094,0.008667,-0.992126,0.480397,0.508702,-0.176794,40,268,582,5984
1644178559.021665,-0.011658,0.007874,-0.993591,0.068183,0.310229,-0.176794,51,269,576,6016
1644178559.070127,-0.00824,0.009827,-0.992004,0.129252,0.386565,-0.039389,48,274,585,5952
1644178559.118451,-0.005798,0.011047,-0.990479,0.281924,0.462901,-0.176794,45,282,589,6048
1644178559.166815,-0.01062,0.008118,-0.992371,0.342992,0.386565,-0.207328,58,274,583,6016
1644178559.215187,-0.009094,0.010132,-0.993103,0.205588,0.523969,-0.100458,43,274,583,5984
1644178559.26359,-0.008057,0.010986,-0.992554,0.236122,0.432366,-0.024122,40,285,584,6016
1644178559.311982,-0.009705,0.002808,-0.992554,0.144519,0.615573,-0.130992,52,268,584,5936
1644178559.360377,-0.011414,0.010132,-0.992065,0.297191,0.432366,-0.054656,49,275,572,6000
1644178559.408777,-0.008972,0.00885,-0.989624,0.037649,0.401832,-0.176794,47,275,584,6080
1644178559.457159,-0.009583,0.009521,-0.991455,0.373527,0.310229,-0.054656,52,275,579,6016
1644178559.505536,-0.008667,0.007263,-0.992798,0.266656,0.279695,-0.115725,51,276,585,6048
1644178559.553952,-0.010803,0.01062,-0.993469,0.175053,0.493435,0.021679,51,276,590,6000
1644178559.602364,-0.009949,0.009277,-0.992493,0.159786,0.264427,-0.222595,51,266,590,5936
1644178559.650698,-0.010498,0.007874,-0.993591,0.175053,0.371298,-0.039389,40,270,579,6016
1644178559.699119,-0.009949,0.01001,-0.990601,0.236122,0.356031,-0.176794,49,282,589,6048
1644178559.747488,-0.01178,0.010681,-0.992554,0.327725,0.340763,0.036947,55,281,578,5984
1644178559.795949,-0.007568,0.007935,-0.990051,0.297191,0.325496,-0.069924,52,273,582,5984
1644178559.847287,-0.010132,0.013184,-0.990479,0.175053,0.356031,-0.085191,43,274,587,5984
1644178559.897499,-0.00708,0.010559,-0.990051,0.251389,0.371298,0.036947,59,265,593,6048
1644178559.941997,-0.006836,0.01123,-0.991028,0.144519,0.401832,-0.130992,52,273,577,6048
1644178560.037893,-0.008301,0.007324,-0.991638,0.236122,0.417099,-0.069924,46,271,587,5984
1644178560.086443,-0.008057,0.011536,-0.9953,0.190321,0.371298,0.021679,48,271,597,6016
1644178560.134696,-0.011658,0.008484,-0.994751,0.342992,0.264427,-0.207328,49,277,577,5984
1644178560.183032,-0.00708,0.010254,-0.994019,0.297191,0.523969,-0.100458,40,270,572,5952
1644178560.231418,-0.007935,0.010071,-0.994324,0.129252,0.539237,0.036947,48,283,583,6048
1644178560.279799,-0.009705,0.009583,-0.994019,0.205588,0.371298,-0.069924,48,276,583,5984
1644178560.328191,-0.007202,0.007935,-0.992371,0.312458,0.447634,-0.054656,42,280,589,6000
1644178560.376596,-0.010742,0.009888,-0.991516,0.159786,0.493435,-0.039389,53,293,578,5952
1644178560.425052,-0.007629,0.010315,-0.990784,0.297191,0.462901,-0.024122,48,281,578,6080
1644178560.473401,-0.009094,0.006592,-0.992493,0.297191,0.462901,0.067481,48,281,587,5984
1644178560.52178,-0.010376,0.010071,-0.990234,0.312458,0.310229,-0.054656,54,277,598,5984
1644178560.570177,-0.011169,0.010742,-0.992798,0.327725,0.386565,-0.024122,40,260,584,5952
1644178560.618565,-0.008362,0.008606,-0.992249,0.281924,0.401832,-0.115725,49,275,586,5952
1644178560.666951,-0.007935,0.008728,-0.991028,0.373527,0.233893,-0.085191,39,279,580,6000
1644178560.715347,-0.008179,0.008606,-0.99292,0.434595,0.401832,-0.14626,51,271,594,6048
1644178560.763746,-0.011475,0.009216,-0.992004,0.327725,0.371298,-0.161527,47,280,591,5984
1644178560.812188,-0.007751,0.009277,-0.991516,0.190321,0.386565,-0.085191,57,280,579,6000
1644178560.860571,-0.008118,0.009521,-0.989563,0.281924,0.24916,-0.100458,48,279,590,5984
1644178560.908954,-0.012268,0.006531,-0.991455,0.266656,0.462901,-0.130992,46,283,587,6048
1644178560.958542,-0.008179,0.008057,-0.992004,0.281924,0.371298,-0.115725,43,283,576,5984
1644178561.067751,-0.010254,0.010132,-0.992676,0.098718,0.432366,-0.161527,42,285,589,6080
1644178561.102616,-0.009888,0.009033,-0.991272,0.08345,0.294962,-0.130992,48,276,585,6000
1644178561.150911,-0.009216,0.010071,-0.991882,0.35826,0.325496,-0.237863,43,274,580,6048
1644178561.19927,-0.00885,0.012268,-0.990906,0.205588,0.401832,-0.14626,60,264,585,5984
1644178561.247641,-0.009216,0.009827,-0.992859,0.35826,0.279695,0.021679,45,277,593,6000
1644178561.296049,-0.010132,0.009399,-0.992798,0.327725,0.493435,-0.14626,45,275,593,6016
1644178561.344434,-0.010193,0.010132,-0.993164,0.175053,0.508702,0.006412,38,275,584,5984
1644178561.392858,-0.008423,0.008911,-0.989746,0.113985,0.386565,-0.207328,45,287,593,6080
1644178561.441237,-0.007568,0.009766,-0.993164,0.190321,0.432366,-0.192061,46,274,585,6016
1644178561.489653,-0.009155,0.009888,-0.990051,0.052916,0.462901,-0.008855,43,283,580,5936
1644178561.537989,-0.010254,0.008972,-0.992493,0.205588,0.417099,0.006412,51,274,576,5952
1644178561.586647,-0.009338,0.009277,-0.992004,0.35826,0.447634,-0.192061,53,264,590,5952
1644178561.634831,-0.007385,0.00946,-0.990417,0.144519,0.386565,-0.100458,42,275,579,6048
1644178561.684715,-0.007935,0.009705,-0.99054,0.251389,0.371298,-0.176794,51,271,583,5952
1644178561.735091,-0.009705,0.009399,-0.992065,0.159786,0.340763,-0.085191,51,281,590,6048
1644178561.780129,-0.009094,0.008545,-0.991943,0.434595,0.432366,-0.039389,54,277,577,5952
1644178561.876741,-0.007568,0.011169,-0.990479,0.281924,0.569771,-0.024122,51,283,576,5984
1644178561.925445,-0.006592,0.011353,-0.990906,0.175053,0.386565,-0.054656,54,270,593,5984
1644178561.973561,-0.007812,0.010315,-0.990967,0.205588,0.401832,-0.14626,57,277,591,6016
1644178562.021981,-0.010376,0.010254,-0.992554,0.113985,0.417099,0.021679,51,276,585,5984
1644178562.071078,-0.00708,0.010559,-0.991089,0.35826,0.539237,-0.176794,57,273,582,5952
1644178562.118725,-0.00708,0.009827,-0.991882,0.251389,0.508702,-0.085191,61,273,591,5936
1644178562.167166,-0.00885,0.01178,-0.992737,0.190321,0.493435,-0.024122,48,279,578,5904
1644178562.215513,-0.006714,0.011963,-0.990295,0.236122,0.371298,-0.100458,48,276,580,5952
1644178562.263884,-0.011047,0.008423,-0.99115,0.251389,0.371298,-0.069924,39,286,585,6000
1644178562.312396,-0.007141,0.011719,-0.988953,0.159786,0.310229,-0.008855,53,274,578,5984
1644178562.360687,-0.007812,0.008484,-0.992249,0.251389,0.371298,-0.054656,49,282,579,5952
1644178562.409076,-0.008484,0.009033,-0.991882,0.129252,0.264427,0.006412,45,270,582,5984
1644178562.457467,-0.008118,0.009583,-0.99115,0.205588,0.508702,-0.024122,51,271,592,6080
1644178562.505835,-0.00824,0.013123,-0.98999,0.327725,0.493435,-0.039389,48,269,585,6048
1644178562.554256,-0.007263,0.009033,-0.990601,0.312458,0.493435,-0.14626,48,279,573,6000
1644178562.602665,-0.007202,0.012573,-0.992004,0.098718,0.233893,-0.192061,53,271,580,6000
1644178562.651017,-0.00885,0.014099,-0.990356,0.327725,0.325496,-0.161527,46,264,585,6000
1644178562.69975,-0.007812,0.009766,-0.993042,0.373527,0.310229,-0.054656,48,279,583,6064
1644178562.748669,-0.008667,0.007996,-0.991943,0.236122,0.462901,-0.176794,48,274,583,6080
1644178562.799347,-0.008057,0.010742,-0.990112,0.205588,0.386565,-0.085191,46,279,590,5984
1644178562.850768,-0.0047,0.009705,-0.990967,0.129252,0.462901,-0.14626,53,288,573,6016
1644178562.941451,-0.009216,0.009705,-0.990906,0.297191,0.447634,-0.054656,42,280,582,6016
1644178562.989814,-0.011597,0.010132,-0.98877,0.159786,0.462901,0.006412,49,273,582,5984
1644178563.038214,-0.009338,0.006897,-0.990173,0.312458,0.340763,-0.085191,58,283,590,6000
1644178563.091508,-0.009033,0.009583,-0.991211,0.327725,0.447634,0.006412,51,276,592,6064
1644178563.135003,-0.007507,0.011414,-0.992981,0.342992,0.447634,-0.14626,46,281,590,6048
1644178563.183351,-0.008362,0.008423,-0.991516,0.236122,0.478168,0.082748,54,270,586,5952
1644178563.231713,-0.009216,0.008789,-0.99176,0.129252,0.462901,-0.039389,49,280,586,6048
1644178563.280108,-0.00885,0.011169,-0.991821,0.342992,0.493435,-0.039389,54,282,593,5984
1644178563.328532,-0.011169,0.008484,-0.994202,0.281924,0.356031,0.036947,48,283,583,5984
1644178563.37686,-0.008484,0.012085,-0.990723,0.251389,0.478168,-0.268397,42,277,584,5984
1644178563.425293,-0.005981,0.007202,-0.991272,0.327725,0.462901,-0.130992,47,287,570,6016
1644178563.47371,-0.008118,0.01178,-0.990479,0.251389,0.432366,-0.039389,54,275,591,5984
1644178563.522211,-0.009766,0.009094,-0.991333,0.236122,0.386565,-0.130992,48,276,587,6016
1644178563.570481,-0.008789,0.007202,-0.993774,0.190321,0.417099,-0.100458,55,286,583,5952
1644178563.618851,-0.008118,0.009155,-0.993591,0.297191,0.432366,-0.008855,47,270,593,6048
1644178563.667259,-0.005676,0.01178,-0.991943,0.068183,0.417099,-0.115725,48,279,597,6000
1644178563.715654,-0.010803,0.011475,-0.990662,0.159786,0.646107,-0.130992,54,285,586,5952
1644178563.764057,-0.00769,0.008423,-0.992798,0.266656,0.417099,-0.130992,58,276,587,6080
1644178563.81267,-0.008667,0.012756,-0.994324,0.129252,0.401832,-0.039389,49,268,584,5984
1644178563.862946,-0.008362,0.008545,-0.990662,0.236122,0.462901,-0.039389,54,275,577,6016
1644178563.913464,-0.007568,0.010437,-0.992249,0.251389,0.508702,-0.130992,42,277,579,6048
1644178563.957915,-0.007446,0.012512,-0.988098,0.190321,0.432366,-0.207328,43,276,576,5952
1644178564.069607,-0.007996,0.010681,-0.990417,0.190321,0.340763,-0.161527,47,282,579,6016
1644178564.105088,-0.007629,0.013611,-0.991394,0.098718,0.432366,-0.14626,49,285,586,6000
1644178564.151179,-0.008057,0.009216,-0.989075,0.175053,0.478168,-0.024122,45,273,591,6048
1644178564.199583,-0.009766,0.008911,-0.993286,0.190321,0.401832,-0.130992,54,277,591,6048
1644178564.247954,-0.01123,0.009827,-0.991211,0.08345,0.386565,-0.176794,48,274,578,5984
1644178564.29636,-0.009033,0.009888,-0.991089,0.144519,0.447634,-0.039389,41,271,583,5984
1644178564.344765,-0.009338,0.007874,-0.989319,0.251389,0.340763,-0.100458,47,275,589,6000
1644178564.393143,-0.009888,0.012695,-0.990967,0.113985,0.218626,-0.085191,53,269,592,5952
1644178564.441535,-0.010315,0.00946,-0.992554,0.236122,0.508702,-0.161527,48,286,583,6016
1644178564.489951,-0.007935,0.009766,-0.992432,0.144519,0.447634,-0.024122,36,283,590,6048
1644178564.538316,-0.007141,0.007507,-0.991211,0.190321,0.432366,-0.237863,49,268,589,5984
1644178564.587422,-0.009033,0.010376,-0.992676,0.068183,0.554504,-0.115725,52,280,589,6000
1644178564.636538,-0.009949,0.007507,-0.993347,0.281924,0.325496,-0.100458,38,275,579,5984
1644178564.686728,-0.007935,0.00824,-0.992615,0.205588,0.401832,-0.115725,51,283,580,6048
1644178564.73689,-0.009399,0.008789,-0.992859,0.236122,0.356031,-0.069924,43,271,592,5952
1644178564.828663,-0.011719,0.010681,-0.990601,0.297191,0.371298,-0.207328,54,275,582,5984
1644178564.877104,-0.009277,0.009827,-0.990723,0.175053,0.478168,-0.268397,47,275,593,5904
1644178564.92549,-0.008423,0.00885,-0.993408,0.144519,0.462901,-0.14626,49,277,591,6048
1644178564.973892,-0.008423,0.011353,-0.990295,0.190321,0.432366,-0.237863,53,279,583,5952
1644178565.022295,-0.00647,0.008789,-0.99176,0.175053,0.554504,-0.14626,49,280,589,5984
1644178565.070718,-0.009521,0.009399,-0.993347,0.342992,0.401832,-0.085191,48,281,585,5984
1644178565.119035,-0.011353,0.011597,-0.994995,0.327725,0.386565,0.006412,58,281,585,5984
1644178565.167422,-0.005615,0.011597,-0.991821,0.35826,0.539237,-0.115725,52,273,584,6048
1644178565.215813,-0.008728,0.009094,-0.993835,0.35826,0.310229,-0.14626,49,282,593,5984
1644178565.264186,-0.009888,0.008789,-0.990479,0.144519,0.340763,0.021679,55,276,592,5984
1644178565.312602,-0.008118,0.010559,-0.989319,0.266656,0.24916,0.052214,42,277,575,6000
1644178565.360994,-0.008545,0.009888,-0.990479,0.312458,0.478168,0.021679,47,285,582,6016
1644178565.409385,-0.011963,0.008789,-0.991638,0.144519,0.478168,-0.100458,52,277,584,5984
1644178565.457778,-0.01062,0.00946,-0.99353,0.236122,0.386565,-0.100458,53,266,580,6080
1644178565.506142,-0.006897,0.010376,-0.992676,0.220855,0.539237,-0.237863,53,276,590,5984
1644178565.554548,-0.009277,0.008789,-0.989868,0.312458,0.356031,-0.100458,46,283,592,5984
1644178565.602957,-0.007874,0.007385,-0.991516,0.175053,0.218626,-0.298931,45,275,586,5952
1644178565.651311,-0.010864,0.00946,-0.992615,0.281924,0.493435,-0.100458,46,271,594,6016
1644178565.700056,-0.009399,0.010193,-0.991211,0.281924,0.356031,-0.115725,42,280,586,5984
1644178565.749038,-0.007996,0.008057,-0.990234,0.220855,0.294962,-0.161527,52,270,582,5984
1644178565.800005,-0.008484,0.008423,-0.991882,0.159786,0.371298,-0.039389,61,277,584,6080
1644178565.850823,-0.00769,0.010742,-0.989197,0.098718,0.478168,-0.115725,47,277,593,6000
1644178565.941733,-0.008972,0.01062,-0.992737,0.266656,0.386565,-0.054656,53,281,587,6016
1644178565.990117,-0.012695,0.011108,-0.994263,0.190321,0.478168,-0.024122,52,277,582,5984
1644178566.038502,-0.008057,0.009094,-0.992188,0.159786,0.447634,0.082748,45,273,579,5984
1644178566.092648,-0.005066,0.009338,-0.996216,0.144519,0.417099,-0.115725,47,277,586,6000
1644178566.135368,-0.009033,0.010559,-0.993164,0.205588,0.417099,-0.069924,52,277,577,6000
1644178566.18368,-0.008728,0.012329,-0.991272,0.251389,0.401832,-0.207328,36,286,587,6016
1644178566.232046,-0.010742,0.009155,-0.993774,0.205588,0.356031,-0.14626,51,279,585,6000
1644178566.280414,-0.006958,0.007568,-0.993164,0.236122,0.386565,-0.100458,42,275,582,5952
1644178566.328834,-0.009521,0.010864,-0.992859,0.281924,0.523969,-0.085191,42,282,593,6064
1644178566.377192,-0.011414,0.007935,-0.994812,0.327725,0.478168,-0.192061,52,273,593,6048
1644178566.425617,-0.00885,0.009827,-0.993835,0.327725,0.340763,-0.024122,46,281,583,5904
1644178566.473987,-0.009155,0.008972,-0.992065,0.007115,0.401832,-0.115725,41,283,580,5984
1644178566.522724,-0.011292,0.010071,-0.991028,0.098718,0.294962,-0.222595,59,280,579,6000
1644178566.571661,-0.011475,0.011414,-0.991089,0.190321,0.432366,-0.085191,57,265,586,5984
1644178566.622179,-0.007324,0.009705,-0.990662,0.266656,0.340763,-0.115725,58,274,587,6080
1644178566.672749,-0.007751,0.006897,-0.992493,0.297191,0.478168,-0.039389,61,280,582,5984
1644178566.717629,-0.006226,0.008057,-0.990601,0.205588,0.417099,0.067481,51,269,587,5952
1644178566.812747,-0.011536,0.008789,-0.989075,0.144519,0.264427,-0.024122,55,271,585,6016
1644178566.861145,-0.009033,0.01001,-0.989807,0.281924,0.310229,-0.161527,52,268,582,5952
1644178566.909561,-0.009644,0.010376,-0.99353,0.129252,0.356031,-0.054656,41,281,585,6080
1644178566.957942,-0.00885,0.009583,-0.993347,0.144519,0.310229,-0.161527,51,283,587,6080
1644178567.006326,-0.008423,0.013,-0.990234,0.159786,0.401832,-0.054656,48,274,576,6048
1644178567.067155,-0.008362,0.007385,-0.9953,0.175053,0.401832,-0.008855,45,273,584,6000
1644178567.105297,-0.008301,0.008179,-0.991882,0.251389,0.401832,-0.085191,59,273,586,5984
1644178567.15154,-0.009155,0.007996,-0.990356,0.327725,0.371298,-0.115725,48,279,576,5984
1644178567.19989,-0.007996,0.007874,-0.994568,0.175053,0.432366,-0.14626,54,277,591,6000
1644178567.248291,-0.012451,0.01001,-0.991028,0.266656,0.462901,-0.085191,47,275,582,6000
1644178567.296675,-0.010559,0.007568,-0.992859,0.205588,0.356031,-0.100458,48,283,583,5952
