epoch,acc_x,acc_y,acc_z,rot_x,rot_y,rot_z,mag_x,mag_y,mag_z,temp
1644155400.041954,-0.013428,0.005981,-0.990784,0.266656,0.325496,-0.054656,51,269,573,4784
1644155400.095922,-0.008301,0.006348,-0.993896,0.35826,0.615573,0.036947,45,270,570,4848
1644155400.139721,-0.013611,0.007507,-0.995483,0.205588,0.356031,-0.237863,47,268,579,4832
1644155400.23542,-0.014404,0.008057,-0.992371,0.08345,0.325496,-0.039389,51,269,580,4816
1644155400.28384,-0.011414,0.007019,-0.992493,0.251389,0.478168,-0.054656,52,268,565,4784
1644155400.332225,-0.013184,0.008667,-0.991333,0.46513,0.462901,-0.115725,48,274,573,4784
1644155400.38063,-0.012024,0.008789,-0.993347,0.297191,0.386565,-0.100458,54,265,577,4784
1644155400.429018,-0.012451,0.006897,-0.991028,0.220855,0.386565,-0.176794,55,266,566,4720
1644155400.477385,-0.012756,0.00824,-0.994202,0.144519,0.432366,-0.008855,49,275,572,4720
1644155400.525774,-0.013794,0.007507,-0.992493,0.266656,0.417099,-0.054656,53,279,576,4784
1644155400.574162,-0.011963,0.008545,-0.992859,0.251389,0.417099,-0.161527,55,274,571,4784
1644155400.622561,-0.012451,0.007812,-0.993103,0.266656,0.371298,-0.176794,42,265,570,4784
1644155400.670961,-0.012451,0.00946,-0.990906,0.236122,0.523969,-0.130992,52,280,570,4784
1644155400.719296,-0.011047,0.009094,-0.995361,0.297191,0.493435,-0.024122,54,268,575,4784
1644155400.767691,-0.01178,0.005798,-0.99176,0.205588,0.432366,-0.039389,51,271,576,4720
1644155400.816121,-0.013916,0.009277,-0.990967,0.251389,0.417099,-0.115725,49,282,568,4784
1644155400.864564,-0.010803,0.005798,-0.994812,0.35826,0.523969,-0.237863,41,271,569,4704
1644155400.912941,-0.012085,0.010315,-0.993042,0.220855,0.24916,-0.008855,54,258,570,4784
1644155400.961331,-0.01123,0.008972,-0.992249,0.220855,0.508702,-0.054656,54,265,579,4832
1644155401.009654,-0.012512,0.006104,-0.992249,0.236122,0.63084,-0.024122,48,266,573,4848
1644155401.065484,-0.014954,0.008911,-0.992126,0.251389,0.447634,-0.192061,47,282,568,4784
1644155401.106477,-0.013977,0.011108,-0.990295,0.297191,0.356031,-0.100458,45,282,565,4752
1644155401.154989,-0.012085,0.006897,-0.99292,0.113985,0.294962,-0.054656,53,281,566,4768
1644155401.203194,-0.011292,0.009216,-0.992554,0.236122,0.371298,-0.039389,49,277,563,4784
1644155401.25291,-0.013794,0.008911,-0.992798,0.220855,0.462901,-0.085191,52,273,575,4816
1644155401.300593,-0.012085,0.007324,-0.992798,0.342992,0.386565,0.006412,41,269,564,4720
1644155401.396699,-0.014038,0.009399,-0.992737,0.175053,0.386565,-0.100458,47,275,577,4832
1644155401.445158,-0.013245,0.009033,-0.993347,0.35826,0.447634,-0.176794,45,275,568,4720
1644155401.493484,-0.013977,0.008667,-0.993896,0.175053,0.462901,-0.100458,47,285,570,4816
1644155401.541902,-0.015137,0.005432,-0.996277,0.251389,0.371298,-0.024122,48,266,562,4784
1644155401.590309,-0.012207,0.006409,-0.990112,0.266656,0.432366,-0.176794,42,275,568,4816
1644155401.638673,-0.011414,0.009827,-0.99292,0.327725,0.417099,-0.176794,55,274,562,4720
1644155401.687042,-0.012756,0.009705,-0.993835,0.220855,0.417099,-0.069924,49,268,568,4880
1644155401.735464,-0.011841,0.010132,-0.992126,0.220855,0.340763,-0.161527,48,264,571,4784
1644155401.783859,-0.010559,0.006958,-0.992737,0.342992,0.508702,-0.161527,55,271,564,4784
1644155401.832206,-0.010925,0.007385,-0.992188,0.388794,0.432366,-0.176794,51,283,569,4720
1644155401.8807,-0.010681,0.00885,-0.993958,0.159786,0.401832,-0.222595,42,275,572,4784
1644155401.929054,-0.011169,0.008179,-0.99469,0.297191,0.447634,0.006412,48,276,562,4816
1644155401.977449,-0.010376,0.008789,-0.991028,0.388794,0.356031,-0.237863,45,285,565,4768
1644155402.02576,-0.010437,0.007812,-0.991272,0.251389,0.325496,-0.161527,39,269,564,4720
1644155402.08491,-0.012024,0.00708,-0.990601,0.113985,0.508702,-0.085191,54,277,570,4848
1644155402.12259,-0.01239,0.008667,-0.992432,0.266656,0.294962,0.006412,52,265,563,4784
1644155402.170952,-0.011902,0.007507,-0.995117,0.175053,0.462901,-0.100458,39,271,571,4720
1644155402.219452,-0.015137,0.008606,-0.992249,0.281924,0.340763,-0.176794,51,274,573,4784
1644155402.270169,-0.01123,0.006897,-0.993896,0.342992,0.371298,-0.115725,47,285,563,4720
1644155402.317347,-0.011536,0.008118,-0.993103,0.175053,0.401832,-0.161527,48,271,573,4816
1644155402.412903,-0.012268,0.010071,-0.992371,0.266656,0.569771,-0.085191,46,271,571,4720
1644155402.46126,-0.012756,0.005005,-0.992493,0.175053,0.386565,-0.039389,47,268,572,4784
1644155402.509657,-0.01062,0.009094,-0.994568,0.251389,0.401832,-0.069924,43,264,576,4672
1644155402.558053,-0.011292,0.007935,-0.991516,0.281924,0.63084,-0.008855,48,274,576,4784
1644155402.606409,-0.013184,0.007812,-0.993225,0.236122,0.401832,-0.207328,45,268,561,4720
1644155402.654815,-0.013184,0.007874,-0.991394,0.007115,0.508702,-0.115725,55,274,569,4784
1644155402.703244,-0.012756,0.008057,-0.992126,0.35826,0.356031,-0.192061,46,262,564,4720
1644155402.751622,-0.009888,0.006104,-0.989014,0.220855,0.371298,-0.130992,40,270,563,4720
1644155402.800008,-0.012573,0.008789,-0.994385,0.220855,0.447634,-0.008855,48,279,569,4720
1644155402.848402,-0.009583,0.00531,-0.992249,0.312458,0.447634,-0.054656,54,277,568,4848
1644155402.896791,-0.010742,0.008545,-0.991516,0.419328,0.417099,-0.176794,46,269,573,4816
1644155402.945287,-0.01062,0.011353,-0.992676,0.35826,0.401832,-0.115725,46,279,571,4672
1644155402.993573,-0.011719,0.007874,-0.991516,0.236122,0.432366,-0.115725,45,273,563,4816
1644155403.041927,-0.013062,0.00824,-0.993896,0.266656,0.447634,-0.024122,51,276,571,4672
1644155403.09029,-0.012695,0.009155,-0.994324,0.342992,0.432366,-0.14626,53,271,576,4816
1644155403.138706,-0.013,0.008179,-0.992493,0.236122,0.203359,-0.069924,52,275,565,4832
1644155403.187107,-0.012512,0.008484,-0.99353,0.236122,0.325496,-0.222595,47,265,577,4784
1644155403.235494,-0.014282,0.010376,-0.992859,0.037649,0.401832,-0.222595,46,269,573,4816
1644155403.283852,-0.011658,0.005615,-0.992981,0.419328,0.493435,-0.069924,48,276,576,4720
1644155403.332264,-0.010132,0.007141,-0.992126,0.205588,0.401832,-0.130992,51,266,569,4720
1644155403.381446,-0.015381,0.00769,-0.994995,0.327725,0.478168,-0.054656,51,274,571,4784
1644155403.43159,-0.011658,0.007568,-0.99231,0.144519,0.432366,-0.054656,47,273,570,4816
1644155403.478964,-0.010559,0.006775,-0.990784,0.373527,0.432366,-0.008855,42,265,563,4784
1644155403.57417,-0.011597,0.009888,-0.992859,0.236122,0.340763,-0.222595,51,274,559,4720
1644155403.622561,-0.014526,0.006226,-0.992737,0.113985,0.462901,-0.085191,51,274,569,4720
1644155403.670972,-0.011841,0.010559,-0.993347,0.297191,0.386565,-0.207328,46,288,569,4784
1644155403.719318,-0.010315,0.007324,-0.99054,0.220855,0.447634,-0.039389,52,273,563,4720
1644155403.767704,-0.012207,0.006531,-0.990051,0.220855,0.493435,-0.237863,59,265,568,4784
1644155403.816103,-0.009949,0.00769,-0.991699,0.251389,0.356031,-0.115725,48,281,559,4720
1644155403.864524,-0.013794,0.00885,-0.994812,0.373527,0.493435,-0.14626,45,277,565,4784
1644155403.912906,-0.008301,0.01001,-0.992981,0.144519,0.340763,-0.085191,57,282,563,4784
1644155403.961282,-0.010925,0.009216,-0.991455,0.281924,0.417099,0.006412,51,274,562,4848
1644155404.009669,-0.014038,0.008972,-0.992432,0.098718,0.386565,-0.085191,52,285,572,4720
1644155404.065401,-0.011169,0.010254,-0.992737,0.236122,0.462901,-0.024122,45,280,568,4752
1644155404.10645,-0.009888,0.010193,-0.990417,0.08345,0.447634,-0.115725,42,270,565,4880
1644155404.1549,-0.013306,0.00946,-0.991638,0.297191,0.462901,-0.314198,47,277,565,4816
1644155404.203226,-0.013,0.007507,-0.993103,0.312458,0.386565,-0.039389,53,269,569,4752
1644155404.2516,-0.012817,0.008606,-0.993896,0.144519,0.310229,-0.085191,45,277,575,4752
1644155404.299993,-0.009949,0.007874,-0.994019,0.35826,0.478168,0.021679,38,277,575,4848
1644155404.34839,-0.013062,0.009338,-0.991333,0.175053,0.539237,-0.008855,47,258,568,4816
1644155404.396774,-0.013977,0.01062,-0.992981,0.236122,0.386565,-0.115725,47,277,563,4784
1644155404.445226,-0.014099,0.01178,-0.992004,0.220855,0.386565,-0.161527,46,262,566,4816
1644155404.493492,-0.012756,0.008484,-0.991943,0.190321,0.401832,-0.192061,48,269,573,4816
1644155404.542747,-0.010864,0.008362,-0.991699,0.266656,0.523969,-0.008855,42,277,570,4720
1644155404.592848,-0.011658,0.010742,-0.992432,0.220855,0.325496,-0.069924,52,265,565,4848
1644155404.687135,-0.012634,0.007446,-0.993164,0.236122,0.356031,-0.008855,45,277,568,4832
1644155404.735457,-0.010681,0.008118,-0.993591,0.113985,0.523969,-0.14626,52,273,568,4768
1644155404.783844,-0.011658,0.008667,-0.991211,0.297191,0.478168,-0.054656,41,271,562,4720
1644155404.832237,-0.011047,0.008728,-0.992493,0.190321,0.493435,-0.054656,55,281,571,4816
1644155404.880651,-0.011597,0.009094,-0.991821,0.205588,0.615573,-0.130992,51,264,564,4784
1644155404.929037,-0.014099,0.009766,-0.993103,0.373527,0.554504,-0.14626,55,274,564,4784
1644155404.977376,-0.013367,0.008362,-0.99408,0.159786,0.508702,-0.024122,45,280,572,4768
1644155405.025769,-0.012878,0.010803,-0.990906,0.312458,0.371298,-0.054656,51,269,571,4848
1644155405.074218,-0.013733,0.009949,-0.992859,0.266656,0.432366,-0.14626,52,277,572,4816
1644155405.122544,-0.008667,0.009705,-0.991516,0.312458,0.386565,-0.130992,54,275,579,4816
1644155405.170908,-0.010132,0.005066,-0.993103,0.205588,0.417099,-0.100458,48,279,573,4784
1644155405.219289,-0.011047,0.010559,-0.994446,0.312458,0.432366,-0.115725,64,263,577,4816
1644155405.267666,-0.011658,0.008789,-0.991821,0.236122,0.417099,0.098015,45,268,572,4784
1644155405.316063,-0.012146,0.006653,-0.991516,0.266656,0.447634,-0.268397,45,273,563,4784
1644155405.364474,-0.012756,0.009644,-0.991638,0.495664,0.325496,0.067481,47,282,575,4672
1644155405.412863,-0.009216,0.010193,-0.991943,0.236122,0.371298,-0.085191,48,274,583,4848
1644155405.461238,-0.012207,0.008484,-0.994324,0.190321,0.508702,0.006412,55,266,573,4816
1644155405.509595,-0.014404,0.011536,-0.992188,0.266656,0.401832,0.006412,45,280,582,4816
1644155405.558011,-0.010376,0.006836,-0.992188,0.236122,0.417099,-0.069924,52,277,575,4784
1644155405.606518,-0.015747,0.008484,-0.992493,0.236122,0.478168,-0.14626,42,275,577,4784
1644155405.654786,-0.01239,0.007812,-0.992249,0.327725,0.356031,-0.130992,57,265,577,4768
1644155405.704645,-0.014038,0.010864,-0.992371,0.220855,0.432366,-0.115725,46,274,569,4784
1644155405.752262,-0.010254,0.009155,-0.993774,0.297191,0.493435,-0.008855,53,274,559,4720
1644155405.848344,-0.011658,0.009399,-0.99231,0.312458,0.600305,-0.176794,46,274,569,4848
1644155405.896759,-0.011902,0.010986,-0.992859,0.281924,0.432366,-0.069924,48,279,571,4784
1644155405.945191,-0.012146,0.00824,-0.994995,0.236122,0.447634,-0.008855,45,273,558,4720
1644155405.993522,-0.012146,0.010498,-0.994751,0.312458,0.24916,-0.024122,53,279,562,4848
1644155406.041884,-0.012268,0.00708,-0.993225,0.373527,0.432366,-0.008855,48,276,564,4832
1644155406.092405,-0.013,0.010193,-0.99054,0.220855,0.386565,-0.024122,48,281,571,4720
1644155406.138655,-0.011597,0.009705,-0.991699,0.220855,0.478168,-0.054656,45,270,563,4816
1644155406.187051,-0.014221,0.007446,-0.994507,0.205588,0.493435,-0.115725,43,276,569,4816
1644155406.235403,-0.015137,0.008545,-0.993042,0.281924,0.417099,-0.14626,43,283,566,4752
1644155406.283796,-0.011719,0.007751,-0.993469,0.404061,0.462901,-0.130992,55,276,573,4720
1644155406.332202,-0.014648,0.007996,-0.992981,0.190321,0.447634,-0.237863,45,273,568,4880
1644155406.380589,-0.01239,0.009705,-0.99231,0.159786,0.401832,-0.161527,52,263,563,4720
1644155406.428962,-0.011963,0.008972,-0.989929,0.297191,0.264427,-0.14626,49,285,575,4784
1644155406.477351,-0.007629,0.007996,-0.99176,0.236122,0.294962,-0.024122,51,276,569,4816
1644155406.525739,-0.01062,0.007935,-0.990417,0.266656,0.294962,-0.115725,43,279,566,4816
1644155406.574115,-0.012573,0.008911,-0.993347,0.220855,0.279695,-0.130992,51,271,569,4720
1644155406.622875,-0.010071,0.010193,-0.990662,0.251389,0.478168,-0.130992,48,271,566,4848
1644155406.672998,-0.010742,0.009705,-0.993408,0.175053,0.417099,-0.024122,47,270,572,4672
1644155406.767652,-0.010498,0.009827,-0.990662,0.449863,0.554504,-0.085191,47,280,570,4768
1644155406.816041,-0.012512,0.007874,-0.992737,0.190321,0.554504,-0.176794,55,269,557,4768
1644155406.864455,-0.012512,0.010315,-0.991394,0.281924,0.340763,-0.161527,45,275,561,4848
1644155406.9129,-0.009155,0.005554,-0.99292,0.251389,0.462901,-0.25313,51,274,564,4848
1644155406.96126,-0.013,0.009155,-0.991577,0.35826,0.386565,-0.054656,49,270,570,4816
1644155407.009629,-0.010437,0.007507,-0.993408,0.419328,0.386565,-0.054656,46,276,559,4784
1644155407.064149,-0.014099,0.012329,-0.994812,0.419328,0.462901,-0.069924,46,281,566,4832
1644155407.106385,-0.015442,0.005615,-0.993713,0.266656,0.462901,-0.192061,52,280,570,4672
1644155407.154979,-0.013245,0.007751,-0.990967,0.236122,0.462901,-0.192061,41,269,569,4704
1644155407.203178,-0.012085,0.011292,-0.990417,0.251389,0.340763,-0.14626,47,273,565,4784
1644155407.251542,-0.011047,0.010254,-0.991089,0.190321,0.462901,-0.008855,45,273,565,4816
1644155407.299936,-0.009338,0.009094,-0.992126,0.266656,0.478168,-0.161527,51,274,559,4784
1644155407.348326,-0.012207,0.00592,-0.994873,0.08345,0.401832,-0.100458,59,270,563,4784
1644155407.396703,-0.015015,0.009705,-0.992432,0.205588,0.432366,-0.069924,49,270,563,4784
1644155407.44513,-0.013123,0.009399,-0.992188,0.251389,0.24916,-0.008855,45,270,577,4784
1644155407.493452,-0.012451,0.011658,-0.993652,0.297191,0.508702,-0.192061,48,271,573,4768
1644155407.541834,-0.013062,0.00354,-0.989868,0.129252,0.432366,-0.130992,48,274,576,4720
1644155407.590248,-0.012817,0.01062,-0.991394,0.190321,0.539237,-0.115725,54,270,579,4784
1644155407.638632,-0.013245,0.00824,-0.99231,0.297191,0.356031,-0.14626,49,268,570,4752
1644155407.686981,-0.01001,0.011353,-0.992554,0.281924,0.371298,-0.207328,55,271,571,4752
1644155407.735492,-0.012451,0.010742,-0.994629,0.220855,0.462901,-0.100458,51,279,576,4784
1644155407.785819,-0.012207,0.006592,-0.989441,0.342992,0.417099,-0.100458,53,266,569,4784
1644155407.880589,-0.011841,0.008362,-0.989746,0.342992,0.523969,-0.069924,52,282,568,4848
1644155407.929016,-0.013,0.010132,-0.993958,0.205588,0.340763,-0.069924,57,280,565,4720
1644155407.977377,-0.012085,0.008301,-0.993408,0.281924,0.356031,-0.192061,49,282,568,4784
1644155408.025759,-0.012268,0.009766,-0.992126,0.312458,0.508702,-0.085191,54,273,572,4784
1644155408.075314,-0.013367,0.008545,-0.990417,0.129252,0.386565,0.006412,57,280,577,4816
1644155408.12253,-0.013,0.008118,-0.993347,0.251389,0.401832,-0.069924,49,265,575,4768
1644155408.170881,-0.014099,0.008972,-0.991882,0.205588,0.447634,-0.298931,53,274,569,4720
1644155408.219297,-0.01239,0.006104,-0.993835,0.281924,0.417099,-0.085191,49,270,568,4784
1644155408.267624,-0.011108,0.010681,-0.991638,0.35826,0.371298,-0.283664,57,280,572,4720
1644155408.316042,-0.012878,0.007629,-0.990112,0.327725,0.523969,-0.024122,42,282,572,4720
1644155408.364447,-0.013611,0.008423,-0.99054,0.312458,0.432366,-0.130992,57,275,577,4784
1644155408.41282,-0.011353,0.008667,-0.99176,0.190321,0.478168,-0.054656,53,269,566,4768
1644155408.461196,-0.012634,0.008789,-0.993408,0.327725,0.493435,-0.130992,48,274,569,4816
1644155408.509577,-0.011353,0.007629,-0.99408,0.419328,0.386565,-0.161527,45,277,579,4672
1644155408.557959,-0.014099,0.010864,-0.993774,0.373527,0.478168,-0.237863,45,270,570,4816
1644155408.606378,-0.009521,0.00885,-0.991455,0.281924,0.554504,0.082748,47,275,561,4784
1644155408.654755,-0.012451,0.011841,-0.993164,0.205588,0.478168,0.021679,52,270,575,4784
1644155408.703155,-0.010254,0.007935,-0.993835,0.175053,0.569771,-0.024122,48,276,576,4784
1644155408.751496,-0.013916,0.008301,-0.993164,0.312458,0.432366,-0.085191,59,265,572,4784
1644155408.799901,-0.010559,0.007324,-0.996216,0.144519,0.478168,-0.161527,49,265,570,4784
1644155408.848838,-0.010803,0.010315,-0.990967,0.281924,0.417099,-0.100458,47,277,568,4720
1644155408.899281,-0.009949,0.005493,-0.994202,0.281924,0.447634,-0.130992,52,275,563,4704
1644155408.947141,-0.012024,0.007629,-0.992126,0.144519,0.340763,-0.14626,51,274,569,4816
1644155409.041842,-0.01001,0.010986,-0.992676,0.129252,0.478168,0.021679,51,283,571,4704
1644155409.091237,-0.011597,0.008972,-0.992493,0.129252,0.554504,-0.069924,45,273,568,4656
1644155409.13863,-0.012207,0.008484,-0.990417,0.266656,0.493435,-0.130992,45,275,568,4720
1644155409.186987,-0.012085,0.007935,-0.990051,0.220855,0.432366,-0.176794,52,273,565,4784
1644155409.2354,-0.010498,0.009033,-0.993347,0.342992,0.63084,-0.161527,52,270,575,4848
1644155409.283772,-0.01178,0.006775,-0.992737,0.266656,0.600305,-0.14626,45,280,570,4720
1644155409.332182,-0.010803,0.008545,-0.990967,0.236122,0.386565,-0.130992,51,266,569,4784
1644155409.380515,-0.009766,0.008362,-0.991028,0.388794,0.417099,-0.207328,51,271,564,4784
1644155409.428941,-0.010254,0.008911,-0.993652,0.404061,0.325496,-0.115725,41,281,573,4848
1644155409.477332,-0.013306,0.009216,-0.993652,0.281924,0.478168,0.006412,51,266,571,4816
1644155409.525736,-0.009338,0.006287,-0.991699,0.251389,0.447634,-0.069924,46,264,573,4784
1644155409.574097,-0.01239,0.008789,-0.992371,0.327725,0.371298,-0.161527,51,271,576,4720
1644155409.622503,-0.014343,0.01123,-0.990784,0.266656,0.371298,-0.024122,45,277,570,4784
1644155409.670892,-0.012512,0.010803,-0.993286,0.297191,0.432366,-0.161527,47,282,565,4784
1644155409.719283,-0.010193,0.01001,-0.995789,0.220855,0.340763,-0.115725,49,277,570,4784
1644155409.767659,-0.010254,0.007751,-0.993591,0.281924,0.401832,-0.100458,52,277,575,4848
1644155409.816056,-0.012451,0.008118,-0.991577,0.281924,0.447634,-0.100458,51,276,566,4704
1644155409.864483,-0.012268,0.006897,-0.992249,0.281924,0.508702,-0.115725,49,277,577,4816
1644155409.912885,-0.008362,0.007385,-0.990967,0.373527,0.325496,-0.115725,52,270,575,4784
1644155409.961216,-0.00946,0.00647,-0.990112,0.190321,0.432366,-0.100458,42,275,572,4768
1644155410.064968,-0.01123,0.009094,-0.994507,0.175053,0.279695,0.098015,49,275,565,4720
1644155410.10638,-0.014709,0.007263,-0.990601,0.144519,0.371298,-0.024122,53,279,573,4784
1644155410.154769,-0.012329,0.007141,-0.993774,0.159786,0.447634,-0.237863,51,264,583,4816
1644155410.203183,-0.014771,0.008789,-0.992737,0.266656,0.493435,-0.054656,47,275,575,4816
1644155410.251557,-0.009888,0.010437,-0.992554,0.175053,0.401832,-0.14626,55,276,578,4784
1644155410.299947,-0.012695,0.007996,-0.991699,0.297191,0.432366,-0.069924,45,277,572,4784
1644155410.348336,-0.011719,0.00885,-0.98938,0.342992,0.371298,-0.115725,39,264,580,4832
1644155410.396717,-0.007812,0.008667,-0.993103,0.159786,0.462901,-0.207328,59,273,565,4848
1644155410.445149,-0.013245,0.008667,-0.992249,0.281924,0.401832,-0.161527,41,269,578,4752
1644155410.493469,-0.012207,0.007568,-0.991577,0.327725,0.340763,0.159084,52,270,568,4784
1644155410.541891,-0.012329,0.010254,-0.990662,0.297191,0.417099,-0.100458,47,270,570,4784
1644155410.590233,-0.012939,0.011414,-0.992859,0.281924,0.279695,-0.130992,47,277,572,4816
1644155410.638613,-0.01178,0.009094,-0.992004,0.281924,0.462901,-0.054656,49,273,570,4768
1644155410.687049,-0.016357,0.009521,-0.991882,0.327725,0.539237,-0.069924,48,269,571,4832
1644155410.735427,-0.014038,0.007385,-0.992554,0.08345,0.386565,0.036947,54,268,575,4784
1644155410.783803,-0.011536,0.008789,-0.990173,0.388794,0.356031,-0.161527,36,279,573,4720
1644155410.832198,-0.009705,0.007141,-0.991211,0.175053,0.493435,-0.130992,54,273,565,4848
1644155410.881894,-0.011902,0.010071,-0.99176,0.297191,0.310229,-0.024122,52,280,575,4784
1644155410.92938,-0.009705,0.004883,-0.991821,0.281924,0.585038,0.006412,43,281,578,4784
1644155411.025727,-0.01178,0.010925,-0.991455,0.190321,0.417099,-0.115725,42,273,575,4720
1644155411.074187,-0.010864,0.010071,-0.99292,0.113985,0.401832,-0.100458,51,274,587,4784
1644155411.12253,-0.012512,0.00946,-0.990356,0.266656,0.340763,-0.115725,51,269,555,4720
1644155411.170924,-0.013367,0.012329,-0.988403,0.190321,0.264427,0.021679,57,280,568,4672
1644155411.219276,-0.010803,0.007874,-0.99115,0.236122,0.508702,-0.069924,52,265,565,4832
1644155411.267616,-0.013245,0.010864,-0.991394,0.129252,0.203359,-0.115725,46,259,573,4768
1644155411.316035,-0.010986,0.009888,-0.992004,0.327725,0.478168,-0.039389,41,266,576,4880
1644155411.364438,-0.010254,0.012817,-0.991089,0.480397,0.401832,0.036947,43,271,566,4816
1644155411.412804,-0.010071,0.008972,-0.990112,0.342992,0.493435,-0.161527,51,274,562,4784
1644155411.461236,-0.011902,0.012451,-0.993042,0.236122,0.447634,-0.085191,45,270,570,4784
1644155411.509579,-0.008301,0.010437,-0.991211,0.236122,0.386565,0.021679,40,273,568,4816
1644155411.558017,-0.012024,0.009949,-0.988892,0.236122,0.279695,-0.054656,47,268,570,4720
1644155411.606335,-0.010986,0.00824,-0.990723,0.373527,0.325496,-0.069924,47,275,570,4816
1644155411.654777,-0.01001,0.009521,-0.993408,0.022382,0.432366,-0.222595,48,276,573,4816
1644155411.703166,-0.012817,0.008911,-0.991516,0.297191,0.386565,-0.069924,42,277,565,4848
1644155411.751505,-0.00946,0.012329,-0.99292,0.281924,0.432366,-0.008855,46,274,566,4816
1644155411.799912,-0.013245,0.008057,-0.989624,0.266656,0.340763,-0.161527,53,271,576,4784
1644155411.848303,-0.014648,0.010315,-0.993469,0.342992,0.554504,0.021679,42,275,568,4816
1644155411.897282,-0.009827,0.006531,-0.992615,0.266656,0.432366,-0.25313,64,270,572,4784
1644155411.947441,-0.013123,0.009766,-0.99231,0.205588,0.340763,-0.192061,47,265,575,4672
1644155411.995064,-0.010376,0.012573,-0.992004,0.35826,0.386565,-0.161527,48,271,571,4784
1644155412.090975,-0.013306,0.010132,-0.992615,0.159786,0.356031,-0.054656,43,274,564,4832
1644155412.138573,-0.009338,0.009033,-0.996277,0.236122,0.462901,-0.069924,49,268,568,4848
1644155412.186986,-0.011658,0.009216,-0.996277,0.297191,0.462901,0.021679,54,273,561,4784
1644155412.235349,-0.011047,0.007751,-0.989624,0.404061,0.371298,-0.192061,57,280,565,4784
1644155412.283736,-0.009766,0.008667,-0.993591,0.098718,0.401832,-0.161527,53,281,564,4704
1644155412.332161,-0.014709,0.010742,-0.99115,0.312458,0.401832,-0.161527,52,275,575,4720
1644155412.380553,-0.009094,0.008301,-0.991211,0.266656,0.340763,-0.024122,54,273,572,4720
1644155412.428949,-0.008789,0.008667,-0.9953,0.281924,0.554504,-0.207328,60,266,573,4784
1644155412.477317,-0.00946,0.011353,-0.992249,0.388794,0.401832,-0.085191,41,274,571,4784
1644155412.525659,-0.012329,0.010315,-0.99231,0.312458,0.493435,-0.207328,49,275,568,4720
1644155412.57408,-0.010681,0.008789,-0.990417,0.312458,0.447634,-0.054656,51,276,564,4784
1644155412.622467,-0.008789,0.009338,-0.991577,0.419328,0.371298,-0.192061,52,260,563,4720
1644155412.670862,-0.010925,0.011353,-0.990417,0.434595,0.371298,-0.115725,62,274,569,4832
1644155412.719249,-0.010742,0.010376,-0.992493,0.434595,0.371298,-0.008855,49,268,570,4720
1644155412.767626,-0.01123,0.009644,-0.989136,0.251389,0.401832,-0.054656,60,266,569,4752
1644155412.816038,-0.012634,0.009277,-0.99408,0.205588,0.325496,-0.192061,48,269,573,4720
1644155412.864423,-0.009949,0.010986,-0.992126,0.281924,0.218626,-0.130992,55,279,573,4784
1644155412.912864,-0.010681,0.00824,-0.992676,0.297191,0.447634,-0.085191,47,273,570,4784
1644155412.961227,-0.012878,0.009827,-0.991882,0.342992,0.447634,-0.115725,39,271,578,4720
1644155413.06564,-0.009644,0.010681,-0.991638,0.297191,0.417099,-0.008855,49,273,570,4784
1644155413.106346,-0.011475,0.007568,-0.993774,0.190321,0.462901,-0.115725,51,269,576,4816
1644155413.154786,-0.010864,0.007935,-0.989441,0.312458,0.478168,-0.085191,54,270,568,4816
1644155413.203172,-0.010986,0.009216,-0.991516,0.297191,0.462901,-0.008855,53,281,566,4784
1644155413.251534,-0.008484,0.010437,-0.993774,0.251389,0.432366,-0.176794,52,280,568,4848
1644155413.299897,-0.008728,0.009949,-0.993408,0.312458,0.417099,-0.130992,51,271,573,4784
1644155413.348285,-0.01123,0.008301,-0.99292,0.281924,0.340763,0.113282,42,277,572,4720
1644155413.396701,-0.012512,0.008057,-0.991394,0.236122,0.539237,-0.085191,42,282,579,4784
1644155413.44515,-0.01062,0.011597,-0.995667,0.266656,0.523969,-0.008855,51,274,576,4816
1644155413.493453,-0.011353,0.011353,-0.990112,0.236122,0.569771,-0.008855,49,280,568,4752
1644155413.541866,-0.012573,0.00885,-0.990967,0.129252,0.401832,-0.039389,49,268,568,4720
1644155413.590255,-0.015503,0.010376,-0.991211,0.190321,0.340763,-0.054656,43,274,576,4768
1644155413.638639,-0.010437,0.008362,-0.990173,0.037649,0.447634,-0.130992,54,263,577,4784
1644155413.687017,-0.014526,0.009216,-0.991821,0.236122,0.432366,0.021679,54,273,575,4784
1644155413.73541,-0.011963,0.00946,-0.990479,0.281924,0.371298,-0.100458,39,281,571,4720
1644155413.783756,-0.009766,0.007812,-0.991943,0.129252,0.462901,-0.130992,47,273,565,4832
1644155413.832291,-0.010559,0.009277,-0.992798,0.251389,0.340763,-0.008855,53,271,578,4816
1644155413.882581,-0.014038,0.00708,-0.991577,0.190321,0.401832,-0.161527,47,260,579,4784
1644155413.930037,-0.012817,0.007202,-0.991699,0.220855,0.508702,-0.130992,40,287,568,4720
1644155414.025682,-0.012207,0.008545,-0.992798,0.175053,0.447634,-0.069924,53,276,571,4784
1644155414.074139,-0.015015,0.005859,-0.995178,0.220855,0.401832,0.021679,46,279,569,4784
1644155414.122514,-0.011292,0.009216,-0.992737,0.190321,0.432366,-0.130992,46,271,571,4720
1644155414.170803,-0.011414,0.008179,-0.991699,0.251389,0.325496,-0.054656,49,273,575,4784
1644155414.219184,-0.012878,0.008911,-0.99408,0.434595,0.462901,-0.054656,47,270,568,4784
1644155414.267593,-0.012939,0.010742,-0.992432,0.236122,0.417099,-0.192061,49,273,568,4848
1644155414.315959,-0.009949,0.007385,-0.990662,0.236122,0.386565,-0.024122,40,270,568,4784
1644155414.364409,-0.011719,0.007263,-0.993225,0.312458,0.417099,-0.115725,39,274,571,4832
1644155414.412788,-0.012634,0.009094,-0.991455,0.251389,0.356031,-0.069924,47,277,577,4784
1644155414.461177,-0.009827,0.006958,-0.990967,0.08345,0.554504,-0.130992,48,274,576,4784
1644155414.509529,-0.011353,0.009277,-0.995483,0.052916,0.310229,-0.100458,51,269,576,4784
1644155414.557928,-0.010803,0.008118,-0.992432,0.312458,0.508702,0.052214,55,279,576,4832
1644155414.606328,-0.011902,0.006287,-0.992981,0.236122,0.218626,-0.237863,51,276,562,4816
1644155414.654734,-0.010315,0.007812,-0.994507,0.297191,0.417099,-0.008855,57,265,579,4816
1644155414.703101,-0.009216,0.008911,-0.990723,0.236122,0.508702,-0.054656,54,277,572,4720
1644155414.751477,-0.012817,0.008911,-0.992126,0.205588,0.356031,0.021679,60,266,580,4816
1644155414.799871,-0.014221,0.008667,-0.995605,0.35826,0.371298,-0.100458,54,277,577,4848
1644155414.848267,-0.010376,0.012085,-0.992249,0.144519,0.432366,-0.024122,52,270,579,4672
1644155414.896692,-0.010803,0.010132,-0.990479,0.327725,0.340763,-0.115725,53,271,578,4784
1644155414.945167,-0.011169,0.008057,-0.993469,0.419328,0.386565,-0.054656,42,277,582,4816
1644155414.99389,-0.01239,0.008667,-0.993591,0.373527,0.432366,-0.161527,52,270,589,4784
1644155415.043611,-0.008911,0.006958,-0.993286,0.175053,0.462901,-0.115725,43,269,564,4784
1644155415.09126,-0.009766,0.009216,-0.990967,0.205588,0.356031,-0.207328,49,275,577,4784
1644155415.186921,-0.011353,0.008667,-0.993164,0.388794,0.386565,-0.130992,45,265,579,4784
1644155415.235312,-0.010193,0.006287,-0.994019,0.190321,0.340763,-0.054656,46,276,566,4784
1644155415.283696,-0.012024,0.009094,-0.991333,0.312458,0.462901,-0.100458,46,276,578,4720
1644155415.332151,-0.009827,0.007202,-0.990784,0.266656,0.371298,-0.008855,58,271,571,4720
1644155415.380491,-0.011475,0.009644,-0.990723,0.220855,0.478168,-0.039389,42,265,572,4848
1644155415.428911,-0.010498,0.008606,-0.991943,0.281924,0.417099,0.021679,59,280,572,4880
1644155415.477268,-0.010498,0.007385,-0.993408,0.144519,0.356031,-0.115725,52,273,577,4720
1644155415.525657,-0.013,0.008545,-0.993042,0.190321,0.600305,-0.14626,46,276,562,4784
1644155415.574073,-0.011658,0.008789,-0.993225,0.434595,0.432366,-0.085191,53,276,569,4784
1644155415.62243,-0.011536,0.008484,-0.993652,0.266656,0.371298,-0.024122,54,273,561,4880
1644155415.670831,-0.015137,0.010864,-0.991699,0.388794,0.417099,-0.161527,52,275,570,4816
1644155415.719205,-0.012573,0.007141,-0.991882,0.373527,0.371298,-0.100458,48,276,564,4880
1644155415.767587,-0.013672,0.00946,-0.995239,0.144519,0.401832,-0.039389,49,275,563,4784
1644155415.815979,-0.009338,0.00708,-0.989441,0.327725,0.493435,-0.039389,46,276,578,4720
1644155415.864392,-0.012329,0.009521,-0.992737,0.113985,0.417099,0.006412,42,285,561,4816
1644155415.912825,-0.013733,0.009949,-0.994995,0.388794,0.600305,-0.024122,49,273,570,4848
1644155415.961154,-0.009766,0.006531,-0.992981,0.190321,0.371298,-0.008855,49,273,568,4768
1644155416.009555,-0.013123,0.009583,-0.993774,0.022382,0.401832,-0.008855,43,274,580,4720
1644155416.069408,-0.013489,0.00946,-0.993774,0.236122,0.523969,-0.100458,47,277,568,4832
1644155416.10635,-0.012024,0.010193,-0.992981,0.098718,0.356031,-0.176794,47,275,570,4832
1644155416.155385,-0.013855,0.00824,-0.990601,0.236122,0.615573,0.006412,49,275,589,4816
1644155416.205281,-0.013367,0.005859,-0.993225,0.312458,0.310229,-0.085191,61,275,565,4832
1644155416.299853,-0.010132,0.010254,-0.991516,0.144519,0.478168,-0.268397,48,266,559,4784
1644155416.348212,-0.013489,0.01001,-0.991455,0.098718,0.523969,-0.130992,55,266,571,4784
1644155416.396589,-0.011536,0.00824,-0.993103,0.205588,0.523969,0.067481,48,274,573,4784
1644155416.445034,-0.012146,0.010254,-0.994141,0.236122,0.508702,-0.100458,40,277,558,4816
1644155416.493384,-0.014404,0.009216,-0.992004,0.373527,0.371298,-0.130992,60,281,571,4848
1644155416.541767,-0.012146,0.008057,-0.993591,0.175053,0.417099,-0.100458,48,264,566,4784
1644155416.590191,-0.010193,0.009705,-0.989319,0.205588,0.401832,-0.085191,43,266,566,4816
1644155416.63856,-0.01416,0.008179,-0.990051,0.297191,0.646107,-0.100458,54,273,565,4784
1644155416.686963,-0.013,0.006836,-0.992188,0.342992,0.478168,-0.161527,43,269,569,4784
1644155416.735309,-0.01239,0.010132,-0.99231,0.236122,0.417099,-0.054656,47,268,570,4720
1644155416.783735,-0.014832,0.012207,-0.992004,0.113985,0.447634,-0.176794,57,280,572,4816
1644155416.832145,-0.011047,0.011292,-0.991272,0.266656,0.371298,-0.008855,39,271,566,4816
1644155416.880534,-0.01355,0.007996,-0.988708,0.266656,0.340763,-0.14626,54,273,570,4848
1644155416.928903,-0.012085,0.007751,-0.992371,0.373527,0.462901,0.021679,52,268,556,4784
1644155416.977306,-0.009583,0.010437,-0.992065,0.159786,0.493435,-0.25313,46,264,569,4784
1644155417.025641,-0.011536,0.008423,-0.992432,0.342992,0.508702,-0.069924,52,268,570,4816
1644155417.08479,-0.014771,0.008362,-0.993347,0.098718,0.401832,-0.115725,45,277,576,4784
1644155417.122472,-0.011719,0.009949,-0.991699,0.266656,0.340763,-0.024122,60,274,571,4720
1644155417.170843,-0.01123,0.007141,-0.993225,0.236122,0.539237,-0.25313,46,274,578,4784
1644155417.219195,-0.011475,0.007568,-0.993591,0.419328,0.356031,0.143817,52,260,582,4752
1644155417.268,-0.013367,0.008362,-0.994263,0.342992,0.493435,-0.207328,58,269,569,4784
1644155417.318134,-0.010498,0.009583,-0.990723,0.434595,0.569771,-0.085191,53,269,569,4784
1644155417.365691,-0.009827,0.011841,-0.993713,0.312458,0.554504,-0.069924,45,277,565,4816
1644155417.461141,-0.009705,0.006409,-0.992188,0.327725,0.478168,0.067481,49,277,570,4784
1644155417.509538,-0.010986,0.008789,-0.994019,0.281924,0.447634,-0.100458,48,274,562,4720
1644155417.557957,-0.009949,0.008423,-0.991882,0.388794,0.447634,-0.222595,46,276,569,4784
1644155417.606339,-0.012268,0.006653,-0.99231,0.205588,0.401832,-0.161527,52,270,568,4752
1644155417.654704,-0.012573,0.009155,-0.993774,0.175053,0.493435,-0.115725,51,269,569,4848
1644155417.703079,-0.010498,0.006958,-0.993408,0.419328,0.462901,-0.100458,53,276,573,4720
1644155417.751461,-0.012634,0.009521,-0.994324,0.327725,0.325496,-0.069924,49,268,572,4816
1644155417.799865,-0.010315,0.010254,-0.992188,0.297191,0.417099,-0.222595,46,279,569,4720
1644155417.848264,-0.012939,0.007812,-0.994263,0.510931,0.554504,0.052214,49,280,565,4768
1644155417.89665,-0.010071,0.007446,-0.991882,0.327725,0.417099,-0.008855,57,275,572,4784
1644155417.945106,-0.012024,0.009644,-0.991272,0.236122,0.508702,-0.115725,52,277,565,4784
1644155417.993371,-0.011169,0.010193,-0.990051,0.220855,0.386565,-0.039389,59,280,558,4704
1644155418.041833,-0.01239,0.00946,-0.993286,0.327725,0.371298,-0.100458,45,275,558,4848
1644155418.092209,-0.012329,0.006775,-0.989685,0.220855,0.432366,-0.069924,47,273,572,4832
1644155418.138602,-0.012085,0.009338,-0.991882,0.35826,0.325496,-0.054656,48,276,562,4832
1644155418.186967,-0.012573,0.009583,-0.99292,0.480397,0.310229,-0.085191,39,274,580,4784
1644155418.235358,-0.01239,0.010986,-0.993103,0.297191,0.539237,-0.192061,49,277,579,4832
1644155418.283752,-0.008789,0.007996,-0.992065,0.236122,0.493435,-0.176794,55,274,578,4784
1644155418.332183,-0.013855,0.007874,-0.991638,0.327725,0.356031,-0.176794,54,282,565,4784
1644155418.380513,-0.011047,0.007507,-0.993042,0.205588,0.462901,-0.069924,54,280,565,4784
1644155418.429554,-0.01416,0.00946,-0.991943,0.236122,0.386565,-0.237863,43,274,569,4752
1644155418.479846,-0.010559,0.010193,-0.992676,0.342992,0.63084,-0.085191,53,281,578,4720
1644155418.527679,-0.012329,0.00824,-0.990295,0.266656,0.401832,-0.085191,43,274,564,4816
1644155418.622646,-0.012512,0.007263,-0.993896,0.266656,0.478168,-0.161527,46,274,573,4816
1644155418.670826,-0.014832,0.007446,-0.994934,0.251389,0.401832,-0.039389,49,275,570,4784
1644155418.719183,-0.010437,0.009888,-0.991821,0.297191,0.417099,-0.085191,46,279,562,4784
1644155418.767583,-0.01062,0.010925,-0.992737,0.175053,0.371298,-0.192061,57,260,579,4720
1644155418.815978,-0.012146,0.009521,-0.991455,0.175053,0.539237,-0.085191,47,273,568,4832
1644155418.864393,-0.014038,0.009644,-0.991394,0.434595,0.417099,0.006412,53,262,580,4672
1644155418.912775,-0.013672,0.010498,-0.992249,0.236122,0.417099,-0.085191,54,270,575,4784
1644155418.961142,-0.013916,0.01001,-0.995056,0.297191,0.24916,-0.115725,46,271,571,4848
1644155419.009532,-0.013,0.007629,-0.994019,0.220855,0.325496,-0.130992,41,274,571,4704
1644155419.064217,-0.010925,0.00885,-0.994019,0.312458,0.462901,-0.008855,43,271,576,4784
1644155419.106293,-0.010559,0.01001,-0.993774,0.327725,0.325496,0.006412,45,275,572,4720
1644155419.154718,-0.013916,0.008484,-0.99115,0.388794,0.356031,-0.024122,42,268,558,4816
1644155419.203111,-0.012817,0.008057,-0.994019,0.35826,0.523969,-0.024122,45,280,579,4816
1644155419.251421,-0.011719,0.007446,-0.991943,0.251389,0.371298,-0.222595,43,274,578,4848
1644155419.29986,-0.012329,0.007996,-0.993958,0.190321,0.325496,-0.069924,39,266,571,4832
1644155419.348268,-0.011047,0.009827,-0.990356,0.236122,0.371298,-0.115725,49,277,596,4720
1644155419.396645,-0.012085,0.009583,-0.992798,0.190321,0.585038,-0.176794,43,271,573,4816
1644155419.44507,-0.011292,0.008301,-0.994446,0.35826,0.432366,-0.268397,62,269,576,4816
1644155419.49341,-0.011719,0.007507,-0.994873,0.251389,0.493435,-0.25313,57,280,584,4816
1644155419.541795,-0.016968,0.007324,-0.993347,0.098718,0.340763,-0.039389,42,275,570,4848
1644155419.591117,-0.01355,0.007263,-0.991455,0.266656,0.493435,-0.039389,48,281,566,4720
1644155419.641092,-0.011658,0.006348,-0.993225,0.190321,0.447634,0.067481,47,277,563,4720
1644155419.735362,-0.011475,0.00885,-0.994385,0.113985,0.447634,-0.14626,49,270,565,4720
1644155419.78371,-0.011108,0.009033,-0.994202,0.342992,0.462901,-0.039389,52,275,568,4816
1644155419.832186,-0.010376,0.008362,-0.991028,0.281924,0.462901,0.082748,51,266,573,4848
1644155419.880457,-0.012207,0.008545,-0.990845,0.220855,0.432366,0.021679,53,281,569,4720
1644155419.92895,-0.011902,0.008667,-0.988464,0.327725,0.417099,-0.085191,45,282,563,4816
1644155419.977303,-0.009094,0.00592,-0.991333,0.251389,0.447634,-0.085191,49,275,568,4816
1644155420.025663,-0.012939,0.006287,-0.995544,0.236122,0.432366,-0.130992,43,279,583,4784
1644155420.074128,-0.012268,0.006348,-0.990784,0.175053,0.401832,-0.130992,46,276,583,4704
1644155420.122419,-0.009949,0.009888,-0.991333,0.312458,0.371298,-0.024122,55,271,576,4832
1644155420.170768,-0.00946,0.010742,-0.992432,0.297191,0.493435,-0.100458,46,276,566,4816
1644155420.219187,-0.010681,0.010559,-0.992188,0.190321,0.508702,-0.069924,46,274,571,4720
1644155420.26754,-0.014099,0.007812,-0.993774,0.190321,0.340763,-0.054656,42,287,572,4720
1644155420.316016,-0.013,0.008118,-0.990295,0.342992,0.356031,-0.115725,52,273,572,4784
1644155420.364345,-0.011902,0.007263,-0.993164,0.236122,0.508702,0.204885,55,271,576,4784
1644155420.412736,-0.013794,0.00769,-0.99353,0.297191,0.508702,0.006412,51,266,583,4784
1644155420.461117,-0.012085,0.007568,-0.988464,0.220855,0.279695,-0.024122,51,276,573,4848
1644155420.509467,-0.013611,0.010315,-0.992371,0.251389,0.569771,-0.069924,45,273,575,4816
1644155420.557882,-0.01123,0.00885,-0.99231,0.251389,0.600305,-0.100458,55,269,576,4720
1644155420.606275,-0.010254,0.007446,-0.992981,0.175053,0.569771,-0.085191,54,270,570,4784
1644155420.654672,-0.010925,0.008789,-0.993408,0.08345,0.615573,-0.039389,46,274,566,4816
1644155420.703211,-0.011658,0.007202,-0.991211,0.159786,0.386565,-0.085191,51,271,576,4720
1644155420.753351,-0.013245,0.008972,-0.991455,0.297191,0.432366,-0.237863,52,275,577,4720
1644155420.800971,-0.011353,0.010681,-0.993408,0.297191,0.523969,-0.008855,41,276,559,4832
1644155420.896644,-0.012207,0.010864,-0.992859,0.190321,0.447634,0.036947,47,275,565,4816
1644155420.94504,-0.011963,0.01001,-0.992432,0.404061,0.203359,-0.207328,47,268,570,4704
1644155420.993433,-0.010193,0.009216,-0.994751,0.236122,0.386565,-0.192061,47,265,570,4784
1644155421.041767,-0.011536,0.004883,-0.993835,0.35826,0.462901,-0.039389,47,270,565,4816
1644155421.09021,-0.012817,0.00946,-0.992859,0.327725,0.462901,-0.069924,47,277,582,4784
1644155421.138544,-0.012695,0.007996,-0.991394,0.236122,0.523969,-0.130992,42,275,563,4720
1644155421.18696,-0.013733,0.008789,-0.992432,0.297191,0.371298,-0.039389,53,274,578,4784
1644155421.235308,-0.011597,0.009766,-0.992249,0.327725,0.386565,-0.024122,53,262,566,4784
1644155421.283717,-0.012146,0.010864,-0.992615,0.327725,0.600305,-0.054656,53,276,580,4784
1644155421.332073,-0.01355,0.010315,-0.991028,0.342992,0.401832,-0.039389,52,275,568,4832
1644155421.380506,-0.011414,0.008057,-0.994202,0.205588,0.462901,-0.100458,43,264,573,4784
1644155421.428843,-0.012573,0.011292,-0.992798,0.281924,0.493435,-0.115725,42,277,575,4720
1644155421.477242,-0.012024,0.006775,-0.993225,0.205588,0.432366,-0.054656,43,271,580,4784
1644155421.525917,-0.011719,0.009033,-0.994019,0.327725,0.523969,-0.039389,58,269,571,4784
1644155421.576196,-0.01062,0.010071,-0.992859,0.266656,0.417099,-0.176794,47,268,565,4816
1644155421.62363,-0.013733,0.010376,-0.99231,0.251389,0.417099,0.006412,54,273,568,4784
1644155421.719217,-0.014221,0.009277,-0.990295,0.297191,0.478168,-0.161527,43,276,566,4720
1644155421.767535,-0.010559,0.008423,-0.992676,0.266656,0.264427,-0.085191,45,268,568,4720
1644155421.815938,-0.012695,0.006531,-0.992615,0.297191,0.478168,-0.024122,40,263,563,4832
1644155421.864359,-0.011536,0.010437,-0.991394,0.266656,0.447634,-0.085191,49,277,570,4816
1644155421.912784,-0.013367,0.009033,-0.99231,0.236122,0.325496,-0.14626,45,275,575,4784
1644155421.961111,-0.011597,0.008057,-0.990784,0.251389,0.462901,-0.024122,54,265,572,4816
1644155422.009507,-0.015808,0.008911,-0.991028,0.220855,0.478168,0.052214,51,274,573,4720
1644155422.065242,-0.013123,0.00824,-0.992737,0.388794,0.447634,-0.161527,48,274,571,4848
1644155422.106267,-0.013428,0.00531,-0.992554,0.327725,0.417099,-0.069924,59,265,577,4816
1644155422.154644,-0.011353,0.005981,-0.994873,0.297191,0.432366,-0.024122,45,265,561,4832
1644155422.203027,-0.014099,0.007385,-0.99292,0.190321,0.386565,-0.161527,54,275,568,4720
1644155422.251388,-0.013916,0.008179,-0.991699,0.281924,0.539237,-0.024122,45,265,570,4816
1644155422.299811,-0.012634,0.005554,-0.991516,0.159786,0.356031,-0.008855,51,276,566,4816
1644155422.348207,-0.011047,0.010437,-0.993652,0.281924,0.447634,-0.039389,48,274,564,4752
1644155422.396553,-0.013062,0.005615,-0.994385,0.129252,0.462901,-0.024122,48,274,571,4720
1644155422.445006,-0.011658,0.009277,-0.991882,0.312458,0.447634,-0.054656,47,290,575,4848
1644155422.493332,-0.013428,0.007446,-0.994873,0.251389,0.371298,-0.085191,48,269,569,4880
1644155422.541722,-0.014282,0.010071,-0.991089,0.266656,0.401832,-0.069924,49,270,582,4832
1644155422.590115,-0.010864,0.010986,-0.991089,0.205588,0.493435,-0.039389,55,269,571,4784
1644155422.638502,-0.01239,0.007263,-0.992126,0.266656,0.340763,-0.054656,51,276,569,4752
1644155422.686921,-0.01178,0.007874,-0.993896,0.220855,0.478168,-0.176794,51,279,566,4720
1644155422.736835,-0.012817,0.007385,-0.992798,0.266656,0.417099,0.082748,57,268,568,4880
1644155422.784434,-0.011536,0.009644,-0.993835,0.08345,0.386565,-0.176794,46,266,571,4816
1644155422.880491,-0.012024,0.008667,-0.991394,0.281924,0.493435,-0.085191,43,276,573,4848
1644155422.928911,-0.013123,0.005981,-0.99469,0.251389,0.401832,-0.176794,49,270,570,4784
1644155422.977227,-0.012329,0.008362,-0.993835,0.251389,0.233893,-0.192061,51,269,573,4720
1644155423.025586,-0.011841,0.009644,-0.99231,0.236122,0.493435,0.006412,49,277,572,4784
1644155423.075415,-0.011902,0.01001,-0.989807,0.251389,0.386565,-0.176794,58,281,580,4816
1644155423.122443,-0.012634,0.009094,-0.991394,0.236122,0.371298,-0.039389,49,273,575,4784
1644155423.170779,-0.014221,0.008667,-0.992798,0.236122,0.386565,0.021679,48,264,564,4816
1644155423.219219,-0.014832,0.009338,-0.993652,0.220855,0.401832,-0.268397,43,271,576,4720
1644155423.267545,-0.011902,0.006714,-0.992981,0.266656,0.493435,-0.054656,55,276,566,4848
1644155423.315973,-0.015869,0.00946,-0.992004,0.08345,0.554504,-0.130992,47,277,570,4784
1644155423.364344,-0.010254,0.009216,-0.992615,0.068183,0.493435,0.052214,47,265,568,4784
1644155423.412778,-0.012817,0.006531,-0.992249,0.327725,0.356031,-0.069924,47,265,565,4880
1644155423.461101,-0.011719,0.007874,-0.991455,0.251389,0.401832,-0.130992,51,276,576,4720
1644155423.509499,-0.012878,0.00885,-0.990173,0.159786,0.523969,-0.054656,40,273,565,4784
1644155423.557907,-0.010742,0.008484,-0.992737,0.404061,0.417099,-0.268397,54,265,568,4848
1644155423.606303,-0.011597,0.008667,-0.992126,0.327725,0.356031,-0.008855,60,269,566,4768
1644155423.654793,-0.013,0.008057,-0.992737,0.266656,0.508702,-0.085191,52,275,568,4848
1644155423.703082,-0.010315,0.008057,-0.992615,0.342992,0.585038,0.021679,42,265,572,4720
1644155423.751418,-0.014404,0.008057,-0.992065,0.312458,0.478168,-0.100458,58,264,562,4784
1644155423.799851,-0.013062,0.009705,-0.994385,0.388794,0.447634,0.006412,39,274,571,4816
1644155423.849561,-0.013062,0.008179,-0.994385,0.312458,0.493435,-0.085191,53,262,562,4816
1644155423.899052,-0.011536,0.008545,-0.989319,0.205588,0.554504,-0.25313,60,269,573,4832
1644155423.993346,-0.008911,0.008301,-0.993347,0.281924,0.478168,-0.130992,48,269,564,4848
1644155424.041763,-0.011169,0.00946,-0.990417,0.419328,0.462901,-0.100458,43,264,571,4848
1644155424.091528,-0.015259,0.009216,-0.99231,0.404061,0.523969,0.021679,53,274,569,4816
1644155424.138555,-0.013611,0.007263,-0.993835,0.144519,0.279695,-0.14626,51,269,573,4720
1644155424.186948,-0.011353,0.006592,-0.993103,0.35826,0.386565,-0.039389,46,269,564,4720
1644155424.235328,-0.009949,0.008301,-0.988708,0.266656,0.447634,-0.054656,48,276,557,4784
1644155424.283693,-0.013245,0.005859,-0.991638,0.113985,0.340763,-0.207328,42,268,568,4784
1644155424.332148,-0.010986,0.010681,-0.995361,0.297191,0.661374,-0.130992,47,268,570,4704
1644155424.380487,-0.012329,0.00708,-0.993225,0.373527,0.493435,-0.008855,42,282,572,4848
1644155424.428865,-0.012146,0.008362,-0.990234,0.144519,0.325496,-0.069924,49,273,568,4720
1644155424.477224,-0.013733,0.009338,-0.992737,0.144519,0.554504,-0.130992,40,280,565,4720
1644155424.525639,-0.011353,0.007324,-0.991882,0.35826,0.371298,-0.024122,47,270,577,4672
1644155424.573997,-0.012329,0.006531,-0.990479,0.205588,0.417099,-0.176794,41,276,569,4720
1644155424.62263,-0.011719,0.007629,-0.992432,0.312458,0.432366,0.113282,51,266,573,4784
1644155424.67305,-0.011108,0.007385,-0.990784,0.373527,0.401832,-0.161527,55,281,576,4816
1644155424.720369,-0.012268,0.005249,-0.993042,0.175053,0.508702,-0.130992,51,274,569,4816
1644155424.815946,-0.011719,0.005859,-0.994446,0.434595,0.401832,-0.085191,51,276,580,4720
1644155424.864346,-0.013794,0.009583,-0.992371,0.342992,0.401832,-0.054656,51,269,569,4768
1644155424.912747,-0.012878,0.00708,-0.994507,0.297191,0.508702,-0.085191,53,276,571,4704
1644155424.961102,-0.013184,0.009338,-0.990784,0.342992,0.386565,-0.115725,55,283,571,4784
1644155425.009511,-0.013916,0.006409,-0.99176,0.327725,0.523969,0.021679,46,269,571,4784
1644155425.063095,-0.014282,0.007629,-0.992126,0.266656,0.462901,0.052214,57,270,577,4720
1644155425.106224,-0.010803,0.008362,-0.991211,0.297191,0.447634,-0.237863,58,269,583,4784
1644155425.154655,-0.014893,0.008972,-0.991089,0.159786,0.432366,-0.054656,53,271,566,4816
1644155425.20306,-0.012329,0.008789,-0.99054,0.281924,0.447634,-0.115725,41,281,569,4848
1644155425.251435,-0.011841,0.009277,-0.991882,0.220855,0.447634,-0.222595,53,279,571,4832
1644155425.299825,-0.011292,0.008545,-0.99292,0.144519,0.447634,-0.268397,48,271,566,4784
1644155425.34817,-0.014954,0.008545,-0.994141,0.251389,0.432366,-0.100458,47,270,568,4848
1644155425.396574,-0.011841,0.009094,-0.989868,0.236122,0.447634,-0.024122,53,274,580,4784
1644155425.445026,-0.010498,0.009583,-0.99292,0.35826,0.340763,-0.085191,46,269,576,4720
1644155425.493331,-0.011353,0.011047,-0.989807,0.236122,0.417099,-0.024122,52,260,572,4848
1644155425.541754,-0.010254,0.006897,-0.993469,0.251389,0.356031,0.021679,47,277,570,4816
1644155425.590108,-0.014038,0.009888,-0.994263,0.281924,0.386565,-0.207328,41,269,566,4720
1644155425.638546,-0.012573,0.01001,-0.993896,0.113985,0.447634,-0.115725,53,281,564,4816
1644155425.686879,-0.010132,0.010193,-0.990417,0.297191,0.432366,0.052214,57,265,561,4816
1644155425.735312,-0.010254,0.006165,-0.991211,0.205588,0.417099,-0.024122,43,276,569,4720
1644155425.784439,-0.012268,0.008972,-0.994263,0.312458,0.356031,-0.069924,43,279,557,4848
1644155425.834739,-0.011536,0.006165,-0.992981,0.281924,0.310229,-0.039389,48,266,576,4720
1644155425.92889,-0.013245,0.01062,-0.992615,0.266656,0.386565,-0.085191,49,275,575,4784
1644155425.977214,-0.013367,0.006165,-0.990784,0.281924,0.508702,-0.085191,49,268,565,4720
1644155426.025608,-0.011475,0.010559,-0.992126,0.404061,0.508702,-0.14626,45,275,572,4720
1644155426.074096,-0.014282,0.010864,-0.993469,0.144519,0.569771,-0.085191,53,274,578,4704
1644155426.122385,-0.01355,0.006653,-0.992676,0.251389,0.432366,-0.14626,45,273,561,4784
1644155426.170741,-0.010681,0.00769,-0.993713,0.159786,0.401832,-0.100458,43,274,573,4832
1644155426.219129,-0.010437,0.010376,-0.992493,0.190321,0.539237,-0.085191,46,264,564,4720
1644155426.267494,-0.013794,0.007629,-0.990234,0.281924,0.356031,0.067481,46,271,564,4752
1644155426.3159,-0.010437,0.00415,-0.991455,0.236122,0.569771,-0.039389,48,274,578,4784
1644155426.364303,-0.012695,0.007141,-0.99176,0.297191,0.447634,-0.024122,48,274,576,4880
1644155426.412657,-0.013428,0.007751,-0.991211,0.251389,0.371298,-0.25313,51,281,573,4848
1644155426.461048,-0.010803,0.008301,-0.991028,0.144519,0.508702,-0.054656,52,270,577,4832
1644155426.509425,-0.011902,0.008606,-0.992188,0.159786,0.417099,-0.039389,41,276,571,4848
1644155426.557847,-0.012207,0.007507,-0.99231,0.129252,0.508702,0.006412,51,271,564,4784
1644155426.606202,-0.014038,0.00769,-0.995178,0.220855,0.371298,0.052214,58,264,564,4816
1644155426.654627,-0.010376,0.007263,-0.992981,0.297191,0.401832,-0.100458,46,281,576,4848
1644155426.703012,-0.011108,0.009033,-0.993164,0.175053,0.340763,-0.100458,54,282,561,4784
1644155426.751344,-0.012512,0.010559,-0.990845,0.159786,0.539237,-0.085191,49,275,570,4784
1644155426.799754,-0.012024,0.010071,-0.991089,0.297191,0.569771,-0.069924,47,270,570,4768
1644155426.848184,-0.009521,0.010193,-0.992065,0.190321,0.493435,-0.039389,46,276,573,4784
1644155426.89677,-0.011841,0.008911,-0.989502,0.297191,0.508702,0.036947,49,275,570,4784
1644155426.9476,-0.014099,0.006409,-0.993286,0.327725,0.310229,0.036947,49,260,561,4784
1644155426.994462,-0.011658,0.008301,-0.991211,0.342992,0.493435,-0.100458,43,271,576,4816
1644155427.090074,-0.010925,0.010254,-0.990601,0.220855,0.447634,-0.100458,42,270,582,4816
1644155427.13848,-0.014893,0.01001,-0.990967,0.251389,0.539237,0.006412,51,271,573,4752
1644155427.186844,-0.011047,0.010132,-0.991943,0.312458,0.432366,-0.100458,48,271,564,4720
1644155427.235223,-0.013123,0.007812,-0.993774,0.205588,0.508702,-0.268397,46,269,562,4784
1644155427.283632,-0.012329,0.009094,-0.989502,0.205588,0.508702,-0.115725,54,258,565,4720
1644155427.332027,-0.012329,0.006348,-0.991638,0.312458,0.401832,-0.024122,53,266,571,4768
1644155427.380402,-0.012085,0.00824,-0.99292,0.297191,0.340763,-0.085191,36,271,573,4720
1644155427.428757,-0.014282,0.011169,-0.992493,0.388794,0.386565,-0.176794,43,271,573,4832
1644155427.477191,-0.012939,0.010132,-0.991394,0.129252,0.432366,-0.039389,40,280,572,4832
1644155427.525544,-0.011658,0.008118,-0.991394,0.205588,0.310229,-0.085191,47,275,563,4704
1644155427.573975,-0.012329,0.009094,-0.992371,0.388794,0.523969,-0.054656,43,266,571,4784
1644155427.622348,-0.014648,0.006348,-0.994324,0.281924,0.447634,-0.130992,58,274,571,4816
1644155427.670748,-0.012451,0.008179,-0.993713,0.281924,0.386565,-0.192061,45,275,570,4880
1644155427.719132,-0.012329,0.009399,-0.993408,0.297191,0.417099,-0.100458,53,266,566,4784
1644155427.767495,-0.010437,0.008728,-0.995422,0.419328,0.447634,0.113282,54,277,568,4672
1644155427.81593,-0.012451,0.009033,-0.993469,0.404061,0.523969,-0.085191,42,265,575,4848
1644155427.864309,-0.013062,0.009033,-0.992004,0.159786,0.371298,-0.207328,47,263,577,4816
1644155427.912695,-0.011597,0.007568,-0.990051,0.297191,0.615573,-0.039389,61,273,575,4848
1644155427.961081,-0.010315,0.011047,-0.990356,0.419328,0.386565,-0.192061,53,266,569,4832
1644155428.009472,-0.012146,0.007568,-0.994385,0.388794,0.493435,0.021679,46,264,573,4720
1644155428.106206,-0.012573,0.008362,-0.992737,0.159786,0.401832,-0.008855,53,271,578,4848
1644155428.15466,-0.011902,0.009949,-0.991943,0.159786,0.310229,-0.054656,48,276,569,4784
1644155428.203044,-0.012085,0.007812,-0.993286,0.251389,0.478168,-0.039389,51,266,566,4816
1644155428.251421,-0.015991,0.006897,-0.992615,0.236122,0.356031,0.067481,55,281,566,4720
1644155428.299788,-0.01178,0.008057,-0.991516,0.205588,0.417099,-0.115725,52,277,568,4784
1644155428.348205,-0.011475,0.007141,-0.992493,0.129252,0.462901,-0.207328,47,263,570,4720
1644155428.396574,-0.011536,0.007324,-0.99231,0.312458,0.508702,-0.069924,51,274,569,4848
1644155428.445119,-0.011902,0.007812,-0.990784,0.35826,0.325496,-0.039389,51,271,564,4832
1644155428.49333,-0.011597,0.006348,-0.991699,0.327725,0.462901,-0.008855,49,270,572,4784
1644155428.54175,-0.009949,0.008972,-0.990295,0.281924,0.417099,0.052214,52,270,577,4720
1644155428.590132,-0.013489,0.009338,-0.99231,0.388794,0.417099,-0.054656,53,283,571,4816
1644155428.6385,-0.011597,0.007568,-0.992615,0.266656,0.386565,-0.085191,54,285,572,4704
1644155428.686891,-0.010986,0.009888,-0.990417,0.327725,0.386565,-0.069924,58,276,580,4816
1644155428.735313,-0.015015,0.010681,-0.996033,0.220855,0.539237,-0.085191,54,277,565,4816
1644155428.78366,-0.011658,0.004456,-0.992004,0.266656,0.493435,-0.237863,51,283,578,4720
1644155428.832035,-0.012085,0.008545,-0.993958,0.236122,0.325496,-0.161527,51,266,571,4816
1644155428.881469,-0.013,0.007263,-0.991272,0.190321,0.340763,-0.008855,46,281,559,4704
1644155428.93177,-0.009888,0.008118,-0.994263,0.404061,0.401832,0.036947,55,274,578,4848
1644155429.025904,-0.011353,0.008179,-0.990784,0.129252,0.523969,-0.085191,52,280,582,4720
1644155429.074035,-0.011902,0.009644,-0.995178,0.281924,0.371298,0.052214,54,268,572,4832
1644155429.122424,-0.010559,0.009094,-0.992676,0.144519,0.401832,-0.115725,48,271,562,4816
1644155429.170725,-0.012634,0.010376,-0.992676,0.220855,0.615573,-0.054656,45,280,570,4672
1644155429.219119,-0.01355,0.008301,-0.992737,0.297191,0.523969,-0.115725,52,273,570,4784
1644155429.26748,-0.01416,0.008789,-0.99353,0.434595,0.523969,-0.100458,46,276,571,4816
1644155429.315858,-0.012207,0.01123,-0.992004,0.220855,0.539237,-0.085191,53,264,566,4752
1644155429.364283,-0.011108,0.007324,-0.993469,0.327725,0.340763,-0.115725,46,274,569,4816
1644155429.412655,-0.015686,0.005432,-0.992371,0.129252,0.401832,-0.100458,47,273,579,4816
1644155429.461045,-0.014587,0.007812,-0.99292,0.35826,0.478168,-0.237863,51,271,564,4704
1644155429.509415,-0.012817,0.006226,-0.99115,0.190321,0.478168,-0.192061,42,270,572,4848
1644155429.557841,-0.012939,0.006042,-0.994019,0.312458,0.585038,-0.130992,43,271,562,4880
1644155429.606214,-0.014038,0.00946,-0.99292,0.175053,0.493435,0.021679,49,280,565,4784
1644155429.654648,-0.012024,0.004639,-0.993896,0.251389,0.508702,-0.069924,51,266,566,4848
1644155429.702994,-0.011841,0.009583,-0.991699,0.327725,0.401832,-0.024122,41,266,562,4816
1644155429.751307,-0.012024,0.007507,-0.992493,0.297191,0.539237,-0.039389,51,271,576,4784
1644155429.799752,-0.014343,0.008118,-0.991455,0.35826,0.539237,-0.069924,48,274,571,4832
1644155429.848139,-0.012756,0.010498,-0.994934,0.373527,0.478168,-0.024122,42,273,572,4784
1644155429.896577,-0.01239,0.007263,-0.99353,0.342992,0.386565,0.006412,45,260,570,4720
1644155429.945416,-0.011292,0.009521,-0.99231,0.175053,0.401832,-0.069924,52,260,575,4816
1644155429.995074,-0.010803,0.007812,-0.992798,0.35826,0.371298,-0.039389,42,273,577,4848
1644155430.090108,-0.010681,0.007019,-0.992859,0.327725,0.294962,-0.085191,42,275,572,4784
1644155430.138519,-0.012085,0.007568,-0.992493,0.327725,0.417099,-0.130992,46,279,569,4816
1644155430.186812,-0.012451,0.01123,-0.992554,0.129252,0.386565,0.021679,58,269,578,4784
1644155430.235227,-0.014282,0.008911,-0.995117,0.342992,0.371298,-0.039389,32,274,566,4784
1644155430.283603,-0.012634,0.006958,-0.992798,0.159786,0.447634,-0.085191,48,279,569,4720
1644155430.331986,-0.011475,0.008362,-0.992859,0.205588,0.340763,-0.008855,53,274,569,4848
1644155430.380355,-0.010803,0.008728,-0.992493,0.251389,0.493435,-0.085191,52,263,579,4832
1644155430.428803,-0.010925,0.00824,-0.992126,0.266656,0.386565,-0.161527,54,270,568,4816
1644155430.477164,-0.011414,0.005981,-0.994019,0.236122,0.294962,-0.130992,41,276,562,4784
1644155430.525539,-0.010742,0.007507,-0.991638,0.342992,0.340763,0.052214,46,283,569,4640
1644155430.573942,-0.011353,0.009338,-0.991577,0.266656,0.508702,-0.176794,48,279,569,4816
1644155430.622313,-0.013916,0.010254,-0.99176,0.342992,0.356031,-0.14626,51,264,569,4832
1644155430.670723,-0.014038,0.01123,-0.994446,0.236122,0.447634,-0.115725,51,271,571,4784
1644155430.719096,-0.014526,0.008606,-0.992188,0.251389,0.401832,-0.100458,45,273,577,4720
1644155430.767486,-0.013428,0.009766,-0.992615,0.373527,0.386565,-0.085191,51,271,578,4784
1644155430.815871,-0.011536,0.007263,-0.993896,0.297191,0.478168,-0.054656,45,268,577,4848
1644155430.864276,-0.011597,0.008972,-0.989807,0.312458,0.493435,-0.115725,58,271,576,4832
1644155430.912694,-0.011658,0.008728,-0.993225,0.129252,0.386565,-0.100458,43,288,573,4720
1644155430.961061,-0.013306,0.007935,-0.992798,0.251389,0.401832,-0.039389,38,273,572,4720
1644155431.066281,-0.010132,0.006531,-0.99176,0.113985,0.325496,-0.100458,49,265,577,4752
1644155431.10621,-0.011475,0.008057,-0.991089,0.297191,0.493435,-0.161527,38,263,572,4832
1644155431.154948,-0.012268,0.009216,-0.993713,0.236122,0.478168,0.006412,48,264,573,4784
1644155431.202973,-0.012939,0.008728,-0.991211,0.113985,0.447634,-0.130992,40,268,572,4784
1644155431.25134,-0.013855,0.005371,-0.992615,0.327725,0.462901,-0.024122,48,276,569,4784
1644155431.299726,-0.013733,0.011902,-0.991211,0.35826,0.539237,-0.130992,48,281,559,4816
1644155431.348129,-0.009583,0.00354,-0.990845,0.35826,0.585038,-0.176794,46,271,566,4784
1644155431.396521,-0.010864,0.007629,-0.991699,0.388794,0.478168,0.021679,42,270,575,4720
1644155431.444903,-0.013245,0.006287,-0.988892,0.46513,0.523969,0.021679,41,276,566,4720
1644155431.493278,-0.011536,0.00885,-0.994263,0.159786,0.340763,-0.039389,59,280,568,4720
1644155431.541679,-0.013977,0.00946,-0.993103,0.236122,0.356031,-0.161527,51,274,569,4832
1644155431.590062,-0.012268,0.00708,-0.992432,0.175053,0.386565,-0.069924,51,269,566,4848
1644155431.638415,-0.012329,0.008728,-0.992126,0.266656,0.523969,-0.054656,48,274,576,4784
1644155431.686839,-0.012756,0.009888,-0.99231,0.236122,0.478168,-0.069924,48,266,571,4816
1644155431.735215,-0.014343,0.006042,-0.989624,0.129252,0.356031,-0.161527,52,268,577,4816
1644155431.783592,-0.012817,0.008118,-0.991516,0.129252,0.462901,-0.024122,55,269,566,4720
1644155431.832038,-0.010742,0.009827,-0.99115,0.236122,0.447634,-0.024122,40,270,563,4720
1644155431.882468,-0.012573,0.007324,-0.990051,0.312458,0.539237,-0.039389,46,274,576,4784
1644155431.977201,-0.008667,0.007202,-0.992126,0.373527,0.371298,-0.130992,40,277,570,4848
1644155432.025543,-0.009094,0.009399,-0.992676,0.251389,0.523969,-0.100458,40,273,570,4784
1644155432.074635,-0.013428,0.01123,-0.991394,0.297191,0.432366,0.082748,52,270,572,4784
1644155432.122344,-0.012146,0.007629,-0.99292,0.190321,0.462901,-0.069924,47,277,572,4784
1644155432.170725,-0.013855,0.009277,-0.993286,0.220855,0.432366,-0.054656,52,280,568,4752
1644155432.219137,-0.013428,0.009644,-0.990967,0.159786,0.340763,-0.100458,47,280,568,4816
1644155432.26745,-0.010925,0.007263,-0.990601,0.159786,0.401832,-0.054656,51,269,566,4848
1644155432.315891,-0.009644,0.009399,-0.993896,0.327725,0.462901,-0.100458,57,268,570,4816
1644155432.364295,-0.012451,0.008118,-0.992371,0.297191,0.447634,-0.039389,60,271,562,4720
1644155432.412688,-0.012085,0.010071,-0.99408,0.449863,0.417099,-0.100458,51,271,562,4816
1644155432.461076,-0.010254,0.010071,-0.990662,0.113985,0.356031,-0.25313,52,268,572,4768
1644155432.509409,-0.010193,0.010437,-0.991394,0.220855,0.24916,0.067481,51,281,571,4752
1644155432.557848,-0.01001,0.006226,-0.994629,0.205588,0.386565,-0.024122,51,266,569,4784
1644155432.606199,-0.013916,0.009644,-0.992493,0.297191,0.447634,-0.100458,45,280,570,4784
1644155432.654671,-0.013428,0.007629,-0.992004,0.266656,0.447634,-0.100458,49,270,565,4672
1644155432.702956,-0.008606,0.008545,-0.991882,0.068183,0.340763,-0.069924,52,275,577,4784
1644155432.751356,-0.014343,0.009888,-0.993347,0.281924,0.539237,-0.100458,53,274,576,4848
1644155432.799721,-0.012268,0.007996,-0.994751,0.236122,0.279695,-0.161527,42,270,570,4720
1644155432.848161,-0.009033,0.008667,-0.992615,0.266656,0.386565,-0.054656,41,269,569,4784
1644155432.89652,-0.007324,0.009277,-0.992737,0.312458,0.356031,-0.161527,57,273,577,4784
1644155432.94631,-0.010254,0.008057,-0.993225,0.205588,0.356031,-0.176794,43,271,571,4720
1644155432.996188,-0.011414,0.009705,-0.990784,0.159786,0.294962,-0.161527,52,280,570,4816
1644155433.090068,-0.010681,0.008301,-0.990906,0.297191,0.203359,-0.192061,53,283,569,4816
1644155433.138396,-0.012329,0.009033,-0.990723,0.312458,0.478168,-0.14626,45,273,582,4784
1644155433.186822,-0.014587,0.008057,-0.992859,0.144519,0.462901,-0.161527,47,273,572,4656
1644155433.235194,-0.011597,0.009033,-0.994019,0.251389,0.371298,-0.054656,43,271,566,4816
1644155433.283589,-0.011475,0.011841,-0.99292,0.327725,0.386565,0.036947,45,263,572,4720
1644155433.331955,-0.010193,0.009277,-0.992554,0.236122,0.310229,-0.207328,48,269,566,4816
1644155433.380367,-0.012573,0.00946,-0.992126,0.236122,0.523969,0.006412,43,271,566,4816
1644155433.428772,-0.011475,0.006531,-0.990295,0.08345,0.233893,-0.237863,53,274,571,4784
1644155433.477155,-0.009521,0.007812,-0.989075,0.159786,0.462901,-0.069924,49,275,568,4848
1644155433.525494,-0.008301,0.010254,-0.990906,0.373527,0.417099,-0.237863,52,277,570,4752
1644155433.573936,-0.01355,0.009338,-0.994324,0.236122,0.371298,-0.237863,41,269,566,4816
1644155433.622317,-0.010681,0.006775,-0.991577,0.266656,0.371298,-0.14626,47,270,568,4752
1644155433.670684,-0.010925,0.008484,-0.992676,0.159786,0.508702,-0.207328,52,270,577,4848
1644155433.71908,-0.014648,0.008911,-0.989563,0.373527,0.462901,-0.115725,48,271,576,4704
1644155433.767452,-0.014587,0.008484,-0.98938,0.236122,0.325496,-0.14626,51,274,578,4848
1644155433.81588,-0.008362,0.007141,-0.994324,0.312458,0.417099,-0.069924,58,264,578,4720
1644155433.86427,-0.010132,0.009888,-0.990417,0.281924,0.523969,-0.115725,64,277,572,4816
1644155433.912666,-0.014282,0.009216,-0.992371,0.175053,0.554504,-0.039389,60,279,576,4752
1644155433.961028,-0.011719,0.010437,-0.99054,0.052916,0.508702,-0.039389,49,270,572,4784
1644155434.065303,-0.01355,0.007629,-0.994751,0.190321,0.340763,-0.14626,47,280,570,4880
1644155434.1062,-0.014648,0.007935,-0.992981,0.190321,0.63084,0.098015,43,279,573,4768
1644155434.15453,-0.013733,0.00824,-0.99054,0.327725,0.585038,-0.024122,55,274,576,4672
1644155434.202956,-0.012817,0.007751,-0.992188,0.236122,0.447634,-0.115725,47,268,575,4816
1644155434.251286,-0.011475,0.009766,-0.98999,0.312458,0.401832,-0.054656,48,274,571,4816
1644155434.299731,-0.01001,0.007568,-0.993164,0.236122,0.386565,-0.100458,39,271,566,4848
1644155434.348119,-0.008423,0.009033,-0.992126,0.342992,0.523969,-0.008855,54,273,570,4784
1644155434.396474,-0.010437,0.011902,-0.99231,0.251389,0.600305,0.021679,47,285,570,4720
1644155434.444879,-0.016418,0.007446,-0.991272,0.434595,0.447634,-0.054656,47,277,565,4784
1644155434.493252,-0.011353,0.009216,-0.99054,0.098718,0.386565,-0.039389,40,273,575,4848
1644155434.541661,-0.008606,0.008545,-0.99231,0.251389,0.340763,-0.222595,48,266,576,4784
1644155434.590043,-0.012268,0.007751,-0.993042,0.113985,0.386565,-0.176794,54,273,561,4784
1644155434.63845,-0.014282,0.009705,-0.99292,0.297191,0.310229,-0.085191,48,266,573,4720
1644155434.686806,-0.010376,0.008301,-0.991577,0.251389,0.554504,-0.069924,51,262,566,4816
1644155434.735205,-0.012085,0.006897,-0.993164,0.175053,0.340763,-0.207328,42,275,575,4784
1644155434.783542,-0.011841,0.004089,-0.994324,0.159786,0.401832,0.006412,46,276,566,4832
1644155434.832732,-0.014709,0.007202,-0.993713,0.281924,0.447634,-0.054656,51,274,571,4720
1644155434.882455,-0.01355,0.007019,-0.996216,0.190321,0.447634,-0.237863,59,282,570,4672
1644155434.929717,-0.010864,0.009277,-0.992798,0.419328,0.493435,0.036947,52,275,565,4816
1644155435.025521,-0.011902,0.009521,-0.991516,0.266656,0.508702,-0.161527,41,271,566,4672
1644155435.073981,-0.012695,0.010437,-0.991333,0.373527,0.386565,-0.024122,49,275,579,4816
1644155435.122341,-0.010864,0.008972,-0.98999,0.236122,0.325496,-0.100458,43,276,564,4784
1644155435.170649,-0.011536,0.009827,-0.992188,0.098718,0.462901,-0.100458,47,265,575,4768
1644155435.219034,-0.01239,0.008118,-0.989929,0.129252,0.432366,-0.069924,60,279,564,4672
1644155435.267422,-0.013855,0.009644,-0.992737,0.388794,0.493435,-0.100458,55,266,576,4784
1644155435.315835,-0.014526,0.007507,-0.993164,0.342992,0.478168,-0.039389,48,274,583,4816
1644155435.364235,-0.013,0.008301,-0.991333,0.220855,0.539237,-0.161527,39,266,564,4704
1644155435.412625,-0.010925,0.011902,-0.989319,0.236122,0.417099,-0.100458,52,273,575,4832
1644155435.461001,-0.009949,0.007263,-0.992249,0.236122,0.478168,-0.14626,53,271,569,4784
1644155435.509365,-0.011902,0.007141,-0.993591,0.251389,0.523969,0.098015,46,274,566,4784
1644155435.557762,-0.012329,0.006592,-0.992859,0.312458,0.462901,-0.130992,47,285,568,4832
1644155435.606154,-0.012146,0.007385,-0.993042,0.175053,0.401832,-0.115725,47,268,563,4704
1644155435.654541,-0.008301,0.007874,-0.991882,0.190321,0.386565,-0.161527,51,274,583,4816
1644155435.702922,-0.014038,0.010681,-0.99115,0.205588,0.310229,0.052214,49,277,577,4720
1644155435.751308,-0.013916,0.007629,-0.992554,0.297191,0.508702,-0.237863,55,271,564,4784
1644155435.799708,-0.013611,0.006531,-0.993774,0.342992,0.493435,0.082748,59,273,563,4784
1644155435.848104,-0.012268,0.008911,-0.993164,0.327725,0.310229,-0.130992,52,270,582,4784
1644155435.89652,-0.014526,0.009216,-0.992859,0.190321,0.386565,-0.069924,49,258,572,4816
1644155435.944878,-0.011902,0.012085,-0.993835,0.312458,0.554504,-0.054656,49,277,565,4848
1644155435.994255,-0.011292,0.008911,-0.992432,0.251389,0.508702,-0.100458,48,283,571,4784
1644155436.044371,-0.015442,0.010071,-0.992859,0.236122,0.417099,-0.054656,40,268,570,4832
1644155436.138436,-0.01062,0.00885,-0.992981,0.312458,0.462901,-0.024122,54,270,565,4672
1644155436.186789,-0.01178,0.010071,-0.991821,0.342992,0.447634,0.052214,46,271,569,4720
1644155436.235155,-0.015442,0.00885,-0.990662,0.159786,0.386565,0.036947,47,282,575,4832
1644155436.283536,-0.01355,0.006897,-0.991699,0.251389,0.340763,-0.222595,40,277,568,4720
1644155436.331937,-0.013611,0.007019,-0.99292,0.388794,0.447634,-0.069924,54,275,565,4880
1644155436.380348,-0.012024,0.00885,-0.993591,0.220855,0.493435,-0.100458,47,277,570,4784
1644155436.428745,-0.011536,0.009033,-0.995117,0.327725,0.432366,-0.237863,39,281,571,4784
1644155436.477081,-0.012939,0.008362,-0.99292,0.327725,0.462901,-0.039389,55,269,578,4784
1644155436.525496,-0.012939,0.009338,-0.990601,0.373527,0.523969,-0.176794,43,269,562,4720
1644155436.573875,-0.012817,0.009949,-0.99469,0.159786,0.508702,0.006412,51,281,566,4704
1644155436.622257,-0.011169,0.010925,-0.993225,0.327725,0.417099,-0.024122,51,274,557,4768
1644155436.670658,-0.013062,0.007202,-0.994446,0.35826,0.493435,0.006412,53,286,571,4848
1644155436.719037,-0.01239,0.008423,-0.992188,0.205588,0.707176,-0.207328,54,275,570,4784
1644155436.76742,-0.013306,0.008545,-0.991089,0.159786,0.646107,0.021679,55,279,569,4832
1644155436.815832,-0.01178,0.007141,-0.993225,0.113985,0.356031,-0.039389,41,266,566,4704
1644155436.864234,-0.009827,0.008118,-0.991577,0.236122,0.600305,-0.115725,53,274,569,4768
1644155436.912655,-0.011353,0.004395,-0.993896,0.159786,0.447634,-0.130992,66,275,575,4752
1644155436.960994,-0.011353,0.005981,-0.992798,0.419328,0.462901,-0.039389,45,280,572,4816
1644155437.009398,-0.013916,0.009827,-0.992859,0.297191,0.386565,-0.14626,48,269,576,4720
1644155437.106136,-0.014282,0.006531,-0.993835,0.419328,0.462901,-0.130992,48,283,578,4816
1644155437.154918,-0.012756,0.007324,-0.992981,0.434595,0.432366,-0.069924,47,275,565,4672
1644155437.202939,-0.013611,0.005371,-0.993835,0.312458,0.386565,-0.085191,51,274,566,4832
1644155437.251297,-0.013855,0.004883,-0.995239,0.175053,0.447634,-0.069924,49,270,575,4816
1644155437.299696,-0.008728,0.006348,-0.993652,0.266656,0.386565,-0.115725,42,275,572,4784
1644155437.34806,-0.013733,0.008362,-0.993103,0.251389,0.356031,-0.130992,46,279,559,4720
1644155437.396482,-0.010559,0.008667,-0.993713,0.419328,0.447634,0.006412,52,280,565,4848
1644155437.444864,-0.015747,0.007935,-0.992493,0.129252,0.508702,-0.069924,45,277,579,4784
1644155437.493229,-0.01355,0.009827,-0.994995,0.297191,0.447634,0.052214,36,271,569,4880
1644155437.541623,-0.015503,0.007263,-0.994263,0.236122,0.386565,-0.100458,48,271,566,4848
1644155437.590005,-0.012024,0.010376,-0.993469,0.220855,0.432366,-0.14626,43,269,569,4848
1644155437.638388,-0.008728,0.009216,-0.993042,0.342992,0.294962,-0.039389,48,269,580,4816
1644155437.686788,-0.012085,0.006531,-0.99408,0.312458,0.478168,-0.100458,54,260,572,4816
1644155437.735238,-0.014221,0.008667,-0.995361,0.205588,0.401832,-0.192061,48,276,569,4704
1644155437.783551,-0.012451,0.007019,-0.994019,0.342992,0.371298,-0.192061,46,276,566,4832
1644155437.831926,-0.014771,0.012268,-0.992859,0.175053,0.539237,-0.176794,52,273,572,4784
1644155437.882663,-0.012878,0.007874,-0.989868,0.144519,0.493435,-0.283664,51,279,564,4720
1644155437.929245,-0.013489,0.008057,-0.990845,0.251389,0.340763,-0.024122,60,274,573,4848
1644155438.025522,-0.011353,0.005798,-0.992432,0.266656,0.493435,-0.14626,49,268,565,4672
1644155438.075185,-0.012634,0.006592,-0.992188,0.297191,0.264427,-0.115725,60,271,571,4784
1644155438.122315,-0.009399,0.007385,-0.992493,0.35826,0.279695,-0.14626,51,274,564,4784
1644155438.17065,-0.01062,0.007996,-0.993469,0.297191,0.462901,-0.085191,46,274,573,4784
1644155438.219085,-0.01062,0.009949,-0.99469,0.342992,0.493435,0.067481,48,274,571,4848
1644155438.26744,-0.013489,0.008789,-0.992737,0.190321,0.401832,-0.008855,51,276,569,4704
1644155438.315848,-0.014526,0.007629,-0.990295,0.297191,0.417099,-0.207328,46,271,571,4720
1644155438.364255,-0.011353,0.008362,-0.995239,0.144519,0.371298,-0.161527,52,275,572,4816
1644155438.412621,-0.012451,0.007385,-0.9953,0.434595,0.462901,-0.283664,40,258,572,4784
1644155438.461024,-0.013977,0.011047,-0.993896,0.266656,0.356031,-0.069924,51,283,566,4816
1644155438.50939,-0.011597,0.007446,-0.993835,0.342992,0.447634,-0.069924,53,276,564,4816
1644155438.557771,-0.015808,0.006287,-0.994446,0.327725,0.371298,0.12855,58,269,571,4784
1644155438.606195,-0.011963,0.006409,-0.993958,0.281924,0.569771,-0.115725,54,268,575,4816
1644155438.65454,-0.010559,0.009705,-0.993225,0.113985,0.279695,-0.085191,58,279,564,4720
1644155438.702965,-0.013794,0.008667,-0.992798,0.220855,0.493435,0.021679,57,275,563,4848
1644155438.751296,-0.014099,0.009521,-0.991394,0.220855,0.432366,-0.14626,57,275,568,4816
1644155438.799674,-0.012756,0.012024,-0.992432,0.281924,0.432366,-0.008855,51,274,569,4720
1644155438.848109,-0.010681,0.012756,-0.993958,0.342992,0.279695,0.021679,47,270,575,4720
1644155438.896446,-0.012817,0.009033,-0.991333,0.266656,0.386565,-0.130992,52,280,575,4848
1644155438.944889,-0.012268,0.00885,-0.990662,0.236122,0.325496,-0.085191,42,273,579,4848
1644155438.993644,-0.01355,0.01178,-0.992004,0.388794,0.447634,-0.054656,53,274,566,4704
1644155439.043948,-0.011169,0.009644,-0.995483,0.281924,0.401832,-0.039389,49,268,568,4720
1644155439.091473,-0.01416,0.005432,-0.99176,0.129252,0.447634,-0.161527,47,275,577,4816
1644155439.186746,-0.011536,0.011597,-0.991333,0.342992,0.310229,0.006412,54,263,570,4816
1644155439.235212,-0.009521,0.005615,-0.994873,0.251389,0.417099,-0.008855,55,271,571,4848
1644155439.283512,-0.014587,0.007507,-0.99408,0.251389,0.401832,-0.100458,43,274,566,4816
1644155439.331953,-0.012939,0.007019,-0.993347,0.342992,0.386565,-0.207328,57,277,570,4816
1644155439.380332,-0.015076,0.008606,-0.994263,0.220855,0.508702,-0.207328,53,279,571,4848
1644155439.428686,-0.013367,0.00708,-0.991028,0.480397,0.478168,-0.008855,48,271,576,4784
1644155439.477089,-0.011658,0.007019,-0.992676,0.266656,0.478168,0.113282,46,271,569,4720
1644155439.525474,-0.011536,0.00885,-0.992371,0.312458,0.523969,-0.192061,49,270,570,4816
1644155439.573875,-0.013672,0.008545,-0.992065,0.419328,0.508702,-0.25313,43,279,566,4720
1644155439.622237,-0.010193,0.006348,-0.993958,0.190321,0.401832,-0.085191,43,264,573,4816
1644155439.670617,-0.011902,0.008118,-0.994507,0.266656,0.417099,-0.115725,49,277,579,4880
1644155439.719054,-0.010803,0.009521,-0.993286,0.159786,0.340763,-0.085191,51,269,573,4832
1644155439.767389,-0.009216,0.007324,-0.990967,0.220855,0.401832,0.098015,49,275,572,4672
1644155439.81582,-0.012756,0.008545,-0.992737,0.373527,0.523969,-0.069924,60,271,559,4768
1644155439.864235,-0.013,0.003723,-0.993103,0.190321,0.447634,-0.14626,49,285,572,4848
1644155439.912599,-0.012512,0.008484,-0.994507,0.297191,0.493435,-0.054656,43,269,569,4720
1644155439.961003,-0.011841,0.009094,-0.993042,0.373527,0.462901,-0.054656,52,273,570,4848
1644155440.009347,-0.011414,0.008545,-0.991821,0.220855,0.432366,0.036947,48,276,576,4704
1644155440.079664,-0.012451,0.007385,-0.993591,0.113985,0.340763,-0.115725,58,269,571,4752
1644155440.106141,-0.014709,0.010071,-0.993835,0.373527,0.371298,-0.039389,54,275,565,4784
1644155440.154507,-0.014648,0.007324,-0.992126,0.342992,0.478168,-0.115725,49,270,572,4784
1644155440.204024,-0.012146,0.009033,-0.993835,0.297191,0.233893,-0.069924,51,269,562,4784
1644155440.251658,-0.008911,0.007812,-0.99176,0.297191,0.646107,-0.130992,55,271,573,4784
1644155440.348026,-0.013367,0.009277,-0.992249,0.190321,0.432366,-0.008855,46,274,569,4720
1644155440.396434,-0.010376,0.008118,-0.99176,0.312458,0.386565,0.021679,41,281,569,4848
1644155440.444832,-0.011902,0.007751,-0.991394,0.297191,0.600305,-0.14626,42,273,577,4816
1644155440.493185,-0.011597,0.011292,-0.990906,0.251389,0.615573,-0.115725,48,274,571,4784
1644155440.541611,-0.012268,0.006348,-0.993225,0.297191,0.371298,-0.14626,51,271,573,4768
1644155440.589998,-0.010437,0.009583,-0.991272,0.297191,0.493435,-0.207328,52,270,565,4784
1644155440.638393,-0.012146,0.005249,-0.991455,0.266656,0.539237,-0.069924,53,269,571,4848
1644155440.686732,-0.009338,0.009338,-0.992188,0.205588,0.600305,-0.024122,53,271,569,4784
1644155440.735217,-0.011169,0.00531,-0.99176,0.190321,0.462901,-0.161527,45,273,570,4832
1644155440.783548,-0.011108,0.008057,-0.991333,0.281924,0.508702,-0.115725,49,285,575,4784
1644155440.831963,-0.012573,0.007385,-0.993286,0.266656,0.493435,-0.283664,52,260,561,4672
1644155440.880317,-0.013489,0.007629,-0.991455,0.098718,0.401832,-0.237863,51,266,566,4720
1644155440.928721,-0.010864,0.010925,-0.993713,0.281924,0.432366,-0.115725,45,282,572,4784
1644155440.97713,-0.012512,0.010437,-0.994568,0.312458,0.417099,0.021679,48,269,571,4832
1644155441.025478,-0.012939,0.008789,-0.993713,0.236122,0.356031,-0.130992,54,273,563,4784
1644155441.085599,-0.013489,0.008362,-0.99231,0.220855,0.523969,-0.039389,51,279,576,4832
1644155441.122245,-0.014709,0.008972,-0.993652,0.541466,0.401832,-0.008855,52,263,572,4848
1644155441.170782,-0.012207,0.007202,-0.991943,0.190321,0.493435,-0.222595,53,264,569,4784
1644155441.221074,-0.00946,0.00946,-0.993164,0.373527,0.554504,-0.069924,42,268,563,4720
1644155441.26861,-0.012085,0.005737,-0.993713,0.129252,0.478168,-0.085191,49,273,563,4816
1644155441.364185,-0.011108,0.007935,-0.994507,0.327725,0.523969,-0.054656,47,268,572,4752
1644155441.412571,-0.009033,0.009155,-0.992615,0.266656,0.371298,-0.207328,42,265,561,4784
1644155441.460921,-0.010742,0.010254,-0.991882,0.480397,0.523969,-0.008855,38,268,565,4720
1644155441.50927,-0.014648,0.00592,-0.987793,0.35826,0.493435,-0.085191,60,266,562,4768
1644155441.557723,-0.011536,0.010742,-0.99469,0.281924,0.371298,0.021679,49,275,561,4816
1644155441.60611,-0.013,0.008179,-0.992493,0.281924,0.417099,-0.069924,55,266,573,4848
1644155441.654481,-0.012207,0.006287,-0.994019,0.205588,0.325496,-0.024122,51,274,573,4816
1644155441.702866,-0.012695,0.007935,-0.992737,0.175053,0.493435,-0.115725,43,271,569,4784
1644155441.751265,-0.016174,0.007935,-0.991455,0.46513,0.523969,0.021679,55,269,580,4720
1644155441.79967,-0.012024,0.009705,-0.993591,0.220855,0.401832,-0.130992,49,273,572,4832
1644155441.848079,-0.01123,0.009827,-0.993042,0.327725,0.417099,-0.237863,51,274,559,4832
1644155441.896481,-0.011719,0.008057,-0.993896,0.297191,0.279695,-0.115725,59,280,565,4816
1644155441.944863,-0.009338,0.00946,-0.992859,0.312458,0.493435,-0.25313,53,271,569,4720
1644155441.99324,-0.013916,0.010437,-0.993652,0.297191,0.432366,-0.069924,54,280,570,4880
1644155442.041642,-0.01239,0.002625,-0.99231,0.312458,0.539237,0.036947,53,274,569,4720
1644155442.089973,-0.012512,0.009155,-0.993774,0.113985,0.294962,-0.054656,47,275,570,4720
1644155442.138322,-0.010803,0.008362,-0.990601,0.266656,0.707176,0.036947,47,275,570,4816
1644155442.186759,-0.013855,0.009216,-0.991943,0.388794,0.493435,0.021679,48,264,564,4784
1644155442.235188,-0.009155,0.00647,-0.995911,0.266656,0.371298,-0.115725,61,273,568,4816
1644155442.283515,-0.011658,0.006409,-0.991272,0.220855,0.356031,-0.130992,58,276,566,4784
1644155442.331897,-0.015137,0.006714,-0.994751,0.159786,0.371298,-0.008855,52,270,572,4784
1644155442.381502,-0.010986,0.008057,-0.993408,0.388794,0.371298,-0.100458,51,276,566,4720
1644155442.429197,-0.009644,0.00824,-0.992432,0.312458,0.508702,-0.054656,47,280,575,4848
1644155442.525426,-0.012695,0.008179,-0.994446,0.190321,0.508702,-0.008855,52,265,568,4832
1644155442.573818,-0.012146,0.008667,-0.992981,0.266656,0.508702,0.021679,48,276,573,4816
1644155442.622236,-0.014404,0.011475,-0.993652,0.434595,0.401832,-0.024122,51,269,573,4880
1644155442.670591,-0.012695,0.008362,-0.991455,0.236122,0.279695,-0.14626,43,269,566,4720
1644155442.718974,-0.013977,0.008606,-0.994446,0.190321,0.523969,-0.100458,49,275,568,4848
1644155442.767326,-0.010254,0.006531,-0.993591,0.297191,0.523969,-0.100458,55,269,576,4832
1644155442.815766,-0.011475,0.007141,-0.992493,0.251389,0.340763,-0.039389,43,274,576,4816
1644155442.864206,-0.014771,0.009155,-0.993591,0.35826,0.554504,-0.161527,53,274,562,4784
1644155442.912599,-0.013916,0.006531,-0.990662,0.281924,0.386565,-0.100458,48,271,569,4784
1644155442.960973,-0.013184,0.007019,-0.992981,0.373527,0.523969,-0.024122,47,280,579,4880
1644155443.009348,-0.010681,0.006348,-0.992737,0.098718,0.447634,-0.054656,54,273,575,4720
1644155443.063727,-0.012268,0.009949,-0.99231,0.220855,0.325496,-0.192061,40,268,568,4752
1644155443.10615,-0.00946,0.008667,-0.989502,0.205588,0.401832,0.174351,46,276,571,4848
1644155443.154494,-0.010986,0.008728,-0.992126,0.388794,0.386565,0.052214,51,271,564,4784
1644155443.202881,-0.01062,0.008728,-0.995117,0.404061,0.447634,-0.25313,45,265,575,4848
1644155443.251247,-0.011658,0.006409,-0.993713,0.175053,0.356031,-0.085191,58,266,571,4816
1644155443.299646,-0.01239,0.010742,-0.992004,0.480397,0.432366,0.006412,47,280,565,4784
1644155443.34798,-0.014038,0.007324,-0.994263,0.159786,0.539237,-0.14626,46,269,573,4784
1644155443.396379,-0.012146,0.006958,-0.992188,0.236122,0.432366,-0.222595,45,280,575,4816
1644155443.444802,-0.014465,0.008667,-0.991516,0.419328,0.493435,-0.024122,58,264,566,4816
1644155443.493561,-0.013977,0.006287,-0.995422,0.266656,0.523969,-0.008855,57,277,579,4816
1644155443.543231,-0.011292,0.008667,-0.992615,0.220855,0.478168,-0.085191,45,268,565,4832
1644155443.590891,-0.013245,0.006958,-0.995056,0.342992,0.310229,-0.100458,54,277,575,4784
1644155443.686728,-0.009338,0.008911,-0.994629,0.342992,0.264427,0.006412,55,279,573,4784
1644155443.735188,-0.013428,0.008118,-0.991577,0.281924,0.569771,-0.039389,52,263,570,4784
1644155443.783484,-0.012268,0.012207,-0.99353,0.175053,0.432366,-0.054656,57,263,577,4816
1644155443.831861,-0.01178,0.00824,-0.993896,0.220855,0.447634,-0.115725,40,277,582,4672
1644155443.880304,-0.013733,0.007141,-0.993286,0.251389,0.401832,0.021679,58,274,578,4784
1644155443.928712,-0.008972,0.009888,-0.993042,0.159786,0.63084,-0.069924,46,271,566,4816
1644155443.977077,-0.012634,0.010376,-0.992798,0.190321,0.478168,-0.069924,52,265,572,4816
1644155444.025443,-0.011536,0.009094,-0.990662,0.404061,0.493435,-0.130992,55,276,566,4720
1644155444.073948,-0.013977,0.008911,-0.992188,0.220855,0.478168,-0.207328,53,283,583,4784
1644155444.122285,-0.013489,0.00769,-0.994263,0.175053,0.462901,-0.161527,55,274,569,4720
1644155444.170594,-0.013062,0.006958,-0.992432,0.388794,0.310229,0.036947,42,268,570,4784
1644155444.219004,-0.012329,0.006592,-0.993042,0.236122,0.539237,-0.14626,57,273,565,4848
1644155444.267348,-0.012451,0.008484,-0.993591,0.281924,0.386565,-0.039389,47,268,584,4720
1644155444.31575,-0.012146,0.009705,-0.992188,0.251389,0.371298,-0.14626,47,277,570,4784
1644155444.364158,-0.011658,0.010193,-0.990356,0.220855,0.386565,-0.176794,49,270,577,4784
1644155444.412548,-0.012329,0.007507,-0.992798,0.144519,0.417099,0.006412,49,282,575,4768
1644155444.460927,-0.010376,0.006897,-0.992249,0.236122,0.356031,-0.130992,42,275,568,4704
1644155444.509294,-0.011597,0.009521,-0.992004,0.220855,0.462901,-0.207328,48,269,569,4784
1644155444.557709,-0.010742,0.007629,-0.989319,0.297191,0.371298,-0.085191,48,269,569,4720
1644155444.606096,-0.012207,0.007874,-0.991943,0.190321,0.447634,-0.039389,53,271,578,4848
1644155444.654453,-0.013916,0.010071,-0.99353,0.266656,0.386565,0.036947,46,276,569,4816
1644155444.704104,-0.008972,0.009338,-0.989868,0.449863,0.432366,0.006412,62,271,566,4720
1644155444.751796,-0.013489,0.009033,-0.99353,0.495664,0.417099,0.098015,45,275,572,4784
1644155444.848,-0.007996,0.007324,-0.992188,0.220855,0.462901,0.006412,47,268,579,4784
1644155444.896398,-0.012146,0.008789,-0.992371,0.281924,0.218626,-0.192061,55,271,578,4848
1644155444.944846,-0.013855,0.007324,-0.990479,0.266656,0.371298,-0.069924,59,280,575,4832
1644155444.99323,-0.011169,0.010193,-0.991516,0.159786,0.340763,-0.039389,53,269,569,4816
1644155445.041601,-0.009949,0.00708,-0.994202,0.175053,0.615573,-0.069924,58,274,573,4720
1644155445.090019,-0.010071,0.007812,-0.99231,0.220855,0.401832,-0.100458,48,276,576,4752
1644155445.138395,-0.008362,0.00885,-0.991089,0.327725,0.447634,-0.054656,55,266,566,4672
1644155445.186779,-0.014465,0.007019,-0.991516,0.327725,0.356031,-0.192061,48,271,580,4784
1644155445.235216,-0.009705,0.006714,-0.991943,0.35826,0.462901,-0.100458,54,275,572,4672
1644155445.283506,-0.013184,0.006165,-0.99231,0.312458,0.401832,-0.207328,47,287,572,4720
1644155445.331918,-0.011963,0.008667,-0.98938,0.297191,0.478168,-0.115725,59,270,577,4768
1644155445.380301,-0.013977,0.007385,-0.995117,0.297191,0.478168,-0.085191,49,268,572,4784
1644155445.428705,-0.012146,0.007812,-0.994812,0.220855,0.371298,0.036947,47,273,570,4720
1644155445.477098,-0.011658,0.009277,-0.99176,0.312458,0.401832,-0.100458,46,274,573,4848
1644155445.525485,-0.011353,0.009827,-0.993164,0.297191,0.462901,-0.039389,42,285,572,4752
1644155445.573853,-0.011719,0.006958,-0.99176,0.281924,0.508702,-0.130992,45,273,568,4768
1644155445.622246,-0.010864,0.005371,-0.990723,0.312458,0.417099,-0.130992,49,275,561,4848
1644155445.671819,-0.011108,0.008789,-0.991699,0.190321,0.340763,-0.25313,46,271,566,4784
1644155445.719272,-0.009949,0.011047,-0.993896,0.159786,0.508702,-0.008855,51,266,562,4832
1644155445.81578,-0.012817,0.007385,-0.991272,0.342992,0.462901,-0.14626,42,280,570,4848
1644155445.864192,-0.009827,0.010681,-0.992126,0.266656,0.417099,-0.085191,49,277,565,4816
1644155445.912554,-0.012146,0.011353,-0.989685,0.35826,0.417099,-0.161527,57,273,565,4784
1644155445.96095,-0.010803,0.006775,-0.990234,0.251389,0.447634,-0.100458,62,274,571,4848
1644155446.009327,-0.010864,0.008667,-0.99353,0.312458,0.523969,-0.207328,48,271,569,4784
1644155446.067503,-0.012451,0.008606,-0.99176,0.266656,0.325496,-0.176794,45,270,572,4816
1644155446.1061,-0.015015,0.009094,-0.992126,0.220855,0.417099,-0.176794,35,273,565,4784
1644155446.154536,-0.012207,0.007935,-0.992737,0.327725,0.508702,-0.039389,45,287,584,4720
1644155446.202865,-0.013672,0.011169,-0.993103,0.129252,0.508702,-0.14626,55,271,569,4816
1644155446.251268,-0.013123,0.010071,-0.991882,0.236122,0.447634,-0.14626,48,274,562,4784
1644155446.299638,-0.015381,0.008911,-0.994568,0.220855,0.462901,-0.008855,51,269,571,4720
1644155446.348013,-0.013306,0.007141,-0.994385,0.220855,0.447634,-0.069924,49,273,568,4720
1644155446.396642,-0.012024,0.00708,-0.994568,0.175053,0.447634,0.036947,48,269,571,4832
1644155446.444823,-0.012207,0.008789,-0.99231,0.236122,0.371298,-0.008855,47,277,565,4816
1644155446.493199,-0.010803,0.005981,-0.99292,0.251389,0.386565,-0.039389,45,273,565,4704
1644155446.541547,-0.009827,0.007812,-0.994629,0.220855,0.539237,0.036947,39,269,571,4720
1644155446.58996,-0.012451,0.008667,-0.992615,0.266656,0.386565,-0.237863,48,266,566,4784
1644155446.638351,-0.013184,0.007385,-0.990906,0.266656,0.493435,-0.14626,55,276,566,4816
1644155446.686987,-0.013428,0.00946,-0.990417,0.35826,0.523969,-0.008855,54,275,572,4816
1644155446.737175,-0.012512,0.008606,-0.988586,0.297191,0.386565,-0.100458,41,279,564,4784
1644155446.784564,-0.010925,0.010254,-0.990234,0.327725,0.447634,-0.085191,55,271,573,4832
1644155446.88034,-0.010986,0.006409,-0.991882,0.251389,0.554504,0.036947,54,280,565,4720
1644155446.92867,-0.013184,0.009766,-0.993896,0.266656,0.585038,-0.207328,42,268,570,4816
1644155446.977035,-0.012085,0.009155,-0.993774,0.236122,0.432366,-0.085191,45,273,572,4816
1644155447.025442,-0.013428,0.006287,-0.99408,0.159786,0.478168,-0.14626,59,268,568,4720
1644155447.073915,-0.012024,0.009888,-0.992676,0.190321,0.539237,-0.25313,60,276,571,4720
1644155447.12225,-0.012634,0.010681,-0.992737,0.434595,0.371298,-0.069924,58,279,573,4816
1644155447.170614,-0.011841,0.010925,-0.991943,0.342992,0.478168,-0.024122,53,269,562,4720
1644155447.219001,-0.010254,0.007019,-0.99292,0.342992,0.462901,-0.069924,46,269,566,4816
1644155447.267372,-0.013367,0.009644,-0.98999,0.35826,0.508702,-0.069924,52,268,568,4752
1644155447.315737,-0.013306,0.009521,-0.991638,0.175053,0.401832,0.021679,54,275,565,4784
1644155447.364196,-0.013,0.008484,-0.989441,0.220855,0.462901,0.036947,48,279,571,4720
1644155447.412549,-0.01178,0.010498,-0.990723,0.144519,0.462901,-0.176794,42,280,563,4848
1644155447.46095,-0.010986,0.007507,-0.992432,0.327725,0.371298,-0.069924,49,273,572,4720
1644155447.50931,-0.015747,0.007812,-0.992249,0.175053,0.523969,0.052214,51,274,571,4720
1644155447.557728,-0.013184,0.009583,-0.993286,0.205588,0.432366,-0.100458,54,275,568,4848
1644155447.606117,-0.010254,0.006714,-0.997253,0.297191,0.493435,-0.237863,51,271,573,4816
1644155447.654472,-0.012146,0.007874,-0.993225,0.251389,0.63084,-0.085191,38,268,570,4816
1644155447.702886,-0.011353,0.005737,-0.990051,0.220855,0.447634,-0.130992,45,273,575,4720
1644155447.751213,-0.011597,0.008423,-0.993652,0.251389,0.447634,-0.085191,52,265,570,4720
1644155447.799606,-0.012878,0.008972,-0.994446,0.35826,0.462901,-0.115725,46,266,578,4720
1644155447.848599,-0.013611,0.005981,-0.992554,0.220855,0.432366,-0.008855,51,274,580,4704
1644155447.899573,-0.013794,0.006104,-0.994812,0.220855,0.294962,-0.069924,51,269,566,4816
1644155447.946354,-0.010193,0.006348,-0.992065,0.236122,0.478168,-0.069924,51,271,569,4720
1644155448.041549,-0.012817,0.008484,-0.993042,0.220855,0.493435,-0.130992,48,271,578,4848
1644155448.089934,-0.013428,0.008667,-0.992371,0.266656,0.386565,-0.054656,40,273,572,4704
1644155448.138314,-0.012329,0.008362,-0.993835,0.190321,0.356031,-0.054656,53,269,559,4816
1644155448.186706,-0.009949,0.008057,-0.991638,0.342992,0.432366,-0.054656,40,268,565,4720
1644155448.235082,-0.01062,0.006775,-0.989563,0.373527,0.508702,-0.069924,54,277,575,4816
1644155448.283475,-0.013306,0.005676,-0.992859,0.220855,0.371298,-0.054656,47,268,563,4784
1644155448.331844,-0.012329,0.006775,-0.989868,0.266656,0.432366,-0.25313,52,285,561,4752
1644155448.38027,-0.010193,0.008545,-0.989929,0.297191,0.447634,0.143817,48,259,569,4784
1644155448.428634,-0.010681,0.004395,-0.991699,0.205588,0.447634,-0.054656,46,274,569,4816
1644155448.477021,-0.012268,0.009644,-0.993408,0.175053,0.447634,-0.069924,48,274,578,4784
1644155448.525413,-0.013306,0.009583,-0.992798,0.312458,0.462901,-0.192061,40,268,572,4832
1644155448.573816,-0.00885,0.007568,-0.994507,0.236122,0.447634,-0.069924,52,273,570,4752
1644155448.622204,-0.010498,0.009583,-0.994812,0.35826,0.340763,0.052214,49,268,570,4816
1644155448.670593,-0.012512,0.006897,-0.991516,0.342992,0.462901,0.006412,46,281,573,4720
1644155448.718959,-0.010742,0.008179,-0.992981,0.205588,0.294962,-0.069924,49,270,575,4848
1644155448.767343,-0.010254,0.008972,-0.993591,0.220855,0.462901,-0.100458,51,269,569,4704
1644155448.815759,-0.013611,0.007324,-0.992065,0.220855,0.508702,-0.130992,40,273,575,4816
1644155448.864138,-0.014038,0.006958,-0.992371,0.236122,0.386565,-0.115725,58,274,571,4720
1644155448.912548,-0.013489,0.007568,-0.989197,0.220855,0.417099,-0.100458,55,271,571,4816
1644155448.960908,-0.013306,0.009094,-0.99292,0.281924,0.386565,-0.054656,57,265,575,4720
1644155449.064251,-0.009644,0.009521,-0.993286,0.190321,0.188092,-0.039389,43,276,569,4704
1644155449.106057,-0.012451,0.007446,-0.992249,0.373527,0.401832,0.006412,47,275,575,4704
1644155449.15445,-0.012329,0.00769,-0.991516,0.327725,0.478168,-0.054656,46,276,569,4816
1644155449.202801,-0.013306,0.007263,-0.992859,0.205588,0.386565,-0.176794,41,271,564,4848
1644155449.251179,-0.011047,0.009644,-0.992249,0.327725,0.478168,-0.069924,51,264,571,4784
1644155449.299595,-0.013,0.008301,-0.993713,0.236122,0.554504,-0.237863,48,271,571,4784
1644155449.347983,-0.012817,0.006042,-0.992554,0.281924,0.386565,0.036947,53,271,578,4672
1644155449.396378,-0.012756,0.008606,-0.992676,0.342992,0.340763,0.036947,48,276,569,4784
1644155449.444778,-0.010864,0.010559,-0.992371,0.342992,0.401832,-0.100458,46,281,578,4672
1644155449.493135,-0.01416,0.010803,-0.994934,0.373527,0.539237,-0.14626,51,276,571,4848
1644155449.541538,-0.011658,0.008606,-0.99115,0.297191,0.600305,-0.100458,52,280,575,4784
1644155449.589926,-0.011414,0.009094,-0.992676,0.266656,0.478168,-0.130992,57,285,577,4784
1644155449.6383,-0.011353,0.005066,-0.992615,0.266656,0.432366,0.067481,48,271,573,4720
1644155449.686675,-0.009888,0.009644,-0.991882,0.373527,0.508702,0.006412,55,281,576,4848
1644155449.735116,-0.013062,0.008057,-0.992493,0.327725,0.447634,-0.085191,49,268,568,4784
1644155449.783455,-0.011963,0.007141,-0.993103,0.281924,0.447634,-0.024122,45,277,570,4816
1644155449.831849,-0.01355,0.007812,-0.990051,0.327725,0.356031,-0.115725,51,266,573,4784
1644155449.881015,-0.01123,0.008789,-0.991333,0.113985,0.401832,0.006412,48,274,571,4784
1644155449.931347,-0.01416,0.01001,-0.993408,0.327725,0.462901,0.082748,49,270,579,4816
1644155449.978789,-0.010986,0.008057,-0.993225,0.236122,0.386565,-0.192061,55,269,578,4816
1644155450.073902,-0.01355,0.008057,-0.993469,0.190321,0.585038,0.006412,46,269,580,4784
1644155450.122199,-0.014099,0.010376,-0.991638,0.434595,0.539237,-0.222595,41,279,571,4816
1644155450.170539,-0.012756,0.009033,-0.995422,0.312458,0.401832,0.006412,42,268,563,4848
1644155450.218924,-0.01123,0.00946,-0.991333,0.312458,0.493435,-0.054656,49,280,577,4784
1644155450.267312,-0.012695,0.007812,-0.994202,0.312458,0.356031,-0.207328,55,271,573,4816
1644155450.315698,-0.013306,0.005676,-0.99353,0.342992,0.340763,-0.222595,46,271,578,4720
1644155450.364117,-0.010071,0.007263,-0.991394,0.480397,0.356031,-0.130992,43,271,569,4784
1644155450.412494,-0.010803,0.006897,-0.993713,0.159786,0.447634,-0.100458,53,262,576,4832
1644155450.460889,-0.011169,0.010681,-0.990662,0.281924,0.356031,-0.176794,58,271,573,4816
1644155450.509254,-0.012695,0.007385,-0.992065,0.236122,0.371298,-0.176794,36,274,562,4848
1644155450.557667,-0.010742,0.006531,-0.99176,0.220855,0.356031,-0.085191,62,271,569,4784
1644155450.606052,-0.009644,0.007263,-0.991394,0.266656,0.539237,0.036947,45,273,572,4720
1644155450.654402,-0.01001,0.011292,-0.993835,0.251389,0.493435,-0.085191,46,274,571,4784
1644155450.702818,-0.009094,0.00885,-0.993103,0.236122,0.356031,-0.161527,48,271,566,4816
1644155450.751129,-0.010437,0.010132,-0.992676,0.159786,0.478168,-0.115725,45,275,577,4848
1644155450.799593,-0.011475,0.009521,-0.993835,0.297191,0.478168,-0.024122,48,276,571,4816
1644155450.848058,-0.011719,0.009338,-0.993591,0.236122,0.401832,-0.085191,55,264,571,4848
1644155450.896439,-0.013428,0.00885,-0.991577,0.312458,0.325496,-0.115725,42,275,563,4832
1644155450.944782,-0.012878,0.008362,-0.992615,0.037649,0.401832,-0.039389,58,281,559,4784
1644155450.993135,-0.01239,0.010437,-0.991638,0.266656,0.493435,-0.085191,42,270,577,4784
1644155451.041948,-0.01532,0.008911,-0.990845,0.373527,0.340763,0.067481,48,276,580,4784
1644155451.093831,-0.011169,0.0047,-0.992126,0.266656,0.356031,-0.192061,53,271,573,4720
1644155451.139368,-0.011475,0.007324,-0.992188,0.281924,0.447634,-0.14626,47,277,570,4880
1644155451.235141,-0.014771,0.007629,-0.992615,0.327725,0.371298,-0.115725,43,266,566,4784
1644155451.283431,-0.011169,0.008972,-0.996948,0.251389,0.310229,-0.130992,58,276,576,4720
1644155451.331837,-0.015625,0.010071,-0.994873,0.266656,0.478168,-0.085191,53,274,569,4832
1644155451.380164,-0.009583,0.006165,-0.992493,0.434595,0.310229,0.036947,49,263,563,4720
1644155451.428588,-0.013855,0.00824,-0.993225,0.281924,0.539237,-0.115725,47,270,572,4720
1644155451.476996,-0.01123,0.010986,-0.992981,0.175053,0.554504,-0.039389,39,274,569,4720
1644155451.525378,-0.013245,0.008118,-0.994934,0.281924,0.371298,-0.100458,35,260,570,4720
1644155451.573781,-0.010986,0.00946,-0.992249,0.388794,0.508702,0.143817,54,268,563,4832
1644155451.62217,-0.014893,0.007202,-0.995239,0.144519,0.279695,-0.008855,48,274,576,4784
1644155451.670526,-0.015869,0.00946,-0.992065,0.220855,0.432366,-0.14626,48,266,569,4848
1644155451.718938,-0.014648,0.007812,-0.99231,0.022382,0.508702,-0.039389,40,268,563,4816
1644155451.767308,-0.012512,0.007874,-0.992371,0.35826,0.371298,-0.069924,54,270,572,4784
1644155451.815699,-0.010925,0.007629,-0.991394,0.312458,0.325496,-0.115725,49,275,563,4816
1644155451.864179,-0.013367,0.009155,-0.991516,0.46513,0.417099,-0.161527,48,271,571,4816
1644155451.912524,-0.01178,0.008301,-0.99292,0.342992,0.63084,-0.161527,51,269,569,4848
1644155451.960917,-0.011841,0.011169,-0.991028,0.327725,0.508702,0.052214,51,276,569,4848
1644155452.009225,-0.012756,0.005127,-0.994385,0.388794,0.447634,-0.039389,43,276,569,4784
1644155452.068149,-0.012329,0.008667,-0.992371,0.236122,0.417099,-0.115725,48,266,569,4784
1644155452.106075,-0.013123,0.003357,-0.994629,0.190321,0.294962,-0.069924,40,265,570,4784
1644155452.154427,-0.012024,0.009216,-0.9953,0.327725,0.447634,-0.085191,39,266,573,4816
1644155452.202804,-0.00946,0.006897,-0.990906,0.297191,0.447634,0.067481,62,276,566,4784
1644155452.252632,-0.011414,0.00885,-0.99115,0.159786,0.478168,-0.176794,46,264,557,4784
1644155452.300356,-0.009583,0.005615,-0.994507,0.236122,0.432366,-0.085191,45,275,561,4784
1644155452.396354,-0.011902,0.007019,-0.992371,0.388794,0.447634,-0.054656,43,271,566,4816
1644155452.444711,-0.013367,0.009155,-0.993164,0.159786,0.417099,0.098015,48,279,566,4720
1644155452.493086,-0.014221,0.006409,-0.995483,0.312458,0.340763,-0.054656,55,271,566,4672
1644155452.541485,-0.01123,0.010071,-0.992981,0.312458,0.600305,-0.115725,51,274,564,4720
1644155452.58988,-0.011658,0.009277,-0.993103,0.190321,0.356031,-0.024122,43,266,569,4768
1644155452.638232,-0.011841,0.006531,-0.99231,0.373527,0.310229,-0.237863,52,270,568,4720
1644155452.686665,-0.009277,0.008179,-0.99231,0.205588,0.24916,-0.14626,43,279,569,4784
1644155452.735118,-0.009949,0.007446,-0.99353,0.327725,0.417099,-0.268397,54,268,568,4720
1644155452.783458,-0.015076,0.007507,-0.992554,0.251389,0.462901,-0.024122,41,266,573,4816
1644155452.831815,-0.012695,0.007812,-0.993835,0.327725,0.554504,-0.085191,43,266,566,4784
1644155452.880303,-0.012939,0.008362,-0.994446,0.342992,0.478168,0.021679,52,273,561,4816
1644155452.928641,-0.012512,0.009277,-0.992249,0.190321,0.478168,0.082748,47,273,561,4720
1644155452.977045,-0.012268,0.008484,-0.994934,0.297191,0.340763,-0.192061,46,281,578,4816
1644155453.025418,-0.012756,0.008972,-0.993347,0.281924,0.340763,0.036947,43,269,571,4784
1644155453.084458,-0.013977,0.007812,-0.992004,0.342992,0.447634,0.098015,47,277,575,4848
1644155453.122207,-0.012817,0.010925,-0.993591,0.35826,0.401832,-0.069924,61,277,570,4720
1644155453.172537,-0.015076,0.011353,-0.99176,0.342992,0.493435,-0.161527,47,268,572,4784
1644155453.220114,-0.013611,0.009033,-0.992188,0.281924,0.508702,-0.268397,46,274,566,4848
1644155453.315719,-0.011597,0.006348,-0.990112,0.175053,0.462901,-0.237863,59,265,570,4816
1644155453.364119,-0.011536,0.009033,-0.993835,0.144519,0.356031,-0.237863,52,265,570,4848
1644155453.412522,-0.012451,0.009521,-0.99408,0.266656,0.371298,-0.039389,52,263,570,4816
1644155453.460866,-0.01355,0.010315,-0.993713,0.342992,0.371298,-0.237863,53,271,573,4784
1644155453.509275,-0.01178,0.008667,-0.990906,0.236122,0.462901,-0.054656,49,268,577,4816
1644155453.557659,-0.011047,0.008057,-0.994812,0.419328,0.310229,-0.115725,52,280,579,4816
1644155453.606062,-0.011292,0.00708,-0.992188,0.35826,0.371298,-0.085191,41,281,569,4784
1644155453.654458,-0.011841,0.009644,-0.994446,0.312458,0.356031,-0.024122,48,264,564,4816
1644155453.702816,-0.012634,0.005432,-0.99353,0.312458,0.523969,-0.115725,47,270,563,4784
1644155453.751207,-0.009583,0.006287,-0.993225,0.190321,0.478168,-0.069924,46,264,569,4832
1644155453.799615,-0.009766,0.008118,-0.989929,0.373527,0.523969,-0.069924,42,265,563,4816
1644155453.847972,-0.011292,0.008606,-0.993347,0.220855,0.386565,-0.115725,47,273,565,4720
1644155453.896344,-0.010315,0.008789,-0.991333,0.236122,0.386565,0.006412,49,273,570,4720
1644155453.944782,-0.012695,0.008728,-0.990356,0.190321,0.63084,-0.069924,43,276,576,4816
1644155453.993162,-0.011108,0.008606,-0.992065,0.327725,0.508702,-0.130992,38,282,582,4720
1644155454.041542,-0.011353,0.008545,-0.992615,0.266656,0.493435,0.036947,38,273,568,4720
1644155454.091354,-0.013367,0.007568,-0.992554,0.220855,0.356031,-0.130992,57,277,577,4816
1644155454.138315,-0.01355,0.006592,-0.99231,0.144519,0.478168,-0.176794,32,271,566,4784
1644155454.186656,-0.009583,0.008728,-0.992615,0.373527,0.432366,0.082748,48,262,573,4704
1644155454.235262,-0.012085,0.006104,-0.990417,0.297191,0.462901,-0.100458,39,269,569,4784
1644155454.284156,-0.010986,0.007751,-0.993347,0.236122,0.432366,-0.008855,48,266,571,4720
1644155454.334484,-0.014221,0.009216,-0.991394,0.236122,0.493435,-0.14626,48,271,564,4816
1644155454.428682,-0.01178,0.008179,-0.994568,0.266656,0.401832,-0.192061,45,275,579,4720
1644155454.477019,-0.012573,0.00946,-0.993469,0.312458,0.493435,-0.207328,43,276,571,4720
1644155454.52535,-0.012451,0.010559,-0.994019,0.312458,0.371298,-0.207328,41,271,569,4704
1644155454.573769,-0.011658,0.006653,-0.991638,0.312458,0.63084,-0.085191,58,271,571,4720
1644155454.622164,-0.011108,0.006775,-0.992126,0.46513,0.340763,-0.008855,36,271,571,4832
1644155454.67055,-0.010437,0.012085,-0.994812,0.297191,0.447634,-0.100458,45,270,565,4784
1644155454.718984,-0.008911,0.009094,-0.993042,0.266656,0.417099,-0.024122,45,273,565,4784
1644155454.767336,-0.011169,0.007874,-0.993164,0.327725,0.447634,-0.085191,48,271,566,4784
1644155454.815706,-0.012024,0.009094,-0.99176,0.190321,0.371298,-0.237863,54,275,561,4816
1644155454.864124,-0.01355,0.009705,-0.994141,0.342992,0.417099,0.006412,47,273,572,4784
1644155454.912487,-0.014587,0.007812,-0.994507,0.220855,0.554504,0.006412,52,270,563,4784
1644155454.960839,-0.011475,0.006287,-0.991333,0.297191,0.585038,-0.115725,48,271,571,4720
1644155455.009238,-0.011597,0.009094,-0.993347,0.159786,0.569771,0.021679,49,268,570,4720
1644155455.065206,-0.012512,0.011353,-0.993286,0.266656,0.432366,-0.085191,47,275,572,4720
1644155455.105977,-0.014221,0.005371,-0.995056,0.190321,0.264427,-0.039389,55,266,576,4848
1644155455.154397,-0.013367,0.009949,-0.990906,0.327725,0.508702,-0.085191,42,277,561,4816
1644155455.20279,-0.009888,0.008789,-0.992188,0.144519,0.539237,-0.069924,45,277,575,4848
1644155455.251117,-0.013367,0.010376,-0.991943,0.129252,0.462901,-0.115725,43,266,566,4784
1644155455.299537,-0.009827,0.008606,-0.991882,0.037649,0.432366,-0.085191,36,262,566,4784
1644155455.347927,-0.010498,0.007385,-0.991882,0.220855,0.386565,-0.054656,48,266,573,4784
1644155455.396714,-0.010681,0.007874,-0.992004,0.266656,0.447634,-0.130992,53,276,571,4784
1644155455.446822,-0.013611,0.006042,-0.990845,0.327725,0.401832,-0.085191,47,273,579,4816
1644155455.541458,-0.010498,0.008667,-0.990417,0.281924,0.371298,-0.176794,43,276,571,4720
1644155455.589809,-0.013367,0.008972,-0.993774,0.297191,0.447634,-0.008855,60,276,566,4816
1644155455.638267,-0.015381,0.010193,-0.993591,0.113985,0.523969,-0.207328,36,269,566,4720
1644155455.686621,-0.010864,0.008301,-0.989929,0.251389,0.462901,0.067481,48,283,580,4784
1644155455.735082,-0.014526,0.010986,-0.990479,0.312458,0.523969,-0.085191,52,270,565,4784
1644155455.783409,-0.010986,0.01123,-0.989685,0.297191,0.401832,0.067481,61,277,556,4848
1644155455.83185,-0.010254,0.007996,-0.993347,0.342992,0.600305,-0.085191,52,273,572,4848
1644155455.880243,-0.00946,0.009521,-0.992798,0.281924,0.478168,-0.161527,42,265,565,4720
1644155455.928632,-0.01178,0.007568,-0.992004,0.220855,0.539237,-0.008855,51,281,569,4832
1644155455.977003,-0.011658,0.007874,-0.992249,0.342992,0.340763,-0.268397,42,268,577,4784
1644155456.025413,-0.012695,0.009094,-0.992859,0.236122,0.508702,-0.130992,53,266,569,4784
1644155456.07858,-0.01001,0.010315,-0.993347,0.281924,0.462901,-0.130992,43,279,576,4784
1644155456.122172,-0.011658,0.005005,-0.993774,0.373527,0.264427,-0.207328,47,277,591,4784
1644155456.170539,-0.010193,0.008972,-0.991577,0.35826,0.462901,-0.054656,57,273,572,4784
1644155456.219648,-0.009521,0.010437,-0.991821,0.205588,0.508702,-0.054656,48,274,576,4816
1644155456.26989,-0.01178,0.006287,-0.992249,0.205588,0.508702,-0.115725,47,277,568,4784
1644155456.317662,-0.011414,0.006287,-0.991333,0.312458,0.478168,-0.161527,51,274,564,4784
1644155456.412517,-0.012573,0.00885,-0.994507,0.251389,0.447634,-0.054656,53,279,571,4720
1644155456.460873,-0.013,0.012024,-0.992126,0.129252,0.340763,-0.100458,52,273,570,4720
1644155456.509205,-0.012756,0.01062,-0.994263,0.266656,0.386565,-0.161527,48,281,573,4848
1644155456.5576,-0.010559,0.00769,-0.990906,0.327725,0.447634,0.036947,52,265,572,4720
1644155456.606007,-0.01239,0.009583,-0.994507,0.022382,0.356031,-0.100458,52,277,570,4720
1644155456.654427,-0.013916,0.004272,-0.992371,0.266656,0.310229,-0.268397,46,262,573,4784
1644155456.702826,-0.012512,0.007324,-0.990234,0.175053,0.401832,-0.039389,49,270,565,4816
1644155456.751186,-0.013977,0.008667,-0.993408,0.251389,0.539237,-0.130992,58,271,566,4784
1644155456.799571,-0.014771,0.007507,-0.99292,0.159786,0.478168,-0.222595,46,271,566,4832
1644155456.847941,-0.009888,0.009399,-0.990967,0.312458,0.371298,-0.039389,53,264,576,4784
1644155456.896373,-0.012207,0.008057,-0.993164,0.297191,0.417099,-0.008855,57,273,570,4720
1644155456.94474,-0.013611,0.007568,-0.993103,0.388794,0.371298,-0.008855,48,271,583,4848
1644155456.993133,-0.011414,0.005798,-0.991821,0.236122,0.417099,0.021679,48,274,566,4784
1644155457.041521,-0.010864,0.007812,-0.993347,0.251389,0.432366,0.067481,57,268,561,4784
1644155457.092177,-0.013733,0.00647,-0.995117,0.236122,0.340763,-0.130992,55,266,576,4784
1644155457.138252,-0.012024,0.009216,-0.993896,0.236122,0.462901,-0.130992,42,277,575,4784
1644155457.186635,-0.011597,0.006042,-0.990662,0.297191,0.493435,-0.161527,54,275,586,4720
1644155457.235069,-0.013428,0.007446,-0.99054,0.144519,0.447634,-0.008855,49,273,575,4816
1644155457.283402,-0.011108,0.007996,-0.992615,0.220855,0.447634,-0.024122,46,269,571,4880
1644155457.331782,-0.01123,0.009827,-0.994934,0.434595,0.508702,-0.039389,54,277,575,4816
1644155457.380353,-0.009033,0.009949,-0.992676,0.159786,0.478168,0.036947,52,273,577,4848
1644155457.430659,-0.011047,0.008301,-0.992554,0.236122,0.340763,-0.192061,52,277,570,4848
1644155457.525309,-0.009644,0.007202,-0.99176,0.175053,0.554504,-0.039389,51,281,566,4720
1644155457.573718,-0.012634,0.010071,-0.991272,0.297191,0.401832,0.036947,54,275,568,4784
1644155457.622188,-0.010498,0.009277,-0.991089,0.312458,0.493435,-0.100458,51,274,569,4672
1644155457.670458,-0.012451,0.011536,-0.99115,0.388794,0.493435,-0.039389,43,271,564,4784
1644155457.71888,-0.015503,0.007263,-0.995483,0.281924,0.554504,-0.130992,53,269,566,4784
1644155457.767248,-0.010864,0.010254,-0.992249,0.251389,0.539237,-0.054656,49,275,570,4784
1644155457.815656,-0.010803,0.007751,-0.990967,0.236122,0.371298,0.006412,46,281,569,4784
1644155457.864086,-0.011719,0.007202,-0.991577,0.266656,0.508702,-0.100458,46,271,573,4784
1644155457.912496,-0.011536,0.006104,-0.991455,0.251389,0.478168,-0.039389,54,275,575,4672
1644155457.96085,-0.011719,0.003845,-0.991333,0.266656,0.386565,-0.039389,53,274,564,4784
1644155458.009222,-0.011108,0.007935,-0.993652,0.35826,0.493435,-0.176794,57,270,570,4784
1644155458.062641,-0.012451,0.009155,-0.993286,0.327725,0.508702,-0.237863,48,271,571,4720
1644155458.105995,-0.01062,0.010803,-0.992249,0.220855,0.340763,-0.283664,52,273,570,4784
1644155458.154382,-0.015564,0.008728,-0.992676,0.251389,0.417099,-0.069924,54,280,563,4816
1644155458.202775,-0.013672,0.010498,-0.994873,0.205588,0.401832,-0.069924,53,266,569,4720
1644155458.251138,-0.012329,0.007751,-0.991882,0.159786,0.310229,-0.161527,40,277,572,4784
1644155458.29949,-0.014343,0.010437,-0.993835,0.144519,0.371298,-0.192061,49,270,568,4816
1644155458.347923,-0.007812,0.006836,-0.99292,0.327725,0.63084,-0.176794,51,281,569,4816
1644155458.396304,-0.011414,0.008118,-0.992798,0.327725,0.523969,-0.25313,48,274,576,4848
1644155458.444695,-0.011108,0.009888,-0.993286,0.205588,0.478168,-0.161527,46,266,566,4816
1644155458.493281,-0.010742,0.009705,-0.991211,0.373527,0.539237,-0.14626,46,274,578,4848
1644155458.54312,-0.012146,0.006531,-0.993591,0.495664,0.264427,-0.054656,53,283,573,4784
1644155458.590893,-0.011597,0.009705,-0.991272,0.175053,0.462901,-0.130992,58,271,580,4720
1644155458.686603,-0.010376,0.007446,-0.992493,0.297191,0.371298,-0.115725,52,265,572,4704
1644155458.735024,-0.01001,0.006836,-0.993042,0.205588,0.478168,0.021679,55,274,569,4720
1644155458.783375,-0.012329,0.008362,-0.990173,0.312458,0.554504,-0.115725,48,269,569,4816
1644155458.831784,-0.012512,0.009094,-0.992554,0.404061,0.432366,0.052214,51,281,566,4720
1644155458.880222,-0.015808,0.004883,-0.993713,0.113985,0.508702,-0.14626,51,281,576,4816
1644155458.928593,-0.012939,0.004578,-0.991699,0.129252,0.432366,-0.176794,39,269,576,4816
1644155458.976972,-0.014526,0.007019,-0.994568,0.236122,0.417099,-0.069924,47,280,572,4816
1644155459.025346,-0.010925,0.009888,-0.994568,0.281924,0.264427,-0.115725,47,263,568,4784
1644155459.073806,-0.013428,0.009888,-0.987732,0.205588,0.356031,0.006412,49,280,572,4720
1644155459.12215,-0.010498,0.006775,-0.993103,0.236122,0.462901,-0.14626,51,274,564,4720
1644155459.170486,-0.01178,0.008362,-0.99231,0.281924,0.539237,-0.039389,51,269,573,4832
1644155459.218886,-0.010315,0.009094,-0.990295,0.266656,0.310229,-0.115725,51,279,564,4720
1644155459.267237,-0.011902,0.006836,-0.994263,0.236122,0.493435,-0.054656,46,276,573,4784
1644155459.315639,-0.012695,0.009216,-0.991882,0.46513,0.523969,-0.115725,52,273,568,4816
1644155459.364022,-0.013489,0.00824,-0.992432,0.220855,0.432366,-0.207328,42,275,579,4784
1644155459.412431,-0.01123,0.003784,-0.992737,0.098718,0.569771,-0.161527,54,270,579,4720
1644155459.460808,-0.01355,0.010132,-0.992493,0.266656,0.371298,-0.176794,43,279,576,4880
1644155459.509179,-0.010742,0.008362,-0.99115,0.220855,0.371298,-0.039389,49,277,575,4816
1644155459.557531,-0.012024,0.00885,-0.991089,0.129252,0.432366,-0.115725,51,281,576,4816
1644155459.60598,-0.014404,0.008118,-0.99176,0.129252,0.432366,-0.130992,48,271,566,4816
1644155459.654353,-0.014648,0.008972,-0.993469,0.312458,0.493435,-0.115725,46,266,578,4784
1644155459.703941,-0.009094,0.010376,-0.989136,0.266656,0.447634,-0.100458,42,268,558,4816
1644155459.751631,-0.011108,0.007874,-0.994446,0.297191,0.264427,0.021679,43,264,571,4816
1644155459.847911,-0.012573,0.008484,-0.992249,0.327725,0.401832,-0.054656,48,271,566,4848
1644155459.896305,-0.013489,0.010315,-0.992554,0.251389,0.508702,-0.085191,47,268,570,4832
1644155459.94472,-0.012939,0.007996,-0.994507,0.327725,0.417099,-0.100458,43,274,559,4752
1644155459.993074,-0.013367,0.009705,-0.994263,0.281924,0.340763,-0.115725,43,276,573,4784
1644155460.041506,-0.01355,0.009094,-0.992004,0.190321,0.417099,0.006412,42,285,575,4848
1644155460.091974,-0.011536,0.006592,-0.992493,0.327725,0.294962,-0.115725,54,282,568,4816
1644155460.138266,-0.011475,0.006348,-0.990112,0.342992,0.371298,-0.161527,45,282,582,4720
1644155460.186623,-0.01239,0.007935,-0.993652,0.220855,0.417099,-0.069924,54,268,565,4896
1644155460.235325,-0.012329,0.007935,-0.992859,0.205588,0.493435,-0.207328,46,266,573,4848
1644155460.283417,-0.012268,0.006836,-0.992432,0.251389,0.356031,0.021679,43,269,562,4720
1644155460.331826,-0.015259,0.009399,-0.992432,0.327725,0.493435,-0.008855,52,282,568,4816
1644155460.380183,-0.014343,0.007446,-0.994202,0.297191,0.478168,-0.069924,40,275,565,4704
1644155460.42858,-0.013,0.008728,-0.993896,0.266656,0.371298,0.036947,55,269,564,4784
1644155460.476987,-0.012939,0.010437,-0.995117,0.251389,0.432366,-0.008855,48,276,573,4784
1644155460.525372,-0.011414,0.006165,-0.991333,0.297191,0.386565,-0.085191,47,265,572,4720
1644155460.573719,-0.012695,0.008057,-0.990967,0.266656,0.340763,-0.115725,49,265,570,4816
1644155460.622737,-0.011536,0.009644,-0.991028,0.266656,0.417099,-0.100458,48,262,571,4880
1644155460.673054,-0.009033,0.007263,-0.990051,0.144519,0.493435,-0.237863,49,277,563,4816
1644155460.720434,-0.009583,0.00592,-0.994873,0.205588,0.462901,0.036947,51,257,566,4720
1644155460.815681,-0.013184,0.005737,-0.989746,0.266656,0.462901,-0.130992,57,270,568,4880
1644155460.864072,-0.013062,0.010498,-0.99176,0.236122,0.447634,-0.069924,54,265,575,4768
1644155460.912438,-0.013367,0.009155,-0.992004,0.08345,0.264427,-0.115725,53,279,571,4848
1644155460.960844,-0.013367,0.011292,-0.99115,0.129252,0.432366,-0.085191,53,276,566,4784
1644155461.009214,-0.012329,0.005981,-0.992615,0.220855,0.386565,0.021679,53,276,578,4848
1644155461.0647,-0.011169,0.008057,-0.992737,0.327725,0.462901,-0.207328,55,274,566,4848
1644155461.105965,-0.010437,0.006958,-0.992554,0.327725,0.462901,-0.039389,33,282,570,4848
1644155461.154386,-0.010437,0.00824,-0.990662,0.266656,0.493435,-0.024122,45,277,561,4816
1644155461.202772,-0.013428,0.007935,-0.994019,0.251389,0.508702,-0.024122,45,277,565,4784
1644155461.251097,-0.013977,0.006653,-0.992676,0.220855,0.340763,0.006412,46,264,571,4816
1644155461.299542,-0.012024,0.007507,-0.989014,0.35826,0.447634,-0.207328,54,275,579,4832
1644155461.347937,-0.010315,0.01001,-0.991394,0.205588,0.356031,-0.069924,47,275,554,4832
1644155461.396318,-0.012268,0.006958,-0.991577,0.297191,0.356031,-0.14626,36,262,559,4784
1644155461.444705,-0.011902,0.01062,-0.994934,0.46513,0.447634,0.006412,48,274,564,4816
1644155461.493079,-0.011353,0.007629,-0.993713,0.251389,0.401832,-0.130992,57,270,568,4816
1644155461.541488,-0.012024,0.00824,-0.993225,0.266656,0.401832,-0.130992,42,277,568,4720
1644155461.589795,-0.008972,0.009338,-0.992493,0.220855,0.508702,-0.314198,52,270,570,4816
1644155461.638268,-0.009705,0.009583,-0.992615,0.281924,0.401832,-0.054656,53,262,576,4848
1644155461.686598,-0.012146,0.00885,-0.994263,0.297191,0.462901,-0.130992,48,269,569,4720
1644155461.735078,-0.011597,0.009155,-0.990662,0.297191,0.462901,-0.115725,52,270,561,4784
1644155461.783776,-0.01178,0.005554,-0.99115,0.266656,0.478168,-0.14626,52,273,575,4720
1644155461.834114,-0.008972,0.010925,-0.98999,0.373527,0.478168,-0.039389,53,271,564,4768
1644155461.881614,-0.011963,0.013428,-0.99115,0.327725,0.401832,-0.085191,53,269,562,4784
1644155461.976997,-0.011902,0.010437,-0.992371,0.404061,0.478168,-0.130992,52,275,570,4720
1644155462.025326,-0.011719,0.008789,-0.993652,0.35826,0.447634,-0.024122,51,279,578,4832
1644155462.07378,-0.009033,0.009888,-0.989929,0.327725,0.371298,-0.115725,47,273,570,4848
1644155462.122139,-0.013794,0.00885,-0.99231,0.113985,0.340763,0.067481,43,274,576,4832
1644155462.170534,-0.012756,0.007996,-0.993103,0.327725,0.493435,-0.161527,47,273,568,4784
1644155462.218876,-0.010803,0.009338,-0.99231,0.266656,0.401832,-0.192061,46,279,566,4848
1644155462.267273,-0.01178,0.006836,-0.993103,0.220855,0.585038,0.082748,60,271,559,4832
1644155462.315629,-0.011719,0.006287,-0.993103,0.266656,0.188092,0.021679,47,263,575,4720
1644155462.364079,-0.011719,0.009155,-0.989624,0.220855,0.340763,-0.115725,48,269,566,4704
1644155462.412437,-0.011719,0.006714,-0.989075,0.175053,0.447634,0.067481,55,274,571,4816
1644155462.460842,-0.01001,0.006042,-0.993896,0.404061,0.310229,-0.130992,49,277,568,4816
1644155462.509176,-0.010864,0.006958,-0.991028,0.297191,0.417099,-0.039389,47,275,563,4720
1644155462.557589,-0.010254,0.007812,-0.990784,0.159786,0.356031,-0.054656,40,260,563,4768
1644155462.605944,-0.014648,0.011353,-0.99176,0.068183,0.462901,0.021679,40,280,570,4784
1644155462.654388,-0.013489,0.007141,-0.993164,0.251389,0.294962,0.036947,53,274,569,4784
1644155462.702735,-0.00946,0.00946,-0.992126,0.297191,0.325496,-0.069924,43,274,573,4784
1644155462.751138,-0.01123,0.009521,-0.992188,0.251389,0.401832,-0.085191,47,268,575,4720
1644155462.799483,-0.01178,0.010681,-0.991333,0.159786,0.417099,-0.115725,48,262,576,4784
1644155462.847899,-0.012146,0.007385,-0.991516,0.373527,0.356031,-0.130992,55,276,564,4784
1644155462.896288,-0.010742,0.007629,-0.995728,0.144519,0.417099,-0.298931,48,276,569,4784
1644155462.945906,-0.011169,0.009583,-0.994568,0.190321,0.508702,-0.14626,48,274,562,4672
1644155462.995883,-0.011169,0.00824,-0.992371,0.312458,0.310229,-0.008855,51,264,562,4784
1644155463.08988,-0.011414,0.010864,-0.991821,0.144519,0.386565,0.006412,42,275,579,4816
1644155463.138147,-0.014343,0.004822,-0.993835,0.236122,0.401832,-0.039389,58,274,578,4784
1644155463.186585,-0.013306,0.008362,-0.992798,0.46513,0.371298,-0.161527,45,260,568,4816
1644155463.235047,-0.008667,0.010742,-0.992798,0.190321,0.447634,-0.176794,45,277,570,4816
1644155463.283355,-0.013367,0.01001,-0.993347,0.266656,0.401832,-0.130992,49,280,575,4672
1644155463.331739,-0.012451,0.009338,-0.992371,0.541466,0.493435,-0.100458,45,277,565,4816
1644155463.380131,-0.010132,0.011414,-0.991211,0.190321,0.432366,-0.069924,58,274,569,4848
1644155463.428535,-0.010681,0.008667,-0.992798,0.35826,0.554504,-0.130992,42,268,572,4816
1644155463.476925,-0.01239,0.009216,-0.990662,0.404061,0.493435,-0.024122,45,280,579,4816
1644155463.525294,-0.01062,0.009094,-0.995361,0.373527,0.493435,-0.100458,51,274,566,4784
1644155463.573668,-0.013489,0.00885,-0.987976,0.159786,0.523969,-0.069924,58,274,571,4784
1644155463.622086,-0.010376,0.008667,-0.994812,0.236122,0.432366,-0.268397,54,280,568,4720
1644155463.670493,-0.011719,0.008118,-0.990662,0.205588,0.417099,-0.176794,52,273,570,4720
1644155463.718837,-0.012146,0.007507,-0.993591,0.297191,0.401832,-0.14626,47,280,570,4784
1644155463.767187,-0.013977,0.007751,-0.992615,0.281924,0.600305,0.006412,55,276,562,4784
1644155463.815641,-0.013062,0.009583,-0.992615,0.327725,0.371298,-0.115725,58,262,569,4816
1644155463.864042,-0.012085,0.008789,-0.991882,0.144519,0.508702,-0.115725,47,275,570,4784
1644155463.912434,-0.012268,0.008728,-0.990845,0.342992,0.478168,-0.085191,49,275,570,4720
1644155463.960809,-0.011597,0.00769,-0.992249,0.373527,0.523969,-0.283664,48,279,566,4816
1644155464.065383,-0.01178,0.007874,-0.992249,0.098718,0.356031,-0.115725,53,271,571,4784
1644155464.105944,-0.010925,0.009705,-0.992493,0.342992,0.24916,-0.161527,47,277,575,4848
1644155464.154347,-0.011658,0.00885,-0.992615,0.327725,0.386565,-0.039389,47,270,570,4704
1644155464.202733,-0.014221,0.00824,-0.992737,0.373527,0.493435,-0.115725,54,277,568,4784
1644155464.251118,-0.013367,0.008789,-0.99353,0.327725,0.462901,-0.176794,51,279,562,4832
1644155464.299511,-0.012451,0.009094,-0.992371,0.281924,0.325496,-0.069924,42,277,570,4784
1644155464.347941,-0.013367,0.009094,-0.991394,0.113985,0.401832,-0.115725,60,269,571,4832
1644155464.396267,-0.012756,0.008301,-0.992493,0.297191,0.417099,0.006412,51,274,571,4784
1644155464.444695,-0.012695,0.011597,-0.992004,0.266656,0.417099,-0.115725,48,276,569,4784
1644155464.49306,-0.01239,0.009827,-0.990234,0.251389,0.523969,-0.008855,49,270,565,4704
1644155464.541464,-0.008606,0.006531,-0.991394,0.419328,0.462901,-0.100458,48,276,566,4720
1644155464.589856,-0.010193,0.007996,-0.991638,0.266656,0.417099,-0.069924,66,277,565,4784
1644155464.638238,-0.013367,0.010193,-0.992004,0.159786,0.462901,-0.176794,55,279,566,4720
1644155464.686627,-0.012268,0.006226,-0.993835,0.220855,0.462901,-0.100458,57,275,568,4784
1644155464.735048,-0.011963,0.008301,-0.990845,0.297191,0.462901,-0.237863,53,281,573,4784
1644155464.783391,-0.012146,0.011292,-0.993347,0.327725,0.325496,0.036947,48,274,562,4816
1644155464.832039,-0.011108,0.011719,-0.990601,0.327725,0.279695,-0.161527,53,274,573,4784
1644155464.882353,-0.014099,0.009521,-0.992249,0.205588,0.539237,-0.130992,40,270,565,4784
1644155464.929742,-0.013306,0.009094,-0.992981,0.236122,0.462901,-0.130992,55,281,562,4832
1644155465.025341,-0.012329,0.01001,-0.993042,0.449863,0.264427,-0.100458,58,271,571,4848
1644155465.07378,-0.014404,0.007935,-0.994751,0.297191,0.539237,-0.130992,43,254,573,4784
1644155465.122163,-0.012146,0.00946,-0.993103,0.251389,0.508702,-0.100458,49,275,568,4784
1644155465.170401,-0.011841,0.013977,-0.993958,0.175053,0.478168,-0.039389,49,275,563,4752
1644155465.218819,-0.009644,0.009827,-0.989258,0.327725,0.493435,0.006412,48,264,571,4784
1644155465.267193,-0.012268,0.011475,-0.990479,0.342992,0.356031,-0.161527,52,277,572,4832
1644155465.315591,-0.011719,0.010437,-0.993408,0.175053,0.554504,-0.100458,47,282,568,4848
1644155465.364007,-0.011414,0.009094,-0.992859,0.297191,0.417099,0.082748,46,274,569,4784
1644155465.412396,-0.01123,0.008789,-0.991272,0.190321,0.493435,-0.039389,47,287,568,4784
1644155465.460738,-0.009827,0.010254,-0.992615,0.144519,0.386565,-0.130992,55,276,566,4720
1644155465.509146,-0.009827,0.008667,-0.992249,0.266656,0.447634,-0.176794,39,279,559,4704
1644155465.557548,-0.013062,0.007202,-0.993225,0.266656,0.478168,-0.115725,49,273,582,4784
1644155465.605936,-0.012634,0.008667,-0.994812,0.266656,0.447634,-0.039389,51,271,566,4720
1644155465.654319,-0.01355,0.009216,-0.993408,0.297191,0.401832,-0.115725,55,266,566,4832
1644155465.702705,-0.012268,0.009705,-0.991638,0.281924,0.600305,-0.161527,52,277,570,4784
1644155465.751065,-0.009644,0.008057,-0.993408,0.312458,0.493435,-0.069924,53,279,566,4784
1644155465.799481,-0.009399,0.009277,-0.992798,0.541466,0.646107,-0.039389,47,277,577,4816
1644155465.84787,-0.013,0.007751,-0.988586,0.205588,0.371298,-0.14626,49,273,572,4816
1644155465.896296,-0.010254,0.007935,-0.989258,0.327725,0.417099,-0.207328,41,269,566,4784
1644155465.944743,-0.012573,0.009033,-0.993103,0.281924,0.508702,-0.314198,47,275,565,4848
1644155465.993317,-0.011047,0.009033,-0.99115,0.266656,0.386565,-0.039389,54,275,563,4832
1644155466.043632,-0.012512,0.01062,-0.993408,0.327725,0.508702,-0.130992,51,266,569,4720
1644155466.09432,-0.008362,0.009094,-0.990723,0.144519,0.417099,0.052214,55,271,576,4848
1644155466.186517,-0.013672,0.008972,-0.990723,0.205588,0.646107,-0.069924,58,271,564,4768
1644155466.23501,-0.007385,0.00708,-0.99353,0.251389,0.462901,-0.085191,47,277,568,4784
1644155466.283315,-0.01123,0.012329,-0.992798,0.297191,0.493435,-0.024122,42,277,575,4784
1644155466.331706,-0.012024,0.00592,-0.994446,0.266656,0.325496,-0.039389,52,273,570,4784
1644155466.38012,-0.010315,0.011719,-0.988831,0.373527,0.386565,-0.25313,47,275,563,4720
1644155466.428515,-0.010742,0.009949,-0.991272,0.266656,0.325496,-0.100458,49,273,558,4896
1644155466.476856,-0.014343,0.010925,-0.990784,0.297191,0.371298,0.021679,49,273,572,4832
1644155466.525288,-0.011292,0.009033,-0.990234,0.373527,0.493435,-0.024122,45,277,575,4832
1644155466.573673,-0.010864,0.008606,-0.991333,0.327725,0.462901,-0.14626,55,276,576,4832
1644155466.622057,-0.013428,0.007874,-0.992798,0.342992,0.478168,-0.039389,51,269,569,4784
1644155466.670429,-0.009888,0.009216,-0.991455,0.175053,0.447634,-0.008855,48,279,566,4720
1644155466.718789,-0.011353,0.007874,-0.98999,0.342992,0.417099,-0.115725,53,281,573,4816
1644155466.767196,-0.010925,0.011108,-0.99176,0.373527,0.356031,0.082748,57,268,577,4816
1644155466.815586,-0.013367,0.008179,-0.993103,0.35826,0.417099,-0.085191,47,273,577,4880
1644155466.864011,-0.012085,0.007202,-0.99176,0.297191,0.478168,0.113282,47,273,570,4720
1644155466.912393,-0.011963,0.008362,-0.992371,0.175053,0.310229,-0.024122,45,273,577,4752
1644155466.960747,-0.007935,0.008606,-0.993347,0.327725,0.401832,-0.024122,49,270,568,4768
1644155467.009165,-0.012146,0.00946,-0.990356,0.388794,0.432366,0.021679,49,282,575,4784
1644155467.076228,-0.012451,0.009644,-0.990051,0.205588,0.417099,-0.176794,49,280,568,4784
1644155467.105955,-0.009216,0.011658,-0.991577,0.220855,0.554504,-0.008855,57,263,572,4720
1644155467.154338,-0.011841,0.008606,-0.991821,0.159786,0.478168,-0.024122,40,275,563,4784
1644155467.20394,-0.012695,0.01178,-0.990784,0.312458,0.493435,-0.207328,47,273,572,4816
1644155467.251638,-0.013611,0.007812,-0.992126,0.175053,0.523969,-0.100458,51,274,566,4784
1644155467.347805,-0.012817,0.005554,-0.993652,0.312458,0.447634,-0.069924,47,275,568,4816
