epoch,acc_x,acc_y,acc_z,rot_x,rot_y,rot_z,mag_x,mag_y,mag_z,temp
1644186000.024623,-0.008789,0.00946,-0.991821,0.08345,0.493435,-0.14626,55,281,587,6224
1644186000.089901,-0.00946,0.009033,-0.989502,0.175053,0.340763,-0.130992,61,275,589,6256
1644186000.12266,-0.011719,0.009583,-0.992004,0.388794,0.325496,-0.100458,42,273,584,6192
1644186000.172845,-0.011414,0.007507,-0.992126,0.08345,0.554504,-0.024122,49,285,586,6224
1644186000.222304,-0.009521,0.008545,-0.992004,0.251389,0.310229,-0.085191,39,274,576,6224
1644186000.267224,-0.009705,0.011047,-0.991028,0.35826,0.294962,-0.054656,52,270,586,6192
1644186000.36332,-0.006287,0.010071,-0.991821,0.159786,0.478168,0.006412,45,277,579,6176
1644186000.411676,-0.007874,0.008057,-0.989685,0.312458,0.493435,-0.085191,42,273,589,6240
1644186000.460078,-0.007935,0.008362,-0.99469,0.159786,0.340763,-0.008855,55,276,578,6224
1644186000.508447,-0.009338,0.007507,-0.990234,0.205588,0.356031,0.006412,53,279,587,6176
1644186000.556863,-0.008057,0.00708,-0.993591,0.159786,0.386565,-0.14626,48,276,569,6224
1644186000.605266,-0.008789,0.006836,-0.992065,0.297191,0.340763,0.067481,51,276,590,6224
1644186000.653663,-0.00592,0.011902,-0.990295,0.312458,0.417099,-0.176794,42,285,572,6224
1644186000.70204,-0.010132,0.010986,-0.993347,0.190321,0.356031,-0.024122,55,276,583,6160
1644186000.75043,-0.010254,0.011536,-0.989258,0.220855,0.386565,-0.008855,48,276,590,6224
1644186000.798828,-0.005066,0.009583,-0.991821,0.251389,0.310229,-0.100458,51,279,573,6224
1644186000.847233,-0.009277,0.008972,-0.991821,0.144519,0.356031,-0.054656,54,275,582,6176
1644186000.895659,-0.009644,0.007263,-0.990417,0.312458,0.371298,-0.176794,59,277,589,6288
1644186000.944062,-0.010071,0.009766,-0.993408,0.190321,0.462901,-0.069924,45,273,582,6160
1644186000.992471,-0.009338,0.007874,-0.991089,0.236122,0.310229,-0.085191,51,271,592,6240
1644186001.040828,-0.006714,0.010681,-0.991882,0.159786,0.310229,-0.039389,49,270,586,6224
1644186001.089296,-0.011902,0.010132,-0.990662,0.098718,0.417099,-0.222595,57,280,584,6160
1644186001.137629,-0.007202,0.009827,-0.992249,0.266656,0.462901,-0.069924,42,285,586,6224
1644186001.186027,-0.010193,0.01001,-0.993164,0.190321,0.462901,-0.100458,42,270,591,6176
1644186001.234414,-0.00946,0.009949,-0.988708,0.205588,0.371298,-0.176794,52,275,584,6176
1644186001.284201,-0.007507,0.010376,-0.994507,0.129252,0.432366,-0.100458,53,279,585,6240
1644186001.334682,-0.009888,0.010132,-0.992493,0.220855,0.447634,0.036947,43,271,585,6224
1644186001.384831,-0.007446,0.009521,-0.989319,0.144519,0.539237,0.082748,55,276,590,6192
1644186001.42915,-0.010803,0.012146,-0.991455,0.297191,0.371298,-0.024122,41,279,587,6128
1644186001.524894,-0.006531,0.009644,-0.992676,0.190321,0.401832,-0.161527,58,271,594,6192
1644186001.573159,-0.004028,0.009827,-0.990662,0.449863,0.386565,-0.130992,48,271,576,6192
1644186001.621538,-0.009094,0.007935,-0.995789,0.327725,0.371298,0.006412,52,277,577,6240
1644186001.669944,-0.011963,0.010925,-0.992126,0.007115,0.432366,-0.100458,49,273,582,6256
1644186001.718333,-0.004517,0.01001,-0.989807,0.159786,0.462901,-0.100458,40,275,586,6224
1644186001.766751,-0.010254,0.006775,-0.992249,0.236122,0.585038,-0.100458,46,283,590,6192
1644186001.815153,-0.008728,0.008545,-0.990723,0.342992,0.310229,-0.100458,52,270,579,6240
1644186001.863541,-0.007629,0.010864,-0.993958,0.251389,0.340763,-0.054656,39,271,587,6224
1644186001.91191,-0.007019,0.010437,-0.991211,0.190321,0.371298,-0.176794,48,276,578,6288
1644186001.960286,-0.008057,0.013367,-0.992493,0.251389,0.310229,-0.115725,60,276,585,6224
1644186002.008673,-0.008179,0.009399,-0.989014,0.190321,0.432366,0.113282,55,283,587,6224
1644186002.067389,-0.009399,0.012817,-0.990906,0.266656,0.401832,-0.085191,47,282,589,6160
1644186002.105456,-0.009583,0.009216,-0.993408,0.297191,0.356031,-0.192061,53,281,590,6224
1644186002.153848,-0.009766,0.007324,-0.990051,0.236122,0.340763,-0.054656,51,269,578,6192
1644186002.202251,-0.006042,0.011414,-0.990479,0.052916,0.508702,-0.069924,48,274,597,6160
1644186002.250615,-0.009155,0.010437,-0.991699,0.297191,0.340763,-0.207328,53,283,580,6240
1644186002.298988,-0.007812,0.009033,-0.992432,0.220855,0.356031,-0.054656,59,265,593,6176
1644186002.347383,-0.007568,0.010071,-0.990662,0.35826,0.447634,-0.008855,48,281,583,6224
1644186002.395791,-0.005737,0.011047,-0.990173,0.236122,0.340763,-0.115725,45,277,579,6224
1644186002.444347,-0.007996,0.009399,-0.990356,0.175053,0.340763,-0.054656,45,280,577,6176
1644186002.495408,-0.007202,0.012207,-0.992004,0.312458,0.325496,0.006412,49,273,591,6224
1644186002.545068,-0.006531,0.010559,-0.990173,0.159786,0.371298,-0.176794,57,273,575,6224
1644186002.59023,-0.006531,0.012146,-0.992371,0.251389,0.294962,0.006412,53,269,583,6176
1644186002.68614,-0.008728,0.011169,-0.992737,0.159786,0.462901,-0.130992,52,265,579,6224
1644186002.73455,-0.00885,0.007507,-0.988586,0.327725,0.356031,-0.054656,47,268,582,6256
1644186002.782952,-0.005615,0.010193,-0.993103,0.190321,0.417099,-0.115725,59,265,582,6224
1644186002.831372,-0.009155,0.009094,-0.990784,0.266656,0.340763,-0.039389,40,273,582,6224
1644186002.879767,-0.007446,0.007202,-0.99231,0.144519,0.386565,0.006412,46,274,583,6192
1644186002.928157,-0.008789,0.008972,-0.99408,0.404061,0.401832,-0.069924,46,283,592,6240
1644186002.976793,-0.00824,0.009216,-0.990234,0.251389,0.371298,-0.069924,47,270,570,6192
1644186003.024922,-0.010742,0.010071,-0.993408,0.297191,0.386565,-0.039389,52,275,582,6256
1644186003.077219,-0.007263,0.008606,-0.990845,0.08345,0.493435,-0.14626,46,288,590,6192
1644186003.121675,-0.00824,0.011414,-0.989685,0.281924,0.432366,0.036947,48,262,580,6224
1644186003.170099,-0.006897,0.009705,-0.99176,0.251389,0.401832,0.052214,53,283,585,6128
1644186003.218478,-0.008911,0.009094,-0.993408,0.312458,0.417099,-0.085191,52,285,586,6176
1644186003.266881,-0.00946,0.012268,-0.990479,0.266656,0.371298,-0.176794,48,281,590,6160
1644186003.315266,-0.007935,0.011353,-0.990967,0.312458,0.371298,-0.100458,46,276,573,6192
1644186003.363653,-0.010864,0.009521,-0.991699,0.129252,0.432366,-0.115725,55,271,583,6240
1644186003.412053,-0.008911,0.012268,-0.989624,0.129252,0.417099,-0.024122,54,277,586,6288
1644186003.460436,-0.005005,0.012573,-0.991516,0.281924,0.462901,0.067481,60,276,597,6128
1644186003.508824,-0.010925,0.009827,-0.994385,0.098718,0.401832,-0.024122,47,285,589,6224
1644186003.557239,-0.008118,0.010498,-0.991638,0.251389,0.417099,-0.115725,51,274,587,6240
1644186003.606226,-0.007935,0.01062,-0.990662,0.266656,0.371298,-0.268397,51,276,580,6224
1644186003.65682,-0.008057,0.008667,-0.991699,0.236122,0.462901,0.006412,47,275,577,6240
1644186003.706911,-0.008728,0.010498,-0.993347,0.144519,0.493435,-0.069924,53,266,583,6224
1644186003.751834,-0.009827,0.009827,-0.990295,0.312458,0.447634,-0.192061,46,281,590,6192
1644186003.847619,-0.010193,0.008667,-0.993469,0.251389,0.325496,-0.207328,52,277,582,6240
1644186003.896001,-0.009766,0.008911,-0.991699,0.175053,0.371298,-0.176794,55,276,573,6224
1644186003.944408,-0.008728,0.010681,-0.994385,0.068183,0.310229,0.082748,42,270,582,6224
1644186003.992803,-0.008728,0.013611,-0.990295,0.205588,0.462901,-0.100458,43,276,576,6224
1644186004.04119,-0.009033,0.012939,-0.98999,0.220855,0.371298,-0.039389,43,274,592,6224
1644186004.092537,-0.007507,0.008362,-0.992249,0.297191,0.386565,-0.115725,45,273,582,6256
1644186004.137936,-0.007446,0.009949,-0.989807,0.129252,0.401832,0.006412,53,279,587,6224
1644186004.186339,-0.008911,0.010925,-0.99231,0.297191,0.386565,-0.130992,47,290,579,6160
1644186004.234748,-0.009338,0.008057,-0.994019,0.205588,0.478168,-0.039389,53,281,590,6304
1644186004.283146,-0.009705,0.009155,-0.98999,0.144519,0.600305,0.052214,48,281,583,6192
1644186004.33165,-0.011292,0.01062,-0.990723,0.35826,0.279695,-0.024122,55,271,580,6224
1644186004.379922,-0.007874,0.009216,-0.99115,0.190321,0.478168,-0.161527,51,279,590,6240
1644186004.428298,-0.007385,0.010681,-0.991821,0.098718,0.508702,-0.085191,39,266,578,6256
1644186004.476696,-0.007507,0.008545,-0.988831,0.342992,0.356031,-0.054656,53,283,583,6176
1644186004.525117,-0.008667,0.007324,-0.990967,0.190321,0.294962,-0.069924,57,270,582,6224
1644186004.573548,-0.007568,0.009766,-0.991882,0.297191,0.493435,-0.100458,43,271,583,6224
1644186004.623713,-0.010376,0.009277,-0.992737,0.205588,0.539237,-0.161527,48,276,585,6224
1644186004.674038,-0.008118,0.00946,-0.991394,0.159786,0.462901,-0.008855,55,269,573,6176
1644186004.719186,-0.009644,0.011108,-0.993591,0.175053,0.325496,-0.283664,49,275,584,6224
1644186004.815427,-0.008911,0.010132,-0.992249,0.266656,0.478168,-0.085191,53,271,573,6256
1644186004.863893,-0.010254,0.008362,-0.992554,0.205588,0.462901,-0.100458,49,268,577,6224
1644186004.912433,-0.011108,0.010376,-0.99353,0.327725,0.447634,-0.115725,42,285,584,6224
1644186004.960649,-0.006653,0.010315,-0.992432,0.251389,0.508702,-0.008855,53,274,583,6224
1644186005.009033,-0.00531,0.007629,-0.99353,0.236122,0.294962,-0.039389,53,269,590,6256
1644186005.066844,-0.007568,0.008911,-0.993347,0.159786,0.310229,-0.176794,54,273,593,6224
1644186005.105825,-0.009399,0.00885,-0.992004,0.373527,0.478168,-0.14626,52,273,591,6192
1644186005.154198,-0.007202,0.007996,-0.991394,0.08345,0.462901,-0.222595,55,276,585,6240
1644186005.202606,-0.009338,0.009277,-0.989319,0.190321,0.569771,-0.115725,49,280,568,6192
1644186005.250954,-0.011536,0.01062,-0.990601,0.205588,0.386565,-0.069924,45,280,593,6224
1644186005.299387,-0.006409,0.013611,-0.990173,0.175053,0.310229,0.021679,45,277,579,6224
1644186005.347775,-0.010071,0.009094,-0.990784,0.159786,0.386565,-0.024122,57,282,579,6176
1644186005.396152,-0.006592,0.008301,-0.992432,0.327725,0.356031,-0.008855,52,280,584,6224
1644186005.444522,-0.007446,0.010803,-0.992676,0.159786,0.279695,-0.100458,52,277,589,6224
1644186005.492928,-0.008911,0.010681,-0.991882,0.113985,0.447634,-0.115725,62,264,583,6224
1644186005.54131,-0.010498,0.012024,-0.992554,0.373527,0.340763,-0.100458,48,276,573,6240
1644186005.589731,-0.009766,0.007324,-0.99176,0.220855,0.371298,-0.115725,43,279,583,6288
1644186005.638099,-0.007874,0.010986,-0.989258,0.220855,0.401832,-0.024122,46,281,583,6240
1644186005.686511,-0.010559,0.010132,-0.990662,0.159786,0.447634,-0.192061,46,283,585,6224
1644186005.735592,-0.008911,0.009277,-0.989685,0.266656,0.371298,0.006412,53,279,583,6224
1644186005.786126,-0.010559,0.008362,-0.99353,0.236122,0.462901,-0.115725,48,279,590,6192
1644186005.836879,-0.006531,0.012329,-0.991821,0.297191,0.417099,0.021679,49,273,589,6256
1644186005.881557,-0.009583,0.009155,-0.992249,0.205588,0.539237,-0.237863,43,269,583,6240
1644186005.976902,-0.008118,0.008423,-0.992432,0.175053,0.539237,0.006412,46,283,587,6224
1644186006.02545,-0.007751,0.008972,-0.99176,0.205588,0.447634,-0.024122,64,273,589,6192
1644186006.073766,-0.009033,0.010376,-0.992615,0.251389,0.310229,0.006412,47,280,593,6240
1644186006.122197,-0.00885,0.009399,-0.992371,0.220855,0.356031,-0.130992,53,281,580,6224
1644186006.170443,-0.005066,0.008789,-0.991089,0.205588,0.356031,-0.085191,51,283,583,6192
1644186006.218834,-0.008789,0.008545,-0.990234,0.236122,0.340763,-0.085191,47,275,582,6160
1644186006.267226,-0.008362,0.01062,-0.992432,0.266656,0.523969,-0.069924,41,271,585,6224
1644186006.315618,-0.008972,0.008972,-0.992493,0.297191,0.478168,-0.130992,60,276,578,6224
1644186006.36401,-0.008606,0.011841,-0.992798,0.251389,0.447634,-0.25313,47,275,586,6224
1644186006.412419,-0.00824,0.010986,-0.990295,0.159786,0.432366,-0.054656,42,275,582,6224
1644186006.46081,-0.009766,0.013245,-0.992737,0.205588,0.432366,-0.14626,40,270,584,6192
1644186006.509207,-0.009277,0.011719,-0.990479,0.159786,0.447634,-0.069924,47,277,570,6304
1644186006.557565,-0.008972,0.009216,-0.990845,0.266656,0.447634,-0.085191,54,290,586,6224
1644186006.605972,-0.007996,0.011169,-0.992493,0.068183,0.24916,-0.25313,48,281,576,6240
1644186006.654384,-0.005798,0.012939,-0.992737,0.35826,0.371298,-0.207328,47,275,586,6176
1644186006.702747,-0.011475,0.009521,-0.992737,0.175053,0.325496,0.006412,51,281,578,6128
1644186006.751134,-0.009766,0.009949,-0.992065,0.175053,0.417099,-0.115725,48,286,580,6224
1644186006.799548,-0.009155,0.009033,-0.991211,0.266656,0.493435,-0.069924,46,283,583,6192
1644186006.847979,-0.009766,0.009277,-0.988831,0.236122,0.523969,-0.024122,55,271,585,6192
1644186006.897851,-0.008362,0.012634,-0.990723,0.098718,0.401832,0.082748,46,276,587,6240
1644186006.948076,-0.007812,0.009216,-0.990479,0.281924,0.356031,-0.039389,39,279,576,6224
1644186006.998576,-0.008789,0.011353,-0.989929,0.129252,0.462901,0.082748,46,283,587,6240
1644186007.042854,-0.006165,0.007019,-0.993469,0.251389,0.386565,-0.069924,52,280,589,6240
1644186007.138324,-0.007019,0.011169,-0.991272,0.205588,0.356031,-0.192061,48,281,583,6224
1644186007.186674,-0.008911,0.009705,-0.992065,0.236122,0.447634,-0.161527,52,282,575,6224
1644186007.235297,-0.008484,0.010315,-0.99292,0.266656,0.386565,-0.100458,42,282,589,6192
1644186007.283492,-0.008789,0.009338,-0.991516,0.205588,0.432366,0.021679,55,269,580,6224
1644186007.33188,-0.009705,0.010132,-0.991028,0.144519,0.478168,-0.085191,52,285,582,6240
1644186007.380252,-0.006897,0.011353,-0.989197,0.220855,0.432366,-0.14626,59,280,577,6240
1644186007.42865,-0.009277,0.011536,-0.991089,0.129252,0.508702,-0.176794,51,264,585,6224
1644186007.477051,-0.007996,0.010742,-0.990845,0.236122,0.432366,-0.008855,43,279,590,6192
1644186007.525429,-0.009583,0.006592,-0.989746,0.342992,0.310229,-0.161527,51,281,590,6224
1644186007.573847,-0.00708,0.00885,-0.990051,0.022382,0.539237,-0.161527,61,287,586,6240
1644186007.622256,-0.009033,0.012695,-0.990784,0.281924,0.432366,-0.008855,41,271,585,6224
1644186007.670627,-0.010803,0.005615,-0.993225,0.08345,0.233893,0.006412,48,269,580,6160
1644186007.719017,-0.006287,0.009277,-0.992126,0.220855,0.325496,-0.008855,51,283,587,6240
1644186007.767415,-0.010193,0.009277,-0.991882,0.159786,0.447634,0.082748,45,273,584,6176
1644186007.815805,-0.009338,0.009521,-0.991943,0.190321,0.340763,0.006412,42,277,577,6240
1644186007.864242,-0.009094,0.009399,-0.993652,0.312458,0.340763,-0.039389,45,277,589,6224
1644186007.912641,-0.009277,0.00946,-0.991638,0.190321,0.493435,-0.085191,49,268,596,6240
1644186007.961262,-0.007935,0.01123,-0.991272,0.220855,0.401832,0.052214,41,274,576,6192
1644186008.009444,-0.00885,0.008667,-0.992737,0.236122,0.386565,-0.085191,55,269,587,6240
1644186008.075249,-0.006775,0.010925,-0.991455,0.312458,0.325496,-0.176794,51,276,590,6192
1644186008.155173,-0.00824,0.010864,-0.991272,0.220855,0.447634,-0.008855,49,277,584,6176
1644186008.202974,-0.008789,0.007263,-0.990784,0.144519,0.462901,-0.222595,55,271,587,6176
1644186008.251337,-0.005859,0.010315,-0.991211,0.220855,0.447634,-0.130992,43,271,578,6224
1644186008.299741,-0.008179,0.011169,-0.991699,0.098718,0.447634,-0.008855,48,266,587,6224
1644186008.348121,-0.010681,0.008057,-0.991699,0.144519,0.401832,-0.161527,48,279,583,6224
1644186008.396497,-0.008057,0.010925,-0.991516,0.175053,0.401832,-0.14626,51,262,580,6224
1644186008.444903,-0.009521,0.008911,-0.99176,-0.099756,0.325496,-0.069924,49,282,575,6256
1644186008.493319,-0.008911,0.007935,-0.992798,0.205588,0.340763,0.189618,48,279,590,6160
1644186008.541714,-0.006775,0.007019,-0.990601,0.220855,0.310229,-0.024122,51,269,580,6240
1644186008.590067,-0.007996,0.009277,-0.992188,0.388794,0.447634,-0.085191,55,279,578,6224
1644186008.638483,-0.008179,0.009399,-0.993652,0.266656,0.447634,-0.069924,51,274,587,6224
1644186008.686884,-0.007812,0.010437,-0.992798,0.266656,0.371298,-0.008855,46,276,592,6224
1644186008.735278,-0.010498,0.009644,-0.992371,0.251389,0.493435,-0.024122,58,281,580,6224
1644186008.783665,-0.005676,0.01178,-0.991089,0.236122,0.417099,-0.054656,40,275,584,6224
1644186008.832069,-0.008972,0.009399,-0.992554,0.251389,0.508702,-0.085191,49,270,584,6224
1644186008.880474,-0.007812,0.00824,-0.98999,0.266656,0.462901,-0.100458,51,288,583,6192
1644186008.928891,-0.009155,0.008728,-0.990356,0.144519,0.600305,0.036947,47,282,582,6224
1644186008.977291,-0.007812,0.010193,-0.989563,0.190321,0.478168,0.021679,55,274,583,6192
1644186009.025667,-0.00531,0.007935,-0.988708,0.236122,0.569771,-0.161527,46,279,585,6256
1644186009.091716,-0.008667,0.012024,-0.990906,0.297191,0.279695,-0.054656,49,282,584,6224
1644186009.126003,-0.007751,0.008545,-0.99115,0.373527,0.478168,-0.130992,38,290,589,6160
1644186009.176522,-0.007324,0.009827,-0.990051,0.205588,0.523969,-0.115725,49,275,582,6176
1644186009.220888,-0.008728,0.009705,-0.994751,0.190321,0.386565,-0.115725,47,265,589,6192
1644186009.316011,-0.007568,0.008972,-0.991699,0.251389,0.447634,-0.085191,45,285,575,6176
1644186009.364426,-0.009338,0.013123,-0.990784,0.098718,0.432366,-0.054656,40,282,582,6240
1644186009.412832,-0.004456,0.009277,-0.992065,0.327725,0.493435,-0.085191,39,281,585,6160
1644186009.461198,-0.006897,0.009583,-0.991699,0.404061,0.294962,-0.085191,47,275,586,6240
1644186009.509587,-0.010681,0.008972,-0.992432,0.205588,0.417099,-0.100458,52,268,586,6224
1644186009.55798,-0.010132,0.00708,-0.993286,0.281924,0.600305,-0.207328,38,275,579,6192
1644186009.606382,-0.007385,0.01062,-0.992798,0.068183,0.325496,-0.024122,52,275,579,6256
1644186009.654791,-0.00885,0.006775,-0.992493,0.144519,0.447634,-0.192061,60,279,583,6304
1644186009.703184,-0.010071,0.008911,-0.989685,0.159786,0.508702,-0.069924,49,290,577,6224
1644186009.75156,-0.007202,0.00946,-0.99054,0.251389,0.401832,-0.069924,45,270,582,6176
1644186009.799935,-0.009521,0.010437,-0.992065,0.236122,0.340763,-0.130992,48,279,583,6224
1644186009.848307,-0.00824,0.007874,-0.994202,0.205588,0.493435,-0.192061,55,276,585,6192
1644186009.896733,-0.009155,0.012329,-0.991882,0.373527,0.523969,-0.008855,51,279,585,6240
1644186009.94517,-0.008057,0.007202,-0.989441,0.251389,0.386565,-0.176794,59,273,582,6240
1644186009.993523,-0.005188,0.011475,-0.989258,0.144519,0.401832,-0.14626,46,274,580,6176
1644186010.041922,-0.009155,0.010681,-0.993835,0.266656,0.462901,-0.115725,47,290,591,6224
1644186010.092685,-0.011353,0.007874,-0.993286,0.007115,0.172824,-0.024122,43,269,597,6256
1644186010.138643,-0.007263,0.008423,-0.993164,0.281924,0.371298,0.006412,49,285,582,6128
1644186010.18711,-0.005249,0.008911,-0.987549,0.312458,0.63084,-0.14626,54,268,589,6240
1644186010.235971,-0.009033,0.009705,-0.991516,0.190321,0.264427,-0.100458,48,279,576,6256
1644186010.286624,-0.007996,0.010193,-0.989807,0.144519,0.585038,-0.207328,51,279,585,6176
1644186010.336779,-0.009155,0.010864,-0.990295,0.144519,0.539237,-0.054656,49,287,584,6224
1644186010.381718,-0.008545,0.008789,-0.990784,0.251389,0.508702,0.098015,58,274,576,6240
1644186010.477389,-0.007996,0.009766,-0.991211,0.205588,0.462901,-0.130992,49,273,582,6160
1644186010.525804,-0.00647,0.010925,-0.98938,0.129252,0.432366,-0.054656,51,271,590,6176
1644186010.574207,-0.005859,0.009338,-0.991943,0.297191,0.432366,0.021679,43,279,585,6160
1644186010.622615,-0.007874,0.010193,-0.993164,0.098718,0.539237,-0.069924,46,274,583,6160
1644186010.670982,-0.007141,0.010925,-0.99176,0.205588,0.462901,-0.039389,47,280,586,6192
1644186010.719429,-0.009766,0.009155,-0.992493,0.251389,0.432366,-0.192061,54,273,584,6192
1644186010.767756,-0.008179,0.00769,-0.988831,0.159786,0.523969,-0.024122,52,273,584,6240
1644186010.816204,-0.010925,0.011719,-0.990967,0.220855,0.401832,-0.314198,53,271,578,6192
1644186010.864712,-0.009888,0.011047,-0.991272,0.312458,0.401832,-0.130992,55,281,587,6192
1644186010.912998,-0.009155,0.006104,-0.993225,0.266656,0.478168,-0.024122,55,269,580,6224
1644186010.961381,-0.009094,0.009094,-0.99115,0.159786,0.386565,-0.024122,53,274,573,6192
1644186011.009772,-0.00769,0.00946,-0.992737,0.266656,0.462901,-0.039389,51,279,580,6176
1644186011.066376,-0.007935,0.009277,-0.990479,0.266656,0.233893,-0.14626,54,277,584,6224
1644186011.106491,-0.011108,0.010559,-0.990417,0.159786,0.447634,-0.039389,49,282,586,6240
1644186011.154996,-0.00824,0.007019,-0.98761,0.251389,0.310229,-0.192061,57,280,584,6192
1644186011.203322,-0.00592,0.010193,-0.992249,0.08345,0.386565,-0.069924,43,283,576,6256
1644186011.25167,-0.009583,0.00946,-0.991333,0.236122,0.539237,-0.176794,42,285,579,6224
1644186011.300083,-0.009155,0.008728,-0.99115,0.297191,0.386565,0.021679,48,283,585,6256
1644186011.348479,-0.010437,0.010315,-0.991638,0.281924,0.386565,-0.161527,53,281,578,6192
1644186011.397263,-0.010559,0.010376,-0.994934,0.052916,0.462901,-0.100458,45,273,579,6192
1644186011.447815,-0.007874,0.014648,-0.989441,0.342992,0.294962,-0.024122,45,285,582,6256
1644186011.498902,-0.01062,0.009277,-0.991577,0.312458,0.417099,-0.085191,45,280,591,6240
1644186011.542956,-0.007751,0.010193,-0.990601,0.266656,0.462901,0.006412,57,270,589,6160
1644186011.638838,-0.008545,0.008301,-0.992859,0.175053,0.401832,-0.130992,42,280,577,6240
1644186011.687223,-0.010132,0.009216,-0.992554,0.373527,0.356031,-0.100458,48,281,585,6224
1644186011.735611,-0.007996,0.009888,-0.992737,0.251389,0.386565,-0.085191,45,270,579,6224
1644186011.784023,-0.008484,0.009827,-0.990479,0.266656,0.356031,-0.130992,53,281,583,6256
1644186011.832479,-0.010193,0.008789,-0.990051,0.159786,0.417099,-0.222595,51,279,583,6240
1644186011.880851,-0.009094,0.008118,-0.99115,0.190321,0.356031,0.113282,49,282,577,6160
1644186011.929276,-0.008423,0.010559,-0.993408,0.205588,0.523969,-0.008855,40,277,582,6224
1644186011.97764,-0.010986,0.010742,-0.991638,0.266656,0.371298,-0.115725,42,277,565,6240
1644186012.026044,-0.010437,0.006531,-0.989624,0.08345,0.356031,-0.115725,39,286,578,6224
1644186012.08797,-0.006287,0.009644,-0.990906,0.281924,0.417099,-0.237863,49,277,584,6240
1644186012.122809,-0.009277,0.006226,-0.990723,0.312458,0.310229,-0.100458,52,277,591,6240
1644186012.171146,-0.009094,0.011108,-0.98999,0.281924,0.310229,-0.176794,45,277,586,6240
1644186012.219553,-0.008667,0.01062,-0.991028,0.175053,0.325496,-0.222595,48,283,585,6192
1644186012.267952,-0.007202,0.008545,-0.990051,0.251389,0.447634,-0.054656,42,268,584,6224
1644186012.316324,-0.007507,0.009094,-0.992432,0.037649,0.417099,0.006412,49,277,586,6224
1644186012.364766,-0.008179,0.008972,-0.993652,0.388794,0.401832,-0.130992,47,275,586,6256
1644186012.413154,-0.006531,0.008301,-0.99176,0.297191,0.523969,0.006412,46,283,583,6256
1644186012.46152,-0.007935,0.008911,-0.990601,0.113985,0.386565,-0.115725,55,279,587,6224
1644186012.509929,-0.008301,0.010742,-0.989624,0.129252,0.340763,-0.14626,54,275,589,6224
1644186012.558357,-0.007507,0.012085,-0.99054,0.35826,0.539237,-0.085191,61,285,593,6240
1644186012.608595,-0.008667,0.010986,-0.99115,0.312458,0.432366,-0.130992,45,268,586,6192
1644186012.658895,-0.006165,0.010864,-0.990784,0.281924,0.386565,-0.130992,49,277,579,6240
1644186012.70393,-0.007996,0.012024,-0.993164,0.205588,0.661374,-0.237863,49,270,586,6192
1644186012.800274,-0.008545,0.009521,-0.989746,0.251389,0.417099,0.052214,52,277,582,6240
1644186012.848703,-0.008789,0.011841,-0.991943,0.251389,0.340763,0.098015,52,275,582,6192
1644186012.897092,-0.007019,0.012024,-0.989075,0.449863,0.279695,-0.130992,51,274,583,6160
1644186012.945497,-0.00708,0.01123,-0.993958,0.236122,0.356031,-0.161527,45,277,582,6224
1644186012.993899,-0.006836,0.010559,-0.992249,0.037649,0.478168,-0.069924,43,279,573,6176
1644186013.042315,-0.007263,0.009705,-0.98822,0.236122,0.417099,-0.100458,48,274,580,6256
1644186013.096829,-0.012024,0.008118,-0.992554,0.129252,0.493435,-0.130992,45,282,589,6256
1644186013.139032,-0.008911,0.008789,-0.990051,0.35826,0.508702,-0.069924,52,275,584,6240
1644186013.187397,-0.007324,0.011169,-0.990723,0.205588,0.371298,-0.100458,47,270,582,6176
1644186013.23582,-0.009644,0.009399,-0.994812,0.404061,0.356031,-0.222595,46,283,583,6256
1644186013.284212,-0.009888,0.007935,-0.990601,0.251389,0.539237,0.021679,60,276,590,6224
1644186013.332595,-0.010193,0.007812,-0.991272,0.220855,0.24916,-0.024122,53,276,566,6224
1644186013.380992,-0.010193,0.009583,-0.993408,0.297191,0.447634,-0.069924,45,268,589,6224
1644186013.429389,-0.008423,0.010193,-0.992371,0.297191,0.233893,-0.14626,52,282,591,6224
1644186013.477782,-0.010315,0.008789,-0.991699,0.220855,0.432366,-0.039389,51,279,587,6240
1644186013.526502,-0.009888,0.009338,-0.992065,0.220855,0.478168,0.021679,52,277,586,6128
1644186013.575523,-0.010376,0.00885,-0.996521,0.236122,0.371298,-0.176794,46,286,578,6224
1644186013.626228,-0.005066,0.008545,-0.991455,0.144519,0.508702,-0.024122,53,276,573,6176
1644186013.676124,-0.008362,0.010986,-0.991882,0.220855,0.340763,-0.024122,43,279,580,6176
1644186013.768144,-0.011841,0.009094,-0.991333,0.266656,0.478168,0.006412,53,276,580,6240
1644186013.816509,-0.007507,0.011536,-0.989502,0.129252,0.462901,-0.115725,65,274,590,6224
1644186013.865014,-0.009644,0.012329,-0.988831,0.190321,0.523969,-0.100458,46,276,587,6192
1644186013.91669,-0.009216,0.011292,-0.989319,0.266656,0.585038,-0.069924,48,271,583,6256
1644186013.961757,-0.007202,0.010803,-0.991821,0.373527,0.554504,-0.14626,53,279,578,6192
1644186014.010139,-0.009888,0.01062,-0.99231,0.159786,0.432366,-0.130992,57,273,586,6224
1644186014.06258,-0.006897,0.009766,-0.989929,0.190321,0.417099,-0.069924,46,271,576,6192
1644186014.106879,-0.007874,0.009033,-0.991943,0.312458,0.493435,-0.237863,51,276,587,6224
1644186014.155275,-0.006714,0.010193,-0.990356,0.205588,0.386565,-0.14626,48,276,580,6224
1644186014.20368,-0.007812,0.010071,-0.990112,0.312458,0.447634,-0.14626,53,269,583,6192
1644186014.252072,-0.007751,0.010437,-0.990967,0.404061,0.310229,-0.069924,40,280,584,6192
1644186014.300454,-0.010986,0.006348,-0.989685,0.236122,0.401832,-0.161527,47,273,577,6224
1644186014.348869,-0.008423,0.011414,-0.989441,0.281924,0.478168,-0.130992,53,279,583,6240
1644186014.397249,-0.010437,0.012085,-0.99231,0.266656,0.554504,-0.008855,46,279,583,6224
1644186014.445651,-0.011169,0.007202,-0.993896,0.220855,0.417099,-0.222595,51,276,587,6192
1644186014.494032,-0.007324,0.012146,-0.990906,0.281924,0.386565,-0.039389,47,277,572,6176
1644186014.54245,-0.011108,0.011292,-0.992615,0.312458,0.585038,-0.100458,57,282,579,6160
1644186014.590812,-0.013123,0.01178,-0.992065,0.236122,0.325496,-0.130992,54,268,586,6128
1644186014.639225,-0.008789,0.010986,-0.99292,0.175053,0.478168,0.021679,55,271,585,6224
1644186014.687622,-0.007751,0.010925,-0.99231,0.266656,0.371298,0.006412,43,271,587,6224
1644186014.737994,-0.007629,0.008606,-0.993042,0.251389,0.356031,0.006412,51,266,594,6240
1644186014.788146,-0.009949,0.010742,-0.993896,0.175053,0.462901,-0.115725,45,273,579,6176
1644186014.833214,-0.00824,0.009033,-0.991699,0.144519,0.310229,-0.085191,45,287,586,6240
1644186014.929605,-0.007874,0.01062,-0.991089,0.175053,0.646107,0.12855,57,285,586,6240
1644186014.977981,-0.00824,0.012817,-0.989929,0.175053,0.233893,0.021679,59,275,582,6256
1644186015.026361,-0.008484,0.010254,-0.990295,0.35826,0.447634,0.006412,45,273,584,6240
1644186015.074872,-0.00885,0.009094,-0.990845,0.373527,0.310229,0.021679,57,285,584,6176
1644186015.123191,-0.00824,0.011353,-0.990112,0.159786,0.417099,-0.115725,51,281,580,6240
1644186015.171528,-0.009216,0.010437,-0.992798,0.312458,0.386565,-0.008855,49,275,579,6176
1644186015.219898,-0.005737,0.010498,-0.991699,0.251389,0.371298,-0.130992,42,270,589,6176
1644186015.268303,-0.009216,0.012634,-0.993408,0.236122,0.417099,0.067481,52,265,584,6256
1644186015.316711,-0.00708,0.009033,-0.991455,0.098718,0.325496,-0.176794,43,276,580,6192
1644186015.365208,-0.010132,0.009705,-0.99115,0.113985,0.447634,-0.039389,53,274,578,6192
1644186015.413515,-0.010254,0.011108,-0.990417,0.312458,0.371298,0.036947,47,280,579,6224
1644186015.461886,-0.010864,0.007568,-0.99176,0.129252,0.386565,-0.14626,61,277,593,6288
1644186015.510258,-0.010864,0.009949,-0.993408,0.236122,0.417099,-0.25313,52,277,577,6176
1644186015.558681,-0.006653,0.009033,-0.992676,0.159786,0.432366,-0.085191,55,281,578,6224
1644186015.607079,-0.008179,0.00708,-0.992554,0.281924,0.493435,-0.130992,54,282,586,6224
1644186015.655465,-0.010437,0.007996,-0.992859,0.236122,0.447634,-0.100458,48,274,573,6160
1644186015.703848,-0.007141,0.010254,-0.992126,0.236122,0.264427,0.036947,42,275,577,6160
1644186015.752265,-0.011169,0.008484,-0.990662,0.113985,0.264427,-0.14626,45,268,586,6240
1644186015.801991,-0.008789,0.011169,-0.991089,0.129252,0.401832,-0.069924,54,277,582,6240
1644186015.853809,-0.007507,0.010071,-0.990723,0.220855,0.462901,-0.192061,47,280,579,6240
1644186015.898124,-0.006592,0.008545,-0.991699,0.220855,0.478168,-0.25313,57,287,575,6256
1644186015.994256,-0.008728,0.010559,-0.993713,0.312458,0.340763,-0.161527,45,280,582,6192
1644186016.042651,-0.006226,0.010315,-0.99054,0.068183,0.371298,-0.161527,53,283,585,6192
1644186016.091573,-0.009644,0.010193,-0.992004,0.08345,0.523969,-0.207328,53,269,590,6224
1644186016.139398,-0.010132,0.009949,-0.99353,0.281924,0.356031,-0.100458,51,276,578,6176
1644186016.18778,-0.008423,0.014221,-0.989746,0.159786,0.554504,-0.268397,48,266,590,6224
1644186016.236158,-0.00946,0.009277,-0.992249,0.159786,0.523969,0.036947,53,276,583,6160
1644186016.284692,-0.008423,0.00824,-0.991272,0.052916,0.447634,-0.085191,47,275,589,6176
1644186016.332978,-0.00592,0.008789,-0.991577,0.175053,0.401832,-0.161527,52,275,589,6240
1644186016.381363,-0.005859,0.010437,-0.991272,0.220855,0.356031,-0.161527,49,263,591,6224
1644186016.429749,-0.007874,0.008789,-0.991028,0.312458,0.478168,0.006412,46,276,592,6224
1644186016.478153,-0.008728,0.009766,-0.992371,0.190321,0.508702,-0.024122,54,282,586,6160
1644186016.526538,-0.006714,0.009338,-0.993286,0.312458,0.508702,-0.115725,48,271,580,6192
1644186016.574917,-0.006958,0.01123,-0.993652,0.281924,0.371298,-0.161527,59,282,577,6224
1644186016.623316,-0.01062,0.008179,-0.991333,0.266656,0.554504,-0.130992,55,279,585,6176
1644186016.671772,-0.009888,0.011047,-0.990845,0.342992,0.417099,-0.085191,43,276,590,6224
1644186016.72113,-0.008911,0.009521,-0.990479,0.144519,0.432366,0.021679,54,277,579,6240
1644186016.771429,-0.007812,0.007385,-0.989807,0.251389,0.569771,-0.115725,48,281,590,6176
1644186016.821782,-0.009216,0.007812,-0.990479,0.159786,0.432366,-0.100458,54,275,582,6224
1644186016.91375,-0.011108,0.010559,-0.990967,0.312458,0.508702,-0.283664,52,280,582,6224
1644186016.962434,-0.007324,0.010376,-0.991699,0.220855,0.478168,-0.024122,46,276,571,6224
1644186017.010477,-0.00824,0.008667,-0.992126,0.190321,0.325496,-0.14626,43,276,578,6224
1644186017.060919,-0.00769,0.012756,-0.987854,0.205588,0.478168,-0.115725,46,283,580,6160
1644186017.107274,-0.006958,0.011719,-0.992798,0.159786,0.401832,-0.237863,54,273,579,6128
1644186017.155678,-0.008362,0.007935,-0.992981,0.327725,0.401832,-0.115725,43,293,580,6224
1644186017.204081,-0.007507,0.007874,-0.991943,0.46513,0.417099,-0.14626,40,275,589,6256
1644186017.252456,-0.006897,0.009705,-0.993347,0.297191,0.432366,0.006412,41,279,583,6240
1644186017.300837,-0.005615,0.009705,-0.992615,0.312458,0.340763,0.12855,40,277,577,6240
1644186017.349234,-0.009155,0.009399,-0.990295,0.373527,0.340763,-0.130992,43,274,583,6224
1644186017.39764,-0.009216,0.009949,-0.991272,0.205588,0.340763,-0.054656,57,280,577,6224
1644186017.446036,-0.005859,0.010315,-0.992126,0.266656,0.386565,0.052214,52,270,584,6240
1644186017.494447,-0.009216,0.00946,-0.992249,0.220855,0.600305,-0.054656,36,274,573,6192
1644186017.542842,-0.008362,0.008301,-0.992004,0.251389,0.325496,-0.161527,51,281,585,6160
1644186017.591214,-0.00592,0.009827,-0.989624,0.190321,0.294962,0.036947,52,277,589,6240
1644186017.639603,-0.007507,0.00946,-0.992798,0.312458,0.600305,-0.039389,49,280,586,6240
1644186017.68799,-0.007202,0.008911,-0.990723,0.236122,0.462901,-0.130992,49,275,584,6224
1644186017.736404,-0.007324,0.011475,-0.991333,0.190321,0.615573,-0.008855,48,269,590,6224
1644186017.786015,-0.009705,0.00769,-0.993469,0.404061,0.447634,-0.039389,47,270,582,6224
1644186017.836466,-0.007385,0.006958,-0.991821,0.190321,0.386565,-0.222595,46,271,576,6176
1644186017.886788,-0.011047,0.006531,-0.991882,0.236122,0.401832,-0.161527,46,269,578,6240
1644186017.931006,-0.010803,0.009644,-0.991272,0.312458,0.417099,-0.054656,48,274,583,6224
1644186018.026737,-0.005615,0.010986,-0.988953,0.159786,0.462901,-0.130992,47,280,579,6224
1644186018.07533,-0.012146,0.00824,-0.992065,0.205588,0.447634,-0.130992,47,273,589,6176
1644186018.123466,-0.007385,0.012939,-0.992798,0.113985,0.569771,-0.130992,43,269,583,6160
1644186018.171902,-0.008179,0.009216,-0.990784,0.236122,0.447634,-0.130992,45,273,577,6192
1644186018.220279,-0.006348,0.00592,-0.992004,0.312458,0.371298,-0.130992,43,286,578,6240
1644186018.268687,-0.009949,0.00824,-0.992432,0.266656,0.432366,-0.25313,48,283,590,6176
1644186018.317059,-0.005249,0.006958,-0.993774,0.129252,0.401832,-0.130992,57,265,586,6192
1644186018.365461,-0.009705,0.009216,-0.990234,0.159786,0.478168,-0.100458,41,286,583,6240
1644186018.413867,-0.00708,0.010254,-0.993347,0.297191,0.340763,-0.024122,46,279,576,6192
1644186018.462268,-0.006653,0.01123,-0.992981,0.144519,0.325496,-0.161527,47,282,582,6224
1644186018.510652,-0.010193,0.010132,-0.987732,0.205588,0.462901,-0.024122,45,270,577,6240
1644186018.559034,-0.010376,0.005859,-0.991821,0.220855,0.462901,-0.115725,43,279,576,6224
1644186018.607435,-0.009888,0.010071,-0.992126,0.236122,0.356031,-0.085191,48,271,583,6240
1644186018.655805,-0.008484,0.006409,-0.990845,0.220855,0.386565,0.052214,48,279,583,6160
1644186018.704219,-0.009827,0.007996,-0.991943,0.190321,0.432366,-0.085191,48,271,576,6224
1644186018.752591,-0.012756,0.009277,-0.993347,0.113985,0.447634,-0.176794,54,282,589,6128
1644186018.801046,-0.008728,0.007507,-0.991272,0.297191,0.264427,-0.14626,40,290,582,6256
1644186018.849428,-0.008362,0.009583,-0.992126,0.342992,0.356031,-0.054656,45,275,586,6224
1644186018.897845,-0.006714,0.006836,-0.992615,0.251389,0.417099,-0.237863,42,282,584,6160
1644186018.947063,-0.008301,0.008606,-0.991272,0.373527,0.310229,-0.14626,54,275,584,6224
1644186018.997252,-0.008667,0.011475,-0.992615,0.190321,0.340763,-0.115725,46,264,583,6256
1644186019.064911,-0.00824,0.008728,-0.992371,0.022382,0.447634,-0.054656,52,280,584,6224
1644186019.097574,-0.008118,0.010193,-0.993835,0.052916,0.294962,-0.207328,54,275,589,6304
1644186019.188131,-0.007812,0.011719,-0.988831,0.08345,0.356031,-0.14626,46,264,585,6224
1644186019.236515,-0.007812,0.009033,-0.988098,0.236122,0.585038,-0.100458,48,279,576,6192
1644186019.284928,-0.008667,0.012634,-0.990723,0.205588,0.279695,-0.085191,45,277,584,6160
1644186019.333329,-0.006653,0.010254,-0.991394,0.327725,0.417099,-0.069924,51,279,576,6192
1644186019.381717,-0.007202,0.011902,-0.991638,0.266656,0.478168,-0.115725,52,270,577,6192
1644186019.430113,-0.010681,0.01062,-0.993164,0.190321,0.371298,-0.161527,53,279,580,6176
1644186019.478504,-0.007263,0.009033,-0.990906,0.129252,0.371298,0.098015,32,274,587,6224
1644186019.526884,-0.007019,0.008789,-0.992065,0.297191,0.447634,-0.008855,51,281,573,6224
1644186019.575282,-0.008301,0.010742,-0.992493,0.236122,0.554504,-0.054656,49,273,579,6240
1644186019.623689,-0.009155,0.008789,-0.992188,0.220855,0.371298,-0.069924,42,273,577,6224
1644186019.672073,-0.00708,0.009766,-0.988831,0.220855,0.401832,-0.100458,47,268,584,6240
1644186019.720439,-0.006042,0.010376,-0.990601,0.205588,0.340763,-0.069924,49,282,582,6192
1644186019.768861,-0.007446,0.005432,-0.993591,-0.02342,0.24916,-0.176794,40,273,582,6224
1644186019.81727,-0.008789,0.011292,-0.993835,0.404061,0.386565,-0.100458,49,280,582,6176
1644186019.865691,-0.006165,0.010559,-0.990601,0.190321,0.356031,-0.069924,45,280,579,6224
1644186019.91409,-0.007874,0.009827,-0.987915,0.08345,0.447634,-0.054656,45,275,584,6224
1644186019.96246,-0.008545,0.008606,-0.990112,0.205588,0.401832,-0.176794,49,275,591,6256
1644186020.062891,-0.00708,0.009521,-0.991943,0.388794,0.417099,-0.14626,55,276,592,6240
1644186020.107562,-0.00647,0.011475,-0.989441,0.236122,0.447634,-0.115725,51,274,587,6224
1644186020.15597,-0.009644,0.010498,-0.989319,0.266656,0.493435,0.006412,47,275,589,6160
1644186020.204414,-0.010376,0.009888,-0.990295,0.022382,0.462901,-0.008855,48,274,583,6240
1644186020.252777,-0.009216,0.011841,-0.99115,0.190321,0.386565,-0.192061,41,274,576,6256
1644186020.301201,-0.012024,0.006714,-0.990601,0.190321,0.523969,-0.054656,47,277,577,6176
1644186020.34975,-0.00769,0.010864,-0.993103,0.251389,0.447634,-0.115725,48,269,587,6240
1644186020.397972,-0.006653,0.011108,-0.992798,0.297191,0.462901,-0.176794,52,268,586,6240
1644186020.446371,-0.00647,0.008545,-0.993164,0.251389,0.447634,0.006412,49,270,586,6128
1644186020.494734,-0.005676,0.009827,-0.989197,0.068183,0.478168,-0.069924,52,268,591,6160
1644186020.543153,-0.007446,0.009155,-0.989563,0.190321,0.371298,-0.207328,48,274,576,6224
1644186020.591545,-0.008484,0.00824,-0.992737,0.312458,0.600305,-0.100458,48,276,590,6224
1644186020.639938,-0.008423,0.008789,-0.990173,0.297191,0.447634,-0.14626,46,281,585,6192
1644186020.688335,-0.009949,0.007935,-0.99408,0.205588,0.310229,-0.192061,54,270,584,6224
1644186020.736717,-0.007446,0.010925,-0.990295,0.312458,0.279695,-0.161527,45,265,596,6256
1644186020.785164,-0.007812,0.006653,-0.991211,0.480397,0.493435,-0.130992,59,280,584,6240
1644186020.833551,-0.009094,0.011292,-0.990051,0.175053,0.554504,-0.192061,43,276,585,6224
1644186020.882869,-0.010559,0.010681,-0.991577,0.190321,0.356031,0.12855,47,280,570,6224
1644186020.933792,-0.009033,0.008911,-0.991455,0.175053,0.294962,-0.039389,42,282,582,6192
1644186020.983645,-0.006653,0.008362,-0.990906,0.327725,0.493435,-0.207328,39,281,578,6224
1644186021.027921,-0.008789,0.01123,-0.992493,0.175053,0.294962,-0.176794,46,276,585,6256
1644186021.123922,-0.009521,0.010254,-0.991821,0.205588,0.417099,-0.069924,49,280,584,6224
1644186021.172398,-0.007141,0.007202,-0.991455,0.312458,0.462901,-0.085191,45,273,582,6192
1644186021.22065,-0.007751,0.01001,-0.99292,0.35826,0.386565,0.006412,42,280,577,6240
1644186021.269037,-0.009949,0.01123,-0.990967,0.266656,0.462901,-0.069924,39,271,580,6224
1644186021.317435,-0.008728,0.011292,-0.989075,0.342992,0.432366,-0.115725,49,280,591,6192
1644186021.365831,-0.009888,0.00824,-0.99176,0.205588,0.462901,-0.298931,45,285,579,6224
1644186021.414231,-0.008057,0.012634,-0.995178,0.220855,0.447634,-0.115725,51,274,592,6240
1644186021.46262,-0.009399,0.010986,-0.99115,0.205588,0.462901,-0.054656,41,269,573,6192
1644186021.510978,-0.011597,0.007507,-0.991516,0.144519,0.523969,-0.039389,42,282,577,6112
1644186021.559387,-0.013184,0.006104,-0.992859,0.281924,0.325496,-0.008855,49,280,579,6176
1644186021.607791,-0.010132,0.010132,-0.990173,0.220855,0.386565,-0.054656,52,273,584,6256
1644186021.656193,-0.009644,0.008911,-0.991821,0.236122,0.356031,-0.100458,48,276,583,6240
1644186021.704704,-0.007324,0.009338,-0.992981,0.220855,0.386565,-0.100458,52,268,579,6256
1644186021.752992,-0.006897,0.010864,-0.990234,0.281924,0.539237,-0.176794,49,273,572,6176
1644186021.801373,-0.006897,0.010803,-0.98999,0.35826,0.310229,-0.100458,45,280,596,6256
1644186021.84977,-0.006592,0.011536,-0.988159,0.037649,0.371298,-0.054656,52,277,568,6256
1644186021.898197,-0.00885,0.005737,-0.992432,0.236122,0.371298,-0.222595,54,273,582,6192
1644186021.946727,-0.007935,0.010254,-0.995667,0.236122,0.508702,-0.024122,48,259,585,6256
1644186021.995161,-0.006592,0.010437,-0.990906,0.236122,0.325496,-0.176794,49,277,591,6224
1644186022.055938,-0.009399,0.00769,-0.991211,0.266656,0.432366,-0.054656,47,282,596,6240
1644186022.102512,-0.010254,0.009094,-0.993652,0.281924,0.371298,-0.14626,51,281,583,6224
1644186022.140429,-0.007751,0.013184,-0.991028,0.297191,0.233893,-0.14626,47,280,582,6224
1644186022.236883,-0.007507,0.006165,-0.990967,0.190321,0.508702,-0.085191,42,268,582,6240
1644186022.285384,-0.01001,0.007935,-0.993103,0.236122,0.462901,-0.14626,46,279,587,6176
1644186022.333691,-0.00946,0.009338,-0.992737,0.220855,0.432366,-0.024122,61,280,582,6128
1644186022.38209,-0.008057,0.007812,-0.992188,0.190321,0.325496,-0.207328,36,271,576,6224
1644186022.430466,-0.006409,0.011108,-0.989624,0.190321,0.310229,-0.100458,46,276,590,6192
1644186022.478861,-0.006714,0.01123,-0.990845,0.175053,0.371298,0.12855,45,280,579,6192
1644186022.527243,-0.008423,0.01001,-0.992004,0.266656,0.417099,-0.100458,55,276,576,6176
1644186022.575643,-0.008728,0.011169,-0.992798,0.312458,0.310229,-0.130992,45,273,584,6224
1644186022.624095,-0.011536,0.007446,-0.992188,0.190321,0.401832,-0.069924,48,276,587,6192
1644186022.672447,-0.009033,0.00592,-0.991394,0.144519,0.447634,-0.176794,48,274,578,6224
1644186022.720836,-0.007812,0.009888,-0.991394,0.281924,0.508702,-0.054656,49,277,600,6224
1644186022.76923,-0.007263,0.012756,-0.992615,0.190321,0.432366,-0.130992,38,275,586,6192
1644186022.817622,-0.00592,0.007141,-0.99115,0.312458,0.386565,0.082748,39,281,587,6288
1644186022.866031,-0.008606,0.010132,-0.992371,0.251389,0.401832,-0.115725,52,273,586,6176
1644186022.914452,-0.009094,0.01123,-0.993164,0.08345,0.478168,-0.115725,43,279,578,6240
1644186022.962867,-0.009338,0.00824,-0.989929,0.266656,0.447634,-0.130992,49,270,582,6240
1644186023.011224,-0.010742,0.009583,-0.990479,0.159786,0.325496,-0.085191,58,283,583,6240
1644186023.081043,-0.009033,0.010254,-0.992065,0.327725,0.493435,-0.054656,64,277,589,6160
1644186023.114162,-0.009094,0.010132,-0.992065,0.205588,0.386565,0.159084,54,280,582,6240
1644186023.159364,-0.007446,0.008423,-0.991821,0.327725,0.462901,0.067481,53,288,580,6256
1644186023.208473,-0.00824,0.008118,-0.99408,0.08345,0.310229,-0.069924,53,271,585,6128
1644186023.2534,-0.00531,0.008362,-0.989868,0.220855,0.462901,-0.008855,43,281,583,6192
1644186023.350143,-0.008667,0.008057,-0.993652,0.373527,0.340763,-0.100458,53,271,571,6176
1644186023.398323,-0.012085,0.01062,-0.991638,0.480397,0.401832,0.082748,55,269,585,6224
1644186023.446695,-0.011353,0.009399,-0.990234,0.159786,0.310229,0.052214,58,271,587,6128
1644186023.495227,-0.007812,0.009705,-0.991638,0.159786,0.447634,-0.085191,45,290,575,6176
1644186023.543518,-0.010437,0.007629,-0.992676,0.205588,0.447634,-0.039389,49,277,577,6224
1644186023.591882,-0.009521,0.008484,-0.991882,0.190321,0.600305,-0.039389,53,279,578,6192
1644186023.640303,-0.004211,0.007996,-0.989319,0.35826,0.310229,0.021679,52,273,577,6176
1644186023.688693,-0.009277,0.008423,-0.993225,0.190321,0.386565,-0.069924,53,274,571,6192
1644186023.737087,-0.010376,0.009338,-0.991089,0.251389,0.294962,0.006412,61,285,570,6192
1644186023.785482,-0.008362,0.009949,-0.993896,0.388794,0.371298,0.021679,45,275,582,6160
1644186023.833886,-0.008362,0.009094,-0.993774,0.297191,0.401832,0.021679,45,275,584,6160
1644186023.882324,-0.007019,0.010742,-0.989258,0.205588,0.371298,-0.085191,52,268,589,6224
1644186023.930678,-0.008606,0.007874,-0.990845,0.220855,0.294962,-0.100458,54,268,575,6256
1644186023.979081,-0.008301,0.009766,-0.991089,0.297191,0.462901,-0.024122,45,270,582,6240
1644186024.027485,-0.008545,0.008057,-0.993835,-0.008153,0.539237,-0.207328,47,280,582,6224
1644186024.096426,-0.007568,0.013062,-0.994019,0.266656,0.371298,-0.36,48,276,585,6224
1644186024.124258,-0.010803,0.01001,-0.992676,0.220855,0.478168,-0.039389,47,285,586,6192
1644186024.173683,-0.010925,0.010559,-0.992737,-0.02342,0.539237,-0.085191,54,268,584,6240
1644186024.223309,-0.010681,0.010986,-0.991211,0.388794,0.401832,-0.008855,49,275,582,6176
1644186024.273711,-0.008362,0.010681,-0.989929,0.190321,0.356031,-0.14626,61,277,591,6240
1644186024.318766,-0.008911,0.010376,-0.993591,0.113985,0.569771,0.067481,49,277,586,6240
1644186024.414895,-0.00647,0.012207,-0.991699,0.297191,0.493435,-0.069924,54,270,582,6240
1644186024.462986,-0.006042,0.006714,-0.993591,0.297191,0.340763,0.006412,38,265,579,6256
1644186024.511353,-0.006653,0.012878,-0.990784,0.08345,0.432366,-0.130992,48,276,590,6160
1644186024.559736,-0.008179,0.012695,-0.989502,0.159786,0.478168,-0.192061,51,266,576,6192
1644186024.608148,-0.009338,0.008911,-0.991516,0.205588,0.371298,-0.069924,40,268,584,6192
1644186024.656536,-0.00824,0.009216,-0.992432,0.35826,0.340763,-0.054656,49,275,575,6128
1644186024.704923,-0.009521,0.011536,-0.995056,0.312458,0.386565,-0.069924,43,274,576,6304
1644186024.753313,-0.007202,0.008301,-0.992249,0.159786,0.462901,-0.176794,48,266,583,6240
1644186024.801737,-0.006042,0.009521,-0.990601,0.266656,0.661374,-0.100458,48,286,578,6176
1644186024.85013,-0.007263,0.010376,-0.991943,0.297191,0.462901,-0.161527,40,275,579,6192
1644186024.89855,-0.011719,0.012024,-0.991272,0.220855,0.417099,0.067481,54,277,586,6224
1644186024.946936,-0.007812,0.009888,-0.991211,0.175053,0.539237,-0.085191,46,281,583,6176
1644186024.99592,-0.009949,0.008606,-0.989502,0.205588,0.523969,-0.039389,48,274,587,6224
1644186025.054378,-0.010376,0.00885,-0.989929,0.190321,0.279695,-0.25313,60,283,585,6224
1644186025.093959,-0.009888,0.011841,-0.992249,0.098718,0.325496,-0.054656,64,275,596,6176
1644186025.140529,-0.007935,0.010559,-0.98999,0.342992,0.340763,-0.192061,51,274,580,6224
1644186025.188912,-0.007324,0.013,-0.992188,0.220855,0.310229,-0.115725,41,271,587,6176
1644186025.237653,-0.00769,0.009827,-0.991028,0.098718,0.371298,-0.085191,48,274,590,6240
1644186025.28569,-0.007874,0.009644,-0.989258,0.251389,0.401832,-0.130992,41,271,587,6240
1644186025.335326,-0.008789,0.011475,-0.99353,0.327725,0.432366,-0.237863,36,274,578,6224
1644186025.385927,-0.008362,0.008789,-0.99292,0.220855,0.447634,-0.130992,51,269,587,6176
1644186025.436286,-0.010559,0.00824,-0.989319,0.129252,0.356031,-0.008855,53,281,585,6224
1644186025.480596,-0.007385,0.008789,-0.991211,0.236122,0.478168,-0.161527,46,271,580,6240
1644186025.576037,-0.008179,0.012939,-0.991028,0.220855,0.508702,-0.222595,42,277,586,6224
1644186025.624449,-0.008057,0.011475,-0.991272,0.220855,0.447634,-0.069924,53,279,592,6224
1644186025.672848,-0.008301,0.009705,-0.991638,0.144519,0.24916,-0.085191,49,282,575,6240
1644186025.721241,-0.008667,0.008179,-0.989563,0.342992,0.493435,-0.069924,53,264,580,6224
1644186025.769627,-0.008423,0.010376,-0.992249,0.098718,0.401832,-0.054656,43,269,585,6192
1644186025.81802,-0.009033,0.009155,-0.989136,0.327725,0.508702,-0.100458,48,279,576,6176
1644186025.866394,-0.009094,0.006348,-0.990784,0.175053,0.432366,-0.054656,46,276,580,6192
1644186025.914804,-0.00824,0.012085,-0.991943,0.266656,0.203359,-0.14626,52,275,593,6192
1644186025.963202,-0.004761,0.010986,-0.991943,0.388794,0.356031,-0.069924,45,277,584,6256
1644186026.011564,-0.007751,0.009705,-0.993042,0.098718,0.493435,-0.100458,48,279,587,6240
1644186026.065753,-0.009338,0.010437,-0.992798,0.297191,0.585038,0.098015,52,273,586,6192
1644186026.108318,-0.004883,0.011108,-0.992371,0.220855,0.432366,-0.161527,46,279,583,6224
1644186026.156728,-0.006714,0.007141,-0.992188,0.251389,0.401832,-0.069924,51,271,583,6192
1644186026.205188,-0.007629,0.014465,-0.990723,0.251389,0.447634,-0.192061,46,276,576,6240
1644186026.253498,-0.00647,0.011047,-0.992004,0.129252,0.432366,-0.069924,47,282,589,6176
1644186026.301913,-0.006348,0.010071,-0.992981,0.266656,0.417099,-0.14626,42,282,584,6256
1644186026.350295,-0.00885,0.011108,-0.989929,0.022382,0.279695,-0.039389,47,275,582,6192
1644186026.398682,-0.008545,0.009094,-0.991638,0.251389,0.356031,-0.130992,55,276,590,6288
1644186026.44735,-0.008301,0.010803,-0.990417,0.281924,0.508702,-0.054656,49,277,577,6192
1644186026.497169,-0.007935,0.011414,-0.989807,0.205588,0.279695,-0.085191,51,279,580,6224
1644186026.547041,-0.006409,0.011536,-0.992981,0.342992,0.310229,-0.085191,57,270,586,6240
1644186026.597381,-0.006042,0.008484,-0.991699,0.113985,0.493435,0.036947,51,271,599,6256
1644186026.689038,-0.006531,0.009094,-0.991211,0.205588,0.417099,-0.115725,53,269,583,6192
1644186026.737425,-0.010803,0.010803,-0.98999,0.220855,0.386565,-0.069924,46,281,592,6224
1644186026.785811,-0.011597,0.01001,-0.993103,0.266656,0.432366,-0.161527,43,276,585,6160
1644186026.834268,-0.006531,0.01001,-0.992126,0.388794,0.554504,-0.085191,40,280,572,6240
1644186026.882661,-0.008484,0.012878,-0.991455,0.281924,0.447634,-0.085191,43,264,571,6080
1644186026.931065,-0.01062,0.011597,-0.992432,0.297191,0.462901,-0.115725,42,275,584,6256
1644186026.979444,-0.008545,0.00708,-0.99353,0.159786,0.401832,-0.069924,53,269,585,6176
1644186027.027824,-0.00824,0.010254,-0.990234,0.281924,0.539237,-0.024122,40,275,579,6192
1644186027.084839,-0.00824,0.010681,-0.989441,0.373527,0.462901,-0.054656,58,274,583,6176
1644186027.12471,-0.008301,0.008728,-0.990356,0.327725,0.447634,-0.039389,51,276,578,6160
1644186027.173007,-0.007446,0.009155,-0.990417,0.327725,0.447634,-0.008855,40,277,584,6128
1644186027.221372,-0.006531,0.011108,-0.991455,0.251389,0.462901,-0.115725,53,279,594,6256
1644186027.269769,-0.011414,0.010193,-0.989624,0.144519,0.432366,-0.161527,61,263,591,6224
1644186027.318157,-0.010986,0.006714,-0.991638,0.190321,0.432366,-0.115725,35,275,579,6224
1644186027.366553,-0.007935,0.010986,-0.995117,0.266656,0.371298,-0.222595,57,270,582,6256
1644186027.414986,-0.009155,0.009766,-0.990356,0.251389,0.523969,-0.100458,47,275,591,6192
1644186027.463311,-0.007507,0.011414,-0.99115,0.342992,0.447634,-0.115725,34,279,587,6256
1644186027.511728,-0.007874,0.011963,-0.989441,0.35826,0.294962,0.006412,53,288,585,6256
1644186027.560123,-0.006775,0.007385,-0.993164,0.129252,0.554504,-0.039389,53,276,587,6224
1644186027.60855,-0.006775,0.010193,-0.992188,0.312458,0.554504,-0.115725,39,283,569,6256
1644186027.658996,-0.00885,0.011597,-0.990051,0.342992,0.600305,-0.008855,51,269,585,6224
1644186027.709259,-0.005188,0.009155,-0.990112,0.266656,0.462901,-0.024122,53,279,580,6176
1644186027.754244,-0.006653,0.010132,-0.992798,0.144519,0.340763,-0.069924,38,275,577,6160
1644186027.850513,-0.00647,0.010193,-0.99231,0.266656,0.340763,-0.085191,49,273,586,6256
1644186027.898908,-0.009827,0.010925,-0.994019,0.159786,0.462901,-0.100458,52,263,586,6192
1644186027.947303,-0.007324,0.010132,-0.994202,0.175053,0.417099,-0.115725,52,277,582,6224
1644186027.995692,-0.012268,0.008667,-0.991211,0.129252,0.371298,0.082748,52,270,582,6192
1644186028.05382,-0.006775,0.009033,-0.991882,0.129252,0.417099,-0.039389,46,266,578,6224
1644186028.093349,-0.008057,0.011536,-0.991821,0.297191,0.462901,-0.024122,42,285,589,6240
1644186028.140849,-0.009399,0.007629,-0.993469,0.297191,0.417099,-0.115725,51,281,585,6240
1644186028.18925,-0.008179,0.009521,-0.991882,0.144519,0.325496,-0.039389,55,269,580,6176
1644186028.237633,-0.010742,0.008118,-0.992859,0.251389,0.508702,-0.054656,52,273,586,6224
1644186028.285995,-0.011658,0.011475,-0.990234,0.113985,0.386565,-0.14626,49,275,589,6224
1644186028.33442,-0.011658,0.009216,-0.99292,0.190321,0.462901,-0.14626,47,275,582,6224
1644186028.382823,-0.009766,0.011414,-0.991089,0.251389,0.478168,0.036947,54,265,584,6256
1644186028.431214,-0.009521,0.009521,-0.99176,0.35826,0.462901,-0.115725,36,279,592,6256
1644186028.481047,-0.00769,0.009094,-0.993103,0.312458,0.356031,-0.130992,43,276,583,6224
1644186028.5314,-0.009399,0.010864,-0.990967,0.297191,0.447634,-0.161527,43,274,587,6224
1644186028.581416,-0.005188,0.008972,-0.991028,0.113985,0.585038,0.098015,47,270,579,6224
1644186028.67318,-0.009521,0.008667,-0.992249,0.129252,0.493435,-0.054656,47,285,579,6224
1644186028.72155,-0.00946,0.006348,-0.991211,0.251389,0.508702,-0.298931,57,275,584,6224
1644186028.769949,-0.008667,0.00946,-0.990845,0.251389,0.356031,-0.298931,52,260,579,6240
1644186028.818331,-0.007751,0.007507,-0.992065,0.129252,0.356031,-0.100458,58,281,576,6224
1644186028.866759,-0.007629,0.009888,-0.99176,0.46513,0.294962,0.036947,54,270,577,6224
1644186028.915192,-0.010132,0.009766,-0.990723,0.205588,0.371298,0.021679,55,274,583,6224
1644186028.963562,-0.009033,0.006714,-0.992065,0.190321,0.203359,-0.008855,48,276,587,6160
1644186029.011962,-0.007629,0.010437,-0.991577,0.129252,0.539237,-0.14626,45,268,591,6224
1644186029.061718,-0.010315,0.009033,-0.991638,0.159786,0.508702,-0.024122,46,271,578,6176
1644186029.108737,-0.010071,0.007568,-0.995178,0.159786,0.310229,-0.130992,54,270,575,6304
1644186029.157076,-0.007935,0.00946,-0.994019,0.144519,0.417099,-0.024122,47,275,577,6240
1644186029.205507,-0.007935,0.009155,-0.993042,0.08345,0.371298,-0.069924,54,285,582,6224
1644186029.253899,-0.008423,0.009399,-0.991272,0.281924,0.386565,-0.024122,55,269,587,6224
1644186029.302255,-0.008667,0.009888,-0.993347,0.281924,0.371298,-0.069924,46,286,580,6224
1644186029.350663,-0.008301,0.01062,-0.99115,0.297191,0.432366,-0.085191,51,281,580,6176
1644186029.399067,-0.007446,0.010193,-0.993958,0.281924,0.493435,0.021679,52,273,579,6176
1644186029.447459,-0.011963,0.009888,-0.993896,0.190321,0.340763,-0.039389,52,275,584,6240
1644186029.495851,-0.010315,0.008484,-0.989807,0.281924,0.356031,-0.008855,52,275,591,6288
1644186029.544523,-0.008728,0.009216,-0.990112,0.022382,0.386565,-0.024122,43,269,585,6128
1644186029.593349,-0.00885,0.008728,-0.993835,0.175053,0.417099,-0.115725,40,273,584,6176
1644186029.64375,-0.008057,0.008911,-0.989868,0.144519,0.356031,-0.085191,43,271,585,6256
1644186029.693954,-0.008484,0.007874,-0.991638,0.144519,0.432366,-0.130992,43,279,571,6240
1644186029.739011,-0.008606,0.012085,-0.989075,0.205588,0.432366,-0.024122,45,277,584,6192
1644186029.834977,-0.00769,0.011108,-0.992432,0.312458,0.585038,-0.130992,41,274,573,6192
1644186029.883036,-0.006226,0.011902,-0.988525,0.251389,0.371298,-0.161527,41,276,576,6240
1644186029.931416,-0.005554,0.010803,-0.990112,0.113985,0.523969,-0.268397,47,290,577,6256
1644186029.97981,-0.007812,0.011353,-0.991028,0.144519,0.371298,-0.039389,54,277,570,6224
1644186030.028201,-0.009766,0.009399,-0.993713,0.281924,0.325496,-0.054656,54,275,584,6224
1644186030.076674,-0.009277,0.010681,-0.989197,0.037649,0.279695,-0.14626,51,283,583,6224
1644186030.125033,-0.008667,0.009521,-0.991272,0.236122,0.218626,0.052214,55,279,578,6176
1644186030.173359,-0.009277,0.011536,-0.992004,0.175053,0.371298,-0.039389,48,276,580,6224
1644186030.221734,-0.009216,0.008728,-0.991089,0.297191,0.294962,0.036947,46,283,576,6240
1644186030.27013,-0.006409,0.008789,-0.994873,0.175053,0.462901,-0.085191,54,282,575,6224
1644186030.318522,-0.008911,0.008911,-0.98999,0.220855,0.264427,-0.085191,49,268,591,6192
1644186030.366923,-0.010559,0.010803,-0.990479,0.08345,0.447634,-0.100458,54,277,579,6224
1644186030.415304,-0.007446,0.007446,-0.989807,0.129252,0.264427,-0.130992,54,273,584,6240
1644186030.463709,-0.008606,0.011719,-0.991211,0.144519,0.371298,-0.069924,54,270,593,6240
1644186030.512146,-0.008728,0.008545,-0.991333,0.281924,0.310229,0.021679,45,273,582,6224
1644186030.560491,-0.009949,0.010376,-0.99292,0.220855,0.325496,-0.008855,49,273,591,6240
1644186030.608877,-0.008972,0.008423,-0.993591,0.236122,0.523969,-0.115725,43,274,571,6160
1644186030.657268,-0.008606,0.008423,-0.991577,0.220855,0.279695,0.006412,48,274,583,6224
1644186030.705859,-0.009827,0.010315,-0.990784,0.220855,0.340763,-0.100458,52,285,589,6256
1644186030.756375,-0.008301,0.013,-0.993774,0.220855,0.554504,0.036947,54,282,575,6240
1644186030.806432,-0.009583,0.010437,-0.992065,0.220855,0.371298,-0.207328,43,281,580,6160
1644186030.851577,-0.011353,0.008667,-0.994202,0.175053,0.401832,-0.161527,48,281,597,6176
1644186030.947674,-0.007812,0.004883,-0.992981,0.312458,0.447634,-0.192061,52,268,582,6224
1644186030.996044,-0.007996,0.009583,-0.993103,0.068183,0.386565,-0.192061,33,273,586,6224
1644186031.056865,-0.009338,0.010559,-0.992859,0.022382,0.371298,-0.115725,48,274,583,6224
1644186031.097939,-0.010742,0.007935,-0.990051,0.08345,0.432366,-0.085191,49,273,593,6256
1644186031.141242,-0.008484,0.011719,-0.992737,-0.008153,0.508702,-0.176794,57,273,579,6192
1644186031.189604,-0.007263,0.008728,-0.990784,0.144519,0.523969,-0.085191,59,280,584,6240
1644186031.237987,-0.006409,0.010254,-0.990173,0.327725,0.417099,-0.054656,52,270,584,6224
1644186031.286374,-0.007507,0.009949,-0.992126,0.08345,0.386565,-0.085191,46,279,587,6224
1644186031.334781,-0.010071,0.008423,-0.990051,0.144519,0.264427,-0.054656,54,277,582,6224
1644186031.383184,-0.011292,0.008972,-0.99054,0.35826,0.401832,-0.283664,52,280,589,6192
1644186031.431565,-0.009277,0.007629,-0.992554,0.266656,0.493435,-0.054656,45,287,591,6192
1644186031.479925,-0.010376,0.009338,-0.994324,0.08345,0.432366,-0.25313,52,265,591,6176
1644186031.528346,-0.007996,0.009827,-0.991089,0.312458,0.340763,0.036947,47,270,589,6240
1644186031.576711,-0.007019,0.008301,-0.990295,0.251389,0.432366,-0.207328,53,274,585,6192
1644186031.625222,-0.009155,0.012207,-0.988892,0.251389,0.462901,-0.069924,48,269,590,6240
1644186031.673893,-0.009705,0.010071,-0.990662,0.144519,0.432366,-0.176794,51,264,583,6176
1644186031.724509,-0.008789,0.008118,-0.992371,0.327725,0.310229,-0.161527,43,283,580,6224
1644186031.774505,-0.009399,0.009277,-0.990784,0.312458,0.523969,0.036947,52,275,575,6224
1644186031.819695,-0.006287,0.009399,-0.991455,0.144519,0.523969,-0.024122,48,274,576,6240
1644186031.915579,-0.007568,0.011047,-0.990417,0.129252,0.371298,-0.039389,59,268,579,6192
1644186031.963935,-0.004211,0.010742,-0.990662,0.113985,0.218626,-0.100458,58,276,578,6192
1644186032.012431,-0.009644,0.01123,-0.993164,0.251389,0.401832,-0.115725,52,277,579,6240
1644186032.065282,-0.00885,0.012268,-0.994568,0.236122,0.386565,-0.069924,48,283,580,6224
1644186032.109062,-0.008545,0.007568,-0.993713,0.373527,0.447634,-0.115725,47,275,586,6224
1644186032.15749,-0.009949,0.008606,-0.992676,0.098718,0.447634,-0.054656,43,276,587,6240
1644186032.205859,-0.009827,0.007263,-0.993042,0.098718,0.371298,0.006412,49,285,584,6192
1644186032.254251,-0.008728,0.009033,-0.991943,0.129252,0.447634,-0.14626,46,274,578,6160
1644186032.302682,-0.007019,0.008179,-0.988708,0.144519,0.539237,-0.130992,49,277,582,6256
1644186032.351115,-0.008972,0.008179,-0.98938,0.098718,0.371298,-0.024122,48,274,587,6224
1644186032.399454,-0.009277,0.011353,-0.992981,0.037649,0.493435,-0.100458,57,280,570,6256
1644186032.447848,-0.008972,0.009827,-0.989319,0.175053,0.417099,-0.100458,43,276,578,6224
1644186032.496251,-0.009521,0.009949,-0.993835,0.236122,0.447634,-0.115725,54,277,582,6224
1644186032.544647,-0.009399,0.009888,-0.992798,0.312458,0.462901,-0.085191,57,282,584,6160
1644186032.593055,-0.007629,0.007874,-0.993286,0.159786,0.371298,-0.039389,48,286,583,6256
1644186032.641418,-0.01062,0.008118,-0.991089,0.175053,0.554504,-0.161527,42,282,577,6160
1644186032.68981,-0.007019,0.01178,-0.992554,0.266656,0.325496,-0.161527,43,283,587,6192
1644186032.738278,-0.010132,0.009583,-0.989258,0.190321,0.508702,-0.130992,47,277,582,6224
1644186032.787047,-0.009766,0.00824,-0.991638,0.297191,0.417099,-0.115725,58,281,580,6176
1644186032.836941,-0.011658,0.007812,-0.991638,0.098718,0.432366,-0.054656,46,276,585,6224
1644186032.888059,-0.010315,0.007141,-0.99115,0.281924,0.432366,-0.069924,48,279,585,6192
1644186032.93722,-0.008484,0.011353,-0.992676,0.373527,0.356031,-0.237863,43,279,587,6224
1644186033.028594,-0.009338,0.008362,-0.991577,0.190321,0.279695,-0.100458,41,269,585,6224
1644186033.07908,-0.009338,0.011536,-0.991333,0.220855,0.417099,-0.176794,51,281,590,6288
1644186033.125308,-0.008728,0.008667,-0.990295,0.175053,0.523969,-0.100458,55,269,580,6240
1644186033.173709,-0.012207,0.011047,-0.990723,0.327725,0.478168,-0.085191,41,271,580,6288
1644186033.222084,-0.009338,0.009705,-0.990784,0.35826,0.447634,0.006412,49,277,586,6176
1644186033.270503,-0.007202,0.01062,-0.992371,0.327725,0.508702,-0.176794,43,288,580,6224
1644186033.318895,-0.006592,0.010376,-0.991028,0.236122,0.432366,-0.130992,49,277,586,6224
1644186033.367279,-0.008423,0.010986,-0.991089,0.175053,0.310229,-0.085191,46,279,578,6192
1644186033.415676,-0.009155,0.012451,-0.991516,0.434595,0.401832,-0.268397,46,271,576,6224
1644186033.464077,-0.008972,0.008118,-0.990784,0.220855,0.508702,-0.054656,42,280,593,6176
1644186033.512456,-0.010132,0.00885,-0.991516,0.190321,0.340763,-0.054656,46,281,590,6224
1644186033.560849,-0.008545,0.009399,-0.993164,0.327725,0.447634,-0.161527,53,279,587,6224
1644186033.609246,-0.009216,0.007446,-0.991394,0.342992,0.386565,-0.207328,42,287,589,6256
1644186033.657629,-0.011841,0.00885,-0.991028,0.205588,0.478168,-0.069924,46,274,587,6176
1644186033.706025,-0.010315,0.007812,-0.991821,0.220855,0.462901,0.021679,35,275,589,6240
1644186033.7544,-0.007507,0.011963,-0.993286,0.220855,0.478168,-0.130992,47,265,589,6224
1644186033.802873,-0.008301,0.009766,-0.991028,0.266656,0.386565,-0.008855,46,266,583,6160
1644186033.851305,-0.009827,0.010498,-0.988464,0.205588,0.417099,-0.176794,55,271,585,6288
1644186033.899927,-0.011414,0.010315,-0.992371,0.251389,0.371298,-0.176794,48,276,587,6304
1644186033.950199,-0.009338,0.008484,-0.992676,0.220855,0.356031,-0.14626,48,271,590,6256
1644186034.001158,-0.005066,0.010315,-0.990234,0.190321,0.340763,-0.024122,49,282,570,6192
1644186034.0677,-0.008972,0.00885,-0.992676,0.205588,0.371298,0.036947,47,280,591,6256
1644186034.141559,-0.009521,0.01062,-0.992371,0.281924,0.340763,0.067481,47,277,577,6240
1644186034.189958,-0.008057,0.008057,-0.99115,0.190321,0.340763,-0.085191,52,280,589,6240
1644186034.238344,-0.007874,0.007629,-0.99115,0.175053,0.478168,-0.130992,53,281,583,6192
1644186034.286749,-0.009521,0.009155,-0.992676,0.297191,0.462901,-0.054656,46,283,578,6224
1644186034.335159,-0.009094,0.010376,-0.994507,0.220855,0.585038,-0.069924,48,279,583,6192
1644186034.383561,-0.011108,0.007996,-0.993042,0.373527,0.401832,-0.069924,51,276,590,6224
1644186034.431926,-0.013672,0.007202,-0.991821,0.312458,0.371298,-0.054656,53,281,576,6224
1644186034.480328,-0.007507,0.01062,-0.993958,0.205588,0.462901,0.021679,43,271,578,6160
1644186034.528723,-0.010559,0.009033,-0.99176,0.327725,0.386565,-0.100458,53,283,576,6128
1644186034.577111,-0.009949,0.009644,-0.990601,0.037649,0.356031,-0.115725,36,274,583,6128
1644186034.625485,-0.004517,0.008362,-0.990662,0.113985,0.432366,-0.161527,52,275,589,6224
1644186034.673895,-0.010864,0.010071,-0.993347,0.266656,0.310229,-0.085191,53,286,587,6192
1644186034.722289,-0.011047,0.011902,-0.991638,0.175053,0.218626,-0.192061,54,280,584,6224
1644186034.770674,-0.009094,0.009338,-0.99292,0.236122,0.294962,-0.039389,55,281,587,6224
1644186034.819114,-0.009216,0.008362,-0.990173,0.220855,0.386565,-0.039389,30,273,586,6304
1644186034.867504,-0.010803,0.009338,-0.99115,0.342992,0.325496,-0.024122,66,280,577,6192
1644186034.915901,-0.007874,0.008667,-0.992554,0.022382,0.508702,0.036947,53,276,592,6176
1644186034.964285,-0.010315,0.011902,-0.989868,0.251389,0.386565,-0.069924,48,274,585,6192
1644186035.012715,-0.00946,0.008545,-0.992432,0.190321,0.401832,-0.222595,40,285,586,6176
1644186035.088835,-0.008972,0.008362,-0.990112,0.327725,0.310229,-0.176794,42,275,589,6240
1644186035.157789,-0.00647,0.009888,-0.991577,0.419328,0.386565,-0.130992,58,276,587,6240
1644186035.206186,-0.008301,0.009094,-0.993958,0.236122,0.417099,-0.176794,45,277,584,6016
1644186035.254931,-0.010315,0.006897,-0.993347,0.144519,0.340763,-0.115725,53,274,580,6160
1644186035.303011,-0.011536,0.009766,-0.993408,0.052916,0.508702,-0.054656,57,285,589,6224
1644186035.351384,-0.009399,0.009827,-0.990051,0.327725,0.386565,-0.161527,46,266,590,6224
1644186035.399786,-0.010986,0.009705,-0.991699,0.205588,0.508702,-0.100458,41,274,590,6224
1644186035.448169,-0.009155,0.009766,-0.992676,0.327725,0.325496,-0.130992,55,276,578,6224
1644186035.496578,-0.008789,0.010498,-0.992249,0.266656,0.310229,0.036947,53,274,597,6224
1644186035.545003,-0.008057,0.010498,-0.990601,0.373527,0.508702,-0.14626,55,266,580,6224
1644186035.593368,-0.012329,0.00885,-0.99231,0.129252,0.371298,0.021679,58,276,578,6224
1644186035.641741,-0.005798,0.011292,-0.99408,0.052916,0.478168,-0.069924,51,274,576,6176
1644186035.690135,-0.007935,0.008606,-0.993652,0.312458,0.478168,-0.192061,45,270,582,6160
1644186035.738533,-0.009705,0.007568,-0.992493,0.281924,0.478168,-0.054656,55,276,580,6224
1644186035.786938,-0.008057,0.009094,-0.990295,0.251389,0.508702,-0.039389,49,277,593,6160
1644186035.83537,-0.01001,0.010742,-0.991821,0.08345,0.462901,-0.039389,43,276,594,6240
1644186035.883733,-0.008118,0.010437,-0.992126,0.129252,0.447634,-0.085191,48,271,580,6240
1644186035.932204,-0.008118,0.010498,-0.989685,0.266656,0.24916,-0.085191,49,275,586,6224
1644186035.980616,-0.008911,0.008911,-0.989624,0.159786,0.432366,-0.115725,48,274,594,6176
1644186036.028949,-0.007874,0.009766,-0.991638,0.373527,0.371298,-0.207328,48,271,573,6224
1644186036.084846,-0.010498,0.011414,-0.993347,0.220855,0.386565,-0.176794,55,281,583,6176
1644186036.130093,-0.007629,0.009033,-0.99231,0.205588,0.356031,0.052214,54,277,582,6224
1644186036.178348,-0.009583,0.009521,-0.991028,0.144519,0.325496,-0.069924,40,282,579,6224
1644186036.223467,-0.009521,0.00769,-0.992432,0.159786,0.386565,-0.008855,51,279,580,6224
1644186036.319243,-0.009399,0.011108,-0.991455,0.159786,0.340763,-0.008855,49,277,593,6224
1644186036.36763,-0.009766,0.011108,-0.990845,0.113985,0.340763,0.021679,53,276,580,6240
1644186036.416027,-0.007568,0.009583,-0.990906,0.190321,0.310229,-0.085191,55,286,590,6256
1644186036.46443,-0.007935,0.011292,-0.99054,0.281924,0.462901,-0.069924,51,276,580,6240
1644186036.512821,-0.005859,0.010864,-0.991333,0.159786,0.279695,-0.100458,43,276,576,6128
1644186036.561208,-0.009216,0.010132,-0.993591,0.312458,0.493435,-0.115725,46,279,571,6176
1644186036.609607,-0.009766,0.01062,-0.990112,0.251389,0.371298,-0.14626,47,270,589,6256
1644186036.658004,-0.006042,0.011353,-0.991333,0.312458,0.417099,-0.14626,51,274,585,6224
1644186036.7064,-0.009766,0.008728,-0.990479,0.297191,0.462901,-0.115725,48,281,585,6224
1644186036.754802,-0.009583,0.010803,-0.99231,0.266656,0.356031,-0.100458,47,270,575,6224
1644186036.803181,-0.007935,0.009094,-0.990601,0.419328,0.447634,-0.161527,46,274,578,6240
1644186036.851614,-0.006836,0.012207,-0.993103,0.068183,0.462901,-0.039389,45,275,582,6128
1644186036.90002,-0.011047,0.006287,-0.991821,0.098718,0.401832,-0.100458,52,280,582,6176
1644186036.9484,-0.007935,0.009338,-0.992004,0.251389,0.569771,0.143817,39,276,578,6224
1644186036.996817,-0.010681,0.010132,-0.99353,0.373527,0.371298,-0.115725,49,285,593,6176
1644186037.063969,-0.010193,0.010315,-0.991455,0.022382,0.340763,-0.207328,47,285,589,6160
1644186037.093634,-0.00885,0.009216,-0.990173,0.205588,0.386565,-0.100458,53,274,576,6224
1644186037.144681,-0.006836,0.006592,-0.995056,0.281924,0.279695,-0.024122,52,275,591,6240
1644186037.19033,-0.00824,0.009705,-0.991821,0.098718,0.356031,-0.222595,46,279,587,6240
1644186037.239645,-0.005005,0.00824,-0.990845,0.220855,0.493435,-0.115725,45,270,579,6224
1644186037.289836,-0.008789,0.008484,-0.990601,0.08345,0.340763,-0.085191,57,275,584,6224
1644186037.340149,-0.008179,0.010254,-0.994568,0.220855,0.508702,-0.008855,53,276,585,6240
1644186037.385122,-0.009766,0.009766,-0.992981,0.037649,0.356031,0.098015,46,283,587,6192
1644186037.480678,-0.006958,0.007568,-0.990234,0.297191,0.432366,-0.115725,60,276,578,6224
1644186037.529072,-0.01001,0.009155,-0.991821,0.190321,0.432366,-0.176794,42,265,586,6224
1644186037.577444,-0.010254,0.009888,-0.991882,0.205588,0.417099,-0.130992,52,265,577,6176
1644186037.625853,-0.011658,0.007935,-0.992249,0.175053,0.340763,-0.115725,46,279,576,6224
1644186037.674252,-0.008667,0.009155,-0.992188,0.175053,0.401832,-0.054656,48,279,580,6240
1644186037.722667,-0.006836,0.008423,-0.991638,0.190321,0.356031,-0.054656,47,265,582,6224
1644186037.771021,-0.006958,0.010986,-0.993164,0.098718,0.371298,-0.008855,55,271,585,6160
1644186037.819433,-0.009277,0.00769,-0.994141,0.159786,0.340763,-0.100458,41,283,583,6160
1644186037.867876,-0.011353,0.006653,-0.99292,0.113985,0.203359,-0.115725,46,269,585,6224
1644186037.916262,-0.008118,0.009766,-0.992615,0.480397,0.417099,-0.192061,57,273,579,6192
1644186037.964736,-0.010193,0.009888,-0.990967,0.236122,0.340763,-0.054656,58,276,590,6240
1644186038.013045,-0.009705,0.009827,-0.993713,0.266656,0.432366,0.036947,51,283,573,6224
1644186038.066881,-0.008057,0.01062,-0.992493,0.113985,0.386565,-0.100458,47,275,582,6304
1644186038.109806,-0.009888,0.007568,-0.991638,0.175053,0.493435,-0.039389,47,270,589,6240
1644186038.158148,-0.008179,0.006409,-0.99231,0.068183,0.432366,-0.008855,47,265,586,6192
1644186038.206581,-0.010925,0.010132,-0.992798,0.327725,0.401832,-0.069924,54,282,582,6256
1644186038.255026,-0.007812,0.010864,-0.991638,0.159786,0.401832,-0.207328,46,279,585,6288
1644186038.303377,-0.007874,0.010254,-0.992371,0.220855,0.508702,0.067481,43,274,576,6256
1644186038.351732,-0.011597,0.008118,-0.990479,0.113985,0.294962,-0.085191,43,266,590,6176
1644186038.400528,-0.011047,0.007874,-0.993164,0.35826,0.508702,-0.176794,41,274,583,6240
1644186038.451325,-0.009216,0.008728,-0.992432,0.236122,0.340763,-0.176794,49,282,582,6224
1644186038.501646,-0.007751,0.01123,-0.990173,0.220855,0.325496,-0.115725,47,277,582,6304
1644186038.546444,-0.010681,0.00824,-0.990417,0.236122,0.478168,-0.069924,53,276,590,6256
1644186038.642367,-0.007629,0.010742,-0.98999,0.129252,0.401832,-0.054656,54,273,582,6240
1644186038.690482,-0.007324,0.011414,-0.991455,0.236122,0.401832,0.036947,46,276,585,6192
1644186038.738887,-0.008301,0.009399,-0.99054,0.312458,0.447634,-0.268397,49,270,579,6224
1644186038.787281,-0.006165,0.007812,-0.990173,0.297191,0.401832,-0.176794,45,280,579,6288
1644186038.835661,-0.007507,0.009888,-0.988464,0.220855,0.325496,-0.14626,53,286,578,6256
1644186038.88412,-0.00647,0.010315,-0.98938,0.113985,0.340763,-0.130992,59,282,584,6224
1644186038.93253,-0.008179,0.012024,-0.990662,0.113985,0.340763,-0.024122,61,277,582,6224
1644186038.980901,-0.008484,0.00708,-0.991394,0.144519,0.478168,-0.161527,47,275,582,6192
1644186039.029269,-0.009766,0.006531,-0.991577,0.144519,0.264427,-0.115725,57,270,591,6160
1644186039.08487,-0.005371,0.011841,-0.995544,0.281924,0.447634,-0.115725,51,276,597,6192
1644186039.126093,-0.010498,0.010498,-0.993347,0.205588,0.523969,-0.100458,51,283,583,6176
1644186039.174439,-0.01001,0.008789,-0.992554,0.35826,0.432366,-0.14626,42,280,577,6224
1644186039.222844,-0.009705,0.009521,-0.992432,0.205588,0.462901,-0.115725,46,281,585,6240
1644186039.271206,-0.008972,0.006775,-0.990784,0.08345,0.325496,-0.130992,48,283,580,6240
1644186039.320179,-0.007446,0.009033,-0.989258,0.068183,0.432366,-0.054656,54,277,591,6160
1644186039.371037,-0.010315,0.011169,-0.991455,0.266656,0.417099,-0.085191,51,281,587,6256
1644186039.420823,-0.009155,0.006348,-0.992981,0.190321,0.523969,-0.024122,52,275,579,6224
1644186039.465914,-0.004761,0.010193,-0.993103,0.175053,0.279695,-0.100458,49,277,582,6176
1644186039.561563,-0.009888,0.009949,-0.994263,0.419328,0.401832,-0.054656,48,281,571,6192
1644186039.609962,-0.007507,0.010925,-0.993774,0.312458,0.493435,-0.039389,48,269,585,6256
1644186039.658359,-0.007812,0.011963,-0.991333,0.297191,0.63084,-0.130992,43,279,580,6224
1644186039.706728,-0.007446,0.00708,-0.989258,0.251389,0.310229,-0.054656,42,275,584,6192
1644186039.75518,-0.008667,0.008606,-0.99176,0.312458,0.523969,0.021679,54,280,593,6176
1644186039.803545,-0.009521,0.010071,-0.990601,-0.038687,0.478168,-0.054656,54,273,589,6192
1644186039.851915,-0.007996,0.01001,-0.990356,0.266656,0.386565,-0.039389,54,275,582,6240
1644186039.900365,-0.004517,0.009949,-0.989746,0.373527,0.340763,-0.039389,48,281,580,6192
1644186039.948771,-0.010376,0.008545,-0.990356,0.266656,0.478168,-0.008855,47,280,577,6224
1644186039.997119,-0.011108,0.011841,-0.993347,0.068183,0.340763,-0.054656,53,271,580,6240
1644186040.054213,-0.008972,0.008362,-0.993958,0.205588,0.401832,-0.069924,55,266,592,6192
1644186040.095649,-0.00946,0.009155,-0.990234,0.190321,0.417099,-0.069924,66,268,586,6240
1644186040.142357,-0.007202,0.012634,-0.99115,0.312458,0.432366,-0.069924,49,285,575,6224
1644186040.190717,-0.009277,0.008179,-0.994202,0.190321,0.447634,0.006412,45,277,584,6240
1644186040.239072,-0.008545,0.008362,-0.992004,0.144519,0.325496,0.006412,54,273,575,6224
1644186040.287536,-0.010193,0.008179,-0.99292,0.190321,0.417099,-0.115725,58,276,592,6192
1644186040.335877,-0.009399,0.009399,-0.991638,0.205588,0.493435,-0.176794,46,271,587,6176
1644186040.384314,-0.007568,0.006714,-0.993286,0.236122,0.386565,-0.100458,51,274,571,6176
1644186040.433526,-0.007507,0.011902,-0.990417,0.098718,0.600305,-0.054656,46,283,583,6256
1644186040.48373,-0.012146,0.01001,-0.992798,0.175053,0.356031,-0.115725,52,275,589,6256
1644186040.533892,-0.010315,0.011414,-0.989136,0.297191,0.386565,-0.069924,49,285,584,6240
1644186040.578703,-0.008484,0.007751,-0.992432,0.312458,0.508702,0.052214,55,274,583,6224
1644186040.674986,-0.00946,0.008179,-0.991882,0.297191,0.447634,-0.069924,52,277,584,6240
1644186040.723049,-0.009888,0.011841,-0.994385,0.205588,0.371298,-0.039389,43,279,583,6192
1644186040.771442,-0.005615,0.008911,-0.992004,0.175053,0.462901,0.082748,39,271,592,6176
1644186040.819837,-0.009766,0.008484,-0.99054,0.113985,0.462901,-0.130992,41,276,576,6224
1644186040.868215,-0.011047,0.010437,-0.992065,0.144519,0.401832,-0.176794,47,280,579,6224
1644186040.916608,-0.009338,0.007751,-0.991272,0.236122,0.462901,-0.130992,52,280,575,6160
1644186040.965043,-0.008179,0.008179,-0.990784,0.251389,0.447634,-0.069924,58,279,580,6192
1644186041.013394,-0.010071,0.008362,-0.994629,-0.02342,0.233893,-0.039389,49,273,582,6176
1644186041.066221,-0.008423,0.009155,-0.992249,0.113985,0.417099,-0.192061,46,276,597,6256
1644186041.110174,-0.00592,0.010986,-0.990906,0.175053,0.523969,-0.085191,57,273,586,6224
1644186041.158545,-0.006897,0.009766,-0.990967,0.251389,0.401832,-0.130992,46,274,592,6256
1644186041.206942,-0.01062,0.007629,-0.992432,0.266656,0.508702,-0.024122,51,276,592,6192
1644186041.25533,-0.006531,0.011047,-0.992371,0.113985,0.294962,0.052214,52,285,582,6176
1644186041.303738,-0.010986,0.01062,-0.99292,0.205588,0.493435,-0.100458,53,271,587,6240
1644186041.352083,-0.007996,0.005798,-0.990784,0.159786,0.386565,-0.054656,41,271,597,6240
1644186041.400508,-0.007202,0.010864,-0.989807,0.251389,0.462901,-0.14626,49,282,579,6256
1644186041.448897,-0.010437,0.008179,-0.991638,0.205588,0.493435,0.006412,49,277,584,6256
1644186041.497911,-0.009827,0.011963,-0.991821,0.113985,0.401832,0.052214,60,296,583,6256
1644186041.545905,-0.00885,0.009827,-0.994995,0.236122,0.539237,-0.024122,42,285,598,6192
1644186041.594744,-0.007568,0.010315,-0.993103,0.068183,0.478168,-0.176794,45,273,589,6224
1644186041.645333,-0.008301,0.010803,-0.991577,0.35826,0.340763,0.052214,46,271,585,6192
1644186041.695533,-0.00824,0.008484,-0.993469,0.281924,0.371298,-0.237863,53,286,590,6224
1644186041.740434,-0.008484,0.010315,-0.991638,0.266656,0.371298,-0.130992,41,281,583,6192
1644186041.836078,-0.007507,0.012634,-0.992371,0.205588,0.478168,-0.054656,41,279,587,6304
1644186041.884489,-0.009583,0.00946,-0.990845,0.175053,0.447634,-0.100458,49,277,577,6192
1644186041.932884,-0.010559,0.009766,-0.989685,0.205588,0.401832,-0.039389,55,271,590,6240
1644186041.98122,-0.00885,0.008057,-0.987671,0.190321,0.462901,-0.161527,58,279,583,6176
1644186042.029652,-0.007141,0.010559,-0.991943,0.175053,0.432366,-0.176794,49,275,577,6224
1644186042.078092,-0.009399,0.008484,-0.990601,0.312458,0.356031,-0.115725,58,271,587,6224
1644186042.126371,-0.008545,0.009094,-0.99176,0.312458,0.325496,-0.085191,55,279,585,6192
1644186042.174812,-0.006775,0.009766,-0.993774,0.297191,0.417099,-0.100458,52,280,586,6256
1644186042.223195,-0.008972,0.008972,-0.992798,0.08345,0.386565,-0.039389,47,273,582,6192
1644186042.271584,-0.00769,0.008118,-0.991943,0.175053,0.310229,-0.115725,47,260,579,6128
1644186042.319979,-0.006714,0.01062,-0.99115,0.236122,0.325496,-0.069924,58,279,587,6224
1644186042.36836,-0.006714,0.010132,-0.989868,0.388794,0.356031,-0.054656,49,282,584,6160
1644186042.416763,-0.009094,0.008362,-0.993225,0.190321,0.478168,-0.161527,46,274,580,6256
1644186042.465183,-0.009277,0.009949,-0.993469,0.251389,0.401832,-0.024122,53,274,587,6256
1644186042.513535,-0.009766,0.008667,-0.992859,0.159786,0.462901,-0.161527,46,286,590,6128
1644186042.561939,-0.011475,0.01001,-0.992493,0.159786,0.325496,-0.100458,42,275,586,6256
1644186042.610329,-0.008789,0.009583,-0.990479,0.266656,0.294962,-0.008855,53,276,592,6224
1644186042.658727,-0.006958,0.010681,-0.990784,0.312458,0.417099,0.036947,53,276,590,6176
1644186042.707459,-0.008789,0.009094,-0.993103,0.113985,0.401832,-0.130992,46,279,564,6224
1644186042.75603,-0.008606,0.009705,-0.989258,0.266656,0.294962,-0.085191,49,275,584,6240
1644186042.807058,-0.011353,0.006165,-0.991028,0.144519,0.340763,-0.085191,52,275,589,6224
1644186042.857558,-0.008606,0.009888,-0.995789,0.327725,0.386565,-0.130992,54,270,586,6224
1644186042.90202,-0.011353,0.00824,-0.992004,0.266656,0.523969,0.052214,55,281,587,6224
1644186042.997501,-0.008362,0.011475,-0.992737,0.220855,0.508702,-0.069924,60,279,587,6192
1644186043.057574,-0.008545,0.009399,-0.989807,0.037649,0.356031,-0.14626,52,282,586,6160
1644186043.094873,-0.009033,0.011108,-0.995117,0.251389,0.462901,-0.130992,48,271,592,6224
1644186043.142674,-0.008301,0.011047,-0.99469,0.144519,0.569771,0.036947,54,275,579,6256
1644186043.191025,-0.009094,0.010986,-0.994263,0.190321,0.386565,-0.176794,58,274,585,6304
1644186043.239441,-0.009583,0.007751,-0.991882,0.312458,0.279695,-0.176794,59,280,579,6128
1644186043.28784,-0.008179,0.008118,-0.993591,0.175053,0.432366,-0.161527,47,280,577,6192
1644186043.336235,-0.00824,0.007812,-0.993774,0.007115,0.401832,-0.176794,59,280,579,6240
1644186043.384717,-0.010681,0.008545,-0.99115,0.129252,0.371298,-0.039389,49,282,582,6240
1644186043.432991,-0.007385,0.010132,-0.988953,0.236122,0.462901,-0.069924,53,291,583,6224
1644186043.481395,-0.008911,0.008667,-0.991272,0.220855,0.478168,0.082748,53,276,573,6224
1644186043.529773,-0.006042,0.010498,-0.995544,0.052916,0.417099,-0.161527,48,281,592,6224
1644186043.578182,-0.01001,0.009399,-0.991089,0.281924,0.447634,0.098015,36,281,583,6224
1644186043.626584,-0.01178,0.00708,-0.992676,0.327725,0.447634,-0.161527,42,265,591,6176
1644186043.675349,-0.010925,0.008545,-0.992676,0.113985,0.462901,-0.069924,47,280,596,6176
1644186043.725,-0.008606,0.009705,-0.991943,0.327725,0.264427,0.189618,54,280,582,6240
1644186043.775278,-0.008667,0.00824,-0.991821,0.266656,0.447634,-0.161527,39,276,590,6192
1644186043.820174,-0.010071,0.01123,-0.992371,0.266656,0.386565,-0.008855,51,276,587,6224
1644186043.916952,-0.007385,0.007935,-0.993042,0.068183,0.356031,-0.14626,51,279,580,6224
1644186043.965454,-0.008057,0.009399,-0.993347,0.068183,0.371298,-0.314198,43,276,583,6256
1644186044.013754,-0.010742,0.010071,-0.991211,0.312458,0.523969,0.036947,57,280,579,6224
1644186044.065843,-0.010437,0.010559,-0.991943,0.129252,0.447634,-0.008855,52,282,591,6256
1644186044.110535,-0.009033,0.009521,-0.995117,0.175053,0.478168,-0.069924,48,279,569,6240
1644186044.158902,-0.009583,0.012695,-0.991821,0.190321,0.432366,-0.130992,55,264,585,6224
1644186044.207291,-0.008057,0.006958,-0.991211,0.175053,0.478168,-0.192061,49,277,570,6224
1644186044.255681,-0.007202,0.008728,-0.993896,0.144519,0.462901,-0.069924,49,275,577,6192
1644186044.304078,-0.009033,0.010986,-0.990723,0.281924,0.478168,-0.176794,41,281,590,6224
1644186044.3525,-0.008667,0.011292,-0.992249,0.297191,0.432366,-0.130992,58,271,583,6192
1644186044.400839,-0.007812,0.00885,-0.991943,0.297191,0.462901,-0.100458,49,275,586,6160
1644186044.449242,-0.006653,0.008484,-0.993958,0.35826,0.508702,-0.268397,53,276,594,6240
1644186044.497621,-0.010559,0.006348,-0.994263,0.175053,0.478168,-0.085191,53,279,587,6176
1644186044.546049,-0.009827,0.010071,-0.991577,0.175053,0.371298,-0.130992,48,279,590,6176
1644186044.59445,-0.009094,0.007324,-0.990723,0.08345,0.417099,-0.024122,40,277,582,6240
1644186044.642863,-0.007812,0.006897,-0.992737,0.113985,0.523969,0.067481,47,273,582,6224
1644186044.691219,-0.01062,0.007324,-0.991516,0.129252,0.478168,0.067481,54,268,596,6176
1644186044.739617,-0.010559,0.00708,-0.993042,0.220855,0.478168,-0.176794,54,277,584,6288
1644186044.788013,-0.009155,0.008972,-0.991028,0.297191,0.462901,-0.008855,41,271,585,6160
1644186044.837664,-0.009644,0.007629,-0.992798,0.404061,0.432366,-0.115725,46,281,592,6240
1644186044.887779,-0.009277,0.009277,-0.993591,0.281924,0.447634,-0.130992,47,282,572,6176
1644186044.938171,-0.009827,0.004272,-0.993713,0.251389,0.432366,0.006412,47,273,584,6224
1644186044.982829,-0.008057,0.009155,-0.991638,0.144519,0.386565,-0.14626,51,283,590,6224
1644186045.080971,-0.010498,0.01178,-0.993652,0.113985,0.447634,-0.100458,66,273,579,6256
1644186045.126769,-0.010986,0.008118,-0.990356,0.098718,0.356031,0.036947,47,273,586,6128
1644186045.17518,-0.010986,0.009277,-0.990295,0.312458,0.462901,-0.085191,51,271,578,6176
1644186045.223554,-0.010071,0.009155,-0.99115,0.236122,0.600305,-0.039389,51,269,592,6176
1644186045.271917,-0.007996,0.008789,-0.993591,0.251389,0.356031,-0.039389,54,280,579,6176
1644186045.320337,-0.009521,0.009338,-0.994141,0.35826,0.523969,-0.192061,51,276,576,6176
1644186045.368725,-0.009705,0.008972,-0.99408,0.113985,0.432366,-0.176794,47,270,577,6176
1644186045.417116,-0.007812,0.011414,-0.992859,0.159786,0.386565,-0.054656,52,280,572,6128
1644186045.465492,-0.012085,0.007019,-0.99469,0.236122,0.371298,-0.115725,40,280,584,6240
1644186045.51391,-0.007996,0.010864,-0.991394,0.129252,0.447634,-0.100458,47,265,591,6224
1644186045.562319,-0.009338,0.008362,-0.989929,0.144519,0.386565,-0.161527,57,275,582,6240
1644186045.610688,-0.009094,0.008667,-0.989319,0.266656,0.386565,-0.115725,49,265,586,6192
1644186045.659088,-0.011719,0.007507,-0.991272,0.312458,0.447634,-0.268397,41,271,592,6240
1644186045.707472,-0.007019,0.008789,-0.993042,0.144519,0.401832,-0.100458,52,277,584,6240
1644186045.75634,-0.011658,0.008972,-0.993958,0.175053,0.24916,-0.130992,57,285,572,6256
1644186045.806837,-0.009277,0.01062,-0.991455,0.175053,0.585038,-0.054656,48,276,592,6240
1644186045.85759,-0.009155,0.00946,-0.991699,0.159786,0.356031,-0.161527,47,275,584,6224
1644186045.902308,-0.009949,0.010254,-0.989685,0.205588,0.539237,-0.115725,43,274,583,6256
1644186045.997862,-0.010376,0.009033,-0.990417,0.281924,0.508702,-0.069924,51,274,576,6224
1644186046.061906,-0.008667,0.010132,-0.993958,0.327725,0.401832,-0.054656,47,273,591,6192
1644186046.099898,-0.007446,0.01178,-0.991333,0.266656,0.371298,-0.054656,54,268,586,6240
1644186046.14309,-0.010376,0.008545,-0.993286,0.312458,0.386565,0.006412,52,277,593,6192
1644186046.191415,-0.010376,0.009338,-0.992676,0.220855,0.371298,-0.069924,49,275,579,6256
1644186046.239799,-0.007202,0.010864,-0.993225,0.236122,0.356031,0.12855,51,269,580,6240
1644186046.288196,-0.009216,0.010254,-0.992798,0.251389,0.447634,-0.176794,59,275,586,6160
1644186046.336554,-0.01062,0.007751,-0.990662,0.190321,0.569771,-0.192061,53,281,573,6224
1644186046.385105,-0.00592,0.011047,-0.989136,0.159786,0.462901,-0.161527,54,282,582,6176
1644186046.433378,-0.007568,0.010254,-0.990356,0.113985,0.447634,-0.024122,46,279,583,6256
1644186046.481738,-0.009338,0.007324,-0.991943,0.236122,0.386565,-0.039389,49,273,589,6256
1644186046.530152,-0.009705,0.008911,-0.990601,0.281924,0.233893,-0.008855,57,282,577,6176
1644186046.578714,-0.008179,0.009033,-0.990723,0.220855,0.447634,-0.008855,54,270,584,6224
1644186046.629169,-0.009338,0.009827,-0.990662,0.205588,0.432366,0.052214,55,276,590,6192
1644186046.679382,-0.008179,0.011292,-0.991394,0.236122,0.386565,-0.039389,52,275,584,6240
1644186046.724406,-0.007812,0.011841,-0.991638,0.052916,0.447634,-0.054656,53,274,576,6256
1644186046.8205,-0.010071,0.010803,-0.991516,0.281924,0.340763,-0.069924,46,276,597,6224
1644186046.868892,-0.007996,0.010132,-0.991699,0.236122,0.310229,-0.054656,51,288,585,6192
1644186046.917333,-0.009033,0.011475,-0.991882,0.205588,0.478168,-0.024122,48,283,580,6224
1644186046.965735,-0.009399,0.007935,-0.990479,0.327725,0.478168,-0.085191,52,275,572,6224
1644186047.014105,-0.009644,0.011047,-0.98938,0.220855,0.340763,-0.054656,52,275,584,6224
1644186047.065586,-0.009094,0.009216,-0.990845,0.190321,0.340763,-0.130992,49,280,586,6192
1644186047.110906,-0.008057,0.007629,-0.991272,0.175053,0.432366,-0.130992,42,282,586,6224
1644186047.159263,-0.009827,0.010986,-0.995667,0.35826,0.371298,-0.100458,49,275,579,6160
1644186047.207666,-0.007751,0.008179,-0.991943,0.220855,0.462901,-0.176794,49,277,591,6224
1644186047.256055,-0.009521,0.011353,-0.990906,0.159786,0.554504,0.021679,53,283,590,6160
1644186047.304453,-0.008606,0.012695,-0.995239,0.281924,0.371298,0.082748,42,270,584,6176
1644186047.352851,-0.010254,0.009338,-0.992676,0.098718,0.462901,0.021679,53,274,592,6224
1644186047.401232,-0.010559,0.008179,-0.991821,0.297191,0.340763,-0.130992,43,269,597,6176
1644186047.449618,-0.010437,0.008179,-0.993896,0.236122,0.356031,-0.237863,52,277,589,6256
1644186047.498009,-0.010193,0.007568,-0.993958,0.190321,0.371298,-0.207328,45,277,582,6192
1644186047.546411,-0.007202,0.009521,-0.992493,0.144519,0.401832,-0.14626,48,276,585,6192
1644186047.594814,-0.007935,0.010193,-0.992615,0.281924,0.462901,-0.25313,47,280,589,6224
1644186047.643598,-0.009949,0.010742,-0.991821,0.205588,0.478168,0.067481,51,276,583,6240
1644186047.693841,-0.010681,0.00885,-0.994568,0.129252,0.401832,-0.115725,38,277,572,6240
1644186047.743975,-0.0047,0.00647,-0.991028,0.220855,0.554504,-0.039389,49,280,596,6176
1644186047.789044,-0.009888,0.009705,-0.992981,0.068183,0.371298,-0.14626,48,283,578,6176
1644186047.885406,-0.009521,0.008972,-0.99469,0.312458,0.356031,-0.192061,48,276,583,6160
1644186047.933603,-0.007385,0.009216,-0.99115,0.190321,0.401832,-0.237863,46,274,583,6224
1644186047.981999,-0.006042,0.009583,-0.99292,0.297191,0.447634,0.006412,54,258,572,6224
1644186048.030384,-0.004517,0.007874,-0.994873,0.251389,0.554504,-0.100458,55,279,587,6160
1644186048.078853,-0.008789,0.006348,-0.991638,0.236122,0.432366,0.036947,51,281,583,6192
1644186048.127128,-0.008911,0.010498,-0.990356,0.205588,0.539237,-0.100458,45,280,586,6240
1644186048.175529,-0.008728,0.009949,-0.994568,0.297191,0.462901,-0.329466,40,275,586,6160
1644186048.223952,-0.005554,0.01062,-0.992004,0.327725,0.432366,-0.039389,47,273,584,6224
1644186048.272292,-0.00824,0.008057,-0.993225,0.236122,0.310229,-0.069924,49,268,589,6288
1644186048.320696,-0.006836,0.009644,-0.995117,0.266656,0.356031,-0.207328,49,260,591,6192
1644186048.369067,-0.010925,0.008911,-0.991089,-0.02342,0.386565,-0.176794,48,269,583,6176
1644186048.417487,-0.008911,0.010681,-0.993774,0.190321,0.386565,-0.161527,55,269,597,6240
1644186048.465878,-0.008789,0.007935,-0.992371,0.159786,0.417099,-0.14626,47,280,591,6192
1644186048.51425,-0.007385,0.010559,-0.991638,0.251389,0.371298,-0.130992,47,275,586,6224
1644186048.562658,-0.01001,0.011414,-0.991211,0.251389,0.585038,-0.024122,65,281,592,6224
1644186048.611041,-0.009949,0.011658,-0.990662,0.220855,0.371298,-0.161527,57,265,596,6176
1644186048.659422,-0.012268,0.007568,-0.993896,0.236122,0.401832,-0.130992,53,274,578,6224
1644186048.707839,-0.010071,0.008789,-0.993164,0.251389,0.371298,-0.024122,42,287,584,6256
1644186048.756222,-0.008728,0.008911,-0.991089,0.297191,0.493435,-0.130992,46,271,580,6176
1644186048.805186,-0.010071,0.009033,-0.992798,0.236122,0.371298,-0.176794,49,260,579,6224
1644186048.856104,-0.009216,0.008301,-0.992371,0.052916,0.462901,-0.008855,41,276,580,6224
1644186048.906672,-0.008789,0.006897,-0.991577,0.297191,0.432366,-0.176794,58,274,583,6176
1644186048.950882,-0.007446,0.008179,-0.989075,0.159786,0.325496,0.006412,49,275,586,6304
1644186049.058652,-0.008057,0.010498,-0.991699,0.236122,0.386565,-0.024122,52,280,593,6224
1644186049.098923,-0.01062,0.009827,-0.990784,0.129252,0.432366,-0.161527,43,274,587,6224
1644186049.143381,-0.011902,0.010559,-0.995239,0.342992,0.478168,-0.069924,46,276,580,6224
1644186049.191784,-0.007446,0.008667,-0.99176,0.236122,0.508702,0.036947,42,275,589,6192
1644186049.24016,-0.008057,0.010071,-0.993408,0.098718,0.462901,-0.130992,49,290,584,6192
1644186049.288557,-0.009644,0.009155,-0.991699,0.312458,0.508702,-0.024122,45,280,575,6224
1644186049.336932,-0.011902,0.008423,-0.991821,0.159786,0.356031,-0.024122,45,280,582,6176
1644186049.385351,-0.011108,0.007385,-0.991638,0.175053,0.462901,-0.054656,55,281,585,6176
1644186049.433739,-0.010193,0.00769,-0.994751,0.113985,0.386565,-0.069924,48,281,585,6240
1644186049.482187,-0.009338,0.010376,-0.99115,0.190321,0.493435,-0.039389,55,283,583,6224
1644186049.530494,-0.008362,0.011108,-0.991943,0.266656,0.325496,-0.237863,52,277,586,6160
1644186049.578918,-0.011353,0.007507,-0.989014,0.251389,0.493435,0.021679,54,275,582,6224
1644186049.627486,-0.007751,0.008179,-0.994629,0.220855,0.401832,0.021679,45,275,591,6224
1644186049.676844,-0.009277,0.009521,-0.992615,0.159786,0.356031,-0.039389,53,283,585,6304
1644186049.72731,-0.00946,0.007751,-0.991394,0.129252,0.386565,0.021679,60,271,573,6192
1644186049.777545,-0.009888,0.009521,-0.991516,0.373527,0.325496,-0.008855,49,277,598,6176
1644186049.869302,-0.009094,0.008789,-0.990723,0.068183,0.279695,-0.024122,45,275,584,6256
1644186049.917698,-0.007507,0.009033,-0.993469,0.236122,0.462901,-0.008855,41,276,573,6160
1644186049.966085,-0.010437,0.01123,-0.99353,0.327725,0.478168,-0.024122,41,281,580,6224
1644186050.01451,-0.009033,0.009583,-0.988708,0.175053,0.294962,-0.085191,48,281,587,6224
1644186050.064833,-0.00885,0.008606,-0.990234,0.297191,0.508702,-0.039389,53,279,590,6240
1644186050.111264,-0.009644,0.009583,-0.990051,0.037649,0.386565,-0.100458,66,277,572,6224
1644186050.159608,-0.009827,0.009644,-0.990845,0.220855,0.401832,-0.069924,45,273,591,6192
1644186050.208034,-0.007385,0.00946,-0.993774,0.190321,0.325496,0.006412,48,286,580,6192
1644186050.25641,-0.008667,0.007568,-0.992249,0.144519,0.401832,-0.237863,47,277,584,6176
1644186050.304806,-0.006409,0.010559,-0.991943,0.327725,0.340763,-0.115725,49,275,589,6224
1644186050.353216,-0.007324,0.009949,-0.992004,0.251389,0.493435,-0.054656,59,268,575,6160
1644186050.401582,-0.011292,0.00946,-0.991028,0.388794,0.417099,0.006412,57,280,572,6224
1644186050.449993,-0.007874,0.008728,-0.993835,0.342992,0.386565,-0.14626,43,274,583,6224
1644186050.498393,-0.008362,0.011169,-0.991272,0.312458,0.447634,-0.100458,49,280,579,6224
1644186050.546779,-0.008179,0.011108,-0.99176,0.236122,0.523969,-0.130992,36,271,583,6240
1644186050.595205,-0.008789,0.011169,-0.992371,0.068183,0.294962,-0.024122,57,277,582,6176
1644186050.643559,-0.010193,0.007507,-0.990356,0.281924,0.325496,-0.008855,45,275,591,6192
1644186050.691953,-0.009094,0.010498,-0.993835,0.205588,0.371298,-0.130992,51,274,573,6192
1644186050.740338,-0.011169,0.011414,-0.991638,0.098718,0.478168,-0.024122,52,265,584,6256
1644186050.789429,-0.008972,0.009766,-0.991028,0.098718,0.447634,-0.161527,61,273,591,6288
1644186050.840383,-0.012268,0.010864,-0.992859,0.236122,0.523969,-0.085191,52,280,584,6240
1644186050.890476,-0.008118,0.008667,-0.992676,0.236122,0.462901,-0.039389,49,275,579,6224
1644186050.935269,-0.009705,0.008545,-0.990417,0.175053,0.356031,-0.237863,48,276,583,6192
1644186051.030726,-0.009949,0.009216,-0.991455,0.35826,0.478168,-0.115725,43,274,590,6224
1644186051.079266,-0.009033,0.010681,-0.990845,0.159786,0.432366,-0.085191,55,274,587,6192
1644186051.127528,-0.011536,0.008423,-0.991943,0.098718,0.371298,-0.161527,41,266,587,6224
1644186051.175886,-0.011108,0.013245,-0.990906,0.190321,0.432366,0.021679,57,273,582,6176
1644186051.224267,-0.006714,0.009827,-0.991577,0.190321,0.432366,-0.054656,55,271,585,6176
1644186051.272661,-0.01001,0.01001,-0.99115,0.236122,0.432366,-0.161527,45,268,582,6240
1644186051.321065,-0.012451,0.013123,-0.993408,0.144519,0.356031,-0.115725,48,279,583,6160
1644186051.369455,-0.011475,0.006836,-0.993958,0.129252,0.493435,-0.115725,54,275,575,6224
1644186051.417834,-0.012024,0.009155,-0.991699,0.220855,0.401832,-0.130992,49,275,591,6176
1644186051.466236,-0.011353,0.008789,-0.991333,0.190321,0.432366,-0.054656,59,277,577,6192
1644186051.514706,-0.008545,0.008911,-0.991028,0.281924,0.386565,-0.069924,41,276,580,6192
1644186051.563042,-0.008484,0.010193,-0.994019,0.144519,0.493435,-0.024122,45,268,586,6192
1644186051.611424,-0.006958,0.009705,-0.990723,0.327725,0.279695,-0.054656,46,281,580,6176
1644186051.659818,-0.01062,0.009949,-0.990356,0.144519,0.401832,-0.115725,54,287,582,6224
1644186051.708199,-0.007446,0.007874,-0.994446,0.35826,0.401832,-0.024122,53,283,580,6192
1644186051.756569,-0.010864,0.00885,-0.992493,0.068183,0.371298,-0.069924,70,274,592,6240
1644186051.805042,-0.009399,0.008545,-0.991211,0.312458,0.493435,-0.085191,49,294,589,6192
1644186051.853429,-0.00769,0.009094,-0.990845,0.266656,0.417099,-0.207328,45,285,577,6240
1644186051.901836,-0.009033,0.007935,-0.990479,0.312458,0.233893,-0.192061,53,279,590,6192
1644186051.951559,-0.009338,0.009277,-0.990784,0.373527,0.493435,0.082748,60,271,578,6224
1644186052.001497,-0.008972,0.010681,-0.994568,0.220855,0.447634,-0.115725,59,277,579,6160
1644186052.070581,-0.007935,0.00946,-0.992737,0.159786,0.432366,-0.115725,52,282,584,6240
1644186052.102286,-0.008606,0.010986,-0.990662,0.129252,0.539237,-0.115725,51,271,583,6224
1644186052.192381,-0.006836,0.009277,-0.990173,0.251389,0.356031,-0.130992,45,282,584,6240
1644186052.240493,-0.008545,0.007507,-0.99176,0.220855,0.279695,-0.069924,48,288,585,6192
1644186052.28891,-0.011292,0.010803,-0.991577,0.373527,0.340763,-0.054656,51,279,580,6304
1644186052.337308,-0.008789,0.009521,-0.991272,0.297191,0.417099,-0.024122,55,271,580,6176
1644186052.385711,-0.01178,0.00885,-0.990662,0.190321,0.340763,-0.176794,47,277,589,6176
1644186052.434108,-0.00885,0.010254,-0.992798,0.342992,0.478168,-0.161527,46,274,576,6256
1644186052.482495,-0.010376,0.009094,-0.992615,0.251389,0.432366,-0.054656,52,275,582,6224
1644186052.53089,-0.009216,0.009399,-0.989624,0.297191,0.462901,-0.207328,47,280,582,6128
1644186052.57928,-0.007385,0.007141,-0.994202,0.144519,0.447634,-0.069924,55,281,580,6128
1644186052.627677,-0.009766,0.009949,-0.989197,0.281924,0.340763,0.052214,55,281,583,6192
1644186052.676033,-0.010437,0.009277,-0.992065,0.205588,0.233893,-0.222595,45,268,593,6240
1644186052.724427,-0.011292,0.008972,-0.989014,0.159786,0.356031,-0.054656,42,277,584,6176
1644186052.772866,-0.007996,0.010132,-0.990295,0.129252,0.417099,-0.130992,49,275,577,6240
1644186052.821241,-0.009521,0.008179,-0.989929,0.327725,0.447634,-0.130992,46,293,583,6240
1644186052.869681,-0.008179,0.00946,-0.993652,0.373527,0.478168,-0.008855,48,279,592,6176
1644186052.918067,-0.007507,0.010193,-0.991699,0.190321,0.432366,-0.039389,61,275,582,6240
1644186052.966432,-0.008545,0.01239,-0.990417,0.327725,0.417099,-0.192061,42,280,591,6224
1644186053.014863,-0.010376,0.009094,-0.990295,0.236122,0.386565,-0.054656,49,285,589,6240
1644186053.111616,-0.006897,0.009277,-0.991272,0.266656,0.523969,-0.115725,53,269,583,6224
1644186053.160016,-0.006775,0.007629,-0.991882,0.159786,0.356031,-0.100458,58,279,585,6240
1644186053.20838,-0.009888,0.007935,-0.994446,0.236122,0.432366,-0.161527,48,279,576,6224
1644186053.256753,-0.007202,0.010132,-0.991699,0.312458,0.432366,-0.024122,40,277,584,6192
1644186053.30519,-0.010254,0.008362,-0.992188,0.175053,0.447634,-0.039389,45,273,579,6240
1644186053.353568,-0.013184,0.009888,-0.990662,0.144519,0.432366,-0.130992,54,282,593,6192
1644186053.40197,-0.00946,0.006897,-0.992981,0.236122,0.386565,0.052214,42,290,584,6192
1644186053.450356,-0.008606,0.009705,-0.991211,0.190321,0.325496,0.021679,49,273,591,6176
1644186053.498722,-0.010864,0.006958,-0.990112,0.35826,0.417099,0.067481,51,274,580,6224
1644186053.547141,-0.008972,0.009399,-0.990601,0.342992,0.157557,-0.054656,46,274,590,6192
1644186053.595525,-0.011414,0.011108,-0.990601,0.312458,0.386565,-0.192061,48,276,580,6240
1644186053.643928,-0.007141,0.009399,-0.990601,0.251389,0.401832,-0.039389,54,277,584,6192
1644186053.692328,-0.007812,0.009033,-0.991943,0.281924,0.447634,-0.085191,45,277,591,6160
1644186053.740676,-0.008179,0.012207,-0.993591,0.236122,0.478168,-0.176794,45,287,589,6224
1644186053.789092,-0.011658,0.008972,-0.990417,0.312458,0.432366,-0.14626,45,282,584,6240
1644186053.837487,-0.008362,0.010193,-0.992371,0.037649,0.462901,-0.069924,57,290,584,6256
1644186053.885934,-0.00946,0.010376,-0.99231,0.236122,0.569771,-0.222595,49,277,586,6160
1644186053.934309,-0.013611,0.006775,-0.99115,0.175053,0.386565,-0.161527,51,271,578,6288
1644186053.98276,-0.011292,0.009766,-0.992004,0.129252,0.554504,0.021679,51,279,583,6160
1644186054.032279,-0.011353,0.008972,-0.989197,0.113985,0.340763,-0.085191,51,269,580,6224
1644186054.086283,-0.005066,0.009583,-0.99353,0.190321,0.386565,-0.192061,47,268,584,6192
1644186054.132496,-0.007629,0.01062,-0.991638,0.113985,0.493435,-0.176794,52,277,579,6176
1644186054.1771,-0.007751,0.010254,-0.993958,0.08345,0.417099,-0.192061,62,271,573,6256
1644186054.273046,-0.010193,0.009766,-0.991455,0.220855,0.462901,0.067481,53,281,587,6224
1644186054.321429,-0.007629,0.010864,-0.992249,0.35826,0.417099,-0.085191,59,275,586,6224
1644186054.369792,-0.01001,0.010132,-0.993103,0.144519,0.493435,-0.054656,49,280,586,6240
1644186054.418217,-0.005371,0.009399,-0.994751,0.297191,0.401832,-0.085191,51,271,583,6176
1644186054.466594,-0.009399,0.009827,-0.993469,0.205588,0.356031,-0.085191,48,269,583,6256
1644186054.515042,-0.008728,0.007568,-0.991638,0.220855,0.432366,-0.130992,66,287,582,6256
1644186054.563395,-0.007446,0.010559,-0.990784,0.129252,0.401832,-0.008855,42,277,584,6224
1644186054.611782,-0.007874,0.009949,-0.991394,0.144519,0.371298,-0.054656,54,277,586,6192
1644186054.660161,-0.009705,0.010925,-0.994019,0.236122,0.386565,0.098015,47,273,582,6224
1644186054.708558,-0.007263,0.008484,-0.992554,0.388794,0.478168,-0.192061,48,271,590,6224
1644186054.756965,-0.007568,0.010681,-0.992371,0.419328,0.401832,-0.008855,52,275,579,6176
1644186054.805398,-0.007141,0.010376,-0.992249,0.129252,0.462901,0.082748,53,279,590,6240
1644186054.853803,-0.012878,0.010254,-0.989807,0.220855,0.371298,-0.100458,61,280,589,6160
1644186054.902249,-0.011169,0.01062,-0.991699,0.205588,0.417099,-0.14626,55,269,587,6224
1644186054.950569,-0.008301,0.010925,-0.990784,0.144519,0.340763,-0.069924,45,285,582,6192
1644186054.999467,-0.007202,0.009888,-0.992371,0.113985,0.325496,0.006412,52,285,589,6224
1644186055.063295,-0.008911,0.009399,-0.993469,0.175053,0.386565,-0.115725,41,274,592,6240
1644186055.099897,-0.007446,0.010559,-0.992004,0.236122,0.462901,-0.115725,55,266,583,6240
1644186055.14442,-0.008057,0.010254,-0.991516,0.129252,0.310229,-0.085191,49,273,586,6224
1644186055.192833,-0.008545,0.011597,-0.990417,0.251389,0.401832,-0.130992,47,280,582,6256
1644186055.243432,-0.007812,0.01062,-0.991699,0.113985,0.523969,-0.054656,53,279,583,6256
1644186055.293719,-0.005859,0.009644,-0.993347,0.144519,0.371298,-0.085191,48,276,573,6176
1644186055.338757,-0.011414,0.010437,-0.991638,0.007115,0.386565,-0.100458,39,271,580,6176
1644186055.43448,-0.009155,0.010803,-0.990051,0.373527,0.356031,-0.14626,62,276,578,6128
1644186055.482868,-0.009644,0.008972,-0.991699,0.312458,0.447634,-0.069924,52,275,582,6240
1644186055.531266,-0.009705,0.009827,-0.991028,0.312458,0.340763,-0.115725,43,276,576,6256
1644186055.579627,-0.01123,0.008484,-0.993286,0.205588,0.462901,-0.054656,49,275,579,6176
1644186055.628002,-0.009033,0.01001,-0.989746,0.113985,0.340763,-0.085191,48,274,583,6224
1644186055.676408,-0.008606,0.010315,-0.992554,0.251389,0.554504,-0.25313,48,286,583,6240
1644186055.724833,-0.007385,0.007446,-0.994263,0.297191,0.493435,-0.069924,49,280,586,6160
1644186055.773231,-0.007385,0.00885,-0.992126,0.220855,0.432366,-0.054656,46,276,578,6240
1644186055.821665,-0.011169,0.007263,-0.99176,0.190321,0.539237,-0.14626,51,279,573,6224
1644186055.870039,-0.010193,0.009338,-0.990234,0.220855,0.233893,-0.069924,53,283,576,6240
1644186055.918437,-0.007812,0.011841,-0.992249,0.251389,0.523969,-0.130992,46,271,573,6224
1644186055.966831,-0.008728,0.008118,-0.991455,0.373527,0.417099,-0.054656,51,276,578,6256
1644186056.01527,-0.009033,0.011719,-0.994202,0.266656,0.432366,-0.024122,54,280,577,6224
1644186056.08556,-0.007751,0.00769,-0.989929,0.388794,0.386565,-0.14626,52,280,591,6224
1644186056.111964,-0.009033,0.010986,-0.992126,0.205588,0.523969,-0.069924,54,265,589,6160
1644186056.160345,-0.008728,0.007812,-0.99231,0.388794,0.386565,-0.14626,46,269,587,6176
1644186056.20873,-0.010498,0.008484,-0.989807,0.113985,0.386565,-0.222595,55,271,590,6192
1644186056.257109,-0.008423,0.010437,-0.991455,0.236122,0.401832,-0.024122,45,273,584,6128
1644186056.305511,-0.008606,0.010559,-0.991211,0.190321,0.508702,-0.085191,49,282,582,6224
1644186056.353956,-0.010681,0.011414,-0.990295,0.266656,0.401832,-0.008855,48,279,578,6176
1644186056.404191,-0.007385,0.01123,-0.991333,0.175053,0.386565,-0.329466,47,275,584,6224
1644186056.454523,-0.011536,0.009155,-0.990967,-0.008153,0.508702,-0.130992,47,275,577,6224
1644186056.499771,-0.011536,0.009277,-0.99353,0.144519,0.279695,0.036947,46,288,585,6224
1644186056.595871,-0.008545,0.008972,-0.992615,0.46513,0.462901,-0.14626,43,286,578,6128
1644186056.644296,-0.010071,0.006775,-0.992065,0.190321,0.371298,-0.161527,36,276,578,6176
1644186056.692674,-0.008789,0.007019,-0.991516,0.175053,0.508702,-0.039389,51,274,578,6240
1644186056.741069,-0.007629,0.009155,-0.992188,0.159786,0.539237,-0.008855,45,268,584,6192
1644186056.789457,-0.007812,0.008667,-0.993286,0.312458,0.264427,-0.115725,45,285,584,6176
1644186056.837905,-0.006409,0.010254,-0.992371,0.159786,0.310229,-0.192061,45,282,584,6224
1644186056.886259,-0.008301,0.009094,-0.990295,0.236122,0.523969,-0.161527,48,271,583,6192
1644186056.934711,-0.011597,0.009338,-0.993225,0.205588,0.478168,-0.115725,49,277,584,6224
1644186056.983091,-0.010254,0.010376,-0.992798,0.35826,0.432366,-0.115725,51,274,585,6224
1644186057.031476,-0.008484,0.008789,-0.993774,0.205588,0.325496,-0.069924,49,280,589,6192
1644186057.092948,-0.007507,0.008606,-0.991638,0.159786,0.371298,-0.085191,49,275,577,6192
1644186057.128225,-0.009094,0.008728,-0.991699,0.175053,0.264427,-0.14626,53,266,592,6240
1644186057.176614,-0.009155,0.009827,-0.992554,0.175053,0.386565,-0.039389,55,283,585,6288
1644186057.225714,-0.009338,0.009216,-0.99115,0.190321,0.401832,-0.054656,47,275,584,6192
1644186057.276457,-0.010742,0.009399,-0.990112,0.266656,0.417099,-0.100458,51,276,587,6256
1644186057.326436,-0.007141,0.007996,-0.994385,0.159786,0.279695,-0.054656,54,275,580,6224
1644186057.371373,-0.006042,0.009094,-0.991333,0.388794,0.432366,-0.130992,52,268,582,6256
1644186057.466956,-0.009094,0.010803,-0.993469,0.297191,0.356031,-0.100458,49,285,584,6256
1644186057.515475,-0.008728,0.010498,-0.989685,0.281924,0.401832,0.021679,52,277,577,6192
1644186057.563735,-0.011597,0.009583,-0.993042,0.312458,0.371298,-0.024122,53,279,573,6224
1644186057.612371,-0.007263,0.010132,-0.991028,0.190321,0.447634,-0.207328,49,270,582,6128
1644186057.660528,-0.008057,0.009766,-0.988831,0.266656,0.356031,-0.207328,43,286,578,6240
1644186057.708911,-0.010315,0.010376,-0.992249,0.236122,0.508702,0.052214,52,275,577,6256
1644186057.757309,-0.010071,0.007812,-0.99054,0.220855,0.417099,-0.039389,52,277,582,6176
1644186057.80571,-0.010437,0.010559,-0.992065,0.327725,0.401832,-0.115725,47,273,584,6240
1644186057.854156,-0.008667,0.010193,-0.992676,0.266656,0.401832,-0.085191,47,275,572,6176
1644186057.902544,-0.012756,0.00946,-0.99292,0.327725,0.325496,-0.176794,48,269,580,6224
1644186057.95097,-0.006653,0.009644,-0.992188,0.129252,0.356031,-0.176794,57,273,582,6160
1644186057.999321,-0.011353,0.011536,-0.988647,0.327725,0.447634,-0.054656,48,281,585,6224
1644186058.06045,-0.008972,0.01062,-0.990295,0.175053,0.600305,-0.069924,54,273,579,6160
1644186058.097545,-0.008057,0.008179,-0.991272,0.220855,0.432366,-0.115725,40,270,584,6240
1644186058.144435,-0.008728,0.008362,-0.991516,0.266656,0.661374,-0.161527,51,276,594,6224
1644186058.192876,-0.008301,0.008423,-0.992981,0.281924,0.432366,-0.14626,40,282,589,6176
1644186058.241256,-0.009155,0.012634,-0.991028,0.220855,0.462901,-0.100458,52,277,589,6224
1644186058.289643,-0.00592,0.010376,-0.993774,0.266656,0.294962,-0.069924,58,274,590,6224
1644186058.338044,-0.008972,0.009033,-0.992371,0.220855,0.417099,-0.039389,55,276,583,6176
1644186058.386577,-0.007141,0.009155,-0.992554,0.129252,0.356031,0.082748,48,263,572,6224
1644186058.43704,-0.008667,0.00824,-0.990601,0.327725,0.417099,-0.039389,43,266,590,6256
1644186058.487172,-0.006531,0.00885,-0.989319,0.052916,0.554504,-0.039389,47,275,584,6176
1644186058.532309,-0.00769,0.010071,-0.991394,0.297191,0.340763,-0.039389,42,270,575,6176
1644186058.628377,-0.009338,0.009705,-0.992432,0.281924,0.386565,-0.237863,39,269,578,6224
1644186058.676771,-0.008118,0.008423,-0.989136,0.159786,0.462901,-0.008855,40,277,582,6192
1644186058.725375,-0.005737,0.011536,-0.991211,0.190321,0.417099,-0.069924,51,271,583,6240
1644186058.77358,-0.008118,0.005737,-0.991394,0.220855,0.371298,-0.130992,45,282,582,6224
1644186058.821958,-0.009155,0.009949,-0.990295,0.419328,0.539237,0.006412,54,273,579,6160
1644186058.870403,-0.01062,0.009521,-0.992493,0.159786,0.325496,-0.085191,52,277,584,6256
1644186058.918787,-0.007874,0.011108,-0.993042,0.434595,0.417099,-0.130992,41,279,587,6224
1644186058.96718,-0.009277,0.009827,-0.992676,0.266656,0.432366,-0.25313,45,277,577,6256
1644186059.015571,-0.006714,0.009094,-0.992981,0.281924,0.417099,-0.054656,54,275,575,6256
1644186059.068319,-0.009888,0.010498,-0.99176,0.281924,0.462901,-0.130992,49,277,589,6224
1644186059.112347,-0.004944,0.010498,-0.992493,0.236122,0.417099,-0.130992,52,270,584,6224
1644186059.160718,-0.011353,0.01123,-0.991577,0.266656,0.432366,-0.14626,45,270,579,6224
1644186059.209111,-0.010254,0.010376,-0.991516,0.159786,0.356031,-0.069924,54,275,586,6176
1644186059.257484,-0.010254,0.011353,-0.992249,0.220855,0.462901,-0.237863,54,277,582,6176
1644186059.305897,-0.008606,0.009644,-0.991943,0.205588,0.340763,-0.054656,55,274,585,6288
1644186059.354295,-0.007812,0.008728,-0.991394,0.190321,0.417099,-0.085191,42,277,591,6240
1644186059.402671,-0.012512,0.010498,-0.991516,0.35826,0.264427,-0.14626,52,282,584,6224
1644186059.451075,-0.008423,0.00824,-0.992737,0.220855,0.24916,-0.207328,60,271,597,6240
1644186059.500034,-0.007507,0.009155,-0.992126,0.312458,0.417099,-0.069924,54,275,586,6224
1644186059.548011,-0.005249,0.011047,-0.990112,0.236122,0.386565,-0.207328,43,283,576,6192
1644186059.598543,-0.009521,0.01062,-0.988586,0.159786,0.386565,-0.039389,43,276,587,6224
1644186059.648563,-0.006836,0.009705,-0.99231,0.144519,0.401832,-0.176794,52,280,591,6224
1644186059.693648,-0.008484,0.012512,-0.992798,0.251389,0.493435,0.021679,49,275,584,6224
1644186059.78982,-0.005798,0.006653,-0.989136,0.205588,0.386565,-0.069924,45,277,579,6240
1644186059.838195,-0.011536,0.008545,-0.990112,0.205588,0.401832,0.098015,55,274,578,6160
1644186059.886651,-0.010498,0.008423,-0.992004,0.098718,0.401832,-0.039389,47,280,586,6224
1644186059.935074,-0.008728,0.010254,-0.993713,0.175053,0.585038,-0.054656,49,277,582,6192
1644186059.983428,-0.007568,0.008362,-0.993896,0.266656,0.585038,0.113282,43,286,585,6240
1644186060.031798,-0.010315,0.01239,-0.992249,0.144519,0.356031,-0.14626,49,270,582,6192
1644186060.088546,-0.011108,0.011169,-0.990845,0.297191,0.447634,-0.024122,61,280,591,6224
1644186060.128635,-0.008972,0.010986,-0.990845,0.190321,0.554504,-0.039389,51,271,578,6240
1644186060.176973,-0.006714,0.010071,-0.990112,0.205588,0.417099,-0.100458,47,287,586,6240
1644186060.225356,-0.006897,0.011841,-0.990845,0.35826,0.279695,-0.130992,48,271,585,6192
1644186060.273731,-0.010437,0.008667,-0.991638,0.434595,0.462901,-0.130992,57,277,586,6240
1644186060.322166,-0.009033,0.009888,-0.99176,0.113985,0.371298,0.113282,49,275,589,6256
1644186060.370598,-0.005676,0.008789,-0.992493,0.236122,0.432366,-0.024122,58,276,587,6224
1644186060.421169,-0.010986,0.009094,-0.991943,0.205588,0.371298,-0.130992,48,276,583,6256
1644186060.471312,-0.010864,0.009155,-0.991699,0.297191,0.585038,-0.054656,60,269,580,6160
1644186060.516481,-0.009338,0.007568,-0.991089,0.159786,0.386565,-0.130992,46,271,583,6176
1644186060.61252,-0.007935,0.008423,-0.992004,0.175053,0.24916,-0.130992,54,275,582,6240
1644186060.660902,-0.010071,0.008789,-0.990845,0.266656,0.508702,-0.237863,46,279,580,6192
1644186060.709279,-0.006775,0.007263,-0.991272,0.175053,0.310229,-0.115725,55,283,590,6240
1644186060.757675,-0.009521,0.013,-0.990051,0.449863,0.447634,-0.176794,55,264,576,6256
1644186060.806072,-0.007996,0.011353,-0.992676,0.190321,0.340763,-0.14626,52,280,591,6176
1644186060.85448,-0.007935,0.008057,-0.993042,0.159786,0.539237,-0.100458,53,274,571,6176
1644186060.902928,-0.010498,0.010132,-0.991577,0.388794,0.340763,-0.008855,41,281,580,6240
1644186060.951296,-0.009338,0.011719,-0.990112,0.266656,0.264427,-0.039389,49,270,579,6240
1644186060.999656,-0.005981,0.007568,-0.994446,0.159786,0.310229,-0.054656,47,277,596,6224
1644186061.063725,-0.007446,0.011047,-0.992126,0.129252,0.325496,0.098015,46,279,576,6288
1644186061.098671,-0.003784,0.007568,-0.991089,0.281924,0.478168,0.006412,55,281,590,6224
1644186061.144894,-0.010742,0.010742,-0.991455,0.190321,0.356031,-0.039389,58,283,578,6192
1644186061.193281,-0.009094,0.007324,-0.992554,0.022382,0.462901,-0.039389,48,271,587,6224
1644186061.241657,-0.009521,0.009949,-0.990723,0.404061,0.356031,-0.039389,49,287,586,6240
1644186061.290056,-0.008484,0.008484,-0.992004,0.205588,0.401832,-0.115725,52,273,584,6288
1644186061.338437,-0.009705,0.010193,-0.993164,0.220855,0.325496,-0.130992,46,279,580,6224
1644186061.386836,-0.010254,0.011108,-0.992432,0.175053,0.371298,-0.176794,45,275,579,6224
1644186061.435287,-0.007996,0.01178,-0.99054,0.312458,0.478168,0.006412,48,286,594,6240
1644186061.483635,-0.009827,0.010193,-0.993408,0.297191,0.432366,-0.14626,54,275,579,6224
1644186061.533451,-0.008972,0.010437,-0.98938,0.220855,0.401832,-0.100458,45,270,593,6240
1644186061.58377,-0.010193,0.013733,-0.990112,0.281924,0.523969,-0.222595,49,265,593,6224
1644186061.633909,-0.008972,0.009155,-0.989807,0.205588,0.523969,-0.024122,53,276,573,6240
1644186061.678629,-0.01062,0.009521,-0.990784,0.175053,0.401832,-0.130992,36,274,592,6224
1644186061.773994,-0.008911,0.012451,-0.993408,0.327725,0.447634,0.021679,52,275,589,6224
1644186061.82243,-0.010681,0.009094,-0.991943,0.281924,0.554504,-0.008855,48,283,583,6176
1644186061.870758,-0.005676,0.01062,-0.992493,0.098718,0.340763,0.006412,46,281,578,6256
1644186061.919145,-0.008728,0.010498,-0.98999,0.190321,0.340763,-0.054656,53,276,585,6224
1644186061.967545,-0.008728,0.010193,-0.990356,0.220855,0.523969,-0.192061,55,279,583,6224
1644186062.01593,-0.010742,0.009583,-0.992676,0.251389,0.401832,0.067481,35,275,584,6224
1644186062.066981,-0.008057,0.011292,-0.991333,0.220855,0.386565,0.006412,58,274,590,6176
1644186062.112719,-0.008423,0.010498,-0.991394,0.342992,0.478168,-0.085191,43,281,590,6224
1644186062.161083,-0.011047,0.013306,-0.991577,0.205588,0.447634,-0.115725,49,270,584,6224
1644186062.209471,-0.007751,0.007629,-0.993896,0.281924,0.447634,-0.207328,38,270,572,6192
1644186062.25787,-0.010925,0.01062,-0.993591,0.144519,0.386565,-0.176794,43,271,578,6224
1644186062.306239,-0.011108,0.007385,-0.992737,0.297191,0.462901,-0.161527,51,269,580,6192
1644186062.354714,-0.005188,0.009583,-0.99231,0.388794,0.356031,-0.085191,52,280,593,6224
1644186062.403039,-0.008911,0.01123,-0.990967,0.251389,0.432366,0.021679,48,271,583,6192
1644186062.451427,-0.00824,0.008484,-0.993164,0.190321,0.401832,-0.069924,49,277,586,6224
1644186062.499822,-0.006348,0.00824,-0.990906,0.297191,0.554504,-0.161527,40,280,584,6240
1644186062.548224,-0.008118,0.006897,-0.991638,0.297191,0.432366,-0.115725,53,279,585,6128
1644186062.596617,-0.01062,0.009399,-0.991577,0.251389,0.539237,-0.14626,43,281,583,6224
1644186062.645046,-0.011047,0.009705,-0.99054,0.175053,0.493435,0.12855,57,280,584,6192
1644186062.693532,-0.006592,0.007629,-0.993286,0.297191,0.203359,-0.054656,41,281,585,6224
1644186062.743636,-0.009521,0.012207,-0.993042,0.190321,0.432366,-0.085191,47,268,575,6224
1644186062.79448,-0.00708,0.00824,-0.992615,0.205588,0.340763,-0.14626,58,274,583,6224
1644186062.839512,-0.009644,0.009216,-0.992432,0.144519,0.478168,-0.161527,47,273,586,6224
1644186062.935655,-0.007751,0.008972,-0.991272,0.159786,0.371298,-0.100458,45,277,575,6256
1644186062.983779,-0.007324,0.012268,-0.99054,0.297191,0.508702,-0.008855,46,274,583,6176
1644186063.032405,-0.01178,0.008423,-0.992676,0.113985,0.371298,-0.008855,53,266,580,6128
1644186063.080729,-0.008911,0.011963,-0.991455,0.281924,0.493435,0.021679,40,277,596,6256
1644186063.128935,-0.007812,0.008423,-0.993225,0.190321,0.218626,-0.069924,59,280,584,6224
1644186063.177335,-0.00647,0.009583,-0.991577,0.190321,0.310229,-0.14626,49,268,584,6256
1644186063.225717,-0.010681,0.010803,-0.989868,0.205588,0.462901,-0.085191,40,273,577,6256
1644186063.274102,-0.009583,0.009155,-0.987671,0.419328,0.417099,-0.130992,52,277,582,6192
1644186063.322531,-0.011475,0.009521,-0.991394,0.205588,0.371298,-0.054656,42,277,572,6192
1644186063.370909,-0.006042,0.009583,-0.991333,0.297191,0.447634,-0.039389,47,280,577,6256
1644186063.419296,-0.006531,0.010071,-0.991577,0.266656,0.447634,-0.039389,47,280,589,6224
1644186063.467686,-0.009766,0.011963,-0.992737,0.251389,0.310229,-0.054656,46,269,580,6256
1644186063.516083,-0.005615,0.010437,-0.993713,0.175053,0.386565,-0.14626,51,271,583,6224
1644186063.564489,-0.009155,0.008362,-0.994324,0.129252,0.417099,-0.069924,45,263,591,6112
1644186063.61285,-0.010071,0.007629,-0.989685,0.205588,0.386565,-0.192061,51,274,590,6240
1644186063.661259,-0.010193,0.006042,-0.990356,0.08345,0.569771,0.006412,51,279,580,6256
1644186063.709665,-0.010559,0.005981,-0.990479,0.159786,0.325496,-0.085191,53,269,587,6192
1644186063.75805,-0.005798,0.011047,-0.992737,0.052916,0.462901,-0.115725,54,273,589,6176
1644186063.806672,-0.009399,0.007324,-0.99115,0.327725,0.585038,-0.237863,47,273,586,6160
1644186063.855965,-0.012085,0.009583,-0.992615,0.220855,0.462901,0.067481,49,280,575,6160
1644186063.906416,-0.009338,0.007141,-0.992371,0.251389,0.325496,0.082748,47,275,579,6224
1644186063.95653,-0.011108,0.00824,-0.994934,0.190321,0.386565,-0.130992,48,274,576,6224
1644186064.05847,-0.009033,0.010437,-0.98999,0.190321,0.325496,-0.130992,53,274,583,6224
1644186064.097664,-0.005371,0.010681,-0.991394,0.327725,0.401832,-0.100458,52,287,584,6240
1644186064.145182,-0.010986,0.012634,-0.991699,0.342992,0.356031,-0.085191,47,273,579,6240
1644186064.193595,-0.007324,0.009094,-0.992737,0.220855,0.508702,-0.14626,54,277,584,6224
1644186064.241972,-0.008667,0.00946,-0.992981,0.251389,0.386565,-0.054656,64,282,584,6224
1644186064.29038,-0.00885,0.009338,-0.99176,0.312458,0.493435,-0.207328,45,270,570,6224
1644186064.338769,-0.008606,0.008545,-0.994385,0.175053,0.371298,-0.14626,48,279,585,6240
1644186064.387155,-0.009033,0.008606,-0.994568,0.175053,0.462901,-0.176794,46,266,587,6288
1644186064.435536,-0.009705,0.007935,-0.990234,0.297191,0.462901,-0.085191,48,279,583,6240
1644186064.483953,-0.007263,0.00946,-0.992126,0.281924,0.478168,-0.176794,43,271,587,6224
1644186064.532351,-0.009338,0.008911,-0.991821,0.327725,0.417099,-0.222595,36,276,580,6224
1644186064.580736,-0.007935,0.010193,-0.993591,0.236122,0.356031,-0.222595,43,283,585,6128
1644186064.629112,-0.010254,0.009521,-0.992065,0.068183,0.523969,-0.14626,51,281,580,6224
1644186064.677523,-0.006653,0.008423,-0.990906,0.220855,0.447634,-0.054656,43,283,583,6240
1644186064.726447,-0.008057,0.009155,-0.99353,0.159786,0.417099,-0.237863,64,273,584,6224
1644186064.777013,-0.007812,0.011963,-0.990234,0.251389,0.401832,-0.222595,51,283,573,6192
1644186064.827366,-0.008606,0.006104,-0.993347,0.052916,0.340763,-0.100458,47,282,579,6224
1644186064.872469,-0.011841,0.007568,-0.992859,0.144519,0.432366,-0.14626,53,276,587,6224
1644186064.967898,-0.00824,0.007263,-0.993958,0.266656,0.432366,-0.14626,48,276,585,6240
1644186065.016284,-0.009094,0.008667,-0.991821,0.266656,0.279695,-0.024122,48,276,576,6240
1644186065.064783,-0.008606,0.008545,-0.994141,0.129252,0.386565,-0.054656,48,274,587,6224
1644186065.113079,-0.009705,0.00647,-0.989563,0.08345,0.462901,-0.054656,57,275,579,6224
1644186065.161429,-0.009338,0.007141,-0.990479,0.205588,0.523969,-0.115725,51,279,580,6240
1644186065.20981,-0.011719,0.010559,-0.993774,0.205588,0.462901,0.006412,47,275,570,6240
1644186065.258223,-0.010864,0.009521,-0.989685,0.297191,0.371298,-0.008855,47,280,586,6192
1644186065.306594,-0.006958,0.007996,-0.991089,0.404061,0.325496,-0.024122,49,280,589,6176
1644186065.355061,-0.008057,0.01001,-0.990845,0.236122,0.417099,-0.100458,51,276,583,6192
1644186065.40342,-0.006836,0.010132,-0.992249,-0.084489,0.401832,0.036947,45,282,575,6224
1644186065.451793,-0.010742,0.010864,-0.992004,0.190321,0.371298,0.006412,47,282,589,6160
1644186065.500173,-0.01001,0.008118,-0.991516,0.35826,0.447634,-0.130992,41,279,590,6176
1644186065.548586,-0.009644,0.009216,-0.992126,0.098718,0.417099,-0.054656,47,273,582,6224
1644186065.596988,-0.008301,0.011841,-0.992676,0.052916,0.417099,-0.069924,54,273,582,6224
1644186065.645365,-0.006897,0.010742,-0.989807,0.129252,0.462901,-0.054656,47,270,586,6256
1644186065.693773,-0.010986,0.010864,-0.991577,0.281924,0.462901,-0.115725,52,275,584,6224
1644186065.742178,-0.007446,0.009827,-0.993347,0.205588,0.554504,-0.130992,47,273,572,6224
1644186065.790561,-0.009338,0.008423,-0.990662,0.236122,0.447634,-0.100458,51,269,578,6240
1644186065.838976,-0.010742,0.011047,-0.990173,0.144519,0.340763,-0.130992,49,280,589,6128
1644186065.889198,-0.007874,0.008789,-0.991516,0.419328,0.401832,-0.039389,51,274,583,6160
1644186065.938873,-0.010803,0.00946,-0.98822,0.113985,0.523969,-0.039389,52,277,579,6224
1644186065.989147,-0.008911,0.008667,-0.992493,0.08345,0.264427,-0.069924,51,274,571,6192
1644186066.033682,-0.006409,0.011292,-0.990051,0.327725,0.356031,-0.237863,51,283,590,6160
1644186066.129303,-0.009277,0.008911,-0.990479,0.098718,0.554504,-0.207328,54,277,579,6288
1644186066.177683,-0.007202,0.011658,-0.991272,0.190321,0.401832,-0.085191,58,262,580,6224
1644186066.226058,-0.006775,0.008728,-0.991516,0.220855,0.508702,-0.039389,42,265,584,6192
1644186066.274482,-0.005981,0.008789,-0.991333,0.35826,0.432366,-0.039389,52,282,575,6176
1644186066.322871,-0.009155,0.008484,-0.990723,0.205588,0.325496,-0.008855,59,275,582,6128
1644186066.371233,-0.008484,0.010376,-0.988831,0.266656,0.340763,0.006412,55,276,580,6192
1644186066.419666,-0.008606,0.009216,-0.99054,0.175053,0.447634,-0.14626,54,280,584,6176
1644186066.468048,-0.010376,0.011963,-0.991882,0.266656,0.371298,-0.14626,46,281,578,6224
1644186066.516446,-0.008484,0.008606,-0.98938,0.449863,0.325496,-0.008855,51,279,578,6256
1644186066.564848,-0.008728,0.008911,-0.989502,0.35826,0.218626,-0.100458,40,275,586,6256
1644186066.613252,-0.005432,0.011963,-0.990723,0.327725,0.417099,-0.008855,46,276,578,6240
1644186066.661618,-0.01178,0.013977,-0.991821,0.236122,0.432366,-0.130992,41,274,573,6256
1644186066.710017,-0.007507,0.011963,-0.98938,0.205588,0.371298,-0.085191,47,275,579,6160
1644186066.758374,-0.009888,0.007935,-0.990906,0.236122,0.432366,-0.085191,53,279,583,6224
1644186066.806796,-0.006836,0.009338,-0.991028,0.236122,0.508702,0.082748,46,269,587,6224
1644186066.855227,-0.00531,0.009094,-0.987976,0.266656,0.356031,-0.268397,53,279,580,6176
1644186066.903631,-0.007996,0.008484,-0.993347,0.327725,0.447634,-0.161527,53,283,585,6240
1644186066.952015,-0.010254,0.00824,-0.992126,0.220855,0.523969,-0.039389,55,276,578,6304
1644186067.000392,-0.006897,0.009521,-0.992737,0.236122,0.264427,-0.069924,54,275,586,6224
1644186067.070148,-0.00592,0.010315,-0.992065,0.144519,0.371298,-0.14626,47,265,579,6224
1644186067.105717,-0.00647,0.010925,-0.989441,0.175053,0.432366,-0.085191,46,281,583,6240
1644186067.151183,-0.007019,0.01062,-0.991455,0.159786,0.401832,0.006412,54,275,589,6224
1644186067.195243,-0.009949,0.010193,-0.990112,0.205588,0.523969,0.006412,58,274,580,6224
