epoch,acc_x,acc_y,acc_z,rot_x,rot_y,rot_z,mag_x,mag_y,mag_z,temp
1644164100.016767,-0.01062,0.008728,-0.991272,0.297191,0.325496,-0.298931,45,275,568,5600
1644164100.067035,-0.011658,0.00824,-0.992676,0.297191,0.63084,-0.14626,45,273,577,5584
1644164100.113837,-0.011597,0.008301,-0.992493,0.266656,0.447634,-0.100458,41,274,587,5536
1644164100.161972,-0.010742,0.009888,-0.992188,0.266656,0.432366,-0.207328,60,274,573,5584
1644164100.21036,-0.008057,0.007935,-0.992615,0.205588,0.340763,-0.100458,53,276,580,5552
1644164100.259106,-0.008362,0.008179,-0.991455,0.312458,0.432366,-0.008855,58,264,578,5648
1644164100.307081,-0.012207,0.011719,-0.992249,0.236122,0.478168,-0.192061,40,270,572,5536
1644164100.355469,-0.011536,0.008606,-0.991211,0.251389,0.462901,-0.024122,43,271,576,5584
1644164100.403872,-0.009033,0.008667,-0.994263,0.205588,0.325496,-0.054656,49,280,577,5584
1644164100.452247,-0.013428,0.00946,-0.992676,0.205588,0.447634,-0.085191,52,263,579,5536
1644164100.500646,-0.011292,0.010559,-0.992859,0.159786,0.279695,-0.024122,49,273,575,5584
1644164100.549029,-0.009888,0.007996,-0.992554,0.266656,0.447634,-0.207328,52,282,577,5536
1644164100.597413,-0.011963,0.009155,-0.991272,0.236122,0.508702,-0.069924,53,281,571,5584
1644164100.645813,-0.01062,0.007385,-0.992554,0.159786,0.371298,-0.130992,47,270,584,5600
1644164100.694204,-0.013611,0.009888,-0.993286,0.312458,0.340763,-0.207328,52,280,584,5584
1644164100.742615,-0.009521,0.012146,-0.992615,0.266656,0.432366,-0.115725,53,269,583,5600
1644164100.791011,-0.013367,0.004089,-0.99353,0.205588,0.386565,-0.054656,47,270,589,5600
1644164100.840748,-0.008789,0.006958,-0.992615,0.312458,0.371298,-0.085191,49,268,575,5632
1644164100.891325,-0.012329,0.009216,-0.993164,0.220855,0.310229,-0.237863,42,268,584,5536
1644164100.941558,-0.013977,0.009705,-0.995544,0.007115,0.493435,-0.161527,53,269,583,5584
1644164100.986268,-0.01239,0.01001,-0.991882,0.281924,0.356031,-0.054656,53,259,576,5648
1644164101.082664,-0.013977,0.009216,-0.991943,0.297191,0.310229,-0.192061,52,268,570,5600
1644164101.129676,-0.010742,0.011475,-0.991943,0.205588,0.279695,-0.130992,53,271,580,5488
1644164101.178099,-0.01062,0.010925,-0.991699,0.251389,0.386565,-0.069924,48,269,578,5552
1644164101.226478,-0.011841,0.009583,-0.992126,0.236122,0.401832,-0.054656,41,274,571,5648
1644164101.274881,-0.009399,0.009277,-0.991089,0.205588,0.340763,-0.25313,42,273,570,5584
1644164101.323276,-0.012207,0.009583,-0.990784,0.129252,0.371298,-0.375267,53,266,578,5584
1644164101.371664,-0.007996,0.010376,-0.991211,0.342992,0.478168,-0.008855,45,265,579,5648
1644164101.420046,-0.01355,0.008545,-0.99231,0.037649,0.447634,0.006412,57,277,579,5584
1644164101.468446,-0.010376,0.006042,-0.992859,0.175053,0.218626,-0.237863,52,273,575,5632
1644164101.516824,-0.011902,0.011108,-0.992188,0.35826,0.508702,-0.069924,52,277,572,5600
1644164101.565317,-0.010681,0.009399,-0.991577,0.373527,0.386565,-0.14626,47,268,575,5584
1644164101.613616,-0.010254,0.008911,-0.993469,0.297191,0.325496,-0.161527,48,271,583,5600
1644164101.662007,-0.008423,0.008362,-0.990845,0.251389,0.417099,-0.100458,53,276,576,5600
1644164101.710393,-0.011597,0.006714,-0.994263,0.236122,0.310229,-0.054656,55,271,571,5552
1644164101.758769,-0.009949,0.009827,-0.993408,0.251389,0.462901,-0.100458,48,276,580,5552
1644164101.80722,-0.007629,0.010559,-0.995544,0.205588,0.417099,-0.085191,62,271,576,5584
1644164101.85561,-0.010986,0.011353,-0.990784,0.159786,0.386565,-0.207328,43,281,573,5552
1644164101.904006,-0.012756,0.010864,-0.992432,0.327725,0.478168,-0.192061,61,270,579,5584
1644164101.953273,-0.011353,0.009033,-0.991821,0.220855,0.371298,0.082748,47,275,570,5664
1644164102.003271,-0.012329,0.009216,-0.990601,0.144519,0.279695,-0.130992,43,266,576,5648
1644164102.097539,-0.010559,0.006348,-0.994324,0.419328,0.462901,-0.039389,48,271,573,5584
1644164102.145883,-0.009766,0.010193,-0.99231,0.281924,0.233893,-0.054656,51,274,571,5584
1644164102.194301,-0.009399,0.010315,-0.992859,0.266656,0.356031,-0.085191,52,273,572,5552
1644164102.242707,-0.010925,0.007751,-0.992004,0.327725,0.432366,-0.283664,43,274,578,5536
1644164102.291058,-0.010071,0.009888,-0.989807,0.068183,0.24916,0.067481,42,280,584,5632
1644164102.33947,-0.011353,0.008057,-0.993713,0.236122,0.401832,-0.130992,49,277,572,5584
1644164102.387858,-0.009583,0.00946,-0.990906,0.342992,0.310229,-0.192061,51,271,569,5584
1644164102.436231,-0.010315,0.008789,-0.993164,0.190321,0.294962,-0.14626,47,265,575,5584
1644164102.484636,-0.012207,0.007874,-0.99115,0.129252,0.386565,-0.054656,52,273,575,5584
1644164102.533041,-0.010376,0.012878,-0.992065,0.251389,0.371298,-0.054656,47,277,582,5648
1644164102.581419,-0.011475,0.009338,-0.989929,0.190321,0.386565,-0.039389,59,273,579,5664
1644164102.629812,-0.009399,0.011169,-0.991882,0.266656,0.493435,-0.100458,41,274,573,5600
1644164102.6782,-0.006714,0.01001,-0.992615,0.327725,0.554504,-0.069924,42,268,577,5584
1644164102.726589,-0.00708,0.009827,-0.990479,0.266656,0.478168,-0.039389,51,279,580,5632
1644164102.775119,-0.009583,0.010864,-0.992371,0.236122,0.218626,-0.024122,51,265,579,5552
1644164102.823421,-0.01001,0.008057,-0.989624,0.327725,0.24916,-0.100458,59,275,582,5648
1644164102.871776,-0.011841,0.00647,-0.991028,0.113985,0.447634,-0.100458,48,274,576,5664
1644164102.920203,-0.010803,0.011475,-0.991272,0.281924,0.279695,-0.130992,51,274,571,5536
1644164102.968593,-0.011108,0.00946,-0.993408,0.327725,0.417099,-0.14626,49,280,570,5584
1644164103.017934,-0.011353,0.009216,-0.989502,0.373527,0.386565,0.036947,54,277,577,5584
1644164103.073802,-0.011475,0.007751,-0.989807,0.251389,0.356031,0.036947,55,264,578,5600
1644164103.119349,-0.00946,0.009583,-0.991333,0.190321,0.325496,-0.207328,43,283,578,5600
1644164103.162767,-0.011841,0.007629,-0.99231,0.266656,0.371298,-0.069924,52,270,575,5600
1644164103.258876,-0.011902,0.006714,-0.994202,0.312458,0.432366,-0.054656,48,264,569,5632
1644164103.307256,-0.011963,0.00824,-0.993347,0.205588,0.264427,-0.100458,58,274,583,5584
1644164103.355664,-0.011536,0.008606,-0.991333,0.251389,0.356031,-0.069924,52,273,582,5584
1644164103.404063,-0.012573,0.011414,-0.993713,0.281924,0.508702,-0.14626,55,274,578,5648
1644164103.452451,-0.012024,0.008545,-0.993713,0.236122,0.401832,-0.314198,42,285,565,5520
1644164103.500848,-0.010071,0.008789,-0.991882,0.144519,0.462901,-0.115725,54,265,577,5552
1644164103.549231,-0.01062,0.008972,-0.993225,0.312458,0.386565,-0.039389,48,271,576,5584
1644164103.597614,-0.012695,0.00824,-0.992126,0.129252,0.310229,-0.176794,47,268,577,5584
1644164103.646014,-0.011353,0.007996,-0.993835,0.266656,0.356031,-0.069924,48,279,564,5552
1644164103.694402,-0.00769,0.009094,-0.990051,0.190321,0.386565,-0.054656,41,271,576,5552
1644164103.742811,-0.007751,0.007385,-0.990784,0.281924,0.310229,-0.008855,45,277,565,5552
1644164103.791178,-0.011597,0.009583,-0.992126,0.205588,0.462901,-0.054656,45,275,586,5552
1644164103.839612,-0.010742,0.007812,-0.992371,0.281924,0.523969,-0.039389,52,270,572,5600
1644164103.887992,-0.009399,0.012024,-0.993408,0.312458,0.294962,-0.024122,52,275,572,5584
1644164103.936378,-0.009216,0.010559,-0.991638,0.342992,0.203359,-0.130992,43,274,578,5584
1644164103.984792,-0.009094,0.009705,-0.991028,0.175053,0.417099,-0.100458,45,270,582,5584
1644164104.033148,-0.009949,0.007935,-0.992004,0.175053,0.447634,-0.024122,57,275,577,5584
1644164104.084207,-0.013062,0.009399,-0.989746,0.342992,0.310229,-0.024122,51,271,583,5536
1644164104.129925,-0.012329,0.009216,-0.992432,0.251389,0.447634,-0.192061,49,275,584,5584
1644164104.178655,-0.012146,0.009583,-0.989929,0.266656,0.386565,-0.14626,53,279,578,5520
1644164104.228793,-0.006409,0.009888,-0.991943,0.220855,0.157557,-0.039389,49,277,589,5600
1644164104.279034,-0.012939,0.01001,-0.994751,0.220855,0.310229,-0.115725,48,279,576,5632
1644164104.323996,-0.010986,0.00885,-0.991028,0.159786,0.356031,-0.222595,48,269,573,5584
1644164104.420252,-0.011108,0.010254,-0.993469,0.144519,0.386565,-0.024122,49,270,575,5552
1644164104.468622,-0.010803,0.009705,-0.989014,0.236122,0.356031,-0.100458,51,271,571,5584
1644164104.517031,-0.010925,0.01123,-0.990723,0.281924,0.554504,-0.115725,55,269,566,5536
1644164104.565428,-0.010803,0.011292,-0.992065,0.236122,0.432366,0.036947,46,271,573,5600
1644164104.61382,-0.009583,0.009521,-0.993286,0.236122,0.539237,-0.008855,53,271,571,5536
1644164104.662282,-0.010315,0.008545,-0.993774,0.281924,0.462901,-0.069924,54,275,577,5552
1644164104.710599,-0.012329,0.010315,-0.991211,0.220855,0.432366,-0.115725,48,269,578,5536
1644164104.758968,-0.010071,0.008362,-0.991028,0.281924,0.462901,-0.054656,59,273,582,5584
1644164104.807372,-0.013611,0.010498,-0.993347,0.342992,0.371298,-0.024122,43,266,576,5536
1644164104.855808,-0.013184,0.010437,-0.992493,0.281924,0.279695,-0.14626,58,276,571,5632
1644164104.904195,-0.007751,0.013367,-0.991455,0.342992,0.508702,-0.054656,49,280,577,5552
1644164104.952619,-0.009705,0.011353,-0.990112,0.190321,0.432366,0.067481,49,275,584,5600
1644164105.000979,-0.011047,0.006409,-0.993896,0.266656,0.294962,-0.14626,64,270,577,5552
1644164105.059888,-0.009949,0.010498,-0.991516,0.159786,0.432366,-0.14626,49,273,589,5536
1644164105.09778,-0.007812,0.008362,-0.99115,0.388794,0.401832,-0.14626,53,266,573,5584
1644164105.146112,-0.011047,0.008972,-0.991943,0.144519,0.417099,-0.25313,49,265,582,5600
1644164105.194476,-0.010742,0.009521,-0.993164,0.404061,0.233893,0.067481,52,287,575,5600
1644164105.242898,-0.011414,0.008728,-0.990601,0.08345,0.325496,-0.039389,48,281,578,5536
1644164105.291267,-0.009644,0.00824,-0.994019,0.35826,0.569771,-0.222595,42,275,586,5600
1644164105.339744,-0.009521,0.008789,-0.991638,0.236122,0.401832,-0.161527,52,280,577,5600
1644164105.390687,-0.010803,0.010376,-0.990234,0.342992,0.585038,-0.085191,49,275,575,5584
1644164105.44036,-0.009827,0.01001,-0.992188,0.434595,0.24916,-0.024122,45,275,577,5600
1644164105.485483,-0.008972,0.008667,-0.992493,0.175053,0.356031,-0.024122,45,273,582,5552
1644164105.581627,-0.010681,0.011353,-0.98999,0.144519,0.539237,-0.176794,46,279,583,5584
1644164105.630006,-0.008728,0.00708,-0.989685,0.297191,0.417099,0.021679,49,280,582,5584
1644164105.678404,-0.009949,0.010376,-0.990723,0.236122,0.447634,-0.069924,47,277,570,5584
1644164105.726785,-0.008667,0.011536,-0.990356,0.297191,0.478168,0.021679,53,276,566,5584
1644164105.775182,-0.007935,0.006531,-0.990173,0.159786,0.508702,0.067481,53,274,580,5584
1644164105.82357,-0.009521,0.011414,-0.99115,0.159786,0.294962,-0.207328,49,280,570,5600
1644164105.872009,-0.009338,0.011597,-0.992004,0.312458,0.432366,-0.054656,40,270,572,5584
1644164105.920371,-0.009155,0.009521,-0.993713,0.129252,0.340763,-0.085191,52,273,568,5664
1644164105.968786,-0.010925,0.007996,-0.992249,0.205588,0.417099,-0.176794,49,273,575,5584
1644164106.017177,-0.008423,0.006165,-0.992432,0.251389,0.371298,-0.237863,46,274,573,5664
1644164106.075323,-0.008789,0.006592,-0.994141,0.312458,0.264427,-0.222595,51,274,573,5552
1644164106.113938,-0.010376,0.00708,-0.992188,0.251389,0.310229,-0.054656,52,268,579,5600
1644164106.162324,-0.011292,0.009888,-0.990967,0.113985,0.432366,-0.069924,57,275,568,5584
1644164106.210668,-0.006592,0.011353,-0.990356,0.266656,0.478168,-0.283664,45,277,586,5584
1644164106.25908,-0.011475,0.008118,-0.992371,0.312458,0.294962,-0.069924,57,277,579,5536
1644164106.307463,-0.010193,0.010803,-0.992737,0.220855,0.462901,-0.100458,54,277,582,5600
1644164106.356189,-0.012756,0.010864,-0.990662,0.236122,0.310229,-0.054656,54,270,589,5584
1644164106.406703,-0.013184,0.009033,-0.992065,0.327725,0.462901,0.052214,54,275,572,5600
1644164106.456754,-0.011475,0.008728,-0.994019,0.159786,0.371298,-0.268397,52,280,572,5584
1644164106.5019,-0.011108,0.011414,-0.990173,0.144519,0.508702,0.082748,48,279,566,5600
1644164106.5978,-0.009094,0.009949,-0.989136,0.297191,0.386565,-0.14626,49,273,575,5648
1644164106.646191,-0.011658,0.008301,-0.991089,0.342992,0.279695,0.036947,51,271,576,5552
1644164106.694846,-0.010193,0.009399,-0.992859,0.251389,0.478168,-0.039389,42,268,577,5584
1644164106.742995,-0.01239,0.007874,-0.992126,0.220855,0.478168,0.052214,54,282,572,5584
1644164106.791353,-0.00946,0.006653,-0.994141,0.236122,0.447634,-0.039389,51,274,580,5648
1644164106.839761,-0.011719,0.010559,-0.995361,0.281924,0.447634,-0.115725,53,269,571,5536
1644164106.888199,-0.012695,0.01001,-0.991516,0.297191,0.462901,-0.100458,39,266,578,5648
1644164106.936585,-0.011292,0.007996,-0.990356,0.175053,0.325496,-0.115725,48,269,585,5552
1644164106.985098,-0.010803,0.009949,-0.99353,0.419328,0.356031,-0.115725,54,260,577,5536
1644164107.033379,-0.008362,0.007935,-0.992249,0.236122,0.386565,-0.054656,55,279,573,5536
1644164107.081773,-0.009277,0.010498,-0.990845,0.159786,0.462901,0.021679,49,277,579,5552
1644164107.130132,-0.00885,0.007935,-0.991211,0.08345,0.478168,-0.100458,55,276,578,5584
1644164107.178525,-0.01123,0.008118,-0.993164,0.251389,0.432366,0.036947,51,276,569,5536
1644164107.226902,-0.007385,0.011902,-0.991455,0.297191,0.493435,-0.176794,52,268,582,5600
1644164107.276117,-0.012573,0.011658,-0.99292,0.236122,0.447634,-0.176794,53,276,580,5584
1644164107.323779,-0.008362,0.009888,-0.992615,0.159786,0.508702,-0.130992,49,265,575,5584
1644164107.374122,-0.01123,0.008606,-0.990112,0.46513,0.356031,-0.039389,59,277,586,5664
1644164107.42436,-0.012329,0.007385,-0.990295,0.236122,0.310229,-0.069924,47,275,582,5536
1644164107.474708,-0.010742,0.01178,-0.991699,0.35826,0.462901,-0.14626,41,276,578,5584
1644164107.565676,-0.009033,0.009399,-0.99176,0.327725,0.585038,-0.085191,46,271,569,5600
1644164107.614044,-0.007446,0.009216,-0.992188,0.449863,0.523969,-0.054656,49,270,570,5632
1644164107.662431,-0.00647,0.010498,-0.990479,0.205588,0.356031,-0.085191,55,271,578,5584
1644164107.71084,-0.006897,0.010742,-0.992004,0.342992,0.493435,0.036947,46,259,573,5552
1644164107.759205,-0.010132,0.010193,-0.993591,0.342992,0.340763,0.036947,54,280,570,5584
1644164107.807605,-0.010437,0.010315,-0.993652,0.297191,0.523969,0.021679,46,274,573,5520
1644164107.855994,-0.010193,0.008423,-0.990234,0.205588,0.447634,-0.024122,41,276,580,5552
1644164107.904395,-0.009766,0.010376,-0.993774,0.297191,0.401832,-0.085191,58,269,573,5584
1644164107.952796,-0.010315,0.010559,-0.991028,0.251389,0.508702,-0.161527,36,269,576,5584
1644164108.001158,-0.010864,0.009094,-0.993286,0.251389,0.569771,-0.085191,58,274,580,5600
1644164108.054312,-0.009827,0.009644,-0.990723,0.251389,0.462901,-0.069924,51,276,580,5552
1644164108.097922,-0.009033,0.010986,-0.990723,0.205588,0.462901,-0.268397,53,266,578,5664
1644164108.146305,-0.012268,0.008667,-0.989746,0.342992,0.462901,-0.115725,51,276,580,5584
1644164108.194721,-0.011047,0.011536,-0.991455,0.388794,0.462901,-0.100458,45,275,577,5584
1644164108.243056,-0.011841,0.012085,-0.991882,0.220855,0.356031,-0.130992,46,279,576,5552
1644164108.291448,-0.012939,0.008179,-0.993164,0.266656,0.401832,-0.085191,59,280,584,5552
1644164108.339866,-0.011108,0.009644,-0.991516,0.068183,0.386565,-0.115725,36,274,587,5584
1644164108.388247,-0.01123,0.009827,-0.991028,0.190321,0.432366,-0.192061,54,270,586,5600
1644164108.436617,-0.010925,0.007812,-0.990784,0.388794,0.401832,0.036947,52,268,582,5520
1644164108.48533,-0.009583,0.009949,-0.99231,0.251389,0.432366,-0.268397,51,281,576,5600
1644164108.535629,-0.012024,0.010437,-0.992188,0.327725,0.356031,-0.039389,48,274,571,5632
1644164108.585907,-0.011047,0.009399,-0.990662,0.281924,0.462901,-0.192061,54,275,579,5600
1644164108.630905,-0.008728,0.009583,-0.992004,0.236122,0.356031,-0.054656,52,268,582,5632
1644164108.726975,-0.011169,0.009216,-0.991089,0.342992,0.386565,-0.161527,46,269,585,5584
1644164108.775366,-0.010376,0.012146,-0.99353,0.205588,0.371298,-0.039389,58,269,583,5584
1644164108.823804,-0.011719,0.010864,-0.993896,0.205588,0.447634,-0.100458,53,279,573,5600
1644164108.872414,-0.011536,0.008179,-0.992859,0.266656,0.386565,0.036947,57,268,577,5584
1644164108.920583,-0.009644,0.007446,-0.99353,0.251389,0.508702,0.082748,41,269,573,5600
1644164108.968979,-0.009155,0.009399,-0.994507,0.266656,0.554504,-0.039389,43,269,576,5584
1644164109.017375,-0.012451,0.007812,-0.991943,0.159786,0.356031,-0.115725,51,271,573,5584
1644164109.07176,-0.011108,0.00946,-0.990112,0.205588,0.447634,-0.008855,58,269,576,5584
1644164109.114108,-0.010071,0.009583,-0.992432,0.266656,0.493435,-0.130992,59,277,575,5600
1644164109.162518,-0.007935,0.008911,-0.993652,0.220855,0.523969,0.036947,49,277,577,5552
1644164109.210891,-0.010742,0.009277,-0.992065,0.312458,0.340763,-0.069924,47,275,575,5536
1644164109.25926,-0.00946,0.009644,-0.991211,0.312458,0.462901,0.021679,46,276,573,5600
1644164109.307678,-0.009094,0.007874,-0.99176,0.327725,0.233893,-0.054656,51,271,564,5584
1644164109.356052,-0.009644,0.009521,-0.989258,0.327725,0.432366,-0.207328,42,270,570,5600
1644164109.40446,-0.008301,0.011475,-0.990784,0.205588,0.508702,0.036947,57,275,570,5664
1644164109.452863,-0.011963,0.008301,-0.995422,0.205588,0.417099,-0.054656,47,273,572,5600
1644164109.501228,-0.012451,0.009155,-0.991699,0.220855,0.447634,-0.192061,49,280,584,5600
1644164109.54962,-0.011169,0.011169,-0.99176,0.236122,0.310229,-0.054656,45,275,579,5584
1644164109.598015,-0.013794,0.009155,-0.993652,0.251389,0.264427,0.006412,53,271,569,5584
1644164109.646545,-0.009705,0.008179,-0.989136,0.312458,0.447634,-0.039389,53,276,576,5584
1644164109.696972,-0.008728,0.009644,-0.99353,0.205588,0.432366,-0.085191,39,271,587,5552
1644164109.747247,-0.011963,0.009949,-0.988892,0.266656,0.386565,-0.207328,51,276,571,5648
1644164109.792472,-0.011597,0.009277,-0.99353,0.312458,0.401832,-0.161527,55,281,571,5584
1644164109.888392,-0.010376,0.008728,-0.991882,0.266656,0.462901,-0.115725,48,269,580,5584
1644164109.936776,-0.011292,0.011841,-0.991089,0.312458,0.432366,-0.14626,49,280,570,5584
1644164109.985204,-0.010803,0.010376,-0.992676,0.327725,0.340763,-0.054656,52,268,575,5552
1644164110.033576,-0.010742,0.008057,-0.992981,0.327725,0.493435,-0.161527,54,275,565,5584
1644164110.084764,-0.009216,0.01001,-0.990723,0.220855,0.310229,-0.024122,42,268,575,5632
1644164110.130302,-0.009888,0.010132,-0.98999,0.281924,0.401832,-0.085191,42,270,572,5536
1644164110.178702,-0.012024,0.011169,-0.993347,0.236122,0.523969,-0.130992,68,285,579,5584
1644164110.227088,-0.009216,0.010559,-0.993103,0.266656,0.294962,-0.115725,57,280,577,5600
1644164110.275477,-0.011597,0.008423,-0.991028,0.205588,0.417099,-0.039389,57,270,584,5584
1644164110.323874,-0.010376,0.009583,-0.990112,0.190321,0.356031,0.006412,51,276,576,5632
1644164110.372273,-0.009277,0.009705,-0.990051,0.373527,0.539237,-0.039389,52,277,586,5584
1644164110.420626,-0.009949,0.010925,-0.990601,0.144519,0.356031,-0.192061,51,269,583,5584
1644164110.469041,-0.009399,0.008911,-0.994263,0.388794,0.417099,-0.100458,54,270,582,5552
1644164110.517433,-0.010315,0.009827,-0.992554,0.266656,0.356031,-0.069924,62,281,580,5584
1644164110.565818,-0.009521,0.01062,-0.994263,0.205588,0.478168,-0.085191,57,273,586,5648
1644164110.614264,-0.011047,0.006714,-0.990295,0.007115,0.554504,-0.115725,51,274,578,5584
1644164110.663534,-0.008301,0.00885,-0.989685,0.190321,0.356031,-0.115725,65,276,583,5600
1644164110.714002,-0.010498,0.011719,-0.991882,0.281924,0.401832,-0.069924,57,265,575,5584
1644164110.764202,-0.010376,0.005798,-0.993103,0.129252,0.417099,0.098015,49,282,572,5536
1644164110.856222,-0.011169,0.009583,-0.990845,0.388794,0.417099,-0.130992,52,270,568,5584
1644164110.904876,-0.013062,0.008728,-0.990417,0.113985,0.356031,-0.14626,49,268,572,5584
1644164110.952986,-0.008728,0.009766,-0.991394,0.312458,0.325496,-0.085191,48,266,583,5552
1644164111.001374,-0.010925,0.010803,-0.991272,0.159786,0.432366,0.021679,57,273,582,5552
1644164111.056931,-0.009521,0.010071,-0.991821,0.236122,0.432366,-0.237863,52,277,575,5600
1644164111.098126,-0.01062,0.007996,-0.990479,0.205588,0.417099,0.036947,57,270,568,5600
1644164111.146496,-0.010193,0.009338,-0.991333,0.205588,0.417099,-0.039389,53,279,576,5584
1644164111.194872,-0.006226,0.009155,-0.992615,0.205588,0.356031,-0.176794,46,274,578,5648
1644164111.243278,-0.008484,0.008362,-0.992981,0.159786,0.325496,-0.161527,52,277,579,5536
1644164111.291683,-0.013733,0.011658,-0.99353,0.129252,0.539237,-0.176794,52,260,572,5584
1644164111.340069,-0.012512,0.008423,-0.991882,0.098718,0.539237,-0.100458,51,266,580,5536
1644164111.388671,-0.01178,0.009766,-0.992188,0.35826,0.371298,-0.024122,53,274,580,5552
1644164111.436846,-0.009094,0.009216,-0.991455,0.342992,0.340763,-0.100458,53,274,578,5648
1644164111.485276,-0.010315,0.009399,-0.993164,0.190321,0.386565,-0.069924,49,275,577,5552
1644164111.533638,-0.012024,0.008789,-0.989624,0.159786,0.401832,-0.054656,58,266,583,5552
1644164111.582017,-0.011414,0.012634,-0.988892,0.297191,0.401832,-0.115725,57,265,579,5536
1644164111.630414,-0.010803,0.012146,-0.995056,0.08345,0.386565,0.082748,57,263,586,5648
1644164111.678795,-0.013855,0.011108,-0.989136,0.297191,0.340763,-0.054656,47,275,577,5648
1644164111.727153,-0.010925,0.011963,-0.992371,0.113985,0.340763,-0.039389,60,269,583,5552
1644164111.77584,-0.008728,0.010681,-0.990234,0.297191,0.523969,-0.14626,52,280,575,5488
1644164111.826841,-0.010986,0.009827,-0.993103,0.281924,0.203359,-0.054656,54,280,579,5536
1644164111.877475,-0.007141,0.009888,-0.989563,0.266656,0.462901,-0.100458,57,270,579,5552
1644164111.922006,-0.008545,0.010376,-0.988464,0.220855,0.356031,-0.176794,47,277,570,5600
1644164112.017551,-0.010803,0.011169,-0.992615,0.205588,0.539237,-0.100458,53,271,578,5632
1644164112.069234,-0.010803,0.007996,-0.991882,0.251389,0.325496,-0.130992,54,265,579,5584
1644164112.114353,-0.009338,0.009033,-0.994995,0.190321,0.340763,-0.14626,47,282,575,5632
1644164112.162701,-0.009216,0.009521,-0.993042,0.205588,0.462901,-0.085191,55,271,569,5584
1644164112.211088,-0.008606,0.010742,-0.992981,0.35826,0.356031,-0.100458,39,276,569,5648
1644164112.259461,-0.011536,0.010376,-0.991882,0.220855,0.356031,-0.008855,39,259,573,5552
1644164112.30787,-0.008789,0.010193,-0.993103,0.190321,0.386565,-0.161527,45,265,584,5552
1644164112.356265,-0.009399,0.008057,-0.991455,0.35826,0.478168,-0.176794,46,269,585,5536
1644164112.404717,-0.009766,0.00946,-0.989258,0.266656,0.386565,-0.130992,48,271,576,5552
1644164112.453048,-0.006897,0.011902,-0.989807,0.190321,0.508702,-0.054656,46,269,583,5584
1644164112.501438,-0.008972,0.010376,-0.991882,0.312458,0.401832,-0.192061,52,270,572,5552
1644164112.549827,-0.009949,0.004822,-0.99231,0.35826,0.325496,-0.085191,52,290,575,5600
1644164112.598217,-0.01178,0.00946,-0.993652,0.205588,0.340763,-0.176794,48,274,580,5600
1644164112.646574,-0.01062,0.010864,-0.993042,0.297191,0.508702,-0.054656,46,264,583,5584
1644164112.695058,-0.007263,0.010925,-0.992004,0.251389,0.340763,-0.161527,51,264,571,5536
1644164112.743367,-0.010498,0.008057,-0.991882,0.342992,0.447634,-0.176794,59,263,575,5648
1644164112.79177,-0.012573,0.009705,-0.992249,0.098718,0.508702,0.159084,47,268,570,5520
1644164112.840195,-0.012512,0.010559,-0.991089,0.236122,0.523969,-0.085191,46,264,566,5584
1644164112.888889,-0.007202,0.010803,-0.994019,0.236122,0.386565,-0.039389,54,263,579,5696
1644164112.939269,-0.010376,0.010864,-0.994507,-0.02342,0.569771,-0.008855,41,269,578,5536
1644164112.991869,-0.008362,0.010864,-0.991028,0.236122,0.523969,-0.039389,49,277,582,5584
1644164113.044634,-0.008911,0.008484,-0.991516,0.205588,0.401832,-0.085191,55,269,569,5552
1644164113.130558,-0.008606,0.009277,-0.993347,0.220855,0.356031,-0.14626,54,270,582,5584
1644164113.178893,-0.010986,0.007751,-0.989746,0.113985,0.401832,-0.085191,47,275,570,5584
1644164113.227289,-0.007263,0.007812,-0.990356,0.068183,0.310229,-0.222595,45,273,572,5584
1644164113.27566,-0.012878,0.007385,-0.992371,0.113985,0.325496,-0.039389,53,271,576,5552
1644164113.324077,-0.009277,0.007568,-0.991577,0.266656,0.478168,-0.237863,49,270,579,5552
1644164113.372476,-0.00946,0.008972,-0.99231,0.007115,0.462901,0.006412,53,271,583,5536
1644164113.420859,-0.00769,0.008972,-0.991211,0.266656,0.432366,0.021679,52,277,577,5696
1644164113.469249,-0.010742,0.010254,-0.990479,0.251389,0.508702,-0.115725,48,264,573,5632
1644164113.517649,-0.00946,0.011353,-0.991394,0.35826,0.523969,-0.115725,54,277,568,5552
1644164113.566025,-0.008179,0.00946,-0.992432,0.098718,0.447634,-0.25313,54,270,570,5648
1644164113.614419,-0.01239,0.009888,-0.992004,0.205588,0.401832,-0.115725,41,276,569,5600
1644164113.662812,-0.014709,0.010498,-0.992493,0.388794,0.417099,0.082748,54,268,570,5600
1644164113.711188,-0.008606,0.009033,-0.989502,0.175053,0.386565,-0.100458,48,274,573,5488
1644164113.759561,-0.007812,0.01178,-0.992249,0.342992,0.24916,-0.085191,51,274,578,5552
1644164113.807984,-0.008545,0.010498,-0.993103,0.159786,0.325496,-0.024122,46,269,569,5584
1644164113.856407,-0.012695,0.009705,-0.990784,0.037649,0.462901,-0.25313,54,282,577,5632
1644164113.904805,-0.012695,0.010498,-0.992615,0.236122,0.478168,-0.085191,49,265,579,5584
1644164113.953201,-0.010986,0.008972,-0.992798,0.251389,0.371298,-0.100458,43,279,578,5536
1644164114.001571,-0.013245,0.009644,-0.992004,0.251389,0.493435,-0.100458,39,274,578,5584
1644164114.098374,-0.013123,0.010071,-0.990784,0.281924,0.432366,0.098015,43,283,564,5552
1644164114.146708,-0.008972,0.007812,-0.992493,0.266656,0.340763,-0.115725,48,274,573,5536
1644164114.195311,-0.008911,0.00885,-0.990051,0.251389,0.325496,-0.100458,51,269,578,5584
1644164114.243496,-0.010254,0.011169,-0.990784,0.297191,0.432366,-0.207328,51,276,573,5536
1644164114.291857,-0.01355,0.008728,-0.99585,0.342992,0.401832,-0.176794,51,262,576,5632
1644164114.340261,-0.010071,0.009888,-0.993042,0.205588,0.462901,-0.024122,51,264,576,5648
1644164114.388653,-0.011841,0.009399,-0.993225,0.220855,0.279695,-0.192061,58,271,578,5584
1644164114.437052,-0.009216,0.009216,-0.990112,0.342992,0.325496,-0.222595,52,277,575,5648
1644164114.48542,-0.011414,0.007874,-0.990662,0.419328,0.371298,-0.268397,41,276,583,5648
1644164114.533845,-0.010132,0.009583,-0.992493,0.236122,0.325496,0.006412,52,273,572,5536
1644164114.582233,-0.011108,0.008606,-0.989075,0.129252,0.417099,-0.14626,53,271,571,5552
1644164114.63062,-0.011414,0.01123,-0.990723,0.312458,0.386565,-0.115725,46,283,580,5552
1644164114.678997,-0.007812,0.011536,-0.991333,0.205588,0.340763,-0.176794,39,274,566,5536
1644164114.727399,-0.014526,0.00946,-0.991943,0.251389,0.432366,-0.115725,54,275,579,5584
1644164114.775776,-0.010193,0.007812,-0.991028,0.144519,0.493435,-0.039389,52,277,582,5600
1644164114.824178,-0.01123,0.008118,-0.990845,0.205588,0.417099,-0.008855,52,268,575,5552
1644164114.872627,-0.011719,0.01062,-0.991394,0.098718,0.325496,-0.100458,46,281,578,5600
1644164114.920988,-0.010559,0.008972,-0.992859,0.129252,0.493435,-0.115725,43,276,585,5600
1644164114.969394,-0.012085,0.009766,-0.990906,0.251389,0.340763,-0.192061,46,271,585,5632
1644164115.018563,-0.010254,0.010376,-0.99231,0.251389,0.478168,-0.115725,54,275,577,5584
1644164115.071567,-0.01239,0.011169,-0.992065,0.205588,0.371298,-0.100458,51,266,569,5584
1644164115.119886,-0.013062,0.007446,-0.989807,0.205588,0.615573,0.067481,47,268,579,5584
1644164115.164187,-0.01062,0.01062,-0.992615,0.297191,0.386565,-0.024122,59,275,582,5536
1644164115.259718,-0.012024,0.009827,-0.990295,0.220855,0.432366,-0.008855,55,266,576,5552
1644164115.308093,-0.008484,0.008362,-0.99115,0.327725,0.432366,-0.024122,52,275,570,5552
1644164115.356498,-0.007996,0.008545,-0.992126,0.266656,0.340763,-0.054656,47,275,577,5536
1644164115.404891,-0.013,0.008057,-0.989197,0.144519,0.447634,-0.069924,51,271,590,5520
1644164115.453304,-0.00885,0.007935,-0.993652,0.220855,0.356031,-0.268397,53,274,580,5600
1644164115.501652,-0.009644,0.008362,-0.992859,0.35826,0.325496,-0.115725,45,282,584,5600
1644164115.550067,-0.010315,0.007385,-0.993286,0.236122,0.371298,-0.161527,48,283,578,5536
1644164115.598446,-0.010315,0.009888,-0.993896,0.129252,0.462901,-0.039389,49,275,577,5584
1644164115.646858,-0.009277,0.008362,-0.993347,0.297191,0.462901,-0.100458,47,280,579,5584
1644164115.695324,-0.011719,0.006653,-0.995361,0.266656,0.325496,-0.268397,51,274,580,5632
1644164115.743644,-0.010193,0.008972,-0.992859,0.190321,0.233893,-0.085191,49,273,582,5632
1644164115.792018,-0.007141,0.010681,-0.991516,0.08345,0.371298,-0.008855,55,274,571,5536
1644164115.840422,-0.011047,0.007935,-0.994202,0.297191,0.432366,-0.207328,35,277,577,5552
1644164115.888798,-0.011047,0.011169,-0.990173,0.266656,0.417099,-0.161527,53,286,573,5584
1644164115.937196,-0.009827,0.007263,-0.993225,0.236122,0.279695,-0.130992,55,266,566,5584
1644164115.985578,-0.011108,0.008667,-0.99231,0.236122,0.417099,-0.054656,42,273,582,5632
1644164116.045251,-0.012573,0.006775,-0.991455,0.037649,0.478168,-0.008855,49,273,577,5536
1644164116.082338,-0.011108,0.009583,-0.993958,0.236122,0.417099,-0.283664,52,280,584,5648
1644164116.130715,-0.010071,0.011353,-0.993713,0.144519,0.432366,-0.14626,57,275,570,5584
1644164116.180015,-0.011902,0.011292,-0.991455,0.175053,0.386565,-0.14626,49,273,575,5648
1644164116.230355,-0.010437,0.007507,-0.992676,0.342992,0.356031,-0.100458,52,268,568,5584
1644164116.280423,-0.011292,0.005249,-0.991089,0.144519,0.447634,-0.039389,43,283,571,5552
1644164116.325566,-0.010132,0.008484,-0.992432,0.251389,0.417099,-0.100458,49,273,577,5584
1644164116.421046,-0.01062,0.010437,-0.990723,0.251389,0.493435,-0.024122,48,274,585,5552
1644164116.469445,-0.010559,0.009766,-0.99115,0.205588,0.401832,-0.14626,45,280,572,5584
1644164116.517819,-0.012146,0.007324,-0.994385,0.113985,0.432366,-0.008855,49,280,582,5648
1644164116.56621,-0.010925,0.009338,-0.991516,0.113985,0.371298,-0.069924,45,277,572,5536
1644164116.614647,-0.010742,0.010376,-0.99292,0.236122,0.417099,0.021679,54,275,582,5600
1644164116.663017,-0.008301,0.006165,-0.993835,0.190321,0.401832,-0.192061,40,277,577,5552
1644164116.711393,-0.011902,0.007751,-0.99469,0.266656,0.523969,-0.130992,49,277,575,5632
1644164116.759791,-0.012207,0.007996,-0.99054,0.159786,0.279695,-0.085191,51,266,583,5600
1644164116.808225,-0.01355,0.011047,-0.990723,0.129252,0.432366,0.006412,41,279,569,5584
1644164116.856615,-0.010681,0.00946,-0.992554,0.342992,0.386565,-0.100458,51,271,585,5600
1644164116.905139,-0.011047,0.010681,-0.993408,0.312458,0.478168,-0.115725,52,275,579,5584
1644164116.953402,-0.011292,0.008667,-0.994812,0.098718,0.554504,-0.024122,46,274,578,5648
1644164117.001763,-0.012939,0.01062,-0.99292,0.098718,0.478168,-0.207328,48,276,576,5600
1644164117.057476,-0.013,0.008667,-0.992004,0.159786,0.386565,-0.069924,57,282,575,5536
1644164117.09853,-0.009338,0.006836,-0.992493,0.08345,0.462901,-0.176794,47,273,575,5584
1644164117.146909,-0.011414,0.009338,-0.990723,0.159786,0.371298,-0.115725,45,273,570,5552
1644164117.19529,-0.012451,0.009033,-0.993286,0.08345,0.523969,-0.130992,59,277,579,5552
1644164117.24369,-0.009888,0.011169,-0.990356,0.175053,0.294962,-0.085191,48,271,583,5584
1644164117.292078,-0.015076,0.008972,-0.990906,0.190321,0.478168,-0.085191,57,273,572,5648
1644164117.340689,-0.01062,0.009521,-0.993164,0.129252,0.294962,-0.069924,39,269,587,5552
1644164117.391168,-0.011597,0.003845,-0.992126,0.236122,0.585038,-0.283664,52,277,575,5584
1644164117.44156,-0.010254,0.009644,-0.991516,0.251389,0.371298,-0.069924,53,274,573,5600
1644164117.486459,-0.011658,0.008057,-0.99054,0.266656,0.417099,-0.085191,41,269,576,5648
1644164117.582429,-0.010681,0.00946,-0.991943,0.236122,0.417099,-0.085191,58,276,583,5536
1644164117.630796,-0.010803,0.007385,-0.992615,0.190321,0.447634,-0.192061,51,279,569,5600
1644164117.67919,-0.010254,0.008911,-0.989563,0.266656,0.432366,-0.024122,52,273,582,5584
1644164117.727588,-0.01355,0.007385,-0.989563,0.113985,0.447634,-0.024122,51,264,578,5600
1644164117.775974,-0.012207,0.00885,-0.992188,0.144519,0.325496,-0.130992,52,277,575,5648
1644164117.824417,-0.009949,0.011597,-0.988525,0.251389,0.371298,-0.100458,47,273,575,5584
1644164117.872816,-0.00946,0.007935,-0.992981,0.251389,0.417099,-0.14626,52,285,582,5600
1644164117.921191,-0.012634,0.008667,-0.990356,0.281924,0.279695,-0.161527,61,273,577,5584
1644164117.969582,-0.010254,0.010193,-0.994751,0.35826,0.279695,-0.115725,43,269,578,5648
1644164118.017977,-0.011536,0.01123,-0.992249,0.159786,0.386565,-0.008855,43,269,580,5536
1644164118.075573,-0.00946,0.013245,-0.990479,0.266656,0.478168,-0.085191,45,275,582,5584
1644164118.114731,-0.006958,0.005798,-0.993347,0.159786,0.371298,-0.130992,53,276,578,5600
1644164118.163121,-0.008667,0.00824,-0.994385,0.236122,0.493435,-0.054656,45,273,575,5552
1644164118.211494,-0.010498,0.009399,-0.992981,0.297191,0.371298,-0.176794,55,269,578,5600
1644164118.259871,-0.010132,0.008789,-0.991211,0.35826,0.371298,-0.14626,51,271,578,5648
1644164118.308264,-0.009094,0.00946,-0.990234,0.266656,0.417099,-0.14626,49,273,582,5584
1644164118.358136,-0.011719,0.007751,-0.992859,0.236122,0.523969,-0.298931,45,277,577,5648
1644164118.408415,-0.011475,0.009033,-0.990601,0.205588,0.478168,-0.115725,49,275,582,5488
1644164118.458554,-0.009277,0.008301,-0.98999,0.419328,0.447634,-0.237863,54,280,579,5536
1644164118.550246,-0.010498,0.01178,-0.993713,0.037649,0.371298,-0.25313,49,277,579,5584
1644164118.598605,-0.010132,0.007996,-0.992676,0.312458,0.447634,-0.161527,52,270,577,5536
1644164118.646991,-0.009155,0.01001,-0.990723,0.281924,0.340763,-0.054656,48,276,566,5584
1644164118.695392,-0.012634,0.008667,-0.989075,0.129252,0.432366,-0.36,55,271,571,5584
1644164118.74378,-0.009766,0.009277,-0.990967,0.129252,0.386565,-0.069924,47,290,570,5536
1644164118.792445,-0.010315,0.008484,-0.992065,0.007115,0.340763,-0.039389,51,269,578,5584
1644164118.840608,-0.009338,0.011108,-0.992615,0.190321,0.432366,-0.024122,52,268,568,5632
1644164118.889006,-0.01062,0.009277,-0.991333,0.159786,0.523969,-0.054656,47,273,589,5536
1644164118.937352,-0.01001,0.009705,-0.991455,0.205588,0.371298,0.021679,49,270,570,5600
1644164118.985773,-0.013062,0.012085,-0.991943,0.159786,0.493435,-0.283664,51,264,587,5584
1644164119.044308,-0.011047,0.011902,-0.990601,0.159786,0.432366,-0.008855,45,270,582,5600
1644164119.082555,-0.012634,0.011902,-0.99231,0.297191,0.539237,-0.054656,48,271,587,5584
1644164119.130913,-0.009155,0.009094,-0.99353,0.419328,0.447634,-0.207328,53,264,571,5584
1644164119.179301,-0.007446,0.011658,-0.992981,0.159786,0.447634,-0.237863,52,265,575,5584
1644164119.227686,-0.011963,0.007385,-0.99231,0.281924,0.493435,-0.192061,54,270,575,5552
1644164119.276056,-0.010132,0.012024,-0.989014,0.113985,0.294962,-0.268397,45,265,575,5664
1644164119.324475,-0.010437,0.00769,-0.992859,0.144519,0.508702,-0.161527,59,277,568,5536
1644164119.372874,-0.012268,0.010071,-0.993286,0.190321,0.310229,-0.207328,66,275,572,5536
1644164119.421253,-0.008301,0.008118,-0.991333,0.281924,0.386565,-0.192061,53,266,569,5600
1644164119.469944,-0.010559,0.007996,-0.991699,0.190321,0.462901,-0.298931,40,263,572,5536
1644164119.520449,-0.006592,0.010803,-0.992554,0.297191,0.371298,-0.069924,52,275,591,5520
1644164119.570701,-0.009399,0.009033,-0.99115,0.312458,0.432366,-0.222595,48,269,578,5648
1644164119.616011,-0.009766,0.009094,-0.991699,0.35826,0.447634,-0.14626,48,271,564,5584
1644164119.711587,-0.010193,0.010437,-0.989319,0.144519,0.462901,-0.130992,48,279,573,5584
1644164119.759967,-0.010132,0.008606,-0.993164,0.098718,0.340763,-0.085191,46,274,578,5552
1644164119.808334,-0.012207,0.009521,-0.992126,0.312458,0.447634,-0.024122,48,276,571,5600
1644164119.856799,-0.010681,0.009766,-0.991943,0.35826,0.294962,-0.100458,40,270,570,5632
1644164119.90522,-0.012146,0.010498,-0.993103,0.297191,0.432366,-0.100458,53,279,583,5648
1644164119.95358,-0.009705,0.007568,-0.992371,0.205588,0.493435,0.006412,45,275,572,5488
1644164120.00193,-0.012329,0.008911,-0.993103,0.388794,0.462901,-0.161527,41,271,576,5648
1644164120.054819,-0.011658,0.009033,-0.992126,0.175053,0.24916,-0.024122,51,271,571,5552
1644164120.09876,-0.011841,0.008362,-0.99353,0.266656,0.386565,-0.130992,47,270,572,5584
1644164120.147085,-0.009033,0.01001,-0.989685,0.190321,0.508702,-0.115725,54,273,584,5600
1644164120.19547,-0.012146,0.00592,-0.993591,0.144519,0.386565,-0.039389,54,273,563,5488
1644164120.243858,-0.010986,0.007629,-0.993164,0.129252,0.478168,0.021679,51,266,571,5600
1644164120.29229,-0.007812,0.010376,-0.993408,0.159786,0.447634,-0.054656,41,279,569,5584
1644164120.340664,-0.009521,0.00769,-0.991272,0.159786,0.294962,-0.14626,46,281,573,5584
1644164120.389068,-0.012268,0.009155,-0.992676,0.220855,0.340763,-0.085191,48,274,580,5552
1644164120.437439,-0.01239,0.008484,-0.992859,0.129252,0.462901,-0.100458,48,262,573,5600
1644164120.485822,-0.012329,0.010071,-0.992981,0.251389,0.401832,-0.222595,57,263,568,5584
1644164120.534225,-0.009766,0.012146,-0.990356,0.220855,0.432366,-0.14626,54,273,575,5632
1644164120.582636,-0.011658,0.007446,-0.992737,0.144519,0.508702,0.006412,46,269,585,5584
1644164120.63246,-0.009827,0.010559,-0.99231,0.236122,0.417099,-0.115725,51,266,580,5584
1644164120.682755,-0.010254,0.011841,-0.99353,0.159786,0.493435,-0.115725,59,268,584,5552
1644164120.72795,-0.008728,0.009705,-0.991516,0.205588,0.493435,-0.069924,49,270,563,5584
1644164120.825106,-0.009521,0.006714,-0.993469,0.220855,0.539237,-0.039389,51,271,569,5600
1644164120.873029,-0.01123,0.009155,-0.992737,0.251389,0.600305,-0.085191,54,275,575,5600
1644164120.921367,-0.010132,0.009827,-0.992004,0.205588,0.478168,-0.222595,58,276,569,5552
1644164120.969768,-0.012329,0.010193,-0.990417,0.236122,0.554504,-0.100458,49,270,577,5552
1644164121.018162,-0.009644,0.011169,-0.992126,0.190321,0.432366,0.006412,53,274,578,5584
1644164121.066669,-0.012512,0.006836,-0.992493,0.236122,0.417099,-0.085191,49,265,577,5536
1644164121.114932,-0.01062,0.007996,-0.988953,0.098718,0.523969,-0.085191,57,265,579,5552
1644164121.163313,-0.010193,0.010132,-0.993225,0.419328,0.447634,-0.069924,48,264,573,5648
1644164121.211691,-0.00769,0.01062,-0.992371,0.327725,0.523969,-0.008855,57,265,582,5584
1644164121.260082,-0.013611,0.012573,-0.991333,0.251389,0.386565,0.067481,57,280,575,5536
1644164121.308473,-0.011536,0.007385,-0.993225,0.144519,0.401832,0.021679,57,270,579,5584
1644164121.356862,-0.008545,0.00708,-0.991211,0.297191,0.279695,-0.069924,47,273,579,5536
1644164121.405293,-0.007996,0.00946,-0.99292,0.251389,0.356031,0.021679,47,282,575,5552
1644164121.453638,-0.012817,0.007202,-0.992432,0.08345,0.325496,-0.100458,47,280,577,5488
1644164121.502036,-0.011047,0.008545,-0.992615,0.281924,0.478168,-0.115725,55,266,576,5600
1644164121.550424,-0.011353,0.010315,-0.992859,0.129252,0.386565,-0.115725,59,277,577,5552
1644164121.59881,-0.011719,0.008362,-0.990234,0.190321,0.356031,-0.054656,45,277,582,5584
1644164121.64718,-0.008606,0.006958,-0.990112,0.266656,0.401832,-0.115725,55,262,583,5584
1644164121.695584,-0.010376,0.010071,-0.992493,0.281924,0.417099,-0.161527,54,270,575,5664
1644164121.74434,-0.00824,0.008484,-0.990662,0.297191,0.386565,-0.100458,45,273,584,5648
1644164121.794882,-0.010559,0.009155,-0.992188,0.205588,0.401832,-0.085191,49,270,582,5552
1644164121.845299,-0.011719,0.012146,-0.993774,0.251389,0.508702,-0.085191,47,270,572,5600
1644164121.890489,-0.012207,0.012817,-0.993347,0.052916,0.371298,-0.100458,51,271,580,5536
1644164121.985965,-0.010498,0.006714,-0.993408,0.205588,0.233893,-0.054656,53,283,573,5648
1644164122.044044,-0.007751,0.006836,-0.992065,0.190321,0.447634,-0.054656,57,277,575,5536
1644164122.084158,-0.009033,0.009583,-0.993774,0.236122,0.462901,-0.100458,57,273,577,5600
1644164122.131144,-0.009216,0.009644,-0.991882,0.419328,0.386565,-0.115725,61,275,575,5584
1644164122.179507,-0.010864,0.009644,-0.993713,0.266656,0.447634,-0.130992,59,270,584,5632
1644164122.227867,-0.009766,0.008972,-0.990051,0.404061,0.371298,-0.14626,48,279,573,5584
1644164122.276257,-0.011047,0.009216,-0.991638,0.266656,0.401832,-0.161527,59,270,572,5584
1644164122.324724,-0.012878,0.008545,-0.994751,0.312458,0.462901,-0.14626,52,280,570,5552
1644164122.373072,-0.012024,0.01001,-0.993713,0.144519,0.585038,-0.161527,52,275,575,5536
1644164122.421442,-0.012268,0.009521,-0.990723,0.144519,0.508702,-0.130992,55,286,576,5584
1644164122.469832,-0.010742,0.008545,-0.991028,0.129252,0.356031,-0.176794,59,275,577,5632
1644164122.518201,-0.009277,0.00592,-0.992188,0.449863,0.447634,-0.14626,54,275,582,5584
1644164122.566618,-0.011597,0.007568,-0.994873,0.037649,0.447634,-0.054656,51,283,571,5584
1644164122.615047,-0.008789,0.011292,-0.991943,0.220855,0.478168,-0.115725,51,276,576,5584
1644164122.663411,-0.009277,0.008301,-0.993835,0.266656,0.340763,-0.14626,41,281,585,5536
1644164122.711829,-0.012146,0.01001,-0.992493,0.266656,0.447634,-0.069924,55,266,580,5584
1644164122.7623,-0.010925,0.007446,-0.989319,0.190321,0.356031,-0.008855,48,283,573,5648
1644164122.812451,-0.014282,0.01123,-0.994568,0.266656,0.523969,-0.039389,54,270,572,5600
1644164122.85844,-0.010376,0.010071,-0.993774,0.129252,0.493435,-0.100458,38,273,575,5648
1644164122.953799,-0.010071,0.008545,-0.993469,0.175053,0.417099,-0.176794,49,275,572,5584
1644164123.002409,-0.008728,0.006042,-0.992554,0.068183,0.462901,0.067481,47,268,586,5584
1644164123.055344,-0.010559,0.006226,-0.993469,0.190321,0.371298,-0.054656,52,268,579,5584
1644164123.098925,-0.00946,0.009155,-0.991455,0.236122,0.401832,-0.14626,45,280,568,5584
1644164123.147308,-0.011108,0.010864,-0.993591,0.175053,0.539237,-0.14626,53,271,578,5552
1644164123.195748,-0.009155,0.009705,-0.992981,0.068183,0.554504,-0.039389,42,268,579,5584
1644164123.244134,-0.00946,0.007568,-0.990234,0.129252,0.340763,-0.115725,40,273,575,5584
1644164123.292495,-0.010254,0.011169,-0.989746,0.236122,0.386565,-0.069924,52,268,568,5648
1644164123.340901,-0.013184,0.008911,-0.993225,0.236122,0.462901,-0.069924,47,270,582,5584
1644164123.389287,-0.010193,0.009827,-0.991943,0.220855,0.447634,-0.207328,45,273,572,5584
1644164123.437687,-0.010925,0.01062,-0.990723,0.068183,0.462901,-0.115725,59,273,575,5536
1644164123.486075,-0.01062,0.008179,-0.992615,0.281924,0.264427,-0.115725,48,271,566,5600
1644164123.534472,-0.011841,0.009521,-0.987244,0.266656,0.417099,-0.024122,53,276,576,5584
1644164123.582891,-0.011475,0.010498,-0.990723,0.266656,0.462901,-0.085191,55,274,583,5552
1644164123.631236,-0.007385,0.00885,-0.991455,0.297191,0.356031,-0.130992,59,268,577,5648
1644164123.67963,-0.01123,0.009033,-0.994324,0.098718,0.294962,-0.039389,48,271,580,5600
1644164123.72803,-0.009094,0.009521,-0.991882,0.281924,0.356031,-0.207328,51,274,587,5600
1644164123.776412,-0.012573,0.011108,-0.99231,0.251389,0.523969,0.006412,53,276,576,5584
1644164123.824905,-0.010315,0.011963,-0.990662,0.266656,0.478168,-0.024122,43,279,571,5584
1644164123.875362,-0.01001,0.008484,-0.990662,0.236122,0.356031,-0.100458,45,277,577,5584
1644164123.926027,-0.011902,0.011108,-0.989563,0.144519,0.386565,-0.161527,48,279,569,5664
1644164123.970173,-0.007812,0.009277,-0.992371,0.144519,0.24916,-0.085191,59,275,577,5584
1644164124.069219,-0.010864,0.009216,-0.993347,0.327725,0.417099,-0.329466,60,269,585,5648
1644164124.115347,-0.008911,0.00946,-0.993164,0.251389,0.417099,0.021679,47,277,570,5536
1644164124.163498,-0.010559,0.010498,-0.992554,0.312458,0.417099,-0.100458,60,276,571,5584
1644164124.211885,-0.011597,0.00824,-0.993469,0.113985,0.401832,-0.130992,52,275,570,5648
1644164124.260262,-0.010864,0.009094,-0.993591,0.251389,0.401832,-0.100458,47,275,579,5584
1644164124.30866,-0.010315,0.007812,-0.994751,0.129252,0.417099,-0.039389,58,274,578,5520
1644164124.357061,-0.009521,0.008606,-0.992554,0.205588,0.417099,-0.207328,53,276,578,5584
1644164124.405455,-0.009583,0.00824,-0.993225,0.190321,0.325496,-0.085191,58,276,573,5536
1644164124.453856,-0.011414,0.010864,-0.99115,0.297191,0.371298,-0.008855,48,274,576,5648
1644164124.502248,-0.014038,0.008484,-0.993347,0.281924,0.462901,-0.054656,45,265,575,5584
1644164124.550625,-0.011353,0.007568,-0.993408,0.297191,0.340763,-0.130992,59,275,582,5520
1644164124.599029,-0.012146,0.01239,-0.991455,0.281924,0.340763,-0.192061,53,264,571,5664
1644164124.647405,-0.014343,0.007629,-0.992249,0.312458,0.401832,-0.176794,58,279,578,5584
1644164124.695799,-0.00824,0.007385,-0.991516,0.281924,0.417099,0.006412,45,277,582,5600
1644164124.744183,-0.010681,0.011536,-0.991455,0.297191,0.386565,-0.069924,48,264,578,5632
1644164124.79263,-0.01001,0.009155,-0.99054,0.388794,0.417099,-0.008855,54,280,584,5552
1644164124.841013,-0.008972,0.011108,-0.990967,0.220855,0.432366,-0.100458,53,271,583,5600
1644164124.889501,-0.011963,0.010864,-0.99292,0.205588,0.432366,-0.130992,49,273,577,5584
1644164124.939693,-0.011353,0.009583,-0.991577,0.190321,0.386565,-0.039389,52,270,572,5632
1644164124.990109,-0.009277,0.008484,-0.992798,0.175053,0.493435,-0.421069,49,265,575,5600
1644164125.056842,-0.01001,0.009705,-0.99115,0.144519,0.294962,-0.283664,48,276,580,5536
1644164125.13129,-0.009216,0.009705,-0.995667,0.251389,0.371298,-0.100458,46,271,573,5600
1644164125.17969,-0.010315,0.00946,-0.99231,0.159786,0.478168,-0.069924,45,273,582,5552
1644164125.228079,-0.009888,0.008301,-0.990906,0.205588,0.508702,-0.039389,46,274,580,5648
1644164125.276449,-0.011597,0.006775,-0.991699,0.144519,0.478168,-0.207328,52,282,586,5584
1644164125.324863,-0.007507,0.007874,-0.993347,0.220855,0.356031,0.12855,49,268,582,5600
1644164125.373271,-0.009033,0.006042,-0.993958,0.281924,0.279695,-0.192061,52,263,575,5584
1644164125.421653,-0.007385,0.007507,-0.992859,0.35826,0.493435,-0.130992,54,273,575,5584
1644164125.470041,-0.012024,0.006592,-0.993652,0.266656,0.493435,0.006412,55,266,576,5584
1644164125.518437,-0.010864,0.008118,-0.993103,0.220855,0.478168,-0.161527,51,279,569,5632
1644164125.566821,-0.009766,0.010742,-0.992737,0.205588,0.493435,-0.130992,43,269,578,5552
1644164125.615297,-0.011902,0.010986,-0.991638,0.373527,0.356031,-0.039389,47,270,582,5600
1644164125.66362,-0.009155,0.009705,-0.99353,0.113985,0.432366,-0.085191,46,279,578,5584
1644164125.712,-0.010071,0.010254,-0.992493,0.159786,0.417099,-0.161527,54,273,575,5552
1644164125.760356,-0.010071,0.011353,-0.99292,0.266656,0.310229,-0.024122,51,276,578,5536
1644164125.808806,-0.007507,0.011169,-0.991333,0.190321,0.462901,0.021679,55,269,583,5536
1644164125.857218,-0.011169,0.010742,-0.99176,0.312458,0.294962,-0.069924,51,276,583,5584
1644164125.905598,-0.010681,0.006897,-0.990112,0.113985,0.462901,-0.069924,43,276,571,5552
1644164125.953995,-0.01001,0.008972,-0.992065,0.190321,0.371298,-0.115725,47,273,584,5632
1644164126.002367,-0.009277,0.010193,-0.990356,0.220855,0.478168,-0.192061,54,277,584,5584
1644164126.073189,-0.008606,0.006958,-0.989197,0.068183,0.508702,-0.14626,58,271,571,5632
1644164126.100247,-0.00946,0.011047,-0.99231,0.404061,0.462901,-0.008855,51,271,576,5584
1644164126.19587,-0.008118,0.00885,-0.990906,0.159786,0.523969,-0.130992,55,276,571,5584
1644164126.244275,-0.00769,0.008728,-0.992065,0.205588,0.417099,-0.008855,53,274,576,5584
1644164126.292669,-0.011047,0.008972,-0.990845,0.098718,0.447634,-0.039389,45,273,572,5536
1644164126.341056,-0.007507,0.007812,-0.989746,0.342992,0.401832,-0.237863,64,265,570,5600
1644164126.389448,-0.01001,0.008972,-0.993225,0.037649,0.24916,-0.130992,49,268,577,5648
1644164126.43784,-0.010071,0.009888,-0.994446,0.159786,0.24916,-0.115725,43,266,569,5552
1644164126.486224,-0.009583,0.009766,-0.992981,0.312458,0.447634,-0.130992,54,280,572,5552
1644164126.534635,-0.006592,0.009033,-0.992065,0.236122,0.371298,-0.024122,45,270,582,5600
1644164126.583038,-0.010437,0.010193,-0.992676,0.342992,0.585038,-0.25313,55,281,569,5600
1644164126.631425,-0.009888,0.011536,-0.991455,0.205588,0.462901,0.143817,49,268,582,5584
1644164126.679794,-0.010803,0.008667,-0.992615,0.388794,0.478168,-0.329466,48,276,578,5552
1644164126.728179,-0.010864,0.010742,-0.991943,0.342992,0.539237,-0.192061,45,275,554,5552
1644164126.776571,-0.009521,0.009094,-0.993164,0.113985,0.447634,-0.192061,53,269,569,5584
1644164126.825046,-0.010071,0.009766,-0.991516,0.236122,0.493435,-0.161527,42,273,577,5584
1644164126.8734,-0.010803,0.010803,-0.991577,0.205588,0.462901,-0.161527,52,275,577,5584
1644164126.921758,-0.010254,0.008484,-0.992371,0.312458,0.417099,-0.100458,51,269,578,5632
1644164126.970183,-0.010986,0.011353,-0.991333,0.113985,0.356031,-0.130992,57,277,575,5536
1644164127.018573,-0.012024,0.01001,-0.990479,0.037649,0.462901,-0.039389,52,280,575,5584
1644164127.071244,-0.008606,0.00885,-0.992432,0.266656,0.478168,-0.069924,48,271,580,5584
1644164127.116861,-0.01062,0.010742,-0.993347,0.175053,0.447634,-0.130992,55,276,571,5600
1644164127.165562,-0.007141,0.008057,-0.992554,0.190321,0.432366,-0.039389,49,277,582,5584
1644164127.215861,-0.010071,0.008423,-0.988342,0.159786,0.462901,-0.14626,46,271,573,5552
1644164127.260873,-0.009888,0.01416,-0.99231,0.35826,0.401832,-0.222595,41,274,580,5648
1644164127.357241,-0.012207,0.009888,-0.99176,0.251389,0.356031,-0.054656,46,271,571,5536
1644164127.405642,-0.010254,0.008667,-0.989319,0.236122,0.356031,0.021679,52,273,575,5552
1644164127.454053,-0.010132,0.008301,-0.992615,0.388794,0.447634,-0.192061,59,275,579,5584
1644164127.50245,-0.012207,0.009644,-0.994751,0.205588,0.554504,-0.130992,51,266,573,5600
1644164127.5508,-0.012329,0.009521,-0.992554,0.327725,0.447634,-0.192061,64,273,575,5632
1644164127.599206,-0.012573,0.010986,-0.989197,0.190321,0.417099,0.067481,43,269,576,5552
1644164127.647591,-0.010742,0.008301,-0.993896,0.175053,0.340763,-0.085191,39,283,573,5648
1644164127.695986,-0.014954,0.007874,-0.992798,0.297191,0.371298,-0.207328,49,275,570,5648
1644164127.744388,-0.011047,0.010498,-0.992432,0.327725,0.523969,-0.161527,53,279,580,5600
1644164127.792779,-0.011292,0.006409,-0.991699,0.266656,0.508702,-0.161527,46,276,566,5584
1644164127.841201,-0.010559,0.010803,-0.991333,0.312458,0.371298,-0.008855,61,280,582,5600
1644164127.8896,-0.011719,0.009399,-0.993286,0.220855,0.478168,-0.069924,43,271,580,5584
1644164127.937986,-0.010315,0.00885,-0.99231,0.251389,0.294962,-0.161527,52,270,582,5536
1644164127.986373,-0.012329,0.00885,-0.993103,0.236122,0.24916,-0.14626,52,263,577,5536
1644164128.045659,-0.010925,0.008362,-0.990601,0.098718,0.615573,-0.176794,45,268,575,5536
1644164128.084894,-0.007751,0.00824,-0.992859,0.35826,0.478168,-0.161527,52,273,584,5584
1644164128.131507,-0.011353,0.010254,-0.991821,0.144519,0.340763,-0.085191,45,277,577,5600
1644164128.17986,-0.008972,0.005249,-0.990784,0.266656,0.386565,-0.039389,57,275,577,5552
1644164128.228305,-0.007874,0.011292,-0.991333,0.312458,0.371298,-0.161527,53,274,573,5536
1644164128.278188,-0.010925,0.012024,-0.991394,0.129252,0.447634,0.006412,52,263,582,5584
1644164128.328243,-0.012329,0.009338,-0.99115,0.342992,0.325496,-0.085191,54,265,582,5584
1644164128.378366,-0.011108,0.010315,-0.992065,0.159786,0.432366,-0.14626,51,279,578,5552
1644164128.470258,-0.010742,0.009094,-0.991394,0.205588,0.401832,-0.237863,52,273,572,5584
1644164128.518629,-0.006958,0.010071,-0.98761,0.236122,0.432366,-0.085191,47,287,565,5600
1644164128.566991,-0.007324,0.009583,-0.992432,0.113985,0.508702,-0.115725,40,270,579,5584
1644164128.615402,-0.009766,0.010986,-0.989807,0.159786,0.447634,-0.069924,54,273,568,5600
1644164128.663793,-0.008789,0.010803,-0.99115,0.236122,0.371298,-0.14626,47,268,572,5536
1644164128.7122,-0.007202,0.011719,-0.989746,0.297191,0.340763,0.036947,45,270,577,5536
1644164128.760572,-0.007019,0.009766,-0.991516,0.419328,0.371298,-0.054656,52,280,572,5648
1644164128.808962,-0.009399,0.009033,-0.988586,0.404061,0.294962,-0.130992,42,275,572,5584
1644164128.857402,-0.011475,0.009094,-0.992432,0.327725,0.356031,-0.039389,40,275,575,5648
1644164128.905794,-0.011414,0.00946,-0.990662,0.388794,0.401832,-0.176794,48,266,580,5600
1644164128.954195,-0.012207,0.009521,-0.991943,0.159786,0.447634,-0.069924,54,270,572,5648
1644164129.002589,-0.009094,0.008057,-0.99176,0.373527,0.340763,-0.130992,46,274,576,5536
1644164129.06021,-0.009949,0.008911,-0.99231,0.312458,0.508702,-0.237863,61,265,575,5520
1644164129.099367,-0.011475,0.010254,-0.991333,0.144519,0.386565,0.006412,43,276,585,5552
1644164129.147697,-0.012451,0.008362,-0.990723,0.312458,0.462901,-0.283664,59,277,577,5600
1644164129.196085,-0.013489,0.00769,-0.992004,0.175053,0.310229,-0.085191,58,266,576,5584
1644164129.244472,-0.01123,0.007996,-0.992188,0.175053,0.371298,-0.008855,48,276,569,5552
1644164129.293065,-0.009888,0.007385,-0.991455,0.281924,0.478168,-0.069924,49,270,563,5584
1644164129.341503,-0.012207,0.007874,-0.99054,0.205588,0.401832,-0.039389,42,277,577,5584
1644164129.391869,-0.011353,0.007507,-0.99408,0.312458,0.401832,-0.039389,58,279,587,5584
1644164129.442271,-0.010864,0.010193,-0.991577,0.251389,0.325496,-0.100458,54,265,575,5536
1644164129.487214,-0.010681,0.009827,-0.991821,0.251389,0.432366,-0.054656,49,273,572,5600
1644164129.583226,-0.009644,0.009644,-0.992004,0.052916,0.401832,-0.222595,43,276,583,5600
1644164129.631605,-0.008911,0.009949,-0.993469,0.251389,0.447634,-0.161527,47,265,577,5648
1644164129.679964,-0.011108,0.01178,-0.994019,0.266656,0.401832,-0.069924,54,273,577,5536
1644164129.72838,-0.011536,0.007507,-0.993652,0.297191,0.523969,0.052214,57,265,575,5632
1644164129.776768,-0.009705,0.008972,-0.990723,0.220855,0.264427,-0.176794,47,282,570,5584
1644164129.825202,-0.009583,0.009949,-0.993774,0.281924,0.462901,-0.085191,52,270,579,5648
1644164129.873594,-0.009277,0.008911,-0.98938,0.220855,0.554504,-0.130992,49,282,570,5664
1644164129.921989,-0.008179,0.010925,-0.989197,0.266656,0.401832,-0.130992,46,271,578,5648
1644164129.970376,-0.00885,0.010559,-0.990723,0.190321,0.462901,-0.085191,51,279,583,5632
1644164130.018774,-0.011841,0.012756,-0.991455,0.220855,0.279695,-0.024122,41,283,564,5552
1644164130.073563,-0.011536,0.009216,-0.99115,0.327725,0.478168,-0.024122,47,273,572,5536
1644164130.115555,-0.009155,0.011047,-0.99231,0.373527,0.462901,-0.069924,51,276,571,5600
1644164130.163895,-0.008789,0.009521,-0.992432,0.220855,0.447634,-0.085191,46,276,571,5584
1644164130.212296,-0.012634,0.00647,-0.991882,0.297191,0.218626,-0.085191,57,275,579,5536
1644164130.260673,-0.010315,0.010864,-0.990784,0.113985,0.569771,-0.039389,55,276,569,5536
1644164130.309069,-0.010986,0.009338,-0.991272,0.205588,0.447634,-0.115725,49,275,584,5600
1644164130.35764,-0.012329,0.010681,-0.992859,0.312458,0.264427,-0.039389,55,276,564,5536
1644164130.454352,-0.012329,0.011963,-0.991638,0.281924,0.462901,-0.069924,54,270,570,5664
1644164130.502743,-0.008972,0.00824,-0.990417,0.159786,0.462901,-0.268397,59,277,577,5552
1644164130.551143,-0.01355,0.006958,-0.992249,0.205588,0.264427,-0.192061,54,275,584,5664
1644164130.599378,-0.009521,0.009033,-0.99292,0.327725,0.478168,0.006412,48,281,573,5600
1644164130.647793,-0.010254,0.008667,-0.991638,0.144519,0.340763,0.036947,41,269,571,5584
1644164130.696158,-0.011841,0.009338,-0.99292,0.236122,0.264427,-0.130992,49,263,577,5536
1644164130.744627,-0.009277,0.010132,-0.992798,0.175053,0.386565,-0.115725,53,276,569,5648
1644164130.792993,-0.010925,0.010437,-0.991699,0.175053,0.310229,-0.085191,43,283,576,5536
1644164130.841367,-0.013489,0.006287,-0.993225,0.144519,0.478168,-0.054656,54,275,579,5600
1644164130.889797,-0.008911,0.008484,-0.987854,0.220855,0.447634,-0.14626,38,275,568,5536
1644164130.938192,-0.008911,0.010193,-0.991943,0.113985,0.401832,-0.268397,42,273,575,5584
1644164130.986579,-0.008362,0.009888,-0.992554,0.113985,0.401832,-0.115725,47,273,579,5664
1644164131.044429,-0.008911,0.01123,-0.992004,0.35826,0.264427,-0.085191,52,275,568,5584
1644164131.0865,-0.009277,0.008301,-0.994629,0.281924,0.417099,-0.268397,53,279,569,5584
1644164131.131743,-0.009949,0.010498,-0.994507,0.236122,0.462901,-0.100458,42,275,572,5648
1644164131.180115,-0.011902,0.011414,-0.990234,0.281924,0.493435,-0.039389,51,283,576,5632
1644164131.228572,-0.009155,0.008118,-0.993164,0.434595,0.508702,0.067481,51,262,566,5552
1644164131.277241,-0.010498,0.011047,-0.990967,0.388794,0.447634,-0.054656,51,269,578,5632
1644164131.327367,-0.008972,0.009644,-0.992676,0.037649,0.417099,-0.115725,46,266,576,5632
1644164131.378524,-0.009277,0.006958,-0.993958,0.266656,0.188092,-0.085191,40,275,570,5584
1644164131.422784,-0.010986,0.010132,-0.98999,0.312458,0.432366,-0.085191,48,276,571,5584
1644164131.518874,-0.009583,0.010681,-0.99231,0.281924,0.371298,0.036947,39,266,571,5536
1644164131.567247,-0.008484,0.009521,-0.992493,0.144519,0.401832,-0.115725,54,277,575,5552
1644164131.615629,-0.010376,0.009644,-0.993652,0.281924,0.401832,0.052214,46,276,578,5552
1644164131.664044,-0.012146,0.010681,-0.991455,0.113985,0.386565,-0.008855,55,271,571,5552
1644164131.712411,-0.011292,0.009338,-0.990601,0.205588,0.539237,-0.14626,47,277,570,5584
1644164131.760815,-0.009766,0.010498,-0.991516,0.205588,0.417099,-0.161527,48,271,573,5584
1644164131.809202,-0.008118,0.009277,-0.992249,0.175053,0.340763,-0.008855,42,275,577,5536
1644164131.857607,-0.012512,0.009277,-0.992065,0.129252,0.478168,0.006412,51,276,555,5600
1644164131.905994,-0.012024,0.007568,-0.992615,0.175053,0.478168,-0.115725,61,277,577,5632
1644164131.954396,-0.010193,0.009644,-0.993896,0.251389,0.386565,-0.344733,49,270,575,5552
1644164132.002789,-0.010193,0.007996,-0.990906,0.312458,0.417099,0.021679,47,280,577,5584
1644164132.056401,-0.011902,0.011536,-0.990662,0.144519,0.401832,-0.161527,57,277,577,5600
1644164132.099505,-0.008301,0.007935,-0.99353,0.297191,0.462901,-0.130992,46,274,571,5600
1644164132.147907,-0.007629,0.008423,-0.990417,0.175053,0.401832,-0.192061,46,281,576,5600
1644164132.196289,-0.010681,0.009216,-0.993591,0.129252,0.401832,-0.008855,53,274,576,5600
1644164132.244694,-0.007446,0.009094,-0.992126,0.281924,0.493435,-0.069924,51,276,573,5536
1644164132.293088,-0.011292,0.011108,-0.991272,0.129252,0.493435,0.006412,47,280,570,5584
1644164132.341469,-0.010376,0.007996,-0.990601,0.404061,0.462901,0.12855,51,279,576,5584
1644164132.389884,-0.010376,0.008179,-0.992126,0.251389,0.371298,-0.115725,59,277,582,5600
1644164132.438895,-0.010193,0.007629,-0.990173,0.373527,0.386565,-0.192061,54,270,565,5648
1644164132.489341,-0.00946,0.010803,-0.989624,0.220855,0.493435,-0.237863,55,286,590,5584
1644164132.539349,-0.011475,0.00885,-0.991821,0.297191,0.585038,-0.085191,52,273,577,5584
1644164132.584335,-0.012878,0.008728,-0.990967,0.342992,0.523969,-0.085191,54,280,575,5536
1644164132.680197,-0.007996,0.00708,-0.992004,0.297191,0.401832,-0.100458,49,277,575,5552
1644164132.728556,-0.011475,0.007751,-0.994568,0.175053,0.386565,-0.054656,48,266,569,5536
1644164132.776978,-0.012085,0.010498,-0.992188,0.220855,0.417099,-0.115725,48,279,580,5536
1644164132.825482,-0.010925,0.009277,-0.988098,0.297191,0.432366,-0.008855,38,282,572,5600
1644164132.873802,-0.010132,0.010254,-0.994019,0.251389,0.462901,-0.161527,43,274,564,5584
1644164132.9222,-0.009094,0.010986,-0.991577,0.098718,0.310229,-0.054656,51,274,580,5600
1644164132.970586,-0.009399,0.012695,-0.990662,0.159786,0.493435,-0.222595,46,271,569,5584
1644164133.018965,-0.008179,0.010986,-0.992249,0.129252,0.447634,0.036947,52,275,577,5648
1644164133.075337,-0.01355,0.011414,-0.99054,0.251389,0.386565,-0.024122,57,277,584,5648
1644164133.116099,-0.009888,0.01178,-0.993958,0.236122,0.356031,-0.130992,55,274,578,5600
1644164133.164098,-0.009094,0.009949,-0.989685,0.007115,0.417099,-0.161527,51,266,585,5552
1644164133.212501,-0.012024,0.008545,-0.993347,0.312458,0.600305,-0.085191,60,276,578,5584
1644164133.260879,-0.011292,0.007935,-0.993347,0.35826,0.264427,-0.054656,51,279,566,5536
1644164133.309898,-0.012024,0.007996,-0.992065,0.388794,0.523969,-0.008855,51,271,583,5648
1644164133.359267,-0.007996,0.007385,-0.99292,0.144519,0.340763,-0.115725,48,269,576,5648
1644164133.409493,-0.011353,0.009094,-0.991394,0.266656,0.478168,0.006412,54,268,572,5584
1644164133.459578,-0.007996,0.008972,-0.992615,0.205588,0.417099,-0.100458,47,280,582,5600
1644164133.551211,-0.009216,0.012085,-0.992676,0.327725,0.356031,-0.161527,59,277,572,5584
1644164133.5996,-0.010437,0.010315,-0.993225,0.236122,0.417099,-0.130992,39,276,571,5648
1644164133.647967,-0.010681,0.009521,-0.991089,0.449863,0.310229,-0.130992,55,274,573,5552
1644164133.696385,-0.011414,0.010437,-0.994202,0.327725,0.493435,-0.085191,55,279,569,5552
1644164133.744787,-0.008789,0.008118,-0.991394,0.190321,0.356031,-0.069924,58,276,580,5584
1644164133.793185,-0.012512,0.010132,-0.992798,0.419328,0.432366,-0.039389,55,279,580,5600
1644164133.84161,-0.008789,0.007324,-0.991455,0.251389,0.371298,-0.008855,48,274,566,5584
1644164133.890001,-0.008728,0.012085,-0.992065,0.327725,0.508702,-0.14626,54,268,575,5584
1644164133.938395,-0.009216,0.009766,-0.991272,0.312458,0.310229,-0.024122,54,280,568,5536
1644164133.986775,-0.008789,0.010986,-0.991821,0.342992,0.401832,-0.100458,53,271,564,5584
1644164134.047057,-0.008301,0.010864,-0.993774,0.297191,0.432366,0.036947,51,276,583,5648
1644164134.084849,-0.009277,0.00824,-0.989197,0.236122,0.417099,-0.085191,42,280,586,5664
1644164134.131915,-0.012024,0.008179,-0.99408,0.480397,0.340763,-0.054656,45,275,575,5488
1644164134.180264,-0.010315,0.01178,-0.99231,0.281924,0.493435,-0.115725,57,280,561,5584
1644164134.228686,-0.009521,0.007507,-0.992615,0.251389,0.340763,-0.100458,48,276,576,5632
1644164134.27704,-0.010986,0.007568,-0.992615,0.297191,0.447634,0.052214,45,277,586,5600
1644164134.325463,-0.008362,0.010376,-0.991577,0.205588,0.417099,-0.085191,49,280,572,5536
1644164134.373858,-0.009705,0.009155,-0.991943,0.312458,0.493435,-0.039389,47,275,568,5536
1644164134.422262,-0.010315,0.011841,-0.992371,0.266656,0.447634,0.006412,48,279,576,5536
1644164134.470911,-0.009277,0.011292,-0.993103,0.281924,0.417099,-0.115725,43,274,571,5584
1644164134.521313,-0.012024,0.011597,-0.994324,0.159786,0.493435,-0.054656,52,268,575,5520
1644164134.57144,-0.011841,0.01001,-0.994629,0.266656,0.447634,-0.069924,52,277,591,5648
1644164134.617027,-0.01123,0.008606,-0.992065,0.327725,0.417099,-0.130992,51,266,569,5600
1644164134.712589,-0.007996,0.008484,-0.990906,0.251389,0.432366,-0.085191,54,270,570,5600
1644164134.760967,-0.009521,0.011414,-0.990479,0.190321,0.340763,0.036947,43,274,571,5600
1644164134.809359,-0.01001,0.009766,-0.989868,0.373527,0.294962,-0.024122,51,262,571,5584
1644164134.857795,-0.010132,0.007874,-0.992188,0.312458,0.24916,-0.054656,53,266,564,5632
1644164134.906157,-0.00885,0.010376,-0.994385,0.205588,0.539237,-0.161527,42,273,570,5552
1644164134.954653,-0.008057,0.009155,-0.991821,0.327725,0.371298,0.021679,53,276,571,5552
1644164135.002951,-0.008484,0.009216,-0.990784,0.159786,0.478168,-0.161527,54,277,582,5648
1644164135.053258,-0.010071,0.006226,-0.991699,0.236122,0.447634,-0.161527,46,269,578,5648
1644164135.099758,-0.008362,0.008362,-0.991699,0.098718,0.356031,-0.115725,42,277,577,5584
1644164135.148101,-0.01062,0.008972,-0.992981,0.159786,0.401832,0.052214,53,276,571,5584
1644164135.196494,-0.010437,0.010254,-0.9953,0.220855,0.356031,0.021679,48,279,573,5600
1644164135.244879,-0.010864,0.010132,-0.987122,0.220855,0.417099,-0.14626,49,263,575,5600
1644164135.293257,-0.009766,0.00647,-0.992554,0.220855,0.356031,-0.192061,51,266,573,5536
1644164135.341661,-0.011414,0.010559,-0.991272,0.297191,0.447634,0.052214,54,282,570,5648
1644164135.390053,-0.010193,0.011169,-0.990417,0.159786,0.554504,-0.14626,51,279,580,5600
1644164135.438442,-0.007629,0.010864,-0.992615,0.281924,0.417099,-0.085191,57,273,565,5536
1644164135.486811,-0.007996,0.009033,-0.992859,0.236122,0.462901,-0.115725,53,279,573,5584
1644164135.535281,-0.008118,0.008179,-0.991882,0.144519,0.386565,-0.039389,52,270,579,5584
1644164135.583603,-0.006531,0.013367,-0.989563,0.327725,0.462901,-0.039389,46,283,583,5536
1644164135.632362,-0.009644,0.012085,-0.990051,0.312458,0.447634,0.052214,53,279,564,5584
1644164135.682906,-0.007935,0.009644,-0.992371,0.373527,0.371298,-0.054656,47,270,565,5600
1644164135.7331,-0.010254,0.008789,-0.989624,0.281924,0.508702,-0.130992,59,275,582,5600
1644164135.778032,-0.010864,0.009338,-0.992981,0.175053,0.432366,-0.069924,51,276,576,5648
1644164135.874,-0.009644,0.007629,-0.99231,0.159786,0.478168,-0.161527,53,274,576,5536
1644164135.922423,-0.009827,0.00885,-0.990356,0.266656,0.340763,0.098015,49,282,568,5552
1644164135.970767,-0.011658,0.009827,-0.991821,0.266656,0.417099,-0.222595,53,271,571,5552
1644164136.019156,-0.009277,0.007263,-0.990112,0.35826,0.401832,-0.192061,52,273,572,5552
1644164136.067705,-0.009827,0.010071,-0.992065,0.236122,0.371298,0.036947,42,280,575,5584
1644164136.115941,-0.010132,0.008911,-0.991943,0.236122,0.447634,-0.14626,51,271,569,5600
1644164136.164282,-0.008118,0.009155,-0.989624,0.297191,0.539237,0.006412,52,285,575,5600
1644164136.212673,-0.010559,0.009949,-0.990723,0.266656,0.371298,-0.085191,54,275,572,5600
1644164136.261082,-0.010864,0.009644,-0.990967,0.144519,0.264427,0.052214,46,266,580,5632
1644164136.309473,-0.007324,0.010864,-0.992126,0.327725,0.325496,-0.130992,51,279,578,5584
1644164136.357864,-0.008301,0.012512,-0.991882,0.144519,0.478168,-0.115725,52,268,572,5584
1644164136.406247,-0.009399,0.01239,-0.990051,0.190321,0.340763,-0.100458,53,269,573,5536
1644164136.45471,-0.012268,0.010803,-0.991211,0.205588,0.447634,-0.222595,59,280,572,5584
1644164136.503045,-0.009705,0.009216,-0.99054,0.129252,0.188092,0.021679,48,281,578,5584
1644164136.551413,-0.00946,0.010193,-0.990051,0.144519,0.462901,-0.100458,47,268,565,5600
1644164136.599805,-0.01062,0.011841,-0.992004,0.220855,0.462901,-0.100458,45,273,561,5552
1644164136.648198,-0.007507,0.01001,-0.990173,0.251389,0.447634,-0.14626,49,270,565,5584
1644164136.696591,-0.007446,0.013184,-0.989929,0.205588,0.325496,-0.130992,43,269,571,5472
1644164136.745023,-0.009583,0.009705,-0.987793,0.190321,0.523969,-0.130992,48,269,573,5536
1644164136.7935,-0.007996,0.011475,-0.992859,0.190321,0.493435,-0.039389,57,270,579,5584
1644164136.84529,-0.008545,0.010803,-0.990356,0.373527,0.386565,0.021679,54,280,577,5632
1644164136.894894,-0.010315,0.012024,-0.992188,0.159786,0.340763,-0.085191,52,275,572,5552
1644164136.93939,-0.011597,0.00946,-0.991821,0.297191,0.569771,-0.130992,46,276,569,5552
1644164137.04411,-0.008423,0.010742,-0.988953,0.495664,0.447634,-0.008855,43,279,578,5584
1644164137.084549,-0.012451,0.012512,-0.990906,0.190321,0.478168,-0.008855,48,274,569,5584
1644164137.132187,-0.010742,0.010193,-0.988892,0.190321,0.508702,-0.100458,54,277,570,5632
1644164137.180504,-0.011292,0.009399,-0.989868,0.251389,0.646107,-0.039389,53,274,576,5584
1644164137.228854,-0.011353,0.010864,-0.990356,0.205588,0.325496,-0.130992,52,275,577,5648
1644164137.277266,-0.009155,0.006409,-0.993958,0.297191,0.432366,-0.069924,47,268,572,5536
1644164137.325658,-0.010437,0.00885,-0.992432,0.419328,0.478168,-0.115725,45,275,577,5600
1644164137.374067,-0.008423,0.012024,-0.990845,0.297191,0.447634,-0.069924,49,268,575,5648
1644164137.422451,-0.010315,0.009644,-0.989746,0.220855,0.340763,-0.115725,42,270,570,5584
1644164137.470824,-0.009155,0.010742,-0.993408,0.312458,0.371298,-0.115725,48,279,571,5584
1644164137.519219,-0.010315,0.007019,-0.992249,0.144519,0.340763,-0.100458,54,273,579,5536
1644164137.567613,-0.009949,0.008728,-0.989807,0.220855,0.462901,-0.024122,48,274,576,5600
1644164137.616002,-0.008179,0.010803,-0.990356,0.342992,0.585038,-0.130992,62,274,580,5536
1644164137.664399,-0.01239,0.009338,-0.992676,0.220855,0.508702,-0.161527,55,274,578,5632
1644164137.713132,-0.010376,0.01062,-0.99176,0.007115,0.462901,-0.100458,46,274,580,5536
1644164137.762051,-0.007019,0.011108,-0.989502,0.175053,0.310229,-0.069924,51,279,578,5552
1644164137.81266,-0.007996,0.010437,-0.991089,0.236122,0.386565,-0.161527,49,275,568,5648
1644164137.858622,-0.008728,0.009216,-0.99054,0.068183,0.371298,-0.024122,49,282,570,5584
1644164137.954952,-0.009705,0.009827,-0.991211,0.205588,0.401832,-0.069924,54,275,570,5584
1644164138.003174,-0.009949,0.011963,-0.991028,0.266656,0.401832,-0.237863,48,276,576,5584
1644164138.054933,-0.010254,0.009644,-0.991211,0.327725,0.417099,-0.100458,51,281,569,5536
1644164138.099921,-0.009277,0.010681,-0.990784,0.113985,0.310229,-0.192061,52,282,577,5584
1644164138.148337,-0.009155,0.008301,-0.991333,0.312458,0.356031,-0.130992,47,277,572,5472
1644164138.19673,-0.012146,0.011658,-0.990295,0.08345,0.386565,-0.069924,46,266,578,5584
1644164138.245148,-0.005798,0.009766,-0.987366,0.159786,0.493435,-0.192061,62,269,576,5648
1644164138.2935,-0.013062,0.00824,-0.991089,0.190321,0.325496,-0.069924,48,274,571,5648
1644164138.341873,-0.009949,0.010376,-0.98938,0.08345,0.432366,-0.130992,52,268,570,5552
1644164138.390302,-0.008545,0.00769,-0.988953,0.190321,0.188092,-0.14626,53,279,569,5600
1644164138.438678,-0.011597,0.008362,-0.989807,0.312458,0.325496,-0.207328,48,276,573,5648
1644164138.48706,-0.00824,0.011047,-0.990662,0.236122,0.294962,0.021679,54,280,577,5584
1644164138.535466,-0.009033,0.008728,-0.991699,0.251389,0.386565,-0.039389,49,275,572,5600
1644164138.583863,-0.010376,0.011536,-0.990601,0.251389,0.401832,-0.161527,54,280,577,5536
1644164138.632261,-0.007263,0.009644,-0.990479,0.388794,0.447634,-0.008855,45,268,584,5552
1644164138.680604,-0.008667,0.010315,-0.988831,0.205588,0.447634,-0.100458,52,275,570,5600
1644164138.729016,-0.010803,0.011414,-0.990845,0.266656,0.340763,0.082748,42,275,561,5536
1644164138.777483,-0.008545,0.010864,-0.992188,0.08345,0.356031,-0.115725,49,270,577,5584
1644164138.826194,-0.010132,0.009399,-0.990234,0.220855,0.386565,-0.130992,46,274,569,5584
1644164138.877068,-0.006226,0.009216,-0.988831,0.190321,0.523969,-0.161527,47,280,575,5536
1644164138.926695,-0.012085,0.009277,-0.988525,0.281924,0.462901,0.006412,45,268,565,5536
1644164138.97099,-0.007751,0.011841,-0.990173,0.266656,0.523969,-0.085191,57,263,579,5600
1644164139.07074,-0.00946,0.006775,-0.99292,0.220855,0.493435,-0.100458,47,270,572,5584
1644164139.116079,-0.009521,0.010376,-0.989868,0.281924,0.462901,-0.192061,43,279,576,5600
1644164139.164502,-0.009521,0.008606,-0.993103,0.220855,0.356031,-0.176794,54,268,579,5600
1644164139.212908,-0.013,0.009033,-0.991699,0.373527,0.478168,-0.100458,52,273,563,5600
1644164139.261278,-0.00824,0.008423,-0.989624,0.388794,0.432366,-0.039389,58,281,576,5584
1644164139.309656,-0.00769,0.008728,-0.989746,0.266656,0.539237,-0.085191,45,265,572,5600
1644164139.358034,-0.008362,0.008728,-0.99054,0.297191,0.478168,-0.054656,48,279,576,5632
1644164139.406452,-0.010193,0.011536,-0.989075,0.327725,0.325496,-0.008855,52,277,577,5600
1644164139.454837,-0.01062,0.009583,-0.992432,0.266656,0.600305,-0.069924,55,264,573,5600
1644164139.503258,-0.00885,0.007874,-0.991211,0.251389,0.508702,-0.25313,57,285,568,5584
1644164139.551618,-0.009399,0.008728,-0.99115,0.251389,0.386565,0.067481,36,283,576,5600
1644164139.600016,-0.009827,0.008789,-0.989868,0.251389,0.356031,-0.161527,48,276,571,5648
1644164139.6484,-0.012573,0.008667,-0.98999,0.297191,0.447634,-0.130992,52,282,577,5536
1644164139.696795,-0.008606,0.011169,-0.992371,0.236122,0.310229,0.006412,52,280,584,5648
1644164139.745181,-0.010742,0.009399,-0.990112,0.175053,0.264427,-0.115725,45,260,572,5584
1644164139.793634,-0.010254,0.009888,-0.990295,0.190321,0.432366,-0.085191,54,265,575,5536
1644164139.842009,-0.01062,0.01001,-0.989136,0.266656,0.386565,-0.085191,53,274,587,5584
1644164139.891385,-0.007812,0.007202,-0.989624,0.312458,0.310229,-0.069924,42,273,572,5584
1644164139.941176,-0.009521,0.011108,-0.990051,0.251389,0.462901,-0.024122,61,275,565,5632
1644164139.991781,-0.011292,0.010498,-0.990967,0.052916,0.462901,-0.039389,48,274,566,5536
1644164140.057966,-0.009766,0.011902,-0.991821,0.220855,0.401832,-0.14626,49,270,586,5552
1644164140.132394,-0.009827,0.011536,-0.989746,0.281924,0.523969,-0.222595,47,263,582,5600
1644164140.180685,-0.009277,0.011841,-0.991272,0.220855,0.340763,-0.069924,42,277,577,5584
1644164140.22908,-0.009277,0.010925,-0.992432,0.220855,0.523969,-0.085191,54,277,570,5632
1644164140.277447,-0.007874,0.009216,-0.988892,0.190321,0.585038,-0.069924,54,277,568,5536
1644164140.325858,-0.010254,0.008728,-0.990601,0.236122,0.371298,0.067481,51,279,576,5584
1644164140.374246,-0.009094,0.010864,-0.994324,0.342992,0.432366,-0.161527,48,276,571,5584
1644164140.422665,-0.011475,0.008789,-0.990112,0.037649,0.310229,-0.130992,58,279,578,5584
1644164140.471031,-0.009521,0.010742,-0.990479,0.129252,0.539237,0.006412,51,274,569,5600
1644164140.519436,-0.009033,0.010986,-0.991821,0.297191,0.386565,-0.161527,59,270,575,5536
1644164140.567793,-0.008118,0.008606,-0.993042,0.175053,0.340763,-0.207328,39,279,571,5600
1644164140.616206,-0.009888,0.009583,-0.993042,0.175053,0.340763,-0.192061,48,279,576,5584
1644164140.664712,-0.00946,0.008301,-0.993164,0.251389,0.371298,-0.024122,61,277,568,5520
1644164140.713029,-0.008118,0.011169,-0.99353,0.159786,0.447634,-0.054656,53,283,573,5600
1644164140.761355,-0.010437,0.01062,-0.991699,0.220855,0.386565,0.036947,54,282,582,5648
1644164140.80978,-0.00946,0.007874,-0.993347,0.373527,0.447634,0.021679,53,279,583,5536
1644164140.858189,-0.008606,0.008911,-0.992615,0.312458,0.371298,-0.008855,57,275,579,5584
1644164140.906586,-0.009277,0.01062,-0.991333,0.159786,0.401832,-0.039389,54,268,577,5600
1644164140.955054,-0.006042,0.008667,-0.992004,0.098718,0.478168,-0.14626,39,262,573,5584
1644164141.003371,-0.010071,0.006653,-0.993347,0.175053,0.386565,-0.069924,51,279,573,5664
1644164141.075243,-0.00885,0.010132,-0.990723,0.251389,0.340763,-0.008855,60,271,569,5584
1644164141.104345,-0.010437,0.01178,-0.990051,0.281924,0.386565,-0.115725,57,265,575,5584
1644164141.153385,-0.010742,0.010498,-0.990173,0.297191,0.340763,-0.130992,48,271,562,5600
1644164141.245445,-0.008606,0.010681,-0.991577,0.312458,0.340763,-0.176794,46,276,569,5632
1644164141.293678,-0.009094,0.006287,-0.990356,0.251389,0.646107,-0.054656,47,268,570,5632
1644164141.342057,-0.006897,0.009888,-0.98999,0.281924,0.462901,-0.085191,41,271,571,5632
1644164141.390434,-0.013672,0.010925,-0.992065,0.297191,0.386565,-0.207328,64,263,577,5632
1644164141.438832,-0.011536,0.008057,-0.990845,0.327725,0.371298,-0.161527,53,274,576,5552
1644164141.487219,-0.007507,0.012512,-0.990173,0.220855,0.646107,-0.192061,48,271,576,5600
1644164141.535614,-0.009338,0.00647,-0.989563,0.08345,0.432366,-0.130992,53,274,576,5584
1644164141.584018,-0.010315,0.011414,-0.990295,0.220855,0.493435,0.006412,42,273,572,5552
1644164141.632419,-0.013184,0.010254,-0.992737,0.251389,0.447634,-0.008855,51,264,573,5584
1644164141.680795,-0.008789,0.011963,-0.992126,0.236122,0.340763,-0.115725,52,273,575,5584
1644164141.729183,-0.007935,0.010803,-0.993042,0.404061,0.478168,-0.14626,61,263,572,5600
1644164141.777579,-0.010132,0.011169,-0.989929,0.129252,0.493435,0.036947,53,271,580,5648
1644164141.825976,-0.009094,0.010986,-0.993286,0.190321,0.478168,-0.054656,54,265,582,5536
1644164141.874389,-0.009888,0.009888,-0.989136,0.297191,0.417099,-0.115725,36,281,583,5584
1644164141.922802,-0.011719,0.012451,-0.991577,0.159786,0.401832,-0.207328,48,271,576,5600
1644164141.971169,-0.009338,0.01355,-0.99115,0.266656,0.188092,-0.054656,40,282,577,5536
1644164142.019563,-0.01001,0.012085,-0.992676,0.175053,0.447634,-0.130992,55,264,573,5600
1644164142.068003,-0.008484,0.009949,-0.989624,0.35826,0.569771,-0.069924,58,281,578,5584
1644164142.116506,-0.008301,0.007568,-0.990967,0.236122,0.371298,-0.039389,55,279,587,5584
1644164142.164741,-0.006836,0.012207,-0.991455,0.113985,0.386565,-0.130992,42,265,572,5584
1644164142.214961,-0.009888,0.009705,-0.990723,0.190321,0.478168,-0.069924,46,262,573,5584
1644164142.265382,-0.00769,0.012573,-0.990906,0.342992,0.371298,-0.161527,60,274,573,5600
1644164142.310462,-0.013489,0.008545,-0.991882,0.281924,0.462901,-0.039389,52,273,575,5584
1644164142.406632,-0.007385,0.01123,-0.990112,0.373527,0.356031,-0.024122,40,282,577,5584
1644164142.455275,-0.009094,0.011536,-0.989197,0.281924,0.401832,-0.207328,45,270,572,5648
1644164142.503444,-0.010071,0.006714,-0.993652,0.281924,0.432366,-0.130992,43,274,578,5648
1644164142.551814,-0.006958,0.008789,-0.993835,0.220855,0.386565,0.021679,49,277,572,5584
1644164142.600196,-0.010559,0.009521,-0.991211,0.404061,0.462901,-0.283664,45,268,568,5584
1644164142.648584,-0.009583,0.009155,-0.990417,0.159786,0.508702,-0.069924,48,276,571,5600
1644164142.696977,-0.012573,0.010193,-0.991821,0.297191,0.401832,0.006412,45,287,582,5536
1644164142.745369,-0.011719,0.01062,-0.991699,0.190321,0.401832,-0.298931,46,266,592,5600
1644164142.793771,-0.010376,0.008789,-0.990967,0.175053,0.371298,-0.130992,48,262,569,5584
1644164142.842289,-0.013123,0.008118,-0.993713,0.266656,0.462901,-0.054656,48,274,573,5552
1644164142.890552,-0.008667,0.009521,-0.989502,0.220855,0.523969,-0.192061,49,268,579,5552
1644164142.938956,-0.009399,0.009338,-0.993225,0.404061,0.279695,-0.161527,45,275,572,5648
1644164142.987365,-0.009583,0.009155,-0.992615,0.220855,0.325496,0.021679,57,275,584,5552
1644164143.050063,-0.011169,0.010132,-0.990601,0.220855,0.24916,0.006412,55,271,576,5584
1644164143.084138,-0.010803,0.009949,-0.989929,0.297191,0.340763,-0.039389,48,269,571,5552
1644164143.132517,-0.008545,0.011353,-0.992188,0.190321,0.417099,-0.100458,49,275,575,5536
1644164143.180889,-0.009949,0.010132,-0.991028,0.35826,0.340763,-0.207328,51,271,585,5536
1644164143.229279,-0.013184,0.009521,-0.993652,0.236122,0.386565,-0.14626,55,274,587,5584
1644164143.277837,-0.012451,0.008972,-0.993408,0.35826,0.401832,-0.054656,48,279,566,5536
1644164143.326664,-0.010498,0.012207,-0.99292,0.220855,0.401832,-0.130992,55,271,578,5536
1644164143.377208,-0.008789,0.009094,-0.992126,0.220855,0.386565,-0.130992,52,275,584,5584
1644164143.427683,-0.009827,0.009888,-0.99231,0.281924,0.325496,-0.100458,46,274,585,5584
1644164143.472371,-0.011536,0.009583,-0.992371,0.35826,0.386565,-0.024122,42,265,579,5536
1644164143.567997,-0.010681,0.008606,-0.992676,0.35826,0.447634,-0.100458,58,276,576,5600
1644164143.616386,-0.009888,0.013184,-0.99231,0.266656,0.539237,-0.176794,42,268,577,5600
1644164143.664852,-0.010803,0.006348,-0.992554,0.251389,0.432366,-0.054656,51,271,573,5584
1644164143.713188,-0.011475,0.010925,-0.99231,0.297191,0.417099,-0.085191,49,280,589,5584
1644164143.761547,-0.009338,0.008179,-0.995239,0.327725,0.447634,-0.176794,48,266,578,5552
1644164143.809949,-0.009766,0.012268,-0.993042,0.281924,0.646107,-0.100458,57,275,570,5536
1644164143.858362,-0.011536,0.007812,-0.994507,0.312458,0.600305,-0.039389,47,270,572,5600
1644164143.906779,-0.012024,0.009827,-0.990906,0.175053,0.233893,-0.222595,40,273,577,5584
1644164143.955287,-0.011414,0.009155,-0.993713,0.113985,0.401832,-0.161527,42,270,579,5584
1644164144.003575,-0.008728,0.00769,-0.993286,0.251389,0.417099,-0.100458,54,275,563,5584
1644164144.056644,-0.009827,0.009888,-0.992432,0.35826,0.356031,-0.115725,51,281,583,5600
1644164144.100352,-0.010132,0.008484,-0.99353,0.190321,0.386565,-0.008855,49,273,575,5584
1644164144.148672,-0.008545,0.008911,-0.992432,0.434595,0.188092,-0.14626,65,271,590,5536
1644164144.197092,-0.011414,0.00946,-0.993591,0.281924,0.417099,-0.039389,59,282,575,5584
1644164144.245474,-0.005798,0.010437,-0.990417,0.297191,0.417099,-0.039389,58,276,580,5552
1644164144.293868,-0.010986,0.00824,-0.992737,0.312458,0.401832,-0.115725,43,276,576,5536
1644164144.342269,-0.007812,0.010742,-0.992249,0.236122,0.356031,-0.085191,47,277,586,5600
1644164144.390637,-0.009094,0.010315,-0.991089,0.236122,0.447634,-0.25313,53,266,578,5600
1644164144.439053,-0.012695,0.009705,-0.991089,0.266656,0.371298,0.006412,47,273,570,5536
1644164144.487656,-0.012573,0.008179,-0.99115,0.266656,0.356031,-0.115725,51,269,583,5632
1644164144.538263,-0.009583,0.012573,-0.991211,0.281924,0.508702,-0.069924,52,268,577,5600
1644164144.588281,-0.009644,0.008179,-0.992432,0.175053,0.585038,-0.024122,48,276,571,5552
1644164144.633355,-0.009521,0.007141,-0.990967,0.251389,0.401832,-0.100458,45,282,572,5600
1644164144.729369,-0.009155,0.00885,-0.992493,0.113985,0.462901,-0.085191,48,274,564,5584
1644164144.77774,-0.00946,0.009338,-0.992065,0.144519,0.401832,-0.161527,53,264,580,5584
1644164144.826141,-0.009033,0.009216,-0.992615,0.144519,0.340763,-0.161527,55,281,573,5552
1644164144.87463,-0.011719,0.009399,-0.989807,0.342992,0.432366,-0.176794,45,275,575,5584
1644164144.922991,-0.008423,0.009338,-0.992859,0.266656,0.523969,-0.100458,57,273,572,5536
1644164144.971355,-0.007446,0.009827,-0.988403,0.220855,0.432366,-0.069924,49,275,572,5584
1644164145.019767,-0.009277,0.011414,-0.990784,0.144519,0.401832,-0.024122,52,280,575,5552
1644164145.07863,-0.00946,0.008301,-0.992188,0.098718,0.478168,-0.054656,48,274,578,5600
1644164145.116538,-0.008972,0.009155,-0.991699,0.236122,0.569771,-0.024122,54,275,577,5600
1644164145.164889,-0.007629,0.011902,-0.991333,0.236122,0.462901,0.036947,51,274,571,5600
1644164145.213332,-0.008484,0.01178,-0.991882,0.388794,0.432366,-0.207328,46,274,569,5552
1644164145.261668,-0.009399,0.009949,-0.990479,0.144519,0.356031,-0.039389,43,276,578,5536
1644164145.310052,-0.012512,0.01062,-0.990295,0.205588,0.310229,-0.008855,60,279,576,5536
1644164145.358457,-0.009338,0.008179,-0.99176,0.236122,0.310229,-0.25313,57,282,570,5632
1644164145.40687,-0.010315,0.012207,-0.99353,0.205588,0.417099,-0.100458,52,275,568,5600
1644164145.456987,-0.008667,0.008118,-0.991516,0.342992,0.340763,-0.024122,46,266,578,5536
1644164145.50757,-0.007385,0.009705,-0.990479,0.404061,0.417099,-0.069924,49,270,584,5632
1644164145.552353,-0.009949,0.012024,-0.990051,0.327725,0.386565,-0.115725,46,276,580,5552
1644164145.648784,-0.008545,0.011047,-0.992737,0.251389,0.432366,-0.039389,52,282,570,5584
1644164145.697164,-0.009521,0.011536,-0.994202,0.266656,0.539237,-0.069924,53,281,578,5600
1644164145.74556,-0.00946,0.008423,-0.993774,0.037649,0.401832,-0.069924,48,266,578,5584
1644164145.793966,-0.008911,0.009644,-0.992737,0.251389,0.523969,-0.130992,47,263,570,5664
1644164145.842628,-0.009033,0.010925,-0.990845,0.266656,0.539237,-0.085191,54,273,586,5520
1644164145.890781,-0.007629,0.008423,-0.99176,0.220855,0.539237,-0.329466,43,274,578,5600
1644164145.93919,-0.011047,0.012817,-0.992371,0.220855,0.523969,-0.176794,54,282,565,5584
1644164145.987543,-0.009155,0.009155,-0.990295,0.113985,0.447634,-0.176794,46,271,573,5600
1644164146.044453,-0.011597,0.006958,-0.990723,0.266656,0.447634,-0.069924,51,269,571,5584
1644164146.084385,-0.010071,0.010742,-0.991638,0.190321,0.310229,-0.176794,55,279,573,5600
1644164146.132756,-0.012268,0.013367,-0.989868,0.251389,0.493435,-0.069924,60,271,576,5584
1644164146.181083,-0.008301,0.008362,-0.991211,0.159786,0.417099,-0.069924,53,279,576,5584
1644164146.229471,-0.008972,0.009399,-0.991577,0.129252,0.325496,-0.039389,54,285,582,5600
1644164146.277865,-0.008972,0.012451,-0.990662,0.281924,0.325496,-0.130992,64,270,591,5600
1644164146.326261,-0.009644,0.008789,-0.992981,0.190321,0.508702,-0.192061,43,283,571,5536
1644164146.374657,-0.009033,0.008179,-0.990906,0.266656,0.417099,-0.024122,59,285,568,5584
1644164146.423052,-0.01239,0.013916,-0.991821,0.342992,0.325496,-0.192061,46,276,573,5536
1644164146.472833,-0.010925,0.009399,-0.99176,0.281924,0.356031,0.006412,48,276,578,5584
1644164146.519889,-0.009949,0.010193,-0.992126,0.205588,0.24916,-0.069924,49,270,570,5584
1644164146.568251,-0.009216,0.009216,-0.993042,0.190321,0.508702,0.036947,49,275,565,5584
1644164146.61869,-0.010254,0.007874,-0.989563,0.312458,0.432366,-0.14626,38,273,570,5552
1644164146.668867,-0.007446,0.01239,-0.990234,0.220855,0.478168,-0.024122,54,275,577,5648
1644164146.713921,-0.007935,0.010925,-0.992493,0.281924,0.401832,0.036947,55,266,578,5584
1644164146.810163,-0.009705,0.011047,-0.990051,0.175053,0.432366,-0.130992,43,274,583,5552
1644164146.858544,-0.010132,0.012024,-0.991394,0.220855,0.325496,-0.14626,52,268,570,5632
1644164146.906986,-0.010315,0.010925,-0.989746,0.144519,0.371298,-0.192061,49,273,572,5584
1644164146.955379,-0.009827,0.010071,-0.99054,0.08345,0.371298,-0.054656,46,283,569,5584
1644164147.003754,-0.012329,0.007751,-0.991028,0.266656,0.523969,-0.130992,58,286,569,5600
1644164147.052577,-0.009705,0.011841,-0.989868,0.266656,0.279695,-0.069924,53,271,571,5584
1644164147.100502,-0.008484,0.010498,-0.988525,0.373527,0.386565,0.036947,49,273,579,5552
1644164147.148905,-0.008789,0.012939,-0.991333,0.205588,0.340763,0.113282,43,281,569,5584
1644164147.197281,-0.010376,0.013367,-0.989319,0.205588,0.340763,-0.130992,46,279,580,5648
1644164147.245648,-0.011902,0.008911,-0.990845,0.236122,0.356031,-0.024122,47,280,563,5536
1644164147.294062,-0.009277,0.010071,-0.993286,0.068183,0.417099,-0.039389,49,285,575,5584
1644164147.342483,-0.010864,0.006958,-0.992554,0.098718,0.523969,0.006412,57,273,584,5600
1644164147.39084,-0.010498,0.008789,-0.991394,0.144519,0.447634,-0.039389,54,280,579,5600
1644164147.439221,-0.009216,0.014587,-0.991211,0.236122,0.462901,-0.161527,46,262,578,5584
1644164147.487618,-0.009583,0.009521,-0.993103,0.068183,0.508702,-0.069924,47,282,572,5584
1644164147.536018,-0.010254,0.009399,-0.991455,0.388794,0.508702,-0.222595,59,280,582,5584
1644164147.584419,-0.007935,0.010498,-0.991882,0.281924,0.356031,-0.130992,47,273,568,5600
1644164147.633049,-0.011169,0.00946,-0.990479,0.08345,0.554504,-0.039389,61,275,577,5536
1644164147.681762,-0.011902,0.013672,-0.992249,0.297191,0.432366,-0.100458,49,280,579,5600
1644164147.732428,-0.013184,0.012756,-0.99353,0.175053,0.417099,-0.222595,47,277,572,5648
1644164147.77836,-0.010498,0.008179,-0.98761,0.35826,0.462901,-0.024122,59,273,582,5600
1644164147.828296,-0.008789,0.010498,-0.992188,0.129252,0.340763,-0.039389,51,276,576,5664
1644164147.923205,-0.009277,0.011047,-0.992249,0.251389,0.447634,-0.115725,54,282,582,5536
1644164147.971575,-0.009888,0.009583,-0.991089,0.297191,0.432366,-0.14626,52,275,577,5552
1644164148.019962,-0.009766,0.008606,-0.990845,0.205588,0.432366,-0.237863,43,279,578,5600
1644164148.070451,-0.010925,0.00769,-0.99054,0.175053,0.432366,0.021679,49,273,568,5552
1644164148.116692,-0.009766,0.007996,-0.993958,0.190321,0.432366,0.082748,57,270,575,5584
1644164148.165124,-0.011292,0.011169,-0.991089,0.113985,0.310229,-0.14626,51,269,578,5632
1644164148.21348,-0.010254,0.010071,-0.992432,0.281924,0.386565,-0.100458,51,276,583,5584
1644164148.261886,-0.011108,0.007751,-0.99115,0.113985,0.447634,-0.100458,48,262,571,5648
1644164148.310242,-0.00946,0.008606,-0.992981,0.236122,0.356031,-0.039389,46,266,564,5600
1644164148.358656,-0.008972,0.009216,-0.993164,0.266656,0.569771,-0.039389,43,276,571,5664
1644164148.407047,-0.007324,0.013733,-0.989807,0.190321,0.523969,-0.14626,43,271,576,5552
1644164148.455446,-0.008972,0.010132,-0.989685,0.175053,0.24916,0.006412,42,277,582,5536
1644164148.503844,-0.009644,0.010071,-0.99115,0.236122,0.462901,-0.069924,49,275,572,5600
1644164148.552325,-0.009033,0.010559,-0.993042,0.327725,0.554504,-0.115725,54,275,572,5632
1644164148.600606,-0.012939,0.010559,-0.991699,0.312458,0.371298,0.036947,55,271,587,5632
1644164148.648989,-0.010437,0.007935,-0.989929,0.220855,0.539237,-0.115725,49,275,577,5536
1644164148.697382,-0.010681,0.009155,-0.989929,0.236122,0.493435,-0.130992,48,271,566,5584
1644164148.745771,-0.011292,0.009827,-0.991211,0.327725,0.478168,-0.024122,49,280,572,5648
1644164148.79423,-0.010559,0.010071,-0.993286,0.144519,0.401832,-0.024122,49,270,577,5600
1644164148.843881,-0.008911,0.009155,-0.990112,0.236122,0.356031,0.036947,54,282,575,5552
1644164148.894304,-0.008911,0.010315,-0.990417,0.175053,0.523969,-0.130992,61,277,565,5552
1644164148.944417,-0.010193,0.013184,-0.991699,0.159786,0.523969,-0.130992,47,277,577,5552
1644164149.05047,-0.010437,0.009644,-0.99408,0.388794,0.401832,-0.085191,48,279,578,5536
1644164149.08457,-0.007751,0.01062,-0.991455,0.342992,0.371298,-0.008855,52,280,577,5536
1644164149.132905,-0.008972,0.009888,-0.991638,0.342992,0.325496,-0.054656,58,279,592,5600
1644164149.181332,-0.011292,0.009399,-0.992615,0.205588,0.493435,-0.024122,51,276,571,5552
1644164149.229681,-0.010559,0.007751,-0.993652,0.175053,0.432366,-0.024122,49,270,586,5536
1644164149.278037,-0.010925,0.008362,-0.991821,0.373527,0.401832,-0.115725,52,270,577,5552
1644164149.326462,-0.011353,0.006653,-0.991516,0.373527,0.554504,-0.008855,45,275,565,5520
1644164149.374859,-0.009888,0.00769,-0.990234,0.220855,0.325496,0.143817,54,265,575,5600
1644164149.4233,-0.007385,0.010132,-0.99292,0.190321,0.417099,0.021679,51,266,571,5584
1644164149.473704,-0.007141,0.009705,-0.994263,0.175053,0.401832,-0.130992,53,274,576,5552
1644164149.523899,-0.008057,0.010742,-0.991821,0.342992,0.447634,-0.054656,49,275,582,5600
1644164149.569166,-0.009888,0.012146,-0.992065,0.297191,0.401832,-0.039389,47,270,568,5584
1644164149.665391,-0.010498,0.010132,-0.992004,0.342992,0.340763,-0.054656,53,281,573,5536
1644164149.713592,-0.00769,0.009277,-0.987488,0.35826,0.264427,0.036947,53,274,573,5600
1644164149.761959,-0.007812,0.011414,-0.99353,0.159786,0.386565,-0.039389,48,276,573,5648
1644164149.810382,-0.010498,0.006531,-0.991089,0.175053,0.447634,-0.115725,46,276,585,5600
1644164149.858792,-0.011169,0.007324,-0.99176,0.175053,0.417099,-0.100458,48,262,573,5584
1644164149.907149,-0.009399,0.008972,-0.98999,0.266656,0.386565,-0.054656,43,274,569,5552
1644164149.955567,-0.010498,0.006775,-0.99176,0.297191,0.508702,0.021679,60,266,573,5584
1644164150.003946,-0.012085,0.010132,-0.99292,0.404061,0.386565,-0.054656,59,273,577,5536
1644164150.053538,-0.009094,0.007202,-0.990479,0.251389,0.417099,-0.25313,53,276,576,5648
1644164150.100709,-0.011414,0.010559,-0.992493,0.220855,0.478168,0.052214,53,269,571,5552
1644164150.149091,-0.011658,0.009949,-0.992676,0.404061,0.478168,-0.069924,53,279,566,5520
1644164150.197492,-0.00824,0.009094,-0.992004,0.220855,0.417099,-0.130992,48,271,569,5584
1644164150.245855,-0.00824,0.009094,-0.992432,0.251389,0.356031,-0.085191,51,266,583,5488
1644164150.294255,-0.009583,0.00885,-0.990662,0.342992,0.386565,-0.054656,57,275,577,5520
1644164150.342658,-0.009155,0.010071,-0.990234,0.205588,0.325496,-0.14626,57,270,575,5584
1644164150.391047,-0.008362,0.009766,-0.989502,0.281924,0.371298,-0.25313,46,264,578,5584
1644164150.43942,-0.008911,0.010925,-0.99231,0.266656,0.508702,-0.039389,51,269,571,5536
1644164150.487822,-0.012512,0.010925,-0.992126,0.220855,0.401832,-0.069924,61,263,570,5584
1644164150.536225,-0.010071,0.012268,-0.993958,0.144519,0.569771,-0.130992,53,271,571,5536
1644164150.585008,-0.009644,0.010803,-0.990845,0.281924,0.417099,-0.008855,58,276,576,5472
1644164150.636061,-0.006165,0.011475,-0.992249,0.190321,0.508702,-0.14626,52,260,575,5632
1644164150.686048,-0.011597,0.008423,-0.991394,0.175053,0.539237,-0.115725,47,282,579,5536
1644164150.778174,-0.009094,0.009094,-0.989685,0.236122,0.325496,-0.085191,46,271,571,5536
1644164150.82658,-0.011536,0.008972,-0.992249,0.266656,0.447634,-0.039389,57,270,584,5536
1644164150.875273,-0.011169,0.008789,-0.990356,0.236122,0.432366,-0.008855,41,279,569,5648
1644164150.923367,-0.009583,0.010559,-0.989014,0.205588,0.401832,-0.115725,47,273,577,5552
1644164150.971789,-0.011414,0.008362,-0.993896,0.205588,0.264427,-0.283664,58,276,576,5648
1644164151.020141,-0.01239,0.01123,-0.992859,0.113985,0.417099,-0.161527,42,275,577,5584
1644164151.076786,-0.010925,0.012024,-0.991394,0.159786,0.401832,-0.054656,54,273,579,5584
1644164151.116946,-0.01062,0.010071,-0.991699,0.220855,0.401832,0.006412,42,268,577,5632
1644164151.165292,-0.010864,0.008911,-0.992798,0.281924,0.401832,-0.054656,51,271,576,5584
1644164151.213681,-0.009888,0.008789,-0.992737,0.419328,0.417099,-0.130992,49,285,575,5648
1644164151.262072,-0.011841,0.008667,-0.991699,0.251389,0.371298,-0.192061,61,277,570,5632
1644164151.310457,-0.010132,0.008118,-0.99115,0.098718,0.432366,-0.176794,48,274,578,5584
1644164151.35888,-0.009888,0.00708,-0.993225,0.098718,0.386565,-0.298931,58,266,578,5600
1644164151.407269,-0.009277,0.010498,-0.995178,0.236122,0.462901,-0.085191,53,276,585,5600
1644164151.457123,-0.012451,0.006714,-0.992065,0.251389,0.539237,-0.069924,54,270,579,5552
1644164151.509515,-0.009216,0.009216,-0.99054,0.281924,0.493435,-0.085191,65,269,569,5632
1644164151.557712,-0.007935,0.009705,-0.990967,0.327725,0.386565,-0.100458,60,279,583,5536
1644164151.649148,-0.010193,0.010254,-0.993286,0.480397,0.539237,-0.14626,45,273,572,5600
1644164151.697567,-0.010193,0.010193,-0.992065,0.236122,0.432366,-0.039389,49,280,579,5536
1644164151.745961,-0.011292,0.008423,-0.989258,0.236122,0.401832,-0.039389,48,276,583,5552
1644164151.794374,-0.011292,0.010742,-0.992188,0.251389,0.493435,-0.14626,45,280,565,5600
1644164151.842786,-0.00885,0.005554,-0.991577,0.35826,0.340763,0.067481,48,274,573,5536
1644164151.8912,-0.009705,0.010803,-0.991394,0.419328,0.340763,-0.14626,46,276,573,5536
1644164151.939549,-0.011108,0.010437,-0.990479,0.327725,0.508702,-0.069924,51,271,559,5536
1644164151.987975,-0.011719,0.009033,-0.992554,0.297191,0.401832,-0.069924,54,277,584,5632
1644164152.050956,-0.01239,0.01062,-0.991394,0.327725,0.508702,-0.024122,49,273,572,5584
1644164152.08474,-0.013245,0.008728,-0.989685,0.327725,0.356031,0.113282,47,270,582,5600
1644164152.133157,-0.009277,0.009216,-0.990601,0.266656,0.554504,-0.176794,52,270,572,5584
1644164152.181489,-0.009094,0.00946,-0.991577,0.205588,0.432366,-0.161527,43,269,573,5600
1644164152.229879,-0.011414,0.009216,-0.993347,0.297191,0.707176,0.036947,48,279,576,5664
1644164152.278604,-0.00946,0.00946,-0.992249,0.251389,0.539237,-0.222595,53,269,578,5584
1644164152.327952,-0.008789,0.008362,-0.991455,0.220855,0.447634,-0.207328,49,273,568,5648
1644164152.378283,-0.009827,0.010376,-0.99292,0.205588,0.401832,0.021679,52,275,572,5488
1644164152.428549,-0.010376,0.011414,-0.993103,0.297191,0.447634,0.098015,45,275,584,5600
1644164152.520205,-0.010254,0.009033,-0.992004,0.220855,0.508702,-0.069924,51,274,569,5648
1644164152.568581,-0.011658,0.010315,-0.992249,0.190321,0.310229,0.021679,51,269,578,5536
1644164152.616977,-0.007629,0.009216,-0.988831,0.175053,0.310229,-0.192061,49,277,575,5536
1644164152.665391,-0.012085,0.012146,-0.990723,0.159786,0.478168,-0.024122,51,271,576,5632
1644164152.713798,-0.007568,0.007324,-0.990601,0.281924,0.432366,-0.024122,46,274,576,5600
1644164152.762192,-0.009216,0.00885,-0.992615,0.159786,0.386565,-0.069924,48,264,573,5600
1644164152.810565,-0.010132,0.007446,-0.992798,0.373527,0.462901,-0.100458,51,271,576,5584
1644164152.858934,-0.011475,0.009094,-0.992798,0.220855,0.432366,-0.039389,43,269,569,5584
1644164152.907387,-0.010864,0.008362,-0.991638,0.266656,0.417099,0.021679,54,265,570,5648
1644164152.955748,-0.01062,0.010315,-0.991272,0.236122,0.356031,-0.161527,41,274,569,5648
1644164153.004172,-0.011414,0.011719,-0.992493,0.251389,0.523969,-0.130992,43,281,564,5600
1644164153.057271,-0.010864,0.009277,-0.994629,0.419328,0.279695,-0.207328,68,268,579,5552
1644164153.100958,-0.00946,0.008972,-0.994507,0.342992,0.294962,0.113282,46,271,583,5536
1644164153.149392,-0.010315,0.012329,-0.994751,0.327725,0.386565,-0.008855,54,275,579,5600
1644164153.197731,-0.007263,0.009827,-0.991577,0.175053,0.386565,-0.054656,48,269,583,5584
1644164153.246114,-0.009033,0.007935,-0.993469,0.159786,0.523969,-0.115725,53,269,564,5632
1644164153.294504,-0.010437,0.011719,-0.992126,0.312458,0.417099,-0.100458,52,280,577,5536
1644164153.342912,-0.012024,0.01178,-0.990295,0.236122,0.371298,-0.039389,53,274,576,5584
1644164153.391299,-0.00946,0.007935,-0.992065,0.144519,0.401832,-0.024122,46,279,573,5584
1644164153.441314,-0.011536,0.006714,-0.989319,0.480397,0.523969,-0.100458,60,266,578,5584
1644164153.491036,-0.010559,0.009888,-0.990479,0.251389,0.432366,-0.054656,54,273,584,5632
1644164153.541493,-0.010681,0.010681,-0.993774,0.205588,0.447634,-0.100458,52,270,579,5584
1644164153.585953,-0.010132,0.010559,-0.990356,0.236122,0.340763,-0.024122,49,285,579,5552
1644164153.681624,-0.010132,0.010864,-0.992554,0.251389,0.585038,-0.176794,42,275,570,5648
1644164153.730014,-0.01239,0.009766,-0.990356,0.312458,0.356031,-0.283664,53,266,576,5552
1644164153.778403,-0.010864,0.009033,-0.99292,0.297191,0.493435,-0.054656,47,273,575,5584
1644164153.826784,-0.007996,0.00824,-0.993225,0.281924,0.523969,-0.008855,47,280,570,5536
1644164153.875227,-0.009766,0.010803,-0.99176,0.175053,0.325496,-0.100458,51,274,576,5552
1644164153.923598,-0.011414,0.009216,-0.988953,0.35826,0.447634,-0.161527,49,270,565,5584
1644164153.971965,-0.012085,0.010254,-0.994629,0.251389,0.523969,0.021679,49,277,577,5600
1644164154.020358,-0.010376,0.010498,-0.991211,0.373527,0.356031,-0.008855,51,266,571,5584
1644164154.075567,-0.013916,0.011536,-0.990662,0.236122,0.447634,-0.085191,48,276,576,5584
1644164154.117118,-0.009521,0.00885,-0.991577,0.312458,0.462901,-0.115725,46,279,566,5584
1644164154.165493,-0.010437,0.009216,-0.991211,0.220855,0.386565,-0.039389,46,286,590,5536
1644164154.213887,-0.010376,0.009888,-0.991211,0.266656,0.386565,-0.100458,53,274,578,5600
1644164154.262297,-0.010376,0.010254,-0.989441,0.251389,0.432366,-0.054656,48,271,571,5600
1644164154.310661,-0.009766,0.007812,-0.990845,0.434595,0.554504,-0.008855,48,274,576,5648
1644164154.359047,-0.011292,0.011169,-0.991943,0.434595,0.386565,-0.192061,47,273,572,5584
1644164154.40764,-0.009216,0.010254,-0.989685,0.297191,0.432366,0.036947,48,274,566,5600
1644164154.458239,-0.011169,0.011353,-0.993835,0.220855,0.493435,-0.069924,51,274,583,5536
1644164154.508523,-0.011597,0.010742,-0.993225,0.236122,0.523969,0.036947,48,264,580,5552
1644164154.553387,-0.009644,0.011658,-0.988586,0.236122,0.447634,-0.039389,43,269,571,5536
1644164154.649373,-0.008911,0.007629,-0.990906,0.342992,0.462901,-0.039389,60,274,571,5600
1644164154.697799,-0.010498,0.007446,-0.991943,0.220855,0.340763,-0.039389,46,283,571,5584
1644164154.746151,-0.011414,0.010071,-0.994385,0.190321,0.478168,-0.039389,53,266,578,5536
1644164154.794871,-0.009949,0.012512,-0.991882,0.175053,0.401832,0.052214,57,270,577,5552
1644164154.843014,-0.011414,0.010071,-0.991394,0.220855,0.401832,-0.039389,47,275,568,5632
1644164154.891387,-0.007385,0.010315,-0.99353,0.297191,0.340763,0.021679,48,269,569,5552
1644164154.939789,-0.009949,0.009583,-0.992188,0.266656,0.386565,-0.054656,42,273,572,5632
1644164154.988159,-0.011841,0.009827,-0.990479,0.281924,0.401832,-0.14626,49,282,575,5584
1644164155.048848,-0.009521,0.011047,-0.993774,0.35826,0.294962,-0.054656,43,283,580,5584
1644164155.084908,-0.010071,0.01123,-0.98999,0.327725,0.371298,-0.100458,57,275,570,5536
1644164155.133321,-0.009094,0.008545,-0.992981,0.236122,0.432366,-0.115725,43,271,573,5600
1644164155.181667,-0.008972,0.012634,-0.993103,0.113985,0.432366,-0.054656,60,271,573,5600
1644164155.230075,-0.011597,0.010498,-0.992249,0.205588,0.432366,-0.024122,51,266,566,5664
1644164155.27844,-0.01001,0.00885,-0.992981,0.312458,0.325496,-0.100458,51,266,576,5584
1644164155.326847,-0.009888,0.01001,-0.991699,0.35826,0.417099,-0.100458,55,283,578,5536
1644164155.375249,-0.012268,0.010681,-0.98938,0.281924,0.447634,0.113282,55,286,576,5536
1644164155.42364,-0.009155,0.00946,-0.989807,0.236122,0.417099,0.036947,48,279,571,5552
1644164155.47204,-0.008667,0.012146,-0.99292,0.08345,0.340763,-0.100458,57,282,586,5536
1644164155.521881,-0.01123,0.010437,-0.991211,0.281924,0.447634,-0.069924,53,276,569,5536
1644164155.572005,-0.007446,0.008301,-0.990784,0.175053,0.478168,0.036947,51,276,590,5584
1644164155.62216,-0.009094,0.007202,-0.991516,0.373527,0.417099,-0.161527,43,269,573,5584
1644164155.713999,-0.008545,0.010193,-0.99176,0.35826,0.493435,-0.115725,42,282,575,5584
1644164155.762396,-0.011902,0.010132,-0.992188,0.266656,0.539237,-0.024122,49,273,568,5648
1644164155.810765,-0.007874,0.010376,-0.989929,0.327725,0.386565,-0.161527,51,269,576,5632
1644164155.859195,-0.010193,0.009033,-0.993591,0.266656,0.508702,-0.14626,48,266,571,5600
1644164155.907555,-0.006775,0.009949,-0.989807,0.281924,0.447634,-0.161527,58,264,573,5600
1644164155.955961,-0.010742,0.011047,-0.992859,0.159786,0.340763,-0.054656,57,273,582,5584
1644164156.004344,-0.011108,0.007812,-0.991394,0.236122,0.462901,-0.161527,57,282,572,5552
1644164156.053208,-0.011353,0.009399,-0.990906,0.327725,0.386565,0.006412,51,276,573,5648
1644164156.101119,-0.010559,0.00946,-0.99176,0.220855,0.478168,-0.237863,48,271,576,5536
1644164156.149493,-0.011475,0.010193,-0.99231,0.46513,0.569771,-0.100458,43,274,576,5632
1644164156.197882,-0.009766,0.007751,-0.991211,0.129252,0.356031,-0.115725,49,270,582,5600
1644164156.246254,-0.00769,0.012268,-0.991394,0.388794,0.478168,-0.054656,39,271,571,5664
1644164156.294722,-0.00946,0.010681,-0.989624,0.205588,0.493435,-0.14626,53,274,578,5600
1644164156.343076,-0.009521,0.01123,-0.991211,0.266656,0.539237,-0.222595,49,277,563,5584
1644164156.391442,-0.010071,0.008606,-0.992859,0.190321,0.432366,-0.085191,58,266,580,5584
1644164156.439831,-0.010193,0.011536,-0.991943,0.190321,0.371298,-0.024122,39,279,573,5648
1644164156.488211,-0.010132,0.011292,-0.987061,0.297191,0.447634,-0.192061,59,280,572,5600
1644164156.536608,-0.007751,0.010376,-0.993713,0.205588,0.401832,-0.100458,53,264,578,5600
1644164156.585381,-0.010925,0.01001,-0.992737,0.220855,0.462901,0.067481,55,274,576,5584
1644164156.635119,-0.007019,0.010071,-0.99054,0.35826,0.600305,-0.207328,46,271,583,5552
1644164156.686155,-0.008545,0.01123,-0.99115,0.205588,0.447634,0.036947,45,275,575,5632
1644164156.731874,-0.010315,0.011963,-0.99353,0.373527,0.493435,-0.054656,48,266,576,5600
1644164156.826946,-0.008606,0.008606,-0.991882,0.281924,0.462901,-0.008855,51,269,573,5552
1644164156.875488,-0.012756,0.010071,-0.991882,0.281924,0.340763,0.006412,53,271,566,5664
1644164156.923769,-0.009155,0.010071,-0.992432,0.159786,0.478168,-0.100458,48,279,571,5552
1644164156.972395,-0.00946,0.008179,-0.98938,0.35826,0.371298,-0.085191,53,274,580,5584
1644164157.020567,-0.00885,0.008911,-0.99054,0.297191,0.539237,-0.069924,46,271,573,5552
1644164157.069944,-0.008057,0.008545,-0.991882,0.190321,0.417099,-0.100458,49,273,582,5584
1644164157.117405,-0.010254,0.007996,-0.993713,0.281924,0.417099,-0.100458,59,277,577,5536
1644164157.165688,-0.008301,0.010437,-0.990967,0.35826,0.432366,-0.008855,51,276,573,5648
1644164157.214103,-0.01123,0.012695,-0.992615,0.236122,0.417099,0.036947,46,269,580,5536
1644164157.262464,-0.009277,0.006897,-0.991943,0.281924,0.310229,-0.176794,51,271,580,5536
1644164157.310865,-0.010864,0.010803,-0.993896,0.236122,0.325496,-0.085191,58,279,576,5632
1644164157.359252,-0.01001,0.01178,-0.991577,0.266656,0.569771,-0.222595,52,275,572,5552
1644164157.407632,-0.010193,0.010376,-0.991211,0.342992,0.447634,-0.161527,49,273,577,5600
1644164157.456026,-0.009216,0.00946,-0.992065,0.205588,0.371298,-0.14626,46,264,583,5584
1644164157.504403,-0.011414,0.007385,-0.993469,0.312458,0.432366,-0.115725,55,276,573,5552
1644164157.552831,-0.009094,0.01123,-0.990906,0.449863,0.462901,-0.100458,52,275,572,5552
1644164157.601198,-0.009766,0.008545,-0.993042,0.373527,0.340763,-0.008855,54,280,577,5648
1644164157.649594,-0.012085,0.010132,-0.99115,0.281924,0.386565,-0.024122,40,273,577,5488
1644164157.698277,-0.009827,0.011414,-0.989929,0.281924,0.478168,-0.100458,54,268,586,5584
1644164157.748844,-0.010315,0.010193,-0.987305,0.35826,0.508702,-0.192061,54,268,572,5584
1644164157.798992,-0.011169,0.010254,-0.988525,0.297191,0.356031,0.052214,61,270,586,5552
1644164157.843958,-0.01062,0.00946,-0.989319,0.297191,0.386565,-0.161527,60,281,576,5536
1644164157.939967,-0.011047,0.01062,-0.989441,0.236122,0.432366,-0.25313,43,269,573,5552
1644164157.988358,-0.00824,0.009827,-0.989502,0.08345,0.401832,-0.100458,42,275,570,5584
1644164158.05174,-0.009399,0.008606,-0.993347,0.205588,0.462901,-0.039389,47,277,586,5664
1644164158.085188,-0.010986,0.007141,-0.989502,0.236122,0.646107,-0.069924,62,271,578,5536
1644164158.133543,-0.008545,0.007812,-0.992188,0.281924,0.340763,-0.069924,53,276,573,5536
1644164158.181921,-0.010071,0.01178,-0.991943,0.266656,0.569771,-0.054656,48,279,585,5584
1644164158.230286,-0.009583,0.011108,-0.991272,0.434595,0.401832,-0.054656,49,268,579,5520
1644164158.27872,-0.009216,0.011902,-0.991394,0.251389,0.386565,-0.024122,51,276,573,5600
1644164158.327928,-0.00946,0.010193,-0.991028,0.373527,0.447634,-0.069924,54,273,575,5584
1644164158.378175,-0.009827,0.011047,-0.991638,0.129252,0.462901,0.036947,43,269,569,5536
1644164158.430475,-0.011292,0.010254,-0.991577,0.190321,0.478168,-0.054656,58,279,583,5584
1644164158.473183,-0.013245,0.009094,-0.99292,0.312458,0.24916,-0.008855,47,277,579,5648
1644164158.569015,-0.010559,0.008545,-0.989929,0.175053,0.386565,-0.008855,43,279,578,5536
1644164158.61743,-0.008789,0.007751,-0.988647,0.281924,0.523969,-0.130992,54,265,575,5600
1644164158.665798,-0.010437,0.009338,-0.991882,0.251389,0.371298,-0.100458,58,279,576,5584
1644164158.71421,-0.009277,0.007751,-0.991394,0.327725,0.325496,-0.130992,58,269,578,5536
1644164158.762594,-0.00885,0.006714,-0.991699,0.312458,0.401832,-0.100458,41,271,573,5536
1644164158.810998,-0.011536,0.007446,-0.99353,0.266656,0.401832,-0.192061,53,269,576,5632
1644164158.859348,-0.009399,0.009583,-0.990234,0.281924,0.386565,-0.085191,48,269,578,5552
1644164158.907793,-0.010986,0.010559,-0.989929,0.312458,0.310229,0.067481,53,271,576,5584
1644164158.956152,-0.011414,0.008057,-0.991638,0.159786,0.493435,-0.085191,55,269,571,5584
1644164159.004704,-0.011658,0.010803,-0.990112,0.190321,0.325496,0.052214,48,286,573,5584
1644164159.057454,-0.008362,0.010986,-0.991455,0.327725,0.447634,0.036947,59,265,572,5600
1644164159.101302,-0.008179,0.010254,-0.991028,0.327725,0.417099,-0.14626,46,276,573,5552
1644164159.149697,-0.010864,0.010193,-0.992493,0.297191,0.615573,-0.237863,49,277,577,5584
1644164159.198084,-0.010559,0.010376,-0.990479,0.495664,0.371298,-0.161527,55,276,578,5632
1644164159.246477,-0.008545,0.010071,-0.991577,0.297191,0.310229,-0.161527,52,268,577,5648
1644164159.294875,-0.012451,0.00946,-0.989563,0.266656,0.539237,-0.085191,47,275,575,5648
1644164159.34325,-0.010193,0.00647,-0.990784,0.129252,0.356031,-0.085191,48,274,564,5600
1644164159.391636,-0.008728,0.010559,-0.990784,0.220855,0.340763,-0.054656,54,268,579,5648
1644164159.440034,-0.010193,0.011047,-0.991577,0.327725,0.462901,-0.192061,41,274,580,5584
1644164159.488698,-0.010071,0.012695,-0.99292,0.251389,0.310229,-0.008855,46,274,569,5600
1644164159.539257,-0.011902,0.01123,-0.991089,0.159786,0.493435,-0.222595,43,269,583,5648
1644164159.589379,-0.011169,0.009155,-0.993469,0.190321,0.310229,-0.192061,51,269,571,5536
1644164159.634368,-0.013306,0.010437,-0.99115,0.312458,0.523969,-0.115725,38,275,577,5584
1644164159.730382,-0.009216,0.010315,-0.99176,0.144519,0.432366,-0.130992,57,275,575,5648
1644164159.778743,-0.008301,0.01062,-0.990173,0.175053,0.325496,-0.054656,48,274,566,5600
1644164159.82719,-0.010803,0.010986,-0.992981,0.205588,0.615573,-0.14626,49,268,577,5648
1644164159.875572,-0.00769,0.010742,-0.988586,0.159786,0.417099,-0.130992,45,275,563,5552
1644164159.923987,-0.007629,0.01123,-0.992737,0.327725,0.386565,0.174351,49,270,577,5536
1644164159.972386,-0.009155,0.007874,-0.991333,0.236122,0.371298,-0.192061,60,274,576,5536
1644164160.020767,-0.008789,0.010132,-0.993469,0.434595,0.417099,-0.024122,55,281,580,5584
1644164160.073475,-0.013367,0.009094,-0.992737,0.434595,0.447634,-0.085191,48,276,580,5632
1644164160.117492,-0.007202,0.008667,-0.991577,0.175053,0.401832,-0.192061,55,266,573,5552
1644164160.165898,-0.012024,0.010803,-0.990845,0.159786,0.340763,-0.115725,58,274,580,5584
1644164160.214288,-0.01001,0.010315,-0.994568,0.251389,0.386565,-0.054656,57,277,577,5584
1644164160.262686,-0.008972,0.009888,-0.994202,0.297191,0.401832,-0.176794,53,274,583,5600
1644164160.311024,-0.010071,0.010925,-0.991211,0.144519,0.539237,-0.100458,49,280,579,5584
1644164160.359437,-0.010742,0.008545,-0.990356,0.159786,0.417099,-0.115725,46,271,573,5584
1644164160.407859,-0.01001,0.010925,-0.992126,0.190321,0.447634,-0.069924,49,275,572,5552
1644164160.457939,-0.012085,0.007874,-0.994568,0.266656,0.417099,0.067481,52,273,582,5600
1644164160.508421,-0.009094,0.007874,-0.992432,0.098718,0.478168,-0.100458,38,280,572,5584
1644164160.553225,-0.00946,0.009827,-0.990417,0.251389,0.432366,-0.283664,61,270,582,5584
1644164160.64978,-0.011169,0.00946,-0.992798,0.220855,0.325496,-0.14626,43,281,578,5584
1644164160.698169,-0.010803,0.009521,-0.989014,0.236122,0.447634,0.113282,58,271,583,5536
1644164160.746562,-0.008179,0.008179,-0.99054,0.220855,0.539237,-0.008855,49,265,582,5600
1644164160.795647,-0.009705,0.008362,-0.993469,0.220855,0.478168,-0.085191,53,276,578,5664
1644164160.843412,-0.009155,0.011841,-0.990479,0.342992,0.523969,-0.085191,57,273,575,5584
1644164160.891782,-0.009583,0.008423,-0.990295,0.312458,0.462901,0.067481,52,268,579,5600
1644164160.940156,-0.008789,0.009949,-0.990479,0.281924,0.493435,-0.130992,55,271,580,5584
1644164160.988576,-0.010742,0.010376,-0.990601,0.327725,0.325496,-0.069924,45,273,575,5600
1644164161.051719,-0.010071,0.009583,-0.99115,0.404061,0.523969,-0.085191,48,276,585,5648
1644164161.085378,-0.006287,0.006897,-0.991882,0.08345,0.676641,-0.115725,48,271,578,5552
1644164161.133723,-0.011902,0.011108,-0.992126,0.342992,0.356031,-0.085191,51,274,576,5600
1644164161.182194,-0.01001,0.010498,-0.989502,0.144519,0.325496,-0.237863,54,275,577,5584
1644164161.230482,-0.007812,0.009949,-0.98999,0.129252,0.508702,-0.115725,47,282,570,5584
1644164161.278859,-0.010315,0.006653,-0.990723,0.220855,0.447634,-0.176794,49,275,582,5584
1644164161.327229,-0.00885,0.00647,-0.993469,0.113985,0.371298,-0.039389,53,281,578,5632
1644164161.375617,-0.008972,0.010498,-0.991699,0.190321,0.24916,0.098015,36,269,578,5648
1644164161.424487,-0.009644,0.00946,-0.990356,0.297191,0.417099,-0.14626,41,279,585,5520
1644164161.474763,-0.008728,0.010193,-0.994202,0.08345,0.523969,0.067481,61,275,582,5584
1644164161.525003,-0.010559,0.011353,-0.992493,0.342992,0.356031,-0.100458,43,276,578,5584
1644164161.570016,-0.008972,0.011047,-0.994629,0.190321,0.340763,-0.054656,49,282,568,5584
1644164161.665975,-0.010986,0.00885,-0.992371,0.190321,0.462901,-0.085191,60,279,583,5600
1644164161.714394,-0.011658,0.008423,-0.991943,0.144519,0.615573,-0.192061,48,271,580,5600
1644164161.762754,-0.011841,0.007996,-0.991211,0.175053,0.371298,-0.069924,41,279,573,5536
1644164161.81113,-0.009216,0.008545,-0.988708,0.251389,0.447634,-0.314198,42,292,579,5600
1644164161.859594,-0.010315,0.00824,-0.993103,0.220855,0.417099,-0.054656,46,279,566,5520
1644164161.907975,-0.012146,0.010742,-0.992676,-0.008153,0.340763,-0.222595,52,275,570,5600
1644164161.95637,-0.008728,0.010376,-0.989319,0.205588,0.417099,-0.085191,46,269,576,5584
1644164162.004746,-0.011536,0.009399,-0.99176,0.327725,0.554504,0.021679,52,273,582,5648
1644164162.054384,-0.010559,0.009399,-0.991821,0.281924,0.462901,-0.054656,54,275,575,5600
1644164162.101546,-0.00946,0.010315,-0.99292,0.281924,0.417099,-0.176794,48,269,576,5552
1644164162.149907,-0.010864,0.01062,-0.98999,0.297191,0.310229,-0.161527,58,269,576,5584
1644164162.198264,-0.011597,0.00885,-0.990479,0.35826,0.478168,-0.085191,42,270,584,5600
1644164162.246654,-0.011536,0.012207,-0.99054,0.175053,0.508702,0.052214,52,282,584,5648
1644164162.295152,-0.009033,0.009949,-0.992493,0.297191,0.523969,-0.039389,42,265,584,5536
1644164162.343447,-0.007996,0.010986,-0.992615,0.220855,0.325496,-0.085191,60,274,569,5552
1644164162.391849,-0.010376,0.009155,-0.993042,0.297191,0.585038,0.021679,43,281,578,5664
1644164162.440238,-0.010498,0.009399,-0.989258,0.251389,0.386565,-0.207328,43,279,583,5648
1644164162.488604,-0.011597,0.009827,-0.991821,0.312458,0.340763,-0.268397,41,269,571,5584
1644164162.537019,-0.011536,0.00946,-0.992065,0.297191,0.356031,-0.085191,54,275,575,5632
1644164162.585711,-0.011475,0.011475,-0.991455,0.098718,0.447634,-0.085191,52,265,584,5632
1644164162.636256,-0.010376,0.007202,-0.98877,0.175053,0.24916,-0.192061,57,270,568,5536
1644164162.686452,-0.010864,0.009583,-0.993835,0.236122,0.478168,-0.085191,48,281,585,5600
1644164162.731394,-0.009888,0.010376,-0.991211,0.281924,0.539237,-0.100458,49,277,570,5600
1644164162.827329,-0.009827,0.009399,-0.993042,0.236122,0.478168,-0.024122,49,275,572,5584
1644164162.875782,-0.009583,0.008606,-0.989502,0.220855,0.386565,-0.207328,54,277,579,5536
1644164162.924182,-0.010315,0.008362,-0.993652,0.251389,0.325496,-0.054656,55,276,569,5600
1644164162.972577,-0.011169,0.008423,-0.990845,0.281924,0.462901,-0.024122,51,271,580,5584
1644164163.02096,-0.008484,0.009399,-0.992432,0.144519,0.508702,-0.14626,47,270,575,5648
1644164163.069389,-0.011719,0.006714,-0.988464,0.220855,0.401832,0.021679,55,271,580,5536
1644164163.117729,-0.010681,0.007263,-0.991089,0.312458,0.539237,-0.115725,66,277,586,5584
1644164163.166093,-0.011841,0.011475,-0.991577,0.342992,0.493435,-0.161527,49,270,579,5584
1644164163.214478,-0.007751,0.010925,-0.991028,0.35826,0.569771,-0.085191,43,276,564,5584
1644164163.262889,-0.008423,0.009766,-0.99231,0.342992,0.310229,-0.14626,54,287,575,5584
1644164163.311253,-0.012207,0.00946,-0.993408,0.434595,0.554504,-0.176794,55,274,578,5600
1644164163.360502,-0.010559,0.009644,-0.993042,0.113985,0.371298,-0.039389,49,275,575,5584
1644164163.408037,-0.011597,0.009949,-0.99176,0.327725,0.356031,-0.085191,51,276,569,5664
1644164163.456449,-0.009399,0.011536,-0.990967,0.297191,0.356031,-0.085191,47,285,586,5520
1644164163.504817,-0.010681,0.008972,-0.991394,0.281924,0.569771,-0.085191,58,266,580,5552
1644164163.553223,-0.009338,0.010864,-0.994141,0.236122,0.356031,0.036947,51,276,578,5552
1644164163.601614,-0.007507,0.010193,-0.989929,0.220855,0.325496,-0.207328,51,266,587,5584
1644164163.649993,-0.008911,0.012817,-0.991699,0.342992,0.356031,-0.024122,52,275,568,5648
1644164163.698377,-0.011902,0.010315,-0.990723,0.327725,0.417099,-0.161527,51,274,580,5600
1644164163.746794,-0.012878,0.008789,-0.993652,0.251389,0.417099,-0.268397,45,277,579,5552
1644164163.797014,-0.010681,0.010986,-0.991516,0.129252,0.188092,-0.130992,47,280,579,5648
1644164163.848125,-0.010498,0.009888,-0.991455,0.266656,0.417099,0.036947,53,264,569,5632
1644164163.892951,-0.013184,0.008972,-0.994873,0.327725,0.432366,-0.024122,51,264,578,5536
1644164163.988768,-0.010925,0.010925,-0.995239,0.388794,0.539237,-0.008855,42,263,586,5536
1644164164.046891,-0.010681,0.011475,-0.991028,0.251389,0.401832,-0.130992,54,277,577,5584
1644164164.085571,-0.011902,0.008484,-0.992798,0.251389,0.264427,-0.222595,51,281,576,5584
1644164164.133943,-0.010315,0.010071,-0.991272,0.159786,0.478168,-0.008855,58,276,583,5584
1644164164.182294,-0.009705,0.008362,-0.993103,0.205588,0.371298,-0.085191,46,283,573,5600
1644164164.230669,-0.009583,0.008362,-0.990417,0.129252,0.615573,-0.085191,45,277,579,5664
1644164164.279062,-0.008362,0.008606,-0.990723,0.068183,0.523969,-0.207328,54,277,577,5648
1644164164.327456,-0.009277,0.008789,-0.990601,0.342992,0.356031,-0.130992,48,276,569,5600
1644164164.375855,-0.009766,0.008545,-0.990234,0.159786,0.417099,-0.100458,52,285,577,5632
1644164164.424258,-0.007141,0.009644,-0.989563,0.190321,0.462901,-0.14626,49,270,579,5552
1644164164.472649,-0.00946,0.010559,-0.990845,0.113985,0.447634,-0.115725,53,279,583,5648
1644164164.520988,-0.011108,0.011292,-0.989319,0.190321,0.401832,-0.024122,45,265,577,5584
1644164164.569387,-0.009705,0.007568,-0.990967,0.312458,0.417099,-0.069924,46,269,573,5584
1644164164.6178,-0.009583,0.008728,-0.990784,0.251389,0.569771,-0.039389,51,276,578,5552
1644164164.666192,-0.007874,0.012573,-0.992859,0.404061,0.585038,-0.283664,52,268,577,5600
1644164164.715033,-0.011597,0.010925,-0.991882,0.068183,0.279695,-0.069924,49,265,572,5648
1644164164.76497,-0.008728,0.010742,-0.989502,0.266656,0.493435,-0.069924,61,268,584,5600
1644164164.815197,-0.007019,0.009949,-0.991272,0.236122,0.539237,-0.192061,59,270,577,5552
1644164164.860354,-0.009583,0.010803,-0.988892,0.068183,0.401832,0.036947,54,275,579,5520
1644164164.956548,-0.011536,0.006958,-0.991333,0.342992,0.417099,-0.008855,49,275,575,5584
1644164165.005249,-0.010193,0.010132,-0.988525,0.220855,0.401832,-0.25313,47,270,572,5600
1644164165.054878,-0.010864,0.011963,-0.989563,0.297191,0.432366,-0.207328,53,279,576,5552
1644164165.101717,-0.010681,0.012268,-0.992432,0.236122,0.356031,0.036947,58,269,578,5584
1644164165.150103,-0.008545,0.011292,-0.992371,0.251389,0.447634,-0.054656,62,274,571,5552
1644164165.19852,-0.00769,0.010681,-0.992065,0.113985,0.279695,-0.054656,58,269,580,5552
1644164165.24688,-0.009705,0.012817,-0.994019,0.342992,0.24916,-0.207328,57,273,584,5648
1644164165.295313,-0.008057,0.008789,-0.994507,0.098718,0.356031,-0.085191,34,276,578,5552
1644164165.34369,-0.010559,0.008484,-0.989136,0.312458,0.401832,-0.115725,57,268,570,5584
1644164165.392079,-0.010559,0.010803,-0.992737,0.266656,0.294962,-0.085191,55,271,573,5600
1644164165.440469,-0.013123,0.009705,-0.989624,0.175053,0.432366,-0.176794,48,274,571,5648
1644164165.488859,-0.009583,0.010498,-0.994446,0.297191,0.432366,-0.176794,52,287,584,5536
1644164165.537261,-0.00769,0.009521,-0.989685,0.312458,0.386565,-0.085191,45,277,582,5552
1644164165.585652,-0.009338,0.010376,-0.990051,0.068183,0.478168,-0.054656,57,263,579,5536
1644164165.634035,-0.009033,0.011536,-0.99292,0.190321,0.600305,-0.085191,58,288,576,5536
1644164165.682436,-0.009094,0.007202,-0.991272,0.266656,0.462901,-0.207328,48,286,571,5552
1644164165.730811,-0.008057,0.00708,-0.993591,0.342992,0.371298,-0.130992,54,277,577,5648
1644164165.779221,-0.009766,0.008423,-0.992065,0.327725,0.386565,-0.024122,46,271,578,5584
1644164165.827619,-0.010864,0.008667,-0.990112,0.220855,0.493435,-0.176794,53,271,573,5600
1644164165.877769,-0.010559,0.011353,-0.991943,0.312458,0.432366,-0.054656,48,283,580,5600
1644164165.928372,-0.011108,0.009705,-0.992554,0.251389,0.447634,-0.192061,53,259,576,5600
1644164165.978571,-0.011597,0.010376,-0.988098,0.419328,0.371298,-0.100458,46,279,578,5632
1644164166.072059,-0.009521,0.012878,-0.989075,0.236122,0.325496,0.006412,51,279,585,5520
1644164166.117881,-0.00769,0.006958,-0.991516,0.281924,0.340763,0.052214,54,268,568,5536
1644164166.166276,-0.008423,0.009766,-0.992859,0.297191,0.462901,-0.25313,52,273,577,5648
1644164166.214688,-0.009338,0.008728,-0.992188,0.098718,0.523969,-0.024122,45,275,575,5552
1644164166.263088,-0.010864,0.008667,-0.990601,0.190321,0.417099,-0.039389,46,264,569,5552
1644164166.311464,-0.00824,0.010437,-0.990906,0.175053,0.279695,-0.069924,45,270,572,5648
1644164166.359855,-0.00946,0.011597,-0.991577,0.205588,0.478168,-0.069924,53,269,580,5552
1644164166.408237,-0.012024,0.010437,-0.991028,0.190321,0.447634,-0.161527,52,268,570,5536
1644164166.456729,-0.008667,0.011169,-0.991272,0.266656,0.417099,0.113282,51,274,580,5584
1644164166.505161,-0.006165,0.009094,-0.99176,0.251389,0.432366,-0.130992,45,265,577,5552
1644164166.553429,-0.006897,0.009155,-0.99115,0.220855,0.340763,-0.039389,54,265,575,5600
1644164166.601815,-0.009949,0.010437,-0.989807,0.175053,0.462901,-0.085191,54,282,593,5584
1644164166.650188,-0.011475,0.009949,-0.992065,0.342992,0.585038,-0.192061,43,279,576,5584
1644164166.69857,-0.010864,0.012451,-0.989502,0.190321,0.325496,-0.115725,59,270,579,5600
1644164166.746987,-0.011719,0.010681,-0.990723,0.35826,0.493435,-0.100458,54,275,579,5600
1644164166.7954,-0.008484,0.007935,-0.98938,0.327725,0.401832,-0.008855,49,285,579,5648
1644164166.843823,-0.008789,0.005798,-0.98999,0.190321,0.493435,-0.100458,53,276,573,5536
1644164166.89244,-0.007996,0.009583,-0.991638,0.113985,0.539237,-0.024122,49,270,589,5648
1644164166.942514,-0.006836,0.010742,-0.990417,0.297191,0.539237,-0.207328,53,269,585,5552
1644164166.993238,-0.009644,0.011108,-0.991699,0.266656,0.417099,0.021679,46,269,580,5552
1644164167.064219,-0.008972,0.011169,-0.99176,0.175053,0.462901,0.021679,49,275,582,5600
1644164167.134095,-0.010498,0.008545,-0.991211,0.342992,0.493435,0.021679,43,276,569,5648
1644164167.182497,-0.007996,0.009888,-0.991394,0.266656,0.462901,0.036947,54,270,582,5584
1644164167.230863,-0.010986,0.01062,-0.992676,0.388794,0.401832,-0.100458,48,269,583,5536
1644164167.279254,-0.011353,0.01062,-0.991516,0.236122,0.462901,-0.115725,54,265,575,5600
