epoch,acc_x,acc_y,acc_z,rot_x,rot_y,rot_z,mag_x,mag_y,mag_z,temp
1644186300.012432,-0.004822,0.011902,-0.992188,0.342992,0.386565,-0.192061,57,277,572,6240
1644186300.067795,-0.009033,0.010315,-0.995056,0.159786,0.539237,-0.237863,47,277,593,6224
1644186300.109221,-0.011536,0.01123,-0.991577,0.342992,0.264427,0.021679,55,266,590,6224
1644186300.157582,-0.00824,0.010742,-0.99176,0.327725,0.432366,-0.115725,53,271,580,6240
1644186300.205974,-0.00946,0.009155,-0.99292,0.342992,0.401832,-0.069924,45,268,584,6192
1644186300.254344,-0.010742,0.008423,-0.991638,0.281924,0.279695,-0.115725,46,274,576,6176
1644186300.30277,-0.008728,0.012634,-0.992004,0.175053,0.371298,-0.14626,47,287,575,6224
1644186300.351159,-0.005737,0.010681,-0.990601,0.129252,0.371298,-0.024122,40,273,572,6176
1644186300.399544,-0.009949,0.009949,-0.989441,0.144519,0.310229,-0.069924,47,282,593,6240
1644186300.447936,-0.007507,0.008179,-0.991882,0.175053,0.325496,-0.14626,47,277,582,6192
1644186300.496331,-0.007996,0.010193,-0.990784,0.205588,0.371298,-0.008855,51,274,587,6240
1644186300.544749,-0.008911,0.011047,-0.992249,0.098718,0.478168,0.021679,49,275,589,6176
1644186300.593139,-0.008911,0.009094,-0.989624,0.144519,0.417099,-0.100458,53,271,590,6192
1644186300.641512,-0.005554,0.011169,-0.989807,0.098718,0.294962,-0.085191,52,275,584,6224
1644186300.68988,-0.007629,0.011963,-0.990295,0.251389,0.371298,-0.069924,57,282,582,6192
1644186300.73829,-0.006653,0.009766,-0.989807,0.297191,0.264427,-0.054656,57,285,596,6224
1644186300.787035,-0.009338,0.008301,-0.993042,0.113985,0.493435,0.006412,48,271,580,6240
1644186300.838062,-0.008606,0.009827,-0.995239,0.220855,0.401832,-0.176794,55,266,590,6224
1644186300.888599,-0.007141,0.009583,-0.990845,0.144519,0.462901,-0.161527,48,279,594,6224
1644186300.933152,-0.009399,0.009583,-0.990967,0.373527,0.508702,-0.069924,49,277,582,6176
1644186301.028702,-0.007141,0.010559,-0.992676,0.312458,0.310229,0.113282,43,276,573,6224
1644186301.077185,-0.009155,0.011353,-0.990601,0.251389,0.386565,-0.039389,54,277,591,6240
1644186301.125464,-0.009277,0.013977,-0.993103,0.159786,0.432366,-0.085191,52,260,579,6224
1644186301.173843,-0.009277,0.009033,-0.993042,0.175053,0.356031,0.006412,52,277,584,6192
1644186301.222386,-0.006897,0.011047,-0.993591,0.342992,0.478168,-0.069924,41,271,580,6224
1644186301.270612,-0.010376,0.007507,-0.993652,0.35826,0.478168,-0.085191,51,279,573,6176
1644186301.319004,-0.010864,0.010986,-0.994263,0.236122,0.508702,-0.192061,51,279,578,6288
1644186301.3674,-0.008911,0.009277,-0.992676,0.236122,0.508702,0.036947,58,279,583,6160
1644186301.415807,-0.006348,0.007202,-0.992615,0.175053,0.401832,0.006412,45,282,579,6224
1644186301.464219,-0.008423,0.010193,-0.989685,0.251389,0.447634,-0.085191,45,275,584,6160
1644186301.51258,-0.007996,0.010071,-0.990906,0.297191,0.447634,-0.237863,52,285,579,6256
1644186301.560984,-0.007507,0.01062,-0.990295,0.236122,0.432366,-0.237863,54,268,586,6224
1644186301.609378,-0.010132,0.009644,-0.99115,0.159786,0.356031,-0.100458,46,276,580,6224
1644186301.657778,-0.009155,0.011475,-0.990234,0.388794,0.493435,0.174351,51,271,580,6240
1644186301.706153,-0.009399,0.012329,-0.991699,0.175053,0.325496,-0.130992,54,282,591,6240
1644186301.754522,-0.006226,0.012146,-0.990051,0.129252,0.417099,-0.085191,53,274,599,6176
1644186301.802948,-0.00885,0.007874,-0.992371,0.08345,0.493435,0.006412,51,276,580,6160
1644186301.851369,-0.005371,0.008911,-0.99231,0.190321,0.371298,-0.130992,43,264,587,6240
1644186301.899783,-0.007568,0.009033,-0.991638,0.08345,0.386565,-0.008855,43,279,585,6240
1644186301.949271,-0.008423,0.009766,-0.992493,0.175053,0.539237,-0.14626,38,280,589,6240
1644186301.999632,-0.01062,0.007507,-0.992004,0.327725,0.386565,-0.039389,52,270,577,6224
1644186302.069056,-0.008179,0.011597,-0.990479,0.159786,0.401832,-0.069924,58,271,590,6160
1644186302.098302,-0.007629,0.011597,-0.987427,0.266656,0.462901,-0.192061,54,287,584,6240
1644186302.190086,-0.009583,0.00946,-0.990234,0.35826,0.417099,-0.130992,43,286,580,6160
1644186302.238453,-0.007324,0.008667,-0.990417,0.098718,0.386565,0.006412,53,276,590,6240
1644186302.28684,-0.007141,0.009949,-0.992004,0.297191,0.371298,-0.054656,40,273,582,6240
1644186302.335256,-0.008789,0.008667,-0.991943,0.388794,0.417099,-0.085191,55,274,583,6192
1644186302.383676,-0.009949,0.009094,-0.992126,0.159786,0.462901,-0.054656,35,275,589,6224
1644186302.432062,-0.010193,0.009399,-0.989502,0.220855,0.417099,-0.039389,48,266,587,6176
1644186302.480454,-0.009399,0.010864,-0.992126,0.281924,0.417099,0.067481,41,283,580,6224
1644186302.528846,-0.006653,0.007202,-0.992981,0.281924,0.417099,-0.100458,48,271,573,6224
1644186302.577215,-0.009888,0.012817,-0.994019,0.236122,0.417099,-0.085191,51,271,573,6224
1644186302.625626,-0.006409,0.011536,-0.991821,0.35826,0.356031,-0.085191,42,277,584,6240
1644186302.674012,-0.005066,0.009277,-0.994812,0.190321,0.493435,-0.14626,53,276,587,6192
1644186302.722417,-0.007446,0.010742,-0.992126,0.08345,0.401832,-0.069924,55,269,583,6192
1644186302.770792,-0.008423,0.010071,-0.990723,0.281924,0.24916,-0.039389,38,280,586,6240
1644186302.819204,-0.006592,0.010559,-0.992065,0.175053,0.24916,-0.14626,52,280,591,6224
1644186302.867603,-0.00592,0.00824,-0.99292,0.144519,0.340763,-0.008855,46,271,583,6256
1644186302.916023,-0.006104,0.010376,-0.989746,0.144519,0.279695,-0.069924,58,271,580,6224
1644186302.964421,-0.008362,0.009705,-0.990356,0.113985,0.401832,-0.008855,51,269,587,6192
1644186303.012938,-0.010132,0.011536,-0.991272,0.159786,0.371298,-0.039389,45,277,586,6240
1644186303.084216,-0.009277,0.003479,-0.992065,0.373527,0.386565,-0.039389,55,271,587,6256
1644186303.115224,-0.007812,0.009338,-0.98999,0.068183,0.539237,-0.176794,46,279,585,6160
1644186303.206354,-0.008972,0.008728,-0.994568,0.205588,0.447634,-0.054656,47,282,584,6160
1644186303.254859,-0.011108,0.006958,-0.98999,0.312458,0.447634,-0.14626,43,276,585,6224
1644186303.303143,-0.008301,0.007996,-0.992432,0.312458,0.447634,-0.130992,52,282,582,6192
1644186303.351511,-0.008362,0.007935,-0.993286,0.190321,0.478168,-0.100458,58,283,590,6160
1644186303.399921,-0.008484,0.01062,-0.991089,0.220855,0.264427,0.036947,52,277,579,6240
1644186303.44829,-0.009094,0.008972,-0.990845,0.205588,0.371298,-0.130992,55,276,580,6176
1644186303.496705,-0.009155,0.007446,-0.992737,0.266656,0.310229,-0.100458,47,273,584,6288
1644186303.545128,-0.009094,0.011169,-0.993591,0.113985,0.356031,-0.161527,48,271,587,6224
1644186303.5935,-0.009949,0.008484,-0.991882,0.159786,0.432366,-0.054656,48,279,585,6160
1644186303.641874,-0.007629,0.011108,-0.99115,0.419328,0.310229,-0.176794,49,270,589,6160
1644186303.690273,-0.006897,0.01062,-0.99408,0.159786,0.386565,-0.176794,57,275,575,6160
1644186303.738661,-0.010742,0.009094,-0.990173,0.068183,0.462901,-0.069924,59,270,584,6176
1644186303.787064,-0.005737,0.011597,-0.992126,0.175053,0.447634,-0.115725,57,282,589,6224
1644186303.83543,-0.010986,0.009277,-0.991638,0.205588,0.325496,-0.054656,38,277,579,6176
1644186303.883856,-0.008789,0.007935,-0.988525,0.129252,0.417099,-0.008855,48,271,590,6224
1644186303.932293,-0.006104,0.009644,-0.992493,0.159786,0.294962,-0.176794,48,274,580,6240
1644186303.980672,-0.006897,0.009583,-0.992615,0.251389,0.340763,-0.024122,45,285,582,6224
1644186304.029033,-0.006592,0.012817,-0.990906,0.190321,0.401832,-0.024122,57,282,589,6224
1644186304.089038,-0.006531,0.008972,-0.991699,0.251389,0.432366,-0.085191,49,280,591,6128
1644186304.128313,-0.00885,0.010803,-0.990723,0.236122,0.478168,-0.161527,60,276,592,6224
1644186304.178699,-0.009399,0.009583,-0.989563,0.266656,0.478168,0.098015,45,280,575,6176
1644186304.223372,-0.007263,0.01001,-0.993286,0.007115,0.401832,-0.085191,55,279,585,6240
1644186304.3194,-0.006104,0.008545,-0.992188,0.190321,0.386565,-0.130992,55,271,573,6224
1644186304.367806,-0.008728,0.008179,-0.991516,0.312458,0.401832,-0.039389,47,280,579,6176
1644186304.416196,-0.009888,0.008179,-0.993225,0.281924,0.325496,-0.161527,41,279,580,6240
1644186304.464642,-0.010254,0.007751,-0.992615,0.190321,0.417099,-0.100458,43,276,585,6192
1644186304.513015,-0.008057,0.00708,-0.99176,0.297191,0.432366,-0.085191,47,282,579,6224
1644186304.561386,-0.007202,0.009399,-0.993164,0.236122,0.401832,-0.207328,43,276,585,6240
1644186304.609792,-0.008789,0.010376,-0.991394,0.312458,0.371298,-0.161527,40,285,579,6224
1644186304.658159,-0.007202,0.010925,-0.991333,0.220855,0.554504,-0.024122,47,275,589,6192
1644186304.70656,-0.008667,0.010559,-0.993164,0.159786,0.279695,-0.14626,52,275,589,6288
1644186304.755111,-0.011292,0.008972,-0.991943,0.220855,0.218626,-0.100458,49,280,586,6176
1644186304.80337,-0.012756,0.008789,-0.990784,0.159786,0.432366,-0.085191,39,264,580,6192
1644186304.851745,-0.010132,0.00946,-0.993469,-0.069221,0.264427,-0.14626,43,266,580,6176
1644186304.900109,-0.009888,0.00946,-0.989563,0.068183,0.462901,-0.069924,46,276,578,6256
1644186304.94853,-0.00769,0.010193,-0.993103,0.220855,0.493435,-0.115725,48,281,587,6240
1644186304.996938,-0.011169,0.010864,-0.993042,0.312458,0.325496,-0.069924,49,275,572,6176
1644186305.062238,-0.00946,0.011902,-0.992371,0.175053,0.310229,-0.130992,45,282,586,6224
1644186305.096196,-0.011536,0.009888,-0.991394,0.236122,0.356031,-0.054656,48,276,587,6240
1644186305.142053,-0.007202,0.009644,-0.993286,0.266656,0.417099,-0.069924,49,273,582,6128
1644186305.190454,-0.008911,0.011292,-0.991333,0.205588,0.371298,-0.069924,60,262,594,6256
1644186305.239662,-0.009216,0.009888,-0.990662,0.175053,0.356031,-0.130992,54,282,575,6256
1644186305.289952,-0.007507,0.009216,-0.992676,0.159786,0.447634,-0.222595,46,279,590,6160
1644186305.340215,-0.009888,0.009094,-0.991089,0.281924,0.447634,0.021679,48,281,585,6224
1644186305.38523,-0.008179,0.009216,-0.990845,0.236122,0.294962,-0.024122,46,276,583,6224
1644186305.480814,-0.009216,0.01123,-0.99054,0.175053,0.417099,0.006412,48,281,585,6256
1644186305.529179,-0.007324,0.010986,-0.991882,0.220855,0.523969,0.098015,46,279,573,6224
1644186305.577585,-0.007568,0.013916,-0.993591,0.251389,0.554504,-0.207328,47,275,589,6192
1644186305.625984,-0.006348,0.006409,-0.990662,0.281924,0.386565,-0.008855,49,282,575,6176
1644186305.674376,-0.006958,0.005066,-0.99469,0.129252,0.417099,-0.130992,46,274,590,6288
1644186305.722792,-0.007019,0.010132,-0.992371,0.113985,0.325496,-0.008855,49,270,591,6160
1644186305.771177,-0.007751,0.012695,-0.990662,0.35826,0.462901,-0.100458,48,281,576,6224
1644186305.819611,-0.007507,0.01062,-0.99353,0.113985,0.462901,-0.100458,36,283,587,6288
1644186305.867994,-0.009033,0.008301,-0.989624,0.251389,0.493435,-0.069924,51,279,583,6192
1644186305.916365,-0.009338,0.009888,-0.993164,0.373527,0.462901,0.098015,52,280,575,6192
1644186305.964806,-0.005554,0.006958,-0.990662,0.35826,0.478168,-0.115725,61,277,586,6224
1644186306.01322,-0.006042,0.010193,-0.992126,0.251389,0.554504,0.021679,52,275,584,6224
1644186306.070374,-0.006897,0.010559,-0.989502,0.175053,0.478168,0.006412,58,286,587,6240
1644186306.109933,-0.006775,0.008728,-0.990784,0.113985,0.310229,-0.130992,52,287,582,6224
1644186306.158275,-0.007141,0.010559,-0.991272,0.144519,0.294962,-0.085191,53,276,585,6240
1644186306.206707,-0.010498,0.013,-0.991211,0.205588,0.539237,-0.024122,49,270,579,6192
1644186306.255148,-0.010437,0.006409,-0.992615,0.098718,0.310229,-0.085191,58,274,576,6240
1644186306.30349,-0.008728,0.006897,-0.991577,0.190321,0.539237,-0.039389,53,274,578,6192
1644186306.352073,-0.011353,0.009888,-0.993286,0.022382,0.371298,-0.024122,55,281,580,6224
1644186306.402942,-0.008179,0.009277,-0.993103,0.205588,0.432366,-0.008855,43,269,587,6224
1644186306.453036,-0.009094,0.00885,-0.992859,0.251389,0.523969,-0.069924,45,285,577,6176
1644186306.498067,-0.008118,0.010498,-0.989685,0.08345,0.356031,-0.115725,52,282,589,6224
1644186306.593832,-0.00946,0.009399,-0.991272,0.297191,0.508702,0.021679,46,286,578,6176
1644186306.642395,-0.007202,0.009094,-0.993713,0.220855,0.539237,-0.008855,30,280,577,6240
1644186306.690635,-0.008118,0.010986,-0.990723,0.175053,0.462901,-0.054656,43,279,585,6240
1644186306.739029,-0.009216,0.009094,-0.990906,0.190321,0.340763,-0.130992,46,279,583,6224
1644186306.78739,-0.007202,0.011963,-0.992859,0.190321,0.523969,-0.161527,48,271,571,6176
1644186306.835852,-0.007141,0.009827,-0.990295,0.205588,0.371298,-0.054656,53,274,576,6288
1644186306.884255,-0.010437,0.007385,-0.994568,0.236122,0.386565,-0.085191,48,286,583,6224
1644186306.932661,-0.008911,0.012024,-0.990173,0.022382,0.401832,-0.085191,48,271,585,6224
1644186306.981034,-0.009888,0.012207,-0.992065,0.251389,0.462901,-0.039389,51,276,573,6256
1644186307.029422,-0.008362,0.008728,-0.993896,0.098718,0.432366,-0.192061,43,269,578,6160
1644186307.082768,-0.008179,0.009338,-0.993042,0.312458,0.356031,-0.039389,46,279,580,6176
1644186307.126167,-0.006775,0.009949,-0.990662,0.159786,0.447634,-0.192061,47,275,579,6240
1644186307.174675,-0.008545,0.009277,-0.99115,0.404061,0.401832,-0.100458,59,277,582,6224
1644186307.222976,-0.006958,0.008484,-0.993408,0.190321,0.417099,-0.039389,45,282,584,6256
1644186307.271344,-0.007446,0.010132,-0.993408,0.098718,0.462901,-0.130992,51,274,587,6176
1644186307.319749,-0.004822,0.012634,-0.990906,0.312458,0.356031,-0.069924,60,269,576,6192
1644186307.368114,-0.008057,0.012268,-0.992432,0.373527,0.478168,-0.115725,41,279,583,6240
1644186307.416526,-0.008606,0.009521,-0.991516,0.144519,0.417099,-0.161527,53,266,585,6256
1644186307.464982,-0.004395,0.01239,-0.989685,0.098718,0.432366,-0.069924,47,270,589,6256
1644186307.514536,-0.00946,0.009338,-0.989685,0.144519,0.462901,-0.14626,54,282,579,6192
1644186307.565004,-0.00946,0.013306,-0.991821,0.297191,0.401832,-0.100458,49,265,570,6192
1644186307.615049,-0.008423,0.010498,-0.992126,0.281924,0.432366,-0.314198,51,283,580,6224
1644186307.70687,-0.010254,0.01001,-0.992798,0.266656,0.310229,-0.192061,51,264,578,6240
1644186307.755399,-0.009338,0.010132,-0.992126,0.205588,0.401832,-0.069924,58,279,592,6192
1644186307.803741,-0.007446,0.010376,-0.992126,0.327725,0.508702,-0.085191,40,275,579,6224
1644186307.852164,-0.01001,0.009338,-0.992554,0.220855,0.24916,-0.268397,51,266,585,6224
1644186307.900485,-0.011414,0.009766,-0.992004,0.159786,0.386565,-0.192061,42,268,584,6176
1644186307.948889,-0.008118,0.011475,-0.993896,0.159786,0.401832,-0.069924,55,279,585,6256
1644186307.997258,-0.008057,0.010193,-0.99292,0.129252,0.417099,-0.054656,46,279,578,6160
1644186308.062001,-0.005249,0.00946,-0.992188,0.190321,0.386565,-0.054656,47,282,582,6176
1644186308.096917,-0.006104,0.013123,-0.993835,0.220855,0.401832,-0.100458,46,274,587,6224
1644186308.142443,-0.01062,0.008789,-0.989075,0.251389,0.401832,-0.176794,52,275,575,6256
1644186308.190805,-0.005371,0.013855,-0.991272,0.190321,0.386565,0.021679,47,280,577,6176
1644186308.239212,-0.007385,0.007935,-0.988403,0.144519,0.493435,-0.115725,43,279,587,6176
1644186308.287603,-0.006775,0.009644,-0.989502,0.251389,0.432366,-0.100458,55,274,580,6176
1644186308.335999,-0.00769,0.012085,-0.991455,0.190321,0.340763,-0.024122,51,274,592,6224
1644186308.384379,-0.010925,0.009399,-0.993469,0.236122,0.386565,-0.176794,54,277,577,6192
1644186308.432795,-0.010376,0.008179,-0.99231,0.175053,0.478168,0.021679,47,275,577,6224
1644186308.481418,-0.008789,0.009766,-0.994019,0.251389,0.356031,-0.192061,42,282,593,6224
1644186308.52957,-0.006775,0.009155,-0.992371,0.312458,0.386565,0.006412,45,275,577,6240
1644186308.578954,-0.008362,0.009827,-0.990662,0.175053,0.279695,-0.130992,48,274,583,6224
1644186308.629452,-0.009583,0.011414,-0.992249,0.251389,0.401832,-0.100458,48,274,576,6224
1644186308.679959,-0.01062,0.009155,-0.990845,0.098718,0.508702,-0.100458,58,283,573,6192
1644186308.771545,-0.009766,0.010254,-0.992004,0.190321,0.310229,-0.039389,52,268,584,6176
1644186308.819921,-0.006775,0.013,-0.991089,0.297191,0.417099,-0.100458,42,273,591,6304
1644186308.868351,-0.006042,0.010315,-0.990906,0.205588,0.417099,-0.100458,53,281,578,6224
1644186308.91674,-0.009583,0.008423,-0.992859,0.220855,0.401832,-0.069924,46,281,592,6160
1644186308.965179,-0.00946,0.011353,-0.991333,0.220855,0.523969,-0.25313,41,279,585,6240
1644186309.013535,-0.008484,0.009521,-0.991699,0.175053,0.478168,-0.192061,47,282,575,6240
1644186309.063045,-0.009033,0.007324,-0.989746,0.236122,0.447634,0.021679,45,270,589,6176
1644186309.110277,-0.011169,0.010193,-0.990784,0.205588,0.417099,0.036947,53,276,583,6240
1644186309.158873,-0.008911,0.011597,-0.992615,0.35826,0.417099,-0.14626,48,279,578,6288
1644186309.207066,-0.008545,0.01178,-0.994446,0.159786,0.386565,-0.100458,49,275,586,6176
1644186309.255456,-0.008484,0.012329,-0.990295,0.236122,0.264427,-0.024122,53,281,580,6224
1644186309.303879,-0.009216,0.009338,-0.993713,0.205588,0.462901,-0.069924,49,275,584,6240
1644186309.352271,-0.008789,0.012939,-0.994263,0.098718,0.417099,-0.039389,52,268,586,6240
1644186309.400639,-0.007324,0.008484,-0.992371,0.266656,0.447634,-0.115725,48,274,587,6224
1644186309.449036,-0.009705,0.012329,-0.990417,0.281924,0.24916,0.036947,54,287,584,6224
1644186309.497395,-0.00708,0.010864,-0.988586,0.220855,0.447634,-0.207328,48,279,594,6256
1644186309.545808,-0.008545,0.009827,-0.99292,0.190321,0.401832,-0.069924,42,285,582,6224
1644186309.594209,-0.009399,0.009094,-0.990112,0.08345,0.417099,-0.024122,41,274,576,6224
1644186309.642722,-0.006775,0.005981,-0.992249,0.220855,0.356031,-0.100458,49,268,591,6240
1644186309.691571,-0.006897,0.009521,-0.992676,0.205588,0.417099,-0.039389,48,271,583,6368
1644186309.742158,-0.008789,0.010559,-0.991089,0.175053,0.325496,-0.054656,49,287,586,6224
1644186309.792663,-0.013062,0.012268,-0.991455,0.220855,0.401832,-0.008855,51,279,580,6192
1644186309.838377,-0.010986,0.008423,-0.993225,0.312458,0.386565,0.067481,57,275,582,6128
1644186309.933031,-0.005127,0.009949,-0.992981,0.236122,0.340763,-0.192061,59,277,584,6224
1644186309.981382,-0.006958,0.00885,-0.990906,0.175053,0.294962,-0.008855,49,285,584,6240
1644186310.029768,-0.007812,0.010254,-0.991699,0.159786,0.310229,-0.054656,58,271,583,6224
1644186310.078637,-0.009521,0.010681,-0.98877,0.190321,0.523969,-0.176794,42,277,591,6176
1644186310.126575,-0.009277,0.011414,-0.992493,0.159786,0.447634,-0.314198,40,287,579,6192
1644186310.174915,-0.006592,0.010132,-0.990845,0.281924,0.462901,-0.039389,42,277,591,6176
1644186310.223328,-0.008789,0.010681,-0.990356,0.205588,0.356031,-0.054656,53,266,585,6240
1644186310.271687,-0.008362,0.009766,-0.992065,0.205588,0.401832,-0.039389,54,282,584,6192
1644186310.32011,-0.007629,0.009338,-0.991516,0.342992,0.233893,-0.130992,61,280,579,6224
1644186310.368498,-0.008972,0.009216,-0.993042,0.266656,0.462901,-0.039389,52,277,582,6160
1644186310.416893,-0.008789,0.01001,-0.991882,0.251389,0.340763,-0.039389,46,286,583,6224
1644186310.465292,-0.008972,0.012146,-0.992737,0.144519,0.417099,-0.268397,55,271,583,6240
1644186310.513664,-0.005981,0.007446,-0.991333,0.220855,0.478168,0.052214,48,281,587,6192
1644186310.562063,-0.008423,0.009155,-0.993042,0.190321,0.356031,0.082748,42,280,584,6224
1644186310.610453,-0.005249,0.01123,-0.990845,0.327725,0.585038,-0.14626,48,271,597,6240
1644186310.658851,-0.005737,0.007507,-0.991028,-0.038687,0.325496,-0.054656,52,280,586,6224
1644186310.707248,-0.009399,0.010559,-0.99292,0.388794,0.356031,-0.039389,54,275,591,6224
1644186310.755615,-0.009155,0.00885,-0.993042,0.281924,0.462901,0.006412,46,276,578,6224
1644186310.804033,-0.009583,0.00708,-0.993225,0.281924,0.417099,-0.054656,48,283,573,6224
1644186310.854042,-0.012085,0.008911,-0.992371,0.281924,0.386565,-0.069924,46,279,594,6160
1644186310.904075,-0.007263,0.008301,-0.991272,0.297191,0.432366,-0.222595,43,271,585,6240
1644186310.95434,-0.005737,0.011963,-0.993774,0.388794,0.462901,0.036947,53,279,587,6224
1644186311.060826,-0.009399,0.009033,-0.989014,0.175053,0.432366,-0.100458,48,276,599,6240
1644186311.096609,-0.01001,0.009338,-0.992554,0.327725,0.356031,-0.237863,54,282,582,6240
1644186311.14285,-0.009521,0.013794,-0.992554,0.281924,0.417099,-0.024122,47,273,589,6224
1644186311.191177,-0.009583,0.008972,-0.990723,0.144519,0.340763,0.113282,43,276,578,6240
1644186311.239583,-0.007568,0.01178,-0.991821,0.281924,0.279695,-0.161527,47,277,579,6192
1644186311.287969,-0.008545,0.007568,-0.991272,0.037649,0.371298,-0.039389,54,270,593,6240
1644186311.336355,-0.006714,0.006531,-0.992126,0.205588,0.432366,-0.222595,54,287,593,6192
1644186311.384755,-0.007874,0.010864,-0.990601,0.052916,0.294962,-0.14626,46,276,585,6192
1644186311.433168,-0.010376,0.009399,-0.993958,0.327725,0.279695,-0.085191,49,275,575,6224
1644186311.48152,-0.008728,0.008606,-0.993469,0.312458,0.401832,0.021679,46,276,590,6128
1644186311.529896,-0.00592,0.00946,-0.989319,0.220855,0.325496,-0.008855,45,280,579,6224
1644186311.578495,-0.007507,0.011047,-0.990417,0.434595,0.447634,-0.14626,49,281,571,6224
1644186311.627826,-0.013245,0.010315,-0.990112,0.175053,0.417099,0.143817,43,269,578,6192
1644186311.678478,-0.008118,0.010193,-0.98999,0.342992,0.447634,-0.237863,39,281,583,6176
1644186311.72853,-0.01001,0.012146,-0.994995,0.236122,0.340763,-0.039389,57,280,586,6304
1644186311.820307,-0.013123,0.010498,-0.991882,0.220855,0.264427,-0.085191,48,286,583,6240
1644186311.868701,-0.010132,0.010132,-0.989624,0.220855,0.554504,-0.100458,52,287,584,6176
1644186311.917109,-0.007507,0.009399,-0.992981,0.113985,0.508702,-0.176794,49,277,579,6240
1644186311.965468,-0.00885,0.010437,-0.99054,0.129252,0.356031,-0.14626,51,281,585,6224
1644186312.013896,-0.005737,0.010376,-0.992554,0.266656,0.340763,-0.085191,43,271,578,6224
1644186312.063103,-0.007874,0.010681,-0.993042,0.220855,0.371298,-0.100458,36,286,585,6176
1644186312.110655,-0.009155,0.010376,-0.992676,0.266656,0.294962,-0.115725,41,269,583,6224
1644186312.159058,-0.008057,0.010071,-0.991333,0.159786,0.325496,-0.100458,42,282,584,6256
1644186312.207472,-0.008667,0.012878,-0.991089,0.281924,0.447634,-0.039389,57,290,584,6176
1644186312.255846,-0.010071,0.010498,-0.99231,0.190321,0.310229,-0.054656,46,283,583,6224
1644186312.304272,-0.00708,0.010315,-0.990356,0.205588,0.386565,-0.069924,53,279,576,6224
1644186312.352674,-0.011414,0.007812,-0.990723,0.495664,0.615573,-0.207328,55,283,590,6224
1644186312.401037,-0.00769,0.009766,-0.991943,0.205588,0.508702,-0.024122,47,275,584,6176
1644186312.449437,-0.008362,0.008911,-0.993652,0.312458,0.218626,-0.14626,53,276,585,6240
1644186312.497835,-0.010071,0.011475,-0.991028,0.342992,0.417099,-0.069924,41,279,592,6192
1644186312.546227,-0.009216,0.011353,-0.990479,0.251389,0.386565,-0.054656,46,276,587,6256
1644186312.594657,-0.005798,0.009216,-0.993225,0.144519,0.432366,-0.024122,51,274,590,6224
1644186312.64329,-0.009949,0.010254,-0.992676,0.281924,0.386565,-0.024122,45,285,591,6224
1644186312.691408,-0.010132,0.009888,-0.992493,0.327725,0.539237,-0.161527,52,270,579,6240
1644186312.741114,-0.009644,0.008179,-0.992432,0.236122,0.432366,-0.314198,53,288,592,6176
1644186312.791454,-0.006042,0.008362,-0.993164,0.251389,0.508702,-0.115725,48,283,587,6224
1644186312.841718,-0.009399,0.010681,-0.993347,0.449863,0.447634,-0.039389,53,276,580,6224
1644186312.886347,-0.007935,0.01239,-0.990112,0.281924,0.401832,-0.161527,48,271,585,6224
1644186312.98175,-0.007996,0.009094,-0.994019,0.190321,0.401832,0.006412,46,274,583,6240
1644186313.03014,-0.007324,0.011292,-0.993103,0.388794,0.417099,-0.054656,40,270,584,6192
1644186313.078683,-0.009216,0.007507,-0.992371,0.205588,0.493435,-0.161527,51,276,590,6224
1644186313.126894,-0.008911,0.009521,-0.991943,0.312458,0.356031,-0.207328,58,279,580,6128
1644186313.175287,-0.011353,0.010986,-0.992798,0.312458,0.493435,-0.130992,40,265,586,6288
1644186313.223685,-0.009644,0.009766,-0.992188,0.236122,0.462901,-0.054656,46,271,578,6192
1644186313.272083,-0.009338,0.009766,-0.991333,0.297191,0.401832,-0.008855,55,281,585,6304
1644186313.320476,-0.009155,0.01001,-0.991577,0.297191,0.432366,-0.008855,52,270,577,6288
1644186313.368865,-0.008789,0.008118,-0.992371,0.220855,0.447634,0.082748,46,276,573,6256
1644186313.417246,-0.009827,0.01001,-0.990662,0.297191,0.371298,-0.130992,48,281,576,6160
1644186313.465646,-0.008118,0.010925,-0.991577,0.281924,0.279695,-0.024122,52,282,584,6176
1644186313.514013,-0.008057,0.010437,-0.990051,0.129252,0.203359,-0.069924,53,271,587,6256
1644186313.562454,-0.011353,0.011841,-0.992249,0.129252,0.523969,-0.024122,47,285,577,6224
1644186313.610834,-0.008606,0.008667,-0.99231,0.236122,0.462901,-0.054656,47,282,570,6176
1644186313.659231,-0.007263,0.011414,-0.990906,0.220855,0.371298,-0.085191,40,277,579,6240
1644186313.707606,-0.007874,0.009888,-0.990723,0.190321,0.340763,-0.130992,57,277,591,6288
1644186313.755993,-0.005737,0.010925,-0.991333,0.236122,0.447634,-0.176794,48,281,578,6256
1644186313.80478,-0.009705,0.011169,-0.991028,0.281924,0.508702,-0.130992,48,276,578,6224
1644186313.852865,-0.009827,0.009827,-0.994141,0.373527,0.508702,-0.008855,48,288,578,6224
1644186313.90272,-0.006897,0.01239,-0.990845,0.327725,0.539237,0.021679,48,281,590,6224
1644186313.953185,-0.007812,0.008606,-0.98999,0.144519,0.417099,-0.130992,48,288,590,6224
1644186314.003346,-0.005615,0.008606,-0.989197,0.129252,0.417099,-0.054656,55,271,580,6224
1644186314.098213,-0.006897,0.01123,-0.992493,0.159786,0.493435,-0.207328,48,279,587,6160
1644186314.143127,-0.011292,0.010315,-0.993286,0.388794,0.600305,-0.069924,51,271,573,6176
1644186314.191527,-0.009216,0.010376,-0.991699,0.373527,0.523969,-0.054656,40,273,582,6224
1644186314.239912,-0.010803,0.010132,-0.992065,0.373527,0.386565,-0.008855,55,266,573,6160
1644186314.288315,-0.008667,0.009277,-0.98938,0.205588,0.371298,-0.115725,48,269,583,6176
1644186314.336724,-0.011475,0.011169,-0.993164,0.220855,0.294962,-0.008855,51,279,576,6304
1644186314.385131,-0.008057,0.007202,-0.991882,0.251389,0.356031,-0.222595,52,280,577,6224
1644186314.433498,-0.007568,0.011292,-0.99292,0.281924,0.462901,-0.283664,53,281,587,6176
1644186314.481898,-0.009033,0.010681,-0.993042,0.098718,0.462901,-0.085191,47,273,586,6224
1644186314.53029,-0.008118,0.009521,-0.994629,0.205588,0.462901,-0.100458,46,266,571,6224
1644186314.57868,-0.008362,0.005432,-0.99353,0.129252,0.401832,0.098015,54,282,582,6176
1644186314.627074,-0.010376,0.008057,-0.992126,0.190321,0.401832,-0.130992,51,266,578,6192
1644186314.67547,-0.007874,0.009644,-0.994629,0.144519,0.493435,0.052214,57,275,582,6240
1644186314.723863,-0.007446,0.007141,-0.995056,0.205588,0.417099,-0.054656,45,280,577,6224
1644186314.772278,-0.010925,0.007202,-0.990112,0.205588,0.523969,-0.161527,40,275,584,6176
1644186314.820699,-0.007019,0.009399,-0.994263,0.297191,0.371298,-0.207328,49,277,582,6160
1644186314.869085,-0.00647,0.011475,-0.98938,0.022382,0.417099,-0.054656,47,277,579,6224
1644186314.918675,-0.004822,0.010864,-0.992004,0.190321,0.371298,0.12855,49,265,591,6256
1644186314.968245,-0.006165,0.010681,-0.993774,0.266656,0.523969,-0.085191,43,276,580,6224
1644186315.06524,-0.009583,0.009888,-0.992004,0.312458,0.325496,-0.008855,48,271,580,6256
1644186315.110995,-0.006653,0.010315,-0.992126,0.220855,0.417099,-0.237863,45,270,586,6224
1644186315.159385,-0.011047,0.009155,-0.993103,0.342992,0.432366,0.082748,45,263,582,6240
1644186315.207787,-0.008972,0.009094,-0.989014,0.159786,0.356031,-0.054656,54,270,584,6112
1644186315.256157,-0.009277,0.008179,-0.993408,0.190321,0.478168,-0.130992,53,276,578,6176
1644186315.304617,-0.010193,0.007812,-0.989807,0.266656,0.508702,-0.161527,51,276,580,6192
1644186315.352985,-0.006104,0.009705,-0.990967,0.266656,0.432366,-0.054656,47,273,584,6256
1644186315.401351,-0.007507,0.008545,-0.991821,0.144519,0.279695,0.036947,41,283,583,6192
1644186315.449753,-0.010193,0.008057,-0.991333,0.175053,0.462901,-0.130992,53,271,587,6192
1644186315.498129,-0.00769,0.009644,-0.991943,0.236122,0.523969,-0.039389,39,276,585,6224
1644186315.546552,-0.008179,0.008667,-0.992432,0.342992,0.432366,-0.039389,51,269,580,6240
1644186315.595049,-0.008179,0.010559,-0.989929,0.129252,0.386565,-0.054656,55,274,587,6240
1644186315.643339,-0.009888,0.008362,-0.993591,0.190321,0.325496,-0.192061,48,274,585,6288
1644186315.691704,-0.01062,0.011108,-0.995239,0.190321,0.417099,-0.161527,45,277,589,6224
1644186315.740161,-0.007568,0.009399,-0.991272,0.144519,0.340763,-0.054656,49,285,584,6192
1644186315.78851,-0.009644,0.008484,-0.990356,0.190321,0.432366,-0.069924,41,276,590,6192
1644186315.837724,-0.008972,0.009033,-0.99292,0.205588,0.386565,0.113282,47,268,596,6240
1644186315.88572,-0.009216,0.008301,-0.991516,0.251389,0.356031,-0.298931,51,276,587,6256
1644186315.935822,-0.010498,0.007751,-0.992615,0.312458,0.401832,0.006412,54,270,593,6240
1644186315.986498,-0.010315,0.009399,-0.991699,0.175053,0.432366,-0.085191,47,275,579,6288
1644186316.030743,-0.007385,0.011292,-0.990601,0.388794,0.417099,0.082748,36,276,590,6240
1644186316.127281,-0.010315,0.011047,-0.989746,0.236122,0.356031,-0.054656,45,290,577,6176
1644186316.175633,-0.007996,0.009705,-0.989502,0.236122,0.356031,-0.115725,54,275,591,6224
1644186316.224043,-0.006897,0.008667,-0.992188,0.327725,0.432366,-0.192061,51,276,587,6240
1644186316.272453,-0.007935,0.010986,-0.992188,0.144519,0.493435,-0.008855,47,280,577,6224
1644186316.320807,-0.010193,0.010315,-0.990479,0.098718,0.462901,0.036947,39,274,585,6176
1644186316.369202,-0.008423,0.010925,-0.992615,0.175053,0.539237,-0.115725,49,280,586,6288
1644186316.417596,-0.010437,0.010132,-0.992126,0.08345,0.432366,0.006412,48,274,580,6224
1644186316.465992,-0.007996,0.007935,-0.990906,0.098718,0.432366,-0.115725,47,282,584,6240
1644186316.514411,-0.007629,0.009888,-0.99231,0.113985,0.371298,-0.085191,47,277,582,6240
1644186316.562809,-0.008667,0.011414,-0.992493,0.205588,0.386565,-0.14626,51,276,580,6256
1644186316.611194,-0.007751,0.01123,-0.990784,0.312458,0.356031,-0.192061,58,276,587,6224
1644186316.659552,-0.008972,0.009338,-0.993286,0.281924,0.401832,-0.069924,40,280,584,6176
1644186316.707968,-0.01001,0.010864,-0.991394,0.251389,0.325496,-0.130992,58,274,594,6224
1644186316.756353,-0.008484,0.009216,-0.993164,0.175053,0.63084,-0.039389,53,279,585,6256
1644186316.804767,-0.005493,0.009521,-0.994385,0.236122,0.294962,-0.268397,46,281,576,6224
1644186316.853189,-0.00769,0.007568,-0.992798,0.236122,0.371298,-0.085191,53,288,585,6224
1644186316.901574,-0.007996,0.009521,-0.995667,0.281924,0.401832,-0.222595,42,270,596,6224
1644186316.950307,-0.009521,0.008972,-0.990784,0.297191,0.386565,-0.054656,57,277,589,6224
1644186316.998363,-0.006287,0.007812,-0.991028,0.129252,0.325496,-0.100458,52,285,591,6192
1644186317.066776,-0.009949,0.009888,-0.992126,0.159786,0.310229,-0.039389,54,282,589,6224
1644186317.106342,-0.009277,0.01001,-0.99292,0.266656,0.447634,-0.192061,47,282,591,6304
1644186317.146605,-0.009949,0.008667,-0.99353,0.251389,0.539237,-0.14626,51,279,587,6240
1644186317.240294,-0.011292,0.007751,-0.992676,0.312458,0.447634,-0.024122,46,286,576,6224
1644186317.288672,-0.008667,0.009705,-0.993164,0.144519,0.493435,0.021679,53,274,576,6224
1644186317.337062,-0.009583,0.007996,-0.992371,0.08345,0.325496,-0.130992,47,265,589,6160
1644186317.385458,-0.007874,0.006775,-0.991333,0.007115,0.447634,-0.085191,53,283,583,6176
1644186317.433876,-0.00885,0.005615,-0.99292,0.144519,0.539237,-0.130992,51,274,587,6256
1644186317.482277,-0.009094,0.011597,-0.994568,0.251389,0.447634,0.006412,57,275,575,6192
1644186317.530661,-0.008301,0.010254,-0.990234,0.144519,0.493435,-0.039389,47,280,586,6240
1644186317.579055,-0.013367,0.010376,-0.989319,0.205588,0.310229,-0.100458,54,282,593,6224
1644186317.627442,-0.009399,0.009766,-0.995972,0.129252,0.356031,0.036947,51,276,571,6224
1644186317.675838,-0.008423,0.008118,-0.989075,0.266656,0.417099,-0.085191,52,273,584,6256
1644186317.724237,-0.007751,0.009277,-0.991455,0.205588,0.417099,-0.100458,48,288,590,6224
1644186317.772633,-0.008911,0.007385,-0.990417,0.236122,0.279695,-0.054656,51,281,590,6192
1644186317.821005,-0.012024,0.00946,-0.991577,0.251389,0.325496,-0.039389,51,276,576,6224
1644186317.869442,-0.006409,0.010132,-0.994507,0.08345,0.478168,-0.237863,48,274,597,6224
1644186317.91781,-0.010193,0.009399,-0.991333,0.266656,0.508702,0.006412,49,273,582,6240
1644186317.967692,-0.008911,0.009705,-0.992615,0.175053,0.554504,-0.069924,51,274,585,6256
1644186318.014651,-0.010254,0.009216,-0.992859,0.236122,0.279695,-0.100458,45,268,584,6240
1644186318.077268,-0.007568,0.008118,-0.991699,0.236122,0.447634,-0.207328,46,283,592,6192
1644186318.115329,-0.011475,0.010559,-0.991333,0.190321,0.523969,-0.344733,40,285,572,6192
1644186318.165761,-0.007996,0.008972,-0.99231,0.190321,0.340763,-0.100458,57,282,570,6224
1644186318.256567,-0.007385,0.006897,-0.99292,0.098718,0.401832,-0.100458,48,271,583,6224
1644186318.305202,-0.009888,0.008545,-0.991943,0.220855,0.386565,-0.039389,54,270,577,6240
1644186318.353327,-0.010071,0.010559,-0.990051,0.144519,0.356031,-0.054656,59,282,589,6224
1644186318.401734,-0.007629,0.013489,-0.990784,0.220855,0.493435,-0.176794,51,276,580,6224
1644186318.450114,-0.007263,0.009155,-0.991455,0.144519,0.325496,-0.039389,41,274,580,6256
1644186318.498521,-0.007996,0.008057,-0.992004,0.159786,0.401832,-0.161527,39,274,585,6240
1644186318.546878,-0.013428,0.009338,-0.99054,0.098718,0.371298,-0.176794,43,269,594,6256
1644186318.595296,-0.008423,0.008545,-0.992432,0.052916,0.401832,-0.130992,54,275,586,6192
1644186318.643699,-0.012024,0.010132,-0.991699,0.205588,0.386565,0.036947,42,273,586,6176
1644186318.692144,-0.007019,0.010498,-0.991455,0.175053,0.523969,-0.024122,48,283,585,6224
1644186318.740483,-0.010376,0.008301,-0.992249,0.068183,0.279695,0.036947,49,280,589,6192
1644186318.788877,-0.010559,0.009827,-0.991272,0.342992,0.417099,-0.024122,51,269,590,6256
1644186318.837258,-0.00824,0.006409,-0.993286,0.236122,0.417099,-0.039389,55,274,585,6224
1644186318.885694,-0.008789,0.009155,-0.991333,0.08345,0.478168,-0.268397,49,282,579,6224
1644186318.934092,-0.007812,0.009888,-0.991638,0.236122,0.386565,-0.100458,41,286,578,6176
1644186318.982492,-0.009277,0.008423,-0.993042,0.144519,0.340763,0.12855,58,286,583,6224
1644186319.030869,-0.009705,0.011475,-0.990662,0.159786,0.447634,-0.054656,51,281,599,6192
1644186319.082751,-0.009094,0.010559,-0.995483,0.129252,0.462901,-0.237863,53,274,592,6224
1644186319.127643,-0.009399,0.009705,-0.990906,0.281924,0.386565,-0.115725,47,275,589,6176
1644186319.177743,-0.009033,0.008362,-0.994202,-0.084489,0.356031,-0.085191,57,275,586,6192
1644186319.227583,-0.012207,0.009583,-0.993164,0.236122,0.401832,-0.100458,41,286,592,6256
1644186319.277711,-0.008118,0.00946,-0.992004,0.312458,0.325496,-0.024122,51,274,576,6304
1644186319.322241,-0.010193,0.010315,-0.993652,0.190321,0.478168,-0.130992,46,271,590,6192
1644186319.418012,-0.008545,0.009338,-0.993347,0.175053,0.294962,-0.207328,52,273,582,6224
1644186319.466405,-0.006348,0.013062,-0.991455,0.190321,0.432366,-0.008855,52,270,579,6224
1644186319.514814,-0.007935,0.011292,-0.99176,0.068183,0.401832,-0.192061,60,274,580,6160
1644186319.563201,-0.005615,0.010742,-0.993286,0.281924,0.386565,0.006412,42,270,575,6240
1644186319.611588,-0.007996,0.008545,-0.992798,0.312458,0.417099,-0.039389,45,280,591,6128
1644186319.659985,-0.009338,0.008301,-0.990173,0.236122,0.432366,-0.176794,52,270,586,6224
1644186319.708394,-0.007446,0.00946,-0.99115,0.205588,0.508702,0.052214,43,283,578,6160
1644186319.756764,-0.009949,0.011414,-0.992126,0.220855,0.356031,-0.115725,49,277,575,6288
1644186319.805324,-0.009155,0.009827,-0.990723,0.281924,0.279695,-0.054656,48,274,578,6160
1644186319.853549,-0.007324,0.010254,-0.989502,0.129252,0.401832,-0.115725,41,269,585,6224
1644186319.901961,-0.008972,0.009338,-0.992737,0.159786,0.417099,-0.14626,57,280,591,6192
1644186319.950339,-0.008606,0.008301,-0.992004,0.175053,0.493435,-0.024122,43,271,592,6160
1644186319.998708,-0.009338,0.008789,-0.991089,0.236122,0.417099,-0.25313,54,270,586,6224
1644186320.054444,-0.007751,0.010742,-0.990662,0.281924,0.371298,-0.130992,47,268,584,6240
1644186320.095478,-0.011902,0.010376,-0.992065,0.144519,0.417099,-0.039389,51,283,592,6256
1644186320.143871,-0.006897,0.010559,-0.992493,0.190321,0.432366,-0.039389,48,283,580,6224
1644186320.19228,-0.010315,0.011414,-0.991821,0.236122,0.462901,-0.237863,52,275,589,6224
1644186320.240649,-0.008606,0.010681,-0.993896,0.388794,0.432366,-0.024122,48,281,580,6224
1644186320.289358,-0.009644,0.009033,-0.99292,0.068183,0.371298,-0.130992,51,276,583,6192
1644186320.338249,-0.008728,0.008667,-0.991882,0.388794,0.294962,-0.192061,46,274,590,6224
1644186320.389268,-0.007202,0.008972,-0.99353,0.266656,0.371298,-0.130992,42,273,582,6192
1644186320.438991,-0.00946,0.009399,-0.992126,0.251389,0.264427,-0.25313,52,273,593,6224
1644186320.483884,-0.008667,0.007019,-0.992188,0.266656,0.508702,-0.130992,43,266,587,6240
1644186320.579407,-0.007751,0.007996,-0.994385,0.281924,0.340763,-0.192061,46,269,576,6240
1644186320.627788,-0.008301,0.010925,-0.993042,0.098718,0.508702,-0.054656,47,273,582,6256
1644186320.676172,-0.009155,0.009277,-0.990845,0.190321,0.447634,-0.25313,51,283,578,6160
1644186320.72483,-0.012634,0.006775,-0.990417,0.312458,0.447634,-0.100458,46,264,592,6256
1644186320.772975,-0.009949,0.009094,-0.989624,0.068183,0.294962,-0.054656,54,282,579,6256
1644186320.821415,-0.010071,0.010742,-0.991455,0.159786,0.325496,-0.085191,52,275,582,6176
1644186320.86981,-0.010315,0.012268,-0.991211,0.220855,0.447634,-0.024122,41,279,583,6224
1644186320.918205,-0.008484,0.009766,-0.99115,0.220855,0.478168,-0.069924,49,282,584,6160
1644186320.9666,-0.007751,0.010193,-0.991394,0.205588,0.493435,-0.314198,65,279,576,6256
1644186321.015126,-0.009521,0.011597,-0.992188,0.266656,0.478168,0.067481,48,274,590,6240
1644186321.067904,-0.008179,0.009216,-0.991577,0.236122,0.386565,0.036947,45,277,589,6256
1644186321.111732,-0.008423,0.009888,-0.990601,0.205588,0.417099,-0.085191,52,273,584,6240
1644186321.160128,-0.007812,0.009766,-0.991516,0.205588,0.386565,-0.115725,49,273,584,6192
1644186321.208525,-0.009338,0.011047,-0.993713,0.251389,0.462901,-0.039389,46,279,587,6176
1644186321.256886,-0.00885,0.009827,-0.993958,0.113985,0.371298,-0.054656,45,265,591,6160
1644186321.305304,-0.007812,0.009277,-0.993713,0.159786,0.493435,-0.176794,52,277,577,6256
1644186321.353693,-0.008423,0.011414,-0.990479,0.068183,0.386565,-0.008855,57,273,579,6224
1644186321.402082,-0.007446,0.009033,-0.99231,0.312458,0.462901,-0.130992,52,275,572,6224
1644186321.450486,-0.009949,0.010742,-0.993286,0.373527,0.417099,-0.085191,48,276,580,6224
1644186321.499845,-0.01123,0.010437,-0.991333,0.297191,0.371298,-0.115725,42,268,589,6192
1644186321.549414,-0.010681,0.010071,-0.993103,0.251389,0.447634,-0.085191,52,268,577,6224
1644186321.599669,-0.00769,0.008057,-0.990356,0.312458,0.432366,-0.008855,49,280,579,6224
1644186321.644719,-0.009949,0.009399,-0.993347,0.236122,0.386565,-0.14626,45,275,579,6288
1644186321.740827,-0.008057,0.012024,-0.990051,0.144519,0.279695,-0.115725,52,273,584,6192
1644186321.789224,-0.00592,0.009583,-0.991333,0.08345,0.478168,-0.069924,47,277,582,6192
1644186321.837662,-0.01062,0.009338,-0.992493,0.327725,0.478168,-0.14626,55,274,583,6160
1644186321.886057,-0.00824,0.007935,-0.991333,0.129252,0.462901,-0.14626,51,281,587,6256
1644186321.934474,-0.010498,0.011108,-0.990234,0.129252,0.279695,-0.283664,48,279,585,6240
1644186321.982865,-0.008972,0.008423,-0.993286,0.144519,0.493435,-0.192061,42,277,591,6224
1644186322.031247,-0.008789,0.009399,-0.994446,0.190321,0.340763,-0.222595,47,277,582,6288
1644186322.081687,-0.012512,0.009888,-0.995361,0.312458,0.325496,-0.039389,54,292,591,6240
1644186322.127988,-0.009521,0.007263,-0.99292,0.35826,0.386565,-0.161527,52,275,577,6176
1644186322.176374,-0.010559,0.008362,-0.991699,0.220855,0.478168,-0.085191,51,266,583,6240
1644186322.224766,-0.010376,0.011353,-0.993958,0.266656,0.462901,-0.069924,43,286,578,6224
1644186322.273138,-0.009399,0.009277,-0.993958,0.236122,0.356031,-0.207328,53,283,587,6160
1644186322.321524,-0.010315,0.009277,-0.991577,0.190321,0.447634,-0.25313,54,273,568,6256
1644186322.36994,-0.008911,0.011963,-0.992004,0.281924,0.462901,-0.008855,51,279,594,6192
1644186322.418411,-0.008789,0.009888,-0.992432,0.068183,0.340763,-0.207328,42,270,584,6224
1644186322.468778,-0.011047,0.010254,-0.988953,0.220855,0.203359,0.098015,33,285,591,6224
1644186322.519072,-0.006592,0.009216,-0.992432,0.404061,0.462901,-0.192061,48,281,576,6224
1644186322.564028,-0.009094,0.011536,-0.991943,0.190321,0.539237,-0.115725,54,277,593,6192
1644186322.660304,-0.006592,0.009521,-0.992554,0.281924,0.73771,-0.100458,40,273,579,6256
1644186322.708676,-0.007385,0.011597,-0.98938,0.068183,0.417099,-0.100458,52,273,586,6224
1644186322.757059,-0.00592,0.010681,-0.990845,0.327725,0.417099,-0.008855,47,287,586,6224
1644186322.805481,-0.008911,0.009155,-0.991882,0.297191,0.386565,-0.100458,48,274,590,6224
1644186322.853922,-0.00824,0.010803,-0.993896,0.251389,0.508702,-0.069924,38,275,579,6192
1644186322.90229,-0.006165,0.009094,-0.991455,0.159786,0.371298,0.052214,46,259,578,6224
1644186322.950673,-0.010559,0.010132,-0.992493,0.144519,0.264427,-0.115725,58,274,585,6192
1644186322.999075,-0.007629,0.009888,-0.993286,0.35826,0.325496,-0.115725,53,279,592,6256
1644186323.057374,-0.005066,0.014893,-0.99176,0.205588,0.447634,0.006412,45,290,582,6176
1644186323.09781,-0.008057,0.01178,-0.991211,0.236122,0.508702,-0.100458,51,274,587,6240
1644186323.144239,-0.007935,0.009399,-0.989868,0.220855,0.432366,-0.14626,54,280,586,6256
1644186323.192636,-0.007446,0.00946,-0.992615,0.098718,0.401832,-0.069924,47,270,582,6224
1644186323.241021,-0.010254,0.007812,-0.989685,0.251389,0.340763,0.006412,51,281,590,6240
1644186323.289413,-0.008301,0.009888,-0.990051,0.113985,0.462901,-0.008855,52,282,582,6240
1644186323.33781,-0.01062,0.013306,-0.990662,0.373527,0.279695,-0.054656,43,271,583,6240
1644186323.386205,-0.009155,0.010437,-0.989014,0.144519,0.279695,-0.024122,53,271,585,6224
1644186323.434628,-0.007263,0.008057,-0.99231,0.404061,0.310229,-0.207328,41,276,587,6224
1644186323.483002,-0.010986,0.010681,-0.992126,0.098718,0.386565,-0.039389,45,270,593,6224
1644186323.531715,-0.008362,0.009644,-0.992004,0.175053,0.417099,0.036947,53,279,580,6224
1644186323.582456,-0.00885,0.010742,-0.990112,0.266656,0.371298,-0.100458,45,270,584,6192
1644186323.63235,-0.010071,0.009888,-0.991516,0.113985,0.371298,-0.008855,51,274,585,6192
1644186323.677561,-0.007385,0.00769,-0.991028,0.159786,0.371298,-0.14626,64,275,575,6176
1644186323.773352,-0.009033,0.009338,-0.991821,0.236122,0.386565,-0.222595,54,275,582,6256
1644186323.821727,-0.00592,0.010254,-0.99292,0.175053,0.478168,-0.085191,58,274,573,6240
1644186323.870157,-0.006165,0.009888,-0.990662,0.220855,0.447634,-0.085191,49,277,586,6224
1644186323.918549,-0.008789,0.01239,-0.990295,0.327725,0.188092,0.006412,40,280,575,6224
1644186323.966951,-0.006897,0.010315,-0.990784,0.220855,0.508702,-0.100458,52,277,579,6128
1644186324.01534,-0.007141,0.010742,-0.990784,0.236122,0.310229,-0.100458,51,279,587,6176
1644186324.067293,-0.007446,0.010376,-0.992065,0.190321,0.478168,-0.14626,47,277,591,6176
1644186324.112253,-0.007568,0.010071,-0.989929,0.190321,0.356031,-0.100458,51,276,590,6256
1644186324.160483,-0.009521,0.009949,-0.991882,0.236122,0.401832,-0.100458,42,280,579,6240
1644186324.208852,-0.005676,0.009583,-0.990295,0.220855,0.432366,-0.024122,51,279,578,6256
1644186324.257272,-0.005615,0.010071,-0.990906,0.175053,0.356031,-0.085191,46,279,583,6176
1644186324.305646,-0.010193,0.008972,-0.990479,0.251389,0.432366,-0.024122,52,275,575,6192
1644186324.354069,-0.008728,0.01239,-0.992859,0.220855,0.401832,-0.085191,51,274,583,6224
1644186324.402443,-0.009521,0.009216,-0.991821,0.190321,0.432366,0.12855,49,282,575,6160
1644186324.450851,-0.009338,0.010864,-0.989014,0.08345,0.462901,-0.25313,41,266,590,6224
1644186324.499239,-0.008789,0.012939,-0.991943,0.281924,0.325496,-0.085191,43,274,580,6192
1644186324.547629,-0.007446,0.009644,-0.991577,0.327725,0.356031,-0.161527,55,276,583,6176
1644186324.596023,-0.008484,0.011169,-0.993042,0.35826,0.340763,-0.085191,46,274,585,6240
1644186324.64441,-0.009216,0.01123,-0.991699,0.297191,0.386565,-0.054656,49,275,575,6240
1644186324.693186,-0.008789,0.010376,-0.990479,0.190321,0.447634,-0.176794,46,283,576,6192
1644186324.743435,-0.008789,0.013,-0.990906,0.129252,0.386565,-0.100458,53,269,592,6240
1644186324.793697,-0.008606,0.007874,-0.992188,0.297191,0.569771,-0.008855,46,269,580,6256
1644186324.838783,-0.009277,0.010254,-0.993286,0.220855,0.523969,-0.222595,43,274,583,6192
1644186324.934897,-0.006714,0.012451,-0.991272,0.266656,0.386565,-0.069924,46,276,583,6160
1644186324.983226,-0.007385,0.007141,-0.99176,0.098718,0.356031,-0.069924,46,274,585,6240
1644186325.031605,-0.010071,0.009216,-0.991577,0.037649,0.478168,-0.069924,49,270,584,6160
1644186325.080528,-0.009888,0.010437,-0.992981,0.312458,0.401832,-0.054656,40,275,591,6240
1644186325.128352,-0.005615,0.011292,-0.990051,0.190321,0.417099,0.006412,45,265,579,6224
1644186325.176733,-0.006958,0.009644,-0.993286,0.190321,0.386565,-0.008855,57,275,586,6256
1644186325.22516,-0.007812,0.008972,-0.990173,0.129252,0.325496,-0.100458,47,275,586,6224
1644186325.273517,-0.004761,0.00885,-0.992859,0.327725,0.325496,-0.100458,49,275,589,6224
1644186325.321927,-0.007751,0.00531,-0.993591,0.220855,0.600305,-0.085191,43,274,585,6224
1644186325.370313,-0.00824,0.007324,-0.992065,0.281924,0.325496,-0.14626,51,269,580,6240
1644186325.418707,-0.006531,0.011047,-0.990784,0.35826,0.356031,-0.100458,48,274,585,6256
1644186325.467081,-0.008606,0.01178,-0.992126,0.220855,0.401832,0.052214,59,277,582,6240
1644186325.515494,-0.009033,0.008728,-0.991699,0.175053,0.356031,-0.14626,47,285,591,6224
1644186325.563899,-0.008789,0.010925,-0.991089,0.220855,0.523969,-0.054656,52,282,586,6224
1644186325.612282,-0.007141,0.006531,-0.991394,0.251389,0.478168,-0.069924,59,270,591,6240
1644186325.660659,-0.009644,0.009827,-0.994141,0.129252,0.294962,-0.054656,47,282,591,6224
1644186325.709059,-0.007629,0.012573,-0.992249,0.373527,0.447634,-0.176794,51,281,590,6256
1644186325.757464,-0.009399,0.00769,-0.991699,0.35826,0.371298,-0.100458,54,282,586,6160
1644186325.805826,-0.009521,0.008728,-0.989685,0.35826,0.539237,-0.130992,54,277,577,6288
1644186325.854443,-0.006409,0.01239,-0.99231,0.251389,0.432366,-0.008855,49,282,586,6224
1644186325.905571,-0.008362,0.010742,-0.991577,0.220855,0.417099,-0.115725,46,281,585,6176
1644186325.956282,-0.006836,0.012085,-0.991455,0.251389,0.279695,0.052214,54,273,586,6240
1644186326.058964,-0.007874,0.007202,-0.993286,0.205588,0.523969,-0.008855,47,275,583,6240
1644186326.097184,-0.008911,0.012146,-0.992676,0.052916,0.447634,-0.085191,54,282,589,6256
1644186326.144642,-0.008179,0.008057,-0.98999,0.388794,0.203359,-0.115725,52,273,586,6240
1644186326.193007,-0.010132,0.007141,-0.991455,0.098718,0.371298,-0.054656,46,281,583,6224
1644186326.24139,-0.008301,0.008484,-0.994019,0.266656,0.356031,-0.054656,54,280,579,6160
1644186326.28978,-0.008118,0.00946,-0.995972,0.190321,0.523969,-0.130992,52,275,586,6224
1644186326.338178,-0.006897,0.013611,-0.991699,0.373527,0.432366,-0.25313,51,279,594,6192
1644186326.386558,-0.006653,0.007996,-0.991394,0.144519,0.264427,0.082748,46,274,580,6192
1644186326.434995,-0.006165,0.010071,-0.990295,0.205588,0.386565,-0.008855,53,276,583,6240
1644186326.483347,-0.007568,0.01001,-0.993896,0.144519,0.356031,-0.161527,41,281,576,6240
1644186326.531744,-0.010193,0.007629,-0.992493,0.175053,0.371298,-0.14626,42,277,584,6192
1644186326.580128,-0.010254,0.009033,-0.991882,0.220855,0.462901,-0.100458,48,274,585,6224
1644186326.62852,-0.010193,0.008911,-0.992493,0.281924,0.325496,-0.25313,58,286,580,6160
1644186326.677119,-0.008667,0.01001,-0.992615,0.419328,0.371298,-0.130992,52,275,589,6240
1644186326.727643,-0.009705,0.010681,-0.991333,0.251389,0.371298,-0.130992,55,266,592,6160
1644186326.777803,-0.007324,0.008362,-0.993774,-0.008153,0.447634,-0.176794,38,287,579,6160
1644186326.822831,-0.008972,0.01001,-0.991821,0.205588,0.371298,-0.130992,54,273,586,6192
1644186326.918915,-0.010559,0.010132,-0.992554,0.327725,0.386565,-0.14626,65,274,571,6192
1644186326.967309,-0.008118,0.008972,-0.992432,0.205588,0.447634,-0.085191,41,279,576,6176
1644186327.015708,-0.006775,0.011414,-0.991028,0.175053,0.401832,-0.069924,47,277,586,6224
1644186327.064295,-0.009949,0.008545,-0.992188,0.190321,0.401832,-0.176794,54,273,600,6176
1644186327.112491,-0.011108,0.009033,-0.990479,0.297191,0.264427,-0.100458,47,275,577,6224
1644186327.160821,-0.008972,0.008545,-0.993896,0.175053,0.264427,0.021679,42,270,579,6224
1644186327.209247,-0.008606,0.009766,-0.991638,0.251389,0.386565,-0.024122,55,274,571,6224
1644186327.257649,-0.010254,0.007263,-0.992065,0.205588,0.432366,0.036947,46,274,585,6224
1644186327.306034,-0.006226,0.009277,-0.990906,0.129252,0.447634,0.006412,45,260,582,6192
1644186327.354423,-0.012085,0.010498,-0.991272,0.312458,0.417099,-0.161527,39,274,571,6240
1644186327.402835,-0.009399,0.00824,-0.992432,0.342992,0.478168,0.052214,47,282,589,6224
1644186327.451224,-0.007629,0.009155,-0.993042,0.205588,0.401832,0.021679,57,275,591,6224
1644186327.499585,-0.007751,0.009277,-0.992859,0.129252,0.401832,-0.039389,46,271,587,6176
1644186327.548001,-0.00885,0.010193,-0.990906,0.327725,0.523969,-0.222595,49,282,586,6224
1644186327.596414,-0.008728,0.010315,-0.990173,0.175053,0.539237,-0.039389,52,275,586,6224
1644186327.644816,-0.00885,0.012329,-0.988647,0.205588,0.417099,-0.161527,59,280,596,6240
1644186327.693183,-0.013611,0.007446,-0.989014,0.266656,0.478168,-0.192061,38,280,596,6176
1644186327.74156,-0.010681,0.01001,-0.990356,0.281924,0.279695,-0.039389,51,274,583,6224
1644186327.790009,-0.006592,0.012573,-0.990234,0.281924,0.401832,-0.069924,45,285,584,6128
1644186327.839238,-0.009094,0.011719,-0.99176,0.08345,0.401832,-0.039389,46,276,585,6192
1644186327.889585,-0.00824,0.009033,-0.991028,0.510931,0.417099,-0.069924,42,275,584,6192
1644186327.939915,-0.007141,0.01001,-0.991882,0.159786,0.554504,0.006412,55,271,585,6224
1644186327.984411,-0.009888,0.009705,-0.992432,0.129252,0.523969,-0.14626,47,270,575,6224
1644186328.08289,-0.006287,0.011597,-0.991333,0.35826,0.325496,-0.054656,46,279,590,6240
1644186328.128696,-0.008972,0.008728,-0.991516,0.205588,0.371298,-0.039389,49,282,579,6240
1644186328.177101,-0.008911,0.010803,-0.992004,0.098718,0.417099,-0.100458,52,282,575,6192
1644186328.225491,-0.010132,0.011353,-0.992004,0.205588,0.600305,-0.024122,53,266,573,6224
1644186328.273876,-0.012939,0.009033,-0.993958,0.297191,0.508702,-0.039389,60,281,578,6224
1644186328.322293,-0.008423,0.008972,-0.98999,0.205588,0.386565,-0.085191,51,286,592,6224
1644186328.37068,-0.006714,0.008484,-0.990723,0.205588,0.493435,-0.054656,51,279,587,6176
1644186328.419066,-0.011292,0.008728,-0.99176,0.159786,0.417099,-0.085191,53,283,580,6240
1644186328.467474,-0.006165,0.010925,-0.993713,0.08345,0.417099,0.036947,45,277,584,6224
1644186328.515853,-0.012329,0.010437,-0.990723,0.175053,0.432366,-0.039389,45,275,591,6192
1644186328.564264,-0.009583,0.010315,-0.992737,0.159786,0.417099,0.021679,51,281,583,6224
1644186328.612645,-0.008362,0.011719,-0.993774,0.419328,0.356031,-0.161527,39,279,594,6192
1644186328.661042,-0.007568,0.008301,-0.990784,0.312458,0.371298,-0.024122,55,276,578,6240
1644186328.709438,-0.007751,0.008667,-0.990234,0.220855,0.356031,0.067481,45,268,596,6192
1644186328.757807,-0.009705,0.010132,-0.99115,0.159786,0.554504,-0.268397,48,276,583,6176
1644186328.806297,-0.010437,0.00824,-0.990784,0.098718,0.462901,0.098015,40,282,582,6192
1644186328.854931,-0.009033,0.009888,-0.990784,0.342992,0.417099,0.006412,51,274,573,6240
1644186328.904899,-0.010071,0.010315,-0.99176,0.113985,0.417099,0.006412,55,271,576,6240
1644186328.955305,-0.010315,0.009094,-0.993225,0.312458,0.432366,-0.176794,49,277,582,6224
1644186329.059073,-0.014465,0.010132,-0.992554,0.129252,0.386565,-0.115725,51,276,594,6240
1644186329.096776,-0.009094,0.007629,-0.991211,0.236122,0.447634,-0.085191,51,276,587,6240
1644186329.144993,-0.009705,0.006958,-0.990967,0.08345,0.310229,-0.130992,42,277,579,6192
1644186329.193356,-0.008362,0.01062,-0.992249,0.175053,0.340763,0.082748,58,281,573,6256
1644186329.241744,-0.008179,0.010498,-0.992554,0.297191,0.478168,-0.054656,46,271,571,6192
1644186329.290145,-0.01001,0.011169,-0.991516,0.297191,0.417099,-0.130992,48,274,585,6256
1644186329.33853,-0.012085,0.009766,-0.994507,0.297191,0.447634,-0.283664,48,274,580,6192
1644186329.386902,-0.006897,0.010742,-0.987732,0.266656,0.462901,-0.039389,52,280,577,6176
1644186329.435977,-0.010986,0.011108,-0.992004,0.144519,0.493435,-0.161527,48,274,587,6224
1644186329.483707,-0.007019,0.010254,-0.990845,0.052916,0.417099,-0.039389,49,280,579,6192
1644186329.53207,-0.009033,0.009583,-0.990845,0.190321,0.386565,-0.039389,62,274,583,6224
1644186329.580491,-0.008301,0.008301,-0.991455,0.220855,0.432366,0.021679,47,280,586,6224
1644186329.628891,-0.009155,0.011414,-0.991455,0.068183,0.478168,-0.100458,48,281,583,6224
1644186329.677412,-0.008301,0.009949,-0.991821,0.236122,0.432366,-0.268397,51,271,580,6240
1644186329.727431,-0.009155,0.009399,-0.990967,0.129252,0.371298,-0.039389,46,254,587,6192
1644186329.777821,-0.008301,0.011658,-0.992493,0.205588,0.462901,-0.039389,54,285,582,6304
1644186329.834844,-0.009766,0.009277,-0.992249,0.175053,0.401832,-0.085191,48,276,597,6112
1644186329.919224,-0.007324,0.010681,-0.992737,0.175053,0.417099,0.006412,45,285,577,6128
1644186329.967626,-0.007629,0.007629,-0.991577,0.205588,0.371298,-0.161527,54,277,582,6192
1644186330.016056,-0.010986,0.010559,-0.99353,0.266656,0.447634,0.021679,49,277,575,6224
1644186330.065217,-0.010559,0.009277,-0.990906,0.08345,0.523969,-0.069924,52,282,586,6288
1644186330.112771,-0.00769,0.01123,-0.990906,0.129252,0.294962,-0.161527,52,275,584,6176
1644186330.1612,-0.00824,0.008789,-0.991821,0.159786,0.401832,-0.192061,46,281,585,6240
1644186330.209605,-0.009399,0.008179,-0.992126,0.205588,0.356031,-0.207328,51,279,590,6224
1644186330.258017,-0.007385,0.010315,-0.989746,0.175053,0.386565,-0.054656,57,275,584,6240
1644186330.306482,-0.008728,0.010742,-0.990845,0.220855,0.417099,-0.283664,53,276,585,6240
1644186330.35484,-0.009888,0.012939,-0.992065,0.236122,0.356031,-0.176794,57,277,586,6192
1644186330.403157,-0.010254,0.010376,-0.993652,0.175053,0.600305,-0.130992,58,276,576,6224
1644186330.451571,-0.008423,0.008057,-0.994019,0.236122,0.523969,-0.100458,45,275,586,6224
1644186330.499979,-0.010132,0.010071,-0.994141,0.113985,0.417099,-0.069924,52,270,596,6256
1644186330.549476,-0.00885,0.010925,-0.993286,0.281924,0.371298,-0.268397,45,275,586,6128
1644186330.596784,-0.010498,0.008911,-0.990417,0.113985,0.356031,-0.161527,47,275,589,6224
1644186330.648597,-0.009888,0.009033,-0.991882,0.220855,0.24916,-0.100458,46,266,587,6256
1644186330.695837,-0.009827,0.010986,-0.991211,0.175053,0.401832,-0.069924,42,280,579,6128
1644186330.741874,-0.0047,0.008301,-0.989441,0.205588,0.340763,-0.161527,42,282,582,6224
1644186330.795422,-0.008179,0.009338,-0.992249,0.205588,0.478168,-0.069924,60,283,590,6192
1644186330.844751,-0.008484,0.007812,-0.990417,0.144519,0.310229,-0.008855,46,269,590,6240
1644186330.894855,-0.007263,0.013123,-0.990356,0.129252,0.493435,-0.192061,60,271,585,6224
1644186330.936626,-0.008545,0.009338,-0.991455,0.159786,0.340763,-0.222595,62,279,592,6240
1644186331.032352,-0.011719,0.010742,-0.992188,0.327725,0.340763,0.113282,45,285,586,6224
1644186331.083319,-0.007019,0.009766,-0.993774,0.205588,0.539237,-0.130992,46,279,587,6224
1644186331.129138,-0.01001,0.008911,-0.991028,0.098718,0.356031,-0.14626,57,290,586,6176
1644186331.185347,-0.01062,0.01001,-0.987427,0.312458,0.478168,-0.14626,46,283,599,6160
1644186331.230875,-0.010071,0.012207,-0.990723,0.297191,0.386565,-0.085191,55,276,587,6224
1644186331.274304,-0.009216,0.005493,-0.992493,0.098718,0.340763,-0.130992,43,276,585,6224
1644186331.322684,-0.008057,0.009216,-0.992371,0.266656,0.401832,0.006412,47,282,589,6288
1644186331.373484,-0.008362,0.010864,-0.992432,0.129252,0.386565,-0.054656,51,274,580,6224
1644186331.419399,-0.008301,0.009399,-0.993347,0.205588,0.356031,-0.192061,47,265,596,6224
1644186331.467762,-0.006104,0.009766,-0.993835,0.312458,0.401832,-0.008855,54,282,582,6256
1644186331.516206,-0.006409,0.009216,-0.990479,0.175053,0.356031,-0.024122,55,269,580,6240
1644186331.564748,-0.008423,0.01001,-0.992065,0.342992,0.356031,-0.161527,45,287,582,6192
1644186331.613161,-0.008484,0.00824,-0.991211,0.251389,0.264427,-0.176794,49,270,591,6192
1644186331.661432,-0.005859,0.00885,-0.99054,0.144519,0.493435,0.021679,47,275,586,6240
1644186331.70977,-0.008606,0.009094,-0.991516,0.220855,0.401832,-0.100458,53,283,585,6256
1644186331.758149,-0.007446,0.010071,-0.990723,0.052916,0.401832,-0.024122,54,273,582,6224
1644186331.814823,-0.00708,0.009338,-0.99176,0.144519,0.417099,-0.085191,52,280,593,6224
1644186331.859009,-0.006226,0.007568,-0.992798,0.113985,0.569771,-0.115725,54,270,589,6192
1644186331.910312,-0.008118,0.009949,-0.992493,0.144519,0.508702,-0.130992,48,266,585,6224
1644186331.9629,-0.010254,0.010925,-0.99231,0.113985,0.127023,-0.085191,48,279,594,6224
1644186332.002394,-0.009644,0.007874,-0.991943,0.129252,0.401832,-0.024122,49,270,596,6128
1644186332.098467,-0.009399,0.011475,-0.993286,0.08345,0.325496,-0.14626,47,275,598,6256
1644186332.145258,-0.009094,0.007507,-0.991455,0.251389,0.447634,-0.100458,49,273,586,6192
1644186332.193821,-0.010986,0.009644,-0.991333,0.281924,0.356031,-0.085191,45,270,579,6192
1644186332.242299,-0.006714,0.009583,-0.991699,0.266656,0.386565,-0.130992,48,274,599,6256
1644186332.294049,-0.009521,0.008545,-0.990479,0.190321,0.386565,0.006412,53,274,578,6256
1644186332.339208,-0.009705,0.010315,-0.994934,0.129252,0.371298,-0.024122,59,275,591,6224
1644186332.396087,-0.00708,0.009521,-0.993042,0.205588,0.356031,-0.100458,49,280,589,6288
1644186332.435658,-0.013,0.011597,-0.990479,0.281924,0.356031,0.021679,57,270,584,6224
1644186332.488682,-0.009094,0.010132,-0.989563,0.266656,0.493435,-0.100458,36,269,583,6256
1644186332.538792,-0.007812,0.011353,-0.990601,0.205588,0.417099,-0.130992,46,274,594,6192
1644186332.580912,-0.006531,0.010254,-0.99054,0.220855,0.462901,-0.024122,60,269,590,6288
1644186332.629292,-0.006897,0.010071,-0.990112,0.098718,0.478168,-0.024122,52,275,589,6240
1644186332.681042,-0.007812,0.007141,-0.988525,0.281924,0.493435,-0.039389,46,279,590,6256
1644186332.726051,-0.006592,0.007874,-0.991394,0.327725,0.63084,-0.085191,62,269,594,6224
1644186332.780035,-0.009033,0.014404,-0.993652,0.205588,0.356031,0.082748,52,285,582,6224
1644186332.824832,-0.003052,0.012512,-0.990967,0.113985,0.432366,-0.176794,58,286,587,6160
1644186332.874391,-0.010681,0.009827,-0.992554,0.297191,0.508702,-0.14626,53,274,583,6224
1644186332.923962,-0.009033,0.008118,-0.989075,0.175053,0.417099,-0.176794,48,276,573,6224
1644186332.968994,-0.008423,0.010498,-0.991943,0.220855,0.432366,-0.176794,49,268,579,6240
1644186333.064971,-0.009888,0.013306,-0.992004,0.266656,0.523969,-0.192061,51,283,576,6256
1644186333.113243,-0.011841,0.009888,-0.991577,0.251389,0.371298,-0.100458,48,281,587,6224
1644186333.161688,-0.01001,0.011108,-0.994812,0.281924,0.325496,-0.115725,57,280,589,6176
1644186333.20994,-0.011414,0.011475,-0.993774,0.220855,0.24916,-0.14626,52,282,584,6192
1644186333.258335,-0.00769,0.010498,-0.994019,0.297191,0.356031,-0.039389,51,274,580,6192
1644186333.306751,-0.008301,0.010681,-0.989502,0.251389,0.417099,-0.054656,49,273,577,6224
1644186333.355168,-0.006897,0.010681,-0.990356,0.159786,0.447634,-0.130992,46,271,583,6288
1644186333.403554,-0.008667,0.007935,-0.991516,0.007115,0.493435,-0.039389,45,282,579,6224
1644186333.451902,-0.00592,0.008179,-0.991699,0.342992,0.310229,-0.054656,52,277,575,6240
1644186333.500301,-0.006775,0.010437,-0.989746,0.205588,0.264427,-0.100458,53,269,590,6224
1644186333.548725,-0.007263,0.009644,-0.992371,0.175053,0.294962,-0.25313,46,271,580,6240
1644186333.597119,-0.009521,0.011536,-0.990479,0.175053,0.371298,-0.100458,48,271,597,6240
1644186333.645508,-0.008118,0.011902,-0.993652,0.129252,0.417099,-0.207328,52,277,577,6256
1644186333.693901,-0.010315,0.009094,-0.990601,0.175053,0.447634,-0.115725,52,270,591,6224
1644186333.742306,-0.007385,0.01123,-0.990173,0.190321,0.447634,-0.130992,54,280,591,6192
1644186333.790704,-0.008789,0.011108,-0.990356,0.251389,0.508702,0.052214,52,275,593,6240
1644186333.839074,-0.00708,0.010071,-0.992554,0.159786,0.554504,-0.130992,42,277,586,6192
1644186333.887465,-0.009155,0.010254,-0.991821,0.175053,0.478168,-0.024122,52,277,591,6240
1644186333.935933,-0.00592,0.013306,-0.991882,0.08345,0.264427,-0.069924,47,273,586,6224
1644186333.986363,-0.008484,0.009827,-0.991272,0.266656,0.340763,-0.14626,54,263,589,6240
1644186334.036484,-0.009399,0.009155,-0.989197,0.220855,0.279695,-0.283664,46,283,583,6224
1644186334.081651,-0.006531,0.013306,-0.990295,0.266656,0.356031,-0.176794,46,274,580,6224
1644186334.177863,-0.006836,0.010803,-0.988647,0.251389,0.325496,-0.100458,49,270,589,6224
1644186334.226246,-0.010803,0.009216,-0.990173,0.312458,0.508702,-0.100458,51,279,578,6256
1644186334.274878,-0.009094,0.014099,-0.993713,0.251389,0.340763,-0.130992,42,275,586,6224
1644186334.323061,-0.009033,0.009766,-0.991272,0.251389,0.371298,-0.207328,47,282,584,6224
1644186334.371406,-0.007629,0.007446,-0.994934,0.327725,0.554504,-0.115725,48,286,585,6192
1644186334.419824,-0.011292,0.007751,-0.992432,0.251389,0.539237,0.006412,42,280,575,6256
1644186334.468192,-0.008484,0.009338,-0.992981,0.236122,0.371298,0.006412,54,275,572,6224
1644186334.51661,-0.009338,0.009216,-0.990967,0.297191,0.371298,-0.085191,53,276,587,6192
1644186334.565122,-0.007996,0.010315,-0.990906,0.098718,0.417099,-0.192061,57,275,591,6224
1644186334.613425,-0.008484,0.012695,-0.991028,0.266656,0.386565,-0.130992,48,266,583,6192
1644186334.661803,-0.005127,0.00708,-0.990967,0.190321,0.279695,-0.115725,52,282,593,6176
1644186334.710199,-0.007935,0.008972,-0.990723,0.297191,0.508702,-0.100458,42,277,579,6224
1644186334.758558,-0.011414,0.010193,-0.992981,0.190321,0.508702,-0.085191,42,280,575,6192
1644186334.806984,-0.008667,0.010071,-0.990417,0.144519,0.279695,-0.161527,48,281,587,6224
1644186334.855368,-0.006653,0.011169,-0.991699,0.190321,0.356031,-0.085191,43,276,573,6224
1644186334.903759,-0.010498,0.007019,-0.991638,0.312458,0.340763,-0.039389,66,282,586,6176
1644186334.952171,-0.008301,0.009094,-0.992249,0.388794,0.417099,-0.130992,54,273,589,6256
1644186335.000597,-0.009094,0.009094,-0.990601,0.220855,0.340763,-0.115725,47,277,586,6192
1644186335.070415,-0.005188,0.008667,-0.992615,0.236122,0.447634,0.021679,53,269,594,6160
1644186335.106356,-0.007935,0.008972,-0.990723,0.251389,0.386565,-0.054656,42,270,582,6192
1644186335.151329,-0.010071,0.011169,-0.99176,0.297191,0.401832,-0.314198,45,273,586,6256
1644186335.195817,-0.010071,0.011597,-0.986389,0.236122,0.325496,-0.069924,52,280,577,6240
1644186335.29088,-0.010071,0.008728,-0.993835,0.129252,0.386565,-0.14626,52,265,586,6160
1644186335.339288,-0.009155,0.00885,-0.994385,0.205588,0.508702,-0.161527,43,274,583,6160
1644186335.387644,-0.007202,0.012024,-0.98999,0.220855,0.417099,-0.100458,48,276,580,6192
1644186335.436071,-0.008972,0.008911,-0.991272,0.449863,0.279695,-0.069924,45,285,584,6160
1644186335.484452,-0.009155,0.008911,-0.989746,0.266656,0.356031,-0.085191,40,270,593,6192
1644186335.532889,-0.007446,0.008667,-0.994446,0.190321,0.325496,-0.222595,58,266,587,6224
1644186335.581243,-0.009583,0.009216,-0.991333,0.144519,0.386565,-0.069924,43,269,578,6160
1644186335.629658,-0.009155,0.008667,-0.992798,0.190321,0.401832,-0.085191,42,275,584,6256
1644186335.678022,-0.008301,0.007812,-0.992188,0.236122,0.508702,-0.192061,64,282,584,6256
1644186335.726451,-0.009827,0.010437,-0.992859,0.281924,0.493435,-0.130992,43,279,587,6192
1644186335.774803,-0.010315,0.00708,-0.990479,0.251389,0.508702,-0.176794,52,287,586,6224
1644186335.823238,-0.00824,0.008606,-0.993225,0.373527,0.508702,-0.130992,54,280,584,6176
1644186335.87161,-0.009399,0.008728,-0.991882,0.159786,0.371298,-0.054656,58,279,583,6176
1644186335.920009,-0.007202,0.009094,-0.991516,0.190321,0.401832,-0.283664,49,275,584,6240
1644186335.968399,-0.012207,0.009033,-0.992126,0.312458,0.462901,-0.085191,52,282,591,6240
1644186336.016772,-0.007629,0.008911,-0.991394,0.190321,0.294962,-0.069924,55,274,592,6240
1644186336.090024,-0.009644,0.006348,-0.994873,0.190321,0.493435,-0.14626,53,283,592,6224
1644186336.116648,-0.007935,0.011597,-0.991943,0.159786,0.432366,-0.039389,54,273,589,6240
1644186336.16669,-0.009766,0.007935,-0.993286,0.159786,0.417099,-0.054656,55,279,585,6240
1644186336.21158,-0.008057,0.008484,-0.991089,0.175053,0.462901,-0.039389,48,281,583,6192
1644186336.307102,-0.009827,0.009277,-0.99115,0.098718,0.386565,-0.069924,48,281,585,6192
1644186336.355484,-0.008484,0.010315,-0.99115,0.297191,0.356031,-0.100458,43,271,590,6224
1644186336.403872,-0.008789,0.008301,-0.991882,0.236122,0.386565,-0.192061,47,275,589,6240
1644186336.45237,-0.008545,0.009705,-0.991333,0.144519,0.371298,-0.115725,48,279,587,6224
1644186336.50069,-0.007996,0.005554,-0.992676,0.281924,0.371298,-0.207328,55,281,590,6176
1644186336.549072,-0.012512,0.01178,-0.993286,0.159786,0.417099,-0.176794,51,269,578,6224
1644186336.597465,-0.01001,0.009399,-0.991882,0.129252,0.279695,-0.100458,52,273,584,6224
1644186336.645868,-0.00769,0.011719,-0.990112,0.327725,0.386565,-0.039389,45,275,584,6192
1644186336.694262,-0.009338,0.009583,-0.990784,0.251389,0.432366,-0.069924,51,279,571,6256
1644186336.742676,-0.006592,0.010559,-0.993896,0.052916,0.432366,0.036947,61,282,584,6240
1644186336.791023,-0.010681,0.012024,-0.991516,0.388794,0.371298,-0.008855,51,279,587,6224
1644186336.83946,-0.010681,0.010925,-0.994629,0.236122,0.523969,-0.069924,43,283,585,6224
1644186336.887861,-0.006531,0.010071,-0.993469,0.190321,0.417099,-0.039389,45,282,579,6176
1644186336.936266,-0.009155,0.009766,-0.99115,0.144519,0.508702,-0.115725,54,285,577,6224
1644186336.984668,-0.008301,0.009583,-0.991089,0.251389,0.523969,0.021679,53,274,583,6224
1644186337.033021,-0.00885,0.009277,-0.993469,0.312458,0.432366,0.174351,41,279,587,6256
1644186337.084146,-0.008728,0.008545,-0.992493,0.281924,0.432366,-0.085191,46,274,587,6256
1644186337.129805,-0.010437,0.009949,-0.991028,0.297191,0.432366,-0.100458,38,270,591,6256
1644186337.178162,-0.008545,0.011414,-0.992737,0.281924,0.432366,-0.039389,48,288,594,6224
1644186337.2273,-0.006592,0.00824,-0.99231,0.144519,0.340763,-0.222595,54,273,596,6192
1644186337.276839,-0.012817,0.011108,-0.991394,0.113985,0.325496,-0.14626,49,273,584,6224
1644186337.327309,-0.006592,0.009705,-0.992188,0.175053,0.371298,-0.161527,45,265,589,6224
1644186337.372381,-0.012878,0.006775,-0.990906,0.159786,0.417099,-0.192061,48,276,585,6224
1644186337.468524,-0.009277,0.00885,-0.990723,0.144519,0.462901,-0.14626,46,274,580,6240
1644186337.51693,-0.010742,0.011047,-0.991699,0.190321,0.340763,-0.161527,40,273,589,6160
1644186337.565398,-0.007385,0.008789,-0.993164,0.342992,0.386565,-0.054656,52,290,575,6224
1644186337.613729,-0.008423,0.011108,-0.991028,0.175053,0.386565,-0.192061,58,274,576,6160
1644186337.662157,-0.010559,0.010437,-0.992004,0.327725,0.340763,-0.222595,51,281,585,6176
1644186337.710517,-0.007019,0.010925,-0.992798,0.236122,0.356031,-0.192061,45,275,582,6224
1644186337.758893,-0.010254,0.007996,-0.988892,0.129252,0.508702,-0.115725,54,265,579,6160
1644186337.807306,-0.009583,0.009399,-0.990356,0.144519,0.462901,-0.069924,52,268,591,6240
1644186337.855698,-0.008362,0.009583,-0.991699,0.312458,0.401832,-0.25313,47,285,589,6224
1644186337.904143,-0.00769,0.010803,-0.993774,0.175053,0.478168,0.036947,46,281,566,6224
1644186337.952533,-0.007996,0.008789,-0.990784,0.159786,0.325496,-0.192061,54,275,586,6160
1644186338.000908,-0.010864,0.007568,-0.992737,0.159786,0.325496,-0.14626,54,275,593,6240
1644186338.061769,-0.01062,0.007935,-0.991089,0.068183,0.386565,-0.054656,45,280,579,6256
1644186338.097694,-0.009338,0.009399,-0.99353,0.220855,0.462901,-0.085191,67,276,592,6240
1644186338.146059,-0.008789,0.007874,-0.993958,0.159786,0.478168,-0.039389,40,275,584,6240
1644186338.194447,-0.009705,0.010071,-0.992737,0.144519,0.340763,-0.115725,47,285,589,6240
1644186338.242857,-0.009399,0.01001,-0.99115,0.098718,0.615573,-0.130992,52,275,579,6224
1644186338.291223,-0.010132,0.009033,-0.992371,0.297191,0.340763,-0.176794,48,281,578,6256
1644186338.339611,-0.012329,0.009338,-0.994751,0.220855,0.386565,-0.008855,51,266,592,6288
1644186338.388382,-0.008545,0.011292,-0.994202,0.266656,0.340763,-0.039389,43,274,585,6224
1644186338.43859,-0.00824,0.008789,-0.993103,0.205588,0.233893,-0.130992,51,271,587,6192
1644186338.48865,-0.009949,0.009094,-0.989624,0.175053,0.539237,-0.069924,53,279,599,6192
1644186338.533739,-0.008118,0.008484,-0.994873,0.342992,0.447634,-0.161527,54,275,591,6160
1644186338.629988,-0.008789,0.010437,-0.988586,0.190321,0.294962,-0.222595,51,276,585,6224
1644186338.678355,-0.007568,0.010376,-0.99115,0.113985,0.417099,-0.024122,55,276,585,6240
1644186338.726753,-0.007141,0.008484,-0.990173,0.297191,0.600305,-0.161527,46,281,578,6240
1644186338.775327,-0.008301,0.009277,-0.992859,0.175053,0.356031,-0.222595,36,291,585,6256
1644186338.823551,-0.010803,0.010986,-0.991699,0.251389,0.417099,-0.115725,47,268,584,6192
1644186338.871988,-0.009277,0.010315,-0.991089,0.175053,0.386565,-0.161527,54,273,591,6240
1644186338.920347,-0.009033,0.010681,-0.991882,0.266656,0.371298,-0.054656,48,274,580,6240
1644186338.968776,-0.009155,0.00885,-0.988159,0.251389,0.615573,-0.130992,38,270,582,6240
1644186339.017135,-0.008606,0.009216,-0.990906,-0.053954,0.493435,-0.054656,42,287,582,6192
1644186339.06958,-0.009338,0.011475,-0.990051,0.281924,0.417099,-0.115725,36,274,590,6224
1644186339.113934,-0.011292,0.010559,-0.992004,0.220855,0.447634,-0.161527,48,288,580,6160
1644186339.162386,-0.006714,0.008728,-0.990479,0.129252,0.356031,-0.069924,49,280,584,6192
1644186339.210692,-0.010071,0.008606,-0.993225,0.251389,0.294962,0.159084,46,281,573,6256
1644186339.259061,-0.009216,0.008728,-0.990601,0.236122,0.371298,-0.008855,52,285,575,6224
1644186339.307477,-0.008423,0.011108,-0.992249,0.159786,0.493435,-0.008855,47,282,582,6112
1644186339.355871,-0.007324,0.008057,-0.99408,0.297191,0.539237,-0.237863,39,276,590,6240
1644186339.404271,-0.007141,0.010315,-0.991638,0.175053,0.523969,-0.054656,58,266,587,6240
1644186339.452678,-0.009338,0.011475,-0.988586,0.266656,0.478168,0.067481,47,282,589,6128
1644186339.501039,-0.010376,0.00946,-0.994202,0.281924,0.508702,-0.176794,46,276,583,6176
1644186339.549595,-0.009277,0.008484,-0.989929,0.220855,0.447634,-0.115725,55,279,578,6192
1644186339.599629,-0.009827,0.010742,-0.993164,0.159786,0.356031,-0.039389,46,269,578,6224
1644186339.649978,-0.009216,0.007751,-0.989441,0.419328,0.371298,-0.069924,43,269,584,6288
1644186339.694831,-0.00708,0.008057,-0.990234,0.144519,0.340763,-0.207328,53,271,590,6224
1644186339.791401,-0.009644,0.00708,-0.990417,0.175053,0.523969,-0.069924,54,275,577,6240
1644186339.839822,-0.010254,0.007751,-0.991455,0.297191,0.325496,-0.130992,51,269,578,6160
1644186339.888231,-0.011108,0.007446,-0.99408,0.236122,0.585038,-0.130992,41,286,583,6240
1644186339.936594,-0.00885,0.010071,-0.991821,0.281924,0.417099,-0.100458,47,280,593,6192
1644186339.985054,-0.010193,0.011353,-0.991394,0.159786,0.386565,-0.14626,43,281,592,6192
1644186340.033404,-0.01062,0.010437,-0.991638,0.068183,0.462901,-0.008855,43,276,590,6288
1644186340.090132,-0.007751,0.012024,-0.988403,0.281924,0.401832,-0.192061,47,282,584,6256
1644186340.130219,-0.007935,0.009521,-0.992065,0.190321,0.386565,-0.085191,51,279,578,6288
1644186340.178525,-0.007385,0.007812,-0.993225,0.327725,0.371298,-0.054656,55,279,585,6256
1644186340.226937,-0.009583,0.006653,-0.99292,0.129252,0.325496,0.036947,52,277,589,6240
1644186340.275312,-0.00946,0.008972,-0.99231,0.236122,0.325496,-0.161527,42,275,579,6176
1644186340.323739,-0.007629,0.010071,-0.997009,0.35826,0.447634,-0.085191,43,271,587,6224
1644186340.372792,-0.009949,0.010071,-0.992981,0.266656,0.371298,-0.069924,51,276,590,6256
1644186340.421229,-0.008301,0.008484,-0.993896,0.373527,0.447634,-0.161527,43,271,585,6176
1644186340.471802,-0.007385,0.009949,-0.991272,0.251389,0.386565,-0.069924,48,274,587,6256
1644186340.521857,-0.008118,0.008911,-0.991821,0.312458,0.417099,-0.039389,54,275,596,6176
1644186340.566916,-0.010315,0.010925,-0.99292,0.068183,0.447634,-0.085191,38,273,582,6224
1644186340.662504,-0.010803,0.010254,-0.995544,0.205588,0.554504,-0.085191,48,276,580,6192
1644186340.710871,-0.009583,0.008362,-0.989807,0.220855,0.356031,-0.115725,36,271,576,6224
1644186340.759251,-0.006104,0.01001,-0.990723,0.312458,0.371298,-0.283664,42,285,584,6240
1644186340.807633,-0.00885,0.010681,-0.98999,0.266656,0.356031,-0.14626,46,274,576,6176
1644186340.856304,-0.00531,0.007874,-0.99408,0.052916,0.401832,-0.130992,48,276,578,6128
1644186340.904492,-0.008789,0.010376,-0.989197,0.190321,0.386565,-0.024122,54,285,589,6256
1644186340.952903,-0.010254,0.009216,-0.991699,0.281924,0.325496,-0.115725,40,282,586,6224
1644186341.001253,-0.010071,0.008362,-0.991333,0.159786,0.493435,-0.115725,54,275,579,6240
1644186341.055006,-0.008972,0.009338,-0.991821,0.281924,0.432366,-0.176794,45,275,586,6224
1644186341.098048,-0.010803,0.009705,-0.991272,0.312458,0.447634,-0.161527,53,279,587,6192
1644186341.146429,-0.00824,0.00885,-0.994873,0.342992,0.600305,-0.176794,52,275,589,6176
1644186341.194829,-0.010437,0.010437,-0.992554,0.312458,0.508702,-0.054656,43,281,578,6128
1644186341.243217,-0.009644,0.007507,-0.992188,0.266656,0.279695,-0.14626,70,271,580,6256
1644186341.29159,-0.007507,0.009705,-0.988953,0.190321,0.356031,-0.008855,52,273,584,6176
1644186341.339978,-0.008728,0.009583,-0.994141,0.373527,0.493435,0.036947,47,275,589,6192
1644186341.388374,-0.010803,0.009644,-0.991516,0.08345,0.325496,-0.085191,51,276,578,6224
1644186341.436735,-0.009644,0.011414,-0.98999,0.312458,0.508702,-0.130992,62,266,587,6160
1644186341.485201,-0.006104,0.008423,-0.991028,0.312458,0.523969,-0.115725,51,279,583,6192
1644186341.533557,-0.012939,0.007996,-0.993347,0.190321,0.401832,-0.085191,49,280,584,6336
1644186341.58228,-0.009888,0.012634,-0.992126,0.266656,0.478168,-0.069924,48,276,578,6240
1644186341.632996,-0.011108,0.009338,-0.991577,0.022382,0.294962,-0.237863,43,281,580,6192
1644186341.683153,-0.00885,0.009705,-0.991882,0.08345,0.554504,-0.115725,45,282,584,6224
1644186341.728095,-0.010254,0.012695,-0.989563,0.205588,0.508702,-0.100458,42,277,586,6240
1644186341.823916,-0.011108,0.010193,-0.991516,0.175053,0.340763,-0.130992,47,275,582,6256
1644186341.872451,-0.006836,0.009521,-0.990723,0.159786,0.386565,-0.069924,45,280,586,6240
1644186341.920734,-0.008118,0.009766,-0.990601,0.220855,0.401832,-0.054656,48,276,583,6288
1644186341.969099,-0.008728,0.009766,-0.992188,0.266656,0.447634,0.052214,53,271,580,6224
1644186342.017519,-0.008606,0.007812,-0.992554,0.388794,0.417099,-0.039389,53,279,585,6224
1644186342.065994,-0.00885,0.009216,-0.994873,0.175053,0.386565,-0.222595,52,273,598,6224
1644186342.114338,-0.006958,0.008789,-0.990479,0.113985,0.523969,0.021679,51,276,578,6224
1644186342.162898,-0.009583,0.00769,-0.989929,0.175053,0.386565,-0.115725,57,277,596,6176
1644186342.211231,-0.010498,0.011658,-0.991821,0.113985,0.447634,-0.085191,45,285,591,6224
1644186342.259579,-0.009216,0.009338,-0.995728,0.129252,0.325496,-0.008855,57,285,591,6224
1644186342.308001,-0.008423,0.008118,-0.98877,0.251389,0.432366,-0.100458,57,285,589,6224
1644186342.35624,-0.008606,0.008545,-0.990906,0.129252,0.310229,0.082748,51,279,590,6224
1644186342.404712,-0.01001,0.014282,-0.989685,0.037649,0.585038,-0.100458,43,271,587,6224
1644186342.453045,-0.006714,0.008362,-0.99115,0.159786,0.447634,-0.054656,40,287,591,6256
1644186342.501414,-0.007019,0.00824,-0.99231,0.251389,0.432366,-0.115725,48,281,580,6224
1644186342.549819,-0.010742,0.009338,-0.99115,0.159786,0.447634,-0.024122,58,279,585,6176
1644186342.598206,-0.007935,0.010071,-0.990906,0.236122,0.340763,0.021679,49,273,582,6256
1644186342.646564,-0.010681,0.009521,-0.990356,0.220855,0.325496,-0.085191,39,286,585,6224
1644186342.695411,-0.008484,0.008606,-0.990234,0.266656,0.462901,-0.130992,62,269,580,6240
1644186342.744378,-0.007812,0.012085,-0.991699,0.251389,0.493435,-0.024122,52,275,586,6256
1644186342.794993,-0.008545,0.008728,-0.993408,0.144519,0.493435,0.021679,47,280,577,6192
1644186342.845114,-0.009216,0.010132,-0.989746,0.236122,0.462901,-0.100458,51,276,573,6256
1644186342.937002,-0.010132,0.009888,-0.989563,0.220855,0.508702,-0.161527,47,275,582,6224
1644186342.98543,-0.008911,0.007935,-0.990356,0.205588,0.371298,-0.069924,39,274,580,6192
1644186343.033781,-0.005188,0.009583,-0.992004,0.281924,0.386565,-0.085191,40,282,584,6224
1644186343.082352,-0.009094,0.009888,-0.991699,0.175053,0.569771,-0.161527,42,285,593,6192
1644186343.130566,-0.012024,0.007446,-0.993225,0.251389,0.294962,-0.115725,54,273,582,6224
1644186343.178932,-0.007324,0.010742,-0.993103,0.251389,0.340763,-0.100458,49,273,579,6160
1644186343.22734,-0.007507,0.010559,-0.990479,0.419328,0.356031,-0.069924,36,281,580,6256
1644186343.275722,-0.008423,0.009216,-0.99176,0.205588,0.356031,-0.069924,51,281,578,6192
1644186343.324134,-0.009155,0.010986,-0.992798,0.175053,0.447634,-0.085191,49,275,586,6240
1644186343.372539,-0.008972,0.009949,-0.992554,-0.069221,0.432366,-0.024122,39,276,585,6176
1644186343.420914,-0.006958,0.010071,-0.990906,0.175053,0.386565,-0.054656,54,282,582,6304
1644186343.469329,-0.00592,0.008484,-0.992859,0.266656,0.417099,-0.100458,49,277,591,6224
1644186343.517703,-0.006958,0.009094,-0.990906,0.312458,0.340763,-0.100458,47,275,577,6240
1644186343.566107,-0.006042,0.013733,-0.989136,0.159786,0.356031,-0.222595,40,280,584,6176
1644186343.614493,-0.008911,0.00824,-0.994263,0.022382,0.462901,-0.024122,49,285,584,6224
1644186343.662857,-0.009155,0.01001,-0.992981,0.159786,0.356031,-0.115725,43,286,585,6160
1644186343.711267,-0.010193,0.010864,-0.992188,0.220855,0.279695,-0.024122,40,282,593,6240
1644186343.75977,-0.008667,0.011108,-0.988831,0.373527,0.371298,-0.115725,51,271,587,6224
1644186343.808301,-0.007629,0.011475,-0.991821,0.236122,0.340763,0.036947,55,271,576,6192
1644186343.858652,-0.01062,0.008728,-0.989563,0.220855,0.24916,-0.008855,47,275,589,6192
1644186343.90904,-0.011108,0.010254,-0.992004,0.175053,0.478168,0.098015,42,273,582,6160
1644186343.959157,-0.008667,0.009644,-0.991516,0.236122,0.447634,-0.085191,47,260,586,6256
1644186344.063341,-0.011169,0.010315,-0.990723,0.159786,0.462901,-0.115725,52,273,577,6192
1644186344.099115,-0.007324,0.010925,-0.991455,0.159786,0.447634,-0.008855,55,269,587,6240
1644186344.146777,-0.010132,0.011902,-0.994812,0.236122,0.203359,-0.069924,46,281,583,6240
1644186344.195252,-0.009216,0.010254,-0.993652,0.266656,0.340763,-0.130992,48,283,576,6240
1644186344.243562,-0.008301,0.008789,-0.992493,0.159786,0.401832,0.021679,57,287,577,6224
1644186344.291958,-0.010071,0.010986,-0.992676,0.220855,0.432366,0.036947,47,273,572,6256
1644186344.340342,-0.00885,0.009399,-0.989929,0.236122,0.401832,-0.008855,42,287,579,6176
1644186344.388744,-0.009644,0.009766,-0.991882,0.236122,0.24916,0.021679,53,283,578,6224
1644186344.437132,-0.007812,0.011292,-0.99231,0.037649,0.294962,-0.130992,45,280,582,6192
1644186344.485521,-0.00708,0.012512,-0.992004,0.220855,0.554504,-0.024122,45,280,579,6224
1644186344.533914,-0.011597,0.009766,-0.991028,0.266656,0.493435,-0.069924,41,274,585,6176
1644186344.582295,-0.00824,0.008728,-0.991516,0.388794,0.432366,-0.161527,54,265,579,6288
1644186344.630996,-0.008301,0.009277,-0.991333,0.236122,0.310229,-0.207328,51,286,585,6192
1644186344.681666,-0.008911,0.010498,-0.990662,0.098718,0.447634,-0.054656,47,277,586,6288
1644186344.731685,-0.010193,0.007324,-0.992615,0.098718,0.356031,-0.130992,45,277,593,6176
1644186344.776852,-0.010132,0.010071,-0.989929,0.266656,0.356031,-0.054656,46,271,583,6224
1644186344.872735,-0.008118,0.008911,-0.990295,0.113985,0.478168,-0.130992,46,274,587,6224
1644186344.921092,-0.009644,0.009644,-0.991394,0.266656,0.417099,-0.207328,51,271,580,6192
1644186344.969499,-0.008545,0.011353,-0.994202,0.159786,0.447634,-0.039389,53,266,585,6192
1644186345.017881,-0.009705,0.010437,-0.991943,0.434595,0.493435,0.006412,51,257,590,6240
1644186345.066768,-0.009888,0.010132,-0.99231,0.236122,0.447634,-0.039389,51,271,585,6176
1644186345.114703,-0.006653,0.009216,-0.991516,0.129252,0.417099,-0.054656,33,275,589,6224
1644186345.163036,-0.009521,0.010925,-0.99176,0.251389,0.310229,-0.039389,57,268,582,6240
1644186345.211415,-0.01001,0.008972,-0.990112,0.220855,0.386565,-0.176794,54,280,584,6192
1644186345.25981,-0.007568,0.01123,-0.990662,0.113985,0.417099,-0.069924,51,271,580,6256
1644186345.308251,-0.009216,0.00885,-0.992554,0.159786,0.462901,-0.130992,52,273,584,6336
1644186345.356599,-0.007751,0.009583,-0.991211,0.175053,0.447634,-0.161527,45,277,584,6224
1644186345.405121,-0.007263,0.009277,-0.992249,0.251389,0.356031,-0.024122,57,268,584,6240
1644186345.453396,-0.009766,0.010315,-0.99115,0.190321,0.401832,0.021679,48,279,580,6192
1644186345.501797,-0.005798,0.009949,-0.991272,0.251389,0.172824,0.006412,51,279,580,6192
1644186345.550174,-0.00946,0.009033,-0.993713,0.220855,0.203359,-0.085191,51,271,590,6240
1644186345.598561,-0.00708,0.009399,-0.992432,0.190321,0.508702,-0.024122,48,274,587,6240
1644186345.646953,-0.007019,0.009583,-0.990845,0.251389,0.310229,-0.069924,52,277,591,6176
1644186345.695353,-0.008789,0.007324,-0.991577,0.220855,0.417099,-0.008855,41,279,583,6160
1644186345.743767,-0.011536,0.011597,-0.989502,0.312458,0.554504,0.143817,28,277,582,6224
1644186345.79352,-0.009338,0.005371,-0.991394,0.220855,0.508702,-0.008855,47,270,586,6224
1644186345.844971,-0.008057,0.009216,-0.992065,0.159786,0.569771,-0.314198,55,266,587,6192
1644186345.889225,-0.005737,0.009888,-0.99646,0.129252,0.432366,-0.237863,47,273,584,6176
1644186345.985752,-0.008545,0.011536,-0.992676,0.236122,0.325496,-0.024122,46,274,580,6192
1644186346.034141,-0.010315,0.01001,-0.993835,0.205588,0.401832,0.082748,46,274,580,6224
1644186346.082581,-0.007935,0.009644,-0.990845,0.251389,0.371298,-0.329466,57,277,589,6224
1644186346.130885,-0.010132,0.006409,-0.991516,0.327725,0.340763,-0.085191,58,271,580,6176
1644186346.179279,-0.007019,0.010071,-0.992065,0.098718,0.493435,-0.054656,52,270,577,6224
1644186346.227673,-0.008789,0.009277,-0.993591,0.175053,0.356031,-0.008855,54,268,579,6224
1644186346.276037,-0.007874,0.009949,-0.990845,0.129252,0.417099,-0.115725,52,275,584,6128
1644186346.324463,-0.00946,0.009155,-0.991028,0.175053,0.493435,-0.069924,45,282,570,6224
1644186346.372878,-0.008789,0.010803,-0.990662,0.342992,0.539237,-0.024122,54,282,584,6176
1644186346.421244,-0.011292,0.008423,-0.992188,0.312458,0.432366,-0.054656,42,268,584,6224
1644186346.469619,-0.010864,0.01178,-0.992188,0.312458,0.615573,0.006412,43,288,580,6192
1644186346.518029,-0.009583,0.009216,-0.99115,0.236122,0.432366,-0.069924,60,269,580,6224
1644186346.566422,-0.009583,0.009583,-0.992188,0.327725,0.325496,-0.130992,52,287,593,6176
1644186346.614821,-0.006592,0.011108,-0.993042,0.190321,0.447634,0.143817,45,277,579,6224
1644186346.663217,-0.006287,0.010376,-0.990723,0.205588,0.417099,-0.008855,48,274,583,6224
1644186346.711605,-0.007812,0.009705,-0.990417,0.297191,0.508702,-0.085191,47,275,584,6240
1644186346.76,-0.009521,0.010315,-0.99231,0.266656,0.493435,-0.130992,46,276,583,6240
1644186346.808432,-0.009949,0.009338,-0.991577,0.144519,0.356031,-0.25313,48,283,583,6160
1644186346.856858,-0.011169,0.009949,-0.991943,0.129252,0.462901,0.006412,46,276,580,6192
1644186346.907133,-0.005737,0.010132,-0.989563,0.281924,0.523969,-0.176794,52,277,577,6240
1644186346.959031,-0.010559,0.010254,-0.992188,0.098718,0.417099,-0.085191,51,262,583,6176
1644186347.057467,-0.009399,0.009766,-0.992737,0.220855,0.218626,-0.024122,52,273,586,6304
1644186347.099819,-0.009216,0.007751,-0.991272,0.434595,0.478168,0.006412,57,268,591,6176
1644186347.147135,-0.008484,0.007385,-0.990112,0.220855,0.401832,-0.115725,42,285,582,6224
1644186347.195541,-0.008545,0.008667,-0.99231,0.129252,0.417099,-0.085191,53,279,573,6160
1644186347.243907,-0.007385,0.007812,-0.99054,0.281924,0.325496,-0.039389,52,273,584,6256
1644186347.292356,-0.01123,0.00769,-0.99231,0.35826,0.432366,-0.069924,42,270,582,6224
1644186347.340711,-0.008972,0.009277,-0.992737,0.220855,0.371298,0.052214,46,286,583,6192
1644186347.389088,-0.007874,0.008667,-0.992065,0.266656,0.432366,-0.069924,55,279,569,6224
1644186347.437498,-0.011536,0.009888,-0.992798,-0.008153,0.462901,-0.329466,45,277,584,6240
1644186347.4859,-0.008423,0.009399,-0.992981,0.190321,0.508702,0.113282,51,276,592,6224
1644186347.534271,-0.007507,0.009216,-0.992126,0.205588,0.462901,-0.14626,52,277,577,6176
1644186347.582704,-0.007874,0.011597,-0.991028,0.190321,0.493435,-0.115725,49,287,582,6240
1644186347.63139,-0.004883,0.008423,-0.993896,0.144519,0.340763,-0.008855,48,274,585,6304
1644186347.681885,-0.008911,0.008606,-0.991211,0.297191,0.493435,0.143817,55,264,583,6224
1644186347.732404,-0.006836,0.009705,-0.990295,0.297191,0.294962,-0.039389,48,266,573,6256
1644186347.777286,-0.010498,0.00885,-0.990295,0.297191,0.478168,-0.100458,38,270,584,6224
1644186347.873085,-0.009521,0.010925,-0.989441,0.251389,0.401832,-0.008855,38,277,582,6224
1644186347.921424,-0.010498,0.010376,-0.992065,0.266656,0.447634,-0.054656,43,276,573,6224
1644186347.969849,-0.012756,0.010925,-0.993286,0.281924,0.432366,0.067481,47,273,586,6160
1644186348.018212,-0.006348,0.010803,-0.990662,0.312458,0.401832,-0.039389,49,277,582,6224
1644186348.066707,-0.009949,0.010437,-0.99054,0.052916,0.24916,-0.176794,48,269,590,6240
1644186348.115347,-0.007996,0.008484,-0.990662,0.190321,0.417099,-0.054656,54,273,598,6256
1644186348.163388,-0.009827,0.00946,-0.99292,0.297191,0.569771,-0.207328,49,275,575,6224
1644186348.21179,-0.011658,0.010559,-0.991455,0.251389,0.340763,0.052214,46,274,583,6128
1644186348.260185,-0.008606,0.007507,-0.991394,0.08345,0.310229,-0.100458,49,280,575,6240
1644186348.308578,-0.007202,0.009888,-0.993774,0.220855,0.279695,-0.237863,53,274,587,6336
1644186348.35694,-0.009521,0.009644,-0.992493,0.297191,0.478168,-0.161527,48,276,576,6224
1644186348.405357,-0.007385,0.009827,-0.992004,0.190321,0.493435,-0.115725,49,275,586,6240
1644186348.453763,-0.010925,0.009033,-0.989807,0.46513,0.417099,-0.207328,47,270,586,6240
1644186348.502228,-0.008667,0.010803,-0.990601,0.510931,0.279695,-0.069924,41,279,585,6176
1644186348.55053,-0.010315,0.010864,-0.991272,0.144519,0.386565,-0.039389,51,279,594,6176
1644186348.598925,-0.008728,0.01416,-0.991333,0.281924,0.462901,-0.115725,53,271,587,6224
1644186348.647322,-0.009216,0.011047,-0.990662,0.129252,0.569771,-0.161527,43,276,578,6224
1644186348.69571,-0.007019,0.007263,-0.992004,0.251389,0.371298,0.082748,45,280,586,6192
1644186348.744101,-0.009888,0.011169,-0.990051,0.113985,0.325496,-0.207328,42,265,579,6240
1644186348.792891,-0.007935,0.009949,-0.991333,0.08345,0.294962,-0.100458,54,275,572,6256
1644186348.844454,-0.008118,0.010498,-0.992981,0.205588,0.340763,-0.024122,53,281,576,6192
1644186348.8947,-0.007507,0.01062,-0.993469,0.312458,0.340763,-0.039389,53,266,587,6256
1644186348.939059,-0.008606,0.013306,-0.987671,0.312458,0.539237,0.021679,46,279,571,6240
1644186349.034518,-0.006775,0.009888,-0.991577,0.312458,0.493435,-0.192061,57,270,577,6224
1644186349.084198,-0.007629,0.008606,-0.99231,0.113985,0.432366,-0.085191,45,280,584,6240
1644186349.13128,-0.009094,0.008667,-0.99231,0.236122,0.523969,-0.024122,45,280,582,6128
1644186349.17964,-0.005554,0.009888,-0.990784,0.175053,0.569771,-0.14626,49,270,577,6176
1644186349.228031,-0.007751,0.007812,-0.991882,0.190321,0.401832,0.036947,51,279,587,6192
1644186349.276409,-0.008118,0.008545,-0.989624,0.236122,0.523969,-0.130992,55,279,583,6176
1644186349.324831,-0.00946,0.007812,-0.988159,0.342992,0.325496,-0.14626,43,281,583,6224
1644186349.373223,-0.007507,0.010132,-0.991394,0.281924,0.310229,-0.115725,42,277,589,6240
1644186349.421583,-0.006775,0.009399,-0.989563,0.312458,0.371298,-0.054656,48,271,580,6128
1644186349.469991,-0.006042,0.00946,-0.991882,0.281924,0.417099,0.113282,52,270,579,6224
1644186349.518388,-0.008606,0.011475,-0.992798,0.312458,0.371298,-0.130992,60,281,585,6176
1644186349.566782,-0.010254,0.010193,-0.994385,0.312458,0.462901,-0.085191,48,281,583,6224
1644186349.615245,-0.009644,0.008911,-0.994629,0.312458,0.432366,-0.054656,49,280,586,6240
1644186349.66357,-0.007568,0.00647,-0.992188,0.144519,0.371298,-0.054656,51,271,580,6224
1644186349.711967,-0.007263,0.009094,-0.990601,0.266656,0.478168,0.082748,46,281,594,6128
1644186349.760337,-0.011108,0.009338,-0.991943,0.205588,0.371298,-0.100458,46,279,590,6192
1644186349.808753,-0.008972,0.011353,-0.991699,0.342992,0.371298,-0.115725,52,285,579,6240
1644186349.857563,-0.007385,0.009338,-0.992493,0.373527,0.493435,-0.100458,51,283,580,6224
1644186349.905619,-0.009216,0.007446,-0.992188,0.236122,0.401832,-0.008855,47,275,579,6240
1644186349.955104,-0.006531,0.009766,-0.993408,0.373527,0.462901,-0.039389,55,279,590,6224
1644186350.063309,-0.008484,0.009216,-0.992188,0.205588,0.294962,-0.008855,46,274,592,6256
1644186350.100832,-0.010254,0.009644,-0.993286,0.175053,0.462901,-0.161527,48,281,585,6192
1644186350.147509,-0.008545,0.009216,-0.993347,0.327725,0.356031,-0.222595,51,271,592,6240
1644186350.195896,-0.00946,0.008667,-0.994812,0.190321,0.386565,-0.115725,48,274,590,6224
1644186350.244294,-0.008789,0.00885,-0.994568,0.327725,0.264427,-0.130992,48,288,587,6256
1644186350.292709,-0.006104,0.012329,-0.994507,0.190321,0.417099,0.052214,45,273,577,6176
1644186350.341072,-0.009644,0.010071,-0.993408,0.251389,0.401832,-0.054656,49,275,582,6240
1644186350.389467,-0.008179,0.010193,-0.993774,0.175053,0.340763,-0.115725,41,269,580,6176
1644186350.43786,-0.006836,0.008972,-0.990845,0.113985,0.386565,-0.024122,51,283,590,6224
1644186350.486239,-0.007751,0.011292,-0.990601,0.190321,0.340763,-0.14626,43,279,587,6192
1644186350.534645,-0.004883,0.011292,-0.990723,0.159786,0.401832,-0.054656,54,275,579,6256
1644186350.583052,-0.006653,0.008484,-0.993103,0.159786,0.493435,-0.054656,51,271,590,6192
1644186350.631738,-0.007324,0.007751,-0.992554,0.281924,0.294962,-0.024122,54,282,593,6160
1644186350.680669,-0.010742,0.010193,-0.991699,0.312458,0.325496,-0.237863,58,269,590,6256
1644186350.731444,-0.007324,0.007935,-0.993896,0.281924,0.447634,-0.100458,41,271,578,6240
1644186350.781279,-0.010071,0.011169,-0.990173,0.098718,0.539237,-0.054656,51,266,580,6192
1644186350.826286,-0.011841,0.006165,-0.991089,0.190321,0.401832,-0.054656,52,282,584,6224
1644186350.921837,-0.010864,0.009338,-0.994934,0.175053,0.523969,-0.054656,43,279,585,6224
1644186350.970189,-0.007568,0.010071,-0.993774,0.281924,0.447634,-0.008855,46,274,585,6160
1644186351.018618,-0.011108,0.011292,-0.990051,0.388794,0.493435,-0.039389,59,270,584,6224
1644186351.06707,-0.006653,0.010254,-0.987732,0.190321,0.310229,-0.054656,46,279,585,6192
1644186351.115386,-0.010376,0.010742,-0.992615,0.175053,0.371298,-0.100458,52,273,579,6224
1644186351.163769,-0.009094,0.01123,-0.991455,0.144519,0.478168,-0.130992,45,282,577,6240
1644186351.212218,-0.012329,0.011047,-0.993652,0.144519,0.478168,-0.161527,42,277,577,6256
1644186351.260558,-0.008057,0.011597,-0.991821,0.236122,0.371298,-0.14626,51,274,583,6176
1644186351.308949,-0.011536,0.007629,-0.990723,0.190321,0.432366,-0.25313,53,281,576,6224
1644186351.357365,-0.010437,0.007507,-0.99231,0.037649,0.310229,0.021679,52,273,586,6256
1644186351.405761,-0.007996,0.009766,-0.991394,0.266656,0.417099,0.036947,52,277,584,6240
1644186351.454137,-0.010498,0.009277,-0.994446,0.037649,0.432366,-0.207328,38,275,582,6288
1644186351.502553,-0.00824,0.008728,-0.989807,0.159786,0.386565,0.067481,41,283,585,6240
1644186351.550935,-0.011841,0.011353,-0.990234,0.175053,0.417099,0.052214,64,277,584,6224
1644186351.599332,-0.007812,0.009338,-0.992859,0.159786,0.340763,-0.222595,45,277,586,6256
1644186351.647729,-0.007874,0.01062,-0.996216,0.190321,0.340763,-0.130992,49,285,577,6224
1644186351.696116,-0.00708,0.009827,-0.990906,0.281924,0.386565,-0.207328,51,266,585,6256
1644186351.74487,-0.007263,0.008972,-0.994629,0.098718,0.294962,-0.176794,51,279,578,6224
1644186351.792906,-0.011353,0.008911,-0.991699,0.159786,0.386565,-0.176794,47,275,589,6224
1644186351.843417,-0.006592,0.008972,-0.992371,0.220855,0.493435,-0.008855,46,271,583,6256
1644186351.89402,-0.006714,0.008972,-0.992554,0.220855,0.401832,0.098015,40,282,584,6240
1644186351.943655,-0.010803,0.009094,-0.991394,0.159786,0.417099,0.220153,47,265,577,6224
1644186351.988522,-0.006958,0.008606,-0.991577,0.251389,0.264427,0.036947,49,277,589,6192
1644186352.083318,-0.006287,0.011047,-0.993042,0.297191,0.401832,-0.14626,51,271,590,6240
1644186352.131564,-0.007385,0.008911,-0.990906,0.205588,0.493435,-0.054656,53,283,585,6176
1644186352.179985,-0.009155,0.011475,-0.992249,0.404061,0.294962,0.006412,48,279,590,6192
1644186352.228403,-0.010071,0.010803,-0.992188,0.251389,0.340763,-0.100458,57,290,591,6256
1644186352.276773,-0.009766,0.009888,-0.993042,0.251389,0.401832,-0.039389,58,286,576,6288
1644186352.325192,-0.008545,0.008484,-0.993958,0.144519,0.356031,-0.14626,46,274,587,6304
1644186352.373586,-0.008179,0.008972,-0.993347,0.281924,0.462901,-0.024122,45,277,579,6288
1644186352.421972,-0.008301,0.009338,-0.989807,0.251389,0.401832,-0.207328,47,273,579,6256
1644186352.470361,-0.008728,0.011536,-0.99408,0.205588,0.462901,-0.222595,53,271,585,6176
1644186352.518766,-0.009766,0.008118,-0.993286,0.434595,0.478168,-0.085191,43,276,578,6192
1644186352.567146,-0.010376,0.006409,-0.994812,0.190321,0.447634,-0.130992,51,274,590,6240
1644186352.615549,-0.005676,0.01001,-0.993896,0.190321,0.401832,0.067481,55,269,583,6224
1644186352.663952,-0.01062,0.010437,-0.989685,0.068183,0.417099,-0.039389,52,285,593,6256
1644186352.712345,-0.008118,0.010986,-0.990723,0.236122,0.432366,-0.161527,51,281,578,6240
1644186352.760704,-0.007263,0.009277,-0.992798,0.068183,0.340763,-0.054656,48,269,580,6160
1644186352.809158,-0.006531,0.008362,-0.989624,0.08345,0.356031,-0.039389,52,277,589,6224
1644186352.857552,-0.008301,0.010376,-0.993347,0.175053,0.432366,-0.176794,36,274,592,6256
1644186352.906233,-0.009094,0.013062,-0.994324,0.113985,0.340763,-0.100458,47,270,584,6192
1644186352.954351,-0.006958,0.008545,-0.990601,0.312458,0.356031,-0.069924,47,270,577,6256
1644186353.057007,-0.00946,0.010132,-0.994446,0.327725,0.508702,-0.161527,57,280,586,6240
1644186353.099444,-0.00885,0.010193,-0.991638,0.022382,0.294962,0.098015,46,274,583,6240
1644186353.147857,-0.009949,0.010071,-0.993042,0.175053,0.478168,0.021679,53,279,583,6224
1644186353.196234,-0.009277,0.009399,-0.991699,0.08345,0.356031,-0.115725,38,277,589,6160
1644186353.244702,-0.005981,0.010498,-0.99115,0.205588,0.493435,-0.115725,42,275,586,6224
1644186353.293055,-0.00592,0.009033,-0.993347,0.205588,0.493435,-0.115725,49,285,577,6224
1644186353.34145,-0.008972,0.009705,-0.991516,0.281924,0.264427,-0.176794,54,268,586,6192
1644186353.389828,-0.006409,0.008911,-0.988342,0.190321,0.401832,-0.14626,48,276,583,6224
1644186353.438219,-0.007019,0.011536,-0.992676,0.220855,0.371298,0.006412,51,269,578,6240
1644186353.486612,-0.008972,0.010986,-0.989685,0.251389,0.340763,-0.008855,49,268,577,6224
1644186353.535138,-0.00708,0.010864,-0.992859,0.113985,0.432366,-0.115725,53,271,578,6224
1644186353.583415,-0.008911,0.010559,-0.990417,0.236122,0.493435,-0.176794,45,282,589,6192
1644186353.631803,-0.010071,0.011353,-0.991699,0.175053,0.447634,-0.008855,48,274,576,6192
1644186353.680194,-0.008362,0.010864,-0.991943,0.190321,0.462901,-0.024122,35,268,591,6336
1644186353.72858,-0.009277,0.009399,-0.993469,0.220855,0.462901,0.067481,45,282,589,6256
1644186353.77697,-0.007629,0.009216,-0.990234,0.35826,0.523969,-0.100458,46,266,585,6192
1644186353.826896,-0.009094,0.010376,-0.990601,0.297191,0.356031,-0.115725,51,274,590,6176
1644186353.87671,-0.009216,0.012939,-0.989624,0.342992,0.356031,-0.024122,55,274,584,6176
1644186353.926916,-0.008484,0.007507,-0.991089,0.281924,0.462901,-0.161527,51,274,590,6192
1644186353.971402,-0.008484,0.011719,-0.993164,0.144519,0.478168,-0.054656,45,277,579,6224
1644186354.067397,-0.008972,0.012634,-0.991089,0.037649,0.371298,-0.039389,42,270,584,6288
1644186354.115727,-0.008789,0.011047,-0.990662,0.342992,0.508702,-0.069924,49,280,577,6240
1644186354.164118,-0.007385,0.009766,-0.993408,0.312458,0.432366,-0.069924,43,276,583,6224
1644186354.212518,-0.006165,0.010132,-0.992065,0.236122,0.462901,-0.085191,53,271,585,6160
1644186354.260876,-0.007812,0.008606,-0.989258,0.434595,0.264427,-0.039389,45,275,586,6176
1644186354.309284,-0.008179,0.012146,-0.994385,0.190321,0.371298,-0.054656,48,271,585,6224
1644186354.357673,-0.007263,0.008057,-0.991394,0.251389,0.523969,-0.054656,39,283,580,6240
1644186354.406074,-0.009949,0.010071,-0.990906,0.08345,0.478168,-0.024122,48,276,587,6224
1644186354.454459,-0.009033,0.00946,-0.991089,0.236122,0.371298,0.036947,52,273,586,6224
1644186354.502851,-0.00647,0.011719,-0.989624,0.251389,0.493435,-0.024122,47,282,577,6160
1644186354.551268,-0.009705,0.012878,-0.993591,0.266656,0.401832,-0.176794,46,271,587,6240
1644186354.599651,-0.008484,0.010315,-0.989624,0.129252,0.188092,0.036947,43,279,580,6256
1644186354.648048,-0.008545,0.009399,-0.991394,0.144519,0.386565,-0.130992,39,271,592,6240
1644186354.696431,-0.008789,0.01001,-0.991394,0.220855,0.279695,-0.176794,53,279,592,6256
1644186354.744843,-0.008484,0.009644,-0.992798,0.220855,0.340763,-0.054656,46,283,583,6224
1644186354.793224,-0.005493,0.009399,-0.992676,0.175053,0.417099,-0.161527,53,281,592,6176
1644186354.841657,-0.00824,0.009766,-0.991089,0.297191,0.523969,-0.14626,48,266,580,6192
1644186354.890045,-0.008972,0.008667,-0.992554,0.159786,0.478168,-0.008855,48,279,576,6256
1644186354.938453,-0.007751,0.010132,-0.992004,0.220855,0.523969,-0.069924,48,276,576,6224
1644186354.987802,-0.007568,0.006165,-0.991882,0.327725,0.432366,0.052214,54,275,584,6192
1644186355.038551,-0.010132,0.00647,-0.991455,0.251389,0.310229,0.006412,49,277,589,6192
1644186355.093816,-0.008179,0.00885,-0.994263,0.190321,0.417099,-0.192061,51,279,587,6192
1644186355.132898,-0.007446,0.009583,-0.99054,0.113985,0.493435,-0.054656,48,271,576,6224
1644186355.228744,-0.00769,0.009155,-0.992981,0.175053,0.264427,-0.054656,33,277,584,6176
1644186355.277135,-0.007446,0.007751,-0.990662,0.281924,0.432366,-0.054656,49,280,579,6240
1644186355.325516,-0.007568,0.011597,-0.993225,0.297191,0.340763,-0.085191,45,280,582,6128
1644186355.373935,-0.012268,0.010559,-0.991943,0.297191,0.432366,-0.161527,46,274,590,6240
1644186355.422372,-0.007141,0.010742,-0.99469,0.266656,0.447634,0.036947,61,275,582,6288
1644186355.470722,-0.008118,0.007751,-0.993164,0.281924,0.356031,-0.100458,42,268,591,6192
1644186355.519112,-0.010071,0.009033,-0.99115,0.404061,0.493435,-0.054656,49,285,579,6240
1644186355.567511,-0.007507,0.008911,-0.991699,0.159786,0.478168,0.006412,48,274,571,6224
1644186355.615908,-0.006653,0.012329,-0.993896,0.236122,0.310229,-0.14626,47,270,570,6224
1644186355.664309,-0.008667,0.010193,-0.992188,0.159786,0.401832,-0.008855,49,273,579,6240
1644186355.712709,-0.00708,0.010864,-0.99176,0.388794,0.478168,-0.024122,45,275,579,6160
1644186355.761052,-0.01001,0.008972,-0.992188,0.175053,0.417099,-0.115725,48,274,576,6176
1644186355.809468,-0.009216,0.007202,-0.991821,0.266656,0.523969,-0.130992,38,273,582,6224
1644186355.857904,-0.007751,0.008484,-0.990234,0.236122,0.417099,-0.115725,41,274,580,6224
1644186355.906271,-0.007446,0.007935,-0.990784,0.144519,0.325496,-0.085191,40,273,584,6224
1644186355.954705,-0.005371,0.010681,-0.989014,0.175053,0.386565,-0.054656,59,280,593,6256
1644186356.003066,-0.008118,0.010132,-0.99231,0.159786,0.386565,-0.039389,54,275,579,6224
1644186356.069311,-0.00946,0.009216,-0.991028,0.175053,0.340763,-0.008855,46,271,592,6192
1644186356.104389,-0.008484,0.011597,-0.992676,0.159786,0.356031,-0.085191,57,270,586,6160
1644186356.150639,-0.007751,0.01123,-0.99176,0.159786,0.386565,0.113282,58,266,585,6192
1644186356.199569,-0.004883,0.010498,-0.989685,0.35826,0.462901,-0.176794,42,277,593,6224
1644186356.249797,-0.007263,0.011719,-0.993958,0.175053,0.523969,-0.115725,54,273,586,6192
1644186356.29472,-0.00708,0.008911,-0.990662,0.342992,0.386565,-0.130992,43,271,585,6192
1644186356.390187,-0.007202,0.009766,-0.990845,0.266656,0.417099,-0.161527,54,282,591,6224
1644186356.438578,-0.009521,0.009277,-0.991028,0.175053,0.371298,-0.130992,49,285,584,6224
1644186356.48697,-0.010681,0.008667,-0.993896,0.129252,0.600305,-0.085191,42,273,584,6240
1644186356.535365,-0.008667,0.010681,-0.989807,0.052916,0.294962,-0.222595,48,279,576,6192
1644186356.583763,-0.015381,0.009705,-0.991699,0.175053,0.340763,-0.024122,47,273,579,6224
1644186356.632171,-0.010376,0.010254,-0.991272,0.236122,0.432366,-0.130992,54,270,591,6128
1644186356.680557,-0.007141,0.009338,-0.994019,0.037649,0.340763,-0.192061,57,265,579,6224
1644186356.728947,-0.009338,0.009705,-0.992859,0.205588,0.493435,-0.085191,41,279,587,6240
1644186356.777333,-0.005554,0.010376,-0.990112,0.327725,0.478168,-0.14626,57,258,589,6240
1644186356.825724,-0.005859,0.00946,-0.989807,0.129252,0.264427,-0.130992,43,286,583,6224
1644186356.874177,-0.005676,0.007202,-0.992554,0.35826,0.462901,0.006412,43,276,578,6176
1644186356.922575,-0.010132,0.009583,-0.991516,0.220855,0.340763,-0.130992,49,270,589,6224
1644186356.970942,-0.010254,0.010742,-0.992737,0.068183,0.386565,0.036947,47,268,596,6176
1644186357.019343,-0.007141,0.007629,-0.992493,0.205588,0.417099,-0.161527,52,280,584,6224
1644186357.089324,-0.009888,0.011047,-0.991943,0.236122,0.294962,-0.115725,53,281,587,6224
1644186357.120605,-0.008179,0.01123,-0.989685,0.129252,0.615573,-0.069924,40,275,586,6224
1644186357.165017,-0.00769,0.01062,-0.990601,0.175053,0.523969,-0.115725,60,271,594,6224
1644186357.261287,-0.008301,0.009521,-0.990234,0.205588,0.447634,-0.14626,41,279,585,6256
1644186357.309649,-0.006897,0.008789,-0.991882,0.190321,0.279695,-0.024122,43,271,583,6240
1644186357.358041,-0.008606,0.008484,-0.991577,0.175053,0.401832,-0.085191,49,275,577,6224
1644186357.406433,-0.007263,0.010376,-0.993042,0.175053,0.356031,0.052214,48,276,573,6128
1644186357.454855,-0.006958,0.010437,-0.994751,0.297191,0.493435,-0.054656,49,282,572,6224
1644186357.503218,-0.010193,0.006714,-0.994019,0.175053,0.478168,-0.069924,47,268,584,6128
1644186357.551642,-0.011475,0.00824,-0.992737,0.266656,0.356031,-0.192061,52,285,582,6256
1644186357.599995,-0.007629,0.011414,-0.99292,0.113985,0.386565,0.006412,51,281,578,6192
1644186357.648416,-0.009644,0.009521,-0.993225,0.113985,0.386565,-0.176794,39,279,583,6240
1644186357.696806,-0.011108,0.010742,-0.99231,0.144519,0.325496,-0.054656,49,282,586,6224
1644186357.74526,-0.008972,0.00769,-0.992676,0.266656,0.401832,-0.069924,52,277,575,6256
1644186357.793601,-0.008606,0.010376,-0.990845,0.312458,0.523969,-0.115725,48,276,580,6176
1644186357.841977,-0.008728,0.008545,-0.991333,0.144519,0.294962,0.021679,43,291,578,6256
1644186357.890423,-0.005676,0.010986,-0.993042,0.220855,0.462901,-0.069924,47,280,586,6304
1644186357.938811,-0.007812,0.007202,-0.991699,0.236122,0.417099,-0.14626,53,274,592,6240
1644186357.987201,-0.007751,0.00946,-0.993042,0.175053,0.325496,-0.100458,45,275,589,6192
1644186358.035601,-0.008606,0.008972,-0.991821,0.129252,0.294962,-0.176794,47,282,586,6256
1644186358.083997,-0.004517,0.012634,-0.993591,0.159786,0.493435,0.052214,48,276,592,6304
1644186358.132367,-0.006409,0.011047,-0.991089,0.190321,0.340763,-0.130992,57,280,577,6224
1644186358.181236,-0.010315,0.009644,-0.991272,0.251389,0.356031,0.067481,42,275,589,6176
1644186358.232339,-0.008789,0.011353,-0.9953,0.327725,0.493435,-0.100458,54,270,584,6240
1644186358.281819,-0.007385,0.008972,-0.992249,0.159786,0.554504,-0.14626,43,279,580,6240
1644186358.326989,-0.009277,0.00885,-0.990234,0.220855,0.386565,-0.054656,53,279,585,6224
1644186358.42271,-0.008972,0.010254,-0.992188,0.159786,0.401832,0.067481,36,274,576,6224
1644186358.47109,-0.009949,0.006714,-0.991699,0.266656,0.478168,-0.054656,48,281,587,6224
1644186358.519484,-0.008301,0.00946,-0.992432,0.098718,0.325496,0.036947,48,269,580,6256
1644186358.567885,-0.007507,0.008484,-0.99353,0.052916,0.386565,-0.085191,45,273,570,6224
1644186358.616259,-0.006714,0.012268,-0.990845,0.327725,0.417099,0.036947,36,279,585,6192
1644186358.664672,-0.007507,0.009827,-0.994202,0.113985,0.340763,-0.039389,49,268,582,6256
1644186358.713073,-0.011108,0.009033,-0.991028,0.281924,0.401832,0.159084,51,286,576,6224
1644186358.761464,-0.008301,0.007996,-0.989502,0.220855,0.508702,-0.008855,48,279,576,6192
1644186358.809879,-0.010315,0.009949,-0.990845,0.175053,0.356031,-0.25313,58,274,583,6224
1644186358.858258,-0.009338,0.007812,-0.994568,0.159786,0.462901,-0.237863,48,271,571,6256
1644186358.906661,-0.006653,0.006287,-0.991882,0.281924,0.371298,-0.130992,43,286,571,6240
1644186358.955214,-0.006348,0.010254,-0.99176,0.236122,0.462901,-0.008855,49,265,584,6160
1644186359.003529,-0.011047,0.007629,-0.989685,0.113985,0.523969,-0.054656,54,277,582,6192
1644186359.061631,-0.008667,0.010376,-0.991638,0.342992,0.554504,-0.085191,39,276,583,6192
1644186359.100218,-0.00531,0.010437,-0.992859,0.312458,0.462901,-0.298931,52,277,579,6192
1644186359.148599,-0.008728,0.006897,-0.992065,0.297191,0.417099,0.052214,48,279,578,6304
1644186359.196992,-0.004395,0.009766,-0.991882,0.266656,0.310229,-0.237863,48,274,590,6240
1644186359.245387,-0.007507,0.009399,-0.992981,0.205588,0.493435,-0.069924,46,269,590,6256
1644186359.293856,-0.009705,0.009155,-0.989685,0.220855,0.386565,-0.085191,49,280,584,6224
1644186359.342528,-0.011414,0.010376,-0.992554,0.098718,0.493435,-0.14626,54,275,582,6224
1644186359.392962,-0.010681,0.009338,-0.98938,0.266656,0.462901,-0.115725,55,279,583,6240
1644186359.443346,-0.006348,0.010681,-0.991882,0.297191,0.340763,-0.14626,49,280,589,6176
1644186359.488439,-0.009766,0.006714,-0.992615,0.190321,0.340763,-0.161527,55,276,587,6192
1644186359.584145,-0.006165,0.011963,-0.991333,0.205588,0.325496,-0.008855,51,276,571,6256
1644186359.632523,-0.010254,0.010254,-0.990967,0.144519,0.478168,-0.14626,46,276,585,6240
1644186359.680893,-0.009155,0.010864,-0.989868,0.144519,0.401832,-0.130992,45,265,586,6256
1644186359.729292,-0.007141,0.010193,-0.991943,0.159786,0.539237,0.006412,49,280,582,6160
1644186359.777699,-0.008484,0.007141,-0.99054,0.266656,0.432366,-0.069924,51,281,587,6224
1644186359.826129,-0.006653,0.009521,-0.993713,0.175053,0.493435,-0.176794,47,280,579,6256
1644186359.87453,-0.007446,0.012756,-0.992126,-0.008153,0.432366,-0.192061,49,275,579,6240
1644186359.922929,-0.00769,0.007507,-0.991821,0.190321,0.478168,-0.268397,52,273,582,6240
1644186359.971326,-0.007324,0.011353,-0.991577,0.190321,0.462901,-0.054656,49,280,575,6224
1644186360.019714,-0.010925,0.011719,-0.990723,0.205588,0.325496,-0.039389,54,273,584,6224
1644186360.081953,-0.008484,0.00946,-0.99176,0.068183,0.401832,-0.176794,54,280,589,6192
1644186360.116483,-0.009399,0.008545,-0.992065,0.236122,0.233893,-0.054656,48,269,590,6240
1644186360.164848,-0.007202,0.009644,-0.990479,0.129252,0.462901,-0.008855,47,290,577,6288
1644186360.213249,-0.010803,0.01062,-0.99115,0.190321,0.325496,-0.054656,61,275,575,6224
1644186360.261604,-0.007751,0.010376,-0.989502,0.236122,0.432366,-0.069924,52,273,584,6288
1644186360.310027,-0.008545,0.011047,-0.993347,0.236122,0.356031,0.021679,47,275,582,6224
1644186360.358414,-0.007812,0.010803,-0.993286,0.281924,0.325496,-0.130992,47,273,584,6176
1644186360.406783,-0.008179,0.007141,-0.991638,0.098718,0.432366,-0.054656,53,281,587,6224
1644186360.455201,-0.005859,0.010681,-0.991699,0.342992,0.401832,-0.085191,43,271,590,6256
1644186360.503847,-0.006958,0.01178,-0.990356,0.327725,0.447634,-0.222595,52,273,572,6192
1644186360.554372,-0.006775,0.009277,-0.993347,0.251389,0.417099,-0.222595,53,281,580,6192
1644186360.604563,-0.007263,0.008301,-0.99292,0.342992,0.508702,-0.222595,42,280,577,6176
1644186360.649637,-0.008423,0.009094,-0.988342,0.327725,0.432366,-0.100458,51,281,585,6256
1644186360.745539,-0.008484,0.008606,-0.991272,0.205588,0.356031,-0.085191,57,277,572,6176
1644186360.793973,-0.009521,0.009399,-0.987793,0.281924,0.508702,-0.100458,52,277,579,6256
1644186360.842425,-0.00708,0.008972,-0.990784,0.08345,0.447634,-0.130992,55,274,578,6224
1644186360.890773,-0.008667,0.012939,-0.993225,0.312458,0.508702,-0.085191,45,285,579,6240
1644186360.939171,-0.010254,0.009216,-0.990784,0.205588,0.356031,0.006412,48,281,580,6224
1644186360.987562,-0.004822,0.00885,-0.991882,0.297191,0.478168,-0.039389,40,282,586,6192
1644186361.035955,-0.00946,0.007812,-0.988098,0.236122,0.356031,-0.024122,48,269,583,6192
1644186361.090985,-0.007324,0.009644,-0.993347,0.175053,0.569771,-0.008855,60,266,585,6176
1644186361.13273,-0.008545,0.00885,-0.993958,0.297191,0.417099,-0.039389,51,276,583,6224
1644186361.181102,-0.008484,0.011475,-0.992859,0.159786,0.264427,-0.100458,43,266,580,6192
1644186361.229484,-0.010864,0.010864,-0.990295,0.342992,0.417099,-0.130992,48,283,585,6224
1644186361.277864,-0.00769,0.010071,-0.991455,0.159786,0.356031,-0.054656,54,270,589,6224
1644186361.32628,-0.00885,0.006104,-0.992615,0.205588,0.172824,-0.25313,60,271,587,6224
1644186361.374682,-0.008179,0.009033,-0.989075,0.190321,0.310229,0.021679,53,279,583,6240
1644186361.423083,-0.00769,0.010071,-0.989929,0.159786,0.386565,-0.115725,49,280,596,6224
1644186361.47145,-0.00946,0.011108,-0.992432,0.266656,0.447634,-0.237863,46,271,583,6224
1644186361.52016,-0.007874,0.009033,-0.992126,0.113985,0.493435,-0.176794,49,275,589,6192
1644186361.569134,-0.005005,0.008728,-0.989868,0.236122,0.478168,0.067481,48,281,583,6224
1644186361.619467,-0.005005,0.010986,-0.991577,0.312458,0.478168,-0.176794,47,273,591,6224
1644186361.669696,-0.009827,0.011292,-0.990295,0.236122,0.523969,-0.161527,58,276,590,6224
1644186361.714702,-0.008118,0.009705,-0.993652,0.113985,0.493435,-0.054656,48,271,587,6176
1644186361.810189,-0.009644,0.010681,-0.992981,0.35826,0.310229,-0.176794,54,280,589,6224
1644186361.858629,-0.00647,0.008728,-0.991455,0.327725,0.294962,-0.115725,53,269,583,6240
1644186361.907034,-0.007935,0.011597,-0.990845,0.266656,0.478168,-0.207328,51,279,587,6224
1644186361.955424,-0.008301,0.010681,-0.991211,0.159786,0.386565,-0.008855,47,273,577,6192
1644186362.003805,-0.009155,0.007324,-0.990051,0.175053,0.447634,0.006412,53,276,571,6224
1644186362.060991,-0.00769,0.011047,-0.99231,0.220855,0.432366,0.052214,48,279,580,6240
1644186362.100588,-0.006653,0.010193,-0.990723,0.159786,0.340763,-0.161527,48,276,576,6240
1644186362.148944,-0.00885,0.011658,-0.990234,0.205588,0.401832,-0.161527,55,279,576,6224
1644186362.197351,-0.007202,0.011719,-0.988464,0.190321,0.401832,-0.222595,51,276,580,6240
1644186362.245717,-0.008118,0.008545,-0.992615,0.129252,0.539237,-0.024122,49,285,596,6224
1644186362.294147,-0.012207,0.010925,-0.991211,0.236122,0.417099,-0.054656,47,290,586,6240
1644186362.342555,-0.006226,0.012085,-0.992676,0.281924,0.356031,-0.130992,48,279,590,6176
1644186362.390933,-0.007935,0.010803,-0.992188,0.113985,0.340763,0.036947,52,277,589,6240
1644186362.439283,-0.008667,0.012512,-0.995178,0.220855,0.401832,-0.008855,47,277,582,6176
1644186362.487712,-0.009521,0.009216,-0.991211,0.022382,0.294962,-0.054656,43,276,590,6224
1644186362.536076,-0.007812,0.010254,-0.990051,0.068183,0.432366,-0.039389,53,279,585,6240
1644186362.584502,-0.007507,0.007751,-0.992188,0.144519,0.401832,-0.115725,58,274,592,6256
1644186362.633152,-0.009277,0.011658,-0.991882,0.068183,0.401832,-0.024122,46,281,587,6224
1644186362.681418,-0.007019,0.010193,-0.992737,0.205588,0.279695,-0.115725,40,277,586,6192
1644186362.730778,-0.008179,0.009705,-0.990112,0.297191,0.371298,-0.085191,55,271,599,6224
1644186362.781589,-0.006958,0.008606,-0.99054,0.007115,0.493435,-0.176794,59,273,584,6224
1644186362.826728,-0.011414,0.008484,-0.990906,0.113985,0.462901,-0.161527,49,268,575,6224
1644186362.923336,-0.00885,0.010376,-0.994568,0.159786,0.462901,-0.176794,39,283,576,6176
1644186362.971724,-0.008484,0.00708,-0.992615,0.113985,0.279695,0.067481,47,277,584,6224
1644186363.020073,-0.00885,0.006897,-0.989197,0.266656,0.508702,-0.085191,48,271,578,6192
1644186363.069309,-0.007568,0.012085,-0.991577,0.144519,0.478168,-0.100458,62,286,590,6240
1644186363.116832,-0.009094,0.010193,-0.991455,0.266656,0.340763,-0.069924,49,265,584,6256
1644186363.165216,-0.009094,0.009827,-0.992737,0.205588,0.356031,-0.192061,46,274,580,6240
1644186363.213613,-0.007751,0.008423,-0.992126,0.159786,0.432366,-0.14626,49,282,584,6224
1644186363.261991,-0.007935,0.009521,-0.98938,0.312458,0.401832,-0.085191,40,287,584,6176
1644186363.31037,-0.009583,0.010132,-0.992615,0.113985,0.310229,-0.039389,47,282,591,6160
1644186363.358787,-0.008423,0.011719,-0.990417,0.419328,0.508702,-0.039389,47,277,577,6224
1644186363.407176,-0.009827,0.011292,-0.990051,0.342992,0.386565,-0.14626,46,279,580,6224
1644186363.455571,-0.010742,0.012573,-0.990295,0.236122,0.508702,-0.161527,45,275,582,6224
1644186363.503993,-0.008362,0.009766,-0.991638,0.113985,0.386565,-0.024122,52,273,586,6256
1644186363.552375,-0.010376,0.007568,-0.990601,0.281924,0.325496,-0.039389,43,274,580,6224
1644186363.600746,-0.009277,0.009705,-0.993164,0.251389,0.264427,-0.161527,53,271,585,6128
1644186363.649133,-0.008118,0.009155,-0.991333,0.129252,0.401832,-0.069924,49,265,591,6256
1644186363.697491,-0.009094,0.010437,-0.990723,0.113985,0.340763,-0.039389,49,275,591,6224
1644186363.745928,-0.007385,0.008911,-0.99176,0.098718,0.508702,-0.161527,51,283,583,6256
1644186363.794623,-0.008057,0.011597,-0.98999,0.159786,0.523969,-0.085191,49,277,600,6224
1644186363.845293,-0.010681,0.012634,-0.993408,0.144519,0.24916,-0.069924,42,282,586,6192
1644186363.894871,-0.008057,0.01001,-0.990967,0.220855,0.462901,-0.130992,48,271,583,6192
1644186363.944945,-0.007935,0.010498,-0.993225,0.220855,0.401832,-0.115725,51,279,597,6240
1644186363.989605,-0.007202,0.010986,-0.989441,0.08345,0.325496,-0.054656,48,276,585,6240
1644186364.084838,-0.006836,0.008789,-0.99231,0.251389,0.432366,-0.039389,59,270,582,6176
1644186364.133079,-0.009766,0.012451,-0.991577,0.190321,0.401832,-0.14626,40,285,584,6192
1644186364.181445,-0.005371,0.007019,-0.992554,0.312458,0.310229,-0.130992,49,275,593,6224
1644186364.229848,-0.00647,0.008484,-0.992615,0.159786,0.310229,-0.024122,41,291,580,6240
1644186364.278223,-0.008545,0.00824,-0.990906,0.281924,0.386565,-0.192061,43,279,583,6240
1644186364.32661,-0.008057,0.008484,-0.992065,0.251389,0.371298,0.006412,46,281,583,6240
1644186364.375065,-0.006653,0.009338,-0.992859,0.129252,0.356031,-0.085191,46,279,580,6176
1644186364.423431,-0.006958,0.009705,-0.990662,0.113985,0.417099,-0.069924,47,273,586,6256
1644186364.471821,-0.008972,0.007996,-0.98999,0.190321,0.340763,-0.130992,53,283,580,6240
1644186364.52022,-0.006775,0.011292,-0.99176,0.281924,0.401832,-0.115725,51,286,580,6176
1644186364.568585,-0.007324,0.009155,-0.993469,0.388794,0.371298,-0.024122,43,271,585,6224
1644186364.616995,-0.008118,0.008667,-0.992554,0.266656,0.310229,-0.100458,43,274,585,6176
1644186364.665386,-0.009766,0.009949,-0.989807,0.220855,0.325496,-0.115725,47,282,582,6256
1644186364.71383,-0.008972,0.009827,-0.992432,0.144519,0.417099,-0.115725,52,273,579,6176
1644186364.762243,-0.008057,0.010925,-0.993347,0.113985,0.417099,-0.039389,51,274,587,6224
1644186364.810574,-0.009583,0.008911,-0.990356,0.08345,0.386565,-0.100458,49,282,591,6256
1644186364.859,-0.008728,0.010864,-0.990845,0.129252,0.386565,-0.115725,48,279,590,6224
1644186364.907748,-0.008118,0.008728,-0.992676,0.175053,0.371298,-0.024122,46,269,585,6224
1644186364.95579,-0.009155,0.01001,-0.990173,0.037649,0.417099,-0.115725,52,270,589,6256
1644186365.058589,-0.008362,0.010193,-0.991333,0.251389,0.279695,-0.161527,48,281,590,6240
1644186365.100967,-0.010193,0.011841,-0.990112,0.129252,0.356031,-0.039389,49,268,582,6240
1644186365.149337,-0.010986,0.010864,-0.992432,0.281924,0.371298,-0.14626,47,275,579,6256
1644186365.197711,-0.00946,0.010498,-0.993469,0.144519,0.447634,-0.237863,60,279,578,6224
1644186365.246089,-0.008423,0.010315,-0.98999,0.205588,0.447634,-0.115725,48,281,585,6192
1644186365.294513,-0.010803,0.008362,-0.992981,0.08345,0.493435,0.021679,48,276,583,6224
1644186365.342892,-0.007812,0.011353,-0.990295,0.312458,0.478168,-0.054656,49,282,584,6240
1644186365.391277,-0.00946,0.011719,-0.993835,0.342992,0.356031,-0.176794,48,274,571,6240
1644186365.439674,-0.006775,0.008667,-0.994141,0.129252,0.279695,0.036947,51,264,587,6240
1644186365.488063,-0.006042,0.010864,-0.989563,0.327725,0.401832,-0.130992,38,273,586,6176
1644186365.536463,-0.007568,0.010437,-0.992493,0.175053,0.340763,-0.115725,52,275,584,6224
1644186365.584832,-0.007019,0.00885,-0.990845,0.205588,0.493435,-0.207328,51,281,592,6192
1644186365.633243,-0.006409,0.010742,-0.992004,0.327725,0.401832,-0.008855,54,285,582,6240
1644186365.68164,-0.008789,0.01001,-0.992554,0.220855,0.432366,-0.192061,43,279,590,6160
1644186365.730032,-0.010803,0.010132,-0.989868,0.175053,0.493435,-0.207328,48,274,585,6224
1644186365.778656,-0.009094,0.00885,-0.991028,0.205588,0.340763,-0.085191,55,276,587,6112
1644186365.827495,-0.012817,0.010132,-0.992737,0.373527,0.478168,-0.085191,42,277,586,6176
1644186365.878919,-0.009094,0.010498,-0.991882,0.190321,0.340763,-0.130992,46,274,576,6224
1644186365.929129,-0.00824,0.009094,-0.99115,0.281924,0.417099,-0.054656,46,271,594,6176
1644186365.973508,-0.007141,0.008606,-0.99353,0.205588,0.371298,-0.024122,48,279,587,6224
1644186366.068877,-0.008301,0.010681,-0.993225,0.373527,0.432366,-0.085191,49,273,586,6256
1644186366.117179,-0.009094,0.010315,-0.992737,0.251389,0.371298,-0.161527,40,277,586,6224
1644186366.165553,-0.009705,0.010925,-0.991699,0.205588,0.539237,-0.054656,46,269,580,6224
1644186366.213973,-0.008911,0.011047,-0.991882,0.266656,0.447634,-0.14626,45,275,586,6176
1644186366.26239,-0.01178,0.007202,-0.993835,0.190321,0.401832,0.220153,52,275,584,6224
1644186366.31074,-0.006042,0.010315,-0.991028,0.144519,0.325496,-0.283664,53,271,580,6288
1644186366.359133,-0.007141,0.010742,-0.991516,0.281924,0.462901,-0.115725,53,279,583,6240
1644186366.407548,-0.008545,0.01178,-0.99292,0.251389,0.401832,-0.008855,46,276,583,6192
1644186366.455929,-0.010803,0.007751,-0.991699,0.205588,0.432366,-0.085191,45,270,586,6192
1644186366.504342,-0.010132,0.009583,-0.99176,0.205588,0.386565,-0.024122,40,285,575,6224
1644186366.552732,-0.008606,0.011658,-0.988953,0.144519,0.401832,-0.054656,48,281,594,6224
1644186366.6011,-0.009277,0.010254,-0.989746,0.266656,0.539237,-0.130992,49,270,584,6224
1644186366.649503,-0.008484,0.00885,-0.991516,0.098718,0.462901,0.143817,48,269,592,6240
1644186366.697891,-0.007751,0.009094,-0.99231,0.281924,0.447634,-0.207328,47,280,579,6224
1644186366.746276,-0.009827,0.009521,-0.991943,0.08345,0.432366,-0.222595,41,279,587,6176
1644186366.794892,-0.009827,0.01062,-0.990906,0.175053,0.539237,-0.100458,55,283,592,6240
1644186366.843091,-0.00708,0.010803,-0.993713,0.297191,0.508702,0.067481,48,279,580,6224
1644186366.891503,-0.008362,0.009583,-0.992676,0.205588,0.508702,-0.039389,45,275,579,6224
1644186366.939913,-0.009277,0.009277,-0.990601,0.312458,0.432366,0.098015,51,286,585,6256
1644186366.989443,-0.009521,0.011536,-0.992249,0.129252,0.523969,-0.192061,45,287,582,6128
1644186367.054662,-0.008911,0.008728,-0.992432,0.35826,0.356031,-0.008855,45,280,582,6224
1644186367.095992,-0.008972,0.010376,-0.991699,0.297191,0.401832,-0.176794,55,274,592,6160
1644186367.134304,-0.008057,0.010071,-0.990112,0.342992,0.325496,-0.25313,49,263,584,6224
1644186367.230221,-0.006775,0.011475,-0.98999,0.190321,0.539237,-0.039389,51,276,587,6240
