epoch,acc_x,acc_y,acc_z,rot_x,rot_y,rot_z,mag_x,mag_y,mag_z,temp
1644178200.001523,-0.011414,0.009705,-0.991272,0.144519,0.371298,-0.176794,40,273,582,5952
1644178200.063282,-0.008911,0.011658,-0.989929,0.297191,0.432366,-0.100458,48,276,587,6016
1644178200.100812,-0.011841,0.009766,-0.991089,0.205588,0.386565,-0.008855,52,275,589,5952
1644178200.146642,-0.009644,0.009827,-0.993591,0.205588,0.478168,-0.054656,48,271,585,5984
1644178200.19518,-0.007629,0.009338,-0.991699,0.144519,0.417099,-0.176794,49,268,586,5904
1644178200.243422,-0.00885,0.008423,-0.991577,0.312458,0.386565,0.067481,46,279,587,6016
1644178200.29181,-0.010132,0.007324,-0.990295,0.175053,0.325496,-0.130992,40,280,579,5952
1644178200.340214,-0.010681,0.009644,-0.991943,0.419328,0.401832,-0.100458,55,281,585,6016
1644178200.388616,-0.010925,0.007263,-0.992371,0.113985,0.554504,-0.268397,61,282,591,6048
1644178200.437001,-0.009766,0.00708,-0.99408,0.373527,0.356031,0.021679,51,271,587,6016
1644178200.485405,-0.00824,0.008911,-0.991699,0.404061,0.493435,-0.268397,49,277,586,5952
1644178200.533787,-0.010193,0.008728,-0.996277,0.236122,0.417099,-0.192061,53,281,592,5936
1644178200.582203,-0.008728,0.00946,-0.992554,0.068183,0.340763,-0.024122,51,271,590,5952
1644178200.630714,-0.010498,0.011169,-0.991272,0.190321,0.294962,0.052214,58,274,585,5984
1644178200.681169,-0.00885,0.009583,-0.994812,0.144519,0.371298,-0.14626,54,273,593,5952
1644178200.731326,-0.008728,0.008667,-0.993408,0.312458,0.478168,-0.268397,57,277,591,6016
1644178200.776451,-0.009949,0.007019,-0.990295,0.312458,0.24916,-0.069924,51,276,573,6000
1644178200.872586,-0.00769,0.008301,-0.991638,0.190321,0.447634,-0.085191,53,274,585,5984
1644178200.920969,-0.010742,0.009399,-0.99176,0.342992,0.386565,-0.207328,52,280,589,5984
1644178200.969351,-0.010498,0.008423,-0.992249,0.190321,0.218626,-0.283664,42,273,582,5936
1644178201.01775,-0.011475,0.006897,-0.991455,0.373527,0.493435,-0.14626,58,274,585,5952
1644178201.073339,-0.011536,0.008179,-0.993347,0.129252,0.432366,0.036947,42,287,593,5984
1644178201.114497,-0.008606,0.010437,-0.99115,0.08345,0.340763,-0.069924,47,277,586,5952
1644178201.162895,-0.012512,0.008789,-0.994629,0.266656,0.371298,-0.024122,38,263,579,5904
1644178201.211272,-0.009766,0.009766,-0.992432,0.297191,0.493435,-0.25313,48,274,585,6000
1644178201.259669,-0.006775,0.007812,-0.993225,0.190321,0.462901,-0.130992,39,279,585,5952
1644178201.308037,-0.009766,0.007446,-0.993042,0.236122,0.478168,-0.161527,46,281,592,5888
1644178201.356452,-0.00885,0.009399,-0.994263,0.190321,0.432366,-0.054656,49,270,577,6000
1644178201.404834,-0.009766,0.010315,-0.992249,0.297191,0.371298,-0.008855,48,271,585,6048
1644178201.453251,-0.008057,0.008545,-0.993469,0.205588,0.325496,-0.237863,36,276,590,5984
1644178201.501635,-0.008972,0.011353,-0.991333,0.342992,0.493435,-0.069924,57,280,582,5952
1644178201.55002,-0.008972,0.008911,-0.994141,0.404061,0.432366,-0.115725,47,277,593,5936
1644178201.598416,-0.007935,0.008728,-0.994141,0.08345,0.523969,-0.207328,53,266,587,5984
1644178201.646823,-0.008179,0.009033,-0.98999,0.388794,0.432366,-0.14626,45,277,596,6000
1644178201.695186,-0.008667,0.009583,-0.993164,0.281924,0.401832,0.036947,54,275,596,5952
1644178201.743582,-0.009155,0.010437,-0.98938,0.236122,0.417099,0.036947,41,274,580,5984
1644178201.792151,-0.004883,0.009705,-0.990112,0.190321,0.264427,-0.085191,46,274,597,5984
1644178201.84271,-0.010193,0.010132,-0.990845,0.236122,0.401832,-0.069924,52,280,589,6016
1644178201.89382,-0.007812,0.012695,-0.991089,0.205588,0.600305,-0.161527,38,275,579,5952
1644178201.938246,-0.009277,0.011047,-0.991699,0.236122,0.432366,-0.054656,41,281,578,5952
1644178202.033965,-0.011719,0.008423,-0.993591,0.236122,0.508702,-0.069924,54,280,589,5904
1644178202.082479,-0.011169,0.010132,-0.99231,0.266656,0.340763,-0.039389,48,279,585,5984
1644178202.130752,-0.009705,0.007324,-0.994995,0.251389,0.371298,0.021679,48,274,578,5984
1644178202.179107,-0.007385,0.009827,-0.992737,0.297191,0.356031,0.036947,47,270,577,5952
1644178202.227488,-0.009521,0.00824,-0.992004,0.113985,0.462901,-0.25313,51,266,583,6048
1644178202.275891,-0.013184,0.008057,-0.995178,0.144519,0.356031,-0.176794,39,276,583,5984
1644178202.324294,-0.007874,0.010193,-0.991394,0.159786,0.340763,-0.192061,52,280,589,5904
1644178202.372702,-0.009644,0.009888,-0.990173,0.266656,0.264427,-0.176794,46,281,580,5952
1644178202.421071,-0.007019,0.008545,-0.992249,0.236122,0.432366,-0.085191,57,282,584,5952
1644178202.469442,-0.010193,0.008423,-0.993469,0.159786,0.432366,-0.161527,51,269,583,5904
1644178202.517863,-0.011475,0.008911,-0.992126,0.297191,0.478168,-0.298931,51,269,576,6000
1644178202.56625,-0.011963,0.007996,-0.990723,0.297191,0.478168,-0.222595,53,269,594,5952
1644178202.614711,-0.009094,0.008545,-0.991394,0.297191,0.279695,-0.298931,46,276,590,5904
1644178202.663013,-0.007568,0.012024,-0.99115,0.220855,0.493435,-0.222595,61,277,582,5984
1644178202.711419,-0.006653,0.009399,-0.990112,0.266656,0.401832,-0.024122,46,274,583,5952
1644178202.759791,-0.011047,0.008606,-0.990784,0.373527,0.356031,-0.008855,49,270,593,5952
1644178202.808199,-0.009277,0.010437,-0.99292,0.327725,0.386565,-0.14626,51,271,590,5904
1644178202.856606,-0.009949,0.01178,-0.994263,0.373527,0.462901,-0.115725,47,273,586,5984
1644178202.905115,-0.011414,0.010132,-0.99054,0.220855,0.493435,-0.161527,53,279,583,5952
1644178202.955342,-0.010132,0.00708,-0.994629,0.205588,0.432366,-0.085191,46,276,587,5936
1644178203.004898,-0.009399,0.008423,-0.991943,0.251389,0.539237,-0.176794,59,282,584,6048
1644178203.07654,-0.008728,0.010681,-0.994202,0.312458,0.417099,0.052214,57,268,591,5984
1644178203.105064,-0.009644,0.009949,-0.992126,0.175053,0.554504,-0.069924,53,266,590,6000
1644178203.195401,-0.012146,0.007874,-0.995544,0.236122,0.340763,-0.192061,38,273,584,6016
1644178203.243736,-0.00885,0.007019,-0.991577,0.251389,0.462901,-0.054656,55,279,590,5984
1644178203.292351,-0.009399,0.008301,-0.99176,0.236122,0.264427,-0.130992,64,280,577,5904
1644178203.340517,-0.01178,0.011719,-0.990723,0.251389,0.386565,-0.069924,48,269,573,5984
1644178203.388902,-0.012085,0.007935,-0.993469,0.052916,0.539237,-0.069924,51,274,583,5984
1644178203.437304,-0.010071,0.009277,-0.991699,0.052916,0.279695,-0.192061,42,273,582,5952
1644178203.48568,-0.01178,0.00946,-0.991821,0.190321,0.340763,-0.085191,59,282,577,5952
1644178203.534092,-0.006714,0.007874,-0.991089,0.281924,0.401832,-0.115725,47,280,591,6000
1644178203.582499,-0.010498,0.009521,-0.993958,0.144519,0.356031,-0.054656,51,279,580,5952
1644178203.630868,-0.008057,0.009705,-0.992615,0.327725,0.24916,-0.207328,57,275,579,5904
1644178203.679235,-0.008606,0.008789,-0.992615,0.113985,0.294962,-0.14626,40,282,579,5904
1644178203.727658,-0.006104,0.00946,-0.990906,0.129252,0.294962,-0.085191,47,285,584,5984
1644178203.77605,-0.007202,0.00946,-0.99231,0.113985,0.493435,-0.14626,46,276,590,5952
1644178203.824436,-0.008423,0.008301,-0.993713,0.236122,0.371298,-0.039389,47,277,582,5904
1644178203.872887,-0.00885,0.008057,-0.992798,0.312458,0.371298,-0.100458,45,282,584,5984
1644178203.921256,-0.009338,0.009216,-0.993286,0.098718,0.356031,0.006412,60,276,583,6000
1644178203.969652,-0.010742,0.009399,-0.991211,0.220855,0.432366,-0.161527,49,275,572,6080
1644178204.018041,-0.009521,0.009094,-0.989868,0.129252,0.279695,-0.130992,55,269,590,6016
1644178204.082218,-0.010132,0.009888,-0.99292,0.297191,0.340763,-0.069924,51,274,585,5888
1644178204.163243,-0.006714,0.006409,-0.993713,0.129252,0.417099,-0.115725,49,280,586,5984
1644178204.211569,-0.008728,0.009399,-0.993408,0.312458,0.279695,-0.14626,43,283,583,5952
1644178204.25994,-0.009338,0.008179,-0.991577,0.129252,0.264427,-0.054656,51,274,573,5936
1644178204.308364,-0.010559,0.009949,-0.992065,0.35826,0.294962,-0.008855,46,276,580,6016
1644178204.356743,-0.008728,0.008057,-0.990967,0.144519,0.447634,-0.054656,54,277,577,5904
1644178204.405167,-0.008362,0.009033,-0.99469,0.205588,0.279695,-0.069924,52,277,577,5904
1644178204.453547,-0.008545,0.007324,-0.993408,0.159786,0.340763,-0.039389,42,277,584,5952
1644178204.501904,-0.009705,0.010986,-0.991089,0.251389,0.539237,-0.130992,49,277,577,5952
1644178204.55029,-0.008728,0.010071,-0.992065,0.190321,0.386565,-0.14626,55,276,578,5936
1644178204.598708,-0.01123,0.008789,-0.990967,0.510931,0.310229,-0.069924,52,285,593,5952
1644178204.647092,-0.009277,0.009399,-0.991211,0.113985,0.24916,-0.054656,42,270,579,5952
1644178204.695467,-0.010925,0.009277,-0.991333,0.236122,0.356031,-0.14626,54,292,584,6016
1644178204.743886,-0.010315,0.010193,-0.989807,0.190321,0.386565,-0.115725,48,271,594,5984
1644178204.792313,-0.009949,0.010437,-0.993286,-0.008153,0.325496,-0.100458,46,279,590,5952
1644178204.840672,-0.010437,0.008667,-0.995361,0.251389,0.340763,0.021679,45,277,579,5936
1644178204.889076,-0.008301,0.010071,-0.990173,0.205588,0.508702,-0.14626,49,273,577,5952
1644178204.937464,-0.007324,0.009766,-0.990479,0.342992,0.279695,-0.008855,45,282,591,5952
1644178204.986601,-0.006592,0.008301,-0.992615,0.205588,0.356031,-0.207328,52,270,586,5952
1644178205.0343,-0.009644,0.011597,-0.991699,0.236122,0.432366,-0.115725,57,263,589,6000
1644178205.0901,-0.009216,0.008484,-0.991638,0.236122,0.371298,-0.176794,57,292,593,6000
1644178205.134282,-0.006836,0.009766,-0.990784,0.373527,0.310229,-0.039389,59,275,584,5984
1644178205.184384,-0.012024,0.00885,-0.995972,0.266656,0.233893,-0.069924,57,282,584,5952
1644178205.229148,-0.007935,0.00946,-0.989502,0.266656,0.386565,-0.069924,48,281,578,5904
1644178205.324895,-0.01123,0.008545,-0.995422,0.266656,0.310229,-0.008855,54,270,586,6000
1644178205.373029,-0.010498,0.008911,-0.989197,0.327725,0.356031,-0.069924,43,283,583,5952
1644178205.421415,-0.011047,0.007812,-0.991211,0.052916,0.401832,-0.054656,58,271,592,5952
1644178205.469801,-0.011169,0.00769,-0.994385,0.373527,0.325496,-0.085191,39,274,587,5904
1644178205.518198,-0.011597,0.009155,-0.994934,0.220855,0.401832,-0.14626,47,282,586,5952
1644178205.566579,-0.009216,0.012085,-0.988525,0.236122,0.432366,-0.054656,52,277,577,5984
1644178205.615059,-0.008789,0.009399,-0.99176,0.251389,0.294962,-0.039389,42,275,572,5888
1644178205.663373,-0.012146,0.008301,-0.989746,0.159786,0.432366,-0.14626,45,275,589,5984
1644178205.711765,-0.011536,0.009644,-0.991333,0.251389,0.218626,-0.161527,46,283,583,5952
1644178205.760164,-0.009155,0.010437,-0.988586,0.236122,0.310229,-0.115725,41,283,587,5936
1644178205.808511,-0.010498,0.007629,-0.992981,0.190321,0.447634,-0.176794,49,285,593,5984
1644178205.85693,-0.010437,0.009155,-0.99054,0.251389,0.371298,-0.039389,49,280,591,6016
1644178205.905328,-0.009338,0.009521,-0.991882,0.190321,0.478168,-0.130992,48,279,578,6000
1644178205.953731,-0.009827,0.00708,-0.990662,0.205588,0.447634,-0.329466,53,271,590,5952
1644178206.002089,-0.009216,0.009277,-0.993164,0.022382,0.356031,-0.100458,52,277,582,5984
1644178206.067905,-0.007751,0.008972,-0.993347,0.266656,0.386565,-0.085191,53,276,590,6016
1644178206.101794,-0.010071,0.006104,-0.993103,0.144519,0.462901,-0.085191,42,273,593,5952
1644178206.147239,-0.007141,0.012268,-0.991638,0.251389,0.356031,-0.14626,57,280,591,5952
1644178206.195984,-0.010132,0.00708,-0.990479,0.144519,0.386565,-0.237863,48,283,580,5984
1644178206.244987,-0.008728,0.009216,-0.992615,0.327725,0.294962,-0.100458,53,271,583,5888
1644178206.295498,-0.008728,0.009155,-0.990845,0.113985,0.432366,-0.100458,42,273,584,5936
1644178206.345592,-0.007019,0.010437,-0.995483,0.205588,0.432366,-0.192061,40,277,582,5984
1644178206.437591,-0.010132,0.011963,-0.992676,0.312458,0.310229,-0.024122,49,282,584,5984
1644178206.485974,-0.008118,0.007812,-0.990601,0.342992,0.462901,-0.161527,40,282,589,6000
1644178206.534402,-0.010559,0.011902,-0.990967,0.220855,0.401832,-0.207328,58,276,590,5936
1644178206.58278,-0.010498,0.010742,-0.990479,0.297191,0.401832,-0.176794,47,273,584,6000
1644178206.631163,-0.00824,0.009399,-0.991333,0.220855,0.401832,-0.100458,53,266,590,5936
1644178206.679554,-0.009949,0.011292,-0.991638,0.190321,0.523969,-0.069924,46,281,585,5904
1644178206.727967,-0.007446,0.009583,-0.990662,0.159786,0.585038,-0.024122,51,276,583,6000
1644178206.776348,-0.007507,0.007202,-0.991394,0.236122,0.401832,-0.207328,47,265,579,5936
1644178206.824799,-0.007568,0.009216,-0.993896,0.159786,0.417099,-0.008855,39,283,573,5952
1644178206.873177,-0.010315,0.010376,-0.98999,0.068183,0.340763,-0.069924,41,291,585,6000
1644178206.921557,-0.00647,0.011047,-0.991699,0.251389,0.340763,-0.207328,61,282,579,5984
1644178206.969963,-0.008179,0.008179,-0.992554,0.327725,0.310229,-0.222595,46,274,590,5936
1644178207.018351,-0.009521,0.009949,-0.990417,0.159786,0.310229,-0.039389,57,280,596,6000
1644178207.077575,-0.009521,0.010864,-0.995361,0.159786,0.356031,-0.237863,55,279,587,6016
1644178207.115112,-0.009644,0.011353,-0.99353,0.388794,0.401832,-0.100458,48,276,599,5936
1644178207.163483,-0.00769,0.009888,-0.991333,0.297191,0.478168,-0.008855,51,281,590,5984
1644178207.211873,-0.010986,0.012939,-0.991882,0.159786,0.325496,-0.069924,51,283,580,5984
1644178207.260262,-0.009705,0.010254,-0.992371,0.312458,0.401832,-0.176794,60,279,578,5904
1644178207.308647,-0.008789,0.010864,-0.989746,0.113985,0.386565,-0.008855,51,276,587,5984
1644178207.357473,-0.009155,0.010071,-0.991089,0.144519,0.325496,-0.100458,54,268,593,5904
1644178207.408232,-0.006958,0.00769,-0.99115,0.342992,0.478168,-0.054656,47,273,584,5984
1644178207.458114,-0.011108,0.007629,-0.992065,0.220855,0.386565,-0.024122,49,270,584,6064
1644178207.503165,-0.008667,0.010193,-0.992981,0.251389,0.325496,-0.161527,49,270,586,6000
1644178207.598989,-0.013855,0.010132,-0.99292,0.281924,0.432366,-0.192061,42,270,586,6000
1644178207.647385,-0.010254,0.01001,-0.994568,0.159786,0.294962,-0.085191,48,269,576,5904
1644178207.695771,-0.00885,0.008301,-0.991455,0.220855,0.325496,-0.054656,49,275,582,5936
1644178207.744204,-0.009277,0.008545,-0.99408,0.144519,0.432366,-0.176794,47,273,589,5984
1644178207.792585,-0.010315,0.007996,-0.990845,0.251389,0.447634,-0.039389,53,293,580,5952
1644178207.841008,-0.009033,0.010071,-0.990173,0.327725,0.462901,-0.008855,36,276,583,6000
1644178207.889405,-0.00946,0.012329,-0.992126,0.098718,0.340763,-0.054656,47,273,593,5984
1644178207.937804,-0.011047,0.007141,-0.990723,0.236122,0.279695,0.098015,46,271,583,6016
1644178207.986165,-0.010681,0.007751,-0.990173,0.129252,0.523969,-0.039389,39,276,587,5904
1644178208.034696,-0.009766,0.009277,-0.993713,0.144519,0.340763,-0.069924,47,275,579,5984
1644178208.083068,-0.00769,0.010925,-0.989929,0.144519,0.447634,0.006412,52,273,598,5984
1644178208.131327,-0.008118,0.010803,-0.990295,0.266656,0.279695,-0.069924,57,292,586,5984
1644178208.179703,-0.00946,0.011353,-0.99353,0.297191,0.447634,-0.176794,49,270,586,5952
1644178208.228101,-0.010803,0.011353,-0.992004,0.434595,0.386565,-0.161527,42,280,589,5984
1644178208.276473,-0.008179,0.009033,-0.993896,0.388794,0.493435,0.036947,51,264,583,5984
1644178208.324862,-0.010254,0.008179,-0.992737,0.312458,0.356031,-0.039389,59,273,586,6016
1644178208.373285,-0.009277,0.006226,-0.992676,0.281924,0.539237,-0.008855,52,270,582,5984
1644178208.421685,-0.008362,0.008545,-0.992493,0.144519,0.340763,-0.100458,54,285,582,5984
1644178208.470443,-0.011658,0.010803,-0.992737,0.373527,0.294962,-0.069924,49,282,591,5952
1644178208.521112,-0.008606,0.006592,-0.994568,0.266656,0.371298,-0.115725,62,274,578,5984
1644178208.571149,-0.01001,0.01062,-0.99115,0.144519,0.371298,-0.14626,47,263,575,5984
1644178208.616298,-0.009888,0.010376,-0.991211,0.052916,0.371298,-0.115725,59,265,589,6000
1644178208.712034,-0.007446,0.010925,-0.993408,0.175053,0.264427,-0.268397,41,274,578,5952
1644178208.760392,-0.009094,0.010193,-0.991882,0.404061,0.325496,-0.14626,52,287,584,6000
1644178208.808802,-0.009399,0.007202,-0.991821,0.312458,0.325496,-0.192061,52,270,584,5952
1644178208.857243,-0.007385,0.007019,-0.991333,0.175053,0.340763,-0.008855,60,266,587,6016
1644178208.90563,-0.009644,0.006165,-0.99115,0.113985,0.340763,-0.192061,54,263,582,6000
1644178208.954016,-0.010681,0.01123,-0.992432,0.266656,0.432366,-0.039389,47,270,584,5936
1644178209.002386,-0.00647,0.005615,-0.994385,0.205588,0.493435,-0.054656,55,276,583,5936
1644178209.068485,-0.008545,0.009155,-0.992432,0.190321,0.432366,-0.069924,49,270,598,5952
1644178209.099384,-0.012878,0.009033,-0.992493,0.281924,0.554504,-0.054656,48,274,585,6016
1644178209.147552,-0.008057,0.007202,-0.99231,0.113985,0.386565,0.052214,47,275,584,5952
1644178209.195957,-0.010864,0.009399,-0.993958,0.236122,0.386565,-0.024122,51,269,583,5952
1644178209.244346,-0.009155,0.00769,-0.989685,0.297191,0.310229,-0.130992,53,281,587,6000
1644178209.292724,-0.007263,0.010376,-0.989746,0.159786,0.356031,-0.207328,43,279,587,5984
1644178209.341122,-0.008789,0.009399,-0.993835,0.220855,0.462901,-0.039389,43,281,587,6000
1644178209.389506,-0.009094,0.007507,-0.990051,0.098718,0.310229,0.021679,49,275,586,5936
1644178209.43791,-0.007507,0.008667,-0.99292,0.052916,0.371298,-0.085191,41,274,599,5904
1644178209.486315,-0.009521,0.007202,-0.993042,0.251389,0.340763,-0.207328,48,276,580,5984
1644178209.535136,-0.009644,0.00592,-0.991455,0.159786,0.508702,-0.008855,52,277,586,5952
1644178209.585995,-0.00708,0.006592,-0.990479,0.144519,0.432366,-0.14626,47,275,582,5952
1644178209.635781,-0.008362,0.010376,-0.991333,0.327725,0.356031,-0.008855,45,268,582,5952
1644178209.68086,-0.010864,0.008911,-0.991089,0.220855,0.539237,-0.25313,57,277,589,6048
1644178209.776626,-0.00769,0.008057,-0.990051,0.220855,0.218626,-0.176794,47,285,579,6000
1644178209.825269,-0.009094,0.009644,-0.992859,0.434595,0.371298,-0.161527,48,274,587,6016
1644178209.873455,-0.008667,0.011597,-0.989136,0.159786,0.310229,-0.192061,47,273,575,6016
1644178209.921858,-0.009888,0.011536,-0.991333,0.236122,0.371298,-0.085191,49,277,577,6048
1644178209.970246,-0.009155,0.009033,-0.991333,0.297191,0.417099,-0.130992,38,280,584,5984
1644178210.018635,-0.008423,0.008972,-0.988708,0.236122,0.24916,-0.14626,52,280,600,5952
1644178210.070204,-0.009338,0.00769,-0.994446,0.236122,0.615573,-0.085191,49,270,589,6016
1644178210.115412,-0.011414,0.01001,-0.993286,0.220855,0.325496,-0.161527,53,276,590,6000
1644178210.163789,-0.009583,0.009277,-0.990723,0.236122,0.340763,-0.161527,53,283,580,5904
1644178210.212272,-0.010437,0.008545,-0.991211,0.175053,0.386565,-0.222595,46,274,573,5904
1644178210.260577,-0.009521,0.006958,-0.99115,0.068183,0.325496,-0.130992,49,268,584,5936
1644178210.308937,-0.012634,0.010071,-0.993286,0.297191,0.340763,-0.024122,49,273,600,5952
1644178210.357356,-0.009705,0.011536,-0.993164,0.129252,0.554504,-0.161527,53,269,585,5984
1644178210.405736,-0.009094,0.011292,-0.990479,0.175053,0.417099,-0.054656,49,285,589,5984
1644178210.454138,-0.009216,0.00592,-0.993164,0.281924,0.371298,-0.161527,46,279,592,5952
1644178210.502499,-0.008667,0.009277,-0.991333,0.144519,0.264427,-0.161527,42,273,582,5952
1644178210.55093,-0.009949,0.010315,-0.99231,0.35826,0.310229,-0.054656,51,274,578,5984
1644178210.599308,-0.008484,0.00592,-0.992737,0.251389,0.386565,-0.14626,45,275,584,5952
1644178210.647699,-0.008972,0.012085,-0.989502,0.251389,0.401832,-0.25313,49,282,584,5904
1644178210.696427,-0.009216,0.007629,-0.992371,0.190321,0.508702,-0.085191,42,280,586,5984
1644178210.7469,-0.008057,0.006531,-0.992493,0.113985,0.24916,-0.222595,51,274,585,5984
1644178210.797189,-0.009277,0.010071,-0.99054,0.220855,0.325496,-0.054656,47,273,584,5984
1644178210.842021,-0.008301,0.010864,-0.992798,0.236122,0.371298,-0.130992,53,271,585,6016
1644178210.938075,-0.007202,0.009094,-0.99054,0.251389,0.493435,-0.161527,52,270,575,5952
1644178210.98647,-0.008423,0.006165,-0.990051,0.266656,0.432366,-0.069924,45,275,579,6000
1644178211.034883,-0.010071,0.01001,-0.992676,0.190321,0.325496,-0.085191,46,276,571,5904
1644178211.083339,-0.008667,0.009827,-0.991089,0.052916,0.508702,-0.25313,54,277,591,5984
1644178211.131653,-0.00946,0.01001,-0.993469,0.175053,0.401832,-0.237863,49,275,584,5984
1644178211.180014,-0.01001,0.009399,-0.993164,0.08345,0.493435,0.052214,48,288,587,5936
1644178211.228398,-0.008484,0.009705,-0.992798,0.113985,0.462901,-0.115725,46,271,585,5984
1644178211.27679,-0.011292,0.007324,-0.993042,0.205588,0.417099,-0.024122,48,269,583,5952
1644178211.325192,-0.008179,0.008423,-0.99353,0.236122,0.569771,-0.008855,47,277,591,5984
1644178211.37361,-0.009644,0.008972,-0.993652,0.236122,0.493435,-0.192061,47,277,589,5984
1644178211.421963,-0.006714,0.009949,-0.992737,0.220855,0.493435,-0.039389,36,279,587,5952
1644178211.470363,-0.008301,0.009521,-0.991028,0.144519,0.356031,-0.024122,49,273,586,6016
1644178211.518754,-0.006104,0.006836,-0.992371,0.190321,0.478168,-0.130992,45,285,589,5952
1644178211.567156,-0.011108,0.01178,-0.993591,0.251389,0.447634,-0.130992,53,274,583,5984
1644178211.615535,-0.008728,0.008301,-0.993469,0.190321,0.356031,-0.161527,55,276,583,5952
1644178211.663944,-0.008667,0.009888,-0.989563,0.236122,0.386565,-0.054656,47,277,593,5984
1644178211.712304,-0.009888,0.00946,-0.992859,0.266656,0.401832,-0.25313,47,265,591,5952
1644178211.760722,-0.00824,0.008484,-0.990051,0.236122,0.523969,-0.298931,66,277,577,5984
1644178211.809105,-0.010193,0.009338,-0.992493,0.35826,0.340763,-0.207328,60,271,583,5952
1644178211.858157,-0.010315,0.006714,-0.991089,0.175053,0.401832,-0.100458,38,287,582,6000
1644178211.909558,-0.010132,0.008667,-0.991089,0.220855,0.401832,-0.130992,34,274,580,5952
1644178211.959128,-0.007751,0.010742,-0.989807,0.220855,0.279695,-0.192061,53,279,585,5936
1644178212.067877,-0.009766,0.00946,-0.990845,0.312458,0.371298,-0.192061,45,273,586,6016
1644178212.103236,-0.011963,0.007874,-0.990173,0.236122,0.340763,-0.085191,59,275,591,5984
1644178212.147861,-0.009216,0.009094,-0.991821,0.281924,0.447634,-0.100458,52,265,572,5984
1644178212.196252,-0.011658,0.006836,-0.989563,0.327725,0.24916,-0.207328,46,274,597,6000
1644178212.2447,-0.006226,0.009949,-0.990601,0.205588,0.325496,-0.085191,57,287,591,6000
1644178212.293016,-0.009888,0.007996,-0.991333,0.159786,0.340763,-0.130992,57,282,582,6048
1644178212.341417,-0.009277,0.008972,-0.991516,0.190321,0.401832,0.006412,49,285,589,5952
1644178212.389782,-0.011658,0.008972,-0.991516,0.113985,0.279695,-0.268397,43,281,587,5952
1644178212.438192,-0.009399,0.009827,-0.992798,0.297191,0.371298,-0.115725,46,279,585,6016
1644178212.486574,-0.01178,0.006348,-0.993774,0.205588,0.569771,-0.100458,49,265,586,6000
1644178212.535604,-0.010864,0.00769,-0.993469,0.266656,0.294962,-0.176794,52,273,582,6000
1644178212.586193,-0.006836,0.010254,-0.993286,0.220855,0.478168,-0.024122,46,276,585,5888
1644178212.636192,-0.009583,0.008911,-0.992493,0.236122,0.447634,-0.008855,58,279,578,5984
1644178212.681258,-0.00946,0.008667,-0.991882,0.175053,0.432366,-0.054656,55,271,580,6000
1644178212.776936,-0.010803,0.008789,-0.989441,0.266656,0.294962,-0.069924,48,279,590,6016
1644178212.825397,-0.01123,0.008789,-0.99176,0.266656,0.478168,-0.115725,48,271,580,5952
1644178212.873851,-0.007141,0.011047,-0.993835,0.190321,0.432366,-0.115725,49,287,577,5984
1644178212.922389,-0.009277,0.006592,-0.993835,0.205588,0.432366,-0.176794,57,280,584,5984
1644178212.97054,-0.010498,0.009216,-0.991394,0.266656,0.478168,-0.130992,51,279,590,5984
1644178213.01894,-0.00647,0.009827,-0.99292,0.175053,0.294962,-0.161527,47,285,586,5984
1644178213.071229,-0.009888,0.009949,-0.990112,0.266656,0.447634,-0.161527,41,271,594,5984
1644178213.115697,-0.008423,0.008057,-0.992859,0.205588,0.356031,0.036947,42,280,582,6016
1644178213.164087,-0.011108,0.007141,-0.990173,0.190321,0.447634,-0.176794,51,271,580,5952
1644178213.212484,-0.008362,0.009338,-0.993286,0.098718,0.356031,-0.207328,48,274,583,5952
1644178213.26087,-0.009277,0.010132,-0.991333,0.266656,0.386565,-0.024122,45,287,579,5984
1644178213.30924,-0.006348,0.009277,-0.992004,0.175053,0.371298,-0.100458,51,276,583,5984
1644178213.357623,-0.007996,0.011719,-0.993896,0.022382,0.508702,-0.130992,42,282,584,5904
1644178213.406029,-0.008179,0.011841,-0.989014,0.312458,0.325496,-0.115725,54,273,600,6000
1644178213.454432,-0.007446,0.010437,-0.993896,0.297191,0.401832,-0.176794,49,282,589,6000
1644178213.502806,-0.009888,0.009033,-0.990784,0.205588,0.386565,-0.207328,48,266,580,5984
1644178213.551217,-0.009277,0.009521,-0.992859,0.037649,0.401832,-0.008855,49,287,582,5984
1644178213.599607,-0.007812,0.007446,-0.989563,0.251389,0.417099,-0.115725,48,269,578,5952
1644178213.64799,-0.013,0.008179,-0.99115,0.144519,0.462901,-0.115725,47,277,589,5904
1644178213.696748,-0.011414,0.007324,-0.992554,0.266656,0.447634,0.159084,55,281,587,6080
1644178213.747123,-0.010315,0.009644,-0.989868,0.159786,0.340763,-0.054656,52,277,579,6000
1644178213.797763,-0.009216,0.008972,-0.992004,0.251389,0.432366,-0.100458,53,276,580,5984
1644178213.844329,-0.009949,0.007812,-0.992249,0.144519,0.325496,-0.192061,53,283,580,5952
1644178213.938368,-0.010071,0.010071,-0.990356,0.297191,0.569771,-0.054656,39,274,590,6016
1644178213.98678,-0.010132,0.009094,-0.992676,0.342992,0.447634,-0.085191,46,271,576,5936
1644178214.035203,-0.009399,0.008911,-0.991028,0.297191,0.340763,0.036947,46,286,592,6048
1644178214.083643,-0.008057,0.007812,-0.993286,0.205588,0.493435,-0.161527,53,283,580,5952
1644178214.131921,-0.008728,0.009583,-0.990479,0.266656,0.294962,0.021679,47,270,575,5984
1644178214.180316,-0.006836,0.010193,-0.990356,0.022382,0.203359,-0.024122,48,266,571,5952
1644178214.228692,-0.009094,0.008911,-0.991394,0.281924,0.340763,0.082748,55,279,583,5936
1644178214.277098,-0.00769,0.010742,-0.994751,0.312458,0.371298,-0.14626,58,279,583,5984
1644178214.325493,-0.008423,0.007935,-0.992493,0.159786,0.401832,-0.192061,59,277,582,5904
1644178214.373881,-0.007935,0.009399,-0.991882,0.35826,0.386565,-0.054656,52,275,586,5904
1644178214.422241,-0.007324,0.008301,-0.991333,0.007115,0.371298,-0.069924,52,270,577,6000
1644178214.470655,-0.008606,0.008362,-0.99115,0.190321,0.386565,-0.207328,45,280,582,6000
1644178214.519053,-0.009521,0.006897,-0.991333,0.342992,0.417099,-0.085191,43,281,580,6016
1644178214.567446,-0.009949,0.01001,-0.989929,0.297191,0.417099,-0.115725,48,281,578,6016
1644178214.615839,-0.009033,0.008423,-0.991516,0.144519,0.432366,-0.176794,59,277,582,5952
1644178214.664234,-0.009705,0.008362,-0.992249,0.190321,0.585038,-0.14626,54,285,586,6016
1644178214.712635,-0.009888,0.007385,-0.990784,0.113985,0.371298,-0.039389,51,276,585,5952
1644178214.761009,-0.00592,0.009949,-0.993408,0.175053,0.356031,-0.039389,47,275,582,5984
1644178214.809451,-0.010803,0.009277,-0.990784,0.236122,0.478168,-0.14626,53,276,585,5984
1644178214.859148,-0.010925,0.006165,-0.991089,0.220855,0.447634,-0.14626,41,266,580,6000
1644178214.910037,-0.010437,0.009338,-0.990417,0.159786,0.447634,-0.100458,42,287,584,5984
1644178214.959923,-0.008911,0.010254,-0.992798,0.205588,0.356031,-0.024122,46,274,587,5952
1644178215.062339,-0.009094,0.009705,-0.992615,0.144519,0.340763,-0.039389,51,276,576,6016
1644178215.10012,-0.010986,0.008362,-0.991333,0.327725,0.386565,-0.161527,49,277,582,5904
1644178215.148142,-0.008911,0.009033,-0.991211,0.327725,0.447634,-0.085191,52,280,591,6016
1644178215.196553,-0.010986,0.008789,-0.993042,0.175053,0.493435,-0.207328,42,287,589,6000
1644178215.245049,-0.008118,0.009827,-0.991821,0.388794,0.447634,-0.100458,48,281,585,5952
1644178215.293319,-0.00769,0.008972,-0.993164,0.251389,0.356031,-0.085191,51,276,585,5952
1644178215.341763,-0.009766,0.008972,-0.991638,0.205588,0.539237,0.036947,42,277,582,5952
1644178215.390114,-0.008606,0.008972,-0.99176,0.190321,0.462901,-0.085191,46,281,583,5952
1644178215.438497,-0.010559,0.011658,-0.99054,0.251389,0.539237,-0.054656,52,275,586,5904
1644178215.486901,-0.00946,0.010498,-0.990417,0.098718,0.356031,-0.024122,45,280,584,6016
1644178215.535281,-0.007141,0.007812,-0.992981,0.205588,0.523969,-0.024122,54,277,596,6000
1644178215.583686,-0.008362,0.00946,-0.994141,0.175053,0.371298,-0.115725,58,271,587,6016
1644178215.632064,-0.006775,0.00946,-0.992188,0.175053,0.447634,-0.039389,48,276,585,6000
1644178215.680477,-0.009277,0.008911,-0.993713,0.205588,0.325496,-0.192061,59,277,582,5952
1644178215.730559,-0.010559,0.009277,-0.991821,0.159786,0.310229,-0.085191,39,281,585,5952
1644178215.78026,-0.012024,0.010254,-0.991455,0.266656,0.310229,-0.176794,48,281,583,5984
1644178215.831437,-0.010071,0.012512,-0.991882,0.113985,0.356031,-0.130992,45,275,593,5984
1644178215.922477,-0.007996,0.010925,-0.988586,0.205588,0.432366,-0.054656,52,277,589,5952
1644178215.970846,-0.005981,0.010132,-0.991028,0.266656,0.432366,-0.192061,53,276,576,5984
1644178216.019238,-0.008179,0.012329,-0.989441,0.220855,0.401832,-0.054656,47,268,586,6000
1644178216.071934,-0.010681,0.007874,-0.989624,0.205588,0.447634,-0.100458,52,275,591,5952
1644178216.116005,-0.006592,0.007812,-0.991394,0.434595,0.294962,-0.069924,51,274,580,6048
1644178216.164382,-0.009277,0.009338,-0.988647,0.175053,0.401832,-0.222595,51,279,587,5952
1644178216.212801,-0.008606,0.009338,-0.989624,0.098718,0.325496,-0.100458,53,279,587,6000
1644178216.261167,-0.010803,0.009338,-0.989929,0.236122,0.371298,-0.054656,51,276,573,5952
1644178216.309528,-0.011414,0.009033,-0.993103,0.251389,0.371298,0.036947,58,271,590,5984
1644178216.357944,-0.007324,0.009888,-0.99176,0.373527,0.401832,-0.130992,51,281,576,5984
1644178216.406334,-0.012146,0.00824,-0.99054,0.266656,0.401832,-0.268397,49,277,579,5984
1644178216.454753,-0.007141,0.007751,-0.993286,0.327725,0.24916,-0.314198,52,280,584,5936
1644178216.503145,-0.01001,0.006104,-0.993591,0.205588,0.401832,-0.024122,48,271,585,5952
1644178216.551517,-0.010315,0.006287,-0.99292,0.220855,0.325496,-0.008855,51,276,578,6000
1644178216.599917,-0.007812,0.010864,-0.992981,0.159786,0.340763,-0.100458,51,269,583,6016
1644178216.648303,-0.009949,0.011353,-0.993835,0.327725,0.417099,-0.069924,57,275,584,5952
1644178216.696704,-0.008972,0.011108,-0.991089,0.144519,0.523969,-0.207328,55,274,585,5952
1644178216.745122,-0.009705,0.007019,-0.99353,0.251389,0.569771,-0.054656,47,273,586,5984
1644178216.793476,-0.009888,0.00824,-0.99292,0.236122,0.401832,-0.207328,43,269,583,6000
1644178216.843461,-0.014099,0.008057,-0.992188,0.190321,0.401832,-0.192061,40,275,584,6000
1644178216.893469,-0.007141,0.010986,-0.991333,0.236122,0.478168,-0.039389,42,280,589,5984
1644178216.943829,-0.011963,0.009094,-0.991699,0.251389,0.417099,-0.176794,34,274,585,5984
1644178216.988338,-0.01239,0.010742,-0.99054,0.236122,0.310229,-0.054656,48,271,585,6000
1644178217.083968,-0.007812,0.011841,-0.992432,0.022382,0.432366,-0.069924,49,282,579,5952
1644178217.132419,-0.010437,0.011658,-0.993469,0.190321,0.340763,-0.14626,58,276,573,6016
1644178217.180606,-0.01123,0.00885,-0.991699,0.251389,0.417099,-0.14626,52,275,602,6016
1644178217.228998,-0.004456,0.008789,-0.989136,0.220855,0.493435,-0.207328,55,281,583,5984
1644178217.277384,-0.008911,0.00885,-0.994629,0.113985,0.356031,0.006412,47,275,586,5984
1644178217.325762,-0.008972,0.01123,-0.989441,0.175053,0.539237,-0.054656,52,275,582,5904
1644178217.374174,-0.008911,0.01001,-0.990723,0.236122,0.478168,0.021679,36,276,578,6000
1644178217.422585,-0.006531,0.010559,-0.992676,0.098718,0.386565,-0.115725,54,273,596,5952
1644178217.470963,-0.009033,0.00946,-0.991821,0.220855,0.356031,-0.130992,55,281,585,6000
1644178217.519365,-0.01239,0.010498,-0.991821,0.35826,0.356031,-0.237863,49,275,584,5952
1644178217.567742,-0.009277,0.008423,-0.99231,0.236122,0.386565,-0.024122,41,266,576,5904
1644178217.616139,-0.00769,0.00885,-0.991638,0.251389,0.523969,-0.115725,41,271,590,5984
1644178217.664545,-0.008057,0.009583,-0.99054,0.297191,0.523969,-0.115725,51,286,583,5952
1644178217.712945,-0.008972,0.012756,-0.991577,0.312458,0.279695,-0.115725,48,271,590,6000
1644178217.761283,-0.012146,0.01123,-0.993286,0.281924,0.356031,-0.130992,42,282,591,5952
1644178217.809714,-0.009399,0.010132,-0.991882,0.281924,0.340763,-0.039389,42,273,577,5984
1644178217.858133,-0.006714,0.009216,-0.988098,0.129252,0.462901,-0.085191,43,279,576,5952
1644178217.906562,-0.011841,0.008972,-0.991638,0.129252,0.569771,-0.054656,46,274,592,5984
1644178217.954925,-0.010803,0.008789,-0.993713,0.175053,0.340763,-0.161527,60,266,580,6000
1644178218.004865,-0.008301,0.006165,-0.990173,0.220855,0.508702,-0.192061,53,276,580,5936
1644178218.07529,-0.009216,0.008972,-0.991394,0.129252,0.279695,0.021679,52,275,584,6016
1644178218.108174,-0.009216,0.007507,-0.990601,0.251389,0.432366,-0.069924,49,280,579,5984
1644178218.196818,-0.009094,0.008362,-0.993225,0.388794,0.432366,-0.130992,54,275,586,5984
1644178218.245375,-0.009583,0.008301,-0.993103,0.113985,0.24916,-0.14626,47,277,584,5984
1644178218.293607,-0.010559,0.010559,-0.991516,0.190321,0.386565,-0.115725,43,276,592,5888
1644178218.342003,-0.01001,0.006409,-0.990662,0.205588,0.417099,-0.161527,45,268,584,5984
1644178218.390404,-0.009033,0.00946,-0.988586,0.144519,0.371298,-0.283664,45,285,579,5984
1644178218.438799,-0.009399,0.008179,-0.991882,0.297191,0.417099,-0.100458,51,271,583,5936
1644178218.487183,-0.009399,0.012146,-0.994507,0.220855,0.508702,0.067481,52,277,577,5984
1644178218.535584,-0.010925,0.008606,-0.990967,0.251389,0.371298,-0.100458,49,273,584,6016
1644178218.583979,-0.008118,0.008911,-0.993408,0.220855,0.462901,-0.069924,60,264,587,5952
1644178218.632379,-0.008423,0.007263,-0.99353,-0.053954,0.356031,-0.039389,61,273,584,6000
1644178218.68077,-0.009644,0.009216,-0.991211,0.205588,0.340763,-0.024122,48,269,590,6000
1644178218.729149,-0.008484,0.011108,-0.991577,0.297191,0.356031,-0.176794,49,270,589,5952
1644178218.777542,-0.009521,0.011108,-0.993164,0.236122,0.417099,-0.268397,48,276,587,5952
1644178218.825931,-0.009094,0.010742,-0.99292,0.144519,0.310229,-0.100458,52,270,584,6016
1644178218.874378,-0.010437,0.009338,-0.991577,0.159786,0.371298,-0.085191,46,274,583,5952
1644178218.922829,-0.010071,0.011047,-0.98999,0.129252,0.447634,-0.130992,45,285,582,5984
1644178218.971146,-0.01001,0.009827,-0.990784,0.297191,0.462901,-0.130992,61,290,582,5984
1644178219.019552,-0.009644,0.010742,-0.991943,0.144519,0.417099,-0.024122,43,274,580,6016
1644178219.082021,-0.006287,0.010681,-0.989319,0.35826,0.386565,-0.100458,46,276,594,5984
1644178219.117251,-0.009155,0.010925,-0.991394,0.190321,0.462901,-0.192061,49,282,589,5952
1644178219.213065,-0.007019,0.012024,-0.990173,0.266656,0.508702,-0.085191,48,274,580,6016
1644178219.261431,-0.009949,0.009094,-0.991028,0.205588,0.523969,-0.115725,47,280,577,6000
1644178219.309875,-0.009949,0.00885,-0.991943,0.175053,0.371298,0.12855,51,274,578,5952
1644178219.358245,-0.00708,0.009521,-0.990967,0.251389,0.356031,-0.085191,40,280,577,5904
1644178219.406634,-0.010864,0.008362,-0.991821,0.236122,0.447634,-0.100458,55,279,587,5952
1644178219.455154,-0.008423,0.010315,-0.993835,0.266656,0.401832,-0.176794,47,277,582,5952
1644178219.5034,-0.00769,0.009827,-0.991089,0.098718,0.447634,-0.207328,40,287,579,6016
1644178219.551812,-0.007874,0.011475,-0.991028,0.144519,0.325496,-0.024122,48,276,578,5936
1644178219.600214,-0.009216,0.014343,-0.989624,0.342992,0.371298,-0.115725,46,271,580,5904
1644178219.648602,-0.006104,0.010681,-0.991882,0.281924,0.325496,-0.039389,55,269,580,6000
1644178219.696991,-0.009888,0.008362,-0.99585,0.236122,0.462901,-0.115725,52,285,577,5984
1644178219.745361,-0.008728,0.01062,-0.994202,0.342992,0.462901,-0.069924,51,276,585,6000
1644178219.794768,-0.009521,0.009399,-0.990662,0.159786,0.294962,-0.14626,49,285,589,5952
1644178219.842232,-0.009216,0.008911,-0.993835,0.297191,0.386565,-0.039389,57,275,584,5984
1644178219.890607,-0.011108,0.008606,-0.989929,0.266656,0.279695,-0.14626,46,274,580,6000
1644178219.938993,-0.008606,0.009888,-0.992004,0.175053,0.264427,-0.039389,42,275,586,5984
1644178219.987382,-0.010132,0.008362,-0.991943,0.312458,0.371298,-0.069924,53,281,580,6016
1644178220.035782,-0.007446,0.00946,-0.993774,0.220855,0.386565,-0.14626,54,290,586,5984
1644178220.094657,-0.005493,0.010803,-0.990601,0.220855,0.401832,-0.207328,40,270,584,5984
1644178220.13344,-0.008118,0.008728,-0.992798,0.342992,0.478168,-0.085191,52,268,591,6048
1644178220.183674,-0.008301,0.011536,-0.992798,0.159786,0.325496,-0.069924,47,268,586,5952
1644178220.234137,-0.009644,0.011414,-0.993164,0.312458,0.24916,-0.161527,60,276,583,5984
1644178220.278857,-0.007263,0.008423,-0.992004,0.144519,0.371298,-0.024122,43,271,583,5952
1644178220.374525,-0.006409,0.012878,-0.993103,0.281924,0.310229,-0.14626,41,279,583,5952
1644178220.42293,-0.008301,0.009399,-0.992798,0.312458,0.356031,-0.069924,48,269,578,6048
1644178220.471301,-0.011292,0.01001,-0.989685,0.327725,0.478168,0.052214,49,273,584,5952
1644178220.519685,-0.008667,0.011963,-0.991089,0.144519,0.294962,-0.054656,46,276,580,5952
1644178220.568079,-0.009277,0.010437,-0.989807,0.129252,0.417099,-0.054656,52,282,584,6048
1644178220.616473,-0.008789,0.011597,-0.992554,0.266656,0.386565,-0.207328,46,271,578,5952
1644178220.664875,-0.00885,0.009583,-0.993652,0.449863,0.371298,-0.161527,55,274,587,5904
1644178220.713243,-0.010132,0.008789,-0.990112,0.144519,0.218626,-0.100458,41,271,580,5984
1644178220.761646,-0.012756,0.007385,-0.994141,0.068183,0.294962,0.082748,61,285,589,6000
1644178220.810047,-0.01062,0.008423,-0.990356,0.175053,0.401832,-0.039389,54,282,589,5984
1644178220.858445,-0.009521,0.009583,-0.989624,0.266656,0.478168,-0.14626,49,270,586,5984
1644178220.906827,-0.012512,0.010437,-0.992554,0.175053,0.523969,-0.069924,48,269,599,5904
1644178220.955218,-0.010864,0.011963,-0.989075,0.08345,0.371298,-0.008855,58,279,590,5984
1644178221.003586,-0.009521,0.010986,-0.991882,0.342992,0.356031,-0.069924,52,273,579,5984
1644178221.06586,-0.009155,0.008423,-0.98877,0.297191,0.493435,-0.069924,52,275,586,5904
1644178221.104047,-0.011475,0.006531,-0.990967,0.342992,0.401832,-0.069924,53,276,592,6000
1644178221.148753,-0.005859,0.010376,-0.992126,0.266656,0.508702,-0.176794,48,279,585,5984
1644178221.197104,-0.012268,0.010254,-0.991699,0.35826,0.401832,-0.024122,52,280,589,5984
1644178221.245499,-0.007629,0.010376,-0.988159,0.159786,0.279695,-0.039389,48,281,590,5952
1644178221.294138,-0.00769,0.010254,-0.993408,0.159786,0.432366,-0.024122,55,266,585,5904
1644178221.344619,-0.008423,0.011536,-0.992065,0.266656,0.371298,-0.054656,48,269,580,5936
1644178221.394752,-0.012024,0.009705,-0.993469,0.144519,0.569771,-0.024122,55,274,587,5952
1644178221.43991,-0.011292,0.00885,-0.990662,0.220855,0.493435,-0.054656,39,276,576,6048
1644178221.535866,-0.010559,0.009949,-0.990723,0.327725,0.218626,-0.161527,46,264,578,5984
1644178221.584285,-0.008179,0.010803,-0.990723,0.281924,0.356031,-0.100458,57,268,572,6000
1644178221.6327,-0.01239,0.009827,-0.991882,0.220855,0.310229,-0.039389,51,271,594,5984
1644178221.681045,-0.011475,0.012817,-0.990723,0.220855,0.386565,0.113282,47,277,579,5984
1644178221.729442,-0.007568,0.011719,-0.993469,0.098718,0.386565,-0.268397,57,270,584,6016
1644178221.777833,-0.00885,0.010132,-0.992859,0.35826,0.24916,-0.069924,52,277,584,5952
1644178221.827406,-0.007996,0.00885,-0.991577,0.297191,0.356031,0.052214,58,281,578,5904
1644178221.874677,-0.009216,0.007751,-0.991089,0.037649,0.523969,-0.115725,42,275,584,6000
1644178221.923046,-0.008606,0.009033,-0.991333,0.312458,0.539237,-0.085191,51,266,587,5904
1644178221.971447,-0.008057,0.011047,-0.992432,0.159786,0.417099,-0.192061,39,279,590,5936
1644178222.019841,-0.011658,0.010193,-0.994202,0.281924,0.294962,-0.069924,48,266,587,5984
1644178222.076429,-0.010559,0.009338,-0.991516,0.251389,0.310229,-0.054656,54,277,582,6000
1644178222.116604,-0.007568,0.009338,-0.992065,0.266656,0.386565,-0.161527,46,276,592,5984
1644178222.165014,-0.009766,0.011108,-0.98999,0.342992,0.310229,-0.237863,57,273,579,5952
1644178222.213596,-0.008301,0.009216,-0.990906,0.190321,0.401832,-0.161527,55,276,576,5904
1644178222.262559,-0.011658,0.00769,-0.993347,0.281924,0.615573,-0.130992,52,268,579,5984
1644178222.31285,-0.010376,0.011963,-0.992126,0.388794,0.386565,0.006412,53,271,592,6016
1644178222.363653,-0.007446,0.010437,-0.992859,0.220855,0.462901,-0.054656,49,275,591,6000
1644178222.40831,-0.007996,0.008545,-0.99231,0.281924,0.401832,-0.054656,47,277,579,5952
1644178222.503745,-0.008423,0.011047,-0.991455,0.342992,0.371298,-0.222595,42,275,586,6048
1644178222.552519,-0.01062,0.01001,-0.994019,0.251389,0.417099,-0.115725,52,290,589,5952
1644178222.600502,-0.006165,0.011108,-0.992981,0.129252,0.203359,-0.115725,49,277,584,5904
1644178222.648894,-0.010132,0.011841,-0.993042,0.175053,0.417099,-0.100458,48,276,585,5952
1644178222.697279,-0.008423,0.009521,-0.990417,0.220855,0.294962,-0.161527,42,275,582,5936
1644178222.745684,-0.01062,0.008423,-0.991333,0.266656,0.310229,0.067481,59,275,593,5952
1644178222.794078,-0.00824,0.007629,-0.990723,0.205588,0.386565,-0.161527,48,274,583,5984
1644178222.842535,-0.008606,0.011963,-0.994568,0.175053,0.264427,-0.069924,42,280,593,6048
1644178222.890912,-0.008911,0.008667,-0.992676,0.175053,0.539237,-0.115725,51,274,592,5984
1644178222.939298,-0.00946,0.009399,-0.994995,0.129252,0.432366,-0.085191,49,275,577,5952
1644178222.987701,-0.00824,0.009766,-0.992188,0.236122,0.401832,-0.268397,51,266,583,5936
1644178223.036079,-0.009583,0.00946,-0.989685,0.266656,0.478168,-0.008855,57,285,591,5984
1644178223.091714,-0.00824,0.011169,-0.991577,0.129252,0.325496,-0.085191,48,276,587,5936
1644178223.132853,-0.008484,0.010193,-0.991882,0.205588,0.386565,-0.069924,57,282,586,5952
1644178223.181204,-0.01001,0.007996,-0.991394,0.190321,0.386565,-0.008855,53,281,580,5984
1644178223.229605,-0.011353,0.01178,-0.993225,0.159786,0.478168,-0.115725,47,282,579,5904
1644178223.277962,-0.009949,0.009766,-0.993896,0.236122,0.447634,-0.085191,45,277,586,6048
1644178223.326386,-0.00946,0.008484,-0.990845,0.144519,0.340763,-0.14626,48,276,583,5984
1644178223.374868,-0.008911,0.008484,-0.99054,0.327725,0.417099,-0.039389,52,265,582,5984
1644178223.424219,-0.007202,0.007019,-0.993591,0.190321,0.340763,-0.039389,45,282,577,5984
1644178223.47453,-0.007935,0.007996,-0.989075,0.129252,0.462901,-0.130992,45,282,584,5984
1644178223.524846,-0.009155,0.010254,-0.992554,0.175053,0.417099,-0.100458,38,280,584,5952
1644178223.616751,-0.008667,0.010254,-0.993713,0.159786,0.294962,-0.085191,46,266,580,5984
1644178223.665344,-0.006775,0.011353,-0.990784,0.297191,0.371298,0.006412,51,281,578,5904
1644178223.713516,-0.013611,0.010132,-0.990784,0.327725,0.356031,-0.100458,54,273,589,5952
1644178223.7619,-0.010742,0.011658,-0.990662,0.266656,0.24916,-0.161527,51,281,583,5952
1644178223.810299,-0.007202,0.009583,-0.992737,0.175053,0.310229,-0.115725,40,277,586,5904
1644178223.858724,-0.010376,0.010132,-0.995239,0.312458,0.447634,-0.039389,58,274,587,5952
1644178223.907114,-0.011047,0.009277,-0.991577,0.251389,0.447634,0.12855,42,273,577,6016
1644178223.955529,-0.009521,0.009033,-0.993774,0.327725,0.462901,-0.115725,45,280,579,5952
1644178224.003921,-0.009521,0.008972,-0.991943,0.342992,0.432366,-0.161527,53,274,587,5984
1644178224.068218,-0.01062,0.006958,-0.990845,0.236122,0.508702,-0.130992,51,281,590,5984
1644178224.103483,-0.010071,0.011719,-0.990967,0.342992,0.294962,-0.024122,47,280,579,6000
1644178224.149043,-0.009399,0.010376,-0.990784,0.236122,0.462901,-0.039389,45,290,589,5904
1644178224.197442,-0.010864,0.008362,-0.989319,0.297191,0.294962,-0.130992,48,274,580,5952
1644178224.245839,-0.008301,0.008118,-0.991272,0.236122,0.554504,-0.085191,41,279,590,5936
1644178224.294228,-0.008423,0.007812,-0.990906,0.35826,0.523969,-0.039389,57,282,586,6016
1644178224.342644,-0.011108,0.009033,-0.993591,0.297191,0.523969,-0.054656,47,270,591,5952
1644178224.391009,-0.007812,0.008057,-0.992004,0.159786,0.401832,-0.054656,42,277,586,6016
1644178224.439399,-0.011414,0.009338,-0.990601,0.159786,0.523969,-0.176794,58,271,578,5952
1644178224.487761,-0.00946,0.009644,-0.992371,0.35826,0.432366,0.021679,46,276,585,6000
1644178224.536232,-0.007751,0.011353,-0.988647,0.175053,0.432366,-0.14626,53,279,590,5904
1644178224.586437,-0.009155,0.010315,-0.993286,0.373527,0.371298,-0.085191,54,270,582,6016
1644178224.636971,-0.008606,0.01001,-0.993103,0.251389,0.279695,-0.100458,51,269,576,6048
1644178224.681927,-0.008545,0.008301,-0.99176,0.175053,0.386565,-0.069924,45,277,582,6016
1644178224.778134,-0.009094,0.010071,-0.992554,0.266656,0.417099,-0.024122,53,279,576,5952
1644178224.826518,-0.00885,0.011169,-0.991455,0.144519,0.264427,0.006412,54,270,582,5984
1644178224.875021,-0.010559,0.009399,-0.993835,0.068183,0.447634,0.021679,53,274,576,5936
1644178224.923352,-0.011108,0.010986,-0.992493,0.35826,0.264427,-0.085191,52,280,577,5984
1644178224.971743,-0.008972,0.009094,-0.990051,0.220855,0.493435,-0.130992,53,276,583,6000
1644178225.020149,-0.008301,0.009338,-0.99115,0.098718,0.432366,-0.192061,46,283,590,5904
1644178225.071939,-0.008057,0.007385,-0.990784,0.297191,0.401832,0.006412,49,273,586,6048
1644178225.116942,-0.009521,0.008118,-0.993164,0.129252,0.371298,-0.069924,60,279,578,6000
1644178225.165272,-0.008606,0.00647,-0.991516,0.08345,0.310229,-0.222595,40,280,582,5952
1644178225.213681,-0.007935,0.012207,-0.989197,0.495664,0.417099,-0.039389,48,276,590,5984
1644178225.262047,-0.009583,0.011169,-0.992615,0.129252,0.478168,-0.115725,55,276,585,5952
1644178225.310439,-0.009827,0.009521,-0.990112,0.251389,0.417099,-0.222595,55,269,576,5952
1644178225.358841,-0.007568,0.010864,-0.993347,0.220855,0.279695,-0.085191,55,271,580,5984
1644178225.407243,-0.01239,0.00824,-0.991821,0.205588,0.294962,-0.115725,54,277,582,5952
1644178225.455666,-0.009338,0.012573,-0.991455,0.297191,0.447634,-0.130992,47,280,582,6048
1644178225.504002,-0.008728,0.008972,-0.992371,0.312458,0.356031,-0.085191,60,281,580,5904
1644178225.552432,-0.009399,0.009033,-0.991516,0.327725,0.417099,-0.130992,45,273,579,6000
1644178225.600791,-0.006714,0.009888,-0.991028,0.236122,0.371298,-0.161527,54,282,586,6016
1644178225.649527,-0.010864,0.010193,-0.991577,0.266656,0.279695,-0.100458,49,277,582,6016
1644178225.698451,-0.006409,0.008057,-0.991333,0.113985,0.401832,-0.100458,45,282,577,5984
1644178225.749237,-0.010742,0.012878,-0.992004,0.251389,0.340763,-0.085191,48,286,578,5952
1644178225.799119,-0.008362,0.010132,-0.994446,0.098718,0.356031,-0.130992,47,277,589,5984
1644178225.891205,-0.009094,0.008606,-0.992065,0.190321,0.401832,-0.161527,48,283,580,5904
1644178225.939589,-0.008789,0.008911,-0.991516,0.220855,0.340763,-0.161527,47,282,584,5984
1644178225.987964,-0.007812,0.009583,-0.992188,0.098718,0.371298,-0.069924,49,280,584,5904
1644178226.036359,-0.008179,0.009521,-0.992615,0.251389,0.417099,-0.085191,49,273,593,5904
1644178226.08486,-0.009155,0.011169,-0.990784,0.236122,0.386565,-0.100458,51,274,583,5904
1644178226.133156,-0.00769,0.009766,-0.992249,0.297191,0.279695,-0.14626,48,276,583,5984
1644178226.181511,-0.007263,0.008179,-0.991211,0.220855,0.478168,-0.100458,48,283,583,6080
1644178226.229908,-0.007874,0.009705,-0.991089,0.205588,0.478168,0.036947,53,283,585,5984
1644178226.2783,-0.008362,0.008423,-0.992004,0.144519,0.417099,-0.054656,46,281,578,6016
1644178226.326691,-0.00885,0.009521,-0.992493,0.281924,0.371298,-0.008855,53,276,583,6048
1644178226.375178,-0.008545,0.012268,-0.992615,0.190321,0.523969,-0.054656,52,277,579,5984
1644178226.423489,-0.010376,0.009949,-0.993286,0.220855,0.523969,-0.161527,51,276,592,6048
1644178226.471863,-0.007812,0.011658,-0.992981,0.281924,0.447634,0.082748,47,275,586,5984
1644178226.520252,-0.008545,0.011536,-0.990784,0.205588,0.340763,-0.085191,48,281,573,5984
1644178226.568643,-0.007568,0.009216,-0.990845,0.205588,0.539237,-0.283664,48,262,594,6016
1644178226.617027,-0.009033,0.011475,-0.994324,0.220855,0.371298,-0.069924,49,273,584,6000
1644178226.66543,-0.011597,0.009583,-0.993042,0.220855,0.462901,-0.085191,60,276,583,5984
1644178226.713802,-0.008362,0.008789,-0.991516,0.205588,0.508702,-0.069924,52,273,593,5984
1644178226.762232,-0.009827,0.009277,-0.992676,0.327725,0.340763,-0.100458,48,271,578,6000
1644178226.81099,-0.00769,0.010742,-0.989441,0.266656,0.264427,-0.237863,51,276,583,5984
1644178226.861875,-0.007202,0.01001,-0.992065,0.205588,0.646107,-0.054656,45,269,573,5936
1644178226.912511,-0.008545,0.008545,-0.99054,0.297191,0.340763,-0.008855,51,283,585,5952
1644178226.957302,-0.012756,0.012268,-0.990662,0.236122,0.462901,-0.069924,49,273,591,5952
1644178227.063259,-0.009949,0.00708,-0.99469,0.205588,0.462901,-0.14626,57,275,596,6000
1644178227.103822,-0.006836,0.009399,-0.993713,0.251389,0.493435,-0.222595,45,273,579,6000
1644178227.149385,-0.007996,0.009888,-0.991699,0.281924,0.508702,-0.008855,46,274,585,5952
1644178227.197746,-0.008118,0.009583,-0.990234,0.129252,0.264427,0.036947,46,266,590,5904
1644178227.246157,-0.012695,0.010437,-0.993469,0.205588,0.432366,-0.115725,46,271,583,5936
1644178227.294514,-0.010559,0.009583,-0.992615,0.220855,0.432366,-0.176794,55,281,590,5952
1644178227.342934,-0.008545,0.010681,-0.989685,0.236122,0.310229,-0.192061,54,282,575,6000
1644178227.391305,-0.008301,0.008606,-0.990417,0.129252,0.417099,-0.054656,59,280,577,6000
1644178227.439672,-0.008728,0.010071,-0.992432,0.449863,0.14229,-0.161527,41,274,585,5952
1644178227.488084,-0.009094,0.010498,-0.990417,0.281924,0.279695,-0.069924,53,276,587,5984
1644178227.536479,-0.008484,0.012939,-0.990967,0.281924,0.386565,-0.024122,49,275,589,5984
1644178227.584871,-0.011353,0.008606,-0.991211,0.190321,0.371298,-0.100458,45,275,589,5984
1644178227.633263,-0.007446,0.010254,-0.99292,0.175053,0.417099,-0.161527,58,269,592,6000
1644178227.681995,-0.008423,0.011658,-0.992615,0.08345,0.279695,-0.115725,41,281,583,6000
1644178227.730931,-0.009827,0.010498,-0.992432,0.068183,0.478168,-0.207328,51,283,590,5904
1644178227.781554,-0.008057,0.008606,-0.991699,0.190321,0.417099,-0.161527,51,281,592,5952
1644178227.831549,-0.007385,0.006714,-0.992432,0.312458,0.371298,-0.283664,48,283,583,6000
1644178227.923703,-0.009827,0.009277,-0.994324,0.175053,0.417099,-0.237863,54,282,579,5952
1644178227.972052,-0.010559,0.009155,-0.990234,0.35826,0.478168,-0.161527,45,273,586,5936
1644178228.020423,-0.008667,0.00885,-0.992188,0.236122,0.386565,-0.161527,52,277,579,6016
1644178228.06894,-0.008667,0.008728,-0.991028,0.144519,0.508702,-0.161527,53,269,583,5952
1644178228.117145,-0.006165,0.01123,-0.992004,0.342992,0.340763,0.006412,66,270,582,5936
1644178228.165562,-0.011292,0.008728,-0.989258,0.113985,0.432366,-0.115725,46,274,580,5984
1644178228.213977,-0.00885,0.009033,-0.992859,0.220855,0.447634,-0.14626,43,276,580,5952
1644178228.262382,-0.01178,0.008972,-0.991211,0.144519,0.401832,0.021679,48,286,590,6000
1644178228.310737,-0.007324,0.012939,-0.989441,0.190321,0.523969,-0.054656,53,274,585,5936
1644178228.359151,-0.009521,0.010254,-0.991028,0.327725,0.310229,-0.130992,54,275,577,6000
1644178228.407542,-0.010254,0.00769,-0.993591,0.236122,0.447634,-0.100458,47,280,579,5904
1644178228.455938,-0.006287,0.009338,-0.99054,0.113985,0.523969,-0.268397,59,273,584,5952
1644178228.504335,-0.009644,0.008057,-0.994934,0.205588,0.356031,-0.039389,39,279,578,5984
1644178228.552698,-0.007568,0.009827,-0.991638,0.068183,0.417099,-0.100458,58,266,580,5984
1644178228.601109,-0.012817,0.011108,-0.991089,0.297191,0.417099,-0.161527,41,274,587,5952
1644178228.649496,-0.00769,0.010437,-0.992065,0.35826,0.371298,-0.115725,51,279,583,5984
1644178228.697856,-0.009644,0.010193,-0.99353,0.35826,0.279695,-0.008855,64,270,582,5984
1644178228.746276,-0.009399,0.012146,-0.991638,0.205588,0.447634,-0.008855,47,277,591,5952
1644178228.794873,-0.00647,0.010925,-0.991638,0.266656,0.386565,-0.115725,48,271,592,6016
1644178228.844394,-0.009338,0.008972,-0.992126,0.144519,0.386565,-0.024122,59,285,584,5936
1644178228.894566,-0.006226,0.009583,-0.993286,0.175053,0.325496,-0.161527,52,270,589,5904
1644178228.944722,-0.00824,0.009338,-0.988892,0.236122,0.432366,-0.069924,55,279,594,5904
1644178228.989134,-0.005981,0.008362,-0.990845,0.159786,0.386565,-0.039389,54,280,577,6016
1644178229.085243,-0.008728,0.009338,-0.991455,0.236122,0.523969,0.006412,46,274,592,6016
1644178229.13339,-0.012329,0.005676,-0.99115,0.220855,0.447634,-0.115725,46,283,583,5984
1644178229.181818,-0.008484,0.007202,-0.98999,0.144519,0.432366,-0.039389,45,275,577,5936
1644178229.230191,-0.009705,0.008484,-0.989685,0.068183,0.432366,-0.069924,52,273,582,5984
1644178229.27858,-0.009583,0.009766,-0.989807,0.190321,0.325496,0.021679,40,275,582,5952
1644178229.326953,-0.008362,0.009644,-0.990662,0.327725,0.233893,-0.024122,49,275,577,6016
1644178229.375373,-0.008423,0.008667,-0.992554,0.220855,0.508702,-0.115725,58,276,583,5984
1644178229.423779,-0.010376,0.007507,-0.990784,0.190321,0.447634,-0.207328,52,282,589,5984
1644178229.472174,-0.011963,0.009216,-0.994019,0.312458,0.401832,-0.069924,39,271,578,5984
1644178229.520542,-0.008789,0.011902,-0.990967,0.190321,0.401832,-0.039389,49,277,577,6016
1644178229.568949,-0.009949,0.009033,-0.992004,0.159786,0.356031,-0.268397,65,288,585,6016
1644178229.61734,-0.008118,0.007507,-0.99176,0.129252,0.386565,-0.130992,52,282,579,5952
1644178229.665735,-0.008972,0.010376,-0.989563,0.129252,0.493435,-0.14626,46,274,592,6000
1644178229.714138,-0.011475,0.007874,-0.990234,0.129252,0.279695,-0.176794,51,276,583,5984
1644178229.76251,-0.011963,0.007935,-0.993652,0.098718,0.462901,-0.085191,48,271,578,5936
1644178229.810946,-0.00647,0.011292,-0.993164,0.251389,0.417099,-0.222595,40,275,589,6000
1644178229.859334,-0.007935,0.008789,-0.993591,0.190321,0.417099,-0.100458,35,275,579,6000
1644178229.907966,-0.009216,0.00824,-0.991638,0.159786,0.386565,-0.237863,43,269,585,6000
1644178229.956131,-0.009583,0.012146,-0.990479,0.190321,0.356031,0.113282,48,279,590,5952
1644178230.006162,-0.006836,0.006653,-0.991455,0.266656,0.417099,-0.039389,47,270,584,5952
1644178230.069511,-0.012268,0.01178,-0.992004,0.175053,0.294962,-0.008855,51,266,590,5936
1644178230.111118,-0.007019,0.007996,-0.991089,0.236122,0.478168,0.036947,57,273,584,5984
1644178230.150743,-0.009338,0.009888,-0.991577,0.129252,0.417099,-0.008855,47,275,591,5984
1644178230.246412,-0.010925,0.008362,-0.991882,0.175053,0.279695,-0.085191,42,275,584,6016
1644178230.294866,-0.00946,0.011597,-0.988831,0.098718,0.386565,-0.008855,52,282,579,5952
1644178230.343218,-0.008545,0.008789,-0.989929,0.251389,0.386565,-0.085191,48,269,583,5952
1644178230.391613,-0.007874,0.009399,-0.990173,0.190321,0.447634,-0.069924,53,286,592,5952
1644178230.439984,-0.008423,0.008545,-0.990967,0.266656,0.493435,-0.054656,55,283,587,5952
1644178230.488384,-0.008667,0.010681,-0.989258,0.236122,0.325496,-0.024122,46,283,585,5872
1644178230.536776,-0.011658,0.007629,-0.995117,-0.008153,0.401832,-0.192061,52,270,570,5984
1644178230.585385,-0.008423,0.009521,-0.990906,0.144519,0.508702,-0.054656,53,276,580,5952
1644178230.633576,-0.010193,0.010559,-0.990723,0.220855,0.386565,-0.115725,43,271,585,5936
1644178230.681975,-0.009277,0.008362,-0.993286,0.266656,0.401832,-0.222595,35,277,586,5984
1644178230.730355,-0.008301,0.009705,-0.993286,0.236122,0.539237,-0.054656,53,283,592,5952
1644178230.778741,-0.011108,0.010803,-0.991333,0.297191,0.447634,-0.207328,43,274,587,5888
1644178230.827176,-0.010132,0.011902,-0.992615,0.129252,0.523969,0.052214,49,277,584,5984
1644178230.875534,-0.011841,0.007812,-0.991272,0.297191,0.356031,0.006412,49,285,582,5952
1644178230.923944,-0.004578,0.010986,-0.990051,0.022382,0.310229,-0.100458,47,275,584,5936
1644178230.97236,-0.01062,0.009399,-0.992493,0.312458,0.432366,-0.069924,52,277,593,6000
1644178231.020739,-0.010681,0.011475,-0.99176,0.312458,0.432366,-0.192061,45,282,579,6048
1644178231.081476,-0.009888,0.008545,-0.992004,0.266656,0.432366,-0.14626,48,279,580,5872
1644178231.12242,-0.010498,0.00946,-0.990845,0.236122,0.340763,-0.100458,46,279,592,6000
1644178231.166331,-0.010193,0.008362,-0.99292,0.159786,0.447634,-0.130992,47,270,575,6016
1644178231.262662,-0.009827,0.00946,-0.992188,0.175053,0.539237,-0.054656,52,277,582,6000
1644178231.311059,-0.009277,0.008118,-0.992493,0.159786,0.386565,-0.100458,52,275,589,6048
1644178231.359448,-0.008728,0.009705,-0.992798,0.281924,0.478168,-0.130992,48,279,583,6016
1644178231.407823,-0.010559,0.009338,-0.992371,0.098718,0.310229,-0.176794,53,281,578,5952
1644178231.456219,-0.008789,0.009644,-0.990967,0.373527,0.493435,-0.008855,46,271,590,6016
1644178231.50467,-0.007324,0.012207,-0.992004,0.236122,0.294962,-0.085191,45,275,582,5952
1644178231.553031,-0.008789,0.010315,-0.990845,0.068183,0.478168,-0.192061,53,279,590,6080
1644178231.601387,-0.008057,0.005005,-0.991455,0.312458,0.371298,-0.085191,53,276,587,5984
1644178231.649796,-0.008667,0.013794,-0.991028,0.297191,0.401832,-0.115725,58,276,583,5984
1644178231.6982,-0.010559,0.006287,-0.990906,0.312458,0.279695,0.052214,53,279,585,5952
1644178231.746562,-0.010864,0.009949,-0.991272,0.236122,0.417099,-0.237863,57,285,589,5984
1644178231.795115,-0.007324,0.010437,-0.991272,0.175053,0.279695,-0.008855,57,285,598,5984
1644178231.843436,-0.011475,0.008789,-0.992249,0.190321,0.462901,-0.039389,36,283,583,5984
1644178231.891809,-0.009888,0.007507,-0.991821,0.129252,0.462901,-0.069924,59,285,584,5952
1644178231.940182,-0.00885,0.010071,-0.991638,0.266656,0.310229,0.006412,43,281,580,5936
1644178231.988584,-0.010559,0.009033,-0.98877,0.419328,0.462901,-0.039389,43,279,580,5984
1644178232.036975,-0.010559,0.011169,-0.991211,0.327725,0.478168,-0.069924,57,277,591,6048
1644178232.098457,-0.009399,0.010742,-0.989441,0.220855,0.417099,-0.130992,49,280,584,5904
1644178232.133735,-0.007996,0.008911,-0.990295,0.205588,0.401832,-0.14626,43,276,590,5952
1644178232.182357,-0.010742,0.009399,-0.991272,0.281924,0.447634,-0.069924,51,274,580,6000
1644178232.232918,-0.006836,0.009277,-0.990723,0.159786,0.523969,-0.024122,51,269,590,5952
1644178232.283255,-0.009705,0.008423,-0.991516,0.190321,0.371298,0.082748,58,281,583,5984
1644178232.328344,-0.011902,0.01001,-0.989868,0.266656,0.493435,0.067481,52,273,586,5984
1644178232.424081,-0.012146,0.008911,-0.99176,0.175053,0.539237,-0.130992,45,275,586,5952
1644178232.472469,-0.008179,0.008789,-0.993408,0.190321,0.356031,-0.054656,47,273,582,6016
1644178232.520854,-0.009033,0.011047,-0.990906,0.281924,0.356031,-0.085191,49,277,589,5952
1644178232.569237,-0.009521,0.009277,-0.994446,0.251389,0.615573,-0.161527,57,273,589,6016
1644178232.617649,-0.00708,0.009277,-0.991272,0.052916,0.386565,-0.054656,46,276,587,5984
1644178232.666021,-0.008484,0.011292,-0.993103,0.281924,0.569771,-0.085191,43,269,580,6016
1644178232.714435,-0.009155,0.00946,-0.992981,0.266656,0.371298,-0.085191,45,290,589,6000
1644178232.762844,-0.010376,0.008484,-0.991821,0.312458,0.462901,-0.130992,52,270,591,6016
1644178232.811218,-0.008972,0.01001,-0.991638,0.236122,0.325496,-0.176794,52,282,586,5984
1644178232.85964,-0.009094,0.010071,-0.991821,0.297191,0.386565,0.036947,49,277,584,5984
1644178232.908033,-0.010193,0.008362,-0.993958,0.342992,0.508702,-0.115725,39,266,578,5984
1644178232.956421,-0.009094,0.011597,-0.991821,0.205588,0.294962,-0.069924,52,280,582,5952
1644178233.004852,-0.007935,0.008301,-0.992493,0.175053,0.386565,-0.222595,51,271,585,5952
1644178233.066807,-0.009888,0.009644,-0.993469,0.297191,0.340763,-0.069924,47,282,582,5952
1644178233.102345,-0.009155,0.010437,-0.993713,0.159786,0.554504,-0.283664,52,265,596,5952
1644178233.149949,-0.009521,0.006409,-0.992249,0.205588,0.478168,0.036947,53,276,580,6016
1644178233.198344,-0.006836,0.008362,-0.991028,0.144519,0.325496,-0.054656,45,280,584,5952
1644178233.246736,-0.009827,0.009705,-0.990845,0.205588,0.462901,0.021679,53,276,580,5936
1644178233.295156,-0.00885,0.010986,-0.993347,0.098718,0.401832,-0.130992,47,280,589,6000
1644178233.343796,-0.009033,0.006836,-0.993347,0.175053,0.371298,-0.130992,57,273,579,5984
1644178233.394133,-0.00708,0.011963,-0.990295,0.129252,0.371298,-0.237863,46,262,585,5952
1644178233.444263,-0.00885,0.009888,-0.993103,0.312458,0.432366,-0.207328,47,275,582,5952
1644178233.489516,-0.009338,0.009949,-0.993408,0.113985,0.356031,-0.069924,46,274,580,5984
1644178233.585458,-0.010681,0.007874,-0.993042,0.297191,0.386565,-0.130992,57,265,589,5936
1644178233.633871,-0.010437,0.009277,-0.99469,0.220855,0.417099,-0.054656,45,282,584,5984
1644178233.682389,-0.008118,0.011719,-0.990784,0.022382,0.462901,-0.054656,53,274,580,5952
1644178233.730651,-0.010376,0.009338,-0.991943,0.129252,0.371298,0.052214,57,275,579,5984
1644178233.779035,-0.007812,0.009338,-0.993103,0.236122,0.356031,-0.069924,39,279,576,5984
1644178233.827435,-0.009827,0.007385,-0.992676,0.266656,0.401832,-0.161527,49,282,582,5936
1644178233.875856,-0.009094,0.007996,-0.991699,0.236122,0.401832,-0.130992,43,281,585,5984
1644178233.924272,-0.008484,0.00824,-0.990723,0.327725,0.417099,0.067481,51,283,592,6016
1644178233.972669,-0.008545,0.010742,-0.991272,0.236122,0.478168,-0.130992,43,276,580,5984
1644178234.021054,-0.010986,0.009399,-0.993103,0.342992,0.294962,-0.054656,60,266,590,5984
1644178234.085411,-0.008728,0.009521,-0.991089,0.312458,0.432366,-0.039389,57,273,586,6000
1644178234.117857,-0.008972,0.008484,-0.990723,0.236122,0.386565,0.036947,54,282,582,6000
1644178234.166188,-0.010315,0.009033,-0.992615,0.297191,0.356031,-0.14626,47,273,586,6000
1644178234.214631,-0.009338,0.01001,-0.991638,0.266656,0.462901,-0.054656,38,275,586,5984
1644178234.262986,-0.01001,0.011475,-0.995667,0.281924,0.432366,-0.085191,52,282,582,5984
1644178234.311355,-0.008728,0.010498,-0.992126,0.159786,0.493435,-0.130992,55,286,590,5952
1644178234.359718,-0.007202,0.011292,-0.989746,0.266656,0.493435,-0.207328,53,271,578,5984
1644178234.408202,-0.010986,0.011414,-0.991699,0.220855,0.401832,-0.100458,47,280,586,5952
1644178234.457213,-0.010925,0.009949,-0.993591,0.297191,0.508702,-0.069924,45,277,584,6000
1644178234.507751,-0.00946,0.010315,-0.994446,0.312458,0.294962,-0.085191,60,266,590,5984
1644178234.557744,-0.013794,0.010803,-0.992798,0.129252,0.325496,-0.130992,47,277,586,5984
1644178234.602765,-0.01001,0.005737,-0.99231,0.205588,0.539237,-0.069924,42,275,582,6048
1644178234.698478,-0.01123,0.008972,-0.990723,0.312458,0.386565,-0.100458,55,291,583,5984
1644178234.74686,-0.008789,0.006348,-0.991272,0.297191,0.447634,0.006412,61,273,582,5952
1644178234.7954,-0.010742,0.009583,-0.98877,0.129252,0.554504,-0.207328,53,271,578,5936
1644178234.843671,-0.006653,0.010071,-0.991699,0.281924,0.417099,-0.115725,43,269,585,5984
1644178234.892089,-0.007507,0.010925,-0.99353,0.312458,0.447634,-0.069924,51,279,585,5952
1644178234.940493,-0.00946,0.007935,-0.992798,0.327725,0.340763,-0.130992,47,285,582,5904
1644178234.988858,-0.012573,0.010681,-0.993652,0.251389,0.371298,-0.207328,53,271,580,5936
1644178235.037298,-0.008789,0.009705,-0.992859,0.220855,0.432366,-0.054656,46,279,587,6016
1644178235.095422,-0.008301,0.009338,-0.991211,0.220855,0.539237,-0.054656,49,277,586,6016
1644178235.134076,-0.006592,0.009216,-0.989563,0.281924,0.218626,-0.161527,51,271,583,5952
1644178235.182436,-0.011963,0.00769,-0.992737,0.266656,0.340763,-0.161527,47,280,593,6000
1644178235.230801,-0.009155,0.008057,-0.99353,0.175053,0.432366,-0.161527,57,277,591,6000
1644178235.279187,-0.007629,0.010681,-0.991028,0.220855,0.401832,-0.085191,57,280,582,5984
1644178235.327776,-0.01062,0.007751,-0.992615,0.35826,0.462901,-0.008855,51,271,583,5984
1644178235.377124,-0.009155,0.009644,-0.993347,0.312458,0.386565,-0.024122,53,271,583,6064
1644178235.427822,-0.011047,0.009399,-0.991028,0.175053,0.294962,-0.161527,40,265,586,5904
1644178235.477799,-0.008911,0.009277,-0.99054,0.08345,0.508702,-0.237863,47,277,584,5984
1644178235.569535,-0.011414,0.008728,-0.992432,0.297191,0.310229,-0.161527,47,285,586,5984
1644178235.617921,-0.010986,0.01001,-0.99408,0.129252,0.386565,0.067481,42,270,584,6016
1644178235.66631,-0.010925,0.011597,-0.994324,0.113985,0.386565,-0.176794,49,277,584,6000
1644178235.714849,-0.009766,0.010132,-0.994202,0.205588,0.310229,-0.176794,57,282,586,6000
1644178235.763097,-0.010437,0.009216,-0.988953,0.220855,0.371298,-0.222595,35,277,582,5984
1644178235.811491,-0.009644,0.010681,-0.991943,0.190321,0.340763,-0.024122,45,277,582,5936
1644178235.859898,-0.009766,0.010315,-0.993408,0.266656,0.371298,-0.024122,38,280,582,6000
1644178235.908319,-0.009216,0.011597,-0.992798,0.404061,0.401832,-0.069924,52,265,584,5936
1644178235.956738,-0.008484,0.007629,-0.991211,0.342992,0.371298,-0.115725,48,279,580,6048
1644178236.005248,-0.01123,0.008057,-0.991211,0.175053,0.401832,-0.115725,47,275,593,5904
1644178236.069946,-0.009277,0.007446,-0.992493,0.220855,0.447634,-0.008855,35,282,579,5984
1644178236.104266,-0.006165,0.008606,-0.991638,0.342992,0.493435,-0.115725,47,280,591,5984
1644178236.150304,-0.010437,0.006531,-0.993958,0.129252,0.447634,-0.100458,46,274,585,5952
1644178236.198663,-0.007568,0.008057,-0.992126,0.205588,0.386565,-0.008855,52,270,589,5984
1644178236.247076,-0.009094,0.008972,-0.993164,0.297191,0.325496,-0.14626,55,283,597,5952
1644178236.295466,-0.010193,0.009399,-0.989624,0.251389,0.493435,-0.100458,39,281,590,5936
1644178236.343845,-0.008362,0.010254,-0.990967,0.175053,0.325496,-0.176794,43,281,583,5952
1644178236.392269,-0.010437,0.012573,-0.992126,0.190321,0.401832,-0.161527,55,262,585,5984
1644178236.440658,-0.010132,0.009094,-0.992493,0.373527,0.356031,-0.115725,48,276,592,5984
1644178236.490831,-0.009277,0.011169,-0.992798,0.373527,0.401832,-0.054656,58,288,576,6016
1644178236.540526,-0.011963,0.008789,-0.992126,0.266656,0.447634,-0.085191,43,279,585,5952
1644178236.591318,-0.007874,0.011292,-0.991211,0.388794,0.325496,-0.069924,48,288,585,5904
1644178236.635328,-0.00824,0.011353,-0.991577,0.129252,0.447634,-0.069924,41,276,580,5984
1644178236.73101,-0.008118,0.008728,-0.991333,0.113985,0.386565,-0.039389,45,275,582,5952
1644178236.77938,-0.008972,0.007446,-0.992859,0.404061,0.356031,-0.024122,58,286,583,6048
1644178236.827769,-0.010864,0.010071,-0.991943,0.159786,0.462901,-0.039389,48,288,583,5984
1644178236.876162,-0.00946,0.011353,-0.992432,0.190321,0.310229,-0.100458,52,280,589,5984
1644178236.924616,-0.008972,0.008728,-0.993103,0.373527,0.432366,-0.100458,49,282,584,5984
1644178236.972974,-0.009949,0.008972,-0.992798,0.266656,0.462901,-0.176794,45,265,593,5984
1644178237.021346,-0.009827,0.007812,-0.989929,0.373527,0.417099,-0.054656,40,277,582,5984
1644178237.070324,-0.010437,0.008606,-0.990051,0.205588,0.356031,-0.14626,46,281,583,5952
1644178237.118083,-0.009583,0.008972,-0.990356,0.129252,0.356031,0.052214,57,277,586,5984
1644178237.166486,-0.006958,0.00647,-0.992859,0.068183,0.539237,0.006412,48,286,583,6000
1644178237.214892,-0.011597,0.008728,-0.993835,0.266656,0.279695,-0.176794,52,270,579,5984
1644178237.263241,-0.006714,0.007751,-0.992676,0.449863,0.279695,-0.130992,52,282,598,5952
1644178237.311615,-0.011719,0.009583,-0.992126,0.068183,0.325496,-0.161527,43,266,585,5904
1644178237.360039,-0.011169,0.007507,-0.992065,0.175053,0.356031,0.052214,38,277,577,5952
1644178237.408434,-0.009644,0.012329,-0.994385,0.251389,0.432366,-0.069924,46,276,585,5984
1644178237.456835,-0.009705,0.009277,-0.99231,0.129252,0.523969,-0.039389,51,279,580,5952
1644178237.505241,-0.009644,0.010742,-0.992676,0.190321,0.478168,-0.115725,47,280,584,6000
1644178237.553612,-0.008667,0.010681,-0.992432,0.190321,0.356031,0.006412,47,280,586,6048
1644178237.602,-0.007874,0.009644,-0.993042,0.113985,0.615573,-0.054656,38,282,584,6000
1644178237.650777,-0.007324,0.007446,-0.991699,0.129252,0.462901,-0.130992,48,279,578,6000
1644178237.701824,-0.011841,0.009216,-0.99176,0.236122,0.447634,-0.130992,55,283,578,6064
1644178237.751451,-0.011414,0.007629,-0.991699,0.266656,0.508702,-0.130992,46,283,580,5952
1644178237.797309,-0.008972,0.008789,-0.991455,0.220855,0.447634,-0.100458,52,270,586,5984
1644178237.892456,-0.010742,0.010803,-0.991394,0.205588,0.401832,-0.14626,47,275,572,5984
1644178237.940768,-0.008362,0.010254,-0.991821,0.159786,0.417099,-0.069924,54,282,591,5984
1644178237.98918,-0.008911,0.009705,-0.99115,0.144519,0.371298,-0.039389,49,280,589,5984
1644178238.037581,-0.010193,0.008789,-0.992737,0.129252,0.371298,-0.054656,61,280,582,5984
1644178238.086411,-0.010498,0.006042,-0.993225,0.281924,0.386565,-0.176794,46,291,583,6048
1644178238.134339,-0.009277,0.006897,-0.993103,0.190321,0.294962,-0.192061,47,268,584,6016
1644178238.182733,-0.010132,0.010986,-0.989624,0.297191,0.356031,0.006412,43,274,580,5984
1644178238.231074,-0.009399,0.009033,-0.990601,0.037649,0.432366,-0.130992,57,273,582,5952
1644178238.279464,-0.008118,0.008545,-0.993164,0.251389,0.493435,-0.039389,58,276,587,5952
1644178238.327882,-0.009583,0.00824,-0.991699,0.205588,0.325496,-0.069924,57,277,579,5984
1644178238.376282,-0.00769,0.008911,-0.993042,0.098718,0.462901,-0.115725,42,280,577,5952
1644178238.42471,-0.007874,0.008484,-0.991455,0.251389,0.432366,-0.130992,47,275,586,5984
1644178238.473078,-0.009644,0.007263,-0.991638,0.312458,0.508702,-0.069924,53,264,580,5904
1644178238.521456,-0.010803,0.007507,-0.993591,0.205588,0.401832,-0.14626,55,281,592,6000
1644178238.569819,-0.008972,0.010437,-0.992798,0.297191,0.310229,0.006412,51,274,583,5984
1644178238.618239,-0.006958,0.008545,-0.992004,0.08345,0.493435,-0.054656,49,275,596,5984
1644178238.666638,-0.009583,0.01123,-0.992554,0.35826,0.523969,0.006412,52,275,598,5984
1644178238.715051,-0.010742,0.01001,-0.994385,0.266656,0.554504,-0.130992,29,281,580,5936
1644178238.763418,-0.007507,0.007507,-0.991089,0.144519,0.371298,-0.100458,55,283,585,6016
1644178238.813748,-0.006714,0.009644,-0.991089,0.373527,0.417099,-0.222595,48,271,585,5904
1644178238.863417,-0.010132,0.007141,-0.991882,0.220855,0.401832,-0.085191,53,266,594,5888
1644178238.913735,-0.009827,0.008667,-0.994019,0.205588,0.356031,-0.192061,46,276,592,6000
1644178238.958342,-0.011597,0.011353,-0.991211,0.159786,0.294962,-0.115725,47,285,593,6000
1644178239.067978,-0.010437,0.008362,-0.994507,0.175053,0.356031,-0.207328,58,279,583,5872
1644178239.103258,-0.009949,0.010376,-0.990173,0.251389,0.279695,0.006412,45,282,577,6016
1644178239.150591,-0.007141,0.00824,-0.991516,0.144519,0.493435,-0.085191,40,277,586,6016
1644178239.19893,-0.008728,0.00769,-0.994324,0.236122,0.417099,-0.237863,42,277,582,5936
1644178239.247315,-0.008301,0.008789,-0.992676,0.190321,0.417099,-0.085191,47,285,586,6000
1644178239.295713,-0.00946,0.007507,-0.992065,0.281924,0.493435,-0.14626,53,281,592,5952
1644178239.344135,-0.008057,0.008545,-0.992065,0.266656,0.478168,-0.085191,51,276,585,5984
1644178239.392498,-0.006348,0.007996,-0.99292,0.220855,0.264427,-0.100458,45,282,586,6048
1644178239.440903,-0.010437,0.010315,-0.992676,0.190321,0.356031,-0.054656,47,280,582,5952
1644178239.489325,-0.011536,0.010498,-0.990845,0.266656,0.417099,-0.314198,45,270,589,5984
1644178239.537679,-0.008911,0.01001,-0.992126,0.281924,0.417099,-0.130992,48,266,580,6080
1644178239.586078,-0.009949,0.009827,-0.992676,0.220855,0.569771,-0.085191,42,273,589,6000
1644178239.634714,-0.010071,0.012146,-0.991638,0.144519,0.371298,-0.268397,54,277,584,5904
1644178239.685249,-0.007141,0.007996,-0.991089,0.175053,0.218626,-0.130992,47,277,598,5904
1644178239.735413,-0.011475,0.009338,-0.992615,0.327725,0.508702,-0.039389,60,283,585,5952
1644178239.780597,-0.009766,0.007507,-0.993347,0.159786,0.325496,-0.069924,48,276,576,5936
1644178239.87646,-0.009949,0.009827,-0.993408,0.159786,0.356031,-0.008855,47,282,589,5984
1644178239.924917,-0.007874,0.00769,-0.992371,0.190321,0.462901,-0.222595,57,277,589,5952
1644178239.973267,-0.006287,0.010559,-0.992371,0.35826,0.401832,-0.314198,55,271,578,6016
1644178240.021645,-0.007507,0.011353,-0.994141,0.388794,0.554504,-0.237863,52,270,584,6000
1644178240.070215,-0.009521,0.009583,-0.992432,0.266656,0.447634,-0.069924,47,282,586,6000
1644178240.118421,-0.010986,0.008972,-0.994263,0.251389,0.462901,-0.008855,53,279,585,5936
1644178240.16677,-0.007935,0.009216,-0.989685,0.175053,0.371298,-0.14626,36,274,576,6016
1644178240.21516,-0.010864,0.01123,-0.99054,0.175053,0.294962,-0.008855,49,277,591,5984
1644178240.263572,-0.010681,0.007324,-0.994019,0.159786,0.401832,-0.054656,47,290,589,6048
1644178240.311959,-0.006775,0.009521,-0.992615,0.205588,0.478168,-0.283664,43,279,592,6000
1644178240.360357,-0.009033,0.01416,-0.991577,0.236122,0.447634,-0.222595,53,279,587,5952
1644178240.408741,-0.008484,0.011047,-0.993347,0.236122,0.432366,-0.024122,49,277,577,6016
1644178240.457132,-0.010315,0.010437,-0.991882,0.236122,0.294962,-0.039389,47,273,589,5984
1644178240.505512,-0.010437,0.01123,-0.992798,0.327725,0.371298,-0.130992,49,265,579,5984
1644178240.553903,-0.009399,0.008789,-0.989929,0.113985,0.462901,-0.115725,48,279,590,6000
1644178240.602322,-0.007751,0.010193,-0.99292,0.251389,0.371298,-0.14626,54,280,582,5984
1644178240.650698,-0.010376,0.009827,-0.992249,0.236122,0.264427,-0.069924,47,277,591,5904
1644178240.699082,-0.007141,0.010681,-0.992126,0.342992,0.493435,-0.130992,41,269,583,6016
1644178240.747451,-0.007996,0.008423,-0.993164,0.144519,0.264427,-0.039389,47,282,586,5984
1644178240.796188,-0.009216,0.010071,-0.991577,0.144519,0.310229,0.098015,45,273,586,5952
1644178240.846945,-0.010559,0.00885,-0.990295,0.251389,0.539237,0.021679,41,264,585,5984
1644178240.897813,-0.008606,0.006592,-0.992981,0.190321,0.386565,0.021679,53,276,583,6000
1644178240.942361,-0.010132,0.008667,-0.990723,0.266656,0.417099,0.021679,49,273,577,5952
1644178241.037868,-0.011414,0.008606,-0.991577,0.342992,0.432366,-0.054656,47,275,593,6016
1644178241.086328,-0.01062,0.009094,-0.991882,0.266656,0.401832,0.052214,52,277,598,5936
1644178241.134662,-0.011169,0.009033,-0.992798,0.236122,0.478168,-0.176794,48,281,587,6048
1644178241.183015,-0.010681,0.009888,-0.993164,0.175053,0.585038,-0.024122,42,270,577,5984
1644178241.231396,-0.010376,0.009949,-0.994202,0.159786,0.417099,-0.008855,49,275,584,5952
1644178241.279768,-0.009155,0.009033,-0.99353,0.35826,0.310229,-0.14626,54,270,577,5936
1644178241.328175,-0.011047,0.011292,-0.99231,0.266656,0.478168,-0.024122,47,275,575,6000
1644178241.376575,-0.009033,0.007996,-0.991821,0.281924,0.478168,-0.100458,45,263,577,6000
1644178241.425026,-0.008972,0.008911,-0.991577,0.342992,0.325496,0.006412,52,275,586,5904
1644178241.473373,-0.010681,0.010071,-0.989746,0.236122,0.462901,-0.161527,53,274,573,5984
1644178241.521756,-0.01062,0.01001,-0.993225,0.205588,0.310229,-0.100458,55,286,580,6000
1644178241.570146,-0.010803,0.012024,-0.99408,0.342992,0.493435,-0.115725,55,281,585,5984
1644178241.618527,-0.010376,0.010254,-0.991333,0.144519,0.523969,-0.14626,54,280,586,5984
1644178241.666929,-0.007935,0.011536,-0.993042,0.129252,0.432366,-0.054656,46,271,592,5952
1644178241.715299,-0.009094,0.007629,-0.99353,0.129252,0.356031,-0.054656,46,283,585,5936
1644178241.763729,-0.008423,0.008972,-0.991577,0.297191,0.478168,-0.130992,51,271,594,5952
1644178241.812153,-0.009033,0.010742,-0.994812,0.434595,0.432366,-0.100458,42,280,593,5984
1644178241.860558,-0.010254,0.008362,-0.990356,0.068183,0.340763,-0.069924,54,273,589,6000
1644178241.90904,-0.012329,0.008423,-0.990601,0.220855,0.401832,-0.039389,49,275,598,6048
1644178241.958153,-0.006409,0.009399,-0.991333,0.236122,0.508702,-0.054656,45,275,582,5984
1644178242.067216,-0.009888,0.007202,-0.990112,0.175053,0.371298,-0.039389,51,279,592,5984
1644178242.10256,-0.012085,0.008789,-0.992188,0.297191,0.493435,-0.161527,52,265,584,5984
1644178242.150843,-0.011475,0.009277,-0.990662,0.205588,0.340763,-0.115725,49,268,584,6000
1644178242.199235,-0.010376,0.007568,-0.99054,0.098718,0.539237,-0.054656,46,271,590,6000
1644178242.247608,-0.007996,0.011597,-0.991882,0.297191,0.294962,0.021679,62,276,587,5952
1644178242.296031,-0.011841,0.008789,-0.993896,0.312458,0.386565,-0.161527,48,269,571,6048
1644178242.34444,-0.010315,0.00946,-0.99176,0.113985,0.462901,-0.237863,54,275,586,5952
1644178242.392821,-0.012817,0.007019,-0.995605,0.236122,0.523969,0.036947,40,282,591,5984
1644178242.441199,-0.008789,0.008179,-0.992126,0.236122,0.401832,-0.130992,51,276,587,5952
1644178242.489608,-0.008179,0.011108,-0.992371,0.113985,0.294962,-0.054656,47,277,591,6016
1644178242.538001,-0.008057,0.006836,-0.994385,0.144519,0.356031,-0.100458,53,283,590,5952
1644178242.586351,-0.009583,0.010803,-0.993042,0.190321,0.356031,-0.039389,53,279,587,5936
1644178242.635083,-0.010681,0.00946,-0.990967,0.35826,0.356031,-0.115725,41,276,578,5904
1644178242.684395,-0.008423,0.009338,-0.990417,0.236122,0.386565,-0.054656,47,268,586,5952
1644178242.735017,-0.009827,0.011047,-0.991821,0.297191,0.386565,-0.100458,51,279,587,6080
1644178242.784867,-0.007874,0.007874,-0.991333,0.373527,0.325496,0.006412,52,273,584,5984
1644178242.876765,-0.00769,0.010742,-0.993774,0.220855,0.310229,-0.085191,57,275,591,5984
1644178242.92539,-0.009766,0.011353,-0.992554,0.449863,0.279695,-0.054656,48,291,576,5952
1644178242.973536,-0.007507,0.00885,-0.993042,0.266656,0.356031,-0.085191,48,283,590,5952
1644178243.021942,-0.010437,0.009644,-0.994751,0.342992,0.340763,-0.192061,59,277,586,5984
1644178243.071912,-0.010742,0.009033,-0.991943,0.35826,0.462901,-0.222595,49,277,584,5984
1644178243.118684,-0.008972,0.009949,-0.991821,0.297191,0.417099,-0.054656,54,277,586,5984
1644178243.167051,-0.009033,0.009155,-0.991028,0.220855,0.478168,-0.176794,52,277,584,6048
1644178243.215468,-0.008301,0.010193,-0.993896,0.342992,0.401832,0.021679,47,282,584,5984
1644178243.263878,-0.010925,0.010315,-0.992493,0.220855,0.386565,-0.115725,42,280,584,5984
1644178243.312246,-0.011169,0.008118,-0.993103,0.220855,0.24916,-0.161527,49,280,577,6000
1644178243.360641,-0.008484,0.009155,-0.993835,0.205588,0.447634,-0.14626,40,285,584,5888
1644178243.409038,-0.008911,0.008423,-0.991882,0.327725,0.340763,-0.024122,52,270,584,5904
1644178243.457412,-0.009949,0.007935,-0.995483,0.098718,0.401832,-0.161527,54,270,586,6064
1644178243.505805,-0.009277,0.009094,-0.99231,0.266656,0.356031,0.006412,42,268,579,5952
1644178243.554215,-0.009583,0.012146,-0.992859,0.098718,0.417099,-0.207328,43,281,592,5984
1644178243.60259,-0.01178,0.008362,-0.994141,0.35826,0.417099,-0.176794,52,275,579,6000
1644178243.65099,-0.009827,0.008362,-0.991577,0.266656,0.432366,-0.130992,53,276,585,5984
1644178243.699388,-0.010437,0.008728,-0.991882,0.129252,0.340763,-0.100458,51,276,585,6064
1644178243.747762,-0.011597,0.008667,-0.991821,0.159786,0.462901,-0.054656,55,281,583,5952
1644178243.796281,-0.008911,0.010437,-0.991638,0.205588,0.356031,0.036947,46,281,578,6000
1644178243.847502,-0.011108,0.011475,-0.99231,0.266656,0.401832,0.036947,51,274,587,5904
1644178243.897819,-0.011414,0.007385,-0.994141,0.129252,0.310229,-0.069924,43,262,578,5952
1644178243.94242,-0.008911,0.005798,-0.992432,0.327725,0.310229,-0.054656,55,281,576,6048
1644178244.038177,-0.009888,0.011169,-0.991211,0.251389,0.310229,-0.069924,45,273,577,5984
1644178244.087046,-0.009644,0.006775,-0.992432,0.266656,0.386565,-0.14626,40,277,591,6016
1644178244.134912,-0.005737,0.006287,-0.990234,0.266656,0.325496,-0.130992,42,263,584,6048
1644178244.183328,-0.008667,0.007568,-0.992676,0.236122,0.401832,-0.069924,46,281,587,5952
1644178244.231696,-0.011292,0.007263,-0.99176,0.297191,0.478168,-0.008855,57,282,577,6000
1644178244.280101,-0.009399,0.009155,-0.990295,0.266656,0.264427,-0.100458,49,282,586,5984
1644178244.32848,-0.009277,0.009399,-0.990234,0.175053,0.523969,0.036947,49,277,591,5888
1644178244.376882,-0.006042,0.008423,-0.991943,0.159786,0.462901,-0.039389,51,274,587,6000
1644178244.425283,-0.008362,0.009216,-0.992493,0.312458,0.371298,-0.054656,59,265,575,5952
1644178244.473646,-0.007874,0.010986,-0.992188,0.342992,0.264427,-0.069924,52,277,589,6000
1644178244.522053,-0.011658,0.007874,-0.99054,0.113985,0.356031,-0.115725,49,275,586,6000
1644178244.570442,-0.010071,0.008728,-0.992249,0.175053,0.340763,-0.054656,55,286,573,6016
1644178244.618833,-0.010559,0.00769,-0.994019,0.342992,0.325496,-0.054656,40,270,586,5952
1644178244.667228,-0.011475,0.008118,-0.994019,0.327725,0.371298,-0.130992,43,276,594,6000
1644178244.715616,-0.011169,0.006897,-0.993408,0.190321,0.462901,-0.222595,53,274,580,5984
1644178244.764009,-0.009644,0.009033,-0.992737,0.190321,0.539237,-0.237863,47,280,596,5936
1644178244.812469,-0.009705,0.009766,-0.990662,0.205588,0.386565,-0.100458,47,270,586,5984
1644178244.861099,-0.007202,0.011414,-0.990356,0.190321,0.417099,-0.298931,43,279,594,5952
1644178244.909257,-0.010376,0.00769,-0.99115,0.251389,0.462901,-0.14626,58,266,587,5952
1644178244.959118,-0.007019,0.009888,-0.991333,0.08345,0.371298,-0.115725,40,268,589,5984
1644178245.066979,-0.009705,0.007202,-0.99176,0.342992,0.447634,-0.161527,46,283,583,5984
1644178245.103046,-0.009827,0.006348,-0.991943,0.297191,0.340763,-0.176794,47,273,584,5984
1644178245.151143,-0.007141,0.010254,-0.995422,0.175053,0.523969,-0.069924,52,273,579,6016
1644178245.199546,-0.009583,0.009888,-0.993286,0.175053,0.356031,-0.100458,53,279,580,5984
1644178245.247908,-0.00885,0.010437,-0.992798,0.297191,0.417099,-0.100458,52,277,596,6000
1644178245.296327,-0.006531,0.008728,-0.991577,0.236122,0.310229,-0.130992,47,277,577,5984
1644178245.34472,-0.009521,0.012207,-0.992249,0.159786,0.432366,-0.14626,52,290,589,5984
1644178245.393141,-0.012085,0.008728,-0.991638,0.220855,0.386565,-0.192061,58,281,601,6000
1644178245.441473,-0.010925,0.010559,-0.991699,0.144519,0.417099,-0.100458,53,274,590,5984
1644178245.489932,-0.008606,0.009644,-0.991028,0.037649,0.478168,-0.176794,51,286,585,5952
1644178245.538284,-0.01001,0.009155,-0.992126,0.236122,0.417099,-0.069924,52,273,579,5984
1644178245.586677,-0.011169,0.011414,-0.994873,0.129252,0.417099,-0.024122,57,275,584,5936
1644178245.635436,-0.013,0.009644,-0.993469,0.297191,0.417099,-0.039389,43,274,590,5984
1644178245.684482,-0.011902,0.007385,-0.993469,0.190321,0.478168,-0.054656,46,274,583,5952
1644178245.73487,-0.006958,0.009949,-0.995239,0.266656,0.371298,-0.161527,48,264,578,5984
1644178245.785043,-0.012573,0.008179,-0.990906,0.312458,0.508702,-0.207328,43,281,590,6000
1644178245.87708,-0.009766,0.008484,-0.992554,0.236122,0.401832,-0.14626,46,274,583,5936
1644178245.925453,-0.009155,0.009766,-0.994507,0.144519,0.447634,-0.161527,51,276,580,5952
1644178245.973858,-0.010376,0.009644,-0.993164,0.190321,0.310229,-0.039389,45,280,589,5936
1644178246.022417,-0.010742,0.007019,-0.990112,0.220855,0.356031,-0.085191,46,286,592,5888
1644178246.070721,-0.006409,0.009583,-0.991577,0.159786,0.523969,-0.100458,53,288,587,5888
1644178246.118946,-0.00824,0.004517,-0.990723,0.236122,0.432366,-0.100458,41,279,587,5984
1644178246.16737,-0.007812,0.008118,-0.993347,0.342992,0.432366,-0.069924,55,274,585,6016
1644178246.215756,-0.010376,0.011475,-0.992126,0.144519,0.356031,-0.069924,48,283,587,6000
1644178246.264174,-0.006836,0.008362,-0.993774,0.205588,0.417099,-0.054656,43,279,580,6016
1644178246.312545,-0.010132,0.010742,-0.991516,0.190321,0.600305,-0.069924,47,275,589,5952
1644178246.360954,-0.009338,0.008423,-0.991272,0.373527,0.325496,-0.130992,49,285,586,5984
1644178246.409343,-0.012268,0.010742,-0.993042,0.08345,0.432366,-0.130992,49,282,577,6080
1644178246.457731,-0.009644,0.009277,-0.991211,0.236122,0.447634,-0.115725,45,277,586,5984
1644178246.506094,-0.011414,0.009033,-0.991089,0.312458,0.356031,-0.115725,38,275,586,5984
1644178246.55451,-0.011169,0.008484,-0.990967,0.251389,0.447634,-0.283664,42,268,584,5984
1644178246.602926,-0.007629,0.01001,-0.993347,0.205588,0.371298,-0.039389,47,270,591,5952
1644178246.6513,-0.007202,0.011719,-0.991882,0.312458,0.417099,-0.237863,52,275,593,6016
1644178246.699696,-0.009521,0.010925,-0.994202,0.159786,0.417099,-0.100458,47,273,586,5952
1644178246.748056,-0.008423,0.010071,-0.992065,0.144519,0.432366,-0.161527,48,281,590,6048
1644178246.796566,-0.012756,0.007812,-0.993591,0.08345,0.417099,0.098015,52,273,582,6048
1644178246.84782,-0.01001,0.012207,-0.991211,0.068183,0.432366,-0.085191,57,277,591,5984
1644178246.898244,-0.011108,0.009094,-0.993835,0.236122,0.325496,-0.100458,49,275,575,5888
1644178246.942754,-0.008545,0.010071,-0.98999,0.251389,0.539237,-0.039389,53,286,585,6016
1644178247.038434,-0.010498,0.009033,-0.992126,0.190321,0.417099,0.036947,53,269,585,5984
1644178247.086915,-0.008301,0.009949,-0.994141,0.251389,0.294962,-0.054656,53,276,597,5984
1644178247.13577,-0.008545,0.009583,-0.992188,0.159786,0.294962,-0.085191,47,275,584,5952
1644178247.18359,-0.009888,0.011536,-0.988098,0.297191,0.325496,-0.100458,55,276,566,5904
1644178247.232005,-0.009094,0.009888,-0.992615,0.297191,0.462901,-0.115725,53,276,583,5984
1644178247.280375,-0.008545,0.009644,-0.992737,0.037649,0.417099,-0.207328,47,275,579,6048
1644178247.328785,-0.006836,0.007263,-0.99231,0.205588,0.340763,-0.237863,46,274,587,5952
1644178247.377174,-0.008667,0.007629,-0.995422,0.312458,0.447634,-0.176794,52,270,584,6016
1644178247.425581,-0.009644,0.008789,-0.993713,0.205588,0.218626,-0.054656,51,271,587,6016
1644178247.473956,-0.009827,0.006042,-0.991516,0.205588,0.294962,-0.039389,48,286,590,5952
1644178247.522338,-0.009216,0.013184,-0.992126,0.098718,0.478168,-0.085191,34,276,587,5984
1644178247.570748,-0.010986,0.00885,-0.989624,0.220855,0.432366,-0.161527,49,277,582,6000
1644178247.619137,-0.010681,0.009094,-0.993225,0.190321,0.447634,-0.14626,47,280,582,5936
1644178247.667528,-0.009277,0.008911,-0.992004,0.312458,0.432366,-0.039389,58,279,578,5984
1644178247.715927,-0.00885,0.00946,-0.993347,0.190321,0.340763,-0.25313,46,283,587,6016
1644178247.764316,-0.009277,0.010376,-0.993774,0.297191,0.24916,-0.14626,54,265,582,5904
1644178247.812724,-0.008789,0.007996,-0.990479,0.342992,0.539237,-0.161527,52,273,584,6000
1644178247.861151,-0.00769,0.008911,-0.99231,0.251389,0.325496,-0.100458,52,277,584,6000
1644178247.909552,-0.008423,0.006775,-0.991272,0.236122,0.157557,-0.192061,42,270,579,6016
1644178247.959026,-0.008728,0.012939,-0.992676,0.098718,0.432366,-0.054656,40,287,593,5952
1644178248.06451,-0.009521,0.00885,-0.990784,0.236122,0.279695,-0.192061,51,274,590,5984
1644178248.104943,-0.008606,0.009766,-0.992798,0.052916,0.356031,-0.237863,54,270,589,5984
1644178248.151456,-0.008728,0.008606,-0.992737,0.159786,0.432366,-0.008855,47,282,584,5984
1644178248.199843,-0.010132,0.01001,-0.993042,0.236122,0.508702,-0.222595,43,266,587,5936
1644178248.248218,-0.007935,0.010803,-0.992188,0.419328,0.356031,-0.115725,38,273,593,6000
1644178248.296622,-0.010132,0.010376,-0.991699,0.08345,0.340763,0.036947,48,276,580,6016
1644178248.345135,-0.007568,0.008423,-0.99292,0.236122,0.371298,-0.207328,54,275,589,6000
1644178248.39342,-0.008606,0.010132,-0.993103,0.236122,0.340763,-0.130992,53,271,585,6000
1644178248.441769,-0.007996,0.011047,-0.992249,0.236122,0.386565,-0.115725,45,282,584,5904
1644178248.490207,-0.011047,0.008728,-0.99292,0.266656,0.371298,-0.054656,51,281,583,6000
1644178248.538582,-0.010193,0.00708,-0.992004,0.220855,0.340763,-0.024122,47,285,586,5952
1644178248.586971,-0.008911,0.006348,-0.994019,0.281924,0.386565,-0.069924,46,274,599,6016
1644178248.635368,-0.009521,0.008179,-0.994934,0.190321,0.310229,-0.130992,47,270,591,5904
1644178248.683762,-0.007874,0.010132,-0.992615,0.175053,0.310229,-0.008855,47,270,584,5984
1644178248.73223,-0.011414,0.010071,-0.990906,0.266656,0.325496,-0.237863,42,268,589,5904
1644178248.782913,-0.010193,0.007812,-0.990662,0.175053,0.539237,-0.039389,46,281,580,5952
1644178248.833233,-0.00824,0.00946,-0.993164,0.220855,0.432366,-0.207328,59,270,593,5872
1644178248.878663,-0.010742,0.008118,-0.991516,0.281924,0.325496,-0.100458,59,268,593,5952
1644178248.974123,-0.012024,0.008301,-0.993835,0.144519,0.310229,-0.100458,49,270,600,5984
1644178249.022574,-0.008606,0.008484,-0.990662,0.190321,0.401832,-0.085191,40,273,593,5936
1644178249.072272,-0.008606,0.008606,-0.991943,0.175053,0.478168,-0.176794,47,275,589,5904
1644178249.119277,-0.009338,0.00885,-0.993103,0.35826,0.371298,-0.14626,38,280,586,5952
1644178249.167679,-0.009521,0.008423,-0.992737,0.281924,0.432366,-0.024122,48,279,580,6000
1644178249.216089,-0.01239,0.010742,-0.99231,0.327725,0.371298,-0.054656,57,275,586,5952
1644178249.264491,-0.008545,0.010437,-0.991638,0.266656,0.294962,-0.115725,47,275,586,5984
1644178249.312886,-0.006958,0.01062,-0.990601,0.129252,0.417099,-0.039389,54,277,577,5904
1644178249.36128,-0.009766,0.010559,-0.994263,0.373527,0.432366,-0.192061,53,269,585,6000
1644178249.409677,-0.009094,0.008606,-0.991089,0.236122,0.401832,-0.25313,47,287,579,6016
1644178249.458068,-0.010864,0.007202,-0.989319,0.220855,0.417099,-0.039389,36,279,590,5952
1644178249.506454,-0.009033,0.008118,-0.992126,0.312458,0.432366,-0.039389,43,279,578,6000
1644178249.554869,-0.009949,0.012451,-0.992126,0.052916,0.417099,0.052214,54,277,596,5984
1644178249.603256,-0.008484,0.010315,-0.992981,0.297191,0.325496,0.006412,47,277,582,5952
1644178249.651638,-0.006897,0.008057,-0.99115,0.266656,0.294962,-0.192061,46,281,601,6000
1644178249.700035,-0.009583,0.012085,-0.992432,0.220855,0.447634,-0.054656,53,281,590,6016
1644178249.748395,-0.010254,0.007263,-0.99292,0.251389,0.478168,-0.222595,53,288,587,5984
1644178249.797202,-0.009705,0.011353,-0.991699,0.251389,0.310229,-0.039389,48,271,587,5984
1644178249.84525,-0.011719,0.008789,-0.992432,0.113985,0.417099,-0.054656,55,279,587,5904
1644178249.895517,-0.009827,0.00885,-0.994995,0.190321,0.462901,-0.130992,48,276,587,6000
1644178249.945286,-0.009155,0.005676,-0.990295,0.175053,0.432366,-0.14626,52,273,586,5984
1644178249.995557,-0.010376,0.008484,-0.992432,0.129252,0.371298,-0.024122,38,273,584,5984
1644178250.087262,-0.009888,0.009094,-0.992798,0.220855,0.417099,-0.237863,59,270,586,5984
1644178250.135509,-0.010376,0.009583,-0.990234,0.190321,0.478168,-0.222595,58,281,576,6016
1644178250.183919,-0.00708,0.010254,-0.992798,0.266656,0.294962,-0.085191,48,266,587,5952
1644178250.23233,-0.010437,0.007812,-0.993103,0.159786,0.340763,-0.207328,47,270,579,5984
1644178250.280676,-0.005981,0.009705,-0.99231,0.297191,0.371298,-0.161527,53,283,585,5984
1644178250.329096,-0.011047,0.006592,-0.993408,0.220855,0.462901,-0.008855,52,275,584,5952
1644178250.377487,-0.011169,0.008728,-0.993225,0.342992,0.371298,0.052214,57,270,584,5952
1644178250.425872,-0.008728,0.008301,-0.99176,0.190321,0.508702,-0.130992,48,276,590,5952
1644178250.47423,-0.009094,0.010498,-0.993164,0.052916,0.356031,-0.085191,45,275,584,6016
1644178250.522694,-0.009094,0.00946,-0.991455,0.129252,0.447634,-0.085191,47,273,589,5936
1644178250.571048,-0.010132,0.010315,-0.992676,0.068183,0.539237,-0.222595,49,290,589,6000
1644178250.619459,-0.009277,0.009827,-0.988892,0.419328,0.264427,-0.14626,48,274,590,5952
1644178250.667839,-0.010193,0.00946,-0.991028,0.35826,0.264427,-0.14626,42,270,570,5936
1644178250.716475,-0.007996,0.008789,-0.993164,0.205588,0.386565,-0.130992,53,271,590,6000
1644178250.76702,-0.00885,0.010193,-0.994141,0.251389,0.264427,-0.054656,46,274,587,6000
1644178250.818306,-0.010193,0.008423,-0.992249,0.251389,0.417099,-0.039389,47,270,582,5936
1644178250.862571,-0.007568,0.007751,-0.993225,0.144519,0.493435,0.036947,41,279,585,6048
1644178250.958189,-0.007446,0.010498,-0.992798,0.144519,0.432366,-0.14626,48,271,590,6000
1644178251.006595,-0.009277,0.011658,-0.992493,0.251389,0.386565,-0.161527,45,277,577,5936
1644178251.064061,-0.010803,0.007385,-0.995483,0.419328,0.371298,-0.176794,55,262,587,6080
1644178251.105056,-0.010986,0.007507,-0.988464,0.159786,0.386565,-0.039389,46,281,583,5952
1644178251.151748,-0.012329,0.009827,-0.993713,0.236122,0.386565,-0.039389,47,270,579,5984
1644178251.200147,-0.007629,0.007446,-0.993713,0.175053,0.310229,-0.161527,46,276,578,6016
1644178251.248515,-0.011841,0.008057,-0.99292,0.35826,0.462901,-0.069924,45,285,586,5984
1644178251.296927,-0.006592,0.011169,-0.991577,0.144519,0.401832,-0.024122,45,277,572,6048
1644178251.345298,-0.01178,0.005005,-0.992554,0.129252,0.462901,0.098015,51,276,585,5984
1644178251.393719,-0.014465,0.007935,-0.992676,0.220855,0.401832,-0.161527,54,280,591,5936
1644178251.442086,-0.009094,0.008484,-0.991272,0.266656,0.462901,-0.024122,41,271,576,5952
1644178251.49051,-0.006714,0.009521,-0.994385,0.190321,0.294962,-0.054656,57,280,589,6016
1644178251.53889,-0.010742,0.007935,-0.99353,0.236122,0.401832,-0.14626,64,277,589,5984
1644178251.587245,-0.011414,0.01062,-0.994263,0.098718,0.432366,-0.14626,51,286,578,5984
1644178251.635671,-0.009277,0.009338,-0.99176,0.205588,0.386565,-0.100458,58,274,592,5952
1644178251.684059,-0.011414,0.01178,-0.993469,0.312458,0.356031,-0.024122,51,262,580,5952
1644178251.732654,-0.009399,0.010864,-0.990723,0.190321,0.539237,-0.14626,54,277,586,5936
1644178251.782187,-0.009033,0.009521,-0.994446,0.281924,0.371298,-0.115725,55,271,587,6000
1644178251.834308,-0.010315,0.010254,-0.994812,0.297191,0.371298,-0.14626,49,280,596,5984
1644178251.87787,-0.008911,0.011414,-0.99231,0.175053,0.356031,-0.14626,60,283,580,6000
1644178251.974504,-0.010132,0.007935,-0.99292,0.220855,0.417099,0.082748,42,277,579,5984
1644178252.022856,-0.00647,0.011475,-0.992371,0.205588,0.554504,-0.130992,48,279,592,5984
1644178252.071306,-0.010193,0.010376,-0.992004,0.220855,0.356031,-0.024122,55,269,590,5904
1644178252.119573,-0.009155,0.010254,-0.990967,0.220855,0.478168,-0.024122,57,280,584,5952
1644178252.167974,-0.008057,0.008423,-0.991211,0.08345,0.340763,-0.024122,47,277,582,6016
1644178252.216342,-0.010498,0.011841,-0.995483,0.266656,0.386565,-0.115725,48,269,578,6048
1644178252.264773,-0.008301,0.010193,-0.992188,0.327725,0.371298,-0.085191,45,270,582,6016
1644178252.313136,-0.008667,0.009033,-0.99353,0.022382,0.371298,0.021679,58,283,590,5984
1644178252.361541,-0.014465,0.009766,-0.992371,0.129252,0.24916,-0.039389,52,280,577,6000
1644178252.409933,-0.010315,0.00592,-0.993469,0.098718,0.478168,-0.130992,53,271,578,5984
1644178252.458338,-0.009705,0.010925,-0.991943,0.190321,0.325496,-0.100458,53,269,587,6000
1644178252.506701,-0.009583,0.008484,-0.994263,0.35826,0.508702,-0.130992,43,283,585,5952
1644178252.55522,-0.009155,0.009216,-0.99408,0.342992,0.417099,-0.298931,54,273,584,5952
1644178252.603526,-0.011169,0.007507,-0.992859,0.113985,0.478168,-0.100458,49,280,579,5952
1644178252.65189,-0.011108,0.008362,-0.991516,0.098718,0.478168,-0.069924,49,287,586,5984
1644178252.700298,-0.007141,0.009094,-0.993652,0.342992,0.493435,-0.207328,55,274,580,5984
1644178252.748687,-0.00647,0.010498,-0.993958,0.220855,0.218626,-0.008855,51,283,580,6016
1644178252.797073,-0.012024,0.007874,-0.992065,0.205588,0.340763,-0.024122,47,270,591,5984
1644178252.845613,-0.010681,0.009033,-0.992554,0.190321,0.447634,-0.192061,48,281,585,5984
1644178252.89473,-0.010559,0.009399,-0.994446,0.129252,0.401832,-0.100458,45,280,591,5904
1644178252.944873,-0.011353,0.010803,-0.991394,0.220855,0.417099,0.12855,45,282,589,5984
1644178252.995811,-0.008911,0.009766,-0.992615,0.236122,0.462901,-0.054656,45,280,577,5984
1644178253.041318,-0.008423,0.010071,-0.99231,0.052916,0.310229,-0.283664,45,287,584,6016
1644178253.13588,-0.023438,0.001404,-0.991333,0.266656,0.478168,0.021679,51,279,585,5952
1644178253.184217,-0.019958,-0.000427,-0.99176,-0.267695,0.111756,0.143817,51,274,587,6016
1644178253.232616,-0.006348,0.006897,-0.995544,0.281924,0.356031,-0.054656,59,280,577,6000
1644178253.280967,-0.020874,0.014221,-0.988281,0.022382,0.340763,-0.192061,48,276,587,6000
1644178253.32936,-0.006348,0.013184,-0.993408,0.205588,0.279695,-0.085191,48,264,580,5984
1644178253.377765,-0.008911,0.00824,-0.993774,0.327725,0.371298,-0.161527,51,276,585,6016
1644178253.426168,-0.012573,0.011414,-0.990784,0.251389,0.203359,-0.115725,53,274,585,5984
1644178253.474547,-0.008667,0.008179,-0.993774,0.266656,0.310229,-0.008855,47,265,591,5952
1644178253.522969,-0.009277,0.007812,-0.99115,0.205588,0.401832,-0.100458,51,281,585,5984
1644178253.571348,-0.011047,0.012573,-0.990967,0.037649,0.325496,-0.176794,53,276,592,6016
1644178253.619743,-0.009277,0.010071,-0.990967,0.327725,0.585038,-0.100458,54,280,582,6000
1644178253.668139,-0.010986,0.010376,-0.990112,0.236122,0.279695,-0.130992,46,276,578,5952
1644178253.716527,-0.008667,0.012146,-0.990967,0.129252,0.432366,-0.069924,46,276,585,5984
1644178253.764908,-0.007874,0.006653,-0.993347,0.175053,0.462901,-0.008855,51,279,594,5984
1644178253.813316,-0.008362,0.008789,-0.993774,0.251389,0.478168,-0.008855,55,276,585,6048
1644178253.861729,-0.009705,0.012207,-0.992126,0.373527,0.371298,-0.039389,49,287,589,5984
1644178253.910102,-0.010193,0.007324,-0.992554,0.175053,0.401832,-0.14626,58,266,587,6016
1644178253.958521,-0.010193,0.009216,-0.98999,0.281924,0.417099,-0.192061,47,268,584,5904
1644178254.006937,-0.010071,0.009766,-0.994141,0.297191,0.523969,-0.161527,53,279,576,5984
1644178254.077049,-0.010437,0.010559,-0.990723,0.068183,0.325496,0.036947,48,288,587,5952
1644178254.115254,-0.008789,0.012695,-0.990173,0.312458,0.401832,-0.14626,46,266,597,5984
1644178254.157756,-0.010071,0.009888,-0.993286,0.129252,0.447634,-0.115725,53,274,592,5984
1644178254.201523,-0.008362,0.00647,-0.989685,0.098718,0.340763,-0.054656,43,276,587,5952
1644178254.297201,-0.009766,0.008545,-0.992493,0.159786,0.279695,-0.008855,40,277,589,5904
1644178254.345592,-0.009399,0.009766,-0.990356,0.236122,0.417099,0.006412,49,275,589,5952
1644178254.394011,-0.00708,0.011658,-0.990662,0.251389,0.371298,-0.100458,47,277,596,5952
1644178254.442407,-0.011536,0.009705,-0.992249,0.159786,0.401832,-0.161527,43,274,571,5952
1644178254.490805,-0.010559,0.007935,-0.99231,0.205588,0.478168,-0.024122,53,279,585,5888
1644178254.539174,-0.01001,0.006226,-0.992188,0.266656,0.325496,-0.222595,43,266,576,5984
1644178254.587569,-0.01001,0.008606,-0.992981,0.266656,0.417099,-0.192061,57,265,586,5904
1644178254.635947,-0.010498,0.009949,-0.990417,0.159786,0.325496,-0.176794,57,273,577,5936
1644178254.68435,-0.007874,0.00885,-0.992615,0.236122,0.356031,-0.100458,48,281,576,5984
1644178254.732754,-0.008423,0.008179,-0.993591,-0.008153,0.508702,-0.024122,55,276,576,5952
1644178254.781136,-0.006104,0.007324,-0.991028,0.129252,0.523969,-0.100458,42,280,577,5984
1644178254.82953,-0.009521,0.009766,-0.989929,0.251389,0.294962,-0.085191,43,283,585,5984
1644178254.877974,-0.007446,0.008484,-0.993103,0.266656,0.462901,-0.069924,54,285,591,5984
1644178254.92636,-0.00946,0.009277,-0.991089,0.190321,0.24916,-0.14626,58,269,583,6016
1644178254.974764,-0.009705,0.007385,-0.993652,0.251389,0.523969,-0.192061,62,262,583,5984
1644178255.023167,-0.012756,0.008789,-0.99408,0.205588,0.371298,-0.344733,38,282,586,5952
1644178255.084092,-0.007751,0.010864,-0.991211,0.190321,0.462901,-0.115725,51,283,583,5872
1644178255.123266,-0.010315,0.011902,-0.990662,0.327725,0.493435,-0.024122,55,266,592,6064
1644178255.173202,-0.009583,0.009644,-0.992371,0.449863,0.294962,-0.115725,46,271,583,6016
1644178255.217485,-0.007812,0.008057,-0.991089,0.052916,0.356031,-0.054656,54,275,593,5984
1644178255.313462,-0.011963,0.009583,-0.991821,0.266656,0.371298,-0.100458,52,275,579,5984
1644178255.361855,-0.007385,0.009705,-0.991455,0.236122,0.356031,-0.039389,57,270,584,5984
1644178255.410237,-0.011169,0.009644,-0.990479,0.144519,0.462901,-0.054656,52,277,579,6048
1644178255.458627,-0.009827,0.011597,-0.992126,0.190321,0.417099,-0.237863,49,265,584,5984
1644178255.507008,-0.011475,0.008728,-0.992981,0.205588,0.417099,-0.069924,43,283,587,5984
1644178255.555423,-0.011108,0.010193,-0.993164,0.113985,0.417099,-0.039389,47,273,579,6000
1644178255.603818,-0.008423,0.007996,-0.993896,0.220855,0.310229,0.006412,51,271,583,6016
1644178255.652225,-0.009766,0.010681,-0.993164,0.297191,0.401832,-0.008855,48,279,585,6064
1644178255.700567,-0.008728,0.009033,-0.990967,0.205588,0.401832,-0.008855,40,290,572,5936
1644178255.748952,-0.008423,0.009949,-0.991638,0.236122,0.371298,-0.130992,53,279,583,5936
1644178255.797377,-0.007019,0.010498,-0.990784,0.022382,0.310229,-0.100458,54,277,586,6000
1644178255.845766,-0.009399,0.012268,-0.99231,0.342992,0.417099,-0.115725,51,276,585,6000
1644178255.894226,-0.006775,0.007263,-0.992249,0.205588,0.432366,-0.085191,51,269,569,5936
1644178255.942611,-0.010376,0.009399,-0.994019,0.251389,0.462901,-0.115725,52,282,577,5984
1644178255.990977,-0.01001,0.007446,-0.992981,0.205588,0.539237,0.052214,46,279,590,5952
1644178256.039382,-0.011169,0.008545,-0.993164,0.205588,0.356031,-0.207328,53,276,587,5872
1644178256.093667,-0.009338,0.008057,-0.99292,0.175053,0.401832,0.036947,54,268,589,5952
1644178256.136139,-0.011414,0.009949,-0.992371,0.129252,0.340763,-0.14626,54,270,593,6048
1644178256.185473,-0.008423,0.00824,-0.992188,0.236122,0.340763,-0.115725,43,274,583,5984
1644178256.235705,-0.008118,0.01062,-0.992615,0.266656,0.310229,-0.176794,55,276,587,5952
1644178256.286178,-0.00946,0.007629,-0.990417,0.266656,0.356031,-0.207328,43,269,580,5952
1644178256.330636,-0.006409,0.008301,-0.991333,0.327725,0.493435,0.052214,41,266,573,5904
1644178256.426497,-0.010376,0.008179,-0.990479,0.327725,0.417099,-0.207328,53,276,578,5936
1644178256.474911,-0.01001,0.011047,-0.993347,0.266656,0.493435,-0.161527,52,273,589,6000
1644178256.523309,-0.009521,0.010986,-0.991821,0.190321,0.417099,-0.161527,57,277,568,5984
1644178256.571693,-0.009766,0.009705,-0.990417,0.190321,0.386565,-0.115725,47,270,582,5984
1644178256.620078,-0.012329,0.008057,-0.994141,0.281924,0.264427,-0.237863,53,271,587,5984
1644178256.668473,-0.010681,0.008484,-0.993896,0.236122,0.432366,-0.100458,49,280,577,5936
1644178256.716838,-0.008545,0.011475,-0.992859,0.08345,0.462901,-0.069924,47,290,596,6016
1644178256.765315,-0.007507,0.008118,-0.988464,0.236122,0.417099,-0.100458,47,277,586,5952
1644178256.813645,-0.009277,0.011841,-0.990173,0.251389,0.218626,-0.054656,51,269,578,5984
1644178256.862046,-0.010254,0.008667,-0.991211,0.312458,0.508702,-0.237863,55,271,583,6000
1644178256.910423,-0.009583,0.009033,-0.992676,0.236122,0.539237,-0.039389,54,270,572,5952
1644178256.958832,-0.009705,0.007996,-0.99115,0.220855,0.340763,-0.161527,54,275,572,5984
1644178257.00719,-0.01178,0.009827,-0.992126,0.205588,0.417099,-0.039389,49,285,582,6000
1644178257.069185,-0.010437,0.009216,-0.992188,0.266656,0.218626,-0.085191,51,281,585,5984
1644178257.105787,-0.010254,0.008789,-0.994812,0.190321,0.478168,-0.192061,47,277,591,5952
1644178257.152357,-0.010986,0.006775,-0.99231,0.251389,0.325496,-0.085191,58,271,590,5984
1644178257.200735,-0.009033,0.007874,-0.991028,0.312458,0.386565,-0.207328,51,279,580,5984
1644178257.249103,-0.009705,0.011292,-0.990234,0.205588,0.356031,-0.130992,57,285,591,6064
1644178257.297836,-0.005188,0.008484,-0.991455,0.175053,0.417099,-0.100458,52,270,579,6000
1644178257.346899,-0.009521,0.00885,-0.990051,0.251389,0.539237,-0.115725,53,274,585,5904
1644178257.397512,-0.011353,0.013062,-0.992493,0.205588,0.279695,-0.161527,54,270,575,6016
1644178257.447617,-0.010315,0.009888,-0.991699,0.205588,0.432366,-0.039389,41,279,585,6048
1644178257.5395,-0.009949,0.011963,-0.992554,0.190321,0.432366,-0.161527,49,275,579,5984
1644178257.587867,-0.007996,0.008545,-0.990601,0.266656,0.401832,-0.192061,40,275,589,5904
1644178257.636256,-0.008057,0.009399,-0.989807,0.175053,0.340763,-0.130992,53,279,580,6016
1644178257.684861,-0.009949,0.011719,-0.993286,0.220855,0.493435,-0.14626,48,279,583,6016
1644178257.733058,-0.01062,0.00946,-0.991089,0.404061,0.417099,-0.115725,54,280,575,5952
1644178257.781439,-0.007812,0.008545,-0.992004,0.098718,0.401832,-0.222595,48,283,585,5952
1644178257.829892,-0.009644,0.008545,-0.991638,0.373527,0.371298,-0.283664,59,277,575,6000
1644178257.878269,-0.009155,0.009766,-0.992249,0.144519,0.24916,-0.14626,55,274,592,5984
1644178257.926661,-0.010864,0.010315,-0.992188,0.205588,0.371298,-0.176794,49,263,579,5952
1644178257.975202,-0.00824,0.011292,-0.99054,0.251389,0.340763,-0.268397,59,273,586,5936
1644178258.023463,-0.007874,0.009277,-0.993286,0.297191,0.172824,-0.054656,52,280,582,6016
1644178258.073367,-0.011047,0.009094,-0.99176,0.159786,0.417099,-0.039389,48,281,585,5888
1644178258.120189,-0.008728,0.007446,-0.993896,0.205588,0.539237,-0.069924,51,281,580,5952
1644178258.168586,-0.008179,0.007507,-0.993042,0.129252,0.569771,-0.161527,49,268,582,5952
1644178258.21697,-0.008118,0.010498,-0.993347,0.266656,0.371298,-0.222595,49,280,589,5952
1644178258.265363,-0.01123,0.007629,-0.990845,0.190321,0.279695,-0.207328,45,275,582,5904
1644178258.313755,-0.006958,0.009338,-0.990723,0.251389,0.417099,-0.192061,43,281,585,6016
1644178258.362162,-0.010559,0.009949,-0.990845,0.281924,0.24916,0.006412,49,277,579,5936
1644178258.410542,-0.009949,0.00946,-0.99231,0.266656,0.401832,-0.039389,53,274,585,6000
1644178258.459233,-0.009644,0.009766,-0.991516,0.205588,0.294962,-0.14626,52,270,582,5952
1644178258.509607,-0.009705,0.012085,-0.990051,0.220855,0.432366,-0.130992,45,277,586,5984
1644178258.559974,-0.010315,0.010742,-0.992188,0.236122,0.325496,-0.268397,45,268,586,6048
1644178258.604947,-0.009766,0.010925,-0.991333,0.236122,0.294962,-0.14626,48,279,585,5984
1644178258.700891,-0.007996,0.009521,-0.992249,0.175053,0.294962,-0.115725,61,273,579,5984
1644178258.749272,-0.009155,0.010254,-0.996399,0.297191,0.371298,-0.008855,45,275,584,6000
1644178258.797682,-0.007507,0.007629,-0.989624,0.190321,0.340763,-0.14626,55,279,587,5952
1644178258.846102,-0.006409,0.009033,-0.99292,0.159786,0.310229,-0.115725,52,270,579,6000
1644178258.894522,-0.005127,0.007568,-0.991089,0.113985,0.386565,-0.069924,54,270,577,6016
1644178258.942916,-0.010071,0.012207,-0.992004,0.404061,0.508702,-0.130992,60,283,580,5952
1644178258.991325,-0.006836,0.011047,-0.993164,0.007115,0.371298,-0.054656,47,282,586,5952
1644178259.039687,-0.009827,0.011169,-0.992798,0.08345,0.401832,-0.207328,46,274,587,5936
1644178259.093878,-0.010071,0.010986,-0.992737,0.327725,0.371298,-0.039389,51,269,580,5952
1644178259.136401,-0.011963,0.00885,-0.9953,0.266656,0.371298,-0.039389,45,275,579,5952
1644178259.184828,-0.006592,0.012512,-0.990479,0.175053,0.493435,-0.176794,54,275,584,5904
1644178259.233206,-0.006226,0.009338,-0.989258,0.205588,0.371298,-0.054656,55,281,583,5872
1644178259.281578,-0.010254,0.012268,-0.992065,0.251389,0.371298,-0.085191,55,283,585,5936
1644178259.329989,-0.010498,0.009766,-0.993469,0.373527,0.386565,-0.176794,51,271,583,5984
1644178259.378392,-0.010315,0.01123,-0.991272,0.297191,0.356031,-0.130992,64,275,575,5952
1644178259.426797,-0.010315,0.011108,-0.993958,0.159786,0.539237,-0.054656,48,279,583,6016
1644178259.476542,-0.008484,0.008911,-0.992004,0.190321,0.401832,-0.069924,52,275,582,6000
1644178259.526922,-0.008545,0.009277,-0.993835,0.342992,0.478168,-0.161527,41,281,583,6000
1644178259.577255,-0.006287,0.008484,-0.993225,0.144519,0.340763,-0.100458,47,277,589,5984
1644178259.668742,-0.009766,0.012146,-0.990967,0.281924,0.478168,-0.069924,53,276,580,5888
1644178259.717097,-0.007324,0.010132,-0.992004,0.08345,0.264427,-0.054656,54,270,579,6000
1644178259.765501,-0.009766,0.010559,-0.991089,0.190321,0.478168,-0.100458,48,279,587,5936
1644178259.81394,-0.010315,0.009216,-0.993958,0.297191,0.523969,-0.237863,45,270,584,5984
1644178259.862354,-0.007751,0.01062,-0.992493,0.068183,0.356031,-0.207328,47,270,586,5904
1644178259.910736,-0.01062,0.009888,-0.992371,0.190321,0.218626,-0.283664,45,273,591,5984
1644178259.959116,-0.008667,0.009888,-0.990417,0.297191,0.523969,-0.054656,49,273,584,5952
1644178260.007522,-0.007751,0.008179,-0.992004,0.159786,0.24916,-0.283664,47,287,589,6000
1644178260.067755,-0.008911,0.00824,-0.992981,0.08345,0.371298,-0.176794,53,271,594,5936
1644178260.104289,-0.011292,0.009033,-0.992188,0.266656,0.356031,-0.222595,45,273,589,6000
1644178260.152658,-0.008911,0.007996,-0.993225,0.266656,0.371298,-0.237863,45,280,584,6016
1644178260.201005,-0.00885,0.012329,-0.991821,0.205588,0.462901,-0.115725,43,271,585,6016
1644178260.249439,-0.010925,0.011536,-0.991455,0.281924,0.401832,-0.130992,47,277,584,5984
1644178260.297804,-0.008972,0.007996,-0.995483,0.297191,0.356031,-0.161527,46,276,587,5984
1644178260.346224,-0.010132,0.00769,-0.992371,0.266656,0.432366,-0.130992,53,274,580,6016
1644178260.394665,-0.008057,0.007202,-0.99292,0.236122,0.523969,-0.161527,52,275,589,5952
1644178260.443012,-0.007507,0.007874,-0.991638,0.251389,0.447634,-0.130992,45,282,584,5984
1644178260.491773,-0.008667,0.008057,-0.99176,0.251389,0.417099,-0.14626,51,279,587,5984
1644178260.539787,-0.008667,0.008301,-0.991028,0.190321,0.447634,-0.207328,57,270,582,6064
1644178260.58834,-0.009155,0.011108,-0.99231,0.220855,0.508702,-0.283664,53,269,580,6000
1644178260.638759,-0.009155,0.010071,-0.991699,0.236122,0.386565,-0.100458,53,271,578,6016
1644178260.688964,-0.012512,0.010681,-0.990845,0.342992,0.417099,-0.100458,48,279,583,6016
1644178260.734087,-0.009766,0.006226,-0.992004,0.236122,0.401832,-0.024122,51,271,578,6016
1644178260.830115,-0.009949,0.008667,-0.992004,0.205588,0.417099,-0.039389,45,265,582,5984
1644178260.878565,-0.006165,0.006836,-0.993286,0.266656,0.356031,-0.161527,51,276,580,6000
1644178260.926962,-0.010498,0.009705,-0.991272,0.251389,0.432366,-0.024122,49,277,577,5952
1644178260.97535,-0.009888,0.00885,-0.99292,0.388794,0.478168,-0.069924,52,277,577,6000
1644178261.023752,-0.00769,0.008972,-0.989258,0.251389,0.340763,-0.024122,54,280,582,5952
1644178261.076795,-0.008118,0.008606,-0.994385,0.220855,0.478168,-0.069924,51,286,587,5952
1644178261.12051,-0.008606,0.011597,-0.991028,0.190321,0.523969,-0.039389,47,277,584,5952
1644178261.168886,-0.010437,0.009399,-0.989075,0.098718,0.340763,-0.024122,35,270,575,5984
1644178261.217274,-0.008179,0.009827,-0.991699,0.281924,0.401832,-0.085191,55,276,580,5984
1644178261.265642,-0.008057,0.009399,-0.991455,0.190321,0.310229,-0.039389,55,279,585,5904
1644178261.31406,-0.009155,0.009338,-0.990784,0.175053,0.356031,-0.069924,46,276,590,5984
1644178261.362469,-0.008667,0.009033,-0.991394,0.205588,0.340763,-0.024122,55,279,583,5984
1644178261.410848,-0.008911,0.008789,-0.992737,0.312458,0.386565,-0.283664,39,271,587,5936
1644178261.459206,-0.010803,0.009338,-0.993652,0.08345,0.432366,-0.192061,53,281,587,5984
1644178261.507607,-0.009521,0.009705,-0.99054,0.251389,0.432366,-0.054656,53,286,592,5936
1644178261.55602,-0.008423,0.009827,-0.992371,0.251389,0.340763,-0.222595,47,287,589,5984
1644178261.604404,-0.009827,0.007629,-0.991516,0.220855,0.340763,-0.222595,42,287,586,6016
1644178261.652814,-0.009766,0.012512,-0.990601,0.159786,0.310229,0.006412,45,290,582,6000
1644178261.701191,-0.009277,0.008789,-0.992859,0.220855,0.371298,0.021679,61,268,589,5952
1644178261.749814,-0.011658,0.008545,-0.992615,0.144519,0.493435,-0.100458,58,274,578,5888
1644178261.800326,-0.007996,0.009644,-0.991089,0.419328,0.310229,-0.100458,51,271,580,5952
1644178261.851493,-0.007385,0.011414,-0.993652,0.205588,0.386565,-0.115725,52,268,584,5984
1644178261.896027,-0.007935,0.010071,-0.98938,0.190321,0.432366,-0.100458,51,281,597,6016
1644178261.99158,-0.011108,0.010681,-0.993835,0.113985,0.325496,-0.130992,46,276,585,5904
1644178262.039977,-0.007874,0.007629,-0.992065,0.08345,0.310229,-0.085191,53,274,578,5952
1644178262.091916,-0.007141,0.00769,-0.990967,0.205588,0.447634,-0.039389,46,279,580,5984
1644178262.136744,-0.011353,0.011841,-0.989929,0.068183,0.432366,0.021679,49,282,586,5936
1644178262.185145,-0.010864,0.008301,-0.99408,0.220855,0.417099,-0.024122,58,276,583,6064
1644178262.233505,-0.010315,0.007324,-0.99231,0.205588,0.432366,-0.176794,48,286,583,6016
1644178262.281881,-0.011047,0.010254,-0.991882,0.297191,0.386565,-0.039389,54,277,589,5952
1644178262.330303,-0.008606,0.00769,-0.992065,0.052916,0.371298,-0.176794,54,263,575,6016
1644178262.378678,-0.011047,0.009033,-0.993286,0.404061,0.478168,-0.176794,47,268,579,6000
1644178262.427077,-0.010742,0.008423,-0.991394,0.190321,0.279695,-0.130992,54,273,586,5952
1644178262.475459,-0.008911,0.007568,-0.990723,0.068183,0.371298,-0.161527,55,281,585,6016
1644178262.523875,-0.009583,0.00824,-0.992249,0.129252,0.371298,-0.14626,42,275,593,5952
1644178262.572275,-0.011902,0.00885,-0.994934,0.220855,0.371298,-0.085191,47,280,582,5936
1644178262.620634,-0.007874,0.007996,-0.991821,0.113985,0.264427,-0.069924,49,280,593,5952
1644178262.669037,-0.012817,0.011047,-0.992737,0.327725,0.340763,-0.25313,38,268,582,5984
1644178262.717395,-0.010925,0.008179,-0.992432,0.312458,0.447634,0.006412,46,286,578,5984
1644178262.765821,-0.009094,0.009216,-0.992981,0.327725,0.264427,-0.054656,54,282,591,6000
1644178262.814213,-0.011169,0.009094,-0.993652,0.220855,0.401832,-0.024122,42,277,579,5952
1644178262.862681,-0.006897,0.009583,-0.990662,0.205588,0.264427,-0.130992,41,281,583,6064
1644178262.912532,-0.010559,0.009888,-0.991272,0.190321,0.539237,0.006412,58,283,576,5984
1644178262.96348,-0.007568,0.007202,-0.995178,0.281924,0.508702,-0.069924,49,275,584,6000
1644178263.072532,-0.009766,0.008911,-0.989624,0.236122,0.462901,0.021679,55,271,585,5984
1644178263.106378,-0.013672,0.010925,-0.99054,0.281924,0.401832,-0.054656,45,282,589,5984
1644178263.153009,-0.007629,0.009827,-0.992004,0.266656,0.401832,-0.100458,46,271,587,5952
1644178263.201349,-0.007019,0.01062,-0.990784,0.205588,0.462901,-0.024122,42,275,584,6000
1644178263.249743,-0.012329,0.007874,-0.995178,0.404061,0.432366,-0.115725,64,275,584,6016
1644178263.298128,-0.008362,0.007874,-0.987122,0.404061,0.310229,-0.008855,61,273,589,6016
1644178263.346487,-0.011047,0.008789,-0.993408,0.281924,0.279695,-0.14626,43,283,585,5952
1644178263.394902,-0.011169,0.007935,-0.989746,0.342992,0.264427,-0.130992,54,277,589,6000
1644178263.443312,-0.011658,0.010864,-0.991455,0.205588,0.356031,-0.008855,54,277,589,5904
1644178263.492535,-0.011597,0.008606,-0.99176,0.159786,0.462901,-0.161527,58,283,587,6000
1644178263.543496,-0.00708,0.010193,-0.99115,0.297191,0.569771,-0.115725,54,282,589,5984
1644178263.593276,-0.008911,0.010681,-0.991211,0.312458,0.432366,-0.176794,47,268,591,5952
1644178263.638223,-0.007385,0.008179,-0.992554,0.342992,0.432366,-0.039389,49,270,582,6016
1644178263.733672,-0.010376,0.007996,-0.991577,0.266656,0.340763,-0.14626,43,274,580,6000
1644178263.782034,-0.01001,0.006531,-0.991882,0.281924,0.447634,-0.14626,49,270,584,6000
1644178263.830449,-0.01123,0.00824,-0.991882,0.175053,0.371298,-0.069924,54,273,579,6016
1644178263.878845,-0.009338,0.011414,-0.991821,0.251389,0.264427,-0.192061,49,265,589,6016
1644178263.927248,-0.009888,0.011169,-0.994446,0.342992,0.356031,-0.069924,40,273,582,6016
1644178263.975617,-0.00769,0.008484,-0.99231,0.297191,0.523969,-0.085191,52,275,584,5984
1644178264.024053,-0.010376,0.009338,-0.993652,0.190321,0.386565,0.052214,48,271,592,5952
1644178264.073742,-0.008728,0.007935,-0.991821,0.220855,0.218626,-0.054656,55,274,592,5984
1644178264.120834,-0.008423,0.011169,-0.992126,0.098718,0.417099,-0.085191,57,263,586,5888
1644178264.169225,-0.011536,0.008118,-0.99115,0.175053,0.478168,-0.100458,34,281,587,5952
1644178264.217627,-0.011536,0.010315,-0.994141,0.144519,0.325496,-0.054656,47,280,582,5936
1644178264.266,-0.012207,0.007324,-0.992981,0.144519,0.371298,-0.085191,55,281,592,6000
1644178264.31442,-0.005554,0.009155,-0.991089,0.327725,0.447634,-0.14626,42,275,584,6000
1644178264.362804,-0.01001,0.008606,-0.99353,0.159786,0.340763,-0.085191,53,281,583,5984
1644178264.411192,-0.008057,0.008179,-0.993347,0.037649,0.493435,-0.161527,51,266,585,6048
1644178264.459578,-0.009827,0.011108,-0.992065,0.068183,0.432366,-0.130992,53,269,587,5952
1644178264.507972,-0.008911,0.011108,-0.990112,0.35826,0.417099,-0.192061,55,274,587,6048
1644178264.556371,-0.009949,0.009399,-0.988708,0.159786,0.371298,-0.130992,41,274,583,6000
1644178264.606323,-0.010376,0.011597,-0.992371,0.113985,0.493435,-0.069924,46,271,587,5936
1644178264.656562,-0.010498,0.009399,-0.990601,0.236122,0.340763,-0.100458,59,280,577,6016
1644178264.706517,-0.006836,0.012024,-0.990906,0.098718,0.325496,-0.008855,46,274,583,5952
1644178264.751214,-0.006409,0.009338,-0.99054,0.144519,0.508702,-0.161527,54,282,579,5936
1644178264.846695,-0.009216,0.012146,-0.993958,0.068183,0.371298,-0.024122,48,274,585,6064
1644178264.895397,-0.010925,0.01062,-0.993713,0.327725,0.325496,-0.192061,47,280,589,6016
1644178264.943503,-0.010925,0.008789,-0.993103,0.419328,0.340763,-0.130992,46,279,590,5984
1644178264.991873,-0.006836,0.011108,-0.994202,0.266656,0.447634,-0.069924,52,270,589,6080
1644178265.040261,-0.011658,0.007385,-0.994446,0.266656,0.386565,-0.314198,49,275,586,5936
1644178265.094814,-0.012939,0.009094,-0.990234,0.144519,0.371298,-0.024122,46,279,578,5984
1644178265.137024,-0.007996,0.010315,-0.995056,0.144519,0.417099,-0.085191,39,288,573,5984
1644178265.185416,-0.00769,0.013245,-0.991943,0.190321,0.325496,-0.008855,45,282,586,5936
1644178265.233787,-0.008423,0.007141,-0.99231,0.342992,0.417099,-0.161527,54,282,586,5984
1644178265.282215,-0.010254,0.007446,-0.993225,0.281924,0.462901,-0.008855,57,285,584,5952
1644178265.330583,-0.010132,0.009949,-0.990662,0.08345,0.325496,-0.115725,49,277,589,5984
1644178265.378976,-0.010132,0.009949,-0.992493,0.297191,0.356031,-0.130992,46,274,580,6016
1644178265.427547,-0.005127,0.009155,-0.992615,0.281924,0.264427,-0.222595,49,287,579,5984
1644178265.478043,-0.01123,0.010498,-0.992432,0.08345,0.325496,-0.100458,54,270,586,5904
1644178265.528166,-0.009216,0.008301,-0.992432,0.205588,0.401832,-0.130992,40,287,591,5952
1644178265.573224,-0.006775,0.008972,-0.993835,0.297191,0.340763,-0.283664,46,274,592,5984
1644178265.669317,-0.010315,0.008179,-0.992249,0.312458,0.386565,-0.161527,52,273,586,5952
1644178265.717702,-0.008301,0.010193,-0.99115,0.159786,0.417099,-0.130992,43,269,583,6016
1644178265.766096,-0.010925,0.009766,-0.993286,0.404061,0.340763,-0.024122,46,279,594,6016
1644178265.814541,-0.007629,0.006287,-0.993103,0.266656,0.554504,0.036947,47,275,584,5984
1644178265.862919,-0.011414,0.00824,-0.993225,0.129252,0.493435,-0.161527,51,283,583,6000
1644178265.911317,-0.009827,0.01001,-0.992004,0.205588,0.386565,-0.069924,45,280,582,5984
1644178265.959732,-0.011292,0.011414,-0.99231,0.35826,0.203359,-0.024122,49,280,589,5952
1644178266.008116,-0.008057,0.010498,-0.990662,0.220855,0.386565,-0.176794,51,266,590,5984
1644178266.068922,-0.010559,0.007507,-0.993774,0.251389,0.356031,-0.14626,62,276,590,5952
1644178266.104912,-0.009094,0.01001,-0.991211,0.342992,0.356031,-0.14626,53,271,594,6000
1644178266.153271,-0.006653,0.008118,-0.99231,0.175053,0.447634,-0.069924,58,276,583,5936
1644178266.201646,-0.008484,0.008423,-0.993774,0.312458,0.508702,-0.024122,48,276,585,5904
1644178266.250046,-0.007751,0.008301,-0.991943,0.144519,0.356031,-0.069924,51,286,580,5984
1644178266.298431,-0.010376,0.009277,-0.990417,0.190321,0.386565,-0.085191,61,277,591,5984
1644178266.346827,-0.010742,0.006714,-0.99115,0.190321,0.386565,0.021679,53,264,580,6016
1644178266.395217,-0.007507,0.008728,-0.990051,0.098718,0.432366,-0.100458,38,287,589,5936
1644178266.443604,-0.010132,0.009827,-0.993774,0.404061,0.356031,-0.115725,43,279,583,6000
1644178266.492328,-0.009277,0.007019,-0.991394,0.190321,0.356031,-0.069924,41,276,578,5904
1644178266.540385,-0.010803,0.009766,-0.9953,0.220855,0.508702,-0.115725,47,280,589,5984
1644178266.588869,-0.008118,0.010193,-0.994873,0.144519,0.386565,-0.024122,55,274,583,6016
1644178266.639377,-0.013062,0.009705,-0.987549,0.220855,0.340763,0.036947,47,275,591,5888
1644178266.689538,-0.007263,0.010071,-0.991882,0.220855,0.417099,-0.100458,58,276,590,6016
1644178266.734547,-0.012573,0.00885,-0.995911,0.205588,0.539237,-0.176794,45,268,570,6016
1644178266.830751,-0.007385,0.009583,-0.991394,0.08345,0.401832,-0.069924,46,283,576,6000
1644178266.879176,-0.008789,0.009583,-0.991272,0.297191,0.432366,-0.085191,53,266,585,5984
1644178266.927548,-0.008606,0.010071,-0.993591,0.251389,0.417099,-0.161527,48,269,571,6000
1644178266.97594,-0.008789,0.009766,-0.991394,0.281924,0.356031,-0.161527,48,286,585,6016
1644178267.024351,-0.007812,0.006226,-0.992859,0.35826,0.310229,-0.14626,49,277,579,5984
1644178267.072775,-0.010132,0.011169,-0.991455,0.236122,0.371298,-0.085191,47,277,591,5984
1644178267.121112,-0.011414,0.010925,-0.990723,0.205588,0.508702,-0.039389,45,277,589,6048
1644178267.169495,-0.007874,0.007629,-0.990906,0.144519,0.447634,-0.085191,43,283,587,6000
