epoch,acc_x,acc_y,acc_z,rot_x,rot_y,rot_z,mag_x,mag_y,mag_z,temp
1644162299.999692,-0.009094,0.009094,-0.98999,0.220855,0.401832,-0.054656,53,266,583,5552
1644162300.077485,-0.010437,0.008484,-0.990662,0.266656,0.371298,-0.130992,61,263,577,5536
1644162300.099767,-0.008179,0.009399,-0.991394,0.190321,0.356031,-0.115725,51,271,583,5552
1644162300.148344,-0.007019,0.009155,-0.992004,0.037649,0.462901,-0.14626,49,275,577,5536
1644162300.198247,-0.011292,0.008606,-0.990112,0.159786,0.432366,0.082748,60,266,580,5472
1644162300.290019,-0.011536,0.012085,-0.993896,0.342992,0.462901,-0.085191,53,276,569,5472
1644162300.338409,-0.007263,0.010437,-0.991333,0.205588,0.432366,-0.069924,48,274,569,5536
1644162300.386787,-0.009583,0.009766,-0.993652,0.327725,0.569771,-0.085191,51,264,578,5536
1644162300.435391,-0.010742,0.009583,-0.994507,0.236122,0.340763,-0.069924,48,271,571,5600
1644162300.483591,-0.009888,0.010376,-0.993652,0.159786,0.310229,-0.069924,54,280,577,5520
1644162300.531986,-0.011963,0.014221,-0.992554,0.281924,0.447634,-0.054656,58,276,580,5536
1644162300.580373,-0.010071,0.011353,-0.990723,0.419328,0.310229,0.021679,43,276,573,5520
1644162300.628769,-0.011353,0.010071,-0.991943,0.312458,0.493435,-0.207328,61,275,565,5584
1644162300.67715,-0.009949,0.010376,-0.991028,0.312458,0.478168,-0.100458,52,273,575,5552
1644162300.725556,-0.009583,0.009277,-0.98938,0.205588,0.493435,-0.100458,48,269,583,5552
1644162300.773915,-0.010498,0.009888,-0.991882,0.404061,0.294962,-0.207328,54,270,582,5536
1644162300.82236,-0.013123,0.007202,-0.991272,0.327725,0.462901,0.113282,54,273,572,5552
1644162300.870746,-0.007874,0.013367,-0.99115,0.312458,0.600305,-0.130992,57,265,584,5584
1644162300.919133,-0.010803,0.010925,-0.992981,0.251389,0.417099,0.036947,47,287,577,5536
1644162300.967533,-0.009094,0.008789,-0.992126,0.144519,0.447634,-0.100458,46,274,573,5488
1644162301.015918,-0.006775,0.008728,-0.991394,0.236122,0.340763,0.006412,54,270,582,5536
1644162301.066168,-0.009949,0.012817,-0.990662,0.159786,0.508702,-0.100458,66,280,577,5536
1644162301.11268,-0.011169,0.009216,-0.991272,0.281924,0.325496,-0.085191,48,281,573,5536
1644162301.161113,-0.011902,0.009949,-0.991516,0.251389,0.432366,0.021679,51,274,573,5552
1644162301.212024,-0.010803,0.009949,-0.99353,0.220855,0.447634,-0.039389,48,274,573,5488
1644162301.262224,-0.008789,0.007263,-0.992493,0.159786,0.417099,-0.130992,46,276,573,5584
1644162301.306936,-0.009155,0.009033,-0.992249,0.175053,0.432366,-0.268397,52,275,575,5536
1644162301.402988,-0.010193,0.010986,-0.993164,0.297191,0.401832,-0.283664,49,273,572,5584
1644162301.451393,-0.011353,0.010681,-0.991638,0.129252,0.447634,-0.192061,48,286,571,5520
1644162301.499782,-0.010498,0.007202,-0.99054,0.159786,0.340763,0.067481,52,277,575,5584
1644162301.548149,-0.010254,0.009155,-0.98938,0.022382,0.371298,-0.176794,48,274,580,5552
1644162301.596539,-0.01062,0.009888,-0.993042,0.342992,0.325496,-0.222595,54,282,577,5552
1644162301.645002,-0.010803,0.008179,-0.990906,0.251389,0.325496,-0.100458,47,277,577,5552
1644162301.693349,-0.011536,0.008606,-0.993286,0.205588,0.386565,-0.115725,47,260,575,5536
1644162301.741723,-0.011414,0.008118,-0.993774,0.342992,0.294962,-0.039389,55,266,573,5536
1644162301.790129,-0.010986,0.011169,-0.991943,0.220855,0.294962,-0.192061,55,286,566,5488
1644162301.838557,-0.011292,0.007629,-0.99176,0.236122,0.432366,-0.25313,52,275,565,5584
1644162301.886937,-0.012512,0.008545,-0.992493,0.251389,0.371298,-0.115725,53,269,576,5552
1644162301.935351,-0.009888,0.008545,-0.992737,0.190321,0.432366,-0.115725,59,268,561,5552
1644162301.983722,-0.010193,0.009033,-0.994141,0.205588,0.447634,-0.207328,51,271,580,5536
1644162302.032246,-0.008972,0.01123,-0.994995,0.205588,0.325496,-0.008855,54,270,572,5600
1644162302.084797,-0.011597,0.008301,-0.990417,0.159786,0.447634,-0.14626,57,280,586,5552
1644162302.128872,-0.007263,0.007629,-0.99231,0.144519,0.447634,-0.115725,51,281,566,5552
1644162302.177242,-0.01123,0.00824,-0.99115,0.205588,0.447634,-0.329466,55,283,583,5552
1644162302.225625,-0.011169,0.00946,-0.992737,0.052916,0.432366,-0.130992,48,266,578,5488
1644162302.274001,-0.009521,0.006897,-0.993591,0.220855,0.493435,-0.085191,48,271,571,5520
1644162302.322701,-0.011658,0.008606,-0.992249,0.190321,0.432366,0.006412,48,281,580,5536
1644162302.373193,-0.012878,0.009094,-0.992981,0.266656,0.386565,-0.14626,64,268,570,5536
1644162302.424234,-0.009155,0.009644,-0.992188,0.205588,0.447634,-0.085191,49,275,579,5584
1644162302.468645,-0.00885,0.010315,-0.993225,0.220855,0.447634,0.006412,60,288,580,5536
1644162302.564375,-0.008606,0.007568,-0.991028,0.144519,0.493435,-0.085191,48,279,576,5552
1644162302.61276,-0.010376,0.010559,-0.992065,0.113985,0.386565,-0.207328,48,279,576,5552
1644162302.661116,-0.008911,0.013123,-0.991882,0.175053,0.417099,-0.069924,46,271,578,5520
1644162302.709524,-0.00885,0.009705,-0.990906,0.266656,0.417099,-0.130992,55,266,578,5552
1644162302.757904,-0.011597,0.009216,-0.993835,0.297191,0.294962,-0.024122,55,276,580,5584
1644162302.806298,-0.011475,0.010193,-0.991272,0.159786,0.432366,-0.115725,54,275,579,5584
1644162302.854721,-0.008911,0.009094,-0.993225,0.098718,0.340763,-0.085191,46,279,583,5536
1644162302.903152,-0.008972,0.008484,-0.991272,0.159786,0.432366,-0.039389,55,276,569,5584
1644162302.95153,-0.01123,0.008545,-0.991699,0.35826,0.569771,-0.130992,43,271,571,5552
1644162302.999886,-0.008362,0.008301,-0.992615,0.236122,0.508702,-0.039389,39,283,571,5552
1644162303.054806,-0.009399,0.009888,-0.992737,0.251389,0.325496,-0.100458,51,274,571,5536
1644162303.096709,-0.01239,0.009827,-0.991089,0.220855,0.447634,-0.008855,52,275,572,5584
1644162303.145181,-0.011292,0.009705,-0.993958,0.190321,0.417099,-0.130992,58,279,576,5600
1644162303.193449,-0.009338,0.009216,-0.992737,0.205588,0.371298,-0.069924,46,274,585,5536
1644162303.241829,-0.009827,0.008057,-0.987549,0.266656,0.417099,0.006412,43,279,566,5552
1644162303.290171,-0.012451,0.012024,-0.993042,0.205588,0.386565,-0.130992,62,276,573,5536
1644162303.338592,-0.012024,0.00946,-0.992493,0.35826,0.478168,-0.207328,52,265,586,5552
1644162303.386992,-0.010132,0.010193,-0.989868,0.297191,0.401832,-0.100458,40,277,568,5536
1644162303.435375,-0.010193,0.013123,-0.99176,0.266656,0.432366,-0.192061,40,287,582,5552
1644162303.483791,-0.010315,0.010193,-0.989807,0.35826,0.508702,-0.283664,59,275,575,5536
1644162303.533786,-0.009949,0.008484,-0.990479,0.220855,0.432366,-0.069924,58,279,573,5584
1644162303.584123,-0.011353,0.011292,-0.993652,0.190321,0.462901,-0.130992,45,273,575,5584
1644162303.629189,-0.009155,0.007812,-0.991394,0.297191,0.462901,-0.039389,40,275,570,5600
1644162303.7257,-0.010559,0.009521,-0.99176,0.236122,0.462901,-0.176794,40,270,568,5536
1644162303.774112,-0.00885,0.011047,-0.993408,0.266656,0.386565,0.006412,60,276,578,5536
1644162303.822551,-0.009888,0.01001,-0.993958,0.175053,0.371298,-0.192061,45,268,577,5600
1644162303.870934,-0.01123,0.007568,-0.991394,0.159786,0.356031,-0.161527,59,268,579,5584
1644162303.919293,-0.008057,0.00769,-0.991882,0.35826,0.462901,-0.161527,54,277,582,5536
1644162303.967714,-0.014221,0.010864,-0.994934,0.251389,0.233893,-0.237863,46,286,571,5584
1644162304.016099,-0.010864,0.010681,-0.994019,0.220855,0.493435,-0.069924,47,273,582,5520
1644162304.065497,-0.009155,0.00885,-0.991882,0.113985,0.386565,-0.14626,46,274,573,5536
1644162304.112892,-0.010864,0.010071,-0.990784,0.312458,0.462901,-0.130992,55,271,573,5536
1644162304.16124,-0.009338,0.010803,-0.991089,0.175053,0.371298,-0.100458,48,271,576,5472
1644162304.20963,-0.008118,0.01001,-0.992737,0.251389,0.432366,-0.130992,48,266,573,5584
1644162304.258012,-0.010315,0.009521,-0.992188,0.388794,0.294962,-0.115725,53,271,580,5520
1644162304.306373,-0.012146,0.008362,-0.992065,0.297191,0.478168,-0.008855,51,279,571,5584
1644162304.354823,-0.009521,0.008179,-0.993469,0.129252,0.462901,0.021679,46,279,578,5648
1644162304.403198,-0.010376,0.008484,-0.992371,0.098718,0.493435,-0.008855,51,271,576,5584
1644162304.451579,-0.011108,0.010681,-0.991333,0.129252,0.493435,-0.25313,55,271,571,5584
1644162304.499936,-0.010193,0.008118,-0.991821,0.159786,0.493435,-0.176794,48,281,576,5584
1644162304.548324,-0.009583,0.010498,-0.992432,0.205588,0.447634,0.021679,53,283,569,5552
1644162304.596739,-0.011597,0.008301,-0.992371,0.022382,0.325496,-0.024122,60,271,576,5552
1644162304.645904,-0.011658,0.011047,-0.99231,0.312458,0.554504,-0.130992,52,287,579,5536
1644162304.695095,-0.012695,0.009521,-0.993286,0.220855,0.386565,-0.054656,54,273,579,5584
1644162304.745401,-0.007568,0.009277,-0.992249,0.266656,0.340763,-0.100458,55,271,583,5584
1644162304.790329,-0.013062,0.009399,-0.99408,0.205588,0.386565,-0.130992,47,263,570,5600
1644162304.88711,-0.011047,0.01001,-0.997253,0.35826,0.493435,-0.008855,53,279,578,5536
1644162304.935494,-0.010132,0.007996,-0.992249,0.281924,0.432366,-0.069924,45,273,577,5536
1644162304.983902,-0.011902,0.01239,-0.992004,0.175053,0.371298,-0.085191,54,273,577,5536
1644162305.032422,-0.010315,0.005615,-0.990906,0.08345,0.371298,0.113282,52,273,572,5552
1644162305.083084,-0.008301,0.009277,-0.992554,0.388794,0.508702,0.006412,45,285,570,5520
1644162305.129061,-0.009949,0.009521,-0.993347,0.068183,0.310229,-0.085191,58,266,571,5552
1644162305.177428,-0.013428,0.01123,-0.99231,0.327725,0.386565,-0.069924,57,273,575,5520
1644162305.22581,-0.010193,0.01001,-0.995056,0.342992,0.462901,-0.161527,49,280,577,5536
1644162305.274198,-0.011597,0.010132,-0.992371,0.098718,0.432366,-0.130992,49,263,577,5520
1644162305.322578,-0.011963,0.007874,-0.992859,0.35826,0.447634,-0.115725,45,282,575,5536
1644162305.370978,-0.010193,0.009766,-0.992126,0.098718,0.310229,-0.024122,48,266,569,5488
1644162305.419373,-0.007507,0.007385,-0.991272,0.068183,0.462901,-0.192061,60,271,585,5472
1644162305.467756,-0.009399,0.008057,-0.992004,0.236122,0.462901,0.12855,45,287,577,5552
1644162305.516153,-0.011475,0.00824,-0.991516,0.205588,0.310229,-0.176794,42,273,586,5632
1644162305.564535,-0.008728,0.007874,-0.992188,0.129252,0.386565,-0.130992,55,269,580,5536
1644162305.613254,-0.007019,0.008911,-0.993896,0.022382,0.401832,-0.176794,41,271,583,5552
1644162305.662196,-0.012756,0.009949,-0.994019,0.205588,0.432366,-0.085191,62,266,578,5536
1644162305.712692,-0.008179,0.008362,-0.993103,0.205588,0.401832,-0.192061,51,274,573,5552
1644162305.762953,-0.00946,0.006226,-0.993896,0.205588,0.279695,-0.100458,53,281,580,5536
1644162305.807937,-0.011353,0.010803,-0.991516,0.205588,0.386565,-0.222595,52,270,572,5456
1644162305.903313,-0.014221,0.012024,-0.992493,0.220855,0.401832,-0.14626,43,276,569,5488
1644162305.951698,-0.009583,0.011597,-0.993713,0.327725,0.478168,-0.176794,55,266,571,5520
1644162306.000121,-0.009155,0.008972,-0.992493,0.052916,0.478168,0.021679,43,271,569,5552
1644162306.054665,-0.011475,0.007935,-0.993042,0.327725,0.371298,-0.14626,46,288,571,5584
1644162306.096856,-0.009094,0.008606,-0.994507,0.281924,0.432366,0.082748,59,275,572,5584
1644162306.14525,-0.011414,0.008545,-0.99231,0.205588,0.447634,-0.115725,49,280,570,5552
1644162306.193643,-0.011169,0.00769,-0.993103,0.129252,0.340763,-0.14626,53,276,571,5536
1644162306.242036,-0.00885,0.008667,-0.992004,0.251389,0.279695,-0.115725,45,270,586,5600
1644162306.290407,-0.013489,0.009705,-0.992981,0.342992,0.432366,-0.115725,52,273,568,5488
1644162306.338827,-0.010437,0.011597,-0.992432,0.35826,0.508702,-0.176794,54,265,582,5600
1644162306.387192,-0.009399,0.010071,-0.991821,0.129252,0.356031,-0.008855,51,266,569,5584
1644162306.4356,-0.012085,0.009888,-0.99353,0.175053,0.325496,0.006412,51,271,578,5472
1644162306.484002,-0.008606,0.01062,-0.991455,0.175053,0.417099,-0.283664,51,274,573,5536
1644162306.532393,-0.009705,0.007629,-0.992981,0.327725,0.401832,-0.161527,43,266,571,5552
1644162306.580769,-0.01355,0.007996,-0.992004,0.342992,0.310229,-0.039389,48,276,583,5472
1644162306.629165,-0.011108,0.007324,-0.992493,0.190321,0.432366,-0.100458,57,275,582,5536
1644162306.677541,-0.011963,0.010193,-0.991455,0.175053,0.401832,-0.100458,54,277,586,5584
1644162306.726283,-0.009216,0.006592,-0.989685,0.220855,0.340763,0.006412,55,281,578,5488
1644162306.77447,-0.010071,0.009705,-0.992432,0.251389,0.478168,0.036947,49,260,572,5600
1644162306.824613,-0.010803,0.008057,-0.990967,0.236122,0.523969,-0.039389,48,276,573,5584
1644162306.87484,-0.009766,0.006226,-0.993469,0.327725,0.554504,-0.115725,60,264,585,5536
1644162306.924936,-0.010925,0.010376,-0.992065,0.236122,0.478168,0.052214,54,270,584,5648
1644162306.969626,-0.012024,0.009583,-0.992065,0.129252,0.356031,-0.054656,47,275,586,5584
1644162307.064904,-0.013245,0.010193,-0.993347,0.220855,0.462901,-0.237863,48,266,583,5584
1644162307.113003,-0.010437,0.005493,-0.992554,0.144519,0.539237,-0.192061,49,270,579,5584
1644162307.161403,-0.009888,0.010193,-0.994263,0.052916,0.493435,-0.085191,47,275,579,5536
1644162307.209793,-0.009827,0.009949,-0.992615,0.266656,0.340763,-0.085191,58,271,573,5536
1644162307.258159,-0.010254,0.010071,-0.988525,0.113985,0.493435,-0.14626,55,276,583,5600
1644162307.306571,-0.012268,0.009644,-0.990601,0.373527,0.523969,-0.130992,54,280,577,5488
1644162307.355075,-0.013794,0.00824,-0.992371,0.175053,0.417099,0.006412,61,273,575,5536
1644162307.403366,-0.011169,0.011902,-0.98999,0.297191,0.325496,-0.222595,59,268,577,5552
1644162307.451751,-0.011963,0.010071,-0.993164,0.144519,0.447634,-0.085191,39,286,573,5536
1644162307.500109,-0.009277,0.009644,-0.991333,0.312458,0.340763,-0.130992,45,273,572,5584
1644162307.548537,-0.010925,0.008423,-0.993347,0.266656,0.310229,-0.054656,54,270,579,5552
1644162307.596924,-0.010681,0.011475,-0.990723,0.35826,0.539237,0.021679,49,277,568,5552
1644162307.645322,-0.00769,0.011841,-0.991638,0.297191,0.508702,-0.25313,52,275,563,5552
1644162307.693711,-0.006897,0.010925,-0.993469,0.190321,0.279695,-0.14626,47,273,568,5552
1644162307.742083,-0.009583,0.00708,-0.991028,0.327725,0.447634,-0.130992,53,274,569,5552
1644162307.790583,-0.010437,0.00824,-0.991638,0.297191,0.386565,-0.024122,48,274,578,5536
1644162307.838908,-0.011841,0.00647,-0.990723,0.144519,0.356031,-0.115725,48,276,580,5552
1644162307.887642,-0.009216,0.007751,-0.991821,0.205588,0.417099,-0.207328,49,280,570,5536
1644162307.935704,-0.009155,0.010681,-0.992432,0.236122,0.233893,-0.069924,54,273,572,5552
1644162307.985574,-0.010437,0.008728,-0.991821,0.144519,0.356031,-0.039389,46,283,585,5600
1644162308.049815,-0.011841,0.009949,-0.991882,0.327725,0.493435,-0.130992,49,282,577,5472
1644162308.086728,-0.009705,0.008667,-0.990845,0.251389,0.417099,-0.161527,57,268,577,5552
1644162308.130214,-0.00946,0.00824,-0.994385,0.205588,0.386565,0.036947,55,266,578,5600
1644162308.225962,-0.014404,0.00769,-0.991028,0.190321,0.325496,-0.100458,55,274,571,5600
1644162308.274386,-0.009827,0.008057,-0.990784,0.08345,0.432366,-0.100458,47,273,572,5552
1644162308.322785,-0.008545,0.010803,-0.992126,0.236122,0.386565,-0.100458,49,275,575,5488
1644162308.371149,-0.010986,0.007874,-0.991699,0.205588,0.325496,-0.054656,51,269,571,5552
1644162308.419547,-0.009644,0.00885,-0.995728,0.297191,0.340763,-0.130992,36,276,573,5520
1644162308.46792,-0.00885,0.010315,-0.990784,0.205588,0.417099,-0.054656,49,268,575,5536
1644162308.516328,-0.009766,0.00885,-0.992798,0.297191,0.401832,-0.085191,54,268,577,5584
1644162308.564741,-0.009521,0.010376,-0.991699,0.297191,0.523969,-0.069924,54,270,575,5536
1644162308.613126,-0.010498,0.010559,-0.993286,0.190321,0.386565,0.036947,45,268,561,5536
1644162308.661488,-0.009277,0.008667,-0.989685,0.205588,0.356031,-0.192061,52,273,577,5600
1644162308.709873,-0.01062,0.005676,-0.992981,0.205588,0.386565,-0.085191,45,273,577,5552
1644162308.758277,-0.010742,0.011047,-0.990173,0.175053,0.325496,-0.054656,52,275,565,5536
1644162308.806706,-0.010864,0.009888,-0.993042,0.327725,0.356031,-0.115725,43,283,571,5536
1644162308.85514,-0.01123,0.008179,-0.993774,0.205588,0.356031,-0.054656,47,275,572,5520
1644162308.9035,-0.009399,0.008972,-0.99353,0.327725,0.493435,-0.222595,60,276,576,5584
1644162308.951855,-0.013794,0.008057,-0.992493,0.098718,0.417099,-0.008855,60,266,580,5488
1644162309.000238,-0.008972,0.011719,-0.991882,0.129252,0.386565,-0.115725,48,279,580,5600
1644162309.096989,-0.009399,0.011658,-0.994812,0.220855,0.508702,-0.176794,52,277,579,5584
1644162309.145391,-0.009705,0.008606,-0.992432,0.297191,0.417099,-0.039389,59,277,568,5536
1644162309.193789,-0.011475,0.009949,-0.992859,0.175053,0.371298,-0.14626,49,282,577,5536
1644162309.242195,-0.010071,0.008911,-0.992432,0.251389,0.340763,-0.039389,47,282,577,5600
1644162309.290544,-0.008057,0.009094,-0.98877,0.236122,0.24916,0.006412,53,271,573,5536
1644162309.33896,-0.010132,0.012268,-0.990967,0.297191,0.493435,-0.054656,52,282,577,5600
1644162309.38733,-0.009094,0.008667,-0.993286,0.068183,0.462901,-0.176794,52,268,572,5520
1644162309.435741,-0.00824,0.008179,-0.993469,0.388794,0.554504,0.021679,49,275,570,5552
1644162309.484153,-0.010925,0.009155,-0.993042,0.251389,0.371298,-0.069924,55,274,587,5536
1644162309.532549,-0.013184,0.009644,-0.993286,0.251389,0.432366,-0.161527,53,279,573,5472
1644162309.580914,-0.012268,0.007935,-0.994385,0.220855,0.417099,-0.161527,49,285,575,5600
1644162309.629301,-0.008667,0.009277,-0.992493,0.266656,0.325496,-0.298931,43,279,576,5536
1644162309.677685,-0.007751,0.008728,-0.992859,0.342992,0.401832,0.052214,48,271,585,5552
1644162309.726074,-0.01355,0.010559,-0.993591,0.388794,0.401832,-0.237863,45,275,568,5536
1644162309.774473,-0.009827,0.009277,-0.99054,0.251389,0.493435,-0.039389,46,259,585,5552
1644162309.824316,-0.009583,0.009705,-0.991943,0.281924,0.493435,-0.008855,49,268,577,5536
1644162309.874163,-0.010315,0.008301,-0.990417,0.312458,0.417099,-0.115725,51,264,578,5600
1644162309.924437,-0.009644,0.012512,-0.992371,0.144519,0.356031,-0.161527,55,279,576,5536
1644162309.969149,-0.010925,0.009338,-0.99231,0.281924,0.356031,-0.024122,47,287,570,5488
1644162310.064897,-0.010864,0.013184,-0.992798,0.190321,0.386565,-0.069924,54,275,582,5488
1644162310.113233,-0.012451,0.007874,-0.991455,0.220855,0.600305,-0.100458,42,273,572,5600
1644162310.16158,-0.009094,0.009521,-0.990295,0.068183,0.356031,-0.130992,58,276,573,5536
1644162310.209982,-0.010437,0.010071,-0.991333,0.373527,0.264427,-0.130992,53,276,578,5552
1644162310.258346,-0.010681,0.00592,-0.993469,0.190321,0.310229,-0.176794,55,274,576,5552
1644162310.306756,-0.011841,0.007996,-0.992493,0.129252,0.447634,-0.268397,46,262,566,5536
1644162310.355177,-0.008728,0.010986,-0.992859,0.404061,0.401832,-0.192061,48,279,566,5632
1644162310.403553,-0.012146,0.007324,-0.991943,0.205588,0.371298,-0.054656,54,273,575,5536
1644162310.451932,-0.01062,0.008118,-0.990051,0.297191,0.447634,-0.008855,48,269,569,5584
1644162310.500305,-0.009644,0.007507,-0.992065,0.175053,0.478168,-0.085191,45,277,589,5488
1644162310.548695,-0.012268,0.010254,-0.992554,0.144519,0.203359,-0.008855,45,268,570,5584
1644162310.597096,-0.012085,0.01001,-0.99176,0.205588,0.294962,-0.161527,52,280,577,5536
1644162310.645483,-0.010071,0.008667,-0.993164,0.113985,0.371298,0.006412,47,282,582,5584
1644162310.693896,-0.012878,0.010681,-0.991577,0.312458,0.478168,0.067481,53,279,571,5584
1644162310.742266,-0.010864,0.010559,-0.992065,0.236122,0.264427,-0.069924,45,277,575,5520
1644162310.790665,-0.008484,0.01062,-0.994873,0.129252,0.432366,-0.130992,57,277,577,5488
1644162310.839109,-0.011414,0.007996,-0.992798,0.205588,0.340763,-0.115725,54,270,575,5536
1644162310.887482,-0.01178,0.009521,-0.992432,0.175053,0.310229,-0.115725,58,269,580,5488
1644162310.935886,-0.011169,0.010498,-0.990234,0.495664,0.233893,-0.14626,41,266,569,5536
1644162310.985832,-0.012268,0.008606,-0.992615,0.236122,0.294962,-0.100458,55,274,573,5584
1644162311.048178,-0.011108,0.009766,-0.989868,0.129252,0.340763,-0.008855,58,283,573,5584
1644162311.087028,-0.012512,0.01001,-0.991516,0.052916,0.432366,-0.024122,52,280,582,5552
1644162311.130766,-0.012268,0.009521,-0.993103,0.175053,0.340763,-0.085191,53,266,576,5584
1644162311.226159,-0.009155,0.011169,-0.994141,0.312458,0.493435,-0.069924,52,265,584,5536
1644162311.274543,-0.009521,0.00708,-0.992371,0.220855,0.401832,-0.237863,49,275,572,5600
1644162311.322962,-0.007324,0.009644,-0.991272,0.404061,0.401832,-0.192061,45,277,565,5488
1644162311.371327,-0.010559,0.008667,-0.990967,0.251389,0.386565,-0.039389,57,273,579,5536
1644162311.419725,-0.011841,0.008606,-0.992249,0.342992,0.432366,-0.008855,53,279,583,5536
1644162311.46811,-0.008606,0.006714,-0.991516,0.190321,0.310229,-0.069924,58,276,573,5536
1644162311.516513,-0.009216,0.009094,-0.991394,0.404061,0.432366,-0.008855,53,283,573,5552
1644162311.564885,-0.012329,0.010681,-0.990967,0.113985,0.432366,-0.100458,60,269,578,5584
1644162311.613292,-0.009949,0.010742,-0.991943,0.129252,0.493435,0.006412,48,274,571,5536
1644162311.661686,-0.012085,0.008606,-0.992737,0.297191,0.417099,-0.161527,54,285,570,5536
1644162311.710079,-0.012146,0.008179,-0.992004,0.342992,0.371298,-0.085191,43,274,569,5536
1644162311.758519,-0.011475,0.007324,-0.991516,0.297191,0.554504,-0.024122,49,275,570,5536
1644162311.806856,-0.011475,0.010925,-0.992493,0.175053,0.386565,-0.14626,51,281,576,5536
1644162311.855273,-0.011597,0.011108,-0.990723,0.281924,0.188092,0.174351,46,269,576,5584
1644162311.903682,-0.009766,0.012756,-0.991516,0.113985,0.401832,-0.024122,47,273,570,5552
1644162311.952063,-0.011169,0.011536,-0.991699,0.08345,0.539237,-0.130992,55,271,585,5488
1644162312.000439,-0.007263,0.009949,-0.99115,0.175053,0.462901,-0.100458,49,277,579,5488
1644162312.06952,-0.009583,0.012451,-0.992798,0.251389,0.493435,-0.222595,46,271,583,5536
1644162312.09762,-0.014404,0.010681,-0.990662,0.297191,0.615573,-0.054656,61,282,586,5520
1644162312.147719,-0.00946,0.008606,-0.993408,0.175053,0.386565,-0.069924,60,271,580,5584
1644162312.196677,-0.009827,0.010376,-0.992676,0.205588,0.172824,-0.25313,52,273,577,5584
1644162312.246756,-0.007996,0.00824,-0.989868,0.220855,0.432366,-0.25313,58,271,573,5584
1644162312.29174,-0.009155,0.009888,-0.99231,0.175053,0.447634,-0.25313,43,281,576,5600
1644162312.387512,-0.009521,0.008728,-0.991638,0.297191,0.325496,-0.039389,62,276,573,5536
1644162312.43591,-0.01123,0.006287,-0.992676,0.175053,0.432366,-0.008855,49,280,575,5552
1644162312.484317,-0.010864,0.010254,-0.992615,0.190321,0.371298,-0.054656,46,279,571,5552
1644162312.532689,-0.012573,0.009155,-0.992676,0.144519,0.539237,-0.039389,45,270,582,5488
1644162312.581076,-0.011414,0.008606,-0.992249,0.281924,0.447634,0.021679,45,265,575,5488
1644162312.629479,-0.008911,0.01062,-0.992493,0.297191,0.294962,-0.14626,51,276,571,5536
1644162312.677866,-0.01123,0.009644,-0.996277,0.190321,0.401832,-0.008855,53,271,571,5536
1644162312.726262,-0.010864,0.011719,-0.992737,0.098718,0.401832,-0.024122,46,269,573,5536
1644162312.774664,-0.011536,0.008789,-0.992126,0.297191,0.493435,-0.115725,59,270,582,5600
1644162312.823063,-0.00885,0.009583,-0.993164,0.434595,0.523969,-0.207328,47,268,577,5552
1644162312.871476,-0.008972,0.008667,-0.992432,0.266656,0.401832,-0.085191,54,270,577,5488
1644162312.919877,-0.009644,0.010925,-0.994019,0.297191,0.432366,-0.069924,64,280,570,5584
1644162312.968229,-0.01001,0.011169,-0.996155,0.220855,0.432366,-0.085191,46,271,576,5552
1644162313.016641,-0.010437,0.007629,-0.989563,0.35826,0.401832,-0.14626,54,265,589,5584
1644162313.081323,-0.010925,0.008545,-0.993347,0.159786,0.24916,0.052214,54,282,575,5600
1644162313.113437,-0.011047,0.010681,-0.992432,0.236122,0.386565,-0.130992,40,273,565,5472
1644162313.162186,-0.008118,0.009949,-0.993591,0.266656,0.478168,-0.100458,55,276,585,5536
1644162313.211864,-0.008728,0.011597,-0.993652,0.266656,0.447634,-0.039389,43,276,580,5552
1644162313.261697,-0.008423,0.008484,-0.992737,0.159786,0.340763,0.021679,46,262,564,5536
1644162313.311911,-0.009583,0.010925,-0.99292,0.220855,0.600305,-0.100458,43,274,576,5536
1644162313.356414,-0.009216,0.01001,-0.992981,0.205588,0.325496,-0.008855,58,274,571,5584
1644162313.452455,-0.010193,0.010376,-0.992737,0.159786,0.569771,-0.085191,66,268,579,5584
1644162313.50054,-0.009705,0.010864,-0.993896,0.388794,0.493435,-0.024122,59,273,572,5552
1644162313.548918,-0.007446,0.009094,-0.993042,0.236122,0.478168,0.067481,47,275,572,5552
1644162313.597309,-0.010681,0.01001,-0.993164,0.297191,0.432366,-0.130992,48,276,576,5536
1644162313.645702,-0.011353,0.008484,-0.99292,0.159786,0.493435,-0.085191,47,277,572,5584
1644162313.694117,-0.010681,0.008545,-0.995239,0.266656,0.325496,-0.054656,53,279,573,5536
1644162313.742503,-0.010254,0.008484,-0.992737,0.327725,0.401832,-0.207328,48,271,576,5536
1644162313.790879,-0.011169,0.008911,-0.99231,0.052916,0.325496,-0.085191,49,277,575,5584
1644162313.839278,-0.008484,0.006714,-0.994202,0.220855,0.417099,-0.024122,52,275,582,5632
1644162313.887663,-0.007812,0.00824,-0.992554,0.159786,0.340763,-0.069924,38,280,579,5600
1644162313.936091,-0.01123,0.010376,-0.99408,0.419328,0.615573,0.036947,47,282,570,5520
1644162313.984448,-0.01178,0.01062,-0.990601,0.266656,0.371298,0.067481,59,273,579,5552
1644162314.032839,-0.011414,0.008057,-0.991943,0.312458,0.401832,-0.115725,51,281,578,5584
1644162314.082686,-0.01178,0.010193,-0.989197,0.281924,0.356031,0.006412,39,271,576,5536
1644162314.129614,-0.009766,0.010803,-0.993347,0.419328,0.523969,-0.054656,49,270,582,5488
1644162314.177999,-0.011475,0.008545,-0.992188,0.281924,0.401832,-0.268397,55,259,580,5520
1644162314.226394,-0.009338,0.008972,-0.99115,0.312458,0.447634,-0.222595,51,274,569,5536
1644162314.275011,-0.00946,0.00885,-0.990662,0.449863,0.447634,-0.085191,49,265,577,5600
1644162314.323262,-0.012085,0.008118,-0.99231,0.327725,0.325496,-0.085191,53,281,571,5536
1644162314.373461,-0.012146,0.009949,-0.990417,0.205588,0.432366,-0.14626,59,270,572,5536
1644162314.423849,-0.009338,0.01001,-0.991577,0.144519,0.447634,-0.115725,53,271,583,5584
1644162314.473932,-0.008911,0.007874,-0.993286,0.327725,0.264427,-0.161527,48,271,587,5600
1644162314.56541,-0.011047,0.010681,-0.993652,0.205588,0.356031,-0.100458,51,274,576,5584
1644162314.613512,-0.010193,0.011475,-0.992371,0.175053,0.356031,-0.024122,33,275,575,5536
1644162314.661894,-0.010315,0.009399,-0.991211,0.236122,0.462901,-0.130992,47,275,577,5552
1644162314.710286,-0.009949,0.007385,-0.992493,0.190321,0.371298,-0.161527,53,274,576,5600
1644162314.75866,-0.008179,0.008789,-0.993774,0.266656,0.401832,-0.039389,60,274,571,5472
1644162314.807075,-0.013367,0.007019,-0.991028,0.190321,0.386565,-0.100458,42,285,565,5584
1644162314.855456,-0.009705,0.009155,-0.990173,0.312458,0.340763,-0.115725,53,279,576,5584
1644162314.903865,-0.011597,0.011108,-0.990723,0.266656,0.279695,-0.054656,47,273,572,5520
1644162314.952252,-0.007874,0.008301,-0.991577,0.144519,0.539237,-0.176794,46,276,576,5552
1644162315.000609,-0.01239,0.01001,-0.992737,0.098718,0.447634,0.006412,46,264,580,5488
1644162315.052827,-0.013,0.008179,-0.989929,0.220855,0.615573,-0.100458,51,276,573,5584
1644162315.097381,-0.00708,0.006287,-0.993774,0.098718,0.432366,-0.115725,48,276,576,5600
1644162315.145765,-0.011841,0.008301,-0.990479,0.236122,0.508702,-0.161527,46,281,580,5536
1644162315.194133,-0.013428,0.009094,-0.989746,0.266656,0.340763,-0.115725,46,262,569,5584
1644162315.242556,-0.007874,0.006409,-0.993164,0.205588,0.493435,-0.100458,52,270,577,5584
1644162315.290931,-0.012024,0.008728,-0.990601,0.297191,0.371298,0.036947,54,273,577,5632
1644162315.339316,-0.010986,0.009949,-0.992004,0.266656,0.508702,0.021679,49,275,577,5648
1644162315.387701,-0.00769,0.010071,-0.991638,0.159786,0.371298,-0.161527,51,276,578,5552
1644162315.43754,-0.009888,0.010193,-0.992432,0.281924,0.386565,-0.161527,51,271,566,5520
1644162315.487919,-0.008972,0.009277,-0.993225,0.297191,0.447634,-0.25313,54,280,572,5472
1644162315.538209,-0.008789,0.004517,-0.991882,0.251389,0.493435,-0.085191,55,279,583,5600
1644162315.629653,-0.008972,0.013062,-0.992371,0.159786,0.356031,-0.14626,38,263,570,5552
1644162315.678026,-0.010986,0.01123,-0.991089,0.312458,0.432366,-0.115725,49,277,568,5520
1644162315.726474,-0.010498,0.009521,-0.990906,0.236122,0.356031,-0.130992,46,281,576,5552
1644162315.77513,-0.012329,0.008972,-0.994812,0.144519,0.401832,-0.024122,53,271,573,5536
1644162315.823271,-0.012573,0.009949,-0.99353,0.312458,0.264427,-0.161527,49,280,568,5536
1644162315.871658,-0.010437,0.007019,-0.994141,0.251389,0.371298,-0.115725,46,279,580,5536
1644162315.920038,-0.010925,0.009399,-0.992798,0.205588,0.478168,-0.085191,42,285,565,5600
1644162315.968425,-0.010681,0.008545,-0.991943,0.281924,0.432366,-0.192061,55,271,562,5584
1644162316.016792,-0.010376,0.008728,-0.991821,0.251389,0.325496,-0.115725,53,286,573,5488
1644162316.071067,-0.009644,0.011292,-0.989258,0.129252,0.508702,-0.024122,48,276,580,5536
1644162316.113571,-0.006165,0.010437,-0.992065,0.159786,0.386565,0.021679,52,275,565,5600
1644162316.161957,-0.011902,0.008301,-0.995728,0.236122,0.432366,-0.069924,48,281,578,5584
1644162316.21035,-0.009583,0.011719,-0.99054,0.205588,0.401832,-0.207328,52,275,577,5488
1644162316.258715,-0.011047,0.008789,-0.993835,0.281924,0.432366,0.036947,59,270,577,5584
1644162316.307085,-0.011719,0.010559,-0.991516,0.190321,0.432366,-0.069924,45,268,572,5584
1644162316.355504,-0.009949,0.009338,-0.991516,0.251389,0.401832,-0.130992,51,274,587,5584
1644162316.403902,-0.010986,0.010071,-0.990723,0.342992,0.264427,-0.115725,54,273,570,5536
1644162316.452305,-0.009949,0.010437,-0.989319,0.251389,0.63084,0.021679,52,270,570,5536
1644162316.501244,-0.009216,0.00769,-0.991638,0.144519,0.371298,-0.207328,46,266,578,5600
1644162316.55167,-0.010376,0.009827,-0.99408,0.236122,0.417099,-0.176794,46,274,566,5536
1644162316.60159,-0.010254,0.007446,-0.992126,0.08345,0.264427,-0.085191,46,274,571,5520
1644162316.646814,-0.010132,0.00824,-0.990112,0.236122,0.493435,-0.039389,42,280,563,5536
1644162316.742642,-0.011536,0.010742,-0.995178,0.190321,0.417099,-0.115725,49,273,572,5536
1644162316.791011,-0.010193,0.00769,-0.991821,0.251389,0.417099,-0.085191,39,281,580,5536
1644162316.839455,-0.010559,0.007996,-0.991455,0.220855,0.462901,0.067481,55,276,576,5584
1644162316.887847,-0.008057,0.011719,-0.993042,0.068183,0.432366,-0.069924,53,274,576,5632
1644162316.936197,-0.01123,0.007996,-0.990173,0.281924,0.493435,-0.085191,45,275,570,5520
1644162316.984659,-0.006653,0.011536,-0.99054,0.159786,0.218626,-0.115725,62,276,585,5536
1644162317.033039,-0.010986,0.01062,-0.989868,0.404061,0.310229,-0.115725,58,264,564,5536
1644162317.083998,-0.012329,0.009827,-0.993347,0.404061,0.356031,0.082748,51,276,569,5536
1644162317.129731,-0.00708,0.010742,-0.991943,0.190321,0.508702,-0.054656,52,270,563,5552
1644162317.17814,-0.010071,0.009583,-0.992432,0.220855,0.386565,-0.115725,43,269,576,5584
1644162317.226534,-0.010376,0.009277,-0.991516,0.342992,0.325496,-0.069924,48,274,576,5552
1644162317.27501,-0.011108,0.006226,-0.99231,0.190321,0.371298,-0.054656,58,274,569,5488
1644162317.323315,-0.011719,0.010071,-0.99176,0.266656,0.294962,-0.085191,52,273,579,5584
1644162317.371704,-0.011719,0.008301,-0.990662,0.281924,0.386565,-0.207328,48,274,585,5552
1644162317.420086,-0.011719,0.005798,-0.992065,0.373527,0.462901,-0.069924,53,274,576,5584
1644162317.468467,-0.008057,0.008667,-0.991882,0.175053,0.462901,-0.085191,46,274,573,5600
1644162317.516857,-0.009155,0.008606,-0.993408,0.205588,0.325496,-0.130992,47,280,584,5536
1644162317.565519,-0.008545,0.008545,-0.992493,0.327725,0.478168,-0.115725,45,270,575,5552
1644162317.61591,-0.010803,0.010498,-0.990234,0.342992,0.310229,-0.008855,55,274,573,5488
1644162317.66609,-0.010681,0.006836,-0.995972,0.251389,0.539237,-0.039389,54,280,575,5584
1644162317.711135,-0.013062,0.008423,-0.992004,0.205588,0.356031,-0.054656,40,280,572,5552
1644162317.807195,-0.011902,0.010498,-0.994812,0.312458,0.508702,0.006412,60,276,571,5600
1644162317.855625,-0.010864,0.010376,-0.992126,0.129252,0.493435,-0.130992,55,269,571,5584
1644162317.904051,-0.012024,0.009644,-0.992249,0.159786,0.447634,-0.25313,47,273,579,5552
1644162317.952444,-0.00824,0.009644,-0.991699,0.281924,0.279695,-0.176794,47,277,579,5552
1644162318.000783,-0.008179,0.008057,-0.99353,0.175053,0.493435,-0.115725,47,275,572,5584
1644162318.05518,-0.010132,0.01001,-0.992737,0.113985,0.554504,-0.069924,46,279,587,5584
1644162318.097551,-0.010376,0.011475,-0.992188,0.220855,0.310229,-0.054656,48,281,569,5664
1644162318.145943,-0.011169,0.009827,-0.991516,0.35826,0.294962,0.006412,52,277,575,5552
1644162318.194314,-0.009094,0.008667,-0.98877,0.251389,0.447634,-0.100458,64,277,572,5472
1644162318.242763,-0.010254,0.011169,-0.994995,0.281924,0.447634,-0.085191,49,277,575,5584
1644162318.291088,-0.010437,0.009949,-0.993408,0.236122,0.447634,-0.008855,51,281,573,5536
1644162318.339495,-0.008728,0.008423,-0.99292,0.144519,0.432366,-0.069924,54,277,577,5488
1644162318.387882,-0.010742,0.009155,-0.992432,0.175053,0.462901,-0.085191,53,271,573,5584
1644162318.436263,-0.011597,0.008362,-0.99408,0.388794,0.508702,-0.069924,55,269,576,5536
1644162318.484667,-0.009338,0.011597,-0.994202,0.205588,0.325496,0.021679,52,280,572,5600
1644162318.533075,-0.01001,0.010437,-0.993713,0.297191,0.310229,-0.115725,57,275,579,5520
1644162318.581445,-0.009094,0.010193,-0.99292,0.266656,0.462901,-0.054656,61,273,586,5552
1644162318.629816,-0.008606,0.010437,-0.99115,0.175053,0.447634,0.006412,48,271,580,5536
1644162318.678223,-0.010315,0.01178,-0.991272,0.373527,0.432366,-0.207328,53,269,571,5520
1644162318.728909,-0.008667,0.011169,-0.993408,0.236122,0.356031,-0.008855,58,274,578,5536
1644162318.776831,-0.011353,0.010132,-0.992249,0.342992,0.508702,-0.14626,59,277,579,5488
1644162318.827578,-0.009338,0.008484,-0.99176,0.175053,0.371298,-0.054656,55,276,585,5552
1644162318.872663,-0.012573,0.008057,-0.992126,0.297191,0.356031,-0.161527,52,275,563,5488
1644162318.968605,-0.011414,0.008606,-0.990112,0.220855,0.264427,-0.161527,45,268,579,5536
1644162319.01699,-0.010742,0.011292,-0.99231,0.35826,0.615573,-0.069924,57,270,575,5536
1644162319.065537,-0.014282,0.009155,-0.990723,0.251389,0.462901,-0.192061,48,281,573,5536
1644162319.11379,-0.010864,0.010986,-0.993835,0.281924,0.401832,-0.069924,55,276,573,5536
1644162319.162188,-0.009277,0.01062,-0.993835,0.098718,0.294962,-0.130992,53,271,569,5584
1644162319.210519,-0.009216,0.008301,-0.992798,0.159786,0.417099,-0.069924,53,276,564,5536
1644162319.258893,-0.008911,0.00946,-0.989441,0.281924,0.462901,-0.100458,55,279,571,5552
1644162319.307305,-0.012756,0.007507,-0.991577,0.190321,0.371298,-0.085191,53,276,571,5632
1644162319.355695,-0.009705,0.010864,-0.992126,0.113985,0.294962,-0.36,60,276,566,5584
1644162319.404083,-0.012207,0.008484,-0.994873,0.08345,0.325496,-0.161527,51,271,569,5536
1644162319.452503,-0.008423,0.00647,-0.992188,0.220855,0.401832,-0.192061,45,275,572,5600
1644162319.500841,-0.010315,0.00824,-0.993591,0.205588,0.233893,-0.14626,52,275,577,5552
1644162319.549257,-0.009766,0.010498,-0.990967,0.236122,0.447634,-0.176794,51,269,580,5536
1644162319.597616,-0.009766,0.010254,-0.993408,0.251389,0.447634,-0.085191,52,265,579,5584
1644162319.646034,-0.010193,0.012451,-0.991455,0.297191,0.432366,-0.176794,49,263,568,5488
1644162319.694456,-0.01123,0.007874,-0.991211,0.159786,0.356031,-0.100458,45,282,572,5552
1644162319.742832,-0.010132,0.011047,-0.990967,0.144519,0.279695,-0.024122,45,277,575,5584
1644162319.791198,-0.008789,0.007935,-0.992004,0.037649,0.401832,-0.054656,55,264,583,5536
1644162319.839642,-0.012451,0.010742,-0.99353,0.205588,0.447634,-0.161527,54,275,575,5536
1644162319.889522,-0.010193,0.00946,-0.992126,0.35826,0.447634,-0.222595,34,269,566,5584
1644162319.939672,-0.010437,0.009766,-0.994141,0.236122,0.462901,-0.298931,54,270,584,5600
1644162319.989893,-0.00946,0.006775,-0.992188,0.373527,0.478168,-0.085191,45,270,584,5472
1644162320.045914,-0.011047,0.007935,-0.992432,0.190321,0.554504,-0.161527,47,265,579,5648
1644162320.129972,-0.008728,0.007202,-0.991028,0.175053,0.371298,-0.039389,57,273,575,5536
1644162320.178323,-0.011414,0.009949,-0.995117,0.159786,0.371298,-0.069924,46,281,569,5552
1644162320.226695,-0.013245,0.007935,-0.993164,0.068183,0.401832,-0.115725,47,275,577,5520
1644162320.27534,-0.012939,0.012085,-0.990845,0.297191,0.508702,-0.14626,61,275,575,5584
1644162320.323488,-0.01062,0.011169,-0.992432,0.175053,0.294962,-0.069924,45,280,579,5584
1644162320.371889,-0.012512,0.010193,-0.99353,0.159786,0.417099,-0.085191,60,269,580,5520
1644162320.420267,-0.010742,0.008789,-0.992432,0.08345,0.432366,-0.024122,58,266,569,5536
1644162320.468673,-0.01178,0.011475,-0.991882,0.220855,0.462901,-0.115725,51,271,571,5472
1644162320.517049,-0.009155,0.009766,-0.993713,0.297191,0.340763,-0.024122,42,282,582,5584
1644162320.565453,-0.007935,0.01123,-0.989502,0.281924,0.493435,-0.024122,52,275,558,5536
1644162320.613852,-0.012634,0.009644,-0.99231,0.129252,0.401832,-0.161527,57,270,568,5584
1644162320.662248,-0.01178,0.009399,-0.99231,0.129252,0.24916,-0.054656,46,269,578,5600
1644162320.710589,-0.009766,0.011902,-0.99176,0.297191,0.432366,0.006412,48,271,576,5552
1644162320.758988,-0.012512,0.009216,-0.99176,0.144519,0.294962,-0.207328,52,275,577,5584
1644162320.807386,-0.009216,0.006104,-0.990967,0.220855,0.417099,-0.161527,46,276,580,5584
1644162320.85582,-0.011169,0.008606,-0.989624,0.129252,0.447634,-0.085191,62,279,580,5536
1644162320.904219,-0.01123,0.010742,-0.992249,0.266656,0.310229,0.036947,53,264,583,5536
1644162320.95295,-0.01123,0.00647,-0.992798,0.220855,0.371298,-0.039389,51,271,576,5584
1644162321.000982,-0.010315,0.008301,-0.990295,0.236122,0.310229,-0.176794,45,287,582,5584
1644162321.067894,-0.010925,0.012756,-0.99408,0.266656,0.432366,-0.024122,55,266,578,5584
1644162321.146127,-0.00824,0.008606,-0.994507,0.373527,0.294962,-0.176794,47,282,579,5472
1644162321.194532,-0.011536,0.009399,-0.99054,0.129252,0.447634,-0.085191,43,276,571,5584
1644162321.242913,-0.010925,0.012634,-0.990967,0.220855,0.493435,-0.115725,61,282,575,5584
1644162321.29127,-0.010986,0.00885,-0.990234,0.297191,0.417099,-0.237863,59,277,572,5584
1644162321.339672,-0.013062,0.009766,-0.991211,0.297191,0.386565,0.021679,49,285,572,5584
1644162321.388067,-0.008057,0.008972,-0.992432,0.266656,0.401832,-0.069924,48,279,566,5552
1644162321.436452,-0.010193,0.009216,-0.992859,0.205588,0.462901,-0.054656,41,271,576,5488
1644162321.484903,-0.008179,0.012329,-0.992065,0.08345,0.325496,-0.008855,58,274,578,5584
1644162321.533246,-0.010986,0.010864,-0.992615,0.388794,0.401832,-0.100458,51,283,573,5552
1644162321.581642,-0.012695,0.010315,-0.990601,0.266656,0.523969,-0.130992,55,279,564,5536
1644162321.630005,-0.011536,0.008545,-0.992188,0.297191,0.478168,-0.054656,51,274,576,5664
1644162321.678428,-0.011841,0.00946,-0.989746,0.159786,0.447634,-0.069924,48,274,576,5488
1644162321.726801,-0.007446,0.009521,-0.991638,0.327725,0.294962,-0.130992,47,265,570,5552
1644162321.775251,-0.008301,0.01178,-0.994385,0.297191,0.478168,-0.085191,51,269,571,5536
1644162321.823595,-0.012146,0.009033,-0.98999,0.266656,0.432366,-0.085191,52,268,570,5552
1644162321.872031,-0.010254,0.009094,-0.992432,0.175053,0.310229,0.082748,52,268,579,5600
1644162321.920405,-0.009766,0.009094,-0.990479,0.297191,0.325496,-0.100458,54,273,579,5520
1644162321.968781,-0.012268,0.010193,-0.993042,0.281924,0.386565,0.12855,45,270,579,5536
1644162322.017198,-0.009705,0.011169,-0.994019,0.297191,0.478168,-0.100458,55,271,569,5536
1644162322.071994,-0.008362,0.009521,-0.991272,0.08345,0.340763,-0.14626,45,275,572,5584
1644162322.117172,-0.010071,0.009338,-0.990845,0.236122,0.554504,-0.268397,46,279,578,5600
1644162322.167226,-0.010803,0.010681,-0.991028,0.236122,0.432366,-0.161527,42,275,582,5552
1644162322.211627,-0.009216,0.007141,-0.995605,0.266656,0.371298,-0.161527,53,274,569,5584
1644162322.307511,-0.008606,0.008362,-0.992126,0.175053,0.264427,-0.054656,49,265,577,5520
1644162322.355888,-0.007812,0.012878,-0.990417,0.236122,0.508702,-0.176794,58,276,569,5584
1644162322.404274,-0.008179,0.009705,-0.992249,0.190321,0.539237,-0.115725,62,257,569,5584
1644162322.452699,-0.012024,0.011902,-0.993286,0.342992,0.478168,-0.14626,49,273,577,5520
1644162322.501055,-0.011841,0.010681,-0.992615,0.281924,0.264427,-0.100458,48,269,573,5520
1644162322.549476,-0.008911,0.008789,-0.992859,0.159786,0.508702,-0.192061,52,277,570,5584
1644162322.597842,-0.009888,0.008362,-0.993164,0.113985,0.432366,-0.207328,46,276,573,5552
1644162322.646234,-0.009338,0.008606,-0.990723,0.342992,0.294962,-0.054656,48,279,571,5520
1644162322.694732,-0.012695,0.010559,-0.989807,0.175053,0.417099,-0.192061,47,280,575,5552
1644162322.74302,-0.012451,0.008728,-0.990723,0.327725,0.493435,-0.222595,49,282,570,5552
1644162322.791411,-0.009399,0.009338,-0.993347,0.220855,0.539237,-0.069924,58,271,578,5584
1644162322.839812,-0.008301,0.008484,-0.99408,0.205588,0.417099,-0.069924,45,268,577,5488
1644162322.888213,-0.012146,0.008057,-0.99292,0.266656,0.508702,-0.069924,51,274,569,5552
1644162322.936594,-0.011719,0.00708,-0.991516,0.220855,0.462901,-0.039389,47,282,579,5584
1644162322.985028,-0.009155,0.010315,-0.990112,0.220855,0.447634,-0.161527,51,269,571,5584
1644162323.045243,-0.01001,0.011108,-0.99292,0.220855,0.508702,0.006412,46,262,578,5520
1644162323.08338,-0.012573,0.010315,-0.994202,0.266656,0.432366,-0.161527,43,271,585,5584
1644162323.130111,-0.009827,0.011536,-0.992798,0.251389,0.478168,-0.054656,54,277,582,5536
1644162323.178641,-0.010498,0.008484,-0.989868,0.098718,0.203359,-0.115725,46,276,580,5632
1644162323.227593,-0.010315,0.009033,-0.993042,0.251389,0.523969,0.052214,53,276,580,5536
1644162323.278167,-0.010376,0.010376,-0.993225,0.342992,0.462901,-0.039389,54,285,575,5520
1644162323.328335,-0.009949,0.010193,-0.991028,0.159786,0.523969,-0.25313,47,275,575,5520
1644162323.373159,-0.013184,0.00885,-0.98999,0.08345,0.371298,-0.237863,52,277,589,5552
1644162323.468829,-0.013611,0.009399,-0.990906,0.251389,0.371298,-0.100458,52,273,575,5536
1644162323.517215,-0.010437,0.011719,-0.991272,0.251389,0.600305,-0.161527,51,274,583,5584
1644162323.565618,-0.01062,0.011597,-0.993347,0.35826,0.523969,-0.069924,49,268,582,5472
1644162323.614012,-0.010864,0.008728,-0.990723,0.052916,0.356031,-0.130992,51,276,569,5584
1644162323.6624,-0.009216,0.010681,-0.992859,0.175053,0.585038,-0.115725,45,268,577,5632
1644162323.710779,-0.010132,0.010803,-0.989258,0.251389,0.554504,0.052214,51,269,571,5472
1644162323.759147,-0.012756,0.010193,-0.992798,0.220855,0.447634,-0.14626,47,273,575,5552
1644162323.807615,-0.007019,0.010315,-0.990601,0.373527,0.386565,-0.115725,58,286,569,5536
1644162323.855978,-0.012634,0.01062,-0.992493,0.220855,0.371298,-0.115725,55,279,578,5536
1644162323.904409,-0.008606,0.010376,-0.994751,0.373527,0.356031,-0.161527,48,274,569,5664
1644162323.9528,-0.008179,0.006836,-0.992615,0.113985,0.386565,-0.14626,46,274,576,5536
1644162324.001173,-0.009888,0.013733,-0.993103,0.281924,0.356031,0.006412,47,275,579,5536
1644162324.064318,-0.009583,0.007935,-0.992065,0.342992,0.462901,-0.115725,53,269,576,5536
1644162324.097927,-0.009949,0.011658,-0.991272,0.312458,0.523969,-0.192061,59,275,575,5536
1644162324.146307,-0.011536,0.010986,-0.990845,0.236122,0.478168,-0.039389,48,269,578,5536
1644162324.194703,-0.012146,0.008911,-0.994995,0.175053,0.264427,0.006412,54,275,575,5536
1644162324.243094,-0.013184,0.011169,-0.993164,0.190321,0.447634,-0.085191,53,269,583,5536
1644162324.291465,-0.009888,0.01123,-0.99353,0.434595,0.386565,0.036947,48,274,578,5584
1644162324.340177,-0.012878,0.009583,-0.99292,0.205588,0.417099,-0.192061,53,266,566,5584
1644162324.389039,-0.010498,0.008423,-0.990173,0.129252,0.325496,-0.054656,55,269,580,5552
1644162324.439604,-0.009888,0.010559,-0.993103,0.220855,0.447634,-0.161527,48,274,573,5536
1644162324.489695,-0.01123,0.011292,-0.991699,0.312458,0.447634,-0.024122,58,266,576,5600
1644162324.534663,-0.008667,0.010132,-0.991272,0.098718,0.340763,-0.054656,42,268,577,5632
1644162324.630197,-0.010254,0.012268,-0.990234,0.205588,0.401832,-0.176794,54,282,570,5536
1644162324.678568,-0.012085,0.010803,-0.991028,0.205588,0.417099,0.036947,52,277,570,5584
1644162324.726947,-0.008118,0.007263,-0.992065,0.297191,0.432366,-0.192061,49,258,582,5552
1644162324.775362,-0.010193,0.008789,-0.989868,0.236122,0.493435,0.082748,48,269,573,5552
1644162324.823819,-0.012695,0.009644,-0.991882,0.220855,0.432366,-0.100458,43,276,569,5536
1644162324.872392,-0.012146,0.010681,-0.989563,0.526198,0.417099,-0.192061,41,283,580,5536
1644162324.920575,-0.009766,0.009888,-0.992615,0.205588,0.447634,-0.069924,52,270,575,5584
1644162324.968972,-0.009216,0.01062,-0.992004,0.342992,0.294962,-0.115725,49,285,572,5472
1644162325.017369,-0.011047,0.01001,-0.992859,0.190321,0.447634,0.021679,45,275,577,5552
1644162325.080994,-0.010437,0.007812,-0.992126,0.220855,0.279695,-0.176794,52,275,586,5536
1644162325.114092,-0.009827,0.013062,-0.99115,0.266656,0.493435,-0.115725,48,283,583,5600
1644162325.162501,-0.013123,0.011475,-0.990051,0.236122,0.401832,-0.14626,48,283,571,5488
1644162325.210885,-0.008667,0.010986,-0.991882,0.129252,0.401832,0.006412,58,274,571,5536
1644162325.259266,-0.010864,0.011047,-0.989929,0.08345,0.340763,-0.039389,51,269,583,5536
1644162325.307667,-0.008362,0.009216,-0.991516,0.281924,0.371298,-0.192061,54,270,589,5584
1644162325.356298,-0.01178,0.011719,-0.99176,0.159786,0.24916,-0.054656,57,270,577,5520
1644162325.406745,-0.010742,0.007202,-0.991455,0.312458,0.310229,-0.176794,54,282,579,5536
1644162325.456964,-0.012451,0.011902,-0.993408,0.266656,0.447634,0.036947,42,277,579,5536
1644162325.50247,-0.007568,0.012451,-0.991638,0.098718,0.356031,-0.085191,41,266,576,5584
1644162325.597993,-0.010803,0.011292,-0.992798,0.236122,0.478168,-0.069924,58,276,578,5520
1644162325.646371,-0.010437,0.007019,-0.992004,0.266656,0.356031,-0.192061,53,281,576,5552
1644162325.69485,-0.00946,0.011108,-0.991211,0.190321,0.432366,-0.069924,49,275,563,5600
1644162325.743169,-0.008301,0.010437,-0.988953,0.205588,0.386565,-0.192061,52,268,577,5536
1644162325.791564,-0.009155,0.009094,-0.991272,0.419328,0.462901,-0.024122,43,276,585,5536
1644162325.839998,-0.01123,0.010803,-0.991699,0.251389,0.279695,-0.054656,46,279,576,5536
1644162325.888386,-0.011597,0.011169,-0.991577,0.220855,0.432366,-0.161527,45,275,579,5536
1644162325.936772,-0.006897,0.010315,-0.990479,0.327725,0.478168,-0.14626,58,276,569,5648
1644162325.985274,-0.009888,0.008911,-0.991821,0.449863,0.478168,0.021679,49,270,582,5584
1644162326.04326,-0.007996,0.012268,-0.98999,0.236122,0.371298,-0.14626,58,271,576,5584
1644162326.081922,-0.010193,0.011292,-0.991394,0.159786,0.356031,-0.085191,53,279,571,5520
1644162326.130295,-0.012878,0.013062,-0.992249,0.175053,0.432366,-0.054656,55,281,578,5536
1644162326.178646,-0.009766,0.011414,-0.992798,0.297191,0.554504,-0.130992,41,283,578,5536
1644162326.227038,-0.013062,0.008057,-0.994141,0.129252,0.508702,-0.207328,46,274,571,5536
1644162326.275462,-0.010864,0.00946,-0.989258,0.342992,0.401832,-0.054656,47,263,575,5600
1644162326.323858,-0.008179,0.008179,-0.994141,0.266656,0.447634,-0.100458,53,283,583,5584
1644162326.372596,-0.008972,0.011475,-0.987854,0.373527,0.478168,-0.085191,49,285,575,5552
1644162326.423192,-0.012756,0.010986,-0.991638,0.297191,0.447634,-0.14626,57,282,586,5584
1644162326.473421,-0.01001,0.007874,-0.990906,0.342992,0.371298,-0.176794,47,268,586,5584
1644162326.518539,-0.008301,0.011658,-0.992188,0.098718,0.386565,-0.161527,55,271,576,5584
1644162326.614201,-0.01178,0.010193,-0.989441,0.220855,0.478168,-0.054656,49,273,582,5536
1644162326.662588,-0.008362,0.006958,-0.99176,0.007115,0.493435,-0.222595,48,276,569,5472
1644162326.710961,-0.009521,0.011292,-0.994385,0.236122,0.401832,-0.069924,54,273,563,5536
1644162326.759347,-0.01123,0.008789,-0.99353,0.190321,0.386565,0.036947,46,269,578,5536
1644162326.807735,-0.010376,0.010315,-0.99176,0.190321,0.340763,-0.14626,53,271,578,5488
1644162326.856188,-0.008667,0.011658,-0.99054,0.297191,0.371298,-0.130992,47,282,572,5536
1644162326.904629,-0.012085,0.008118,-0.994873,0.159786,0.539237,-0.130992,54,282,579,5584
1644162326.952954,-0.008728,0.011841,-0.990356,0.205588,0.401832,0.036947,60,283,571,5600
1644162327.001344,-0.007507,0.00708,-0.991333,0.190321,0.14229,-0.130992,42,270,575,5536
1644162327.054133,-0.006653,0.009521,-0.992249,0.251389,0.325496,-0.069924,49,277,584,5472
1644162327.098126,-0.010681,0.006226,-0.990601,0.449863,0.401832,-0.054656,46,271,583,5536
1644162327.146484,-0.010803,0.011108,-0.993164,0.373527,0.218626,-0.192061,53,276,576,5536
1644162327.19489,-0.011353,0.008911,-0.991821,0.388794,0.325496,-0.008855,48,274,576,5536
1644162327.243242,-0.011414,0.008606,-0.992554,0.297191,0.447634,-0.069924,53,276,573,5584
1644162327.291662,-0.007935,0.009705,-0.992615,0.175053,0.340763,-0.069924,49,282,575,5600
1644162327.340044,-0.012085,0.006958,-0.992676,0.281924,0.417099,-0.207328,60,281,571,5536
1644162327.388434,-0.008057,0.008606,-0.990479,0.205588,0.371298,-0.207328,51,276,573,5520
1644162327.436825,-0.009277,0.007263,-0.991211,0.236122,0.279695,-0.100458,53,279,566,5600
1644162327.485791,-0.009338,0.010864,-0.989136,0.236122,0.432366,-0.176794,39,266,587,5488
1644162327.537011,-0.012695,0.009399,-0.993286,0.297191,0.401832,-0.176794,43,281,573,5520
1644162327.586349,-0.01178,0.011292,-0.992493,0.007115,0.386565,-0.161527,57,280,582,5536
1644162327.631536,-0.011169,0.007996,-0.99115,0.373527,0.462901,-0.054656,51,276,576,5536
1644162327.727155,-0.009644,0.005981,-0.991516,0.327725,0.462901,-0.130992,53,271,576,5584
1644162327.775536,-0.01178,0.007263,-0.994812,0.220855,0.340763,-0.085191,52,275,572,5520
1644162327.823952,-0.012146,0.011475,-0.993896,0.281924,0.325496,-0.161527,46,276,580,5488
1644162327.872407,-0.008545,0.010315,-0.991516,0.236122,0.401832,-0.039389,39,276,566,5520
1644162327.920776,-0.009521,0.009766,-0.993835,0.297191,0.447634,-0.039389,60,264,571,5520
1644162327.969151,-0.011475,0.010864,-0.991516,0.236122,0.493435,-0.176794,53,262,571,5552
1644162328.017548,-0.011902,0.008728,-0.994385,0.281924,0.386565,-0.039389,42,277,570,5584
1644162328.072315,-0.009338,0.010864,-0.99115,0.236122,0.432366,-0.14626,45,270,570,5536
1644162328.114337,-0.009827,0.008667,-0.995361,0.266656,0.462901,-0.14626,45,273,575,5536
1644162328.162679,-0.008911,0.008728,-0.991638,0.205588,0.371298,-0.024122,52,275,579,5632
1644162328.211073,-0.010864,0.007507,-0.994385,0.144519,0.417099,-0.039389,58,271,569,5584
1644162328.259423,-0.009277,0.008179,-0.994324,0.205588,0.356031,0.036947,49,275,568,5584
1644162328.307845,-0.009827,0.00824,-0.995422,0.449863,0.386565,-0.100458,47,275,589,5472
1644162328.356217,-0.009705,0.009766,-0.992249,0.35826,0.294962,-0.100458,57,273,584,5584
1644162328.404637,-0.010986,0.008484,-0.990295,0.129252,0.523969,-0.085191,45,277,582,5552
1644162328.45303,-0.009216,0.009094,-0.991516,0.113985,0.401832,0.006412,60,259,580,5584
1644162328.501374,-0.008545,0.007141,-0.991882,0.327725,0.554504,-0.222595,52,263,575,5536
1644162328.549796,-0.009705,0.009277,-0.992126,0.220855,0.417099,-0.192061,52,273,582,5472
1644162328.598175,-0.011414,0.007324,-0.993774,0.022382,0.371298,0.006412,54,265,565,5600
1644162328.64697,-0.011353,0.010498,-0.990234,0.190321,0.417099,-0.283664,51,274,583,5584
1644162328.697154,-0.008179,0.009155,-0.992798,0.08345,0.401832,-0.161527,51,281,578,5600
1644162328.747548,-0.010193,0.010071,-0.99176,0.388794,0.340763,-0.115725,52,273,582,5584
1644162328.792413,-0.009766,0.008728,-0.990479,0.190321,0.371298,0.006412,46,271,578,5552
1644162328.888555,-0.007751,0.007874,-0.993164,0.266656,0.493435,-0.161527,54,270,575,5552
1644162328.936947,-0.007996,0.007935,-0.993103,0.190321,0.310229,-0.130992,46,264,580,5520
1644162328.985337,-0.011963,0.009644,-0.993958,0.175053,0.340763,-0.024122,51,271,578,5536
1644162329.046037,-0.009888,0.010193,-0.99231,0.35826,0.417099,-0.192061,51,279,573,5584
1644162329.08478,-0.009399,0.007324,-0.993286,0.236122,0.386565,-0.161527,52,275,579,5536
1644162329.130505,-0.010193,0.009583,-0.993713,0.251389,0.523969,-0.207328,51,283,583,5536
1644162329.178903,-0.010132,0.009399,-0.994141,0.220855,0.493435,-0.268397,48,266,580,5520
1644162329.227306,-0.008789,0.007935,-0.992798,0.281924,0.585038,-0.237863,45,273,572,5536
1644162329.275653,-0.010132,0.010193,-0.992065,0.312458,0.508702,-0.161527,46,274,571,5584
1644162329.324066,-0.012329,0.011597,-0.99646,0.236122,0.508702,-0.100458,53,279,573,5584
1644162329.372808,-0.007263,0.010742,-0.99231,0.373527,0.417099,0.036947,48,269,573,5536
1644162329.423391,-0.010803,0.009033,-0.993713,0.266656,0.371298,-0.161527,51,279,569,5648
1644162329.4737,-0.008057,0.009094,-0.992432,0.190321,0.478168,-0.085191,53,276,573,5584
1644162329.518205,-0.011902,0.009277,-0.991943,0.144519,0.462901,-0.192061,51,276,569,5552
1644162329.614405,-0.008484,0.010803,-0.992493,0.419328,0.478168,-0.069924,48,281,573,5536
1644162329.662812,-0.01123,0.00824,-0.993286,0.388794,0.478168,-0.161527,45,275,568,5552
1644162329.711189,-0.009338,0.008789,-0.993835,0.205588,0.478168,-0.008855,48,266,569,5520
1644162329.759562,-0.009521,0.009521,-0.995178,0.205588,0.371298,-0.039389,53,276,573,5536
1644162329.807968,-0.010132,0.008423,-0.991882,0.281924,0.432366,-0.100458,47,277,577,5536
1644162329.856358,-0.009521,0.010437,-0.990784,0.205588,0.478168,-0.130992,48,269,571,5600
1644162329.904765,-0.013123,0.008911,-0.994995,0.266656,0.539237,0.021679,49,268,582,5536
1644162329.95313,-0.012695,0.006897,-0.99408,0.113985,0.310229,-0.069924,47,273,570,5552
1644162330.001509,-0.009949,0.00769,-0.990723,0.342992,0.508702,-0.207328,55,274,576,5536
1644162330.054884,-0.009155,0.010437,-0.993225,0.175053,0.462901,-0.130992,45,270,582,5536
1644162330.098286,-0.009399,0.007996,-0.992126,0.190321,0.493435,-0.14626,53,274,573,5584
1644162330.14666,-0.010559,0.009644,-0.991882,0.297191,0.264427,0.021679,51,274,592,5584
1644162330.195085,-0.00885,0.011169,-0.992249,0.144519,0.371298,0.006412,53,269,569,5584
1644162330.243439,-0.009583,0.008728,-0.993103,0.342992,0.447634,-0.085191,52,268,572,5584
1644162330.291841,-0.009583,0.010437,-0.991821,0.297191,0.356031,-0.008855,46,281,573,5520
1644162330.340229,-0.010437,0.009888,-0.990173,0.327725,0.310229,-0.085191,45,275,579,5600
1644162330.388585,-0.008667,0.007812,-0.993225,0.251389,0.371298,-0.25313,46,279,578,5536
1644162330.437335,-0.008667,0.009155,-0.991943,0.144519,0.447634,-0.069924,51,279,573,5520
1644162330.486305,-0.007629,0.009766,-0.989014,0.373527,0.432366,-0.024122,54,270,565,5536
1644162330.536954,-0.008667,0.011719,-0.990601,0.205588,0.401832,0.036947,51,266,580,5584
1644162330.587072,-0.009521,0.010681,-0.99054,0.190321,0.508702,-0.008855,51,279,576,5584
1644162330.678962,-0.011414,0.005798,-0.990051,0.297191,0.325496,-0.14626,48,276,580,5488
1644162330.727326,-0.009766,0.010803,-0.991211,0.281924,0.401832,-0.237863,60,271,576,5584
1644162330.775717,-0.01001,0.007324,-0.990051,0.342992,0.325496,-0.039389,48,279,566,5552
1644162330.824158,-0.012085,0.009399,-0.993958,0.220855,0.371298,-0.237863,54,275,570,5536
1644162330.872566,-0.009399,0.008545,-0.99176,0.098718,0.508702,-0.100458,49,273,575,5536
1644162330.920939,-0.009949,0.012268,-0.993408,0.266656,0.356031,-0.100458,43,276,569,5552
1644162330.969342,-0.009521,0.01001,-0.98999,0.098718,0.417099,-0.054656,62,276,580,5536
1644162331.017715,-0.009338,0.008362,-0.992493,0.098718,0.478168,-0.008855,46,271,580,5552
1644162331.074327,-0.011719,0.010925,-0.993225,0.220855,0.386565,0.113282,54,268,572,5536
1644162331.114511,-0.008484,0.009644,-0.991699,0.098718,0.386565,-0.024122,58,269,583,5488
1644162331.162866,-0.007263,0.010315,-0.994507,0.297191,0.447634,-0.268397,52,268,572,5520
1644162331.211244,-0.010681,0.008911,-0.990784,0.175053,0.478168,-0.008855,53,274,576,5488
1644162331.259613,-0.009094,0.013184,-0.990601,0.251389,0.371298,-0.039389,52,280,572,5584
1644162331.308033,-0.012939,0.007751,-0.992004,0.175053,0.417099,-0.115725,53,286,580,5552
1644162331.356383,-0.011658,0.009827,-0.991882,0.251389,0.325496,-0.008855,51,279,573,5536
1644162331.40482,-0.008545,0.010254,-0.99292,0.342992,0.493435,-0.207328,55,276,576,5520
1644162331.453199,-0.012573,0.008606,-0.992126,0.251389,0.539237,-0.130992,47,280,582,5584
1644162331.501556,-0.013794,0.008911,-0.99115,0.098718,0.508702,0.021679,54,273,568,5584
1644162331.549964,-0.009766,0.01001,-0.991211,0.281924,0.371298,-0.100458,61,270,579,5488
1644162331.59907,-0.012329,0.009338,-0.995361,0.297191,0.478168,-0.054656,48,279,573,5552
1644162331.648976,-0.010559,0.009888,-0.991028,0.342992,0.417099,-0.115725,53,269,576,5584
1644162331.699176,-0.011108,0.010071,-0.995178,0.251389,0.371298,-0.130992,64,280,577,5536
1644162331.74424,-0.009338,0.008118,-0.991821,0.312458,0.462901,-0.039389,52,275,568,5584
1644162331.840339,-0.010742,0.009277,-0.992065,0.236122,0.447634,-0.130992,67,281,576,5536
1644162331.888743,-0.011719,0.008423,-0.994324,0.236122,0.462901,-0.130992,61,285,584,5584
1644162331.937139,-0.007263,0.009033,-0.992126,0.312458,0.294962,-0.222595,48,276,571,5536
1644162331.985516,-0.010681,0.009155,-0.9953,0.342992,0.462901,-0.024122,53,279,578,5584
1644162332.044412,-0.012573,0.009583,-0.995422,0.35826,0.356031,-0.085191,57,273,584,5536
1644162332.085522,-0.008911,0.009949,-0.992065,0.220855,0.478168,-0.008855,52,263,582,5584
1644162332.130663,-0.009216,0.012634,-0.990112,0.312458,0.340763,-0.115725,48,271,576,5584
1644162332.179043,-0.007263,0.008911,-0.994202,0.404061,0.340763,-0.176794,48,276,583,5536
1644162332.227442,-0.010925,0.007385,-0.993591,0.205588,0.294962,-0.069924,51,279,569,5536
1644162332.2758,-0.00946,0.010925,-0.989685,0.35826,0.447634,-0.115725,64,270,579,5536
1644162332.324234,-0.014648,0.007812,-0.992676,0.236122,0.493435,-0.085191,59,277,572,5584
1644162332.372613,-0.01123,0.009277,-0.993164,0.236122,0.508702,-0.14626,51,276,566,5552
1644162332.420987,-0.009766,0.012024,-0.992554,0.251389,0.371298,-0.115725,51,271,583,5536
1644162332.469378,-0.00885,0.012512,-0.991821,0.35826,0.447634,0.021679,46,274,573,5552
1644162332.517772,-0.008911,0.009705,-0.992249,0.266656,0.447634,-0.024122,49,282,577,5600
1644162332.566164,-0.013855,0.008606,-0.990967,0.266656,0.523969,0.036947,58,281,576,5536
1644162332.614542,-0.013062,0.010132,-0.99176,0.190321,0.478168,-0.115725,43,271,576,5584
1644162332.663587,-0.010315,0.00946,-0.992004,0.159786,0.325496,-0.069924,48,271,580,5536
1644162332.711993,-0.007812,0.010925,-0.992493,0.327725,0.325496,-0.085191,48,269,576,5552
1644162332.762644,-0.011353,0.010132,-0.993042,0.236122,0.417099,-0.115725,58,269,573,5552
1644162332.808503,-0.010986,0.011536,-0.991943,0.129252,0.554504,0.113282,62,269,578,5536
1644162332.85849,-0.013062,0.00946,-0.993591,0.098718,0.401832,-0.024122,41,276,578,5488
1644162332.953333,-0.009888,0.008484,-0.993103,0.266656,0.386565,0.052214,41,269,571,5600
1644162333.001697,-0.009949,0.011658,-0.992249,0.052916,0.386565,-0.100458,51,276,559,5552
1644162333.054448,-0.010864,0.009583,-0.994995,0.312458,0.447634,-0.054656,53,271,576,5552
1644162333.098433,-0.008545,0.009949,-0.990967,0.205588,0.539237,-0.192061,52,277,572,5632
1644162333.146854,-0.010681,0.011414,-0.990356,0.281924,0.401832,0.021679,45,270,577,5536
1644162333.195368,-0.007568,0.007141,-0.993469,0.251389,0.478168,-0.115725,51,283,585,5584
1644162333.243644,-0.009705,0.00708,-0.993958,0.327725,0.493435,-0.069924,54,275,572,5584
1644162333.291991,-0.011475,0.00885,-0.991516,0.144519,0.417099,-0.100458,42,270,572,5472
1644162333.340408,-0.00708,0.007202,-0.991028,0.144519,0.294962,-0.024122,55,266,564,5472
1644162333.388812,-0.011658,0.008057,-0.992371,0.297191,0.325496,-0.100458,54,268,586,5552
1644162333.437182,-0.008118,0.011169,-0.990417,0.144519,0.340763,-0.222595,46,259,578,5520
1644162333.485561,-0.01239,0.010071,-0.989807,0.266656,0.356031,-0.161527,45,280,579,5632
1644162333.533939,-0.012756,0.008545,-0.992188,0.052916,0.417099,-0.039389,47,277,579,5552
1644162333.582372,-0.007996,0.00824,-0.992798,0.205588,0.24916,-0.161527,47,270,568,5584
1644162333.63075,-0.010376,0.01001,-0.990662,0.281924,0.539237,-0.054656,49,268,577,5600
1644162333.679137,-0.007507,0.008423,-0.990967,0.251389,0.417099,-0.130992,41,288,573,5536
1644162333.727531,-0.013245,0.012512,-0.990723,0.113985,0.432366,0.021679,53,274,580,5552
1644162333.775903,-0.008789,0.009155,-0.99115,0.281924,0.508702,-0.176794,53,269,564,5584
1644162333.824667,-0.011536,0.009277,-0.993347,0.266656,0.401832,-0.100458,43,276,569,5536
1644162333.874665,-0.00708,0.011475,-0.99231,0.220855,0.325496,-0.039389,55,279,578,5488
1644162333.924785,-0.008911,0.010315,-0.99176,0.08345,0.462901,-0.115725,53,259,578,5472
1644162333.974977,-0.01062,0.009949,-0.991333,0.129252,0.447634,-0.176794,46,276,564,5552
1644162334.06876,-0.011414,0.010437,-0.991028,0.159786,0.447634,-0.130992,48,286,576,5536
1644162334.114886,-0.007996,0.007874,-0.991943,0.159786,0.386565,-0.237863,53,274,583,5584
1644162334.163055,-0.011108,0.008545,-0.994507,0.373527,0.432366,-0.085191,43,279,573,5536
1644162334.211425,-0.009888,0.010742,-0.990723,0.113985,0.401832,-0.130992,57,277,582,5552
1644162334.259823,-0.010376,0.007568,-0.990234,0.312458,0.432366,-0.222595,58,271,576,5584
1644162334.308211,-0.010254,0.008789,-0.991455,0.159786,0.386565,-0.14626,52,275,568,5536
1644162334.356588,-0.008911,0.011047,-0.991943,0.08345,0.523969,0.082748,46,274,571,5536
1644162334.405105,-0.009888,0.01178,-0.993591,0.159786,0.447634,-0.085191,42,282,579,5536
1644162334.453391,-0.01178,0.009521,-0.990234,0.220855,0.478168,-0.100458,48,274,576,5600
1644162334.501768,-0.008423,0.009399,-0.990173,0.251389,0.539237,-0.115725,48,274,571,5536
1644162334.550161,-0.012573,0.008118,-0.992004,0.159786,0.310229,-0.100458,52,277,575,5536
1644162334.59855,-0.011658,0.011414,-0.994324,0.327725,0.508702,0.052214,57,275,577,5552
1644162334.646938,-0.013367,0.00946,-0.99408,0.419328,0.523969,0.021679,49,275,579,5488
1644162334.695325,-0.010925,0.011475,-0.992981,0.251389,0.432366,-0.14626,59,270,579,5648
1644162334.743721,-0.007324,0.00946,-0.991577,0.236122,0.585038,-0.039389,45,270,589,5584
1644162334.792149,-0.011841,0.010559,-0.991333,0.175053,0.294962,-0.100458,48,271,583,5536
1644162334.840534,-0.011047,0.010254,-0.992859,0.327725,0.462901,-0.222595,55,271,576,5552
1644162334.890253,-0.006653,0.00885,-0.99115,0.35826,0.478168,-0.069924,45,265,582,5536
1644162334.940493,-0.011169,0.007446,-0.991943,0.159786,0.493435,-0.283664,52,275,586,5584
1644162334.990706,-0.008606,0.008179,-0.990601,0.266656,0.554504,-0.039389,51,271,583,5536
1644162335.060752,-0.009583,0.01001,-0.991882,0.281924,0.356031,-0.14626,45,275,586,5536
1644162335.130877,-0.012634,0.01062,-0.990845,0.297191,0.447634,-0.192061,51,274,578,5600
1644162335.179222,-0.012207,0.010864,-0.992126,0.251389,0.371298,-0.130992,55,269,580,5552
1644162335.227612,-0.012268,0.009705,-0.989746,0.205588,0.417099,-0.161527,48,274,580,5584
1644162335.275976,-0.012756,0.007385,-0.993225,0.175053,0.386565,-0.130992,59,282,570,5552
1644162335.324401,-0.009949,0.003418,-0.992188,0.220855,0.462901,-0.25313,45,280,565,5632
1644162335.372807,-0.009399,0.009766,-0.991699,0.007115,0.24916,-0.14626,43,266,569,5600
1644162335.421168,-0.010315,0.008423,-0.992126,0.144519,0.325496,0.021679,66,277,575,5552
1644162335.469564,-0.012146,0.007385,-0.99353,0.205588,0.508702,-0.069924,57,273,582,5584
1644162335.517948,-0.007996,0.010193,-0.99408,0.190321,0.386565,-0.085191,53,274,576,5584
1644162335.566364,-0.010315,0.009949,-0.992493,0.159786,0.478168,-0.069924,49,273,577,5600
1644162335.614743,-0.008118,0.009949,-0.994141,0.098718,0.401832,-0.024122,47,277,575,5536
1644162335.663165,-0.009888,0.01001,-0.99054,0.08345,0.310229,-0.130992,49,273,579,5552
1644162335.711519,-0.01123,0.008667,-0.992371,0.281924,0.432366,-0.298931,52,277,565,5536
1644162335.759887,-0.00885,0.007751,-0.99292,0.220855,0.401832,-0.024122,52,273,575,5600
1644162335.808298,-0.011719,0.007935,-0.993774,0.190321,0.447634,-0.115725,52,273,577,5536
1644162335.856731,-0.008972,0.009949,-0.992493,0.175053,0.356031,-0.100458,49,277,568,5600
1644162335.905144,-0.01123,0.00824,-0.991577,0.297191,0.478168,-0.192061,57,265,579,5536
1644162335.953844,-0.010559,0.009766,-0.992126,0.266656,0.417099,-0.054656,47,275,570,5536
1644162336.001887,-0.009155,0.008362,-0.993042,0.281924,0.386565,-0.100458,49,275,570,5536
1644162336.069424,-0.011841,0.009399,-0.989441,0.266656,0.401832,-0.054656,60,279,580,5488
1644162336.14705,-0.006836,0.010315,-0.993225,0.266656,0.432366,-0.268397,58,283,571,5536
1644162336.195397,-0.01178,0.009094,-0.992554,0.251389,0.417099,-0.054656,48,276,573,5536
1644162336.243805,-0.015198,0.009705,-0.993652,0.236122,0.340763,-0.008855,57,277,575,5584
1644162336.292388,-0.012085,0.011414,-0.993103,0.220855,0.386565,-0.14626,46,279,571,5584
1644162336.34058,-0.008179,0.009338,-0.989319,0.175053,0.371298,-0.054656,52,280,575,5552
1644162336.388967,-0.009399,0.009521,-0.993896,0.08345,0.417099,-0.085191,54,268,582,5536
1644162336.437351,-0.011475,0.007629,-0.994934,0.098718,0.325496,-0.085191,51,276,576,5536
1644162336.48575,-0.009827,0.006104,-0.992065,0.113985,0.554504,-0.115725,57,273,586,5456
1644162336.534162,-0.009583,0.009949,-0.993958,0.327725,0.478168,-0.069924,47,275,572,5600
1644162336.582563,-0.011292,0.009949,-0.991089,0.297191,0.325496,-0.039389,48,276,573,5536
1644162336.63093,-0.013916,0.008606,-0.993042,0.144519,0.310229,0.021679,59,282,577,5536
1644162336.679292,-0.014099,0.009583,-0.990356,0.297191,0.462901,-0.115725,53,266,580,5600
1644162336.727711,-0.008789,0.012268,-0.991089,0.220855,0.478168,-0.024122,43,276,578,5536
1644162336.7761,-0.012756,0.011108,-0.992065,0.113985,0.157557,-0.054656,49,277,572,5488
1644162336.824494,-0.010559,0.009338,-0.992065,0.236122,0.478168,0.159084,53,283,571,5488
1644162336.872932,-0.01001,0.010681,-0.991333,0.190321,0.417099,0.021679,57,273,579,5584
1644162336.921285,-0.010986,0.009094,-0.991089,0.281924,0.462901,-0.161527,52,280,577,5536
1644162336.970074,-0.010742,0.011292,-0.992004,0.098718,0.462901,-0.161527,48,281,580,5552
1644162337.018085,-0.011108,0.012085,-0.993225,0.144519,0.478168,-0.130992,48,271,576,5536
1644162337.077568,-0.01123,0.006775,-0.992981,0.297191,0.325496,-0.085191,46,281,580,5488
1644162337.120405,-0.010437,0.009583,-0.990967,0.190321,0.417099,-0.054656,58,276,573,5600
1644162337.164798,-0.013,0.011963,-0.992676,0.205588,0.447634,0.098015,53,279,564,5520
1644162337.260017,-0.010437,0.011353,-0.993103,0.297191,0.478168,-0.069924,52,275,565,5584
1644162337.308394,-0.010254,0.01062,-0.990906,0.144519,0.356031,-0.069924,51,264,571,5536
1644162337.356792,-0.014282,0.007507,-0.992676,0.251389,0.386565,-0.115725,48,271,578,5488
1644162337.405197,-0.00885,0.009033,-0.991272,0.266656,0.294962,-0.054656,60,269,571,5552
1644162337.453604,-0.010498,0.006226,-0.992004,0.129252,0.310229,-0.161527,48,274,578,5584
1644162337.501957,-0.011169,0.008972,-0.993103,0.236122,0.371298,0.021679,55,276,576,5536
1644162337.55038,-0.009705,0.009521,-0.991455,0.312458,0.462901,-0.069924,45,277,575,5552
1644162337.598768,-0.011047,0.009705,-0.993042,0.175053,0.462901,-0.115725,45,282,579,5536
1644162337.647165,-0.011841,0.009338,-0.992126,0.373527,0.371298,-0.008855,48,271,571,5536
1644162337.695558,-0.010376,0.008606,-0.991821,0.205588,0.401832,-0.14626,46,269,576,5584
1644162337.743933,-0.014099,0.009521,-0.994141,0.129252,0.386565,0.036947,48,266,576,5536
1644162337.79235,-0.010498,0.009338,-0.990967,0.129252,0.310229,-0.192061,47,270,565,5520
1644162337.84071,-0.009155,0.01062,-0.992065,0.175053,0.386565,-0.161527,53,266,573,5552
1644162337.889097,-0.011353,0.012268,-0.991699,0.190321,0.432366,0.006412,53,279,587,5552
1644162337.937459,-0.010559,0.00824,-0.991699,0.281924,0.401832,-0.375267,42,277,575,5552
1644162337.985884,-0.009705,0.009155,-0.991028,0.205588,0.478168,-0.085191,51,274,576,5536
1644162338.045022,-0.008118,0.008789,-0.990906,0.35826,0.386565,-0.054656,42,277,577,5536
1644162338.084504,-0.009766,0.009216,-0.993896,0.144519,0.417099,0.006412,46,269,587,5536
1644162338.133139,-0.01123,0.01062,-0.993713,0.236122,0.386565,-0.039389,53,269,583,5536
1644162338.183397,-0.011414,0.011047,-0.991455,0.281924,0.447634,-0.069924,48,276,578,5584
1644162338.228147,-0.012634,0.012024,-0.98877,0.404061,0.462901,-0.14626,43,286,580,5536
1644162338.324842,-0.006836,0.007935,-0.992249,0.251389,0.462901,-0.176794,49,273,577,5536
1644162338.372967,-0.009155,0.008423,-0.991394,0.281924,0.356031,-0.130992,55,269,583,5520
1644162338.421342,-0.01062,0.009399,-0.992249,0.297191,0.447634,-0.222595,55,274,573,5584
1644162338.469728,-0.012146,0.009277,-0.989136,0.35826,0.417099,-0.085191,48,269,583,5536
1644162338.518141,-0.014038,0.009644,-0.99292,0.190321,0.508702,-0.008855,54,277,575,5536
1644162338.566495,-0.008301,0.00946,-0.993225,0.251389,0.478168,-0.161527,47,275,579,5600
1644162338.614902,-0.011353,0.01123,-0.990479,0.327725,0.478168,-0.069924,53,276,580,5536
1644162338.663311,-0.012268,0.008484,-0.992065,0.251389,0.462901,-0.25313,61,265,582,5536
1644162338.711707,-0.010925,0.011475,-0.991028,0.113985,0.371298,-0.100458,42,268,572,5520
1644162338.760083,-0.01178,0.010742,-0.990234,0.220855,0.417099,-0.237863,48,271,578,5632
1644162338.808516,-0.010742,0.010437,-0.99176,0.113985,0.279695,-0.024122,46,271,580,5552
1644162338.856896,-0.01001,0.012756,-0.991211,0.297191,0.340763,-0.207328,57,265,579,5552
1644162338.905298,-0.01123,0.012085,-0.991333,0.266656,0.340763,-0.176794,52,273,579,5552
1644162338.953687,-0.010681,0.01001,-0.98999,0.281924,0.447634,-0.130992,54,280,582,5536
1644162339.002049,-0.013,0.010315,-0.993774,0.266656,0.554504,-0.130992,57,265,582,5584
1644162339.073574,-0.012817,0.008179,-0.991699,0.342992,0.447634,-0.207328,57,282,577,5536
1644162339.098802,-0.012878,0.008179,-0.99353,0.251389,0.478168,-0.115725,54,270,570,5536
1644162339.147211,-0.010315,0.007751,-0.99292,0.312458,0.447634,-0.14626,45,270,579,5536
1644162339.196085,-0.011292,0.009399,-0.992676,0.35826,0.356031,-0.069924,59,277,579,5536
1644162339.246146,-0.01062,0.012573,-0.992126,0.129252,0.478168,-0.069924,52,285,570,5536
1644162339.296513,-0.012268,0.008667,-0.99054,0.327725,0.432366,-0.100458,47,270,579,5584
1644162339.341427,-0.010315,0.009644,-0.993103,0.266656,0.294962,-0.069924,61,280,568,5520
1644162339.437521,-0.010376,0.007629,-0.991821,0.175053,0.401832,-0.130992,52,277,579,5488
1644162339.485929,-0.009094,0.006653,-0.99353,0.281924,0.279695,-0.100458,60,264,571,5520
1644162339.534347,-0.01355,0.010254,-0.991089,0.236122,0.386565,-0.314198,55,274,569,5552
1644162339.582706,-0.00946,0.009949,-0.991455,0.266656,0.24916,-0.069924,46,276,578,5472
1644162339.631102,-0.01123,0.011536,-0.992004,0.144519,0.340763,-0.176794,41,281,573,5536
1644162339.679473,-0.010376,0.01001,-0.990906,0.266656,0.325496,-0.14626,45,277,582,5536
1644162339.727879,-0.009033,0.010315,-0.988586,0.205588,0.371298,-0.161527,57,268,577,5584
1644162339.776263,-0.010071,0.008545,-0.991028,0.388794,0.401832,-0.161527,51,266,580,5536
1644162339.824811,-0.009766,0.007202,-0.991516,0.220855,0.508702,-0.14626,48,276,578,5584
1644162339.873099,-0.008972,0.008301,-0.99408,0.175053,0.371298,-0.054656,55,271,571,5552
1644162339.921472,-0.007324,0.009399,-0.992737,0.266656,0.340763,-0.130992,47,273,577,5536
1644162339.969877,-0.009155,0.009277,-0.986267,0.281924,0.493435,-0.054656,58,276,571,5424
1644162340.018275,-0.008301,0.01239,-0.993225,0.220855,0.401832,-0.069924,52,270,570,5584
1644162340.074902,-0.008667,0.009094,-0.992493,0.35826,0.447634,-0.207328,51,271,583,5552
1644162340.115131,-0.010864,0.010132,-0.987366,0.312458,0.325496,0.021679,42,285,579,5536
1644162340.163399,-0.007935,0.007324,-0.993469,0.312458,0.417099,-0.176794,49,273,579,5488
1644162340.211788,-0.01062,0.008667,-0.991333,0.266656,0.371298,-0.192061,52,275,575,5584
1644162340.260164,-0.011902,0.006897,-0.990723,0.205588,0.447634,-0.024122,58,269,571,5520
1644162340.308578,-0.00946,0.009949,-0.989685,0.266656,0.356031,-0.176794,52,277,575,5584
1644162340.357703,-0.013123,0.007568,-0.991028,0.098718,0.493435,-0.176794,55,271,576,5552
1644162340.408278,-0.012573,0.007935,-0.987915,0.220855,0.401832,-0.192061,62,276,571,5552
1644162340.45845,-0.012024,0.010071,-0.993286,0.205588,0.539237,-0.008855,48,274,587,5536
1644162340.503312,-0.009705,0.010254,-0.992065,0.312458,0.279695,-0.192061,54,275,577,5600
1644162340.598893,-0.010559,0.01178,-0.993103,0.342992,0.417099,-0.054656,55,266,578,5552
1644162340.647277,-0.009155,0.010498,-0.991577,0.251389,0.24916,-0.054656,60,279,585,5552
1644162340.695673,-0.010132,0.007812,-0.993042,0.297191,0.310229,-0.100458,48,279,578,5552
1644162340.744066,-0.013184,0.010071,-0.989075,0.220855,0.340763,-0.176794,48,281,580,5584
1644162340.792483,-0.01239,0.009216,-0.989624,0.388794,0.447634,-0.069924,40,265,577,5600
1644162340.840895,-0.011902,0.008057,-0.989929,0.190321,0.417099,-0.222595,45,273,565,5472
1644162340.889284,-0.012146,0.009644,-0.993042,0.251389,0.493435,-0.161527,48,266,569,5600
1644162340.937677,-0.012207,0.009888,-0.99353,0.205588,0.371298,-0.069924,48,271,573,5584
1644162340.986063,-0.011841,0.01062,-0.989685,0.129252,0.371298,-0.207328,52,270,570,5584
1644162341.047146,-0.013672,0.008484,-0.98938,0.205588,0.233893,-0.069924,53,279,587,5648
1644162341.085216,-0.012512,0.010376,-0.992188,0.175053,0.386565,-0.14626,55,271,576,5584
1644162341.13118,-0.010193,0.008545,-0.993591,0.327725,0.447634,-0.207328,58,269,585,5584
1644162341.179592,-0.010986,0.008423,-0.990906,0.190321,0.462901,0.006412,46,279,583,5536
1644162341.22797,-0.011047,0.01239,-0.991821,0.205588,0.325496,-0.115725,48,274,576,5536
1644162341.276362,-0.016602,0.010132,-0.994568,0.312458,0.310229,-0.024122,51,283,573,5584
1644162341.32476,-0.009644,0.006592,-0.991394,0.297191,0.401832,-0.207328,47,275,584,5536
1644162341.373166,-0.010315,0.008667,-0.99231,0.113985,0.233893,-0.039389,57,280,579,5536
1644162341.421532,-0.011292,0.007019,-0.993835,0.266656,0.401832,-0.176794,51,274,573,5536
1644162341.469926,-0.008118,0.00946,-0.994751,0.022382,0.356031,-0.085191,53,279,580,5584
1644162341.518813,-0.01123,0.009521,-0.991943,0.281924,0.386565,-0.14626,48,269,592,5600
1644162341.569028,-0.011414,0.011597,-0.991699,0.190321,0.401832,-0.14626,55,266,578,5584
1644162341.61936,-0.007568,0.008972,-0.991516,0.327725,0.508702,-0.130992,53,276,578,5584
1644162341.664285,-0.009521,0.007874,-0.992065,0.129252,0.401832,-0.161527,52,268,579,5552
1644162341.760228,-0.011536,0.008179,-0.989075,0.266656,0.478168,-0.25313,49,273,568,5552
1644162341.808641,-0.007996,0.009033,-0.99176,0.35826,0.340763,-0.192061,51,276,580,5488
1644162341.85709,-0.010681,0.010681,-0.990417,0.236122,0.325496,-0.100458,58,271,576,5584
1644162341.905487,-0.01001,0.009277,-0.990723,0.068183,0.478168,-0.069924,43,279,573,5584
1644162341.953875,-0.009705,0.009094,-0.990967,0.281924,0.310229,-0.024122,46,271,573,5552
1644162342.002248,-0.008972,0.009888,-0.99054,0.190321,0.294962,-0.14626,42,265,572,5552
1644162342.053345,-0.012451,0.010376,-0.991943,0.144519,0.279695,-0.085191,47,273,575,5584
1644162342.099044,-0.009583,0.009827,-0.989746,0.236122,0.325496,-0.192061,61,280,579,5536
1644162342.147391,-0.011353,0.011841,-0.989868,0.190321,0.447634,0.021679,51,269,571,5536
1644162342.195773,-0.007996,0.008728,-0.99054,0.251389,0.569771,-0.161527,54,270,572,5552
1644162342.244171,-0.010437,0.009583,-0.991516,0.205588,0.523969,-0.192061,48,276,578,5536
1644162342.292537,-0.00708,0.009888,-0.993408,0.175053,0.432366,-0.100458,48,279,592,5552
1644162342.340944,-0.010681,0.010132,-0.990479,0.251389,0.24916,-0.039389,46,279,573,5600
1644162342.38934,-0.010437,0.009705,-0.990417,0.251389,0.462901,-0.039389,46,279,576,5584
1644162342.437727,-0.010742,0.010071,-0.993164,0.327725,0.508702,-0.161527,60,281,585,5536
1644162342.486116,-0.009399,0.009766,-0.992676,0.175053,0.386565,-0.085191,42,270,572,5536
1644162342.534506,-0.010864,0.008911,-0.991272,0.266656,0.401832,-0.130992,48,286,576,5472
1644162342.582917,-0.009583,0.009644,-0.991577,0.388794,0.401832,-0.298931,52,280,570,5520
1644162342.631278,-0.010498,0.011047,-0.992065,0.205588,0.447634,-0.085191,48,274,573,5536
1644162342.679827,-0.011169,0.009033,-0.992981,0.236122,0.417099,-0.100458,57,268,575,5664
1644162342.730106,-0.00946,0.010498,-0.994263,0.312458,0.325496,-0.054656,54,275,577,5536
1644162342.780395,-0.010681,0.012695,-0.992493,-0.038687,0.493435,-0.161527,51,279,576,5584
1644162342.826075,-0.007446,0.008362,-0.993042,0.068183,0.478168,-0.054656,60,281,571,5536
1644162342.921678,-0.010742,0.00946,-0.991333,0.342992,0.462901,-0.14626,48,279,576,5488
1644162342.970072,-0.010193,0.008911,-0.991577,0.129252,0.310229,-0.161527,40,280,582,5584
1644162343.018456,-0.009583,0.008179,-0.991638,0.312458,0.386565,-0.130992,57,277,563,5552
1644162343.067175,-0.012817,0.010071,-0.993225,0.205588,0.340763,-0.176794,60,269,585,5584
1644162343.115235,-0.006531,0.011108,-0.989075,0.159786,0.432366,-0.314198,48,266,576,5536
1644162343.163583,-0.011047,0.010864,-0.994202,0.144519,0.340763,-0.130992,53,271,573,5600
1644162343.21197,-0.011963,0.008423,-0.992981,0.098718,0.462901,0.006412,49,282,572,5632
1644162343.260338,-0.012695,0.009277,-0.99292,0.327725,0.325496,-0.085191,54,277,577,5536
1644162343.308757,-0.008362,0.007629,-0.992981,0.373527,0.371298,-0.283664,45,273,565,5488
1644162343.357138,-0.008972,0.007874,-0.992859,0.220855,0.523969,-0.237863,55,271,580,5600
1644162343.405528,-0.006775,0.012207,-0.992126,0.266656,0.340763,-0.024122,52,268,572,5488
1644162343.453928,-0.011292,0.00885,-0.992249,0.297191,0.447634,-0.085191,53,276,583,5472
1644162343.50233,-0.007507,0.00769,-0.992188,0.404061,0.356031,-0.039389,48,281,578,5552
1644162343.550706,-0.008179,0.009827,-0.991699,0.388794,0.462901,-0.176794,58,276,573,5488
1644162343.599066,-0.013184,0.00946,-0.990967,0.175053,0.417099,-0.14626,53,274,585,5584
1644162343.647469,-0.009827,0.00946,-0.989746,0.342992,0.325496,0.006412,42,290,572,5584
1644162343.695861,-0.011658,0.008484,-0.993835,0.113985,0.386565,-0.283664,54,287,579,5536
1644162343.744254,-0.006653,0.011536,-0.988892,0.251389,0.417099,-0.069924,49,275,579,5520
1644162343.792754,-0.010437,0.009216,-0.989136,0.281924,0.386565,-0.25313,60,274,573,5520
1644162343.84293,-0.009033,0.007812,-0.991516,0.327725,0.432366,-0.25313,49,270,575,5552
1644162343.893095,-0.011536,0.011841,-0.991455,0.342992,0.493435,-0.25313,46,279,583,5552
1644162343.943342,-0.007996,0.009521,-0.991211,0.327725,0.233893,-0.024122,42,277,577,5536
1644162343.98806,-0.012634,0.008118,-0.992859,0.175053,0.432366,-0.161527,45,273,577,5536
1644162344.084976,-0.009827,0.006775,-0.99115,0.190321,0.310229,-0.192061,54,273,584,5600
1644162344.131398,-0.00885,0.009583,-0.993469,0.327725,0.340763,-0.100458,51,276,580,5552
1644162344.179755,-0.011108,0.011414,-0.990173,0.175053,0.386565,-0.25313,46,274,573,5552
1644162344.228156,-0.008057,0.009521,-0.989563,0.144519,0.264427,-0.130992,60,281,571,5600
1644162344.276529,-0.008911,0.008667,-0.993347,0.236122,0.432366,-0.054656,53,274,566,5600
1644162344.324988,-0.008667,0.009521,-0.993042,0.068183,0.386565,-0.100458,52,273,572,5584
1644162344.373332,-0.011047,0.009338,-0.992737,0.281924,0.371298,-0.024122,45,275,563,5584
1644162344.421731,-0.010315,0.010071,-0.991943,0.205588,0.417099,-0.085191,55,271,578,5584
1644162344.470114,-0.008911,0.007996,-0.991089,0.205588,0.401832,-0.130992,61,277,568,5536
1644162344.518508,-0.008728,0.009338,-0.990356,0.251389,0.508702,-0.115725,55,271,569,5584
1644162344.566892,-0.010193,0.012756,-0.99176,0.251389,0.447634,-0.161527,48,276,578,5600
1644162344.61529,-0.009094,0.009216,-0.99353,0.404061,0.447634,-0.14626,54,273,570,5520
1644162344.663633,-0.010681,0.010742,-0.995544,0.327725,0.401832,-0.237863,53,274,571,5584
1644162344.712048,-0.01178,0.007812,-0.992798,0.236122,0.508702,-0.161527,43,279,583,5584
1644162344.760426,-0.009949,0.010864,-0.989075,0.175053,0.325496,0.021679,54,273,579,5472
1644162344.808843,-0.009033,0.008972,-0.990417,0.144519,0.340763,-0.054656,53,276,576,5600
1644162344.8576,-0.010254,0.010681,-0.990295,0.251389,0.539237,-0.054656,52,280,575,5520
1644162344.905695,-0.008057,0.011475,-0.993225,0.144519,0.462901,-0.207328,53,269,576,5536
1644162344.955101,-0.011963,0.009155,-0.990601,0.449863,0.325496,-0.039389,48,276,569,5584
1644162345.00518,-0.007629,0.011719,-0.99231,0.159786,0.325496,-0.024122,42,273,577,5536
1644162345.077402,-0.009033,0.008179,-0.993958,0.251389,0.401832,-0.039389,46,271,576,5520
1644162345.100424,-0.012024,0.007202,-0.990356,0.327725,0.478168,-0.237863,49,277,572,5536
1644162345.195974,-0.007507,0.01062,-0.991028,0.251389,0.417099,-0.25313,55,271,580,5488
1644162345.2444,-0.012085,0.009766,-0.989685,0.251389,0.24916,-0.085191,54,275,577,5584
1644162345.292764,-0.010193,0.01001,-0.991089,0.251389,0.24916,-0.100458,49,285,575,5584
1644162345.341164,-0.008789,0.009827,-0.992371,0.190321,0.569771,-0.161527,55,269,576,5472
1644162345.389548,-0.01001,0.010986,-0.992676,0.35826,0.478168,-0.237863,46,269,576,5552
1644162345.437955,-0.010132,0.009888,-0.989563,0.266656,0.24916,0.006412,48,286,573,5584
1644162345.486338,-0.007629,0.01001,-0.989868,0.129252,0.279695,-0.069924,58,276,573,5520
1644162345.534754,-0.00946,0.010254,-0.991089,0.08345,0.310229,-0.100458,62,274,569,5584
1644162345.583134,-0.012756,0.008179,-0.990662,0.327725,0.417099,-0.069924,51,264,571,5552
1644162345.631506,-0.010376,0.010681,-0.990845,0.220855,0.447634,0.006412,49,273,575,5552
1644162345.679856,-0.011047,0.010681,-0.989746,0.190321,0.340763,0.021679,55,274,580,5552
1644162345.728293,-0.011719,0.010315,-0.991516,0.297191,0.523969,-0.161527,45,277,575,5536
1644162345.776673,-0.009094,0.007751,-0.992126,0.190321,0.508702,-0.25313,53,274,587,5584
1644162345.825106,-0.009094,0.009521,-0.989807,0.312458,0.508702,-0.039389,53,276,580,5552
1644162345.873468,-0.010742,0.010925,-0.990906,0.266656,0.340763,-0.14626,43,279,583,5536
1644162345.921845,-0.010315,0.00769,-0.988464,0.220855,0.386565,-0.115725,55,286,576,5520
1644162345.970233,-0.010376,0.011719,-0.993958,0.388794,0.401832,-0.100458,48,266,580,5552
1644162346.018978,-0.00885,0.009277,-0.991516,0.08345,0.356031,-0.176794,54,277,575,5552
1644162346.075496,-0.009277,0.008606,-0.99115,0.327725,0.447634,-0.039389,49,282,584,5536
1644162346.12115,-0.010437,0.011169,-0.990845,0.327725,0.462901,-0.115725,42,273,579,5584
1644162346.16547,-0.010254,0.010132,-0.992065,0.159786,0.340763,-0.085191,51,279,571,5536
1644162346.260571,-0.009888,0.011475,-0.992249,0.113985,0.447634,-0.069924,52,268,582,5584
1644162346.308958,-0.010681,0.009583,-0.989929,0.175053,0.493435,-0.14626,53,274,576,5536
1644162346.357349,-0.011536,0.008423,-0.991455,0.098718,0.417099,0.021679,40,275,572,5520
1644162346.405744,-0.00885,0.011169,-0.988403,0.251389,0.493435,-0.100458,48,281,583,5584
1644162346.454161,-0.010193,0.010498,-0.99292,0.297191,0.478168,0.006412,53,276,578,5552
1644162346.502519,-0.01001,0.009705,-0.991089,0.388794,0.478168,-0.161527,47,275,572,5552
1644162346.550919,-0.010315,0.007202,-0.993591,0.327725,0.310229,-0.069924,46,293,573,5536
1644162346.599309,-0.010986,0.00885,-0.990173,0.297191,0.294962,-0.069924,52,270,575,5536
1644162346.647696,-0.010742,0.009521,-0.989624,0.022382,0.310229,-0.130992,54,268,577,5536
1644162346.696089,-0.01355,0.009827,-0.991272,0.220855,0.478168,-0.237863,58,269,571,5600
1644162346.744493,-0.012512,0.010315,-0.991882,0.129252,0.508702,-0.222595,47,273,570,5552
1644162346.792884,-0.012634,0.009338,-0.992981,0.129252,0.417099,-0.222595,55,271,587,5648
1644162346.841269,-0.010376,0.012207,-0.993774,0.190321,0.340763,-0.024122,54,273,582,5552
1644162346.889652,-0.00885,0.009705,-0.992798,0.236122,0.432366,-0.069924,43,279,580,5584
1644162346.938053,-0.01062,0.006714,-0.992615,0.159786,0.386565,-0.054656,58,266,580,5584
1644162346.986431,-0.010071,0.010498,-0.993286,0.144519,0.401832,-0.069924,49,270,577,5584
1644162347.052261,-0.009949,0.009705,-0.993042,0.35826,0.356031,-0.100458,54,275,579,5584
1644162347.08478,-0.008362,0.009399,-0.991089,0.312458,0.493435,-0.130992,57,280,584,5664
1644162347.131886,-0.008484,0.009277,-0.990479,0.205588,0.279695,-0.207328,47,270,570,5552
1644162347.182738,-0.010803,0.009277,-0.992615,0.175053,0.371298,-0.14626,51,269,578,5584
1644162347.232893,-0.009705,0.010437,-0.990479,0.388794,0.447634,-0.130992,47,270,584,5584
1644162347.277913,-0.00946,0.009216,-0.992493,0.159786,0.386565,-0.039389,51,281,571,5552
1644162347.373514,-0.010315,0.010376,-0.989563,0.159786,0.340763,-0.192061,52,273,570,5584
1644162347.421902,-0.014587,0.010437,-0.992126,0.220855,0.462901,-0.115725,53,279,569,5584
1644162347.470293,-0.012207,0.009521,-0.99115,0.373527,0.478168,-0.14626,46,274,578,5552
1644162347.518682,-0.011353,0.008728,-0.98938,0.266656,0.417099,-0.14626,51,276,576,5536
1644162347.567062,-0.008301,0.01001,-0.99231,0.236122,0.447634,-0.329466,52,280,575,5520
1644162347.615444,-0.009766,0.010681,-0.99115,0.342992,0.462901,-0.085191,41,276,576,5552
1644162347.663858,-0.01178,0.009521,-0.993469,0.297191,0.310229,0.021679,55,271,576,5584
1644162347.712256,-0.008057,0.010986,-0.992981,0.281924,0.432366,0.098015,49,285,570,5536
1644162347.760632,-0.007324,0.008667,-0.993896,0.342992,0.478168,-0.069924,40,275,570,5552
1644162347.809067,-0.011047,0.012085,-0.988708,0.129252,0.401832,-0.14626,51,266,573,5520
1644162347.857465,-0.008972,0.012695,-0.991333,0.205588,0.310229,-0.25313,41,281,578,5584
1644162347.905852,-0.009155,0.01001,-0.991699,0.113985,0.447634,-0.085191,52,263,575,5552
1644162347.95425,-0.008789,0.010193,-0.989868,0.312458,0.386565,-0.085191,42,275,570,5536
1644162348.002597,-0.008118,0.010681,-0.995056,0.266656,0.493435,0.021679,47,277,572,5584
1644162348.070571,-0.006348,0.008667,-0.993408,0.220855,0.401832,-0.176794,45,271,576,5536
1644162348.099369,-0.008057,0.009949,-0.99408,0.281924,0.218626,0.021679,47,282,577,5552
1644162348.147758,-0.010193,0.011047,-0.992493,0.266656,0.462901,-0.008855,58,276,578,5584
1644162348.196137,-0.013245,0.008789,-0.992737,0.144519,0.279695,-0.14626,52,268,579,5552
1644162348.244517,-0.007385,0.011047,-0.990112,0.113985,0.447634,-0.192061,58,279,578,5584
1644162348.293224,-0.010864,0.011902,-0.992126,0.327725,0.386565,-0.100458,45,268,568,5536
1644162348.343852,-0.011414,0.00946,-0.992188,0.266656,0.325496,-0.085191,54,273,579,5584
1644162348.393925,-0.010498,0.008179,-0.990356,0.35826,0.462901,-0.024122,52,270,584,5536
1644162348.439092,-0.009949,0.008057,-0.991272,0.068183,0.310229,-0.14626,54,273,570,5552
1644162348.534859,-0.010376,0.011108,-0.991333,0.236122,0.325496,-0.115725,48,264,576,5488
1644162348.583264,-0.00946,0.008789,-0.992493,0.205588,0.493435,-0.161527,55,276,573,5536
1644162348.631646,-0.00885,0.010986,-0.992737,0.220855,0.386565,-0.36,55,271,566,5552
1644162348.680036,-0.010193,0.00824,-0.992798,0.342992,0.279695,-0.14626,57,280,570,5600
1644162348.728416,-0.011292,0.010376,-0.990112,0.129252,0.417099,0.036947,47,275,591,5600
1644162348.776813,-0.012573,0.011658,-0.992676,0.266656,0.371298,-0.054656,47,275,582,5520
1644162348.825246,-0.01001,0.01123,-0.987976,0.266656,0.279695,-0.039389,48,279,576,5584
1644162348.873641,-0.012146,0.008545,-0.989868,0.419328,0.401832,-0.039389,52,273,584,5520
1644162348.922033,-0.010498,0.009644,-0.990417,0.312458,0.340763,-0.14626,49,270,579,5648
1644162348.970432,-0.012207,0.010193,-0.990662,0.220855,0.462901,-0.176794,40,285,572,5488
1644162349.018807,-0.008606,0.010986,-0.992981,0.312458,0.325496,-0.024122,57,273,575,5584
1644162349.073583,-0.01062,0.008911,-0.990417,0.236122,0.417099,-0.115725,51,279,578,5520
1644162349.115548,-0.00824,0.011414,-0.992981,0.342992,0.417099,-0.161527,51,286,576,5600
1644162349.16395,-0.008606,0.014038,-0.991943,0.159786,0.462901,-0.100458,62,264,573,5536
1644162349.212346,-0.009338,0.009521,-0.990417,0.251389,0.340763,-0.176794,47,287,568,5552
1644162349.260716,-0.008301,0.010132,-0.992981,0.281924,0.340763,-0.039389,53,271,580,5536
1644162349.309112,-0.008667,0.010803,-0.994629,0.312458,0.432366,-0.161527,42,277,572,5584
1644162349.35786,-0.010071,0.011963,-0.993286,0.08345,0.371298,-0.115725,62,276,583,5584
1644162349.408282,-0.009338,0.013733,-0.987732,0.327725,0.447634,-0.25313,46,269,569,5536
1644162349.458492,-0.01178,0.00824,-0.993225,0.205588,0.203359,-0.085191,58,264,573,5536
1644162349.551075,-0.008667,0.011597,-0.990845,0.236122,0.615573,-0.130992,54,285,568,5536
1644162349.599435,-0.009949,0.010254,-0.990967,0.236122,0.432366,-0.268397,57,268,579,5536
1644162349.647831,-0.009766,0.010986,-0.98938,0.175053,0.340763,-0.176794,46,276,569,5520
1644162349.696194,-0.010742,0.011963,-0.993103,0.236122,0.340763,-0.100458,53,269,573,5536
1644162349.744655,-0.009644,0.010437,-0.98877,0.205588,0.371298,-0.069924,46,279,564,5584
1644162349.79303,-0.009216,0.008728,-0.991455,0.159786,0.432366,-0.115725,54,275,568,5552
1644162349.841428,-0.008667,0.009338,-0.990051,0.312458,0.127023,-0.100458,51,276,578,5536
1644162349.889829,-0.011658,0.009766,-0.992188,0.144519,0.233893,-0.039389,53,259,569,5520
1644162349.938227,-0.009705,0.009644,-0.99231,0.144519,0.401832,-0.069924,55,281,576,5584
1644162349.986608,-0.011108,0.009949,-0.991211,0.068183,0.294962,-0.130992,46,274,571,5520
1644162350.048154,-0.012329,0.010437,-0.991455,0.251389,0.447634,-0.039389,52,268,586,5536
1644162350.084794,-0.010132,0.009094,-0.988892,0.388794,0.417099,-0.237863,48,279,585,5600
1644162350.131739,-0.007446,0.010681,-0.992065,0.297191,0.310229,-0.161527,47,275,568,5520
1644162350.180125,-0.008667,0.008545,-0.995056,0.175053,0.447634,-0.054656,45,268,577,5520
1644162350.228526,-0.011963,0.009705,-0.992676,0.373527,0.340763,-0.130992,57,273,579,5584
1644162350.276911,-0.010071,0.008301,-0.991333,0.159786,0.478168,-0.085191,47,282,575,5520
1644162350.325298,-0.008972,0.010315,-0.991455,0.251389,0.462901,-0.008855,57,270,572,5552
1644162350.373842,-0.00824,0.01062,-0.99408,0.327725,0.462901,-0.100458,47,273,589,5600
1644162350.424391,-0.012146,0.008057,-0.993469,0.144519,0.24916,-0.237863,57,292,577,5488
1644162350.475026,-0.007874,0.009277,-0.990906,0.159786,0.279695,-0.024122,59,275,579,5648
1644162350.519654,-0.011047,0.010986,-0.98938,0.159786,0.493435,-0.130992,46,269,576,5552
1644162350.615615,-0.00946,0.010681,-0.990234,0.144519,0.401832,-0.100458,51,281,578,5488
1644162350.664048,-0.011963,0.008118,-0.99176,0.144519,0.401832,0.006412,57,275,570,5552
1644162350.712405,-0.010437,0.010986,-0.991882,0.236122,0.447634,-0.054656,47,268,582,5536
1644162350.760781,-0.011902,0.009277,-0.995361,0.251389,0.417099,-0.115725,47,273,577,5536
1644162350.809195,-0.00824,0.010193,-0.991211,0.297191,0.172824,-0.161527,49,273,575,5584
1644162350.857626,-0.010559,0.010132,-0.992004,0.144519,0.371298,-0.237863,40,273,579,5584
1644162350.90601,-0.009827,0.009949,-0.992004,0.449863,0.401832,-0.130992,62,276,569,5552
1644162350.954384,-0.008545,0.010376,-0.992798,0.236122,0.462901,0.036947,48,274,578,5584
1644162351.002776,-0.01062,0.009705,-0.991028,0.175053,0.585038,-0.069924,46,279,573,5472
1644162351.05125,-0.010681,0.011658,-0.993225,0.205588,0.523969,-0.222595,41,266,576,5584
1644162351.099581,-0.010132,0.010498,-0.990906,0.312458,0.294962,-0.161527,47,268,579,5536
1644162351.147938,-0.009644,0.009827,-0.990051,0.175053,0.356031,-0.039389,53,281,564,5600
1644162351.196322,-0.00946,0.008667,-0.98938,0.068183,0.417099,0.12855,51,288,573,5536
1644162351.24471,-0.009583,0.010498,-0.990234,0.251389,0.310229,-0.222595,48,286,583,5552
1644162351.293082,-0.009766,0.009766,-0.987915,0.236122,0.462901,-0.054656,61,277,577,5584
1644162351.341505,-0.010132,0.011475,-0.992249,0.236122,0.462901,0.006412,51,293,573,5552
1644162351.389885,-0.009705,0.010254,-0.991821,0.281924,0.447634,-0.115725,60,283,573,5536
1644162351.438273,-0.009399,0.008057,-0.991211,0.297191,0.523969,-0.069924,54,268,579,5488
1644162351.486642,-0.009216,0.008179,-0.991516,0.327725,0.340763,-0.039389,48,271,573,5552
1644162351.535498,-0.011108,0.008484,-0.991333,0.220855,0.417099,-0.085191,58,264,569,5600
1644162351.585637,-0.011475,0.007751,-0.993347,0.236122,0.340763,-0.14626,53,276,576,5552
1644162351.635789,-0.00885,0.011536,-0.990723,0.144519,0.188092,-0.161527,48,281,578,5536
1644162351.680857,-0.006592,0.007629,-0.993835,0.434595,0.447634,-0.130992,48,276,578,5536
1644162351.776988,-0.010986,0.009644,-0.991943,0.220855,0.386565,-0.100458,45,270,577,5552
1644162351.825405,-0.008789,0.00708,-0.99231,0.312458,0.401832,-0.115725,43,281,578,5520
1644162351.873833,-0.009155,0.007751,-0.991272,0.297191,0.356031,-0.161527,49,277,575,5552
1644162351.922418,-0.011597,0.006287,-0.989685,0.281924,0.310229,-0.069924,49,277,577,5584
1644162351.970598,-0.008179,0.010559,-0.992065,0.342992,0.462901,-0.14626,57,277,575,5552
1644162352.018982,-0.009155,0.011414,-0.991089,0.342992,0.310229,-0.039389,54,282,575,5488
1644162352.069753,-0.010376,0.010742,-0.992432,0.297191,0.386565,-0.039389,57,270,584,5536
1644162352.115752,-0.011963,0.010193,-0.992615,0.281924,0.294962,-0.115725,53,279,583,5536
1644162352.164103,-0.010376,0.010742,-0.992126,0.312458,0.401832,-0.161527,49,277,572,5552
1644162352.212523,-0.008423,0.011475,-0.992981,0.388794,0.386565,-0.100458,46,276,564,5536
1644162352.260878,-0.009277,0.010864,-0.991028,0.220855,0.310229,0.113282,55,279,566,5584
1644162352.309287,-0.011841,0.009094,-0.994019,0.281924,0.401832,-0.161527,52,280,572,5584
1644162352.357678,-0.008728,0.010254,-0.994019,0.08345,0.432366,-0.222595,49,275,577,5520
1644162352.406062,-0.008667,0.009827,-0.993225,0.144519,0.478168,-0.069924,51,276,569,5600
1644162352.454458,-0.012024,0.009399,-0.992432,0.327725,0.478168,-0.14626,55,288,580,5536
1644162352.502824,-0.012817,0.010132,-0.992737,0.312458,0.569771,-0.14626,55,271,580,5584
1644162352.55121,-0.01001,0.008667,-0.993164,0.251389,0.371298,-0.14626,49,275,577,5472
1644162352.599701,-0.010193,0.008789,-0.994873,0.251389,0.371298,-0.039389,52,273,575,5552
1644162352.64835,-0.007935,0.013184,-0.989807,0.175053,0.447634,-0.176794,41,281,580,5536
1644162352.697787,-0.013184,0.010254,-0.989441,0.388794,0.371298,0.006412,59,287,570,5552
1644162352.7484,-0.009277,0.011963,-0.991943,0.266656,0.585038,-0.115725,53,279,573,5552
1644162352.798122,-0.010437,0.009827,-0.991028,0.190321,0.340763,-0.115725,45,270,582,5584
1644162352.890012,-0.008179,0.008606,-0.99353,0.129252,0.462901,-0.039389,54,275,577,5520
1644162352.938387,-0.01123,0.009521,-0.991211,0.297191,0.508702,-0.115725,41,274,573,5536
1644162352.986789,-0.009521,0.009705,-0.988342,0.220855,0.325496,-0.085191,45,275,575,5584
1644162353.042557,-0.010864,0.009338,-0.992981,0.205588,0.493435,-0.085191,49,265,575,5552
1644162353.086265,-0.009155,0.009399,-0.993347,0.220855,0.462901,-0.130992,52,275,572,5584
1644162353.131958,-0.010742,0.01178,-0.993164,0.251389,0.371298,-0.207328,51,271,576,5584
1644162353.18032,-0.007568,0.009399,-0.990845,0.251389,0.417099,-0.207328,61,270,575,5536
1644162353.22871,-0.009705,0.008301,-0.990845,0.220855,0.356031,-0.069924,54,268,579,5584
1644162353.277098,-0.009521,0.00885,-0.993286,0.266656,0.417099,-0.222595,49,263,577,5600
1644162353.325484,-0.013367,0.007141,-0.992432,0.022382,0.462901,-0.085191,53,276,576,5600
1644162353.373878,-0.010498,0.005188,-0.990906,0.08345,0.218626,-0.085191,61,275,572,5536
1644162353.422269,-0.009521,0.008789,-0.992493,0.297191,0.462901,-0.314198,54,270,577,5552
1644162353.470641,-0.010864,0.00885,-0.98938,0.205588,0.432366,-0.115725,53,279,578,5584
1644162353.519053,-0.008789,0.009216,-0.990173,0.159786,0.493435,-0.14626,51,262,583,5536
1644162353.567431,-0.008972,0.009094,-0.991394,0.175053,0.615573,0.067481,60,274,566,5552
1644162353.61581,-0.010986,0.009888,-0.994385,0.251389,0.493435,-0.054656,51,276,569,5488
1644162353.664206,-0.008606,0.009766,-0.995544,0.35826,0.493435,-0.115725,58,281,571,5488
1644162353.712946,-0.013,0.008484,-0.993469,0.251389,0.508702,-0.024122,49,268,572,5632
1644162353.760991,-0.008057,0.007935,-0.995178,0.297191,0.447634,-0.024122,55,279,576,5536
1644162353.810786,-0.009216,0.010193,-0.992249,0.46513,0.478168,0.036947,46,276,578,5552
1644162353.862408,-0.008484,0.008789,-0.990356,0.297191,0.462901,-0.100458,51,279,578,5600
1644162353.906657,-0.010803,0.010986,-0.991638,0.266656,0.386565,-0.115725,48,279,580,5488
1644162354.003026,-0.011169,0.008667,-0.990112,0.190321,0.554504,-0.008855,46,271,580,5520
1644162354.057888,-0.009644,0.010132,-0.99353,0.236122,0.447634,-0.039389,55,271,573,5584
1644162354.099722,-0.010376,0.010193,-0.99231,0.129252,0.340763,-0.008855,48,279,580,5584
1644162354.14818,-0.008911,0.011536,-0.992798,0.266656,0.325496,-0.222595,55,274,566,5552
1644162354.196551,-0.012146,0.006897,-0.992188,0.220855,0.417099,-0.222595,52,280,577,5552
1644162354.244904,-0.010925,0.009338,-0.99115,0.297191,0.432366,0.006412,58,281,580,5536
1644162354.293316,-0.008423,0.009766,-0.993164,0.251389,0.432366,-0.054656,55,269,585,5584
1644162354.341703,-0.010254,0.01062,-0.99408,0.205588,0.340763,-0.130992,48,269,573,5584
1644162354.390114,-0.009155,0.008301,-0.991699,0.098718,0.233893,-0.268397,52,273,572,5552
1644162354.43848,-0.008789,0.009094,-0.991089,0.251389,0.447634,-0.161527,58,276,571,5552
1644162354.486883,-0.010742,0.009277,-0.989807,0.312458,0.493435,-0.069924,57,277,579,5584
1644162354.535272,-0.009277,0.010742,-0.995117,0.35826,0.356031,0.067481,39,279,578,5472
1644162354.583663,-0.007446,0.010986,-0.990967,0.205588,0.401832,-0.069924,48,271,566,5600
1644162354.632044,-0.009399,0.009766,-0.991028,0.35826,0.386565,-0.069924,45,277,572,5536
1644162354.680439,-0.010071,0.008484,-0.992554,0.175053,0.356031,-0.130992,53,274,583,5488
1644162354.729161,-0.01001,0.011475,-0.992065,0.327725,0.554504,-0.100458,45,268,582,5584
1644162354.77725,-0.011353,0.011841,-0.992432,0.175053,0.386565,-0.085191,53,276,564,5488
1644162354.82762,-0.01178,0.007935,-0.990723,0.312458,0.417099,-0.008855,43,279,580,5472
1644162354.877926,-0.008972,0.013123,-0.990601,0.098718,0.401832,0.036947,54,268,579,5552
1644162354.927871,-0.007812,0.010315,-0.989685,0.08345,0.417099,-0.039389,52,270,572,5584
1644162355.019205,-0.011169,0.009277,-0.988281,0.297191,0.24916,-0.237863,53,281,576,5584
1644162355.070261,-0.00946,0.008972,-0.991089,0.251389,0.523969,-0.192061,47,285,570,5536
1644162355.115895,-0.010925,0.007812,-0.99353,0.236122,0.600305,-0.069924,49,270,570,5536
1644162355.164303,-0.00946,0.007202,-0.991272,0.373527,0.264427,-0.039389,49,285,584,5536
1644162355.212718,-0.010376,0.010864,-0.99115,0.052916,0.294962,-0.176794,51,279,569,5584
1644162355.261081,-0.014282,0.008118,-0.991577,0.159786,0.401832,-0.008855,52,268,586,5536
1644162355.309483,-0.010925,0.007996,-0.991943,0.251389,0.386565,-0.100458,49,268,579,5584
1644162355.357838,-0.011047,0.012451,-0.990784,0.404061,0.279695,-0.130992,52,275,565,5552
1644162355.406256,-0.007812,0.009033,-0.991821,0.281924,0.493435,-0.176794,55,276,573,5584
1644162355.454714,-0.011414,0.007324,-0.99054,0.236122,0.203359,-0.039389,48,274,578,5584
1644162355.503062,-0.010315,0.011597,-0.994202,0.236122,0.508702,-0.115725,53,281,580,5552
1644162355.551429,-0.010254,0.010986,-0.992371,0.236122,0.523969,-0.069924,62,279,573,5536
1644162355.599793,-0.009644,0.010254,-0.992493,0.190321,0.493435,-0.283664,42,273,572,5584
1644162355.648208,-0.009583,0.010498,-0.991394,0.327725,0.447634,0.021679,48,269,562,5536
1644162355.696599,-0.009827,0.009521,-0.99231,0.08345,0.508702,-0.14626,61,275,582,5584
1644162355.745033,-0.011719,0.009399,-0.99353,0.449863,0.523969,-0.069924,49,277,584,5536
1644162355.793431,-0.008606,0.007507,-0.992676,0.327725,0.371298,-0.14626,51,271,569,5536
1644162355.842081,-0.010803,0.009399,-0.992737,0.373527,0.478168,-0.222595,54,285,584,5520
1644162355.890601,-0.00769,0.010559,-0.990417,0.236122,0.371298,0.021679,58,276,573,5552
1644162355.940675,-0.008301,0.010376,-0.992371,0.220855,0.371298,-0.176794,54,282,582,5584
1644162355.990994,-0.011597,0.011658,-0.990173,0.144519,0.523969,-0.161527,55,276,576,5584
1644162356.055355,-0.00946,0.00885,-0.990845,0.190321,0.401832,0.006412,57,273,575,5600
1644162356.132083,-0.008362,0.01001,-0.992065,0.144519,0.325496,-0.115725,41,271,583,5584
1644162356.180485,-0.010681,0.007874,-0.991821,0.342992,0.371298,-0.069924,51,279,571,5584
1644162356.228873,-0.01123,0.008057,-0.992615,0.190321,0.523969,-0.069924,49,265,577,5600
1644162356.277266,-0.010559,0.010681,-0.99353,0.236122,0.493435,-0.069924,49,277,575,5536
1644162356.325654,-0.01178,0.010132,-0.992126,0.159786,0.432366,-0.115725,36,283,578,5536
1644162356.374056,-0.007812,0.007507,-0.993469,0.266656,0.310229,-0.085191,47,275,579,5536
1644162356.422456,-0.012085,0.006287,-0.993835,0.190321,0.462901,-0.192061,47,265,575,5536
1644162356.470836,-0.009766,0.009338,-0.99176,0.113985,0.508702,-0.054656,51,288,569,5536
1644162356.519226,-0.009338,0.011475,-0.991821,0.175053,0.356031,-0.14626,59,275,572,5536
1644162356.567618,-0.011047,0.010437,-0.990723,0.266656,0.371298,-0.161527,48,276,571,5536
1644162356.615982,-0.010071,0.009399,-0.991455,0.251389,0.310229,-0.130992,47,277,575,5536
1644162356.664402,-0.010559,0.009766,-0.993591,0.327725,0.432366,-0.054656,51,274,576,5584
1644162356.712807,-0.013855,0.008911,-0.994263,0.190321,0.417099,-0.115725,51,269,583,5536
1644162356.761151,-0.013245,0.008423,-0.990112,0.220855,0.462901,-0.008855,49,280,577,5536
1644162356.809597,-0.010742,0.00946,-0.99231,0.159786,0.478168,-0.069924,45,273,570,5536
1644162356.857981,-0.010193,0.007507,-0.991577,0.419328,0.539237,-0.085191,46,281,578,5600
1644162356.906389,-0.016113,0.007629,-0.993286,0.190321,0.462901,0.006412,55,279,564,5600
1644162356.95478,-0.011902,0.011597,-0.993286,0.312458,0.356031,-0.085191,55,274,576,5584
1644162357.00317,-0.009399,0.009827,-0.99054,0.297191,0.432366,-0.054656,49,265,584,5552
1644162357.071271,-0.010437,0.008057,-0.994812,0.159786,0.310229,-0.085191,60,271,576,5552
1644162357.100563,-0.008301,0.010681,-0.991699,0.205588,0.401832,-0.14626,52,275,575,5536
1644162357.196674,-0.009888,0.010925,-0.992126,0.266656,0.401832,-0.085191,46,269,571,5584
1644162357.2453,-0.009033,0.009155,-0.991272,0.175053,0.325496,-0.008855,46,281,578,5536
1644162357.293454,-0.012451,0.008545,-0.991272,0.220855,0.447634,-0.085191,51,269,578,5600
1644162357.341827,-0.007996,0.009033,-0.990967,0.388794,0.462901,-0.14626,46,271,569,5536
1644162357.390231,-0.012817,0.009521,-0.991821,0.266656,0.371298,0.098015,55,279,571,5520
1644162357.43863,-0.008118,0.008301,-0.991211,0.220855,0.478168,0.006412,55,274,580,5584
1644162357.487017,-0.009827,0.011719,-0.990906,0.266656,0.523969,-0.130992,54,275,570,5536
1644162357.535398,-0.012451,0.009399,-0.991699,0.297191,0.417099,-0.054656,43,271,578,5536
1644162357.583804,-0.010742,0.008728,-0.99115,0.098718,0.554504,-0.024122,52,282,572,5552
1644162357.632209,-0.009277,0.008057,-0.993713,0.205588,0.462901,-0.024122,49,268,577,5584
1644162357.680584,-0.012878,0.007141,-0.992126,0.312458,0.325496,-0.008855,47,285,579,5584
1644162357.728981,-0.009277,0.010925,-0.993347,0.190321,0.432366,-0.192061,54,265,572,5648
1644162357.777358,-0.012451,0.009033,-0.99408,0.159786,0.493435,-0.161527,54,268,577,5536
1644162357.82578,-0.009033,0.009277,-0.991699,0.312458,0.264427,-0.100458,46,271,578,5536
1644162357.874181,-0.007385,0.011169,-0.989624,0.342992,0.386565,-0.039389,54,275,577,5536
1644162357.922588,-0.008179,0.009705,-0.989014,0.297191,0.356031,-0.054656,47,273,584,5600
1644162357.970965,-0.009399,0.008911,-0.994263,0.205588,0.585038,-0.222595,49,282,579,5584
1644162358.019339,-0.013123,0.007324,-0.99054,0.205588,0.432366,0.067481,48,274,576,5584
1644162358.07686,-0.012146,0.007263,-0.99292,0.312458,0.523969,-0.14626,46,271,580,5536
1644162358.117795,-0.010437,0.008789,-0.991394,0.327725,0.493435,-0.14626,51,274,569,5536
1644162358.166262,-0.010803,0.008606,-0.99176,0.266656,0.325496,-0.115725,62,281,569,5552
1644162358.216599,-0.011169,0.008362,-0.990784,0.342992,0.432366,-0.130992,48,274,573,5584
1644162358.261579,-0.009949,0.005859,-0.995422,0.113985,0.600305,0.036947,46,279,578,5584
1644162358.358027,-0.013428,0.01001,-0.99292,0.266656,0.462901,-0.115725,54,275,579,5536
1644162358.406412,-0.01123,0.010986,-0.989319,0.220855,0.462901,-0.222595,46,271,571,5456
1644162358.45486,-0.009033,0.009338,-0.99231,0.159786,0.294962,-0.192061,39,274,576,5536
1644162358.503224,-0.009094,0.006897,-0.990356,0.175053,0.401832,-0.008855,58,276,573,5536
1644162358.551594,-0.012756,0.008179,-0.992432,0.251389,0.508702,-0.192061,49,280,577,5472
1644162358.599984,-0.012695,0.011047,-0.991211,0.190321,0.462901,-0.115725,47,280,575,5536
1644162358.648379,-0.012146,0.009827,-0.991211,0.159786,0.340763,-0.115725,52,273,575,5584
1644162358.696763,-0.008789,0.008423,-0.991943,0.251389,0.264427,-0.130992,49,273,577,5536
1644162358.74518,-0.011963,0.00824,-0.990662,0.266656,0.478168,0.006412,54,282,570,5584
1644162358.793545,-0.011169,0.009155,-0.992371,0.251389,0.478168,-0.100458,54,275,572,5552
1644162358.84199,-0.011475,0.007263,-0.991028,0.419328,0.340763,-0.069924,48,283,566,5520
1644162358.890373,-0.009766,0.008728,-0.994385,0.129252,0.264427,-0.100458,59,277,572,5536
1644162358.93873,-0.010193,0.006653,-0.993652,0.190321,0.462901,-0.192061,59,273,584,5536
1644162358.987381,-0.010437,0.008789,-0.991943,0.175053,0.417099,-0.085191,60,279,578,5552
1644162359.045711,-0.009033,0.008789,-0.993103,0.205588,0.432366,-0.024122,51,274,585,5536
1644162359.084744,-0.01123,0.008301,-0.994446,0.342992,0.371298,-0.192061,48,276,571,5520
1644162359.132295,-0.00946,0.010742,-0.993652,0.205588,0.539237,-0.069924,53,271,566,5584
1644162359.180669,-0.011169,0.009216,-0.992615,0.236122,0.462901,0.052214,48,276,583,5600
1644162359.229049,-0.008423,0.008484,-0.993591,0.251389,0.24916,-0.14626,45,282,579,5584
1644162359.277605,-0.009338,0.009949,-0.992493,0.251389,0.386565,-0.100458,54,277,570,5472
1644162359.328119,-0.012207,0.009094,-0.991577,-0.02342,0.401832,-0.100458,49,270,577,5552
1644162359.378539,-0.011475,0.006531,-0.991516,0.266656,0.417099,0.052214,52,277,579,5584
1644162359.423299,-0.010864,0.012878,-0.991455,0.327725,0.340763,-0.100458,47,273,586,5520
1644162359.519415,-0.009888,0.009094,-0.990417,0.220855,0.493435,-0.069924,39,281,578,5536
1644162359.567759,-0.010925,0.005798,-0.990295,0.159786,0.356031,-0.085191,51,269,585,5536
1644162359.61616,-0.012085,0.008057,-0.994995,0.419328,0.233893,-0.054656,51,279,576,5536
1644162359.664809,-0.009888,0.008972,-0.992432,0.205588,0.539237,0.067481,47,268,577,5552
1644162359.71296,-0.014282,0.010498,-0.99176,0.159786,0.432366,0.021679,52,273,572,5520
1644162359.761331,-0.007263,0.008545,-0.991333,0.159786,0.340763,-0.024122,47,273,575,5552
1644162359.809741,-0.010315,0.008545,-0.99176,0.251389,0.508702,-0.298931,53,274,571,5600
1644162359.858171,-0.010742,0.006653,-0.990295,0.144519,0.340763,0.006412,42,275,577,5536
1644162359.906569,-0.009094,0.008667,-0.992004,0.144519,0.356031,-0.207328,53,266,573,5584
1644162359.955096,-0.011658,0.008423,-0.992981,0.297191,0.539237,-0.054656,47,275,575,5552
1644162360.003363,-0.014526,0.010071,-0.991211,0.205588,0.401832,0.021679,51,274,571,5600
1644162360.062476,-0.009705,0.009094,-0.994141,0.205588,0.264427,-0.192061,49,282,579,5536
1644162360.100119,-0.011047,0.009583,-0.991577,0.327725,0.325496,-0.008855,39,276,576,5520
1644162360.148465,-0.009583,0.012817,-0.993896,0.281924,0.356031,-0.054656,46,276,578,5520
1644162360.19682,-0.011658,0.010193,-0.992188,0.297191,0.218626,-0.130992,49,292,584,5584
1644162360.245245,-0.010925,0.011047,-0.989319,0.312458,0.340763,-0.207328,45,270,579,5536
1644162360.293637,-0.010864,0.010254,-0.992188,0.327725,0.417099,-0.008855,49,280,584,5536
1644162360.342029,-0.011047,0.00885,-0.992859,0.205588,0.447634,-0.085191,48,276,571,5552
1644162360.390395,-0.011414,0.009644,-0.993591,0.159786,0.462901,-0.115725,46,274,580,5536
1644162360.438848,-0.009155,0.008972,-0.990234,0.404061,0.569771,-0.192061,52,282,584,5600
1644162360.48934,-0.010742,0.00824,-0.993042,0.236122,0.554504,-0.085191,51,283,587,5536
1644162360.53958,-0.012207,0.012329,-0.993469,0.388794,0.371298,-0.115725,54,273,584,5584
1644162360.584368,-0.009155,0.010742,-0.995117,0.297191,0.203359,-0.161527,47,270,584,5536
1644162360.680756,-0.008301,0.008911,-0.992554,0.266656,0.356031,-0.176794,55,276,571,5552
1644162360.729148,-0.009644,0.008972,-0.99054,0.159786,0.432366,-0.069924,43,283,576,5536
1644162360.777529,-0.008606,0.013367,-0.992371,0.266656,0.493435,-0.207328,53,271,569,5584
1644162360.82591,-0.012756,0.007202,-0.993958,0.327725,0.340763,-0.100458,59,273,577,5552
1644162360.874366,-0.009827,0.011658,-0.993286,0.144519,0.539237,-0.283664,57,275,570,5584
1644162360.922777,-0.010376,0.010315,-0.994812,0.205588,0.386565,-0.100458,49,292,575,5552
1644162360.971148,-0.008118,0.008484,-0.992004,0.175053,0.493435,-0.024122,59,270,582,5488
1644162361.019543,-0.011047,0.008484,-0.991028,0.098718,0.554504,-0.008855,51,271,583,5648
1644162361.071836,-0.009705,0.008667,-0.98938,0.144519,0.600305,-0.176794,55,276,573,5536
1644162361.116309,-0.01178,0.007446,-0.990051,0.236122,0.554504,-0.192061,46,281,578,5584
1644162361.164672,-0.008972,0.011597,-0.990906,0.312458,0.417099,-0.100458,53,269,578,5488
1644162361.213062,-0.007935,0.014587,-0.992493,0.297191,0.493435,-0.115725,51,274,569,5600
1644162361.26145,-0.00769,0.011719,-0.990967,0.190321,0.356031,-0.115725,54,270,584,5536
1644162361.309831,-0.010559,0.01062,-0.992004,0.175053,0.539237,-0.039389,45,273,586,5552
1644162361.358222,-0.008667,0.009338,-0.991577,0.144519,0.340763,-0.192061,48,276,559,5536
1644162361.406644,-0.012268,0.010742,-0.992676,0.281924,0.615573,-0.222595,45,270,582,5552
1644162361.456128,-0.012817,0.009583,-0.992065,0.144519,0.24916,-0.14626,58,274,576,5584
1644162361.506867,-0.011536,0.009155,-0.990417,0.190321,0.447634,-0.069924,52,268,568,5536
1644162361.557378,-0.011047,0.011414,-0.992981,0.236122,0.432366,-0.237863,55,276,569,5552
1644162361.648584,-0.01239,0.008423,-0.991821,0.236122,0.539237,-0.100458,45,285,570,5600
1644162361.696923,-0.006287,0.008423,-0.993835,0.297191,0.356031,-0.176794,55,276,569,5488
1644162361.745405,-0.007446,0.011841,-0.990845,0.342992,0.401832,-0.207328,47,263,565,5584
1644162361.793735,-0.011169,0.012451,-0.992126,0.327725,0.493435,-0.024122,57,277,565,5536
1644162361.842624,-0.01001,0.010803,-0.993652,0.052916,0.462901,-0.161527,52,263,570,5600
1644162361.89055,-0.012146,0.007568,-0.992737,0.220855,0.447634,-0.069924,45,270,572,5584
1644162361.938957,-0.00946,0.009888,-0.993469,0.159786,0.478168,-0.069924,52,268,575,5536
1644162361.987341,-0.009644,0.011658,-0.990723,0.281924,0.478168,-0.054656,49,285,568,5632
1644162362.050983,-0.009338,0.009827,-0.992981,0.266656,0.417099,-0.176794,58,269,578,5536
1644162362.084456,-0.008423,0.011719,-0.990234,0.129252,0.447634,-0.207328,47,275,575,5584
1644162362.132486,-0.01062,0.011902,-0.994629,0.190321,0.310229,-0.069924,51,283,569,5600
1644162362.180884,-0.011169,0.008362,-0.992371,0.236122,0.356031,-0.176794,58,271,580,5552
1644162362.229274,-0.011658,0.006775,-0.992004,0.327725,0.432366,-0.024122,45,280,570,5584
1644162362.277673,-0.012512,0.009094,-0.989502,0.266656,0.371298,-0.024122,48,279,576,5648
1644162362.326099,-0.010986,0.008423,-0.990479,0.35826,0.417099,-0.207328,53,266,571,5472
1644162362.374805,-0.012817,0.010132,-0.990356,0.190321,0.447634,-0.161527,57,280,572,5584
1644162362.424791,-0.011169,0.008423,-0.99353,0.190321,0.447634,-0.039389,43,281,576,5536
1644162362.475351,-0.007874,0.009888,-0.991333,-0.008153,0.417099,-0.100458,38,277,582,5536
1644162362.519789,-0.010437,0.01001,-0.99408,0.281924,0.401832,-0.14626,54,277,570,5600
1644162362.616381,-0.009338,0.009094,-0.991943,0.251389,0.539237,-0.024122,46,274,571,5584
1644162362.664897,-0.007935,0.008789,-0.991821,0.281924,0.417099,-0.207328,48,271,566,5600
1644162362.713187,-0.008667,0.011108,-0.990173,0.190321,0.478168,-0.100458,52,268,577,5536
1644162362.761544,-0.013306,0.008667,-0.990967,0.220855,0.310229,-0.14626,46,276,569,5584
1644162362.80996,-0.01355,0.008423,-0.99292,0.190321,0.539237,-0.039389,52,277,577,5536
1644162362.858354,-0.010132,0.00824,-0.992004,0.327725,0.325496,-0.039389,46,276,580,5584
1644162362.906753,-0.009583,0.006653,-0.991943,0.022382,0.417099,-0.222595,46,279,578,5536
1644162362.955239,-0.008362,0.00885,-0.993958,0.35826,0.447634,-0.207328,51,271,585,5584
1644162363.00353,-0.009521,0.008484,-0.992249,0.052916,0.24916,-0.069924,47,280,579,5536
1644162363.051999,-0.011536,0.007446,-0.993591,0.236122,0.493435,-0.237863,57,277,572,5520
1644162363.100266,-0.010986,0.011475,-0.990967,0.205588,0.478168,0.098015,43,274,576,5600
1644162363.148662,-0.012756,0.007263,-0.990845,0.129252,0.554504,-0.039389,43,271,583,5584
1644162363.197034,-0.010803,0.009583,-0.991028,0.251389,0.417099,-0.192061,46,264,576,5536
1644162363.245442,-0.012451,0.009399,-0.99054,0.327725,0.493435,-0.14626,57,282,575,5536
1644162363.293826,-0.010193,0.009521,-0.98999,0.205588,0.371298,-0.024122,52,280,565,5584
1644162363.342296,-0.010132,0.006165,-0.990356,0.266656,0.417099,-0.192061,57,280,575,5488
1644162363.390602,-0.009155,0.010925,-0.993469,0.236122,0.371298,-0.115725,38,273,582,5584
1644162363.438988,-0.011719,0.007935,-0.98999,0.175053,0.386565,-0.130992,49,294,577,5632
1644162363.487801,-0.011902,0.008179,-0.992493,0.297191,0.340763,-0.024122,47,270,570,5584
1644162363.535904,-0.008301,0.008362,-0.993774,0.266656,0.325496,-0.222595,54,277,579,5632
1644162363.586294,-0.010315,0.010559,-0.991455,0.251389,0.401832,-0.024122,52,273,570,5552
1644162363.636569,-0.008606,0.008667,-0.992004,0.266656,0.447634,-0.024122,55,283,569,5536
1644162363.681626,-0.01062,0.00769,-0.992676,0.220855,0.340763,-0.115725,47,277,577,5584
1644162363.777702,-0.01001,0.010681,-0.99292,0.449863,0.279695,-0.024122,48,264,576,5552
1644162363.826128,-0.010742,0.010437,-0.991943,0.251389,0.554504,-0.130992,47,282,570,5600
1644162363.874555,-0.012939,0.011475,-0.991821,0.190321,0.294962,-0.024122,46,271,569,5584
1644162363.922952,-0.011536,0.01178,-0.990662,0.190321,0.325496,-0.069924,51,276,569,5536
1644162363.971304,-0.008545,0.011902,-0.991028,0.373527,0.203359,0.021679,43,274,566,5584
1644162364.019711,-0.011597,0.010132,-0.989746,0.342992,0.478168,0.006412,48,271,583,5536
1644162364.071345,-0.007812,0.008728,-0.992432,0.129252,0.340763,-0.314198,46,279,576,5552
1644162364.116444,-0.011658,0.005859,-0.992126,0.190321,0.371298,-0.176794,58,283,578,5600
1644162364.164861,-0.010132,0.010986,-0.991882,0.08345,0.508702,-0.039389,54,285,572,5536
1644162364.213239,-0.008057,0.008118,-0.993469,0.266656,0.325496,-0.039389,51,279,585,5536
1644162364.26161,-0.010315,0.008057,-0.991638,0.236122,0.356031,0.006412,47,282,575,5552
1644162364.310012,-0.009705,0.009216,-0.991577,0.190321,0.294962,-0.024122,53,281,576,5536
1644162364.358413,-0.010376,0.012634,-0.993774,0.129252,0.417099,-0.161527,51,269,576,5536
1644162364.406788,-0.007996,0.009583,-0.993652,0.297191,0.447634,0.021679,53,279,569,5600
1644162364.4552,-0.012451,0.009583,-0.989807,0.175053,0.447634,-0.100458,52,268,572,5552
1644162364.503552,-0.011047,0.01001,-0.989807,0.373527,0.432366,-0.100458,48,271,583,5600
1644162364.551957,-0.012024,0.00946,-0.992432,0.251389,0.462901,-0.069924,51,262,587,5520
1644162364.600324,-0.01239,0.00885,-0.995605,0.205588,0.539237,-0.207328,52,280,565,5488
1644162364.648734,-0.009338,0.009338,-0.99292,0.08345,0.417099,-0.14626,43,279,578,5536
1644162364.697459,-0.01001,0.010376,-0.992065,0.220855,0.478168,-0.039389,53,269,571,5552
1644162364.748121,-0.010925,0.009827,-0.989929,0.297191,0.386565,-0.115725,54,282,577,5632
1644162364.798484,-0.011292,0.013855,-0.990723,0.205588,0.447634,-0.024122,58,279,587,5536
1644162364.843554,-0.012573,0.009644,-0.99231,0.175053,0.478168,-0.115725,53,269,573,5584
1644162364.939116,-0.01239,0.010559,-0.993469,0.312458,0.554504,-0.100458,49,270,579,5584
1644162364.987496,-0.010803,0.011536,-0.993774,0.205588,0.325496,-0.176794,52,275,572,5552
1644162365.04631,-0.008789,0.011536,-0.992432,0.297191,0.340763,-0.085191,47,275,579,5536
1644162365.085434,-0.009705,0.009521,-0.992615,0.190321,0.371298,-0.115725,42,268,582,5488
1644162365.132663,-0.010498,0.008972,-0.990967,-0.038687,0.371298,-0.085191,55,274,585,5536
1644162365.181041,-0.007568,0.008606,-0.991211,0.251389,0.432366,-0.176794,47,275,572,5584
1644162365.229426,-0.007996,0.010193,-0.989563,0.037649,0.493435,-0.161527,49,270,568,5584
1644162365.277794,-0.00885,0.009277,-0.991455,0.251389,0.478168,-0.024122,52,263,577,5584
1644162365.32621,-0.009521,0.008423,-0.993225,0.342992,0.401832,-0.069924,48,276,569,5536
1644162365.374631,-0.008301,0.008606,-0.990967,0.236122,0.371298,-0.039389,54,273,582,5520
1644162365.423194,-0.013794,0.008667,-0.994141,0.205588,0.447634,-0.024122,48,266,585,5552
1644162365.472501,-0.009827,0.011658,-0.992004,0.205588,0.356031,-0.14626,43,274,571,5536
1644162365.524645,-0.008484,0.011292,-0.992126,0.312458,0.478168,-0.237863,55,266,580,5536
1644162365.573128,-0.010071,0.008728,-0.991638,0.434595,0.478168,-0.115725,53,276,573,5536
1644162365.665231,-0.010925,0.008301,-0.99585,0.297191,0.462901,-0.283664,53,279,569,5584
1644162365.713336,-0.01123,0.010559,-0.99176,0.205588,0.371298,-0.054656,55,274,571,5536
1644162365.761699,-0.012512,0.01001,-0.992798,0.129252,0.462901,-0.161527,51,281,580,5552
1644162365.810097,-0.013184,0.010315,-0.993652,0.297191,0.417099,-0.024122,61,268,582,5536
1644162365.858525,-0.010498,0.010986,-0.992371,0.144519,0.417099,-0.161527,48,281,573,5632
1644162365.90692,-0.011292,0.009766,-0.991028,0.236122,0.432366,-0.085191,48,276,573,5552
1644162365.955309,-0.011047,0.011475,-0.993103,0.144519,0.401832,-0.039389,49,275,577,5536
1644162366.003692,-0.006104,0.010071,-0.99115,0.373527,0.432366,-0.161527,47,273,572,5600
1644162366.052302,-0.011597,0.010315,-0.993408,0.342992,0.432366,-0.085191,60,281,583,5584
1644162366.100473,-0.00946,0.008606,-0.989197,0.098718,0.386565,-0.115725,38,277,577,5488
1644162366.14883,-0.012024,0.007935,-0.993591,0.281924,0.447634,-0.054656,60,281,576,5632
1644162366.197215,-0.009888,0.009644,-0.990295,0.35826,0.279695,-0.069924,45,273,579,5600
1644162366.245608,-0.008301,0.009216,-0.993103,0.373527,0.447634,-0.008855,41,269,569,5536
1644162366.294017,-0.010925,0.009277,-0.99115,0.236122,0.447634,-0.069924,53,279,571,5472
1644162366.34242,-0.010132,0.00824,-0.993103,0.190321,0.417099,0.098015,45,282,577,5552
1644162366.390782,-0.007263,0.007874,-0.993103,0.312458,0.493435,0.006412,51,276,573,5536
1644162366.439173,-0.011841,0.010986,-0.991577,0.251389,0.493435,-0.069924,51,281,571,5584
1644162366.487852,-0.010437,0.007812,-0.991211,0.175053,0.356031,-0.161527,46,274,580,5520
1644162366.536739,-0.008423,0.007812,-0.992432,0.266656,0.432366,-0.024122,47,265,579,5520
1644162366.587344,-0.011169,0.00946,-0.993408,0.190321,0.401832,-0.207328,51,266,585,5552
1644162366.637393,-0.011963,0.011292,-0.991394,0.175053,0.462901,-0.024122,58,269,569,5536
1644162366.682461,-0.013367,0.00824,-0.99115,0.190321,0.340763,-0.130992,52,268,577,5536
1644162366.777897,-0.00885,0.008606,-0.993713,0.159786,0.356031,-0.085191,54,258,568,5520
1644162366.826276,-0.01178,0.00647,-0.991821,0.129252,0.508702,-0.176794,46,269,576,5552
1644162366.87474,-0.009155,0.009277,-0.991272,0.266656,0.356031,-0.054656,46,271,571,5600
1644162366.923124,-0.010986,0.008667,-0.991516,0.342992,0.447634,-0.192061,61,275,575,5552
1644162366.971519,-0.009705,0.010437,-0.993652,0.297191,0.523969,-0.085191,52,270,572,5600
1644162367.01986,-0.010986,0.008972,-0.99353,0.190321,0.417099,-0.207328,53,276,569,5520
1644162367.072948,-0.01062,0.00769,-0.992126,0.144519,0.523969,-0.237863,47,280,575,5600
1644162367.116648,-0.010437,0.009949,-0.991211,0.281924,0.493435,-0.192061,42,273,584,5552
1644162367.165148,-0.010681,0.009521,-0.990723,0.312458,0.371298,-0.176794,52,275,570,5536
1644162367.213422,-0.009094,0.010437,-0.992004,0.205588,0.478168,-0.161527,54,280,575,5520
